sep=,
DeviceTag:,Xsens_DOT_5,,,,,,,,,,,,,,,,,
FirmwareVersion:,3.0.0,,,,,,,,,,,,,,,,,
AppVersion:,2023.6.1,,,,,,,,,,,,,,,,,
SyncStatus:,Synced,,,,,,,,,,,,,,,,,
OutputRate:,60Hz,,,,,,,,,,,,,,,,,
FilterProfile:,General,,,,,,,,,,,,,,,,,
Measurement Mode:,Sensor fusion Mode - Extended (Quaternion),,,,,,,,,,,,,,,,,
StartTime:,2025-05-05 12:01:19.150 +0200,,,,,,,,,,,,,,,,,
 2025,,,,,,,,,,,,,,,,,,,

PacketCounter,SampleTimeFine,Quat_W,Quat_X,Quat_Y,Quat_Z,FreeAcc_X,FreeAcc_Y,FreeAcc_Z,Status
1, 3272143896, 0.8659348, 0.04191357, 0.36799502, -0.33613122, -0.027423698, 0.046654012, -0.055773735, 0
2, 3272160563, 0.8659189, 0.04208513, 0.36809245, -0.33604392, -0.030925924, 0.053290684, -0.045912743, 0
3, 3272177230, 0.8659095, 0.042243045, 0.3681743, -0.33595848, -0.045509025, -0.008292275, -0.121956825, 0
4, 3272193897, 0.86590266, 0.04243278, 0.3682563, -0.33586255, 0.0036269447, 0.057353396, -0.10638809, 0
5, 3272210564, 0.86589104, 0.04265359, 0.3683458, -0.33576632, -0.028509524, 0.0023210982, -0.14880562, 0
6, 3272227231, 0.8658741, 0.04295964, 0.3684743, -0.33562994, 0.001018772, 0.027270732, -0.13837719, 0
7, 3272243898, 0.8658592, 0.0432648, 0.36859685, -0.33549458, -0.03755487, 0.017237514, -0.050491333, 0
8, 3272260565, 0.86582136, 0.0434374, 0.36874488, -0.33540714, -0.049811427, 0.09461804, -0.048026085, 0
9, 3272277232, 0.86579376, 0.04355755, 0.36884794, -0.33534968, -0.02827193, 0.04230522, -0.0428257, 0
10, 3272293899, 0.86577535, 0.043653443, 0.36892417, -0.33530077, -0.027716948, 0.02556273, -0.07756901, 0
11, 3272310566, 0.86575204, 0.0437454, 0.36901903, -0.33524448, -0.0068189334, 0.02739738, -0.09811115, 0
12, 3272327233, 0.86572963, 0.043832432, 0.36910793, -0.33519295, -0.035433955, 0.01978844, -0.11050415, 0
13, 3272343900, 0.8657141, 0.043928117, 0.36918825, -0.33513236, -0.017445186, 0.01313094, -0.10043907, 0
14, 3272360567, 0.86569643, 0.044014655, 0.36928508, -0.33505982, -0.035840303, -1.7665906E-4, -0.10774326, 0
15, 3272377234, 0.86568266, 0.04410294, 0.3693765, -0.33498302, -0.009543779, 0.036942445, -0.07972431, 0
16, 3272393901, 0.86567265, 0.044174597, 0.3694396, -0.33492973, -0.01611573, 0.0060885767, -0.069314, 0
17, 3272410568, 0.86566556, 0.044230413, 0.3694922, -0.33488268, -0.03260227, 0.036710467, -0.06422329, 0
18, 3272427235, 0.8656549, 0.044264507, 0.3695376, -0.33485582, -0.045601785, 0.017672723, -0.089229584, 0
19, 3272443902, 0.86564755, 0.04429631, 0.36957377, -0.33483073, -0.023719642, 0.031336684, -0.067687035, 0
20, 3272460569, 0.8656341, 0.044312567, 0.369609, -0.3348242, -0.009965101, 0.019324595, -0.092689514, 0
21, 3272477236, 0.8656301, 0.044322826, 0.36962196, -0.3348189, -0.047572497, 0.018705884, -0.09114075, 0
22, 3272493903, 0.86562496, 0.04434203, 0.36963537, -0.33481494, -0.017195523, 0.008232653, -0.09671879, 0
23, 3272510570, 0.8656281, 0.044336267, 0.36963704, -0.33480585, -0.05154924, 0.04285646, -0.07504463, 0
24, 3272527237, 0.86563236, 0.04430745, 0.36962852, -0.33480823, -0.011866527, 0.025194269, -0.10835171, 0
25, 3272543904, 0.86563176, 0.044280842, 0.36961877, -0.33482382, -0.020258768, 0.037812635, -0.09647274, 0
26, 3272560571, 0.8656387, 0.044244617, 0.36960107, -0.3348302, -0.033588856, 0.0028564956, -0.09854889, 0
27, 3272577238, 0.8656473, 0.04417826, 0.36956444, -0.33485726, -0.013829194, 0.06296843, -0.009646416, 0
28, 3272593905, 0.8656534, 0.044055328, 0.36951715, -0.33490968, -0.02041925, 0.009179258, -0.09549713, 0
29, 3272610572, 0.86565846, 0.043963477, 0.36948445, -0.3349446, -0.037215356, -0.0018909476, -0.117871284, 0
30, 3272627239, 0.8656621, 0.043871306, 0.36945468, -0.33498055, -0.014107915, 0.042000346, -0.055874825, 0
31, 3272643906, 0.86566585, 0.043650754, 0.36939794, -0.3350625, -0.010355579, 0.06487332, -0.012236595, 0
32, 3272660573, 0.865667, 0.043425154, 0.36934662, -0.33514524, -0.018845942, -0.024909373, -0.13737011, 0
33, 3272677240, 0.8656674, 0.043223623, 0.36930084, -0.33522043, -0.03656493, 0.052781384, -0.085152626, 0
34, 3272693907, 0.86566573, 0.04303192, 0.36926675, -0.33528674, -0.0031195704, -0.015339191, -0.12152195, 0
35, 3272710574, 0.865662, 0.042901844, 0.3692501, -0.33533147, 6.057201E-4, -0.0020006085, -0.1414547, 0
36, 3272727241, 0.8656511, 0.04286313, 0.36926642, -0.33534637, -0.010953029, -0.029035045, -0.13968086, 0
37, 3272743908, 0.8656429, 0.042896472, 0.3692895, -0.3353379, -0.007856034, 0.0058326824, -0.12429237, 0
38, 3272760575, 0.86563635, 0.04295405, 0.3693097, -0.33532542, -0.022039942, 0.021378735, -0.078772545, 0
39, 3272777242, 0.8656394, 0.042981923, 0.3693127, -0.33531082, -0.028286459, -0.002616834, -0.114071846, 0
40, 3272793909, 0.8656369, 0.04306036, 0.36933324, -0.33528462, -0.0154163595, 0.0033906356, -0.105978966, 0
41, 3272810576, 0.8656303, 0.043140195, 0.3693731, -0.33524704, -0.018451665, 0.0037988261, -0.11843681, 0
42, 3272827243, 0.8656216, 0.04326109, 0.36941808, -0.3352045, -0.011687716, 0.029774552, -0.08913708, 0
43, 3272843910, 0.86561614, 0.043322675, 0.36945635, -0.33516875, -0.04278351, 0.023974642, -0.079660416, 0
44, 3272860577, 0.8656162, 0.043364227, 0.36947033, -0.33514744, -0.026357764, 0.019539056, -0.08388233, 0
45, 3272877244, 0.8656164, 0.043418866, 0.36949214, -0.33511606, 0.014719892, 0.02162228, -0.09753704, 0
46, 3272893911, 0.86561304, 0.04346456, 0.36952677, -0.33508024, -0.013931115, 0.035151407, -0.096488, 0
47, 3272910578, 0.8656133, 0.043521486, 0.36954302, -0.33505458, -0.033670664, 0.014849754, -0.1159668, 0
50, 3272960579, 0.8656105, 0.04374326, 0.3696388, -0.33492738, -0.020738203, 0.046204764, -0.05293274, 0
51, 3272977246, 0.8655952, 0.04375317, 0.36967394, -0.33492643, -0.02594762, 0.0063826637, -0.09201527, 0
52, 3272993913, 0.8655819, 0.043731943, 0.36969352, -0.33494198, -0.03906023, 0.015143254, -0.060747147, 0
54, 3273027247, 0.8655771, 0.043723587, 0.36971778, -0.33492875, -0.011991247, -0.02022172, -0.10928345, 0
55, 3273043914, 0.8655764, 0.043779865, 0.36974153, -0.3348974, -0.026964827, -0.010582556, -0.124575615, 0
56, 3273060581, 0.86557406, 0.043865826, 0.36977327, -0.33485693, -0.0027335635, 0.005815444, -0.115641594, 0
59, 3273110582, 0.8655834, 0.044179514, 0.36987096, -0.33468392, -0.03337205, -0.023562415, -0.12564278, 0
61, 3273143916, 0.86558527, 0.044391405, 0.3699566, -0.33455622, -0.014447877, -0.014288681, -0.095404625, 0
62, 3273160583, 0.8655775, 0.044501293, 0.37002647, -0.33448416, -0.011131615, 0.014900939, -0.08739185, 0
63, 3273177250, 0.86557114, 0.04461355, 0.37009692, -0.3344078, -0.021665335, -0.0025831114, -0.12128639, 0
65, 3273210584, 0.8655473, 0.044926144, 0.37030354, -0.33419883, -0.02779786, 0.017839072, -0.10769367, 0
66, 3273227251, 0.86554074, 0.045094606, 0.37040368, -0.3340824, -0.0023605204, 0.0065774554, -0.096380234, 0
67, 3273243918, 0.8655334, 0.045300562, 0.37054554, -0.33391613, -0.008363855, -0.07881074, -0.14416313, 0
69, 3273277252, 0.86551964, 0.04574316, 0.37086606, -0.33353543, -0.025739305, 0.062182393, -0.038249016, 0
70, 3273293919, 0.8655108, 0.045893244, 0.37099192, -0.3333979, -9.9955E-4, 0.04605504, -0.047493935, 0
71, 3273310586, 0.8654976, 0.046005327, 0.37111408, -0.33328044, -0.010208507, 0.033919767, -0.067977905, 0
74, 3273360587, 0.8654647, 0.046191655, 0.37134406, -0.33308396, -0.01170515, 0.015037114, -0.09200001, 0
77, 3273410588, 0.86544544, 0.04625949, 0.3714166, -0.333044, -0.0042112074, 0.020273464, -0.07038593, 0
79, 3273443922, 0.86544555, 0.046240207, 0.3714066, -0.3330572, -0.02913849, -0.0012855069, -0.100504875, 0
81, 3273477256, 0.86545324, 0.046258103, 0.3713805, -0.33306357, -8.131401E-4, -0.0046716724, -0.10068607, 0
82, 3273493923, 0.8654534, 0.046268318, 0.37138754, -0.3330543, 0.006034626, -0.0154423425, -0.0911417, 0
83, 3273510590, 0.86545634, 0.04630301, 0.37139463, -0.3330337, -0.008186386, -0.010313894, -0.091775894, 0
85, 3273543924, 0.8654701, 0.046406943, 0.37143078, -0.3329431, -0.009259472, 0.009858654, -0.10956192, 0
86, 3273560591, 0.8654696, 0.046479896, 0.3714728, -0.33288753, -0.015559854, -0.006026608, -0.0884428, 0
87, 3273577258, 0.8654729, 0.046558008, 0.37149596, -0.33284202, -0.007572619, 0.022067964, -0.08497524, 0
89, 3273610592, 0.86546826, 0.046634734, 0.37158486, -0.33274403, -0.015376797, 0.01582276, -0.1066618, 0
92, 3273660593, 0.86545044, 0.046716414, 0.37168944, -0.3326625, -0.034463685, 0.02377119, -0.103302, 0
93, 3273677260, 0.8654423, 0.04675413, 0.3717225, -0.33264098, -0.00590253, -0.009035539, -0.08244896, 0
94, 3273693927, 0.8654352, 0.04677852, 0.37175146, -0.33262393, -0.0072941217, 0.032727774, -0.07525158, 0
96, 3273727261, 0.8654032, 0.04669911, 0.37177005, -0.33269733, -0.025080612, -0.016622854, -0.10286045, 0
98, 3273760595, 0.86540025, 0.04664345, 0.37175405, -0.3327309, -2.0719651E-4, -0.027230863, -0.1033144, 0
100, 3273793929, 0.8653766, 0.04663133, 0.37179747, -0.33274558, 0.004142589, 0.013868085, -0.08895111, 0
101, 3273810596, 0.8653616, 0.046605393, 0.37183014, -0.33275196, -0.01828269, 0.0064824065, -0.085199356, 0
102, 3273827263, 0.86535496, 0.046587072, 0.37184888, -0.3327506, -0.008128049, -0.005328158, -0.09679222, 0
104, 3273860597, 0.86537206, 0.04661179, 0.37183058, -0.33272296, -0.012255662, 0.007889924, -0.10590458, 0
105, 3273877264, 0.86538845, 0.046627376, 0.37180686, -0.3327046, -0.0031117473, 0.015231821, -0.07912731, 0
108, 3273927265, 0.86535466, 0.046679422, 0.37189564, -0.33268622, 0.00885156, 0.011260024, -0.10244179, 0
109, 3273943932, 0.8653332, 0.046701007, 0.37195352, -0.33267432, -0.0054651154, -0.019105524, -0.09001732, 0
110, 3273960599, 0.86531734, 0.04673605, 0.37201145, -0.3326461, -0.0058504515, -0.02253547, -0.10470867, 0
112, 3273993933, 0.86530375, 0.04682391, 0.37210757, -0.33256117, 0.0038944897, 0.018666126, -0.08830166, 0
113, 3274010600, 0.8653047, 0.046867814, 0.372145, -0.3325106, -0.008773778, -0.0058308663, -0.07441807, 0
115, 3274043934, 0.8653051, 0.04696791, 0.37219185, -0.33244297, -0.023030551, -0.036082506, -0.09378719, 0
116, 3274060601, 0.8653155, 0.047018487, 0.3721987, -0.33240142, -0.02387923, -0.0017706417, -0.08135414, 0
117, 3274077268, 0.86531925, 0.0470456, 0.37222505, -0.33235836, 0.0030473757, -0.009813644, -0.08146858, 0
119, 3274110602, 0.8653074, 0.04711858, 0.37231904, -0.33227313, -0.017240895, -0.041716766, -0.10721493, 0
120, 3274127269, 0.86529934, 0.047167838, 0.37239075, -0.33220693, -0.012508679, -0.026131626, -0.10594463, 0
121, 3274143936, 0.86529934, 0.04721953, 0.37245506, -0.33212772, -0.008396041, 1.6553928E-4, -0.106194496, 0
123, 3274177270, 0.8652987, 0.047315232, 0.37257072, -0.33198595, -0.02434749, -0.015341398, -0.08942509, 0
124, 3274193937, 0.86530703, 0.04737719, 0.37261537, -0.33190525, 1.8730386E-4, -0.0060290946, -0.1113615, 0
125, 3274210604, 0.8653262, 0.0474427, 0.37264097, -0.33181685, 0.022128453, -0.013733866, -0.08328247, 0
127, 3274243938, 0.86532414, 0.047550976, 0.3728023, -0.33162534, -0.002802182, 0.012089481, -0.05228424, 0
128, 3274260605, 0.86531657, 0.047591176, 0.3728825, -0.33154917, -0.014205365, 0.021147817, -0.07906246, 0
129, 3274277272, 0.86531913, 0.047638487, 0.37293956, -0.3314718, 0.008762825, 0.024871571, -0.08189201, 0
132, 3274327273, 0.8653515, 0.04776086, 0.37298363, -0.3313201, 0.0018629805, -0.003133009, -0.073366165, 0
133, 3274343940, 0.8653492, 0.04780294, 0.3730113, -0.33128873, 0.0103964815, -0.0099079665, -0.0907259, 0
136, 3274393941, 0.865319, 0.047912173, 0.37318525, -0.33115593, -0.02012667, -0.019566128, -0.09449768, 0
137, 3274410608, 0.86532384, 0.047956016, 0.37321642, -0.33110186, -0.004856266, 0.014789517, -0.10780525, 0
139, 3274443942, 0.8653238, 0.04799455, 0.37322503, -0.331087, -0.034609642, 0.04474148, -0.08195305, 0
140, 3274460609, 0.8653366, 0.04798473, 0.37318227, -0.33110282, -0.0050281473, 0.01101606, -0.07500076, 0
142, 3274493943, 0.8653503, 0.047975875, 0.3731247, -0.3311332, 0.0064957337, 0.01492653, -0.09634495, 0
143, 3274510610, 0.86533517, 0.0479652, 0.37314513, -0.33115125, -0.010406316, -0.004544996, -0.090457916, 0
144, 3274527277, 0.8653486, 0.04795424, 0.37310714, -0.33116078, -0.025030993, 0.010921402, -0.096530914, 0
146, 3274560611, 0.8654116, 0.047895085, 0.3729051, -0.33123192, 0.026618382, 0.025718909, -0.043301582, 0
147, 3274577278, 0.86540025, 0.04781289, 0.37287956, -0.33130223, 0.016760342, -0.00550789, -0.044089317, 0
148, 3274593945, 0.8653813, 0.047747344, 0.37286708, -0.3313756, 0.012251192, -0.03309506, -0.09642792, 0
152, 3274660613, 0.8653397, 0.047618914, 0.37279546, -0.33158302, 0.0074291234, 0.016221508, -0.07323551, 0
154, 3274693947, 0.8653579, 0.04745362, 0.3726264, -0.3317491, -0.028902683, -0.03671041, -0.116794586, 0
155, 3274710614, 0.8653971, 0.04741098, 0.3724936, -0.3318022, 0.0025612349, -0.05686477, -0.12184143, 0
156, 3274727281, 0.8654427, 0.04741389, 0.37237138, -0.33182, 0.015315555, -0.06520253, -0.15807343, 0
158, 3274760615, 0.8654729, 0.047507264, 0.3723368, -0.3317669, -0.002261951, -0.014238558, -0.1025238, 0
159, 3274777282, 0.86548245, 0.047544, 0.37231854, -0.331757, -0.009570601, 0.027527157, -0.06998348, 0
160, 3274793949, 0.86548907, 0.04755796, 0.37228543, -0.33177513, 0.008998408, -0.005849222, -0.06956673, 0
162, 3274827283, 0.86548036, 0.047462113, 0.37223914, -0.3318634, 0.027836751, 0.0060705002, -0.09061146, 0
164, 3274860617, 0.86545444, 0.047376465, 0.37227637, -0.33190152, -0.002245411, -0.032212183, -0.12865162, 0
166, 3274893951, 0.86543673, 0.047421917, 0.3723178, -0.33189452, 0.010726163, -0.0011428497, -0.10163975, 0
168, 3274927285, 0.8654574, 0.047477346, 0.37228614, -0.33186823, -0.03271224, 0.008991367, -0.07679558, 0
171, 3274977286, 0.8655856, 0.04744046, 0.37194443, -0.33192205, -0.008960187, -0.009125978, -0.09574413, 0
173, 3275010620, 0.8656206, 0.04743669, 0.37183258, -0.33195665, -0.0042818375, -0.03233492, -0.112918854, 0
174, 3275027287, 0.8656242, 0.0474699, 0.37181306, -0.33196464, 0.032054886, -0.01576828, -0.10871792, 0
175, 3275043954, 0.8656309, 0.047508094, 0.371801, -0.331955, 0.013979841, -0.011409582, -0.08933926, 0
178, 3275093955, 0.8656233, 0.04757423, 0.371812, -0.33195323, 0.0026408057, -0.0055882707, -0.09075832, 0
181, 3275143956, 0.8656372, 0.04759693, 0.37179986, -0.3319274, 0.007580889, 0.007915879, -0.08956051, 0
182, 3275160623, 0.865633, 0.047611043, 0.37180835, -0.33192682, 0.005523005, -6.989809E-4, -0.08604717, 0
183, 3275177290, 0.8656243, 0.047626276, 0.37182248, -0.3319314, -0.011422853, -0.009650675, -0.10446453, 0
185, 3275210624, 0.86560994, 0.047675095, 0.37187284, -0.33190536, -0.012855347, -0.03321978, -0.10811424, 0
187, 3275243958, 0.86560374, 0.04774805, 0.3719328, -0.3318438, -0.0034190777, 0.019868514, -0.092080116, 0
189, 3275277292, 0.86564577, 0.047779914, 0.37186024, -0.3318109, -0.008445884, 0.05370332, -0.04900074, 0
190, 3275293959, 0.86563975, 0.047737177, 0.37185037, -0.33184376, 0.010695989, 7.805631E-4, -0.06135273, 0
191, 3275310626, 0.86562616, 0.047716495, 0.3718648, -0.33186603, 0.009965548, -0.029083673, -0.09872055, 0
193, 3275343960, 0.86560184, 0.047741722, 0.37196833, -0.33181012, 0.010051602, -0.002083476, -0.11921692, 0
194, 3275360627, 0.8655774, 0.047747955, 0.37204343, -0.3317888, 0.016555158, 0.017794508, -0.07657337, 0
196, 3275393961, 0.8655095, 0.047675695, 0.37219003, -0.33181173, 0.019071244, 0.029317161, -0.07613945, 0
197, 3275410628, 0.8654842, 0.047639772, 0.37225512, -0.3318098, 0.007228856, -0.011917683, -0.10431957, 0
198, 3275427295, 0.8654646, 0.04762966, 0.37229672, -0.3318155, -0.007237126, -0.015648477, -0.1096859, 0
200, 3275460629, 0.86544955, 0.04758652, 0.3723368, -0.33181635, 0.015906971, 0.019415872, -0.080937386, 0
201, 3275477296, 0.86541826, 0.047538053, 0.37240684, -0.33182633, -0.0026948957, -0.025189742, -0.0844183, 0
202, 3275493963, 0.86537975, 0.047513835, 0.37250325, -0.331822, -0.0010987897, -0.051877327, -0.09315586, 0
204, 3275527297, 0.8653184, 0.04754146, 0.3726596, -0.33180237, 0.0057029333, -0.0010409836, -0.0789032, 0
205, 3275543964, 0.86530286, 0.047545206, 0.3726919, -0.33180618, -0.0071016774, -0.014324023, -0.07469368, 0
206, 3275560631, 0.86529756, 0.0475277, 0.37269115, -0.3318233, -0.020110577, -0.004214672, -0.085225105, 0
208, 3275593965, 0.8652848, 0.047461517, 0.37271246, -0.33184192, -0.01972636, -0.014681001, -0.108652115, 0
209, 3275610632, 0.86527824, 0.047430694, 0.37271854, -0.33185667, 0.01158043, -0.014812734, -0.12570667, 0
210, 3275627299, 0.8652963, 0.047431808, 0.3726841, -0.33184817, -0.0016792528, -0.013670639, -0.09765053, 0
212, 3275660633, 0.8653067, 0.047388278, 0.37264037, -0.33187622, 0.007111735, 0.0045977174, -0.08679581, 0
214, 3275693967, 0.8653111, 0.047361802, 0.37261018, -0.3319025, 0.017254306, -0.01094297, -0.110339165, 0
216, 3275727301, 0.86528, 0.047417577, 0.37270445, -0.33186993, 0.011727949, -0.0138090495, -0.09110069, 0
217, 3275743968, 0.8652619, 0.047482505, 0.37276822, -0.33183601, -0.016967315, -0.044614833, -0.08872318, 0
218, 3275760635, 0.86526483, 0.04754173, 0.37278467, -0.33180177, 0.0064134807, 0.0050223363, -0.07744217, 0
220, 3275793969, 0.8652562, 0.04762957, 0.37281016, -0.3317826, -0.008736898, -0.030145165, -0.10300541, 0
221, 3275810636, 0.8652566, 0.047668062, 0.37283716, -0.33174595, -0.024324244, -0.026710302, -0.10672951, 0
223, 3275843970, 0.86527795, 0.04778138, 0.3727998, -0.3317161, -0.006196673, 1.2838026E-4, -0.097099304, 0
224, 3275860637, 0.8652969, 0.047825173, 0.37275943, -0.33170563, 0.013963972, 0.01109862, -0.08875179, 0
225, 3275877304, 0.8653132, 0.04784573, 0.372723, -0.33170098, 0.003689752, 8.2001316E-5, -0.07434559, 0
227, 3275910638, 0.8653528, 0.047798514, 0.37263048, -0.33170834, 0.023106545, 0.008874275, -0.106640816, 0
229, 3275943972, 0.8653637, 0.047771752, 0.37258384, -0.33173603, 0.019491224, -0.0046921796, -0.10540676, 0
231, 3275977306, 0.8653216, 0.047750518, 0.372679, -0.33174205, -0.0011785838, -0.030076044, -0.091005325, 0
232, 3275993973, 0.86529106, 0.047752745, 0.3727506, -0.33174112, 0.010223259, -0.029747758, -0.09148121, 0
233, 3276010640, 0.86526936, 0.047771133, 0.37279254, -0.3317479, -0.003733784, -0.0386115, -0.08364105, 0
235, 3276043974, 0.86525613, 0.047827937, 0.37281448, -0.3317496, -0.010257456, -0.004975622, -0.10404205, 0
236, 3276060641, 0.8652746, 0.047834076, 0.37274918, -0.3317738, 0.028381228, 0.0062869163, -0.052254677, 0
237, 3276077308, 0.8652963, 0.04788837, 0.37267867, -0.33178872, -0.06790145, -0.11362678, -0.15691471, 0
239, 3276110642, 0.8653922, 0.0480724, 0.37247953, -0.33173555, -0.014573492, -0.08792748, -0.12664318, 0
240, 3276127309, 0.86545265, 0.04820168, 0.3723819, -0.33166897, 0.036847677, -0.0020070625, -0.0803051, 0
241, 3276143976, 0.8654937, 0.04826352, 0.37234205, -0.33159703, 0.01863271, -0.022696428, -0.10199547, 0
244, 3276193977, 0.86564076, 0.0489967, 0.3724869, -0.3309429, -0.04019277, -0.011550311, -0.09403038, 0
245, 3276210644, 0.86573, 0.049492866, 0.37249285, -0.330629, -0.0026184542, 0.107716985, 0.05419731, 0
247, 3276243978, 0.86585844, 0.0498552, 0.37250698, -0.33022168, 0.088248506, 0.09930952, -0.05465889, 0
248, 3276260645, 0.86583805, 0.04987905, 0.3726152, -0.33014968, 0.015790073, 0.01797276, -0.11233044, 0
249, 3276277312, 0.865808, 0.049956053, 0.37273172, -0.33008483, 0.035972845, -0.08761808, -0.19061852, 0
251, 3276310646, 0.8657652, 0.050600998, 0.37309298, -0.32969058, 0.006630065, -0.018382767, -0.07787895, 0
252, 3276327313, 0.8657513, 0.05092424, 0.37324113, -0.32950935, 0.03430298, 0.08375818, -0.05226612, 0
254, 3276360647, 0.8656826, 0.051243782, 0.37347946, -0.32937047, 3.1671787E-4, 0.048872367, -0.04735756, 0
255, 3276377314, 0.86567616, 0.051377557, 0.37349695, -0.32934672, -0.043346986, -0.0030096858, -0.09792137, 0
256, 3276393981, 0.8657026, 0.05155287, 0.37342697, -0.3293291, -0.042823073, -0.0012676817, -0.09524441, 0
259, 3276443982, 0.86577356, 0.05176202, 0.3732214, -0.3293429, 0.01212826, -0.0014860538, -0.087038994, 0
260, 3276460649, 0.8657783, 0.05175057, 0.37319276, -0.32936478, 0.026043953, 0.029565316, -0.0857811, 0
262, 3276493983, 0.8658368, 0.051837787, 0.37300792, -0.3294068, -0.013922846, 0.0070736823, -0.0971899, 0
263, 3276510650, 0.8658577, 0.051909395, 0.37291598, -0.32944438, 0.023670021, 0.016759727, -0.09464073, 0
264, 3276527317, 0.8658642, 0.051976003, 0.37284097, -0.32950163, 0.008273779, 0.045812976, -0.07677841, 0
266, 3276560651, 0.8658656, 0.05204163, 0.37269157, -0.32965666, 0.04404971, 0.029504716, -0.08315182, 0
267, 3276577318, 0.86585283, 0.05204791, 0.37263405, -0.32975447, 0.029904692, 0.011589091, -0.083304405, 0
268, 3276593985, 0.86583614, 0.052077454, 0.37260076, -0.32983124, -0.011044669, -0.02356022, -0.11116791, 0
270, 3276627319, 0.8657765, 0.052332103, 0.37267664, -0.32986182, 0.04006358, -0.03205201, -0.1136713, 0
271, 3276643986, 0.8657354, 0.052478194, 0.37275326, -0.3298598, 0.018205354, -0.017439794, -0.075531006, 0
272, 3276660653, 0.86570174, 0.05261498, 0.3728163, -0.3298547, -0.023850173, -0.023566227, -0.093709946, 0
274, 3276693987, 0.86568475, 0.052938927, 0.3728017, -0.3298643, 0.01759695, 0.014724223, -0.06857109, 0
275, 3276710654, 0.865684, 0.05308786, 0.3727775, -0.3298698, -0.00235605, -0.025406495, -0.080329895, 0
277, 3276743988, 0.865643, 0.05340069, 0.3728162, -0.32988265, 0.013173407, -0.035471395, -0.098231316, 0
278, 3276760655, 0.8656245, 0.05356361, 0.37287322, -0.3298409, 0.0021638288, -0.03583371, -0.08167553, 0
279, 3276777322, 0.865607, 0.05369702, 0.3729176, -0.32981429, -0.010282937, 0.0013086125, -0.10904026, 0
281, 3276810656, 0.8655734, 0.05389683, 0.3730319, -0.32974097, 2.0205571E-4, -0.015332318, -0.08389759, 0
282, 3276827323, 0.86554444, 0.05398611, 0.37312296, -0.32969955, -0.00935424, -0.008217147, -0.09003639, 0
283, 3276843990, 0.86553633, 0.054047402, 0.373158, -0.32967117, -0.008470247, 0.0012380104, -0.07726669, 0
286, 3276893991, 0.8655205, 0.054071542, 0.3731999, -0.3296611, 0.021656618, 0.022919325, -0.08562946, 0
287, 3276910658, 0.8654677, 0.053981103, 0.37330014, -0.32970092, 0.025648559, -0.034407753, -0.092391014, 0
289, 3276943992, 0.86531234, 0.05387425, 0.3737762, -0.32958704, 0.0047661904, -0.090377435, -0.0903368, 0
290, 3276960659, 0.86524993, 0.05396714, 0.37402564, -0.3294525, -0.0055549676, -0.038116056, -0.12481499, 0
291, 3276977326, 0.8652, 0.05411088, 0.37427357, -0.32927883, 0.017094495, -0.028321354, -0.099401474, 0
293, 3277010660, 0.8651342, 0.05434481, 0.37464908, -0.3289856, 0.008748744, 0.027344575, -0.08199692, 0
294, 3277027327, 0.86512077, 0.054384924, 0.3747869, -0.32885727, 0.023740653, -0.011392903, -0.10256863, 0
295, 3277043994, 0.8650916, 0.054379396, 0.37495485, -0.3287436, 0.03813176, -0.00470844, -0.09951115, 0
297, 3277077328, 0.8650302, 0.054263886, 0.37534738, -0.3284764, 0.01612199, -0.00708103, -0.06496334, 0
298, 3277093995, 0.8649923, 0.054264996, 0.37552336, -0.32837492, 0.018133383, -0.0065230858, -0.0561018, 0
301, 3277143996, 0.8648954, 0.054321267, 0.375952, -0.32813013, -0.0013480067, 0.0038643435, -0.08530998, 0
302, 3277160663, 0.86486894, 0.05431406, 0.37606886, -0.3280671, 0.0045049037, -0.02561545, -0.09263134, 0
304, 3277193997, 0.86482525, 0.054304805, 0.37634918, -0.32786256, 0.029488064, -0.010308781, -0.08140278, 0
305, 3277210664, 0.8647919, 0.054323107, 0.37651387, -0.3277581, 0.0014617747, -0.007511181, -0.091501236, 0
306, 3277227331, 0.8647664, 0.054340772, 0.37666944, -0.32764378, 0.00561241, 0.007073347, -0.0887537, 0
308, 3277260665, 0.86473966, 0.05439241, 0.3768341, -0.32751626, 0.003615322, -0.01517111, -0.06882572, 0
309, 3277277332, 0.86473554, 0.054426737, 0.37690616, -0.3274385, 0.02780747, -0.04948331, -0.092926025, 0
310, 3277293999, 0.8647205, 0.05445768, 0.3770279, -0.3273331, 0.025252493, -0.030973028, -0.11284351, 0
312, 3277327333, 0.8646765, 0.054564513, 0.37727767, -0.3271437, 0.01051852, 0.00714976, -0.081710815, 0
313, 3277344000, 0.86469996, 0.054515645, 0.37724796, -0.32712403, 0.44096625, 0.38132063, -0.038295746, 0
316, 3277394001, 0.8646964, 0.0548342, 0.37739867, -0.32690647, 0.07742556, -0.055214964, -0.052127838, 0
317, 3277410668, 0.8646874, 0.055006694, 0.37754104, -0.32673678, 0.08084933, 0.03888821, -0.06610203, 0
318, 3277427335, 0.86463994, 0.05512175, 0.37773955, -0.32661378, 0.02243422, -0.07025172, -0.097076416, 0
320, 3277460669, 0.86453444, 0.05552981, 0.37832376, -0.3261471, 0.08846799, -0.14570801, -0.13705349, 0
321, 3277477336, 0.86443424, 0.05577476, 0.37883112, -0.325782, 0.026672695, -8.608881E-4, -0.07928085, 0
322, 3277494003, 0.8643268, 0.056010164, 0.37937644, -0.32539168, 0.036934175, 0.08006027, -0.07598114, 0
324, 3277527337, 0.8641089, 0.05643423, 0.38027588, -0.32484657, -0.024286695, 0.078400716, -0.07907295, 0
325, 3277544004, 0.8640343, 0.056533445, 0.38054273, -0.32471564, -0.0027340106, 0.13577865, -0.051841736, 0
326, 3277560671, 0.86399424, 0.056543108, 0.3807001, -0.32463562, 0.012063217, 0.07704313, -0.07033253, 0
328, 3277594005, 0.86397296, 0.05656458, 0.38083136, -0.32453477, 0.025497911, -0.08460354, -0.09778023, 0
330, 3277627339, 0.8638844, 0.056811806, 0.38120317, -0.3242911, 0.044801384, -0.061841425, -0.06828022, 0
332, 3277660673, 0.8637245, 0.057047907, 0.3818099, -0.32396126, -0.005655325, 0.014816506, -0.08354378, 0
333, 3277677340, 0.86365426, 0.05711974, 0.38204947, -0.32385358, -0.018588902, 0.058859594, -0.075442314, 0
335, 3277710674, 0.86357206, 0.057191182, 0.38234836, -0.32370704, -5.7509885E-4, 0.010821519, -0.10787392, 0
336, 3277727341, 0.8635198, 0.057253323, 0.3825423, -0.3236064, 0.04507049, -0.06345815, -0.09959316, 0
337, 3277744008, 0.86345017, 0.05730699, 0.38278773, -0.32349283, 0.020182103, -0.010846804, -0.076003075, 0
339, 3277777342, 0.8633455, 0.05733679, 0.38316825, -0.32331604, -0.0035719606, 0.027251454, -0.0710125, 0
340, 3277794009, 0.863327, 0.057294123, 0.38323304, -0.32329625, -0.0055873767, 0.06156519, -0.06536198, 0
341, 3277810676, 0.8633386, 0.0571927, 0.38320762, -0.32331336, -0.00130241, 0.01677026, -0.07219124, 0
343, 3277844010, 0.8633715, 0.05700464, 0.3830884, -0.32340008, 0.031673573, -0.013022731, -0.06418514, 0
344, 3277860677, 0.86339736, 0.056984358, 0.38301113, -0.32342622, 0.02848762, -0.027884386, -0.08943653, 0
345, 3277877344, 0.86342984, 0.05698526, 0.38293472, -0.32342997, 0.031581264, -0.018131064, -0.07252121, 0
347, 3277910678, 0.86348766, 0.056978565, 0.38278067, -0.32345858, 0.0086139655, -0.007193597, -0.078985214, 0
348, 3277927345, 0.86351275, 0.05696956, 0.3827259, -0.32345793, 0.027620837, -0.029563388, -0.11414051, 0
349, 3277944012, 0.8635225, 0.05695234, 0.3827229, -0.3234384, 0.010598761, -0.008665234, -0.086491585, 0
351, 3277977346, 0.8635407, 0.056926597, 0.38268176, -0.32344323, -0.0018285594, 0.004202435, -0.08196068, 0
352, 3277994013, 0.86356235, 0.056921296, 0.3826139, -0.32346666, 0.020283354, 0.019871112, -0.073194504, 0
353, 3278010680, 0.8635858, 0.05691149, 0.3825447, -0.32348764, 0.012299471, -0.0073314486, -0.08306217, 0
355, 3278044014, 0.8636406, 0.056876738, 0.38236073, -0.32356474, 0.015731959, 0.009832949, -0.05576229, 0
358, 3278094015, 0.8638329, 0.05652087, 0.38160244, -0.32400933, -0.032465927, 0.06413578, -0.050031662, 0
359, 3278110682, 0.8639834, 0.056353725, 0.38107827, -0.32425386, -0.025409847, 0.08719855, -0.05978775, 0
360, 3278127349, 0.8641976, 0.056217514, 0.38038313, -0.3245227, -0.0036792469, 0.009084879, -0.102288246, 0
362, 3278160683, 0.86457, 0.05602007, 0.37926558, -0.32487255, 0.065770924, -0.04663718, -0.096016884, 0
363, 3278177350, 0.86467934, 0.055938523, 0.37892297, -0.3249956, 0.062302, -0.045976363, -0.10015583, 0
364, 3278194017, 0.86476254, 0.055868037, 0.3786669, -0.325085, 0.024947846, -0.0034628862, -0.08610058, 0
366, 3278227351, 0.8648892, 0.055827133, 0.37821582, -0.3252797, 0.030768123, 0.0016862097, -0.06253052, 0
367, 3278244018, 0.8649469, 0.055817597, 0.37800732, -0.32537037, 0.028176714, 0.013828104, -0.08279705, 0
368, 3278260685, 0.86500615, 0.055790495, 0.37777522, -0.32548708, 0.026650343, 0.014152533, -0.081344604, 0
370, 3278294019, 0.86513364, 0.05568235, 0.37732062, -0.32569423, 0.033547282, 0.042300217, -0.07417107, 0
372, 3278327353, 0.8652813, 0.0555128, 0.37674764, -0.325994, 0.029542824, 0.010983036, -0.113910675, 0
374, 3278360687, 0.8653977, 0.055289082, 0.37634256, -0.32619092, 0.048402403, 0.034989025, -0.09533405, 0
375, 3278377354, 0.86540544, 0.055170745, 0.37625086, -0.32629594, 0.05526179, -0.0011213087, -0.068787575, 0
376, 3278394021, 0.8654037, 0.05506025, 0.3761654, -0.32641786, 0.03934342, -0.01562959, -0.088602066, 0
378, 3278427355, 0.8653977, 0.054923553, 0.37598574, -0.3266637, 0.029876307, -0.0025123695, -0.08675289, 0
379, 3278444022, 0.8654039, 0.054873724, 0.3758956, -0.3267593, 0.008397382, -0.005726095, -0.07978344, 0
380, 3278460689, 0.8654135, 0.054835774, 0.37580743, -0.32684153, 0.02355782, -0.025689099, -0.08726406, 0
382, 3278494023, 0.8654402, 0.054758538, 0.37565085, -0.32696378, 0.029907597, 0.0068995375, -0.092980385, 0
383, 3278510690, 0.86545587, 0.054702155, 0.37556592, -0.3270294, 0.0114420755, -0.011654748, -0.078790665, 0
385, 3278544024, 0.8654975, 0.054586064, 0.37536082, -0.32717392, 0.015555385, 0.019306239, -0.08696365, 0
387, 3278577358, 0.8655697, 0.054486774, 0.3751128, -0.32728398, 0.031643845, -0.02941263, -0.106015205, 0
389, 3278610692, 0.8656209, 0.054355036, 0.37492076, -0.32739022, 0.023841903, 0.026266543, -0.075214386, 0
390, 3278627359, 0.86563313, 0.054276425, 0.37484273, -0.32746047, 0.013404072, 0.014251382, -0.0758028, 0
391, 3278644026, 0.86565244, 0.05417811, 0.3747629, -0.3275174, 0.018138748, -0.0016757884, -0.09909344, 0
393, 3278677360, 0.865699, 0.05397837, 0.3745904, -0.32762468, 0.03271358, -0.0146933785, -0.10260677, 0
394, 3278694027, 0.86570984, 0.053885043, 0.37453794, -0.3276713, 0.022229929, -0.0046389834, -0.087296486, 0
395, 3278710694, 0.8657179, 0.053767607, 0.37449002, -0.32772395, 0.031087076, 0.009307861, -0.07537937, 0
397, 3278744028, 0.8658089, 0.05348933, 0.37414026, -0.3279283, -0.08894363, -0.114137545, -0.002210617, 0
398, 3278760695, 0.86585474, 0.05347632, 0.37399557, -0.32797456, 0.08100065, -0.12496534, -0.12583256, 0
399, 3278777362, 0.8658177, 0.053582072, 0.37412608, -0.32790613, 0.18695474, -0.16949946, -0.16008663, 0
402, 3278827363, 0.8657032, 0.05411411, 0.37485343, -0.32729018, -0.018812638, 0.040285278, -0.046323776, 0
403, 3278844030, 0.8657042, 0.054309655, 0.37496653, -0.32712555, -0.013359146, 0.0021802012, -0.08451557, 0
405, 3278877364, 0.8656943, 0.054781515, 0.37515533, -0.3268563, 0.056081858, 0.0029924752, -0.048704147, 0
406, 3278894031, 0.8656891, 0.055000033, 0.375246, -0.3267292, 0.033869587, 0.031511974, -0.052493095, 0
407, 3278910698, 0.86568993, 0.055175047, 0.37530792, -0.32662633, 0.024632692, 0.060877386, -0.088908195, 0
409, 3278944032, 0.8657089, 0.05531904, 0.37534398, -0.3265103, 0.025823122, 0.028997453, -0.069805145, 0
410, 3278960699, 0.8657075, 0.05536548, 0.37529486, -0.32656243, 0.005547368, 0.031826455, -0.062924385, 0
411, 3278977366, 0.8657309, 0.0553666, 0.3752061, -0.32660216, 0.021149242, 0.032284547, -0.087797165, 0
413, 3279010700, 0.8657665, 0.055386692, 0.37500435, -0.32673606, 0.018905172, -0.02038522, -0.08100605, 0
414, 3279027367, 0.8657982, 0.05540823, 0.37489447, -0.3267749, 0.022702659, -0.022430671, -0.07520676, 0
416, 3279060701, 0.8658573, 0.055444896, 0.37469345, -0.32684213, 0.022258313, -0.010848117, -0.10682297, 0
417, 3279077368, 0.86590016, 0.05544763, 0.37456667, -0.32687318, 0.014061871, -0.030953666, -0.08115578, 0
418, 3279094035, 0.86594725, 0.055464286, 0.37443817, -0.32689354, 0.060899906, 0.03664794, -0.085920334, 0
420, 3279127369, 0.8659952, 0.05554357, 0.37428156, -0.32693195, 0.015752522, -0.037324455, -0.11464977, 0
421, 3279144036, 0.86601716, 0.05559043, 0.3742322, -0.32692248, 0.022342356, 0.020831827, -0.103328705, 0
422, 3279160703, 0.866049, 0.055601433, 0.37418476, -0.3268907, 0.022345038, 0.004358363, -0.096796036, 0
424, 3279194037, 0.8660965, 0.055571973, 0.37408078, -0.3268887, 0.011641001, -0.020228341, -0.04919529, 0
425, 3279210704, 0.86612564, 0.055562507, 0.37402117, -0.3268816, 0.04359553, -0.012983421, -0.07307625, 0
426, 3279227371, 0.8661528, 0.055550374, 0.373991, -0.32684577, 0.032646526, -0.012411786, -0.08279991, 0
429, 3279277372, 0.86621, 0.05566012, 0.37392074, -0.32675594, 0.03745764, 0.02697075, -0.09835434, 0
430, 3279294039, 0.86621773, 0.05564175, 0.37387285, -0.32679343, -0.02199658, 0.009806491, -0.04714966, 0
432, 3279327373, 0.8663109, 0.05546628, 0.37363312, -0.32685032, 0.06552997, 0.057854652, -0.095671654, 0
433, 3279344040, 0.8663664, 0.055371672, 0.37348723, -0.3268862, 0.051372442, -0.006210475, -0.11733818, 0
434, 3279360707, 0.866417, 0.0553206, 0.37333602, -0.32693377, 0.026881233, 0.01987167, -0.096541405, 0
436, 3279394041, 0.86653066, 0.055111192, 0.37303242, -0.32701436, -0.08948721, 0.037165426, -0.025274277, 0
437, 3279410708, 0.86660254, 0.054905467, 0.37285024, -0.3270661, 0.04327412, 0.001526817, -0.0695591, 0
439, 3279444042, 0.866711, 0.05448265, 0.37253353, -0.32721055, 0.058291733, 0.06293823, -0.088970184, 0
440, 3279460709, 0.86673415, 0.05420152, 0.37240997, -0.32733622, 0.061408173, 0.014117497, -0.06677151, 0
441, 3279477376, 0.8667667, 0.053870298, 0.3722617, -0.32747364, -0.024937117, 0.0435924, -0.0643692, 0
444, 3279527377, 0.86698097, 0.053181753, 0.3715468, -0.3278305, 0.050478835, -0.091567755, -0.15562057, 0
445, 3279544044, 0.8670171, 0.053024, 0.3714081, -0.32791787, 0.08560971, 0.016008388, -0.12877846, 0
447, 3279577378, 0.8670381, 0.052437853, 0.37128863, -0.3280916, -0.0029090212, 0.07795889, -0.046708107, 0
448, 3279594045, 0.8670444, 0.05193712, 0.3711867, -0.32826963, -0.038145393, 0.042788174, -0.040291786, 0
449, 3279610712, 0.8670287, 0.051231824, 0.37113315, -0.3284826, -0.016150376, 0.057400696, -0.035982132, 0
451, 3279644046, 0.86691153, 0.049494978, 0.37112415, -0.32906803, 0.036205076, -0.08590628, -0.14302254, 0
452, 3279660713, 0.86686665, 0.048879765, 0.3710807, -0.32932708, 0.012087357, -0.008610641, -0.09001064, 0
453, 3279677380, 0.8668803, 0.048358716, 0.37089685, -0.32957482, -0.033203967, 0.05723622, 0.015638351, 0
455, 3279710714, 0.8669805, 0.047175445, 0.37026542, -0.3301928, -0.01362535, 0.008215247, -0.022255898, 0
456, 3279727381, 0.8669964, 0.046511106, 0.37000194, -0.33053964, 0.016376793, -0.059372835, -0.20604897, 0
459, 3279777382, 0.86662984, 0.043969635, 0.37001806, -0.33182865, 0.0015283816, -0.094668366, -0.13560104, 0
460, 3279794049, 0.8664192, 0.04315553, 0.37024337, -0.33223408, 0.024500148, -0.11099613, -0.15552616, 0
461, 3279810716, 0.86625904, 0.042590752, 0.37043697, -0.3325085, 0.03186244, -0.12841982, -0.14948845, 0
463, 3279844050, 0.86616814, 0.042307325, 0.37053552, -0.33267173, 0.041230764, -0.028205212, -0.11956501, 0
464, 3279860717, 0.8661892, 0.042406134, 0.37048867, -0.33265653, 0.06286459, -0.015840251, -0.06498337, 0
466, 3279894051, 0.8660729, 0.04236348, 0.37078035, -0.33263978, 0.012254768, -0.078650996, -0.17934513, 0
467, 3279910718, 0.86599815, 0.04252314, 0.37101132, -0.33255658, 0.01584014, -0.14625219, -0.22999763, 0
468, 3279927385, 0.86593527, 0.042878374, 0.37131974, -0.33233023, 0.053431444, -0.1170779, -0.274642, 0
470, 3279960719, 0.8656996, 0.04400206, 0.3724596, -0.3315212, 0.13696605, -0.08235008, -0.25492954, 0
471, 3279977386, 0.8654843, 0.04467443, 0.3733177, -0.33102748, 0.13427183, -0.01883158, -0.15239716, 0
474, 3280027387, 0.8646362, 0.047616836, 0.37641656, -0.32931948, 0.15110147, -0.09598901, -0.1815443, 0
475, 3280044054, 0.86428803, 0.048789833, 0.37767735, -0.3286181, 0.112550616, 0.033802703, 0.044792175, 0
476, 3280060721, 0.8638578, 0.049924888, 0.37907246, -0.3279719, 0.099362016, 0.0841105, -0.030427933, 0
478, 3280094055, 0.8626364, 0.05133659, 0.38247502, -0.32701653, 0.28685653, 0.09914261, -0.03957367, 0
479, 3280110722, 0.86175555, 0.05188488, 0.38463286, -0.3267216, 0.15795995, 0.0932417, -0.004196167, 0
480, 3280127389, 0.86061174, 0.052408066, 0.38721275, -0.326606, 0.314704, 0.06060568, -0.058670998, 0
482, 3280160723, 0.85688275, 0.053239092, 0.39531273, -0.32657212, 0.47124198, 0.020305006, -0.041319847, 0
483, 3280177390, 0.854132, 0.05321418, 0.40148595, -0.32625154, 0.5211285, -0.0820969, -0.21716881, 0
484, 3280194057, 0.85023195, 0.053270355, 0.40978333, -0.32611293, 0.68548024, 0.15191966, -0.13451672, 0
486, 3280227391, 0.83774763, 0.05371125, 0.43482816, -0.32591847, 0.85313463, -0.21044315, -0.21159649, 0
487, 3280244058, 0.82891864, 0.05515255, 0.4510995, -0.32613733, 0.35985005, -0.2072313, 0.11070156, 0
488, 3280260725, 0.8180899, 0.059515573, 0.46864852, -0.32796285, 0.24302608, 0.15293826, -0.13487339, 0
490, 3280294059, 0.79106367, 0.07738431, 0.5080704, -0.33181125, -0.3211698, -0.7175206, -0.33036137, 0
491, 3280310726, 0.77657646, 0.09000306, 0.5289639, -0.3301964, 1.3217484, -1.98746, -0.35729504, 0
493, 3280344060, 0.74700135, 0.11630437, 0.57705814, -0.3089829, 0.21208474, -2.6603363, -0.4639454, 0
494, 3280360727, 0.7255686, 0.13817006, 0.6071392, -0.292994, 0.61648184, -2.0913973, -0.47853374, 0
495, 3280377394, 0.6941136, 0.16907424, 0.6434966, -0.27483952, 0.96202433, -2.0735152, 0.39549828, 0
497, 3280410728, 0.6099524, 0.24516022, 0.7186466, -0.22672845, 3.276725, -5.404529, 8.9788, 0
498, 3280427395, 0.5741121, 0.2760193, 0.74633497, -0.19286469, 2.5687163, -6.61833, 10.373697, 0
501, 3280477396, 0.51178986, 0.32698354, 0.7896261, -0.08745068, -16.365332, -6.819561, 2.3530054, 0
502, 3280494063, 0.46369073, 0.34495538, 0.8134968, -0.064989716, 6.718583, -33.17304, 23.513695, 0
503, 3280510730, 0.43547973, 0.35175684, 0.82583237, -0.0680421, 6.4191036, -19.25982, 1.7053337, 0
505, 3280544064, 0.3685032, 0.3721307, 0.847126, -0.09003341, 8.203054, -8.332793, -3.5756764, 0
506, 3280560731, 0.3324375, 0.38269478, 0.85607344, -0.10085857, 11.822675, -9.3190775, -4.903793, 0
507, 3280577398, 0.30092773, 0.3915649, 0.8624858, -0.11064357, 13.174672, -9.732899, -7.248514, 0
509, 3280610732, 0.26432344, 0.40022367, 0.8682837, -0.12665635, 14.363538, -12.000775, -10.928556, 0
510, 3280627399, 0.26211184, 0.40211013, 0.8671911, -0.13262312, 12.761164, -10.4345045, -12.02685, 0
511, 3280644066, 0.26865724, 0.4049574, 0.8631154, -0.13736504, 10.660573, -10.854451, -11.941343, 0
513, 3280677400, 0.3032765, 0.41349834, 0.8446746, -0.15353042, 6.149849, -11.1020355, -11.767976, 0
515, 3280710734, 0.3579938, 0.4122517, 0.8182816, -0.17974555, 3.8471234, -9.46148, -10.74905, 0
517, 3280744068, 0.42772862, 0.3954828, 0.7857089, -0.20810392, 6.8323174, -8.261478, -7.482479, 0
518, 3280760735, 0.47013652, 0.38021153, 0.76534206, -0.2206054, 5.1718936, -7.4591575, -5.157861, 0
520, 3280794069, 0.55597484, 0.33965525, 0.71834815, -0.24393977, 5.8081684, -5.1658278, 2.7452583, 0
521, 3280810736, 0.5985436, 0.31113526, 0.6926042, -0.25542876, 2.7765253, -3.4283683, 6.922117, 0
522, 3280827403, 0.6367552, 0.28240812, 0.66488713, -0.2696624, -1.6580065, -0.2309327, 7.6256638, 0
524, 3280860737, 0.6900722, 0.22790426, 0.6159335, -0.3041217, -2.754511, 4.329418, 4.32697, 0
525, 3280877404, 0.70446765, 0.2022284, 0.5989819, -0.32257393, 0.082425766, 7.029331, 7.322487, 0
526, 3280894071, 0.715475, 0.17215261, 0.5855906, -0.33992156, -0.2793027, 12.381222, 11.011568, 0
528, 3280927405, 0.73461026, 0.11241826, 0.5564005, -0.37166202, -5.78452, 15.691628, 8.358284, 0
530, 3280960739, 0.7545019, 0.09509123, 0.51158255, -0.3999653, -9.012763, 11.942199, 3.8103848, 0
532, 3280994073, 0.7640499, 0.10063511, 0.47210917, -0.4280394, -10.294744, 13.120706, 2.9027786, 0
533, 3281010740, 0.76575404, 0.0960615, 0.45694008, -0.44226992, -11.918609, 17.067837, 1.0193806, 0
534, 3281027407, 0.7672516, 0.085448906, 0.4465033, -0.45239612, -9.803058, 21.632431, -8.222445, 0
536, 3281060741, 0.7678667, 0.06027678, 0.4597978, -0.44197035, -13.498608, 26.342655, -14.27347, 0
537, 3281077408, 0.77097327, 0.062460214, 0.46768788, -0.42775154, -15.215473, 24.972033, -12.050287, 0
538, 3281094075, 0.77543634, 0.066523015, 0.47868672, -0.40636972, -13.932059, 24.594324, -12.368807, 0
540, 3281127409, 0.77265495, 0.05892561, 0.5215591, -0.35708857, -28.5693, 7.984862, -4.519563, 0
541, 3281144076, 0.7755585, 0.09540283, 0.5107097, -0.3585903, -18.08381, -7.6323576, 33.52778, 0
542, 3281160743, 0.7884401, 0.10140902, 0.48773146, -0.36083323, 28.413145, 9.954398, 18.416695, 0
545, 3281210744, 0.8084461, 0.09025383, 0.45070142, -0.36761647, 4.3625407, -1.1210194, -0.24759865, 0
546, 3281227411, 0.80562234, 0.088940784, 0.45670098, -0.36672983, 2.3817139, -1.8157971, -0.7870121, 0
548, 3281260745, 0.79274404, 0.091957495, 0.48405054, -0.35888728, 1.1923254, -0.4009715, 0.028048515, 0
549, 3281277412, 0.783772, 0.09484116, 0.5014283, -0.35394973, 1.1713492, -0.37869632, 0.02563858, 0
551, 3281310746, 0.762372, 0.10553877, 0.54043514, -0.3399775, -0.14642692, -0.49165687, -0.35919, 0
552, 3281327413, 0.75049484, 0.11285035, 0.56048423, -0.33148727, -0.34220505, -0.0129789505, -0.3439989, 0
555, 3281377414, 0.7108941, 0.1379014, 0.6182861, -0.3055147, -1.1449549, -0.39697054, 0.11199665, 0
556, 3281394081, 0.6967957, 0.14995687, 0.6354877, -0.29689774, -0.86054546, 0.008275679, 0.15173721, 0
557, 3281410748, 0.6821996, 0.16342203, 0.6514483, -0.2889915, -0.4133671, 0.37390718, 0.2749586, 0
559, 3281444082, 0.64707416, 0.19346577, 0.6847502, -0.27383816, 1.4967701, -2.4595103, 0.014010429, 0
560, 3281460749, 0.61842966, 0.21581484, 0.70977175, -0.2592238, 2.9245114, -4.94863, 0.39192963, 0
561, 3281477416, 0.57774246, 0.24614044, 0.7411146, -0.23744908, 4.6028533, -7.0610023, 5.0439577, 0
563, 3281510750, 0.50334203, 0.31251997, 0.7844038, -0.1835564, 9.172208, -20.926142, 28.102737, 0
564, 3281527417, 0.51655686, 0.31507164, 0.7786843, -0.1659932, -8.323935, -12.674736, 28.037308, 0
565, 3281544084, 0.50791705, 0.3273376, 0.77951807, -0.1650035, -28.607906, -6.5274625, 17.246355, 0
567, 3281577418, 0.4488958, 0.35610968, 0.8046375, -0.15569603, 4.5345798, -12.187044, 11.517048, 0
568, 3281594085, 0.41458565, 0.37120208, 0.8178607, -0.14640962, 8.09756, -19.314913, 7.3804874, 0
569, 3281610752, 0.37478527, 0.38621244, 0.8313617, -0.1386276, 10.817857, -18.319298, 2.138277, 0
571, 3281644086, 0.28077796, 0.40434894, 0.863006, -0.11353579, 16.251034, -16.797049, -5.2688723, 0
574, 3281694087, 0.17014329, 0.40539864, 0.897155, -0.042662393, 17.810858, -14.037239, -17.592999, 0
575, 3281710754, 0.15597698, 0.40783364, 0.899071, -0.031910527, 14.117583, -9.817928, -19.44456, 0
578, 3281760755, 0.1457493, 0.4445947, 0.8830365, -0.03665266, 5.439243, -3.0276372, -18.590431, 0
579, 3281777422, 0.15058237, 0.45694917, 0.87561, -0.04282338, 3.9281597, -4.3596416, -18.24371, 0
580, 3281794089, 0.16105203, 0.4657945, 0.8685153, -0.05275615, 3.2092304, -5.1664853, -17.631802, 0
582, 3281827423, 0.20500733, 0.47328436, 0.85257256, -0.08424936, 5.274591, -5.7455482, -15.950096, 0
583, 3281844090, 0.24115805, 0.4720031, 0.84202516, -0.10026784, 6.6731496, -6.2509584, -13.188516, 0
584, 3281860757, 0.28617173, 0.4679421, 0.8283123, -0.11418612, 5.651624, -7.528319, -8.353499, 0
586, 3281894091, 0.3848723, 0.45217445, 0.7918362, -0.14286725, 2.83326, -8.750827, -0.48232365, 0
587, 3281910758, 0.43339196, 0.4397701, 0.77005583, -0.16059813, 2.646314, -8.719117, 2.7784004, 0
590, 3281960759, 0.56029433, 0.38200322, 0.69909436, -0.22674891, 1.3011664, -5.1143317, 7.5002728, 0
591, 3281977426, 0.59464264, 0.35955715, 0.6741104, -0.25039548, -0.73356235, -3.9248946, 8.399485, 0
592, 3281994093, 0.62441343, 0.33598772, 0.6492279, -0.2751859, -1.2715089, -1.1743304, 9.730913, 0
594, 3282027427, 0.669102, 0.27925485, 0.6061124, -0.32703412, -3.7500865, 4.5194664, 9.7612705, 0
595, 3282044094, 0.6811468, 0.2560726, 0.586619, -0.35545474, -2.4101715, 5.1654863, 8.832518, 0
596, 3282060761, 0.68873256, 0.23426828, 0.56958896, -0.38254228, 0.2281419, 6.5728784, 10.70298, 0
598, 3282094095, 0.70477176, 0.1990174, 0.52928364, -0.42842937, -2.0093448, 8.973832, 13.31535, 0
599, 3282110762, 0.7172478, 0.18291508, 0.50272346, -0.4465099, -0.8231821, 13.330662, 11.229574, 0
601, 3282144096, 0.74491304, 0.1437395, 0.45239386, -0.4688151, -5.957202, 15.303495, 3.8763857, 0
602, 3282160763, 0.75652754, 0.13121712, 0.43023014, -0.4747149, -8.254804, 14.374558, 0.7048464, 0
605, 3282210764, 0.7797963, 0.10818411, 0.39431185, -0.4740636, -7.772332, 14.233453, -3.450615, 0
606, 3282227431, 0.7820008, 0.09181908, 0.39457148, -0.47366828, -7.7719846, 13.042163, -5.202624, 0
607, 3282244098, 0.78231263, 0.07847206, 0.39638707, -0.47403657, -8.742343, 12.572626, -5.7523084, 0
609, 3282277432, 0.7854285, 0.073767036, 0.39447215, -0.47122863, -8.795989, 14.856297, -8.228204, 0
610, 3282294099, 0.7886134, 0.075508446, 0.39676604, -0.4636466, -8.475727, 15.331896, -10.845187, 0
611, 3282310766, 0.78959763, 0.074833006, 0.40785345, -0.45232213, -9.351741, 14.689417, -11.504525, 0
613, 3282344100, 0.7799007, 0.06768439, 0.4487511, -0.43104535, -12.337861, 13.685326, -5.3210206, 0
614, 3282360767, 0.7729112, 0.06712595, 0.46927488, -0.4217672, -10.742593, 13.581144, -5.147203, 0
615, 3282377434, 0.7662713, 0.07195327, 0.48879927, -0.41076815, -10.133818, 12.402572, -5.735696, 0
617, 3282410768, 0.75461674, 0.1022416, 0.5222304, -0.38390073, -11.326733, 12.212474, -2.1696577, 0
619, 3282444102, 0.73397404, 0.13228732, 0.5632519, -0.35571554, -20.761377, -0.3643859, 28.641396, 0
621, 3282477436, 0.75422674, 0.14818303, 0.5193437, -0.37345663, 3.1558385, -10.060609, 3.7663631, 0
622, 3282494103, 0.7567653, 0.15229124, 0.5151379, -0.37249267, 3.227116, -6.247991, -0.012414932, 0
623, 3282510770, 0.7529246, 0.15985464, 0.52150345, -0.36822465, 4.378968, -0.16201046, -1.164957, 0
625, 3282544104, 0.73397106, 0.17080416, 0.55402786, -0.3537934, 0.5974591, -1.2084181, -0.5337763, 0
626, 3282560771, 0.7219949, 0.18040377, 0.5732298, -0.34291312, -1.8766432, -2.0802774, -0.01650238, 0
627, 3282577438, 0.70908594, 0.19455346, 0.5921202, -0.32976335, -0.5844658, -0.87609446, -0.1841135, 0
629, 3282610772, 0.6607514, 0.23050903, 0.6480336, -0.30054915, 0.3723109, -1.0250334, -0.0110569, 0
630, 3282627439, 0.6230003, 0.25676274, 0.6831994, -0.28140005, 2.6559646, -4.2742743, 1.061451, 0
632, 3282660773, 0.51412725, 0.33057544, 0.76012754, -0.22046189, 6.4245133, -9.547807, 12.402081, 0
633, 3282677440, 0.4562932, 0.3768112, 0.7823162, -0.19441085, 11.547428, -23.422268, 26.995293, 0
634, 3282694107, 0.43931103, 0.39137715, 0.7867664, -0.18663532, 7.124874, -28.831656, 31.54974, 0
636, 3282727441, 0.38204402, 0.40824223, 0.8044503, -0.20061024, 3.0012963, -31.120003, 23.917343, 0
637, 3282744108, 0.3388893, 0.41636208, 0.82047933, -0.19650531, 11.185194, -12.514161, 7.928091, 0
638, 3282760775, 0.30063474, 0.4175334, 0.83919615, -0.17617781, 14.228778, -27.14562, 4.9589767, 0
640, 3282794109, 0.22992215, 0.42437765, 0.8661094, -0.12999304, 20.963392, -19.78529, -16.230677, 0
641, 3282810776, 0.20432264, 0.43067536, 0.8732223, -0.10128088, 20.896145, -21.036339, -21.746315, 0
642, 3282827443, 0.19391827, 0.4374098, 0.8747277, -0.07696659, 16.620539, -17.643644, -25.77689, 0
644, 3282860777, 0.20882946, 0.44686928, 0.86829084, -0.05266214, 6.7026935, -12.501082, -23.62069, 0
646, 3282894111, 0.24661005, 0.45251274, 0.8543508, -0.06711506, -0.0810572, -8.306279, -17.827682, 0
648, 3282927445, 0.2903748, 0.44997072, 0.8372606, -0.110487744, 2.3119354, -5.4818435, -11.185551, 0
649, 3282944112, 0.3214475, 0.44203523, 0.82697153, -0.1319041, 4.6738095, -2.7748044, -6.3044567, 0
650, 3282960779, 0.35793546, 0.42806914, 0.8164215, -0.14865868, 2.2805958, -1.8488053, -1.4727926, 0
652, 3282994113, 0.42538393, 0.40088004, 0.79020387, -0.1841889, -30.731293, 24.766783, -11.331501, 0
653, 3283010780, 0.41810763, 0.43733236, 0.77477705, -0.183442, 39.879818, -1.8460168, 33.02627, 0
655, 3283044114, 0.4733594, 0.36615247, 0.77416897, -0.20622778, -23.364973, 10.427277, -1.2009926, 0
656, 3283060781, 0.4780019, 0.3618458, 0.76829255, -0.22430444, -3.6336634, 9.308319, 5.1945324, 0
657, 3283077448, 0.49239975, 0.34885782, 0.76248413, -0.2333729, 1.7839012, 9.593047, 5.3620205, 0
659, 3283110782, 0.51996166, 0.32036626, 0.75344497, -0.24357796, -3.0183182, 7.285864, -1.0715485, 0
661, 3283144116, 0.5361533, 0.3102393, 0.74043226, -0.26087433, -3.857104, 4.205806, -3.124302, 0
663, 3283177450, 0.53049386, 0.2923829, 0.73833257, -0.29657674, -9.805019, 0.56478953, -0.21837616, 0
664, 3283194117, 0.5213956, 0.2796621, 0.74041146, -0.31895253, -4.4897056, 3.3098066, -1.0730867, 0
665, 3283210784, 0.51335216, 0.2645552, 0.7433883, -0.3374288, -0.741407, 3.9338343, -2.1061516, 0
667, 3283244118, 0.5053885, 0.24426693, 0.7396122, -0.3713408, -1.7010565, 2.3767505, 0.77367496, 0
668, 3283260785, 0.4972352, 0.24350598, 0.73924565, -0.38338226, -1.6856927, 23.991913, -3.1298313, 0
669, 3283277452, 0.4832537, 0.24229622, 0.75316143, -0.37484685, -1.4092747, 5.2190194, 4.141138, 0
671, 3283310786, 0.46233514, 0.25070843, 0.7481596, -0.40454027, 1.2394221, 3.1853828, -3.6707344, 0
672, 3283327453, 0.457439, 0.25330505, 0.7486298, -0.4076072, 8.709016, 0.94165415, -5.5432587, 0
673, 3283344120, 0.46189058, 0.24734336, 0.7503384, -0.40308172, 6.4156604, -7.1506352, 1.6285582, 0
676, 3283394121, 0.47532126, 0.2505894, 0.7356397, -0.4124475, 4.8475733, 0.76057684, 2.1416254, 0
677, 3283410788, 0.4838284, 0.2571531, 0.7211236, -0.42398974, -6.811234, 0.8658137, -0.1158371, 0
679, 3283444122, 0.5000149, 0.27778873, 0.687778, -0.44697225, -5.11297, -1.4371643, -1.6800508, 0
680, 3283460789, 0.506392, 0.28171977, 0.6775171, -0.45296335, 2.0877304, -4.3242397, -4.6900687, 0
682, 3283494123, 0.5212663, 0.28058478, 0.65966827, -0.4630285, -6.798905, 5.1600003, 6.066984, 0
683, 3283510790, 0.5320009, 0.2779155, 0.6456671, -0.47207654, 2.4662464, -2.1198888, 6.9193573, 0
684, 3283527457, 0.5381536, 0.2731955, 0.63855946, -0.47749424, -0.32798505, -0.30149382, -5.8481197, 0
686, 3283560791, 0.54294515, 0.27329952, 0.6328712, -0.47957918, -3.2154336, -1.394909, 1.9763308, 0
687, 3283577458, 0.5444506, 0.27929482, 0.62892556, -0.47960907, -0.27664736, 0.17803824, 0.8960123, 0
688, 3283594125, 0.5448356, 0.28325084, 0.62674284, -0.4797088, 0.5216723, 0.8335746, -0.12833405, 0
691, 3283644126, 0.5357462, 0.2843213, 0.6329695, -0.4811352, -3.0904722, -2.373253, -0.65786743, 0
692, 3283660793, 0.5324001, 0.29208308, 0.6330591, -0.4800813, -3.1776452, -2.132043, -1.1973228, 0
694, 3283694127, 0.52665067, 0.3095639, 0.632419, -0.47629768, -0.30026037, 0.7100107, 0.43330383, 0
695, 3283710794, 0.52335393, 0.31428787, 0.6333648, -0.47558084, 0.6199069, 1.6674346, 0.08821297, 0
696, 3283727461, 0.5203996, 0.31857115, 0.634561, -0.47437653, 0.3965844, 0.32631987, -3.350429, 0
698, 3283760795, 0.5109414, 0.33099136, 0.63999194, -0.46882612, -4.606906, -0.95870954, -1.6683416, 0
699, 3283777462, 0.50372577, 0.344706, 0.6428781, -0.4627633, -1.7845036, -0.021963613, 1.734827, 0
700, 3283794129, 0.49696288, 0.35795292, 0.64596367, -0.45566708, 0.52757907, -0.40552515, 1.6454687, 0
702, 3283827463, 0.4845716, 0.37378633, 0.6530728, -0.4460653, 0.27039033, 1.4241458, 1.1712523, 0
703, 3283844130, 0.47934526, 0.37907866, 0.65557134, -0.44357392, -0.16442552, 0.9261316, 1.3632402, 0
704, 3283860797, 0.47554186, 0.38288534, 0.6576157, -0.4413664, -1.1630843, -1.1436131, 0.5218229, 0
706, 3283894131, 0.46649015, 0.3917805, 0.6620876, -0.4365076, -1.0651302, -1.6001027, -1.0725412, 0
707, 3283910798, 0.46027237, 0.39566302, 0.66601175, -0.43362698, 1.0080363, 0.59045863, 1.5611649, 0
708, 3283927465, 0.4555328, 0.39786723, 0.6694008, -0.43139094, 0.9582765, -0.26422584, 1.8957357, 0
710, 3283960799, 0.44514394, 0.4024196, 0.6761433, -0.4274805, -1.2803012, -0.2420784, 0.21097088, 0
711, 3283977466, 0.4403924, 0.40574026, 0.67787355, -0.42652178, -1.0314246, -0.5804865, -0.9675226, 0
713, 3284010800, 0.42983437, 0.41358757, 0.68423766, -0.4195361, -0.82136697, -0.88688284, 2.112218, 0
714, 3284027467, 0.4234535, 0.41860932, 0.6869422, -0.4166149, 1.0091277, -1.3713912, -0.5529566, 0
715, 3284044134, 0.41750303, 0.42292464, 0.6899139, -0.41333872, 2.1222064, 0.117912024, -0.8302126, 0
718, 3284094135, 0.40694028, 0.43159637, 0.6950443, -0.40625346, -1.0644232, -1.0544405, 1.0146084, 0
719, 3284110802, 0.40720007, 0.43353063, 0.6954711, -0.4031914, 0.21056396, -2.1730597, 0.14936829, 0
721, 3284144136, 0.40710637, 0.43873084, 0.69510275, -0.3982662, 1.0739601, 0.39792457, -1.6777811, 0
722, 3284160803, 0.40666357, 0.44068098, 0.69267166, -0.40079314, 0.11955261, 1.3139552, 0.44375706, 0
723, 3284177470, 0.40772444, 0.44158927, 0.6893886, -0.40436035, -0.8954128, 0.33738777, 1.8181219, 0
725, 3284210804, 0.40879086, 0.44191384, 0.6888728, -0.4038075, -0.42316368, -2.4678314, 2.6313238, 0
726, 3284227471, 0.40666053, 0.4441335, 0.6913623, -0.3992429, 1.4891287, -2.3885183, 0.8441372, 0
727, 3284244138, 0.40210623, 0.44484383, 0.695309, -0.39619952, 2.9375668, -1.921934, -6.358753, 0
729, 3284277472, 0.39715776, 0.4447465, 0.6938998, -0.40369958, 0.17188773, 1.6036547, 2.1636324, 0
730, 3284294139, 0.39872804, 0.44125754, 0.6926385, -0.40812224, -3.2346547, -3.2295454, 3.6076574, 0
733, 3284344140, 0.3919274, 0.43403676, 0.70585805, -0.39971703, 5.274785, -4.385619, -0.46139145, 0
734, 3284360807, 0.387599, 0.42996058, 0.712655, -0.39626727, 4.5186315, -1.9758719, -3.0005536, 0
736, 3284394141, 0.3786184, 0.43044046, 0.713159, -0.40345693, 1.2777694, -3.011959, 0.9028311, 0
737, 3284410808, 0.37567258, 0.43024126, 0.7120303, -0.40838674, 0.41611004, -2.7474008, 0.6002054, 0
738, 3284427475, 0.37534067, 0.42740643, 0.71318823, -0.40964583, -0.31205884, 0.7331478, -4.143042, 0
740, 3284460809, 0.37359864, 0.4244958, 0.71552527, -0.41018903, 0.3059958, 4.6797647, -4.061676, 0
741, 3284477476, 0.37126905, 0.42609787, 0.7115744, -0.4174518, 2.7314723, 1.128334, -0.14241982, 0
742, 3284494143, 0.3697952, 0.4289152, 0.7055734, -0.42597377, 1.7896097, -1.9070693, -0.90684605, 0
744, 3284527477, 0.37124097, 0.43358833, 0.69885504, -0.4310301, -1.3515913, -2.71292, -1.861546, 0
745, 3284544144, 0.37787318, 0.4338064, 0.7011479, -0.4212121, 1.1846124, -0.20331231, -2.406571, 0
748, 3284594145, 0.39049852, 0.43269286, 0.7057148, -0.40281293, 2.986931, 3.3814032, 1.5779123, 0
749, 3284610812, 0.3895404, 0.43089625, 0.7049949, -0.40690643, 2.476072, -0.25378287, 3.0764685, 0
750, 3284627479, 0.39043006, 0.4296823, 0.70436716, -0.40842187, -0.12899514, -1.9216654, 5.749172, 0
752, 3284660813, 0.39630467, 0.4325674, 0.70353633, -0.4010846, -2.0066319, 2.3324456, 1.415535, 0
753, 3284677480, 0.39880633, 0.43447655, 0.7034526, -0.39666376, 2.244425, 2.040191, -2.1709266, 0
754, 3284694147, 0.40151107, 0.43545985, 0.70279187, -0.3940194, 3.4832244, 3.4490554, 0.2341919, 0
756, 3284727481, 0.4076933, 0.4314308, 0.70151985, -0.39436996, -0.86293054, 1.4791248, 2.7543201, 0
757, 3284744148, 0.41006002, 0.42906624, 0.7014802, -0.39456642, -2.0104947, -0.37266964, -1.2553053, 0
758, 3284760815, 0.4120205, 0.4281708, 0.70185363, -0.39282867, -0.3211899, -0.8180513, -2.0574517, 0
760, 3284794149, 0.4167378, 0.42641866, 0.70179605, -0.38985002, 0.35307738, 1.2583872, -1.8806691, 0
763, 3284844150, 0.42630705, 0.42086545, 0.69704056, -0.3940467, -0.95626265, -0.38181108, -2.589179, 0
764, 3284860817, 0.42677984, 0.4190524, 0.69663453, -0.39617983, -0.9639986, 0.053929206, 1.3944101, 0
765, 3284877484, 0.425844, 0.4168693, 0.6970126, -0.39881614, 0.8712839, -0.5959915, 1.0617867, 0
767, 3284910818, 0.4213748, 0.41506734, 0.6991564, -0.40167996, 0.010807075, -1.4476049, -0.2101736, 0
768, 3284927485, 0.4204004, 0.4154018, 0.6984328, -0.40360945, -0.61698985, -1.5902988, -1.391285, 0
769, 3284944152, 0.42065096, 0.4150679, 0.6971736, -0.4058625, -0.0044222036, -2.3512878, -2.4326239, 0
771, 3284977486, 0.42264265, 0.41231963, 0.69491553, -0.4104415, 0.2526244, -0.5442953, 0.58509445, 0
772, 3284994153, 0.42140755, 0.41353408, 0.6956271, -0.40928262, 0.73534334, 1.2391943, 2.2350578, 0
773, 3285010820, 0.41895548, 0.41583657, 0.6974773, -0.4063076, 1.0958554, 0.3174304, 1.717063, 0
775, 3285044154, 0.4126694, 0.42042166, 0.70056105, -0.40270078, 0.46415216, -0.34825644, -2.7002497, 0
776, 3285060821, 0.41157493, 0.42076588, 0.70087653, -0.40291226, -0.37090567, 1.2871611, 1.4322977, 0
777, 3285077488, 0.41231874, 0.42039892, 0.7007923, -0.40268156, -0.5713519, 0.20959961, 1.0696268, 0
779, 3285110822, 0.40783125, 0.4241238, 0.70467067, -0.39652988, 1.246265, 0.1939547, -0.1480732, 0
780, 3285127489, 0.404867, 0.42598528, 0.7076319, -0.3922762, 0.941448, 0.2761307, -1.1203699, 0
783, 3285177490, 0.400126, 0.42366385, 0.7103779, -0.39468437, 0.3195748, 0.36629102, -1.154623, 0
784, 3285194157, 0.39808175, 0.42376378, 0.7114052, -0.39479342, 0.5818295, -0.08538474, 0.85286427, 0
785, 3285210824, 0.3959685, 0.4239884, 0.712525, -0.394658, -1.0588093, -0.8825559, 2.7838297, 0
787, 3285244158, 0.3863168, 0.42502153, 0.7185879, -0.39211193, 0.37370718, -0.7529232, -1.6347036, 0
788, 3285260825, 0.38215113, 0.4236396, 0.72120917, -0.39287597, 0.5575423, -0.7613182, -1.8095331, 0
791, 3285310826, 0.36909848, 0.42081904, 0.7282871, -0.39532226, -0.57302797, -0.40853977, 2.8599634, 0
792, 3285327493, 0.36589906, 0.4216384, 0.73046046, -0.39340892, 0.046720468, -1.763472, -0.6204691, 0
794, 3285360827, 0.35889158, 0.42258802, 0.73473203, -0.39088213, 1.1519061, -0.36643127, -1.8748131, 0
795, 3285377494, 0.35619122, 0.42186463, 0.7363562, -0.39107746, 0.70526963, 1.0454859, 2.0080833, 0
796, 3285394161, 0.35455903, 0.42094243, 0.73782545, -0.39078507, 0.3723366, -0.46510375, 1.2017479, 0
798, 3285427495, 0.35288924, 0.4210247, 0.74022716, -0.387654, 1.2990971, -1.6293999, -0.6160097, 0
800, 3285460829, 0.34836298, 0.42125192, 0.7437735, -0.38470134, 0.9732322, 0.26739514, -0.23194313, 0
802, 3285494163, 0.34977502, 0.4188007, 0.7437413, -0.38615617, 1.0805495, -0.56139404, 0.009879112, 0
803, 3285510830, 0.35297298, 0.4178497, 0.7424206, -0.38681716, 0.44982386, 0.11923902, 2.477788, 0
804, 3285527497, 0.35578933, 0.41696164, 0.7421084, -0.38579267, 0.65731406, -1.7338492, 1.5281525, 0
807, 3285577498, 0.35092446, 0.4122957, 0.74846816, -0.38296717, 2.0907626, -1.5284886, 0.16480064, 0
808, 3285594165, 0.35102576, 0.4105223, 0.7492014, -0.3833453, 1.5187062, -1.8725678, -0.32339287, 0
810, 3285627499, 0.35381198, 0.41072908, 0.74953187, -0.37990102, 1.0737585, -3.8212643, -1.627778, 0
811, 3285644166, 0.35203186, 0.4113302, 0.7520649, -0.37587705, 1.5923358, -1.7415879, -3.8279943, 0
812, 3285660833, 0.34974828, 0.40905935, 0.75391054, -0.37678847, 2.6419795, -1.5847713, -5.6059403, 0
814, 3285694167, 0.35830355, 0.39136454, 0.75025016, -0.3944377, 1.422378, 1.7166266, 5.85229, 0
815, 3285710834, 0.3665753, 0.3859059, 0.7451407, -0.4018317, 3.7083285, -2.653079, 2.5000143, 0
817, 3285744168, 0.37338334, 0.38845238, 0.74449235, -0.39423954, 3.4024236, -6.1952186, -0.9381628, 0
818, 3285760835, 0.36709353, 0.3895203, 0.75094867, -0.38677707, 4.126829, -4.5860467, -8.019033, 0
819, 3285777502, 0.35857606, 0.38772783, 0.7565723, -0.38560718, 5.132675, 0.72199804, -2.7216892, 0
822, 3285827503, 0.35583654, 0.37789875, 0.7575063, -0.39593092, -1.8358824, 0.058671147, 0.5991688, 0
823, 3285844170, 0.35557866, 0.37825578, 0.7598089, -0.3913832, -3.3463979, -0.26375082, 0.26624298, 0
825, 3285877504, 0.35276732, 0.37643006, 0.76638186, -0.38277707, -2.0168624, 6.4423213, -0.93045616, 0
826, 3285894171, 0.35251474, 0.37598342, 0.76734775, -0.38151187, -0.1322871, 7.038611, -2.330145, 0
827, 3285910838, 0.3536711, 0.3762407, 0.76520115, -0.38448834, 0.46380883, 7.0132036, 4.1553135, 0
829, 3285944172, 0.35457158, 0.37627476, 0.7628076, -0.3883619, -4.1093087, 1.6758589, 2.2287035, 0
830, 3285960839, 0.3528269, 0.37951824, 0.7633482, -0.38572365, -2.5098467, 2.0665977, 0.5620098, 0
831, 3285977506, 0.3490986, 0.38300395, 0.764971, -0.3824417, -0.3540691, 2.6806993, -2.0392575, 0
833, 3286010840, 0.34508744, 0.38707805, 0.76592803, -0.3800575, -0.69162554, 1.9846002, 2.174882, 0
834, 3286027507, 0.34610483, 0.38849452, 0.7650801, -0.37939453, -2.2790034, 0.9995356, 1.4619837, 0
837, 3286077508, 0.35051173, 0.392306, 0.7639799, -0.37359926, 2.2718334, 0.26839682, -0.028874397, 0
838, 3286094175, 0.35033584, 0.39363998, 0.7644323, -0.37142935, 2.8600385, 1.192797, -1.8776855, 0
839, 3286110842, 0.3503153, 0.39311126, 0.76459795, -0.37166777, 0.93922335, 0.44823298, 2.0182695, 0
841, 3286144176, 0.35677493, 0.38754347, 0.7622136, -0.37623978, 0.92480654, -2.1023252, -2.881535, 0
842, 3286160843, 0.3633457, 0.38496897, 0.7596216, -0.37783295, 1.0880759, -1.3477345, -0.3140993, 0
844, 3286194177, 0.3771927, 0.38070926, 0.75470746, -0.37842682, 1.8283945, -1.0116286, 1.9470148, 0
845, 3286210844, 0.3811588, 0.3798272, 0.7532819, -0.37817985, 1.7742002, -0.40811545, 0.12911797, 0
846, 3286227511, 0.38514054, 0.3781905, 0.7519168, -0.37850216, 1.717174, -0.8127396, 1.5468979, 0
848, 3286260845, 0.3904461, 0.3753634, 0.75072116, -0.37825406, 0.5399885, 0.09324826, 0.56133556, 0
849, 3286277512, 0.3941955, 0.3736423, 0.7490224, -0.37943497, 1.3416052, -0.70296824, -0.37595463, 0
850, 3286294179, 0.3978105, 0.37103793, 0.74771595, -0.3807921, 0.82935107, -0.40511635, 0.47211742, 0
852, 3286327513, 0.3988423, 0.36744317, 0.74924785, -0.3801867, -0.22378832, 0.5839218, 0.2631731, 0
853, 3286344180, 0.39800933, 0.36662558, 0.75030416, -0.37976563, 1.2900743, -0.9374974, 0.21472073, 0
854, 3286360847, 0.39593643, 0.36683163, 0.7520813, -0.37821487, -0.46908328, 0.8631574, -0.1720972, 0
856, 3286394181, 0.39660427, 0.36508042, 0.75309503, -0.37719163, -0.3093558, 0.303813, -0.13686848, 0
857, 3286410848, 0.39862877, 0.36420554, 0.7523139, -0.37746137, -1.3700291, 0.51750124, 2.594823, 0
858, 3286427515, 0.39995095, 0.36368, 0.7523267, -0.37654287, -1.2776695, 0.56518, 1.2644176, 0
860, 3286460849, 0.39601344, 0.36449593, 0.75671726, -0.37107852, 0.5544485, 0.30591816, -1.1627846, 0
861, 3286477516, 0.39495322, 0.3654035, 0.75775677, -0.36918968, 0.71413976, 0.70787, -1.0723448, 0
864, 3286527517, 0.39388576, 0.36707303, 0.75927365, -0.3655393, -0.8108236, 0.1157891, 0.38632298, 0
865, 3286544184, 0.39158288, 0.36922237, 0.76054734, -0.36319378, 0.0569739, 0.22644143, 0.77504444, 0
866, 3286560851, 0.3883342, 0.37066823, 0.76256067, -0.36098066, 1.2523768, -0.26067412, -2.9369535, 0
868, 3286594185, 0.38575363, 0.37116432, 0.7634776, -0.36129937, -0.3137735, 0.7326901, 3.4248772, 0
869, 3286610852, 0.38762698, 0.3715724, 0.7617934, -0.36242804, -0.42491063, -0.7817134, -0.23092175, 0
870, 3286627519, 0.3879312, 0.37287098, 0.76163596, -0.36109746, -1.7847328, 0.76298124, 0.3617735, 0
872, 3286660853, 0.38777345, 0.37688342, 0.7620265, -0.3562452, 1.3092808, -2.0916638, -1.4579992, 0
873, 3286677520, 0.3865816, 0.37913918, 0.7631788, -0.35266182, 0.42477295, -0.45607585, 0.3730755, 0
875, 3286710854, 0.3887508, 0.3808783, 0.7629429, -0.34889376, -0.22881691, -0.3670522, 0.41572094, 0
876, 3286727521, 0.39152247, 0.38099104, 0.7612773, -0.34930894, 0.34989837, -1.4148391, 2.1344185, 0
879, 3286777522, 0.39002696, 0.38533828, 0.7618839, -0.34486303, 0.7535364, -1.6486154, -0.30910397, 0
880, 3286794189, 0.38658193, 0.38610741, 0.763188, -0.34499773, 1.527208, -1.6370658, -2.1540666, 0
881, 3286810856, 0.3840241, 0.38618737, 0.7630286, -0.34810412, 0.4049107, -2.2902074, 0.401433, 0
883, 3286844190, 0.38841563, 0.3875088, 0.75700784, -0.35484314, -2.3845754, -3.5865223, 1.7187881, 0
884, 3286860857, 0.38951954, 0.3908319, 0.7542912, -0.35577217, -1.5701575, -1.8402514, 3.1112041, 0
885, 3286877524, 0.3898789, 0.3948772, 0.7531043, -0.35341805, 1.4874223, -2.658383, -2.955192, 0
887, 3286910858, 0.38837925, 0.3973195, 0.7513924, -0.35596645, 1.2630118, -3.5546565, -1.8214755, 0
888, 3286927525, 0.38885036, 0.39558265, 0.7498925, -0.36052114, 0.19416884, -1.3988379, 2.147421, 0
889, 3286944192, 0.39020666, 0.39484027, 0.7479844, -0.36381775, -0.3917704, -1.2340869, 4.232544, 0
891, 3286977526, 0.38845292, 0.3998978, 0.74662036, -0.36297128, 1.7436055, -2.6816728, -3.8768234, 0
893, 3287010860, 0.38051528, 0.39962944, 0.7485719, -0.36762586, 1.350695, -2.6299725, -3.8447347, 0
895, 3287044194, 0.37738976, 0.39351782, 0.74854535, -0.3773655, -2.0713787, 1.4431694, 2.8515415, 0
896, 3287060861, 0.37505093, 0.39195293, 0.7492836, -0.37985265, -0.54546726, 0.26138723, -0.21973991, 0
898, 3287094195, 0.36882728, 0.38998276, 0.75214, -0.38232118, -1.40977, 1.4206249, -1.1166992, 0
899, 3287110862, 0.36579767, 0.38770142, 0.7534805, -0.3849038, -1.5154357, 2.7085898, -2.4233074, 0
900, 3287127529, 0.3622158, 0.3853191, 0.7546887, -0.3883015, -1.6063176, 4.6986027, -0.19681835, 0
902, 3287160863, 0.35371026, 0.38262, 0.75690025, -0.3944582, -2.934391, 4.3911724, 1.2156839, 0
903, 3287177530, 0.34941214, 0.3842348, 0.7578266, -0.39494032, -2.2830396, 5.262412, 2.411909, 0
904, 3287194197, 0.34739757, 0.38675866, 0.7575492, -0.39478558, -2.689897, 5.435569, 1.7167788, 0
906, 3287227531, 0.3482607, 0.3888625, 0.75533086, -0.3962066, -0.82913816, 2.266301, -0.4953699, 0
908, 3287260865, 0.34879425, 0.38951007, 0.75471884, -0.39626768, 0.62529516, 0.42568243, 0.22716713, 0
910, 3287294199, 0.34988216, 0.39206484, 0.7528367, -0.39636904, 1.1652308, -1.2454396, -0.46122074, 0
911, 3287310866, 0.35410258, 0.3917253, 0.7506722, -0.39706138, 0.905915, -2.0512633, 0.6936884, 0
912, 3287327533, 0.36072418, 0.39040807, 0.74755603, -0.39827612, 0.7137258, -1.1761376, 0.9342909, 0
914, 3287360867, 0.37479794, 0.38460568, 0.74090207, -0.4033276, 2.5056865, -1.0662961, -0.92948437, 0
915, 3287377534, 0.3777866, 0.38083178, 0.7402802, -0.40525767, 1.8230108, 0.058857445, 0.61834145, 0
916, 3287394201, 0.37977204, 0.3763641, 0.7406869, -0.40682974, 1.2886505, -1.5296522, -0.2191248, 0
918, 3287427535, 0.38311306, 0.3698488, 0.7410014, -0.4090935, 0.42929083, -1.4271064, -1.4998064, 0
919, 3287444202, 0.386427, 0.3657793, 0.7398047, -0.41179213, 0.74253464, -1.3326911, -1.4736366, 0
920, 3287460869, 0.3888754, 0.36276507, 0.738952, -0.41368073, -0.30014056, -0.4393213, 0.4061184, 0
922, 3287494203, 0.38875142, 0.35782045, 0.740101, -0.4160425, -0.31357682, 1.5428381, 2.5153294, 0
923, 3287510870, 0.38733914, 0.3573686, 0.7412741, -0.41565925, -0.08054334, 1.588831, 2.1838074, 0
925, 3287544204, 0.38340282, 0.35515615, 0.74398595, -0.4163595, 0.93013555, -0.1549175, -0.899951, 0
926, 3287560871, 0.381478, 0.35391673, 0.74465233, -0.41798857, -0.29493183, -0.11505028, -0.8791504, 0
927, 3287577538, 0.37964094, 0.3522741, 0.74564016, -0.41928577, -0.22701071, -0.10320442, -1.1695156, 0
929, 3287610872, 0.37355968, 0.3534732, 0.7493336, -0.4171485, -0.07537684, 1.1408622, 2.5194626, 0
930, 3287627539, 0.3702698, 0.35546586, 0.75121325, -0.4150024, 0.95219123, -0.22954646, -3.0331383, 0
931, 3287644206, 0.36680734, 0.3563544, 0.7533209, -0.41349208, 0.23585355, 0.45656365, -0.9470968, 0
933, 3287677540, 0.3688687, 0.3543442, 0.75374657, -0.41260916, 2.2068672, -0.65946615, -1.1160164, 0
935, 3287710874, 0.36171994, 0.3540859, 0.7594764, -0.4086336, -0.5748438, 3.7347245, 1.0655603, 0
937, 3287744208, 0.35625932, 0.35784158, 0.76202124, -0.4054091, 1.298228, -1.5079644, -2.8239813, 0
938, 3287760875, 0.35805604, 0.35751548, 0.76211894, -0.40392762, -0.5881723, 1.1912847, -0.19481468, 0
939, 3287777542, 0.36113915, 0.35671744, 0.76070136, -0.40455997, -1.2378526, 1.002945, 2.9916782, 0
941, 3287810876, 0.3640923, 0.35132247, 0.76105124, -0.4059735, 0.9435081, 0.06122601, 2.4501886, 0
942, 3287827543, 0.36257154, 0.3455971, 0.76276916, -0.4090135, 0.7215736, 0.8555276, 3.4169903, 0
943, 3287844210, 0.35754615, 0.34003484, 0.76446515, -0.41489047, 4.328376, -0.74841213, 0.6051893, 0
945, 3287877544, 0.3409288, 0.3289114, 0.76786274, -0.43124917, 4.211938, -0.555153, 2.099656, 0
946, 3287894211, 0.33400464, 0.32511058, 0.7673105, -0.4404344, 5.888328, -1.794166, 0.5857086, 0
947, 3287910878, 0.32951504, 0.32309988, 0.7637511, -0.45134744, 3.6362877, -0.22287549, 2.6951103, 0
950, 3287960879, 0.33737355, 0.3292908, 0.7717124, -0.42686138, 0.3825326, 7.3455167, 10.442387, 0
951, 3287977546, 0.3322017, 0.3448914, 0.7736553, -0.41491404, -5.584556, 4.24462, 8.796911, 0
953, 3288010880, 0.30450088, 0.37947682, 0.7800192, -0.39351073, 6.092835, -3.1074045, -0.72635555, 0
954, 3288027547, 0.29969805, 0.39292642, 0.78386706, -0.37596107, 7.3760476, -6.901168, -4.73663, 0
956, 3288060881, 0.31589526, 0.41242877, 0.7843231, -0.3390488, 3.7025993, -9.716129, -9.461311, 0
957, 3288077548, 0.33304062, 0.42027473, 0.7785739, -0.3260063, 2.0924644, -10.153233, -9.761776, 0
958, 3288094215, 0.35398492, 0.42681623, 0.76905334, -0.3179363, 1.3814299, -10.25946, -9.599943, 0
960, 3288127549, 0.40499526, 0.43379712, 0.74078214, -0.31471407, 0.21697408, -8.899273, -7.6918964, 0
961, 3288144216, 0.43298537, 0.43302587, 0.7246284, -0.31611753, 0.5233536, -8.506008, -6.0538607, 0
962, 3288160883, 0.46298504, 0.42691058, 0.7080543, -0.31946096, 0.7824509, -8.982354, -3.5101385, 0
965, 3288210884, 0.56023633, 0.3842535, 0.6493889, -0.341735, -0.32231015, -4.036307, -1.3480072, 0
966, 3288227551, 0.58800703, 0.36772698, 0.63027084, -0.34898067, -0.40263534, -3.9984536, 0.43732548, 0
968, 3288260885, 0.6372286, 0.3315948, 0.5898871, -0.36881158, -0.8720684, -4.049375, 4.4061165, 0
969, 3288277552, 0.65745157, 0.31359494, 0.5684361, -0.38249195, -1.6734996, -3.2387884, 3.430709, 0
970, 3288294219, 0.67351747, 0.29729804, 0.54734206, -0.39800593, -0.69786733, -2.5902853, 3.7295732, 0
972, 3288327553, 0.6999738, 0.26438943, 0.5052383, -0.42996898, 0.96937925, -0.7168939, 6.6074905, 0
973, 3288344220, 0.71278256, 0.24831823, 0.482701, -0.4441655, 0.77883804, 0.6136242, 7.0856266, 0
974, 3288360887, 0.72543955, 0.23168513, 0.45989737, -0.4566814, 0.0165337, 2.3223839, 9.319042, 0
976, 3288394221, 0.7519372, 0.19775943, 0.41025, -0.47663498, -0.67405564, 6.294993, 7.6149445, 0
977, 3288410888, 0.7655289, 0.17857441, 0.38704345, -0.48195228, -1.0068141, 7.504707, 5.339761, 0
980, 3288460889, 0.8013765, 0.11999169, 0.33270714, -0.4823979, -4.036323, 8.555713, 1.2406702, 0
981, 3288477556, 0.810996, 0.10362332, 0.3176523, -0.48025936, -3.9518547, 8.641207, -0.81755257, 0
983, 3288510890, 0.8244399, 0.08040576, 0.29173255, -0.47825715, -4.5859103, 6.4106097, -3.78659, 0
984, 3288527557, 0.8285277, 0.07431603, 0.28115386, -0.47851387, -3.5224252, 5.720798, -4.5702252, 0
987, 3288577558, 0.83551043, 0.06205264, 0.2576001, -0.48137105, -1.4737056, 4.8322077, -4.468526, 0
988, 3288594225, 0.83775985, 0.05989931, 0.2518983, -0.48075145, -1.6028669, 4.7583055, -4.5760555, 0
989, 3288610892, 0.83978105, 0.05782373, 0.24921882, -0.47887194, -1.4042454, 4.216148, -4.951652, 0
991, 3288644226, 0.8425991, 0.0537767, 0.2524104, -0.47268146, -3.6450326, 4.244151, -1.941577, 0
992, 3288660893, 0.84403485, 0.05087797, 0.2523902, -0.47044644, -3.8518023, 3.727064, -2.85218, 0
993, 3288677560, 0.8449606, 0.050141364, 0.25210622, -0.4690138, -3.686805, 2.8731117, -4.8006277, 0
995, 3288710894, 0.8447727, 0.0529368, 0.25629932, -0.4667669, -3.2349865, 3.5386956, -4.45491, 0
996, 3288727561, 0.8441077, 0.057254612, 0.26031086, -0.46523792, -3.4721437, 2.8159294, -2.644033, 0
997, 3288744228, 0.8431983, 0.06106987, 0.26451564, -0.46402872, -2.5001528, 3.2690737, -0.82729435, 0
999, 3288777562, 0.8408181, 0.06371868, 0.27356756, -0.46274155, -2.535399, 3.1366055, -2.5533924, 0
1000, 3288794229, 0.8393108, 0.066438556, 0.2782322, -0.4623143, -2.5947444, 3.6948328, -2.8320618, 0
1001, 3288810896, 0.8377428, 0.07030724, 0.28338236, -0.46145675, -2.4988978, 4.479378, -2.573722, 0
1003, 3288844230, 0.8335852, 0.07979481, 0.2977444, -0.45838946, -2.7939692, 4.6029043, -2.214817, 0
1004, 3288860897, 0.8309393, 0.08324851, 0.30737746, -0.45621568, -2.391359, 5.3845024, -3.1258726, 0
1006, 3288894231, 0.82440436, 0.084248975, 0.3365153, -0.4472372, -2.9607534, 8.660564, -7.0779705, 0
1008, 3288927565, 0.8133728, 0.083665304, 0.38871583, -0.42465144, -11.333606, 11.213582, -4.624873, 0
1010, 3288960899, 0.79083514, 0.101029664, 0.44600984, -0.40675798, -18.890793, 9.581447, -0.32112694, 0
1011, 3288977566, 0.769996, 0.11637218, 0.47759867, -0.40677667, -18.405907, 12.986884, -1.2968969, 0
1012, 3288994233, 0.7430282, 0.13222261, 0.5138886, -0.40785897, -24.895643, 14.083716, 11.375645, 0
1014, 3289027567, 0.74717695, 0.15662237, 0.52097845, -0.3818138, 12.427171, -12.947751, 9.349327, 0
1015, 3289044234, 0.73402905, 0.17397995, 0.5409031, -0.37196794, 3.8069339, -3.904474, -0.708807, 0
1016, 3289060901, 0.71367395, 0.18971916, 0.57056546, -0.359354, 0.61530566, 0.13212505, -2.0790834, 0
1018, 3289094235, 0.6660621, 0.21778628, 0.6317587, -0.33138406, -4.2318983, -0.064418554, 1.186101, 0
1019, 3289110902, 0.6420797, 0.23540722, 0.6569861, -0.3173177, -0.07000962, -0.6921405, 0.9579067, 0
1020, 3289127569, 0.61394095, 0.25497732, 0.68430394, -0.2996589, 2.273588, -2.6191118, 0.19736576, 0
1023, 3289177570, 0.4510647, 0.35064462, 0.79226995, -0.21424559, 9.465124, -14.467497, 19.601896, 0
1024, 3289194237, 0.40279937, 0.38780677, 0.80574757, -0.19527774, 14.634691, -33.13818, 31.0983, 0
1026, 3289227571, 0.35967296, 0.4058649, 0.8124885, -0.21395262, -1.1045849, -15.155405, 31.647533, 0
1027, 3289244238, 0.32917964, 0.40137088, 0.8338859, -0.18756527, 7.584406, -7.2535486, 10.2385845, 0
1028, 3289260905, 0.29851207, 0.40250275, 0.8517033, -0.15325698, 10.052363, -27.051125, 11.042603, 0
1030, 3289294239, 0.23117545, 0.4142006, 0.87375355, -0.10749251, 15.573932, -25.08491, -4.2443676, 0
1031, 3289310906, 0.20128445, 0.4185984, 0.88173604, -0.08249543, 17.382538, -20.156244, -9.990979, 0
1032, 3289327573, 0.17778453, 0.42431718, 0.8862987, -0.053162787, 16.876175, -16.274418, -13.837307, 0
1034, 3289360907, 0.14560558, 0.4372124, 0.8874907, 0.0029538716, 7.3283668, -10.007463, -16.500431, 0
1035, 3289377574, 0.13093357, 0.4438512, 0.8862234, 0.021562597, 4.3251824, -7.1274, -16.971626, 0
1039, 3289444242, 0.0930554, 0.47266835, 0.87599593, 0.023674726, 2.430826, 0.4835086, -17.41306, 0
1041, 3289477576, 0.108259976, 0.48345163, 0.868648, 0.0030256412, 3.073513, 3.7371595, -16.175018, 0
1042, 3289494243, 0.12807159, 0.48408, 0.8656014, -0.0015514188, 4.7357354, 2.7163503, -15.514034, 0
1043, 3289510910, 0.15774702, 0.4812199, 0.8622812, -0.0043181153, 5.5368066, -0.3389811, -14.475036, 0
1045, 3289544244, 0.23488368, 0.4758005, 0.847173, -0.027302183, 2.2748942, -3.7032387, -6.4104557, 0
1046, 3289560911, 0.27163792, 0.47527474, 0.8353553, -0.050121583, 0.34689054, -3.9900072, -2.0746083, 0
1047, 3289577578, 0.30321157, 0.47436315, 0.82261103, -0.07973481, -0.7129786, -4.176282, 2.4635735, 0
1049, 3289610912, 0.35663515, 0.46708462, 0.79665697, -0.14136912, 3.6637123, 0.7615958, 5.1844025, 0
1050, 3289627579, 0.38501778, 0.45890465, 0.7845222, -0.16030249, 4.9716225, 1.632696, 5.335396, 0
1051, 3289644246, 0.41657987, 0.44999874, 0.770843, -0.17253299, 2.802253, -0.7905063, 7.726593, 0
1054, 3289694247, 0.49304083, 0.43878135, 0.7215966, -0.20900738, -1.0217725, 2.178382, 2.1705132, 0
1055, 3289710914, 0.51063514, 0.43458003, 0.70894206, -0.21862587, 1.7015505, 0.72908074, 0.6142874, 0
1057, 3289744248, 0.5527538, 0.4212224, 0.6811992, -0.23023146, 1.828239, -4.5786977, 1.9410324, 0
1058, 3289760915, 0.57741934, 0.41227427, 0.66322446, -0.23823161, -2.09539, -5.4089823, 2.2587242, 0
1060, 3289794249, 0.6161245, 0.3938696, 0.62745005, -0.2675219, -4.162726, -2.6586015, -0.07641125, 0
1061, 3289810916, 0.62863433, 0.3828608, 0.6133907, -0.28634354, -3.3263566, -3.0627463, -0.24871731, 0
1062, 3289827583, 0.6382356, 0.371425, 0.60004675, -0.30764726, -1.7753474, -4.1114545, 0.7138128, 0
1064, 3289860917, 0.6573307, 0.3455206, 0.5698534, -0.3518571, 1.8524182, -4.831829, 5.6271925, 0
1065, 3289877584, 0.6722005, 0.32744506, 0.550646, -0.37110573, 2.4888065, -3.4345448, 8.089975, 0
1066, 3289894251, 0.689917, 0.3066841, 0.5299159, -0.38620272, 0.17516531, -1.0531807, 5.6092854, 0
1068, 3289927585, 0.7209176, 0.2715026, 0.4892311, -0.40892687, -3.7298143, -1.2616714, 5.1764097, 0
1069, 3289944252, 0.7324226, 0.2564245, 0.46992117, -0.42069218, -3.462656, -1.2720726, 5.769168, 0
1070, 3289960919, 0.7416519, 0.24060234, 0.4516379, -0.4336939, -3.2675323, -0.9552415, 6.8192043, 0
1072, 3289994253, 0.7564967, 0.20732409, 0.41243172, -0.4632859, -3.313994, 1.5411032, 8.015823, 0
1073, 3290010920, 0.76228064, 0.18990916, 0.3920612, -0.47870135, -2.8077989, 2.6139932, 5.5438337, 0
1074, 3290027587, 0.76601166, 0.17367426, 0.37262723, -0.49418294, -1.9026299, 3.795367, 4.6722746, 0
1076, 3290060921, 0.77014333, 0.14726144, 0.3340115, -0.52310026, 0.43883172, 5.5906663, 3.4607544, 0
1077, 3290077588, 0.7732297, 0.13410157, 0.3161035, -0.5331189, 1.8926489, 7.070648, 2.8462734, 0
1078, 3290094255, 0.77821416, 0.11820527, 0.30035022, -0.5387062, 2.1149447, 7.653376, 1.7641144, 0
1081, 3290144256, 0.79820055, 0.07285614, 0.26013842, -0.5384239, -0.9616312, 6.053942, -0.16633797, 0
1082, 3290160923, 0.80376035, 0.060176454, 0.24889715, -0.53703123, -1.3185785, 5.9523454, -0.45693398, 0
1085, 3290210924, 0.8150533, 0.02821534, 0.22072032, -0.534957, -1.9776149, 5.9106855, -2.2182727, 0
1086, 3290227591, 0.8175426, 0.019833397, 0.21235028, -0.5349227, -1.8845446, 5.488898, -3.4760575, 0
1088, 3290260925, 0.8212819, 0.00832113, 0.19941328, -0.53447676, -1.7032927, 4.401556, -4.2932453, 0
1089, 3290277592, 0.8224778, 0.004773214, 0.1946218, -0.53444767, -2.1284258, 3.9084785, -3.96381, 0
1091, 3290310926, 0.8234319, 0.0038911537, 0.18650185, -0.5358788, -2.5270507, 3.2562816, -3.729826, 0
1092, 3290327593, 0.82308394, 0.0055798907, 0.18324915, -0.5375184, -2.1547122, 2.6817927, -3.6894388, 0
1093, 3290344260, 0.8221314, 0.008687749, 0.1808062, -0.5397572, -1.53908, 1.4791244, -2.9987025, 0
1095, 3290377594, 0.81960225, 0.013960275, 0.1761975, -0.54499185, 0.5573499, 2.0077446, -0.6613102, 0
1097, 3290410928, 0.81929904, 0.012242667, 0.17206468, -0.5468063, -0.15283972, 2.415727, -2.613834, 0
1099, 3290444262, 0.82208455, 0.010239807, 0.1712808, -0.54289895, -1.3783681, 2.0789437, -3.2019863, 0
1100, 3290460929, 0.82321066, 0.009149663, 0.17274937, -0.5407424, -1.9059021, 1.3648703, -2.878591, 0
1101, 3290477596, 0.8238599, 0.008457672, 0.17428598, -0.5392701, -2.0590348, 1.5702012, -2.2645354, 0
1103, 3290510930, 0.8244677, 0.008893915, 0.17586684, -0.5378187, -2.006307, 2.7398357, -3.5203786, 0
1104, 3290527597, 0.8248988, 0.0111305555, 0.1774915, -0.53658104, -1.8442805, 3.1802914, -4.1911197, 0
1105, 3290544264, 0.82494736, 0.01419228, 0.18095735, -0.53527486, -2.209267, 2.8687139, -3.9102168, 0
1107, 3290577598, 0.823372, 0.022108767, 0.19178, -0.5336613, -1.4703364, 3.2404652, -2.2209764, 0
1108, 3290594265, 0.82182217, 0.024777314, 0.19846503, -0.5334888, -1.6138283, 3.9506202, -2.0117702, 0
1109, 3290610932, 0.82015246, 0.027698483, 0.20498703, -0.53344876, -2.2051675, 4.432882, -2.2309217, 0
1112, 3290660933, 0.8167348, 0.0460147, 0.22411306, -0.52972126, -1.5580045, 3.3918111, -0.61049366, 0
1113, 3290677600, 0.8154104, 0.050577514, 0.23152205, -0.5281569, -0.8078942, 3.717504, -0.6935549, 0
1115, 3290710934, 0.81307185, 0.054591503, 0.24766947, -0.524021, -1.9866579, 5.054898, -1.5252552, 0
1116, 3290727601, 0.8123927, 0.056607537, 0.25620073, -0.5207487, -2.128027, 5.830351, -2.2879748, 0
1118, 3290760935, 0.81101257, 0.061917797, 0.27836254, -0.51082623, -3.9682481, 6.4007177, -3.335311, 0
1119, 3290777602, 0.8098905, 0.068227105, 0.29169208, -0.5043237, -4.989969, 6.5356326, -3.5753007, 0
1120, 3290794269, 0.8075951, 0.07782267, 0.3065482, -0.49776116, -6.6256742, 6.580991, -3.8552217, 0
1122, 3290827603, 0.7960299, 0.10590901, 0.34150776, -0.4883607, -9.915571, 9.097474, -2.2239141, 0
1123, 3290844270, 0.7854713, 0.12272351, 0.3613238, -0.48726064, -11.312868, 11.139284, 0.06720257, 0
1124, 3290860937, 0.7714789, 0.14009257, 0.38254213, -0.4887329, -10.985103, 13.898107, 2.1698427, 0
1127, 3290910938, 0.7169563, 0.19177607, 0.4594018, -0.48800594, -10.869258, 16.489946, 5.0436525, 0
1128, 3290927605, 0.69862056, 0.20910199, 0.49560645, -0.4717882, 5.654109, 28.20833, 43.198414, 0
1130, 3290960939, 0.69772905, 0.21113236, 0.50352895, -0.46374595, 6.818162, -6.4429364, -0.655282, 0
1131, 3290977606, 0.68861085, 0.21362095, 0.5195638, -0.45851794, 0.23621386, 0.66011983, -0.74194336, 0
1132, 3290994273, 0.67741066, 0.21691641, 0.53898174, -0.45118168, 1.439743, -0.7183301, 0.27226543, 0
1134, 3291027607, 0.64177924, 0.24010766, 0.59441364, -0.4208853, 2.1034186, -4.242422, 0.2507534, 0
1135, 3291044274, 0.6080479, 0.2648935, 0.6358651, -0.39470124, 3.0570648, -5.5828834, 0.39981556, 0
1136, 3291060941, 0.5579346, 0.29684862, 0.6860236, -0.3605079, 5.5996137, -6.4468474, 2.8967876, 0
1138, 3291094275, 0.43068263, 0.36702842, 0.775596, -0.27974615, 8.362558, -14.435953, 25.329632, 0
1139, 3291110942, 0.39371574, 0.39038533, 0.79141825, -0.25738788, 9.159878, -14.983147, 38.743935, 0
1141, 3291144276, 0.33869398, 0.41891575, 0.80964434, -0.2329728, -1.1948931, -30.766275, 20.57789, 0
1143, 3291177610, 0.2461742, 0.4380846, 0.84151965, -0.19831619, 15.550479, -30.078499, 5.2732677, 0
1145, 3291210944, 0.18400899, 0.44500676, 0.86375326, -0.14847335, 18.691856, -23.734587, -10.865114, 0
1146, 3291227611, 0.16385742, 0.4460722, 0.8725564, -0.113224745, 13.9584255, -20.125467, -16.250647, 0
1147, 3291244278, 0.14769982, 0.4488303, 0.87759227, -0.081070974, 9.520641, -16.178537, -19.144215, 0
1149, 3291277612, 0.12751608, 0.46108252, 0.8774074, -0.0360979, 4.975435, -8.908405, -20.146126, 0
1150, 3291294279, 0.122615054, 0.46782193, 0.87502754, -0.02096057, 3.0562584, -6.9702597, -19.732925, 0
1151, 3291310946, 0.1200086, 0.47304976, 0.8727581, -0.010929129, 1.6685306, -5.615606, -19.20256, 0
1153, 3291344280, 0.12086689, 0.47878224, 0.86951894, -0.009995876, 0.23395252, -3.8601198, -17.445185, 0
1157, 3291410948, 0.18740219, 0.46911994, 0.8600264, -0.07187304, 5.644108, 1.296077, -3.7101007, 0
1158, 3291427615, 0.22210625, 0.46335742, 0.8539833, -0.08176514, 3.8527987, 2.7712386, 1.6256914, 0
1159, 3291444282, 0.25714308, 0.45921704, 0.8456356, -0.08889275, 1.3042289, 4.248588, 5.786289, 0
1161, 3291477616, 0.31440187, 0.45251596, 0.82827747, -0.10169344, -3.5407076, 5.0603633, 9.675991, 0
1162, 3291494283, 0.33113438, 0.44969895, 0.8220881, -0.11088783, -4.3436546, 6.5740113, 8.834106, 0
1163, 3291510950, 0.342008, 0.44724092, 0.81788266, -0.11865233, -1.3268479, 8.073659, 7.9841766, 0
1165, 3291544284, 0.36475158, 0.4417842, 0.81151915, -0.114995435, 1.9322311, 6.385347, 3.9789581, 0
1166, 3291560951, 0.37717864, 0.44047382, 0.8074755, -0.10819757, 0.7821382, 4.483919, 1.5707788, 0
1167, 3291577618, 0.38814887, 0.44060054, 0.8027951, -0.103615366, 0.35415292, 2.31753, 0.6572218, 0
1169, 3291610952, 0.40279257, 0.44561452, 0.79179084, -0.11071277, -0.88999593, 0.045641344, 1.0396185, 0
1172, 3291660953, 0.41607302, 0.45516542, 0.7759553, -0.13268511, 1.4869628, 0.827219, -1.1262617, 0
1173, 3291677620, 0.42443252, 0.4560641, 0.7707533, -0.13343981, 0.4822149, -0.9408169, -1.454937, 0
1174, 3291694287, 0.43378508, 0.45633903, 0.7651841, -0.13447171, -0.25853208, -2.2077093, -2.059104, 0
1176, 3291727621, 0.45171234, 0.45500627, 0.75407255, -0.14249308, 0.08550913, -3.0373378, -2.927031, 0
1177, 3291744288, 0.46073848, 0.45426124, 0.74764323, -0.14966856, 0.21962205, -3.4244065, -2.4565473, 0
1178, 3291760955, 0.46971205, 0.45356044, 0.74073565, -0.1580145, 0.31895253, -2.853333, -3.2930431, 0
1180, 3291794289, 0.4909012, 0.44997978, 0.72582084, -0.17240241, 3.0631082, -4.8577213, -3.9887657, 0
1181, 3291810956, 0.5059691, 0.44451597, 0.7171005, -0.17936516, 2.336004, -5.5003014, -4.2108765, 0
1182, 3291827623, 0.52195376, 0.4384209, 0.70713407, -0.18792753, 1.5850511, -6.139984, -4.189918, 0
1184, 3291860957, 0.5569768, 0.42471683, 0.68083894, -0.2141374, 1.134115, -8.074829, -2.683453, 0
1186, 3291894291, 0.59059745, 0.40945265, 0.6487809, -0.25026175, 0.50109726, -8.301896, -1.2773848, 0
1188, 3291927625, 0.62759423, 0.38289902, 0.61257535, -0.29029244, 0.83885396, -7.5043883, 1.5979538, 0
1189, 3291944292, 0.64628077, 0.3683954, 0.5925323, -0.3090561, -0.3168922, -6.3845115, 1.9614725, 0
1190, 3291960959, 0.66410357, 0.3535082, 0.5716591, -0.3274275, -1.233294, -6.9440436, 4.649478, 0
1192, 3291994293, 0.69508064, 0.3209787, 0.52741915, -0.36833256, -2.5450165, -5.212233, 4.3556337, 0
1193, 3292010960, 0.70691496, 0.30286282, 0.5071685, -0.3890114, -1.3974549, -4.4072833, 5.0507174, 0
1195, 3292044294, 0.7279628, 0.2591533, 0.47051045, -0.42606816, -0.17046931, -1.7066251, 9.363438, 0
1196, 3292060961, 0.73896617, 0.23720641, 0.45042914, -0.44133896, -0.53930277, 0.33140868, 9.130575, 0
1197, 3292077628, 0.75039047, 0.21538311, 0.42996052, -0.4535002, -0.17723595, 2.1666317, 8.943192, 0
1199, 3292110962, 0.7727673, 0.16822945, 0.39248762, -0.46956056, -1.3394635, 4.5443788, 7.3923607, 0
1201, 3292144296, 0.7899055, 0.12266781, 0.3591223, -0.4817028, -4.091409, 7.35805, 6.5456696, 0
1203, 3292177630, 0.802211, 0.08106609, 0.32699758, -0.49291238, -2.330203, 9.026484, -0.9279518, 0
1204, 3292194297, 0.8060948, 0.06481026, 0.3150549, -0.49674493, -3.1959076, 8.59363, -1.2860203, 0
1205, 3292210964, 0.809568, 0.05341057, 0.3032528, -0.4997892, -2.806649, 7.568626, -1.7200603, 0
1207, 3292244298, 0.81440824, 0.039571073, 0.2836752, -0.50468415, -2.0819986, 5.1006646, -2.1364007, 0
1208, 3292260965, 0.8149527, 0.03356678, 0.27587625, -0.5085488, -2.4830124, 4.737629, -0.73361397, 0
1209, 3292277632, 0.81446844, 0.028756969, 0.2671376, -0.514253, -1.9933511, 3.6164696, -1.3216925, 0
1211, 3292310966, 0.81089944, 0.02310849, 0.2515924, -0.5278387, 0.654186, 4.1733003, -1.6309385, 0
1212, 3292327633, 0.80912936, 0.019302968, 0.24542406, -0.5335809, 1.0859478, 4.45785, -1.4678535, 0
1213, 3292344300, 0.8082755, 0.015434681, 0.23932439, -0.53775495, 0.81345135, 4.4486423, -1.2427855, 0
1215, 3292377634, 0.80933356, 0.0067551713, 0.22810283, -0.5412086, 0.3557838, 5.5536623, -1.5993061, 0
1216, 3292394301, 0.8101999, 0.0011620973, 0.22366108, -0.54180676, -0.3376561, 5.1640754, -3.31256, 0
1217, 3292410968, 0.81103384, -0.002308244, 0.2200657, -0.54202765, -1.1161375, 4.946198, -4.0915627, 0
1219, 3292444302, 0.8116991, -0.0023994707, 0.21552452, -0.5428556, -2.304781, 4.465688, -4.1929474, 0
1220, 3292460969, 0.81067944, 2.4288893E-4, 0.21507664, -0.5445594, -2.3442101, 4.021577, -4.157819, 0
1222, 3292494303, 0.8063712, 0.009542701, 0.21646562, -0.55029196, -1.1379577, 4.418345, -2.7246318, 0
1223, 3292510970, 0.80392146, 0.014242261, 0.21718514, -0.5534819, 0.048155643, 4.2387085, -2.7825274, 0
1224, 3292527637, 0.802057, 0.018734459, 0.21836063, -0.5555865, 0.5371724, 4.3999457, -2.5885148, 0
1226, 3292560971, 0.8008972, 0.025286362, 0.22188734, -0.5556029, 0.31776413, 4.806732, -2.7381244, 0
1228, 3292594305, 0.80148697, 0.030810554, 0.22780477, -0.5520677, -1.1690943, 4.9706635, -2.1633968, 0
1230, 3292627639, 0.8025066, 0.03773745, 0.23214689, -0.54833466, -0.7952116, 4.126607, -2.12857, 0
1231, 3292644306, 0.80308545, 0.04185034, 0.23512442, -0.54591477, -1.0168974, 4.4017367, -1.7813358, 0
1232, 3292660973, 0.8034321, 0.04543959, 0.2391183, -0.5433773, -0.7132656, 4.7359776, -2.2853847, 0
1234, 3292694307, 0.80283815, 0.054268, 0.25034627, -0.5383649, 0.044040658, 4.5968375, -2.7910223, 0
1235, 3292710974, 0.8030867, 0.060486514, 0.25620836, -0.5345604, 0.5914374, 4.7847214, -1.3102036, 0
1236, 3292727641, 0.80407256, 0.06624319, 0.2616105, -0.5297581, 0.4357747, 4.1645346, -0.064154625, 0
1238, 3292760975, 0.8076576, 0.0719607, 0.2729868, -0.51768064, 0.86355215, 5.695854, -0.06755257, 0
1239, 3292777642, 0.81117725, 0.069257356, 0.28049394, -0.50845104, -0.55058324, 7.9620886, 0.33332348, 0
1240, 3292794309, 0.8163969, 0.06145698, 0.28842625, -0.49652153, -2.4672894, 9.543479, -0.13016224, 0
1246, 3292894311, 0.8129406, 0.068744764, 0.40118846, -0.41647777, -18.792477, 16.39225, 0.58441067, 0
1247, 3292910978, 0.7929329, 0.0877472, 0.43915117, -0.41316852, -18.1967, 19.856298, 3.0162725, 0
1248, 3292927645, 0.7658177, 0.11268627, 0.4822135, -0.41024312, -17.0161, 24.423002, 6.282505, 0
1250, 3292960979, 0.7478797, 0.15327385, 0.5033293, -0.40478036, 4.377565, -23.327785, 7.7026386, 0
1251, 3292977646, 0.73876315, 0.16570647, 0.5209073, -0.3942466, 0.31684616, -1.3978451, 0.7471247, 0
1253, 3293010980, 0.6942622, 0.21260807, 0.5870993, -0.35793376, 1.829575, -2.9861689, -1.1527777, 0
1255, 3293044314, 0.583162, 0.29243818, 0.6986536, -0.2937508, 8.074194, -7.7954597, 11.535265, 0
1257, 3293077648, 0.47418684, 0.36829898, 0.7647791, -0.23370907, 8.638672, -17.553886, 24.319195, 0
1258, 3293094315, 0.44344503, 0.38136193, 0.7796113, -0.22389726, -2.7074482, -28.620695, 32.169456, 0
1259, 3293110982, 0.39215067, 0.40513864, 0.7945809, -0.22522436, -6.3052344, -18.969471, 32.02881, 0
1262, 3293160983, 0.2660914, 0.43759248, 0.8436587, -0.16109799, 13.126195, -29.110485, 0.94114494, 0
1263, 3293177650, 0.23282345, 0.44315702, 0.8553861, -0.13313252, 14.270836, -26.223488, -5.8200636, 0
1266, 3293227651, 0.17862353, 0.454468, 0.8707963, -0.05718703, 11.881378, -16.101889, -17.97901, 0
1267, 3293244318, 0.17762378, 0.45770845, 0.8703758, -0.037455358, 7.6571016, -12.705825, -18.594687, 0
1269, 3293277652, 0.18902592, 0.4664255, 0.86395013, -0.017635398, 4.33916, -7.1997304, -18.488827, 0
1270, 3293294319, 0.20284994, 0.46787173, 0.86008334, -0.014452884, 3.7687924, -6.221939, -18.015488, 0
1271, 3293310986, 0.22059722, 0.46753788, 0.85585964, -0.015929203, 1.2989261, -5.0025883, -16.915472, 0
1273, 3293344320, 0.2673874, 0.4637341, 0.8435868, -0.0426655, 3.5718486, -7.3065257, -14.404917, 0
1274, 3293360987, 0.29991543, 0.45834804, 0.834082, -0.06541635, 3.6312542, -3.7892518, -11.274521, 0
1276, 3293394321, 0.3721744, 0.43390855, 0.81458545, -0.09830795, 3.695304, 1.5480057, -6.293442, 0
1278, 3293427655, 0.44357824, 0.3900643, 0.79682827, -0.12711002, 0.9837315, -3.6284196, -1.1719847, 0
1280, 3293460989, 0.5000541, 0.34837693, 0.77256083, -0.17813876, -0.22950445, 1.9987146, 4.311018, 0
1281, 3293477656, 0.5213535, 0.32876915, 0.7605833, -0.20400712, -0.81329036, 5.4166813, 8.680344, 0
1282, 3293494323, 0.54097265, 0.3105621, 0.74961746, -0.2213095, 0.18467714, 11.828466, 9.108355, 0
1284, 3293527657, 0.5799419, 0.27380577, 0.7330721, -0.22651128, -0.5666496, 4.0845366, 5.2038307, 0
1285, 3293544324, 0.5983215, 0.25918454, 0.72180474, -0.23202792, -3.5063279, 0.6809865, 3.8184204, 0
1286, 3293560991, 0.6111488, 0.2520433, 0.7087273, -0.24633615, -6.343872, 0.68943745, 2.876049, 0
1288, 3293594325, 0.6199342, 0.23842247, 0.6912005, -0.28474995, -4.42618, 8.76688, 3.1783533, 0
1289, 3293610992, 0.62055194, 0.23107657, 0.68841094, -0.29599634, -5.64736, 7.5370207, 1.7678881, 0
1290, 3293627659, 0.6183948, 0.22160344, 0.6894668, -0.3051548, -5.008842, 3.9356782, 2.9618845, 0
1292, 3293660993, 0.60633117, 0.2041835, 0.69184977, -0.3346935, -7.2867327, 2.7212865, 2.8083096, 0
1293, 3293677660, 0.5959758, 0.20385179, 0.69116086, -0.3543424, -5.3056345, 7.341618, 2.797285, 0
1294, 3293694327, 0.57797563, 0.22043377, 0.70570356, -0.3454563, 7.237731, 35.84412, -1.1101694, 0
1296, 3293727661, 0.57252103, 0.23238762, 0.71271867, -0.3320423, -4.1972537, 1.0830339, 4.5160103, 0
1297, 3293744328, 0.56246823, 0.24296379, 0.7162884, -0.33396626, -2.3848448, 0.97309965, 0.8761711, 0
1298, 3293760995, 0.55396545, 0.24368814, 0.7227291, -0.33377436, 5.8704267, 1.4432987, 1.5300589, 0
1300, 3293794329, 0.5396212, 0.2531372, 0.72465134, -0.34585446, -5.921388, -2.2420762, -0.92328167, 0
1301, 3293810996, 0.52623177, 0.2588405, 0.7262249, -0.35872462, 2.1374123, 0.70332295, -0.84252167, 0
1303, 3293844330, 0.5235053, 0.25502715, 0.7286559, -0.36051118, 0.556271, -1.0588849, -1.6381149, 0
1305, 3293877664, 0.5232068, 0.25838047, 0.7266309, -0.36263785, -1.319401, -1.2394354, 2.0751553, 0
1307, 3293910998, 0.50458384, 0.2568026, 0.72822237, -0.38619155, -9.560384, -6.933357, 5.501956, 0
1308, 3293927665, 0.49050915, 0.25043237, 0.7310893, -0.40273705, 7.108682, 2.6273332, -1.4258528, 0
1309, 3293944332, 0.4916512, 0.24467751, 0.73078036, -0.40543368, 0.48228553, -3.4524012, 2.5029411, 0
1311, 3293977666, 0.48976308, 0.24516676, 0.72666454, -0.41471484, 1.8924817, -0.41018182, -0.39392567, 0
1312, 3293994333, 0.49280515, 0.24176955, 0.72532785, -0.41544473, 3.954212, -3.453784, 1.9854746, 0
1313, 3294011000, 0.4983384, 0.24197172, 0.7211638, -0.41597515, 1.7328707, 0.50267774, -1.014246, 0
1315, 3294044334, 0.5059688, 0.2410766, 0.71472883, -0.4183833, -2.558993, -3.8208745, 0.0762825, 0
1316, 3294061001, 0.5091867, 0.24190915, 0.70892036, -0.42384565, 4.2843914, -1.4661422, -3.768886, 0
1317, 3294077668, 0.5148236, 0.24239431, 0.70333266, -0.4260622, -0.036655456, -0.48549172, -1.6501284, 0
1320, 3294127669, 0.52495885, 0.25307325, 0.68533826, -0.4366782, 1.8829501, -2.7693298, -2.2383766, 0
1321, 3294144336, 0.52608484, 0.2509084, 0.68055284, -0.44399527, 1.4291654, -5.956324, -4.585682, 0
1323, 3294177670, 0.5288882, 0.25209358, 0.66949916, -0.45661926, -2.0198288, 0.6267187, -1.3513327, 0
1324, 3294194337, 0.5290293, 0.25384536, 0.66826266, -0.45729613, -3.6196806, 6.058974, 5.183484, 0
1325, 3294211004, 0.540675, 0.23576559, 0.6807547, -0.4343529, -1.0703003, 7.167832, 8.772404, 0
1327, 3294244338, 0.5555618, 0.2329255, 0.6691089, -0.4351946, 1.2275953, 0.37095004, 4.188657, 0
1328, 3294261005, 0.56679595, 0.23263443, 0.6585405, -0.43698075, 1.2110685, -3.6318638, -1.8176908, 0
1329, 3294277672, 0.5813613, 0.2288791, 0.6502733, -0.432183, -0.0016801469, -5.434538, -3.2410164, 0
1331, 3294311006, 0.61956763, 0.21500224, 0.621712, -0.42823872, -1.3906565, 1.0373777, -0.27836132, 0
1332, 3294327673, 0.6384819, 0.20895474, 0.5993487, -0.4352747, 0.3282015, 0.5609148, -4.862088, 0
1335, 3294377674, 0.6670487, 0.20146333, 0.55620784, -0.4528747, 1.1352454, -7.5261316, -10.387713, 0
1336, 3294394341, 0.6656425, 0.20013943, 0.5582555, -0.45301145, 2.8581111, -8.863445, 6.1801014, 0
1338, 3294427675, 0.69008434, 0.17095539, 0.52490926, -0.46800864, 2.8430464, -1.7067499, 0.12599659, 0
1339, 3294444342, 0.70681137, 0.15859929, 0.5040772, -0.4702917, 1.0563363, 4.0695996, -0.051363945, 0
1340, 3294461009, 0.7138811, 0.15677813, 0.50366676, -0.4605632, -4.5481734, 9.218332, 1.8137693, 0
1342, 3294494343, 0.72348404, 0.17159277, 0.5012503, -0.4425824, -0.7541448, 3.8588257, 1.4302559, 0
1343, 3294511010, 0.7290797, 0.17430027, 0.49153972, -0.4432325, 1.3710922, 0.08881466, 2.130227, 0
1344, 3294527677, 0.7328156, 0.17399195, 0.48319957, -0.44635236, 3.43224, -1.2625531, 0.25783443, 0
1346, 3294561011, 0.73818433, 0.17351115, 0.4722495, -0.44940242, 0.88923913, -0.39860082, 2.0758133, 0
1347, 3294577678, 0.73910344, 0.17349203, 0.47041497, -0.449823, -0.049969897, -1.1463376, 0.9301472, 0
1350, 3294627679, 0.7358999, 0.17833596, 0.47488523, -0.44848192, -1.725457, 1.6428238, 2.1588707, 0
1351, 3294644346, 0.7338361, 0.179323, 0.4774116, -0.44878763, -1.4699144, -0.49456477, -0.58491135, 0
1352, 3294661013, 0.7311487, 0.1810014, 0.48111162, -0.44854864, -0.8176459, 0.64049727, -1.3585396, 0
1354, 3294694347, 0.7291502, 0.18360269, 0.4834285, -0.44825348, 0.94310534, -0.24303994, -2.523758, 0
1355, 3294711014, 0.72738165, 0.18639319, 0.48625946, -0.44691095, -1.1514344, 1.2575514, -1.6115742, 0
1357, 3294744348, 0.7244293, 0.18966582, 0.48874977, -0.44761238, 0.4511694, -0.37739497, -1.9577656, 0
1358, 3294761015, 0.7222488, 0.19204478, 0.49160287, -0.4469971, 1.1712939, -0.5326096, -2.893464, 0
1359, 3294777682, 0.72070557, 0.19349374, 0.4933099, -0.44698235, -1.1703241, 2.250579, 1.8858461, 0
1361, 3294811016, 0.71996605, 0.19306394, 0.49119085, -0.4506783, -0.28592223, -2.3401117, -1.0086365, 0
1362, 3294827683, 0.7199299, 0.19360365, 0.49038315, -0.4513837, -0.6580581, -1.4813588, -0.7141609, 0
1363, 3294844350, 0.72034335, 0.19414236, 0.48910525, -0.45187867, -1.4413085, 0.015067455, 2.0082588, 0
1365, 3294877684, 0.7203076, 0.19578251, 0.4868694, -0.45363897, 0.8690295, 0.6273272, 1.4639673, 0
1366, 3294894351, 0.7208583, 0.1956283, 0.48512182, -0.45470202, 1.766148, -3.1783211, -0.71787643, 0
1367, 3294911018, 0.72099924, 0.19650012, 0.48463264, -0.45462433, 0.66258115, -2.6888049, -2.2986069, 0
1369, 3294944352, 0.7198493, 0.1987687, 0.48537347, -0.45466983, 0.2891292, -2.7353551, -0.31036663, 0
1370, 3294961019, 0.7194934, 0.19988774, 0.48544678, -0.45466453, 1.2271826, -0.9153877, 0.8725252, 0
1371, 3294977686, 0.7194888, 0.20062171, 0.48487243, -0.45496124, 1.2496243, -2.4692135, 0.758255, 0
1373, 3295011020, 0.7157153, 0.20240356, 0.48928064, -0.45540443, 1.2194548, -2.1959786, 0.9010954, 0
1374, 3295027687, 0.7133873, 0.20348161, 0.4928931, -0.45468053, 2.5115232, -3.7206073, -2.569471, 0
1377, 3295077688, 0.705599, 0.20537615, 0.50523406, -0.45243067, 1.5951091, -2.454875, 0.5836983, 0
1378, 3295094355, 0.7022774, 0.2072053, 0.510415, -0.45094678, 0.9090205, -1.4302155, 3.024436, 0
1379, 3295111022, 0.69917595, 0.20814338, 0.5152907, -0.44978777, 2.3903186, -3.3538883, -2.7832713, 0
1381, 3295144356, 0.69621545, 0.20719367, 0.5193717, -0.45012465, 0.90553546, -0.5612255, -0.9994011, 0
1382, 3295161023, 0.696345, 0.20462675, 0.51908773, -0.45142418, 0.86858076, 0.9604193, 0.6095085, 0
1384, 3295194357, 0.6982514, 0.19866289, 0.5168431, -0.45371303, -0.8798793, 2.9494894, -4.0484505, 0
1385, 3295211024, 0.7020808, 0.19440569, 0.5111793, -0.45605808, -1.4800559, 0.4993141, -5.010066, 0
1386, 3295227691, 0.7095532, 0.18586482, 0.49912602, -0.46137396, -2.4402468, 1.6797979, -6.003932, 0
1388, 3295261025, 0.73027986, 0.160182, 0.46426377, -0.4748646, 3.4666667, -1.6140945, 4.163047, 0
1389, 3295277692, 0.7400529, 0.15125702, 0.44770104, -0.47855115, 1.68288, -1.824663, 6.1623526, 0
1392, 3295327693, 0.7459326, 0.14779456, 0.4410216, -0.47670278, -0.6733082, 6.652098, 1.9427748, 0
1393, 3295344360, 0.7465481, 0.1478889, 0.440346, -0.47633418, -1.3375821, 4.779239, -4.377172, 0
1394, 3295361027, 0.7474999, 0.14676267, 0.43740657, -0.47789565, -2.405355, 4.2834973, -2.5556073, 0
1396, 3295394361, 0.74753165, 0.1433984, 0.43278655, -0.48304608, -4.444735, 4.0060196, 1.6710548, 0
1397, 3295411028, 0.7457998, 0.14258845, 0.43395486, -0.48491096, -2.7706335, 4.7808666, 3.954958, 0
1398, 3295427695, 0.74304736, 0.14321572, 0.43701008, -0.4862061, 0.10654729, 2.455288, 0.85000896, 0
1400, 3295461029, 0.7339223, 0.14715491, 0.44905642, -0.48790994, 1.1483705, -0.78755385, -0.18871784, 0
1401, 3295477696, 0.73053026, 0.14773068, 0.4527178, -0.4894405, 0.57793367, -1.7275319, -1.6819525, 0
1402, 3295494363, 0.72783124, 0.14682682, 0.45515057, -0.4914732, -0.6353957, -0.59550154, -0.43208408, 0
1404, 3295527697, 0.7267817, 0.14132331, 0.45388782, -0.4957883, -0.24139199, 0.5763677, -0.8236742, 0
1406, 3295561031, 0.7287254, 0.137343, 0.45083594, -0.49683732, 1.0271196, 0.011592053, -0.37104893, 0
1408, 3295594365, 0.7309762, 0.13392897, 0.44855005, -0.49653178, 1.819975, -1.3247876, -1.1375542, 0
1409, 3295611032, 0.731228, 0.13230173, 0.4483192, -0.49680585, 1.116191, 1.1295673, -1.6448135, 0
1410, 3295627699, 0.7319524, 0.12987629, 0.4466979, -0.49783835, 0.7170079, 0.44694835, 1.1864395, 0
1412, 3295661033, 0.73349535, 0.12609869, 0.44534802, -0.49774796, 0.69243467, 0.2443998, -3.1355367, 0
1413, 3295677700, 0.73439586, 0.12535332, 0.44467428, -0.49721074, 1.2936451, -0.12274773, 2.2498026, 0
1415, 3295711034, 0.73699903, 0.12477909, 0.44205138, -0.4958402, -0.9130614, 1.3598222, 0.6063194, 0
1416, 3295727701, 0.73855567, 0.124317594, 0.4400774, -0.49539572, 0.8062452, -0.78047764, 0.2716465, 0
1417, 3295744368, 0.7401834, 0.12395585, 0.43839207, -0.4945504, 0.922638, 0.9050647, 0.6775503, 0
1419, 3295777702, 0.74261904, 0.12331989, 0.43622887, -0.49296838, 1.0469, 0.2504571, -0.7658386, 0
1421, 3295811036, 0.7438207, 0.12477578, 0.43712848, -0.4899842, 0.7087741, -0.608015, -1.2934389, 0
1423, 3295844370, 0.7445263, 0.12593406, 0.43866116, -0.4872391, 1.2647597, -2.0792458, -0.6374855, 0
1424, 3295861037, 0.7446714, 0.12644786, 0.43997067, -0.48570094, 0.9125133, 0.50355774, -0.40281677, 0
1425, 3295877704, 0.74431986, 0.1270502, 0.44199654, -0.48424113, 1.0009476, -0.20907006, 0.5302973, 0
1427, 3295911038, 0.74141806, 0.12765199, 0.4486187, -0.4824413, 0.6891957, 0.03533807, 1.2822962, 0
1428, 3295927705, 0.74058396, 0.12701817, 0.45070255, -0.48194736, 1.2945298, -1.1261727, -0.34305668, 0
1429, 3295944372, 0.73916, 0.12656319, 0.45394167, -0.4812126, 0.17548226, -0.15976873, -1.5146742, 0
1431, 3295977706, 0.7374512, 0.1250448, 0.45784926, -0.48052868, 0.71950185, -0.72279865, -1.0755167, 0
1432, 3295994373, 0.7364724, 0.12543148, 0.46046215, -0.47943085, 0.9705337, -1.0360514, -2.2795253, 0
1433, 3296011040, 0.7362984, 0.12585479, 0.46188495, -0.4782172, 0.3986899, 0.7552274, 2.1388206, 0
1435, 3296044374, 0.73760533, 0.12618417, 0.46196342, -0.47603577, 0.92934185, 0.7597436, 1.1822948, 0
1436, 3296061041, 0.73924416, 0.12577513, 0.46033558, -0.475178, 0.12582281, 0.1769822, 0.60136604, 0
1438, 3296094375, 0.74185616, 0.12566704, 0.4590289, -0.47239125, 2.1434078, -1.8740739, -2.5359077, 0
1439, 3296111042, 0.74212825, 0.12696089, 0.46043682, -0.47024345, 0.7106311, 1.4657654, 0.18075943, 0
1440, 3296127709, 0.74365056, 0.12791017, 0.45947185, -0.4685218, 1.0244931, 0.25190023, 1.1839447, 0
1442, 3296161043, 0.74497133, 0.13089629, 0.4613395, -0.46373928, -0.15407196, 1.4476068, 1.7350388, 0
1443, 3296177710, 0.7462568, 0.13081379, 0.4602296, -0.4627975, 2.2088373, -0.96208817, -0.005683899, 0
1444, 3296194377, 0.74660397, 0.13100272, 0.46042305, -0.46199107, 0.5089775, 0.79603857, -1.6793547, 0
1446, 3296227711, 0.74648637, 0.13037597, 0.4609883, -0.46179458, 0.0056691826, 0.7529592, 0.32532787, 0
1448, 3296261045, 0.7465946, 0.12923208, 0.46136376, -0.46156606, 0.16762845, -0.96537316, -0.19450378, 0
1450, 3296294379, 0.7478621, 0.12777229, 0.45954895, -0.46173093, 0.19780114, -0.09672702, -0.90652084, 0
1451, 3296311046, 0.74827427, 0.12716788, 0.45903128, -0.4617451, -0.89156884, 1.4364355, 1.0594969, 0
1452, 3296327713, 0.74881023, 0.126233, 0.45833448, -0.46182513, 0.6158191, -1.0347245, -0.3024149, 0
1454, 3296361047, 0.7494848, 0.126165, 0.45867324, -0.46041062, 0.9303157, -0.19824621, 0.20101738, 0
1455, 3296377714, 0.7493944, 0.12639943, 0.4595226, -0.45964596, 0.57302284, -0.027555125, -1.0063, 0
1456, 3296394381, 0.7494794, 0.12654464, 0.45986053, -0.45912933, 0.9910571, 0.47809118, 0.7753687, 0
1458, 3296427715, 0.75089175, 0.12687588, 0.458633, -0.45795646, -0.59327, 0.60320795, 0.4817686, 0
1459, 3296444382, 0.7524435, 0.12654504, 0.45640606, -0.4577258, -0.37983704, -0.36288702, 1.3622742, 0
1460, 3296461049, 0.75334007, 0.12642126, 0.45538506, -0.45730203, 0.52075076, -0.5171262, -1.9869671, 0
1463, 3296511050, 0.7544037, 0.12598357, 0.45417202, -0.4568756, 0.7316873, 0.20202325, -0.7039137, 0
1465, 3296544384, 0.7552967, 0.124250524, 0.45273128, -0.45730436, -0.44500333, -0.36092022, -0.20635796, 0
1466, 3296561051, 0.75586563, 0.12328924, 0.45215496, -0.457195, 0.6945122, -0.5803422, -0.71105385, 0
1467, 3296577718, 0.75598955, 0.12280648, 0.45229164, -0.45698452, 0.59021795, 0.46962625, -0.5035286, 0
1469, 3296611052, 0.75705785, 0.12142211, 0.45063838, -0.45721918, 1.232708, -1.8871078, -0.8573332, 0
1470, 3296627719, 0.75691295, 0.121399224, 0.4513527, -0.45676053, -0.39978802, 0.079419576, -0.96718025, 0
1471, 3296644386, 0.7570199, 0.121043876, 0.45158866, -0.45644423, 0.106658146, 0.9665281, 2.737689, 0
1474, 3296694387, 0.7573659, 0.119846426, 0.4519479, -0.4558301, 1.0177828, -0.45331243, -0.6265316, 0
1475, 3296711054, 0.7577374, 0.119146235, 0.45146608, -0.45587394, 0.016681666, 6.7757955E-4, 2.3685408, 0
1477, 3296744388, 0.75727934, 0.118906274, 0.4538455, -0.45433235, 0.208783, -0.08174902, -1.0982275, 0
1479, 3296777722, 0.75739926, 0.11874485, 0.45478103, -0.4532379, 0.49648866, -0.57035977, -0.83217335, 0
1481, 3296811056, 0.76043284, 0.115433976, 0.4487801, -0.45499176, 0.9412162, -2.1956174, 0.7872505, 0
1482, 3296827723, 0.7625052, 0.11406863, 0.4454529, -0.4551375, 0.13982233, -1.2277699, 0.7849102, 0
1483, 3296844390, 0.76292646, 0.11391308, 0.4455615, -0.45436338, 1.118033, -1.4603353, -0.9012003, 0
1485, 3296877724, 0.7589693, 0.1173804, 0.45544723, -0.45028818, 3.862796, -1.8257046, -1.7684441, 0
1486, 3296894391, 0.7542516, 0.12162519, 0.46567062, -0.4466173, 2.4471512, -1.405691, -2.4794621, 0
1487, 3296911058, 0.7500469, 0.12487239, 0.47458026, -0.44341218, 2.256982, -1.4929197, -0.32282925, 0
1489, 3296944392, 0.7421456, 0.12977843, 0.49117947, -0.43717763, 1.252239, -1.6077839, -1.524746, 0
1490, 3296961059, 0.73735964, 0.13328017, 0.5010565, -0.432994, 1.3624512, -2.0440683, -2.3011093, 0
1491, 3296977726, 0.7342689, 0.13513641, 0.5076292, -0.43000463, -0.35760754, 1.0220637, -0.78740025, 0
1494, 3297027727, 0.7480573, 0.12142884, 0.48542222, -0.43592972, -0.54947394, -0.07323793, 1.5364943, 0
1496, 3297061061, 0.75697756, 0.113949426, 0.46963498, -0.43982673, 1.4543034, 0.15324908, 2.5011702, 0
1497, 3297077728, 0.7578495, 0.11285557, 0.46815625, -0.4401837, 1.3436372, 2.202447, -0.56777096, 0
1498, 3297094395, 0.7591535, 0.11131907, 0.46558508, -0.4410544, 0.25936845, 2.692962, 1.9356384, 0
1500, 3297127729, 0.7631, 0.1074587, 0.45811117, -0.44302294, -3.3649218, 3.5198345, 1.6706934, 0
1501, 3297144396, 0.76476955, 0.10603498, 0.45533454, -0.44334966, -1.7274382, 3.9068313, 0.7047787, 0
1502, 3297161063, 0.7661295, 0.1046236, 0.45311043, -0.4436155, -1.0772753, 3.6164596, 1.8751793, 0
1504, 3297194397, 0.7654488, 0.102672316, 0.4533185, -0.4450315, -0.8380415, 4.3360987, 1.0430527, 0
1505, 3297211064, 0.7646578, 0.10227062, 0.45411423, -0.44567212, -1.0676296, 2.3586018, -0.489563, 0
1506, 3297227731, 0.7635071, 0.101719834, 0.45527223, -0.44658855, -3.0415199, 2.25355, -0.49316025, 0
1508, 3297261065, 0.76067024, 0.100783944, 0.4582003, -0.44864282, -1.074984, 2.1843965, -1.394453, 0
1509, 3297277732, 0.75939524, 0.09993963, 0.45965308, -0.44950464, -1.4736942, 1.8511423, 0.058600426, 0
1510, 3297294399, 0.7582849, 0.099058114, 0.46103284, -0.4501603, -1.286029, 0.79908776, -0.42867756, 0
1512, 3297327733, 0.75582856, 0.09757012, 0.4641763, -0.45138434, 0.59976727, 0.10402567, -1.1124239, 0
1513, 3297344400, 0.75399125, 0.097415514, 0.4671837, -0.45138812, -0.1633274, 1.2888134, -0.36834526, 0
1514, 3297361067, 0.75275236, 0.09754846, 0.46950662, -0.45101672, 0.17178021, -0.21029055, -1.3010616, 0
1516, 3297394401, 0.7519874, 0.09796305, 0.4714706, -0.45015323, 0.07484957, -1.4029653, -0.26276493, 0
1517, 3297411068, 0.7526481, 0.098098025, 0.47113338, -0.44937208, 1.1139412, -0.5539831, -0.13515663, 0
1519, 3297444402, 0.7555459, 0.098172255, 0.46814358, -0.44761416, 1.2664678, -0.52866125, 0.6710577, 0
1521, 3297477736, 0.75838107, 0.09833935, 0.46513754, -0.44591358, 0.7496493, 0.7175017, 0.8583422, 0
1523, 3297511070, 0.76198405, 0.09850042, 0.46194157, -0.44304892, 1.3938751, 0.06321857, -1.5004616, 0
1524, 3297527737, 0.76417494, 0.09811263, 0.45910418, -0.44231, 1.3242289, 0.47763237, 2.756938, 0
1525, 3297544404, 0.7663469, 0.09815237, 0.4567115, -0.44101882, 3.0640376, -1.7754695, -3.1015782, 0
1527, 3297577738, 0.7696997, 0.09921434, 0.45461467, -0.4370912, 0.8055648, 0.061449636, 1.1062126, 0
1528, 3297594405, 0.77173805, 0.100869164, 0.4529115, -0.43488085, -0.45437503, 0.9664241, -1.0900078, 0
1529, 3297611072, 0.7735412, 0.10283132, 0.45161137, -0.43256384, 0.22512358, 0.20620629, -0.16424274, 0
1531, 3297644406, 0.7782594, 0.107137546, 0.44726115, -0.4275461, 0.016319128, -0.5943782, -0.38392258, 0
1532, 3297661073, 0.7799514, 0.108533636, 0.44568956, -0.42574787, 1.2662606, -1.083993, -1.1895933, 0
1533, 3297677740, 0.7810192, 0.10971832, 0.44493675, -0.42427173, 0.27439165, 0.88591874, 0.2747984, 0
1536, 3297727741, 0.783696, 0.11271557, 0.44166237, -0.42196476, -1.0998131, -0.5400457, 0.6060085, 0
1537, 3297744408, 0.78402495, 0.11453261, 0.44105244, -0.4215022, 0.057772733, -0.84064853, -0.936347, 0
1539, 3297777742, 0.7855827, 0.11918995, 0.43788654, -0.4206104, -1.1771592, -1.89908, -1.6900101, 0
1540, 3297794409, 0.785156, 0.121500745, 0.43803313, -0.4205934, -1.257403, 0.94320524, -0.4966812, 0
1541, 3297811076, 0.7854742, 0.12356587, 0.43666223, -0.42082313, -0.6061412, 0.67217284, 1.9315195, 0
1543, 3297844410, 0.7854716, 0.12801242, 0.4351048, -0.421112, -0.58200383, -0.43699336, -0.34940243, 0
1544, 3297861077, 0.7846438, 0.13063969, 0.43562937, -0.42130587, -0.28819692, -0.41318873, 0.10333443, 0
1546, 3297894411, 0.7830819, 0.13587886, 0.43670875, -0.4214372, -1.171693, -0.84582645, 1.117981, 0
1547, 3297911078, 0.78197885, 0.13826942, 0.43799633, -0.42137158, -0.51182544, -1.6303304, -0.58835983, 0
1548, 3297927745, 0.78024554, 0.14077643, 0.44004267, -0.42162257, -0.37200603, -0.049902845, 0.19704056, 0
1551, 3297977746, 0.7737626, 0.14468507, 0.44531947, -0.42667612, -0.44324565, -1.5961664, -0.8612957, 0
1552, 3297994413, 0.77064925, 0.14589901, 0.44832328, -0.42874667, -1.3465885, -0.40633607, -0.45436954, 0
1554, 3298027747, 0.76482666, 0.1475204, 0.45359552, -0.43305102, -0.8958627, -1.3837916, 0.013199806, 0
1555, 3298044414, 0.7619494, 0.14817204, 0.45658097, -0.43476, -1.01744, 0.4157656, -0.7286835, 0
1556, 3298061081, 0.7597166, 0.14860195, 0.45826593, -0.43674314, -0.6003625, -0.12164994, 2.351757, 0
1558, 3298094415, 0.7558592, 0.15016893, 0.4611328, -0.43987167, 0.7023148, -2.088346, -1.1019697, 0
1559, 3298111082, 0.75471413, 0.15154031, 0.46209714, -0.440355, 0.5258518, -1.6639225, -0.6824064, 0
1560, 3298127749, 0.7538205, 0.15350744, 0.46307588, -0.440176, -0.8378665, -0.18951753, 0.13558102, 0
1562, 3298161083, 0.7526378, 0.1575858, 0.46406436, -0.43971762, 0.6723764, 0.41910088, -0.75325584, 0
1563, 3298177750, 0.7522187, 0.15980834, 0.4646908, -0.43897042, 0.89135087, 0.46661258, 0.06821442, 0
1566, 3298227751, 0.7511778, 0.16168924, 0.4631447, -0.44168988, 0.12361205, -0.90892595, -1.2206535, 0
1567, 3298244418, 0.7503435, 0.16144925, 0.4631883, -0.4431476, -0.8516742, 0.26703942, 0.11711788, 0
1568, 3298261085, 0.7496647, 0.16079791, 0.46248698, -0.44526032, -1.6339161, -0.43102524, 0.33168983, 0
1570, 3298294419, 0.74634886, 0.1597182, 0.4637013, -0.4499322, 0.020114154, -0.6781, -0.050273895, 0
1571, 3298311086, 0.7448285, 0.15904781, 0.46420962, -0.45215937, -0.36390346, -1.0050054, -1.2910671, 0
1572, 3298327753, 0.7429418, 0.15875228, 0.46549454, -0.45404217, -1.9328446, 0.36788857, 0.8426943, 0
1574, 3298361087, 0.7403432, 0.15947993, 0.46648577, -0.4570047, -1.8007097, 0.8877387, 2.0276594, 0
1577, 3298411088, 0.7370286, 0.16117941, 0.46869013, -0.4595038, 1.0857842, 0.4704638, 0.73945045, 0
1578, 3298427755, 0.7358717, 0.16130635, 0.46928036, -0.46070966, -0.1304663, 1.5318968, 0.9804659, 0
1579, 3298444422, 0.7346904, 0.1606027, 0.46976674, -0.46234205, 0.33402625, -1.386106, -0.8975506, 0
1581, 3298477756, 0.73196566, 0.15942256, 0.4721682, -0.4646206, -0.33810872, 0.34528157, -0.4149847, 0
1582, 3298494423, 0.73082113, 0.15852185, 0.4729423, -0.465941, -0.24425139, -0.4335905, 1.8176212, 0
1583, 3298511090, 0.7295157, 0.15745398, 0.47399092, -0.46728173, 0.5295992, -0.91944623, -3.0355034, 0
1585, 3298544424, 0.7273259, 0.15297537, 0.4759454, -0.4701869, 0.29285473, -0.20155627, 2.796198, 0
1586, 3298561091, 0.7271407, 0.14800188, 0.47515064, -0.4728612, 0.28969067, -0.62072825, -1.6037521, 0
1587, 3298577758, 0.72651416, 0.14370385, 0.47574773, -0.47454673, 1.1791668, -0.9121787, -1.106247, 0
1589, 3298611092, 0.7275746, 0.13778079, 0.47497466, -0.47545224, -0.19168203, -0.14597067, 2.0619164, 0
1590, 3298627759, 0.72855353, 0.13515599, 0.47355902, -0.47611842, 1.7730491, -2.2759423, -1.6552601, 0
1591, 3298644426, 0.7299348, 0.1328837, 0.47204506, -0.47614574, 2.1214988, 0.8165551, 0.828825, 0
1594, 3298694427, 0.73003733, 0.13046649, 0.47708532, -0.4716119, 2.9128373, -2.7437055, 0.35632133, 0
1595, 3298711094, 0.7292484, 0.13072656, 0.480634, -0.46915084, 3.028479, -0.8015248, 0.6009426, 0
1597, 3298744428, 0.72936094, 0.13157077, 0.48605496, -0.46311623, 0.44043362, -1.0882219, 1.1363811, 0
1598, 3298761095, 0.7307414, 0.13132499, 0.48614264, -0.4609126, 0.7862694, -0.58775705, 2.871995, 0
1600, 3298794429, 0.7313616, 0.1346304, 0.49137893, -0.45336032, 2.3781536, -1.2029803, 0.33060265, 0
1601, 3298811096, 0.72946465, 0.13823757, 0.4980273, -0.44804534, 3.771786, -2.1826081, -2.8927603, 0
1602, 3298827763, 0.7269796, 0.14177671, 0.50497895, -0.44317096, 2.2398624, -0.16986811, -0.88910294, 0
1604, 3298861097, 0.7273388, 0.1411328, 0.50818616, -0.4391024, 1.8771861, -2.237701, -2.5048113, 0
1605, 3298877764, 0.7286875, 0.13948275, 0.5077075, -0.4379457, 0.44720182, -0.41850626, 0.42805195, 0
1606, 3298894431, 0.7292539, 0.13827449, 0.5082215, -0.4367884, 0.7966051, -0.5644498, 1.507719, 0
1609, 3298944432, 0.7282857, 0.13384166, 0.5103132, -0.4373454, -1.9833978, 2.4581234, -1.573473, 0
1610, 3298961099, 0.7336257, 0.12592308, 0.50059557, -0.4419785, -2.3547885, 0.92004895, -4.9769597, 0
1612, 3298994433, 0.74861234, 0.10752855, 0.47173095, -0.45331165, -0.6020174, -0.1035288, 3.206131, 0
1613, 3299011100, 0.7524162, 0.101669505, 0.46353313, -0.45680895, 1.4030344, 0.5641404, 1.579874, 0
1614, 3299027767, 0.75248545, 0.098398186, 0.46234015, -0.45861682, 2.2471778, 4.073684, 3.1955624, 0
1616, 3299061101, 0.7499208, 0.0942031, 0.46634102, -0.45964676, 1.2069811, 0.06525765, -3.116969, 0
1617, 3299077768, 0.7490793, 0.09236635, 0.46788925, -0.4598178, -1.2207824, 3.0914834, 1.2989197, 0
1618, 3299094435, 0.7503785, 0.09063094, 0.46670082, -0.4592524, -1.57706, 3.2777517, 1.9299259, 0
1620, 3299127769, 0.7534829, 0.088221245, 0.46480754, -0.4565508, 0.51101947, 2.3670008, -0.35344505, 0
1621, 3299144436, 0.75466, 0.08694703, 0.46465915, -0.45499933, 1.1781126, 3.5038702, -0.4190874, 0
1624, 3299194437, 0.75732356, 0.082212806, 0.46460086, -0.4514998, -1.2230976, 2.5841522, 1.4503164, 0
1625, 3299211104, 0.757611, 0.0809447, 0.46522704, -0.4506015, -1.0430514, 2.210928, -1.6315765, 0
1626, 3299227771, 0.75725913, 0.07964271, 0.46656772, -0.4500384, -1.7559888, 3.2013063, -0.29780102, 0
1628, 3299261105, 0.7569813, 0.077585034, 0.46863636, -0.4487135, -0.4890128, 1.2366843, -1.9686437, 0
1629, 3299277772, 0.7565752, 0.07653889, 0.47004807, -0.4481012, -0.99877524, 1.5574479, 0.65247536, 0
1631, 3299311106, 0.75752205, 0.07486015, 0.4703899, -0.44642335, -0.25821626, 0.71157575, -0.75510883, 0
1632, 3299327773, 0.75828403, 0.07449069, 0.47027048, -0.44531602, 0.39930725, 0.4285217, 0.24270916, 0
1633, 3299344440, 0.7598777, 0.07484274, 0.46927026, -0.44359243, 1.0875264, -0.6691256, -1.3483725, 0
1635, 3299377774, 0.76368254, 0.07752386, 0.46771327, -0.43820944, 0.90139914, 0.6172537, -0.1010313, 0
1636, 3299394441, 0.766942, 0.07932208, 0.46437165, -0.43574217, 1.0341449, 0.9404415, 1.9485426, 0
1639, 3299444442, 0.77435946, 0.08376953, 0.45748168, -0.42902738, 1.3094442, -0.1456345, 2.7572556, 0
1640, 3299461109, 0.7766124, 0.084837936, 0.45514312, -0.42722884, 1.9203703, -0.53642976, 0.33596992, 0
1641, 3299477776, 0.77764076, 0.08602957, 0.45494005, -0.4253324, -0.19359486, 1.123599, -0.85482025, 0
1643, 3299511110, 0.77991766, 0.0893892, 0.45382088, -0.42164993, -0.4992325, 0.30766174, -0.67963314, 0
1644, 3299527777, 0.78082883, 0.09125127, 0.453391, -0.42002422, 0.30968904, -1.7754679, 0.052309036, 0
1645, 3299544444, 0.78166384, 0.09279293, 0.45288447, -0.4186775, 0.8653939, -1.3738798, 0.15253353, 0
1647, 3299577778, 0.7831269, 0.09608982, 0.45211956, -0.41601825, 0.72956103, -0.77219236, 0.3125, 0
1648, 3299594445, 0.78362226, 0.097297825, 0.45164683, -0.41531733, -0.110467255, -0.5804437, -0.5177717, 0
1649, 3299611112, 0.78401625, 0.098200455, 0.4509523, -0.41511586, 0.2069055, -1.0006763, 0.86509514, 0
1651, 3299644446, 0.78498316, 0.09952827, 0.44947767, -0.4145718, -0.13379955, -1.4510598, -0.64714336, 0
1652, 3299661113, 0.7851435, 0.10005815, 0.44904596, -0.41460815, 0.49963796, -1.6397065, -0.33016205, 0
1653, 3299677780, 0.7853134, 0.100487776, 0.44862404, -0.4146392, -0.15932988, 0.47259405, 1.1847563, 0
1655, 3299711114, 0.78672945, 0.10105632, 0.4456979, -0.41497254, 0.07992667, -0.3944487, 0.2208786, 0
1656, 3299727781, 0.78750724, 0.10186055, 0.44397938, -0.41514245, -0.66433257, 0.11027386, 0.17898941, 0
1658, 3299761115, 0.7896495, 0.10495438, 0.44006768, -0.4144671, -0.85393685, -0.15395164, -1.0657883, 0
1659, 3299777782, 0.7901892, 0.10653142, 0.43922624, -0.41392857, -0.37253663, 0.016045995, 0.17505169, 0
1660, 3299794449, 0.7904347, 0.10839604, 0.4388514, -0.4133729, 0.17336895, 0.93002427, 0.053836823, 0
1662, 3299827783, 0.79092425, 0.11199078, 0.43720308, -0.41322464, -0.22165579, -0.28353098, 0.7199688, 0
1663, 3299844450, 0.7907884, 0.113381684, 0.43677887, -0.41355363, -0.29691797, -0.8983823, -1.281826, 0
1666, 3299894451, 0.78942776, 0.11739341, 0.4368737, -0.4149315, -0.24352698, -1.0991884, -1.4775276, 0
1667, 3299911118, 0.78848034, 0.11905391, 0.43796358, -0.41511092, -0.92281526, 0.15794817, -0.6982527, 0
1668, 3299927785, 0.7883851, 0.12044862, 0.43721092, -0.4156827, -1.2293547, -0.16635813, 1.6758394, 0
1670, 3299961119, 0.787646, 0.12285897, 0.43584082, -0.4178116, -1.2486136, -0.035701446, -0.33507252, 0
1671, 3299977786, 0.7869254, 0.12435466, 0.43590015, -0.4186642, -0.66753215, 0.21456663, -0.06574249, 0
1672, 3299994453, 0.7862378, 0.1255902, 0.43578345, -0.41970724, -1.7130094, -0.31211087, 1.0826378, 0
1674, 3300027787, 0.7843145, 0.1276533, 0.435865, -0.42258894, -0.99848604, 0.21051288, 0.839941, 0
1675, 3300044454, 0.7834915, 0.1285284, 0.43560943, -0.424111, -0.48363444, -0.63478416, -0.42003536, 0
1676, 3300061121, 0.78241533, 0.12973425, 0.435838, -0.42549363, -1.2814801, -0.15981473, -0.28219318, 0
1678, 3300094455, 0.78015774, 0.13229284, 0.43598604, -0.42868727, -0.98265326, -0.48652333, -0.035473824, 0
1681, 3300144456, 0.77592987, 0.13666466, 0.43833804, -0.43257314, -0.82790965, 0.44801798, 1.1865244, 0
1682, 3300161123, 0.77454597, 0.1378585, 0.438829, -0.434174, -0.30073735, -0.7488062, -0.6597595, 0
1683, 3300177790, 0.7724013, 0.13930644, 0.4408163, -0.43551734, -1.5485313, 0.5425589, 0.20832539, 0
1685, 3300211124, 0.76811665, 0.14170015, 0.44476175, -0.43830255, -0.38619193, -0.7747259, -0.49573326, 0
1686, 3300227791, 0.7659282, 0.1428267, 0.44676387, -0.4397282, -0.05019967, -0.9580603, -0.1506424, 0
1687, 3300244458, 0.7636458, 0.14344949, 0.4487103, -0.44150934, 0.06518353, -1.6470891, -1.2488289, 0
1689, 3300277792, 0.7589878, 0.14523667, 0.45348155, -0.44407484, -2.7246225, -0.1436287, 1.7324877, 0
1690, 3300294459, 0.7570325, 0.14518297, 0.45432347, -0.44656265, -1.4347037, -0.26812842, -0.10330963, 0
1691, 3300311126, 0.75594515, 0.14515708, 0.4541303, -0.4486049, 0.027150119, 0.19967753, 1.3830357, 0
1693, 3300344460, 0.7541205, 0.14509074, 0.4549727, -0.45083803, -0.5951495, -0.1148718, -0.42710114, 0
1695, 3300377794, 0.7528425, 0.14454427, 0.45456806, -0.45354956, 1.3430426, -0.016017105, -2.251408, 0
1697, 3300411128, 0.7530035, 0.14399435, 0.45280984, -0.455213, -0.60769665, -0.8273683, -0.25081158, 0
1698, 3300427795, 0.7519641, 0.14447398, 0.4540706, -0.45552352, -0.042356823, 0.4111118, -1.9412131, 0
1699, 3300444462, 0.75070393, 0.1458261, 0.45634136, -0.45490137, 1.0338142, 0.43616435, -1.4538927, 0
1701, 3300477796, 0.7492315, 0.14914353, 0.45974877, -0.4528175, -0.79253155, -0.67355394, 0.04550934, 0
1702, 3300494463, 0.74812084, 0.15048768, 0.4615398, -0.452387, 0.5656103, 0.23382026, 0.13615894, 0
