sep=,
DeviceTag:,Xsens_DOT_1,,,,,,,,,,,,,,,,,
FirmwareVersion:,3.0.0,,,,,,,,,,,,,,,,,
AppVersion:,2023.6.1,,,,,,,,,,,,,,,,,
SyncStatus:,Synced,,,,,,,,,,,,,,,,,
OutputRate:,60Hz,,,,,,,,,,,,,,,,,
FilterProfile:,General,,,,,,,,,,,,,,,,,
Measurement Mode:,Sensor fusion Mode - Extended (Quaternion),,,,,,,,,,,,,,,,,
StartTime:,2025-05-05 12:01:19.151 +0200,,,,,,,,,,,,,,,,,
 2025,,,,,,,,,,,,,,,,,,,

PacketCounter,SampleTimeFine,Quat_W,Quat_X,Quat_Y,Quat_Z,FreeAcc_X,FreeAcc_Y,FreeAcc_Z,Status
1, 3272160563, -0.76504165, 0.111600615, -0.24717796, -0.5841531, -0.16354409, -0.030845122, 0.3105049, 0
2, 3272177230, -0.7650696, 0.11176155, -0.24714127, -0.5841012, -0.15549073, -0.04926136, 0.26271152, 0
3, 3272193897, -0.76509273, 0.11188348, -0.24706069, -0.5840816, -0.15819769, -0.049693525, 0.27916908, 0
4, 3272210564, -0.7651298, 0.11199294, -0.24696487, -0.5840528, -0.1458727, -0.087023765, 0.3241768, 0
5, 3272227231, -0.76515484, 0.112124145, -0.24689928, -0.5840225, -0.14844757, -0.061176613, 0.39172173, 0
6, 3272243898, -0.7651887, 0.11226468, -0.24685371, -0.5839705, -0.15394567, -0.046197355, 0.32864285, 0
7, 3272260565, -0.76519465, 0.112380356, -0.24684584, -0.5839437, -0.18745385, -0.062571555, 0.29593372, 0
8, 3272277232, -0.7651889, 0.11247442, -0.24684682, -0.5839327, -0.17255059, -0.06729388, 0.36136913, 0
9, 3272293899, -0.765193, 0.11255269, -0.24683064, -0.5839189, -0.18221107, -0.052114338, 0.340024, 0
10, 3272310566, -0.765191, 0.112642124, -0.24684152, -0.58389974, -0.15687299, -0.08185581, 0.32702065, 0
11, 3272327233, -0.76517963, 0.11274201, -0.24686497, -0.5838856, -0.14321807, -0.077245854, 0.32297516, 0
12, 3272343900, -0.7651726, 0.11283247, -0.24685185, -0.58388287, -0.13299823, -0.076787874, 0.3049717, 0
13, 3272360567, -0.76518315, 0.11288047, -0.24680607, -0.583879, -0.1222932, -0.04085895, 0.31034374, 0
14, 3272377234, -0.765199, 0.1128954, -0.2467362, -0.5838848, -0.1449078, -0.059346434, 0.3382454, 0
15, 3272393901, -0.76519376, 0.112942114, -0.24672979, -0.58388555, -0.14718916, -0.07920048, 0.37432194, 0
16, 3272410568, -0.7651744, 0.11304685, -0.24677536, -0.58387136, -0.15028042, -0.048823386, 0.33173275, 0
17, 3272427235, -0.7651502, 0.11314607, -0.24683541, -0.5838585, -0.13920307, -0.033674687, 0.28636646, 0
18, 3272443902, -0.7651589, 0.113177195, -0.24681944, -0.58384764, -0.12142003, -0.020926848, 0.3219185, 0
19, 3272460569, -0.7651754, 0.11316172, -0.24672708, -0.583868, -0.0861763, -0.037210103, 0.31992817, 0
20, 3272477236, -0.765202, 0.113133565, -0.24662845, -0.58388025, -0.079545274, -0.03886041, 0.33217716, 0
21, 3272493903, -0.7652277, 0.11311088, -0.24653816, -0.5838892, -0.086579084, -0.03600358, 0.35825253, 0
22, 3272510570, -0.7652641, 0.11311643, -0.2464413, -0.5838814, -0.12050536, -0.010142571, 0.33300114, 0
23, 3272527237, -0.7652901, 0.113156065, -0.2463733, -0.58386827, -0.1437804, -0.005237579, 0.29806995, 0
24, 3272543904, -0.7653034, 0.1132236, -0.24631917, -0.58386064, -0.13456567, -7.3982787E-4, 0.32519817, 0
25, 3272560571, -0.7653239, 0.11325084, -0.24622914, -0.58386636, -0.10815662, -0.023745792, 0.33085823, 0
26, 3272577238, -0.7653698, 0.11327195, -0.24612226, -0.5838473, -0.08403439, -0.039566264, 0.3472967, 0
27, 3272593905, -0.7654327, 0.11328158, -0.24597104, -0.5838266, -0.11216611, -0.08968558, 0.3614006, 0
28, 3272610572, -0.7654865, 0.113301024, -0.24587005, -0.58379495, -0.11059075, -0.062417112, 0.38438034, 0
29, 3272627239, -0.76554, 0.113344446, -0.2457797, -0.58375424, -0.12593234, -0.051245708, 0.31664085, 0
30, 3272643906, -0.7655856, 0.113402486, -0.24571542, -0.5837103, -0.1320684, -0.02950518, 0.3139181, 0
31, 3272660573, -0.765627, 0.11342016, -0.24561015, -0.5836968, -0.1440258, -0.05207349, 0.28388023, 0
32, 3272677240, -0.76566446, 0.113415845, -0.24547723, -0.5837044, -0.14217857, -0.047175203, 0.29125023, 0
33, 3272693907, -0.765716, 0.11336858, -0.24528174, -0.5837282, -0.120742105, -0.063676156, 0.33994007, 0
34, 3272710574, -0.7657707, 0.11331363, -0.24508245, -0.5837509, -0.14016208, -0.039898403, 0.3469181, 0
35, 3272727241, -0.7658111, 0.11330582, -0.2449493, -0.58375525, -0.14154372, -0.031049302, 0.38090515, 0
36, 3272743908, -0.7658333, 0.11334293, -0.24491125, -0.58373487, -0.16221388, -0.04432921, 0.3746996, 0
37, 3272760575, -0.7658409, 0.11341807, -0.2449353, -0.58370024, -0.17333134, -0.06602863, 0.35501862, 0
38, 3272777242, -0.76584727, 0.11350787, -0.24499525, -0.5836494, -0.15216334, -0.10473113, 0.31026554, 0
39, 3272793909, -0.7658463, 0.11359785, -0.2450528, -0.58360887, -0.15367533, -0.14775078, 0.28724575, 0
40, 3272810576, -0.7658538, 0.1136699, -0.24510536, -0.5835631, -0.15965484, -0.17844112, 0.31378078, 0
41, 3272827243, -0.76585877, 0.11373846, -0.24513017, -0.5835326, -0.18034787, -0.1948729, 0.35352516, 0
42, 3272843910, -0.7658849, 0.113783605, -0.24510902, -0.58349866, -0.19487253, -0.17748934, 0.3529892, 0
43, 3272860577, -0.7659041, 0.11379195, -0.24506044, -0.583492, -0.18928516, -0.21590413, 0.2646742, 0
44, 3272877244, -0.7659001, 0.11378464, -0.24503268, -0.5835104, -0.20013133, -0.19540553, 0.32788467, 0
45, 3272893911, -0.76589453, 0.11376946, -0.24499956, -0.5835345, -0.22221912, -0.19872828, 0.3603611, 0
46, 3272910578, -0.7658815, 0.11373917, -0.24498264, -0.5835646, -0.21522163, -0.18312126, 0.36693764, 0
49, 3272960579, -0.7658139, 0.11364478, -0.24497327, -0.5836756, -0.17101766, -0.20607448, 0.37997437, 0
50, 3272977246, -0.7657907, 0.11363918, -0.24497944, -0.5837047, -0.15051648, -0.1809305, 0.3245716, 0
51, 3272993913, -0.7657759, 0.11361633, -0.24494222, -0.58374405, -0.14135401, -0.16499235, 0.30265617, 0
53, 3273027247, -0.76577026, 0.11341797, -0.24470834, -0.5838882, -0.1447139, -0.17711742, 0.33116722, 0
54, 3273043914, -0.7657632, 0.11334589, -0.24458212, -0.58396435, -0.15338671, -0.15363415, 0.37799644, 0
55, 3273060581, -0.765751, 0.11332768, -0.24449107, -0.58402205, -0.19528049, -0.124780804, 0.38885784, 0
57, 3273093915, -0.7657058, 0.11342828, -0.24442472, -0.58408946, -0.09987631, -0.15319109, 0.3731432, 0
61, 3273160583, -0.7657179, 0.113626815, -0.24395332, -0.5842321, -0.15732685, -0.104282655, 0.34921074, 0
62, 3273177250, -0.76572555, 0.113728106, -0.24380274, -0.584265, -0.2020759, -0.10670777, 0.34735966, 0
64, 3273210584, -0.7657232, 0.11396068, -0.2435427, -0.5843313, -0.09210804, -0.1227879, 0.3347187, 0
65, 3273227251, -0.7657097, 0.11406684, -0.2434085, -0.58438426, -0.09400838, -0.12633091, 0.31992817, 0
66, 3273243918, -0.7656998, 0.11412577, -0.24320585, -0.58447003, -0.13406515, -0.06390844, 0.2684574, 0
68, 3273277252, -0.76566863, 0.11419348, -0.24273299, -0.58469415, -0.13843282, -0.056899134, 0.35167408, 0
69, 3273293919, -0.7656338, 0.11428775, -0.24255389, -0.5847958, -0.107723325, -0.031774603, 0.355052, 0
70, 3273310586, -0.7656048, 0.11437709, -0.24242735, -0.5848689, -0.06802502, 0.023559382, 0.4227743, 0
72, 3273343920, -0.76557153, 0.11444691, -0.24212836, -0.58502257, -0.09088706, -0.026718069, 0.24982548, 0
73, 3273360587, -0.7655473, 0.1144726, -0.24198651, -0.5851078, -0.114093766, -0.0077672987, 0.31340218, 0
74, 3273377254, -0.7655281, 0.11453742, -0.2418663, -0.5851701, -0.122236416, 0.02918431, 0.40249348, 0
76, 3273410588, -0.76545554, 0.114737004, -0.24175647, -0.58527106, -0.102445684, -0.053132493, 0.29332733, 0
78, 3273443922, -0.7653867, 0.11475088, -0.24156167, -0.58543897, -0.11831947, -0.06084987, 0.3003111, 0
80, 3273477256, -0.76532704, 0.11464371, -0.24136347, -0.58561975, -0.13953838, -0.0092187915, 0.38926792, 0
81, 3273493923, -0.76528513, 0.11461969, -0.24136549, -0.5856782, -0.11247169, -0.0068071987, 0.4012308, 0
82, 3273510590, -0.76523685, 0.114587694, -0.24139504, -0.5857354, -0.109442934, 0.015967207, 0.33678436, 0
85, 3273560591, -0.76505613, 0.11438045, -0.24142851, -0.5859981, -0.08841579, 0.018365389, 0.3002634, 0
86, 3273577258, -0.7649853, 0.114294566, -0.24140698, -0.5861161, -0.10913578, 0.044827983, 0.35460854, 0
88, 3273610592, -0.7648672, 0.114200726, -0.24138756, -0.58629656, -0.035703804, 0.025748022, 0.35642242, 0
90, 3273643926, -0.76473784, 0.11415248, -0.24138458, -0.58647597, -0.09362429, 0.026921017, 0.27456188, 0
92, 3273677260, -0.7646677, 0.11398323, -0.24130231, -0.5866342, -0.08119977, 0.01518804, 0.3029728, 0
93, 3273693927, -0.76461005, 0.11391033, -0.24129261, -0.5867274, -0.032030802, 0.010425427, 0.37395477, 0
95, 3273727261, -0.76451886, 0.1138259, -0.24131861, -0.58685195, -0.08092949, 0.007838823, 0.37634754, 0
97, 3273760595, -0.7645026, 0.11378718, -0.24121392, -0.5869238, -0.015340323, -0.056295536, 0.21825981, 0
99, 3273793929, -0.7644807, 0.11368762, -0.24097995, -0.58706754, -0.0981663, -0.014777335, 0.41438484, 0
100, 3273810596, -0.7644951, 0.11364256, -0.24088228, -0.58709764, -0.1147354, 0.0149904555, 0.46926212, 0
101, 3273827263, -0.764501, 0.11363643, -0.24085537, -0.5871021, -0.10538771, -0.03868104, 0.34768772, 0
103, 3273860597, -0.76445746, 0.113688014, -0.24082191, -0.5871626, -0.07969472, -0.0320493, 0.19940758, 0
104, 3273877264, -0.76445997, 0.11368984, -0.2407456, -0.5871902, -0.052547447, -0.04120316, 0.30484676, 0
107, 3273927265, -0.7644333, 0.11366932, -0.24044013, -0.58735394, -0.10246196, 0.009410789, 0.4073696, 0
108, 3273943932, -0.7644349, 0.11375765, -0.24043182, -0.58733827, -0.13535582, -0.003464786, 0.42235088, 0
109, 3273960599, -0.76446617, 0.11388075, -0.24041435, -0.58728075, -0.09787054, -0.052510682, 0.3190546, 0
111, 3273993933, -0.7644766, 0.114104524, -0.24031815, -0.58726335, -0.07431627, -0.12970357, 0.27440453, 0
112, 3274010600, -0.76449895, 0.11418089, -0.24022956, -0.5872558, -0.1450469, -0.09502134, 0.41273785, 0
113, 3274027267, -0.7645395, 0.114259094, -0.240145, -0.5872221, -0.21216735, -0.0749872, 0.43248558, 0
115, 3274060601, -0.76459056, 0.11443776, -0.24007133, -0.5871509, -0.1283198, -0.14706795, 0.2804556, 0
116, 3274077268, -0.76458037, 0.11450406, -0.24005544, -0.5871577, -0.1331807, -0.12679768, 0.29825592, 0
118, 3274110602, -0.76459116, 0.114577025, -0.24000987, -0.5871482, -0.11238514, -0.1321849, 0.30354404, 0
119, 3274127269, -0.7645814, 0.11458199, -0.23998104, -0.58717155, -0.13100855, -0.11209197, 0.28926182, 0
122, 3274177270, -0.7645452, 0.11455404, -0.23994803, -0.5872378, -0.08035435, -0.07213959, 0.2962513, 0
123, 3274193937, -0.7645141, 0.11456078, -0.23995179, -0.58727527, -0.05924173, -0.07656023, 0.26793003, 0
124, 3274210604, -0.76448286, 0.11456105, -0.23995623, -0.58731407, -0.04670052, -0.009936604, 0.36780643, 0
126, 3274243938, -0.764476, 0.11454691, -0.23994213, -0.58733165, -0.08857494, -0.019552186, 0.313632, 0
127, 3274260605, -0.7644521, 0.11455321, -0.2399479, -0.5873591, -0.07533255, -0.02504474, 0.30745125, 0
128, 3274277272, -0.7644302, 0.11458007, -0.23995969, -0.58737755, -0.058712173, 0.009747065, 0.3383808, 0
130, 3274310606, -0.7644398, 0.11470197, -0.23991889, -0.5873579, 0.02127103, -0.10320677, 0.3116436, 0
131, 3274327273, -0.7644435, 0.11474499, -0.2398686, -0.58736527, 0.007938566, -0.06318108, 0.26176643, 0
132, 3274343940, -0.76444286, 0.11476647, -0.23974314, -0.58741313, -0.13308816, -0.01578929, 0.26370144, 0
134, 3274377274, -0.76446193, 0.11483781, -0.23940378, -0.58751273, -0.11763251, -0.081694655, 0.4026518, 0
136, 3274410608, -0.7644544, 0.11486745, -0.23915212, -0.5876191, -0.15914357, -0.074285254, 0.35581017, 0
138, 3274443942, -0.76444405, 0.11473365, -0.23890166, -0.5877607, -0.11903304, 0.014135183, 0.27282524, 0
139, 3274460609, -0.76440644, 0.11457144, -0.23874867, -0.5879036, -0.04859144, 0.022947405, 0.27934933, 0
140, 3274477276, -0.76435256, 0.11438113, -0.23862799, -0.5880596, -0.021777762, 0.09253012, 0.3315153, 0
142, 3274510610, -0.7642562, 0.11409403, -0.2385414, -0.58827555, -0.11288096, 0.15584564, 0.454134, 0
143, 3274527277, -0.7642159, 0.11402343, -0.23853642, -0.5883437, -0.06142987, 0.10661858, 0.2616148, 0
145, 3274560611, -0.76413435, 0.11374204, -0.2385615, -0.5884939, 0.11166925, 0.15751114, 0.27174187, 0
146, 3274577278, -0.7640924, 0.11353926, -0.23856339, -0.58858687, 0.04331895, 0.19058257, 0.3572693, 0
147, 3274593945, -0.7640549, 0.11332719, -0.23855092, -0.5886814, -0.07588311, 0.19510591, 0.3407898, 0
149, 3274627279, -0.763978, 0.11296986, -0.23861207, -0.58882505, -0.0409394, 0.15575467, 0.28280926, 0
150, 3274643946, -0.7639659, 0.11280167, -0.23862334, -0.5888684, 0.016311402, 0.16422087, 0.31206322, 0
151, 3274660613, -0.7639723, 0.112688154, -0.23861966, -0.58888334, 0.118700966, 0.122199565, 0.430871, 0
153, 3274693947, -0.76401085, 0.112601414, -0.23877476, -0.58878696, -0.061578155, 0.06428546, 0.43909264, 0
154, 3274710614, -0.76405644, 0.11259688, -0.23889111, -0.5886816, -0.2442025, 0.031328805, 0.31567955, 0
155, 3274727281, -0.7640875, 0.112595215, -0.23901144, -0.5885927, -0.3045783, -0.034085054, 0.2872095, 0
157, 3274760615, -0.764136, 0.1125667, -0.2391729, -0.5884695, 0.010068225, -0.21601008, 0.39220428, 0
158, 3274777282, -0.7641517, 0.11257668, -0.23925997, -0.588412, 0.047999896, -0.2982001, 0.33869934, 0
159, 3274793949, -0.7641637, 0.11259763, -0.23933364, -0.5883624, -0.10786756, -0.2075149, 0.27510834, 0
161, 3274827283, -0.7641982, 0.11248544, -0.23939629, -0.5883136, -0.3174538, -0.12793088, 0.36249447, 0
165, 3274893951, -0.76404756, 0.11190711, -0.24013099, -0.58832014, -0.26059914, -0.07915544, 0.2771206, 0
166, 3274910618, -0.7639747, 0.11166993, -0.24035227, -0.58836955, -0.19360283, -0.12055652, 0.2193985, 0
167, 3274927285, -0.76389396, 0.11132172, -0.24053732, -0.58846474, -0.10263772, -0.15200278, 0.06389427, 0
169, 3274960619, -0.763705, 0.11051195, -0.2409307, -0.5887016, -0.04119595, 0.039387565, 0.48916245, 0
170, 3274977286, -0.7636054, 0.110219054, -0.24124722, -0.58875614, -0.10749492, 0.053003974, 0.6306486, 0
172, 3275010620, -0.7634268, 0.10978153, -0.24200587, -0.58875823, -0.09320731, -0.04394678, 0.2693653, 0
173, 3275027287, -0.76332784, 0.10952459, -0.24235389, -0.588791, -0.07515461, -0.06792201, 0.25560665, 0
174, 3275043954, -0.7632385, 0.1092643, -0.24259879, -0.58885425, -0.0732048, -0.04297466, 0.28463173, 0
177, 3275093955, -0.7630634, 0.108762145, -0.24313353, -0.5889536, -0.038761493, -0.07090457, 0.37667847, 0
178, 3275110622, -0.763044, 0.10864924, -0.24330994, -0.5889267, -0.14272563, -0.008013386, 0.27634335, 0
181, 3275160623, -0.76298624, 0.1085085, -0.24380676, -0.5888221, 0.04177841, -0.19793363, 0.34922218, 0
182, 3275177290, -0.76298356, 0.10854406, -0.24390814, -0.588777, 0.016386867, -0.1909151, 0.277421, 0
184, 3275210624, -0.7629585, 0.108452395, -0.24389334, -0.5888324, -0.18751794, -0.033714917, 0.3252306, 0
185, 3275227291, -0.762945, 0.108407415, -0.24385086, -0.58887583, -0.19934851, 0.001147739, 0.41660595, 0
186, 3275243958, -0.7629482, 0.10839391, -0.24382675, -0.5888842, -0.0532471, 0.018576385, 0.37566566, 0
188, 3275277292, -0.7630212, 0.1085424, -0.24355865, -0.58887327, 0.2746597, -0.09239265, 0.3344984, 0
189, 3275293959, -0.76311904, 0.108721875, -0.24328431, -0.58882684, 0.19094793, -0.042216904, 0.39139652, 0
190, 3275310626, -0.7632644, 0.1089955, -0.24294093, -0.5887296, 0.006204007, 0.0074996417, 0.42990208, 0
192, 3275343960, -0.76359147, 0.10973857, -0.24211761, -0.5885066, -0.09792745, -0.031713136, 0.3399849, 0
193, 3275360627, -0.7637297, 0.11015575, -0.24167025, -0.58843315, -0.010804574, -0.13934793, 0.28655243, 0
196, 3275410628, -0.7642455, 0.11139618, -0.24017635, -0.5881414, -0.18259788, -0.0851571, 0.3290615, 0
197, 3275427295, -0.7644185, 0.11176476, -0.2396252, -0.5880716, -0.20053165, -0.08587703, 0.30532074, 0
199, 3275460629, -0.764673, 0.11245328, -0.23869166, -0.5879889, -0.11362528, -0.08420906, 0.35655308, 0
200, 3275477296, -0.7647077, 0.11276586, -0.2384164, -0.5879955, -0.20802234, -0.08476271, 0.43484402, 0
201, 3275493963, -0.7647099, 0.11308554, -0.23827711, -0.58798766, -0.26436666, -0.12584315, 0.44166183, 0
203, 3275527297, -0.764762, 0.113571085, -0.23808184, -0.58790576, -0.10259128, -0.2238204, 0.18583584, 0
204, 3275543964, -0.76480883, 0.113692075, -0.23794144, -0.587878, -0.029379005, -0.19694285, 0.23892021, 0
205, 3275560631, -0.76485634, 0.113769844, -0.23775825, -0.58787537, -0.1310779, -0.09039976, 0.36017036, 0
207, 3275593965, -0.76494986, 0.11398798, -0.23737492, -0.58786637, -0.13934256, -0.024270825, 0.40566635, 0
208, 3275610632, -0.76500505, 0.114124045, -0.2371759, -0.5878485, -0.05637198, -0.05228175, 0.26556778, 0
211, 3275660633, -0.7652332, 0.11429897, -0.23646893, -0.5878023, -0.08556445, 0.14196627, 0.44909, 0
212, 3275677300, -0.76530594, 0.114326105, -0.23626451, -0.58778447, -0.13516559, 0.12697536, 0.4022751, 0
213, 3275693967, -0.76535714, 0.11436553, -0.23613025, -0.58776397, -0.06346799, 0.07973523, 0.36417484, 0
215, 3275727301, -0.7653703, 0.114439696, -0.23610316, -0.5877436, -0.1203921, 0.04900935, 0.3235941, 0
216, 3275743968, -0.7653811, 0.11439645, -0.23619322, -0.58770156, -0.17566791, 0.09488863, 0.35819912, 0
217, 3275760635, -0.7653639, 0.11429441, -0.23629408, -0.58770335, -0.17973734, 0.07220765, 0.13656521, 0
219, 3275793969, -0.7652494, 0.113948494, -0.23655638, -0.58781433, -0.019031333, 1.3936033E-4, 0.41884995, 0
220, 3275810636, -0.7651839, 0.11379062, -0.23670807, -0.58786875, 0.026109764, -0.080393925, 0.4498806, 0
221, 3275827303, -0.7651323, 0.113632455, -0.23690395, -0.5878877, -0.01387947, -0.062699184, 0.443923, 0
223, 3275860637, -0.7650455, 0.113247015, -0.23741941, -0.58786714, -0.24943593, 0.0024683652, 0.20959568, 0
224, 3275877304, -0.7649884, 0.11298747, -0.23764247, -0.5879012, -0.20963542, -0.052414123, 0.16531181, 0
226, 3275910638, -0.7648611, 0.11242859, -0.2379761, -0.58803916, 0.06942758, -0.08726046, 0.29622173, 0
227, 3275927305, -0.7647898, 0.112212285, -0.23812418, -0.5881132, 0.108169064, -0.079122245, 0.4145527, 0
228, 3275943972, -0.76471573, 0.112053454, -0.23825514, -0.58818656, 0.0017885506, -0.0668468, 0.46374512, 0
230, 3275977306, -0.76462585, 0.111898236, -0.23855452, -0.5882119, -0.10387189, -0.087601766, 0.41120243, 0
231, 3275993973, -0.76460564, 0.111920774, -0.2386755, -0.5881846, -0.017253105, -0.17778221, 0.34962845, 0
232, 3276010640, -0.7646091, 0.111928865, -0.23872958, -0.58815664, 0.014133045, -0.23484221, 0.2225399, 0
234, 3276043974, -0.7646225, 0.11189543, -0.23861997, -0.58819026, -0.18657331, -0.088048406, 0.26707077, 0
235, 3276060641, -0.7646456, 0.111838914, -0.238412, -0.58825517, -0.15659606, -0.16155036, 0.1981287, 0
238, 3276110642, -0.7647754, 0.11188926, -0.23827533, -0.5881321, -0.17957097, -0.061875258, 0.5768261, 0
239, 3276127309, -0.764813, 0.111976944, -0.23837523, -0.5880263, -0.21406232, -0.11950534, 0.4323387, 0
240, 3276143976, -0.76484543, 0.11210807, -0.2384898, -0.58791244, 0.020545352, -0.2680277, 0.23398781, 0
242, 3276177310, -0.7648277, 0.11228841, -0.23867144, -0.5878273, -0.1636482, -0.3629928, 0.03819561, 0
243, 3276193977, -0.7648566, 0.112339415, -0.23871875, -0.5877608, -0.42010814, -0.114548266, 0.44629097, 0
244, 3276210644, -0.7648867, 0.11234397, -0.23870854, -0.58772486, -0.3423091, -0.037914168, 0.6119909, 0
246, 3276243978, -0.76484394, 0.11220482, -0.23882523, -0.5877597, -0.021794712, -0.22093076, 0.26652336, 0
247, 3276260645, -0.7648425, 0.11210203, -0.23887841, -0.5877596, -0.13972348, -0.12093431, 0.2915821, 0
248, 3276277312, -0.7648121, 0.112041235, -0.23881862, -0.5878352, -0.17040507, -0.061817482, 0.32717228, 0
250, 3276310646, -0.7648262, 0.11185378, -0.2385711, -0.5879531, 0.14081801, -0.08258938, 0.3419218, 0
253, 3276360647, -0.7648276, 0.11143591, -0.2382743, -0.58815074, -0.18094815, 0.21324745, 0.3132019, 0
254, 3276377314, -0.76476693, 0.111275956, -0.23826648, -0.5882632, -0.10139475, 0.21972609, 0.31327343, 0
255, 3276393981, -0.7646728, 0.11113715, -0.23830152, -0.5883976, -0.006165996, 0.19847023, 0.3236456, 0
257, 3276427315, -0.7645501, 0.11093251, -0.23837528, -0.58856577, 0.14209415, 0.13028626, 0.4261427, 0
258, 3276443982, -0.76451313, 0.11082123, -0.23830706, -0.5886624, 0.13911699, 0.061538145, 0.2676897, 0
259, 3276460649, -0.7644386, 0.110763535, -0.23821041, -0.58880913, 0.17215948, 0.03755152, 0.24781132, 0
261, 3276493983, -0.76434386, 0.11077586, -0.23783936, -0.58907974, 0.0023898005, 0.0787378, 0.3248539, 0
262, 3276510650, -0.76428634, 0.110904455, -0.2376063, -0.5892243, -0.06968832, 0.085157655, 0.4146948, 0
263, 3276527317, -0.7642449, 0.11106384, -0.23737979, -0.5893391, -0.04745423, -0.01723743, 0.37062263, 0
265, 3276560651, -0.7641756, 0.11130484, -0.23681733, -0.5896098, 0.024571072, -0.15555769, 0.27521133, 0
267, 3276593985, -0.76415396, 0.11145639, -0.23608994, -0.58990085, 0.035546552, -0.18772472, 0.50979805, 0
269, 3276627319, -0.7641588, 0.11182397, -0.23555487, -0.59003896, -0.0052406243, -0.076814584, 0.42418194, 0
270, 3276643986, -0.7642123, 0.112125844, -0.23525639, -0.5900314, -0.06329934, -0.21420722, 0.31472874, 0
271, 3276660653, -0.7642907, 0.112427294, -0.23493126, -0.59000206, 0.0333735, -0.17473394, 0.32831764, 0
273, 3276693987, -0.7644583, 0.11311432, -0.23401944, -0.59001595, -0.16886143, -0.22528183, 0.25910664, 0
274, 3276710654, -0.76459587, 0.11341876, -0.23345587, -0.5900026, -0.16103818, 0.023909181, 0.3566103, 0
275, 3276727321, -0.7647564, 0.11373579, -0.23289147, -0.58995664, -0.046005044, 0.108219385, 0.33125114, 0
277, 3276760655, -0.7649839, 0.114431605, -0.23196353, -0.5898927, -0.042838257, 0.09141389, 0.46676445, 0
278, 3276777322, -0.76511747, 0.11484963, -0.2315479, -0.58980125, -0.13825883, 0.096363254, 0.42492008, 0
280, 3276810656, -0.76534814, 0.11574426, -0.23078673, -0.5896256, 0.09182947, -0.07435505, 0.37502766, 0
282, 3276843990, -0.765536, 0.11660688, -0.23006585, -0.5894936, -0.017633244, 0.1936063, 0.35965633, 0
284, 3276877324, -0.7658748, 0.11732888, -0.22932214, -0.5891998, -0.19467618, 0.078527145, 0.61968136, 0
285, 3276893991, -0.76596963, 0.11777955, -0.22923803, -0.5890195, -0.11524361, -0.01698609, 0.122353554, 0
286, 3276910658, -0.76600856, 0.11809252, -0.22921866, -0.5889137, 0.11595392, -0.15207084, 0.37781715, 0
288, 3276943992, -0.7662243, 0.11865103, -0.2288857, -0.58864987, -0.11070221, -0.27910638, 0.2206459, 0
289, 3276960659, -0.7662376, 0.11884421, -0.22883388, -0.5886138, -0.07753346, -0.3171146, 0.3009386, 0
290, 3276977326, -0.7661433, 0.11900939, -0.22884731, -0.5886979, -0.27758732, -0.16859476, 0.4652233, 0
292, 3277010660, -0.76610464, 0.119377434, -0.22904998, -0.5885949, -0.12762985, -0.14877324, 0.46315002, 0
293, 3277027327, -0.7660853, 0.11957967, -0.22928107, -0.5884892, 0.009896497, -0.2626284, 0.4073801, 0
294, 3277043994, -0.7660264, 0.11977278, -0.22960337, -0.588401, -0.12231135, -0.22379361, 0.2880869, 0
296, 3277077328, -0.76606715, 0.12013637, -0.2299807, -0.5881261, -0.11756997, -0.17012465, 0.21583271, 0
297, 3277093995, -0.7660931, 0.12025832, -0.23002425, -0.5880505, -0.004249051, -0.19178836, 0.16441345, 0
298, 3277110662, -0.76606494, 0.12034957, -0.23005798, -0.5880553, -0.1013294, -0.02508972, 0.45835495, 0
300, 3277143996, -0.7661593, 0.1205347, -0.23000745, -0.5879144, -0.09885237, -0.07888499, 0.36400414, 0
301, 3277160663, -0.7661574, 0.120602116, -0.23011132, -0.5878622, 0.08478131, -0.19234458, 0.3009796, 0
302, 3277177330, -0.76611465, 0.120656416, -0.2301846, -0.58787805, -0.043676347, -0.08760087, 0.22649097, 0
304, 3277210664, -0.766162, 0.12071934, -0.23011869, -0.58782935, -0.04149423, 0.015783144, 0.3356123, 0
305, 3277227331, -0.76617944, 0.1207565, -0.23007077, -0.58781755, 0.013018708, -0.023687623, 0.352314, 0
307, 3277260665, -0.7661296, 0.120891824, -0.2301266, -0.5878329, -0.085785, 0.011673747, 0.39718342, 0
309, 3277293999, -0.7660583, 0.12109253, -0.23046866, -0.58775043, -0.011461269, -0.04684988, 0.28318977, 0
311, 3277327333, -0.7659283, 0.121086694, -0.23093298, -0.5877388, -0.17700312, 0.29191715, 0.25003338, 0
312, 3277344000, -0.7660986, 0.12077323, -0.23029745, -0.58783084, 0.21447574, 0.22994281, -0.6120281, 0
313, 3277360667, -0.76606494, 0.12060135, -0.23051241, -0.5878258, -0.06944027, 0.28062868, 1.0967913, 0
315, 3277394001, -0.76609427, 0.12023163, -0.2307049, -0.5877878, -0.50683993, -0.06870872, -0.080280304, 0
316, 3277410668, -0.76606375, 0.12003465, -0.23093922, -0.5877759, 0.06919587, -0.36434093, 0.38893318, 0
317, 3277427335, -0.7659944, 0.119823486, -0.23121935, -0.587799, 0.25911152, -0.56597906, 0.25323582, 0
319, 3277460669, -0.7659279, 0.119792536, -0.23201257, -0.5875795, -0.36927938, -0.16934331, 0.34058, 0
320, 3277477336, -0.7659034, 0.119845554, -0.23236774, -0.58746016, -0.22485222, -0.24499686, 0.3106861, 0
321, 3277494003, -0.7658227, 0.11983766, -0.23263577, -0.5874611, -0.0467934, -0.38253298, 0.3174429, 0
324, 3277544004, -0.7656342, 0.11990529, -0.23326258, -0.5874443, -0.20038977, -0.30766848, 0.46385002, 0
325, 3277560671, -0.7656216, 0.11996986, -0.23333283, -0.5874196, -0.21744122, -0.22346446, 0.39793587, 0
327, 3277594005, -0.76561356, 0.1200174, -0.23328072, -0.5874411, 0.10306413, -0.3579688, 0.24572945, 0
328, 3277610672, -0.7656261, 0.12000981, -0.23307455, -0.5875083, 0.054279312, -0.121606246, 0.36650944, 0
329, 3277627339, -0.7656412, 0.12002689, -0.23279226, -0.5875968, -0.06362999, 0.04883579, 0.402174, 0
331, 3277660673, -0.76571393, 0.12017782, -0.23227362, -0.58767664, 0.009679131, 0.12277779, 0.44288254, 0
332, 3277677340, -0.7657329, 0.1203108, -0.23210745, -0.58769023, -0.0428792, 0.11512538, 0.39108944, 0
333, 3277694007, -0.7657393, 0.12046122, -0.23202795, -0.5876826, -0.023514694, 0.13069847, 0.30156326, 0
335, 3277727341, -0.76572895, 0.12068488, -0.23187956, -0.5877086, 0.18403026, 0.21329819, 0.23838711, 0
336, 3277744008, -0.76575017, 0.12073684, -0.23173966, -0.58772546, 0.13239214, 0.25342435, 0.30999184, 0
339, 3277794009, -0.7658628, 0.1208797, -0.23117703, -0.58777094, 0.0013172876, 0.23355824, 0.36496735, 0
340, 3277810676, -0.7658626, 0.12092915, -0.23109996, -0.58779144, 0.032529727, 0.22131392, 0.4125862, 0
342, 3277844010, -0.7658245, 0.12100932, -0.23107834, -0.587833, 0.09352667, 0.22227918, 0.2962036, 0
343, 3277860677, -0.7658279, 0.12098378, -0.23107046, -0.58783686, 0.045323398, 0.23410586, 0.24432659, 0
344, 3277877344, -0.7658324, 0.12093416, -0.23103862, -0.5878538, 0.0057183416, 0.15315516, 0.30959034, 0
346, 3277910678, -0.76576835, 0.12082681, -0.23110524, -0.5879332, -0.05294502, 0.109378524, 0.41170788, 0
347, 3277927345, -0.7657052, 0.12077172, -0.23127821, -0.58795863, -0.062515765, 0.1025597, 0.34585, 0
348, 3277944012, -0.76566976, 0.12068783, -0.23144555, -0.58795625, -0.07248693, 0.16040055, 0.35173225, 0
350, 3277977346, -0.76560706, 0.12044245, -0.23165224, -0.58800685, 0.01830198, -0.012338307, 0.30159092, 0
351, 3277994013, -0.7655594, 0.12024729, -0.23176146, -0.58806586, 0.03236152, -0.022075703, 0.3425188, 0
354, 3278044014, -0.76544845, 0.11967248, -0.23220739, -0.5881515, -0.08738718, 0.018229159, 0.35611916, 0
356, 3278077348, -0.76540756, 0.11922294, -0.23241913, -0.5882124, 0.0046716584, -0.046034057, 0.20527554, 0
358, 3278110682, -0.76542056, 0.11874789, -0.232352, -0.5883182, -0.019208815, -0.023132585, 0.36054134, 0
359, 3278127349, -0.76543474, 0.118556336, -0.23232798, -0.5883478, 0.09462631, 9.6591125E-4, 0.478405, 0
361, 3278160683, -0.76541495, 0.11837329, -0.23247968, -0.58835036, 0.06555863, 0.059754066, 0.40796947, 0
362, 3278177350, -0.7655009, 0.11828718, -0.2325731, -0.5882189, 0.03625031, 0.016169598, 0.33798695, 0
363, 3278194017, -0.7654585, 0.11826389, -0.23263517, -0.5882542, 0.04606855, -0.0522561, 0.26811886, 0
365, 3278227351, -0.76554143, 0.118106514, -0.23264559, -0.58817375, -0.05953674, 0.07059098, 0.37927723, 0
366, 3278244018, -0.7655828, 0.11803161, -0.23259088, -0.5881566, -0.035982754, 0.01825779, 0.3707323, 0
367, 3278260685, -0.765596, 0.11796382, -0.23256621, -0.5881628, -0.0043733944, -0.052905347, 0.37079048, 0
369, 3278294019, -0.7655321, 0.11789197, -0.23258378, -0.5882535, -0.10929719, -0.05680403, 0.3194294, 0
370, 3278310686, -0.7655275, 0.1178565, -0.23257032, -0.58827186, -0.06689713, -0.10302092, 0.26080036, 0
371, 3278327353, -0.7655725, 0.11777707, -0.23253977, -0.58824134, -0.050272044, -0.12960711, 0.30957127, 0
373, 3278360687, -0.76551545, 0.11767246, -0.23236775, -0.5884045, -0.06698855, -0.011828976, 0.38549995, 0
374, 3278377354, -0.7655521, 0.1175984, -0.232287, -0.5884033, -0.020416861, 0.030500354, 0.37622738, 0
375, 3278394021, -0.76556724, 0.117513366, -0.23228875, -0.58839995, -0.034906242, 0.07432175, 0.3522501, 0
377, 3278427355, -0.76546144, 0.11740038, -0.23237658, -0.5885255, -0.08769137, 0.04032062, 0.35620022, 0
378, 3278444022, -0.7654378, 0.117351174, -0.23245542, -0.58853513, -0.0033572344, -0.013436258, 0.31063747, 0
379, 3278460689, -0.7655008, 0.11725693, -0.23254906, -0.58843493, 0.026410667, -0.048766952, 0.31351662, 0
382, 3278510690, -0.76549035, 0.11708473, -0.23273176, -0.5884106, -0.11672774, -0.014903062, 0.39512157, 0
383, 3278527357, -0.7654899, 0.11706439, -0.23279911, -0.5883886, -0.052670073, -0.10666496, 0.3468399, 0
385, 3278560691, -0.7655557, 0.116989836, -0.23299691, -0.5882394, -0.054374862, -0.15030475, 0.3196268, 0
386, 3278577358, -0.76557726, 0.11696688, -0.23307511, -0.58818483, -0.114723735, -0.12216436, 0.3361187, 0
388, 3278610692, -0.7655397, 0.11696527, -0.23315634, -0.58820194, -0.072471045, -0.13892247, 0.35979176, 0
389, 3278627359, -0.76560783, 0.11693835, -0.23317817, -0.58810985, 0.022060059, -0.12029557, 0.35943222, 0
390, 3278644026, -0.7656338, 0.11696575, -0.23316722, -0.5880749, 0.049030546, -0.10544306, 0.33023357, 0
392, 3278677360, -0.76582736, 0.11707924, -0.23299791, -0.58786744, -0.09202994, -0.07267065, 0.3553505, 0
393, 3278694027, -0.7658795, 0.1171685, -0.23288006, -0.5878285, -0.13142556, -0.05772982, 0.3130703, 0
394, 3278710694, -0.76597303, 0.11726445, -0.23272447, -0.5877491, -0.1601827, -0.06515721, 0.34580708, 0
397, 3278760695, -0.7662502, 0.117329426, -0.23210433, -0.58762, 0.06118402, -0.043484446, 0.78514385, 0
398, 3278777362, -0.76626223, 0.11742889, -0.23225659, -0.58752435, -0.323286, 0.13548952, 0.6443434, 0
400, 3278810696, -0.76629376, 0.11772609, -0.23269992, -0.5872483, -0.12454954, -0.24050933, 0.22049999, 0
401, 3278827363, -0.7663015, 0.11780751, -0.23309685, -0.5870644, -0.10309404, -0.5404942, 0.18816566, 0
402, 3278844030, -0.7663164, 0.11786643, -0.2334325, -0.58689976, -0.29593065, -0.61796546, 0.21903038, 0
404, 3278877364, -0.7662298, 0.11788547, -0.2337214, -0.58689386, -0.42723352, -0.65250885, 0.22636509, 0
405, 3278894031, -0.76612604, 0.11776372, -0.23376606, -0.58703595, -0.3269452, -0.5571995, 0.32701874, 0
406, 3278910698, -0.7660186, 0.117646515, -0.2338239, -0.5871766, -0.25937438, -0.3993867, 0.5502682, 0
408, 3278944032, -0.76595443, 0.11745786, -0.23398489, -0.587234, -0.14363168, -0.27372023, 0.4253397, 0
409, 3278960699, -0.7658635, 0.11742321, -0.23396277, -0.58736825, -0.20758043, -0.3192306, 0.23089886, 0
412, 3279010700, -0.76582056, 0.11698972, -0.23328815, -0.58777905, 0.043647528, -0.20648183, 0.33042622, 0
413, 3279027367, -0.76579946, 0.11685817, -0.23297833, -0.5879555, -0.0760874, 0.11458593, 0.42588615, 0
415, 3279060701, -0.76580495, 0.11669738, -0.23237836, -0.5882178, -0.0103543075, 0.11040925, 0.4346981, 0
416, 3279077368, -0.7657803, 0.11658841, -0.23210794, -0.58837813, 0.10433674, -0.04359542, 0.28913784, 0
417, 3279094035, -0.7657404, 0.11647999, -0.23191574, -0.5885274, 0.049496748, -0.074998654, 0.26814938, 0
419, 3279127369, -0.76571536, 0.116312906, -0.2315726, -0.5887281, -0.14426416, 0.21844167, 0.4190817, 0
420, 3279144036, -0.76572746, 0.11624038, -0.2314507, -0.58877444, 0.032229662, 0.118200354, 0.40179062, 0
421, 3279160703, -0.7657077, 0.11616489, -0.23141071, -0.5888309, 0.063264534, 0.041746855, 0.35466862, 0
423, 3279194037, -0.7655906, 0.1159289, -0.23131852, -0.58906573, -0.10346345, -0.01834069, 0.2511282, 0
424, 3279210704, -0.76565003, 0.11574517, -0.23125097, -0.5890513, -0.20234442, -0.077108614, 0.27016068, 0
427, 3279260705, -0.76569164, 0.11518117, -0.23108183, -0.5891741, -0.0561015, -0.05849295, 0.44112968, 0
428, 3279277372, -0.7657234, 0.11502316, -0.23109771, -0.58915746, 0.016471088, -0.15406927, 0.4327221, 0
429, 3279294039, -0.76573604, 0.114849485, -0.23113288, -0.589161, -0.11793559, -0.22313248, 0.33108616, 0
431, 3279327373, -0.76571167, 0.114379466, -0.2309844, -0.5893425, -0.30075848, -0.23925285, 0.3317051, 0
432, 3279344040, -0.76571995, 0.11407837, -0.2309433, -0.5894062, -0.12376507, -0.34327227, 0.46335793, 0
433, 3279360707, -0.76571566, 0.11378233, -0.23096527, -0.5894602, -0.12417153, -0.22955115, 0.48780346, 0
435, 3279394041, -0.76582074, 0.11313212, -0.23087022, -0.5894861, -0.20192759, -0.24279581, 0.26551247, 0
436, 3279410708, -0.76587385, 0.11272782, -0.23063484, -0.5895866, -0.13536403, -0.3399336, 0.3840332, 0
437, 3279427375, -0.7658789, 0.112330474, -0.23036596, -0.5897611, -0.006608454, -0.44374886, 0.4707241, 0
439, 3279460709, -0.7659939, 0.11179906, -0.22990453, -0.58989286, -0.16236103, -0.30565032, 0.65343094, 0
440, 3279477376, -0.7661049, 0.11158277, -0.22965695, -0.5898861, -0.1401098, -0.2718288, 0.20608616, 0
441, 3279494043, -0.7660957, 0.11138223, -0.22940631, -0.59003335, -0.18877287, -0.28001386, -0.048475266, 0
443, 3279527377, -0.7661606, 0.11101733, -0.22859019, -0.5903347, 0.06504326, -0.018672943, 0.589077, 0
444, 3279544044, -0.7662243, 0.11098193, -0.22809176, -0.59045136, 0.19848827, -0.074171655, 0.80818176, 0
446, 3279577378, -0.76633155, 0.11123471, -0.22749275, -0.5904956, -0.03848083, -0.19187336, 0.53722286, 0
447, 3279594045, -0.76638263, 0.11135738, -0.22722647, -0.59050894, -0.2690506, -0.17868263, 0.3511181, 0
448, 3279610712, -0.7664344, 0.1112248, -0.22672737, -0.5906584, -0.28006104, -0.31930602, 0.2737751, 0
450, 3279644046, -0.76659024, 0.11034912, -0.22516346, -0.5912185, -0.19632645, -0.4136401, 0.6280346, 0
451, 3279660713, -0.76667064, 0.10927754, -0.2241602, -0.5916944, -0.17771126, -0.22332565, 1.0782309, 0
454, 3279710714, -0.7666731, 0.10372999, -0.22026993, -0.5941455, -0.1748902, -0.55344725, 0.53193855, 0
455, 3279727381, -0.7665161, 0.1013495, -0.21846478, -0.5954241, -0.3665489, -0.68613964, 0.36120796, 0
456, 3279744048, -0.76631355, 0.09923971, -0.21634877, -0.5968111, -0.21517242, -0.8035542, 0.7449875, 0
458, 3279777382, -0.76615757, 0.09622795, -0.21143922, -0.59925926, -0.22180496, -1.1129258, 0.09696579, 0
459, 3279794049, -0.7657104, 0.09544579, -0.20948474, -0.6006406, -0.4712676, -1.7080022, -0.5469761, 0
460, 3279810716, -0.7642782, 0.09566127, -0.20849326, -0.60277164, -0.010614951, -2.2595947, -1.3860426, 0
462, 3279844050, -0.7567407, 0.09598634, -0.2084906, -0.61215794, -0.6565368, -0.16447023, 1.0324106, 0
463, 3279860717, -0.75249505, 0.09501255, -0.20895213, -0.6173639, -0.13725846, -1.2349647, 0.4481945, 0
464, 3279877384, -0.7477008, 0.09426452, -0.21097541, -0.6225932, 1.1551925, -2.0294003, -0.25933743, 0
466, 3279910718, -0.7375471, 0.09907028, -0.21953247, -0.63094395, -0.5528406, -0.33558342, -2.5404334, 0
469, 3279960719, -0.72331977, 0.12509534, -0.24210438, -0.6345239, -7.197812, 5.4706063, 4.9491205, 0
470, 3279977386, -0.7237442, 0.12970129, -0.24281444, -0.63284147, -2.7137468, -3.583905, -0.38412952, 0
471, 3279994053, -0.7243078, 0.1356008, -0.24072005, -0.63175935, -4.440925, -5.6182737, -0.41266346, 0
473, 3280027387, -0.72671807, 0.14585865, -0.23907006, -0.6273173, -2.8145509, -0.14219391, 2.4651995, 0
474, 3280044054, -0.72756535, 0.14645386, -0.23754431, -0.62677586, -0.2844809, -2.3318954, 1.1754637, 0
475, 3280060721, -0.7282939, 0.14651525, -0.23490663, -0.6269095, -2.2470827, -2.5492904, 0.7529888, 0
477, 3280094055, -0.7293896, 0.14666727, -0.23201767, -0.62667596, -1.8707215, -3.2451334, 0.924943, 0
478, 3280110722, -0.7294737, 0.14620893, -0.23174529, -0.6267857, -2.068043, -3.385632, 0.99718, 0
479, 3280127389, -0.7295036, 0.14579462, -0.23224458, -0.62666285, -2.5616944, -3.7226617, -0.047574997, 0
481, 3280160723, -0.729636, 0.14484452, -0.23344249, -0.62628376, -2.0296094, -4.0872912, 1.2929745, 0
483, 3280194057, -0.7296004, 0.14492178, -0.23890746, -0.6242431, -2.4681087, -3.688706, 0.36319828, 0
485, 3280227391, -0.73129284, 0.14477602, -0.24829414, -0.6186082, -1.3291422, -3.375961, -0.223629, 0
486, 3280244058, -0.73351157, 0.14443177, -0.25042975, -0.6151915, -1.0525589, -3.1728232, -0.868721, 0
487, 3280260725, -0.7365779, 0.1426982, -0.25196967, -0.611291, -1.2858813, -2.079716, -0.44350147, 0
489, 3280294059, -0.74015534, 0.13733028, -0.25192896, -0.60820866, -2.8602989, -3.066915, -0.9838619, 0
490, 3280310726, -0.74069035, 0.13387708, -0.25070566, -0.60883224, -2.7120578, -1.9123232, 0.5734453, 0
491, 3280327393, -0.7413033, 0.12967174, -0.2484802, -0.6099079, -2.5773425, -3.0026176, 0.36324978, 0
493, 3280360727, -0.74157536, 0.120338395, -0.2450394, -0.6128748, -1.565078, -3.9808552, -0.9405203, 0
494, 3280377394, -0.7409726, 0.11659279, -0.24572894, -0.61405075, -2.1559813, -2.9820437, 0.026776314, 0
496, 3280410728, -0.739678, 0.11075449, -0.24918969, -0.61529654, -1.7744808, 0.915905, 1.8927374, 0
498, 3280444062, -0.73940647, 0.10813869, -0.25204957, -0.61492324, 1.4764024, 2.1187968, 2.39227, 0
500, 3280477396, -0.7411524, 0.10703267, -0.25356656, -0.61238587, 0.2192559, 1.7159685, 0.20781994, 0
501, 3280494063, -0.7426269, 0.10680676, -0.25338492, -0.61071193, 0.41591215, 3.6157682, 1.3047104, 0
502, 3280510730, -0.7444559, 0.10689853, -0.2525773, -0.6088006, 0.9101616, 3.8368409, 1.6574745, 0
504, 3280544064, -0.748577, 0.10814342, -0.2491907, -0.60491043, 3.1023152, 3.1249378, 1.1338882, 0
505, 3280560731, -0.7507009, 0.109154895, -0.24640034, -0.6032375, 2.5380497, 2.552688, 0.6674595, 0
506, 3280577398, -0.75281894, 0.110359356, -0.2432658, -0.6016489, 1.4761213, 2.364206, -0.37216568, 0
508, 3280610732, -0.7571795, 0.112129614, -0.23485854, -0.5991851, 1.9016665, 2.3683999, 0.30062485, 0
509, 3280627399, -0.75880414, 0.11285736, -0.23069388, -0.598611, 2.3127308, 1.3297634, -0.061802864, 0
510, 3280644066, -0.7599143, 0.1140324, -0.22749293, -0.5982051, 2.8956578, 1.2649634, 0.23803043, 0
512, 3280677400, -0.76169753, 0.11704916, -0.22249685, -0.5972325, 0.8822171, 0.4787367, 0.29578876, 0
513, 3280694067, -0.76252055, 0.1186623, -0.22029516, -0.5966801, -0.2746262, 0.11176704, 0.18376255, 0
514, 3280710734, -0.76314926, 0.12038553, -0.2182162, -0.59629476, -0.25365618, -0.6799997, 0.7587137, 0
516, 3280744068, -0.76399726, 0.12382984, -0.21422593, -0.59595037, 0.30789524, -2.245987, -0.099199295, 0
517, 3280760735, -0.764122, 0.12553138, -0.21228345, -0.59612936, -0.12349825, -2.5301783, -0.74162865, 0
518, 3280777402, -0.7641098, 0.12698764, -0.21015313, -0.59659135, -0.86044616, -1.6138732, 0.33398247, 0
520, 3280810736, -0.7637996, 0.12990305, -0.20590807, -0.59783995, -1.078719, -1.732646, 0.22894478, 0
521, 3280827403, -0.76356614, 0.13136448, -0.20396526, -0.5984845, -0.36101395, -2.6342947, 0.014419556, 0
523, 3280860737, -0.76260644, 0.1343777, -0.20050329, -0.60020643, 0.44291395, -2.3982852, 0.35084724, 0
525, 3280894071, -0.76078606, 0.13629541, -0.19735025, -0.6031223, -1.1763746, -2.363547, -0.054336548, 0
527, 3280927405, -0.75890404, 0.13861895, -0.19429463, -0.60594934, 0.66523767, -2.3293188, 0.09935188, 0
528, 3280944072, -0.7575725, 0.13973081, -0.19291142, -0.6077992, 1.1721511, -2.53218, 0.4577589, 0
529, 3280960739, -0.7560202, 0.14086823, -0.19184178, -0.6098045, 0.28772914, -1.2276264, 0.8770714, 0
531, 3280994073, -0.75242925, 0.14343405, -0.1912235, -0.6138288, -1.4467946, -2.0832582, 1.0232573, 0
532, 3281010740, -0.75081986, 0.14445943, -0.1911814, -0.61556965, -1.5571451, -2.3310874, 1.2561646, 0
533, 3281027407, -0.7491015, 0.14547212, -0.19144587, -0.6173401, -0.8849586, -3.9739711, 0.121302605, 0
535, 3281060741, -0.7454869, 0.14677612, -0.19131471, -0.6214338, -0.24059466, -4.3382044, 0.9914646, 0
536, 3281077408, -0.7435302, 0.14710644, -0.191603, -0.6236074, -0.45137256, -3.2221365, 1.337491, 0
537, 3281094075, -0.74161845, 0.14758243, -0.19277924, -0.62540627, -2.5505972, -3.1517372, -0.46966362, 0
540, 3281144076, -0.73648524, 0.14560837, -0.19522706, -0.6311494, -0.58920103, -3.9503622, -0.1887083, 0
541, 3281160743, -0.734866, 0.14520344, -0.19597915, -0.6328944, -0.1861312, -1.9417988, 4.723589, 0
543, 3281194077, -0.73210573, 0.14897834, -0.20200947, -0.6333199, -1.2748972, -0.5243327, 1.8614607, 0
544, 3281210744, -0.73144335, 0.15287974, -0.2071454, -0.63149405, -2.9988112, -2.7412646, -3.9733405, 0
545, 3281227411, -0.7312707, 0.15528558, -0.21250564, -0.6293222, -0.43507367, -1.0253847, -4.2735434, 0
547, 3281260745, -0.73213476, 0.14691107, -0.20789033, -0.63186455, -1.3642746, -1.6447257, 0.78535366, 0
548, 3281277412, -0.73133034, 0.14416839, -0.2087412, -0.63314617, -1.7008603, 0.420968, 2.246768, 0
549, 3281294079, -0.7305454, 0.14249009, -0.21073437, -0.6337716, -2.1228263, 3.9306242, 2.6388035, 0
551, 3281327413, -0.72974026, 0.13884598, -0.2140693, -0.63439, 0.54879045, -0.122362226, -2.336308, 0
552, 3281344080, -0.72929084, 0.13580404, -0.21510223, -0.63521534, 0.9920803, -0.3627158, 0.82493305, 0
555, 3281394081, -0.7268827, 0.12980354, -0.22369899, -0.63625985, -1.4446403, 2.0485878, 0.17545319, 0
556, 3281410748, -0.72590667, 0.12900427, -0.22769603, -0.63611895, -0.27205265, 0.09446831, -0.86007404, 0
558, 3281444082, -0.7262782, 0.12662627, -0.2323475, -0.63448834, 0.5890518, 0.11403078, -2.811376, 0
559, 3281460749, -0.72715366, 0.12292052, -0.23162597, -0.6344782, -1.0675601, 0.8041095, -0.19769001, 0
560, 3281477416, -0.7281083, 0.11984326, -0.23127352, -0.63410056, -3.3639052, -0.1750805, -1.2647114, 0
562, 3281510750, -0.7309618, 0.117084496, -0.23096865, -0.6314385, -0.02981537, -1.3600748, 1.7567768, 0
563, 3281527417, -0.7324292, 0.116177805, -0.2308004, -0.6299656, 2.194595, -1.5339063, 1.0765486, 0
564, 3281544084, -0.7338044, 0.1151508, -0.23049127, -0.6286658, 1.8536893, -0.9077418, 1.6856909, 0
566, 3281577418, -0.73655844, 0.113947205, -0.22981325, -0.6259065, -1.7566664, 2.191912, 2.6862965, 0
567, 3281594085, -0.7377075, 0.11396512, -0.22968228, -0.6245966, -1.3586801, 1.3758163, 1.3657913, 0
570, 3281644086, -0.7397564, 0.11346462, -0.22987938, -0.62218726, 1.3213534, 1.5379101, 0.45384026, 0
571, 3281660753, -0.74040604, 0.113117136, -0.22949299, -0.6216202, 0.33329743, 1.4583939, 1.2465801, 0
572, 3281677420, -0.7410025, 0.11278299, -0.22866091, -0.6212768, 0.5329407, 1.434782, 0.965868, 0
574, 3281710754, -0.7414639, 0.113003254, -0.22650903, -0.62147427, 3.1677432, 0.9287893, -0.72819424, 0
575, 3281727421, -0.7411546, 0.11262801, -0.22553828, -0.62226415, 2.9462662, 0.10707913, -0.5618048, 0
577, 3281760755, -0.7396483, 0.11194308, -0.22476324, -0.6244565, 0.68576795, 0.8787157, 0.6885681, 0
578, 3281777422, -0.73888755, 0.11205754, -0.22431093, -0.62549853, 0.4751344, 0.7606336, 0.7454128, 0
579, 3281794089, -0.73822385, 0.112758696, -0.223669, -0.62638515, 0.35139272, -0.28112152, -0.052869797, 0
581, 3281827423, -0.7370646, 0.114738256, -0.22173211, -0.6280775, 0.85763705, -1.9101634, 0.18151379, 0
582, 3281844090, -0.7365115, 0.11583069, -0.2206985, -0.6288891, 0.62510693, -1.0983629, 0.66822433, 0
583, 3281860757, -0.73602605, 0.11678012, -0.21948025, -0.6297078, -0.8677568, -1.1524829, 0.16559601, 0
585, 3281894091, -0.7356404, 0.11879484, -0.21650007, -0.6308122, -0.6049311, -1.0914218, 0.50062084, 0
586, 3281910758, -0.7354563, 0.11966958, -0.21546583, -0.6312158, -0.33899167, -0.09952015, 1.0098953, 0
587, 3281927425, -0.73539823, 0.12058696, -0.21447441, -0.63144636, -1.2198869, 0.60382336, 0.7675085, 0
589, 3281960759, -0.7357405, 0.1219248, -0.21223685, -0.63154674, -0.45383814, -0.11005018, 0.55500317, 0
591, 3281994093, -0.7358212, 0.12236107, -0.2105524, -0.6319318, 0.3727434, -1.0547315, -0.32680416, 0
593, 3282027427, -0.7357164, 0.12201965, -0.20945472, -0.63248444, -1.1409302, -0.08875912, 1.0171146, 0
594, 3282044094, -0.73557895, 0.12149435, -0.20920151, -0.6328292, -1.7285553, 0.32854035, 0.4546461, 0
595, 3282060761, -0.73524225, 0.12103743, -0.20945644, -0.63322365, -1.0199629, -0.117595136, -0.40819454, 0
598, 3282110762, -0.7334373, 0.118572146, -0.21082342, -0.6353259, 0.27703056, -1.7577211, 1.463088, 0
599, 3282127429, -0.73313415, 0.117732495, -0.21101493, -0.6357684, -1.2924682, -0.66990924, 1.3236847, 0
601, 3282160763, -0.73248905, 0.11732064, -0.21157455, -0.6364018, -0.01602736, -1.7381197, 0.24450016, 0
602, 3282177430, -0.731904, 0.117436185, -0.21204738, -0.6368961, 0.19597222, -1.7106704, 0.20070267, 0
604, 3282210764, -0.73148, 0.11708705, -0.21183285, -0.63751847, -0.10195826, -1.8596047, 0.4993515, 0
605, 3282227431, -0.73124456, 0.11669775, -0.21174546, -0.63788867, -1.5802879, -1.2453738, 1.1171131, 0
606, 3282244098, -0.7309085, 0.11665844, -0.2119492, -0.63821346, -2.8201933, -1.128154, 0.7524967, 0
608, 3282277432, -0.7304658, 0.11782485, -0.21289665, -0.6381906, -0.38508412, -4.371105, -0.11114979, 0
609, 3282294099, -0.73025733, 0.11879915, -0.21390909, -0.63791, -0.7851821, -4.2878027, -0.41133308, 0
610, 3282310766, -0.7302424, 0.118742615, -0.21394992, -0.63792396, -1.736582, -3.2889898, -0.64816, 0
613, 3282360767, -0.73121375, 0.11636917, -0.21389988, -0.6372651, -1.8372562, 0.68309647, 2.0833015, 0
614, 3282377434, -0.7315823, 0.11612736, -0.21478093, -0.63658965, -2.6720433, -2.1869903, -0.08928013, 0
616, 3282410768, -0.73309195, 0.11497992, -0.21625, -0.63456064, -2.2421234, -2.1451044, -1.8669419, 0
617, 3282427435, -0.7344069, 0.113394216, -0.21532372, -0.63363993, -1.6490337, -3.7182217, 1.0931149, 0
618, 3282444102, -0.7356442, 0.11158386, -0.21523559, -0.6325548, -0.008166241, 0.2379159, 4.6871166, 0
620, 3282477436, -0.73761094, 0.10912052, -0.21865809, -0.62951297, -3.49092, 1.078781, 0.176507, 0
621, 3282494103, -0.7391689, 0.10967376, -0.22394615, -0.6257191, -4.726025, -0.447313, -7.4061174, 0
622, 3282510770, -0.74042976, 0.10838082, -0.22773263, -0.62308156, 0.19555183, -0.7309398, -3.7464218, 0
624, 3282544104, -0.74259526, 0.103233814, -0.23080684, -0.62024075, 0.15100785, 2.246957, 6.7858143, 0
625, 3282560771, -0.7428774, 0.10141018, -0.23396169, -0.61902034, -1.2603846, 6.5032, 0.8286562, 0
628, 3282610772, -0.7488476, 0.108005516, -0.24386062, -0.6067696, 3.7751906, -0.67804164, -3.9465318, 0
629, 3282627439, -0.75093806, 0.10562811, -0.24122028, -0.605659, 0.7294116, -3.23044, -0.37499523, 0
631, 3282660773, -0.7548965, 0.103020296, -0.23924048, -0.60196143, -1.9509244, 4.650492, 3.901267, 0
632, 3282677440, -0.757054, 0.10279609, -0.2379651, -0.5997915, -0.9930865, 3.2882082, 3.257165, 0
633, 3282694107, -0.75889033, 0.10234137, -0.2363454, -0.59818715, -0.06129333, -3.3956597, -0.4603052, 0
635, 3282727441, -0.76119316, 0.101757504, -0.2347793, -0.5959734, 2.002961, -2.6363196, 0.5150242, 0
636, 3282744108, -0.76161385, 0.10110664, -0.23501405, -0.59545386, 1.7312609, 0.41852835, 3.959691, 0
637, 3282760775, -0.7614001, 0.10019386, -0.23599675, -0.59549296, 0.28068674, 5.765196, 5.1245527, 0
639, 3282794109, -0.7614306, 0.1008288, -0.23601288, -0.5953404, 1.5034957, 2.4782093, 0.44966412, 0
640, 3282810776, -0.7613797, 0.10200818, -0.23582035, -0.5952807, 3.6945012, 0.037973844, -1.6560335, 0
643, 3282860777, -0.76205283, 0.10618997, -0.2318725, -0.5952391, 0.92921084, 2.4956024, -1.7149944, 0
644, 3282877444, -0.7623474, 0.10762182, -0.2297818, -0.5954156, 1.8096001, 1.600863, -1.5827894, 0
645, 3282894111, -0.7624493, 0.10910922, -0.22744848, -0.59590983, 2.1281002, 0.22533385, -0.75201607, 0
647, 3282927445, -0.762081, 0.11090458, -0.22395644, -0.5973703, 0.20249519, 0.2067254, -0.1706276, 0
648, 3282944112, -0.7617012, 0.11177857, -0.22266005, -0.59817624, 0.30291593, 0.76019454, -1.2381344, 0
649, 3282960779, -0.7612134, 0.11226607, -0.2212445, -0.59923005, 0.07540461, -0.31168154, -0.11765385, 0
651, 3282994113, -0.75959855, 0.113310024, -0.21963067, -0.60167134, -0.390156, -3.9004843, -0.13507748, 0
652, 3283010780, -0.7578568, 0.11344735, -0.22059117, -0.6034879, 1.3111602, 1.7779993, 0.2569151, 0
653, 3283027447, -0.7561447, 0.11363209, -0.22205931, -0.60506046, 0.38321337, -2.4509583, -0.09335899, 0
655, 3283060781, -0.7520915, 0.11349344, -0.22647966, -0.6084899, -0.8792404, -1.5781032, 5.264282E-4, 0
656, 3283077448, -0.7498561, 0.113204494, -0.22856285, -0.61052036, -0.723473, -1.7303568, 1.8377762, 0
658, 3283110782, -0.74669147, 0.11264095, -0.2313284, -0.6134546, 0.41915786, -0.7924977, 1.0059853, 0
659, 3283127449, -0.74479103, 0.11248257, -0.23306511, -0.6151341, -0.21311012, -1.364022, 0.17551994, 0
660, 3283144116, -0.7427789, 0.11246063, -0.23520072, -0.616756, -0.7471693, -0.71953225, -0.02736473, 0
662, 3283177450, -0.74015874, 0.11347954, -0.23913391, -0.6182053, 0.49904978, -0.85011786, 0.70143414, 0
663, 3283194117, -0.738928, 0.11397146, -0.24077047, -0.61895144, 0.70115286, -0.27811444, 0.7836418, 0
664, 3283210784, -0.73746276, 0.114388674, -0.2427336, -0.61985433, -0.031259067, 0.27430493, 0.74583817, 0
666, 3283244118, -0.7339874, 0.115170665, -0.24919091, -0.6212709, -0.7107777, -1.1703537, -0.01300621, 0
667, 3283260785, -0.7311853, 0.11509071, -0.25405055, -0.6226203, -2.5306592, -1.0605358, -0.36856937, 0
670, 3283310786, -0.7197866, 0.12277841, -0.2825768, -0.6221401, 0.7155254, 1.5992702, 2.5576553, 0
671, 3283327453, -0.71617883, 0.12496613, -0.2914549, -0.6217722, -2.0583565, -0.52351147, -0.8458643, 0
672, 3283344120, -0.71185976, 0.12762576, -0.30172187, -0.62129426, -1.2625753, 1.2799248, -0.15733242, 0
674, 3283377454, -0.70348394, 0.12937084, -0.32026112, -0.621194, -0.5976248, -0.3928771, -0.36244297, 0
675, 3283394121, -0.6990818, 0.13299525, -0.33156323, -0.6194658, 0.89978015, -0.19477656, 4.058853, 0
676, 3283410788, -0.6961743, 0.13615745, -0.34019873, -0.61736745, -2.4090762, -1.2433308, -0.68924046, 0
678, 3283444122, -0.68937176, 0.14354637, -0.36040723, -0.6118357, -1.1495752, 2.1568038, 1.9864187, 0
679, 3283460789, -0.6869326, 0.14622933, -0.36749697, -0.6097227, 0.47630587, 1.088279, 2.7354708, 0
680, 3283477456, -0.684438, 0.14844434, -0.3751978, -0.607298, -0.40451127, -1.2303393, -1.5101709, 0
682, 3283510790, -0.6797383, 0.15403499, -0.3891726, -0.60236955, -0.7928969, 2.8049402, 0.63557434, 0
684, 3283544124, -0.6745574, 0.15934443, -0.4044329, -0.5967337, 0.046386927, 1.6634703, 0.9866619, 0
686, 3283577458, -0.67160773, 0.16259533, -0.41491473, -0.5919686, 0.97913015, 1.9435714, 0.041879654, 0
687, 3283594125, -0.67156535, 0.16317758, -0.41866198, -0.5892117, -0.1194455, 1.9643644, 2.2905254, 0
689, 3283627459, -0.6731929, 0.16534536, -0.42585483, -0.5815454, -1.7988057, 0.28081822, -1.1184435, 0
690, 3283644126, -0.6733011, 0.16693866, -0.43082693, -0.57728726, -0.4737351, 0.9368134, 0.107982635, 0
691, 3283660793, -0.673923, 0.1669187, -0.43375027, -0.57437086, -0.90200186, 1.7325658, -0.19518661, 0
693, 3283694127, -0.6781917, 0.16219091, -0.43134445, -0.5725099, -0.21950155, 2.9260461, 1.6031094, 0
694, 3283710794, -0.6815828, 0.15790397, -0.42838803, -0.57190067, 0.25968087, -0.37617978, -1.2895002, 0
695, 3283727461, -0.6826657, 0.15491804, -0.42978898, -0.5703723, -0.6381047, -1.6458633, -1.7228127, 0
697, 3283760795, -0.6835495, 0.15458295, -0.4371727, -0.5637546, -1.029402, 2.038466, 0.5476589, 0
699, 3283794129, -0.6785477, 0.15887606, -0.45275185, -0.55625755, -1.3012563, 0.11683246, 2.524519, 0
701, 3283827463, -0.66371155, 0.16295078, -0.48134166, -0.54892576, -3.1015625, 0.8316957, 1.2043791, 0
702, 3283844130, -0.6523044, 0.16170992, -0.4996641, -0.5465894, -2.5301251, 2.6188376, 3.9653225, 0
703, 3283860797, -0.6396682, 0.15640345, -0.5173618, -0.54660296, -3.751027, 2.6103044, 2.700777, 0
705, 3283894131, -0.6166191, 0.13272241, -0.5508676, -0.546613, -3.340182, 1.70727, 1.3490372, 0
706, 3283910798, -0.6060687, 0.12724978, -0.55910134, -0.551334, -0.62904114, 0.33160025, 2.367464, 0
707, 3283927465, -0.5996378, 0.12960055, -0.56184584, -0.55501604, -6.3036203, 9.332226, -0.185606, 0
709, 3283960799, -0.61494714, 0.15348248, -0.5391664, -0.5546694, -6.9354424, 1.6244, -3.2513704, 0
710, 3283977466, -0.6298727, 0.16921858, -0.520878, -0.5508056, -6.9472837, -0.85254896, -4.623593, 0
712, 3284010800, -0.65812886, 0.19545384, -0.48663113, -0.5403051, -4.2236853, -7.2361507, -8.989937, 0
714, 3284044134, -0.675164, 0.2050998, -0.45738712, -0.5412576, -2.3984041, -10.780422, 2.38622, 0
716, 3284077468, -0.681206, 0.18976074, -0.419249, -0.5694338, 1.2573969, -6.6827493, 0.20619774, 0
717, 3284094135, -0.680475, 0.1786908, -0.4017775, -0.5862368, 0.78559774, -2.120568, 0.5303211, 0
718, 3284110802, -0.6791796, 0.16520382, -0.38729855, -0.601247, 0.83825845, 0.44459957, 0.18523121, 0
720, 3284144136, -0.6773959, 0.14027254, -0.36557302, -0.62280816, 0.9007439, 2.7540677, 1.9067678, 0
721, 3284160803, -0.6781995, 0.12829399, -0.3568413, -0.62954414, 1.4000347, 4.021582, 3.7209005, 0
722, 3284177470, -0.681997, 0.11489665, -0.3471842, -0.63341737, 1.0225503, 5.3135376, 3.1112556, 0
724, 3284210804, -0.6969571, 0.08620252, -0.33135548, -0.6301577, 4.324291, 5.590971, -0.6410246, 0
725, 3284227471, -0.70458806, 0.07418668, -0.3249379, -0.62653244, 9.427953, 5.051692, 1.2486143, 0
726, 3284244138, -0.709644, 0.06550359, -0.31576276, -0.6264852, 12.247955, 3.3719878, -0.10470867, 0
728, 3284277472, -0.7064272, 0.056446902, -0.3062325, -0.635666, 10.908822, 7.8316703, -9.930002, 0
729, 3284294139, -0.7008685, 0.048544634, -0.3141101, -0.63862115, 13.996098, 14.440571, -8.911863, 0
730, 3284310806, -0.69742453, 0.043854937, -0.32545716, -0.637047, 18.49009, 15.946075, -10.280524, 0
732, 3284344140, -0.69122404, 0.072897784, -0.3539254, -0.6258654, 21.43266, 17.123343, -7.8066006, 0
733, 3284360807, -0.68366474, 0.09625859, -0.37799695, -0.6168716, 18.33907, 19.875563, -6.916299, 0
734, 3284377474, -0.6919716, 0.14495623, -0.38023847, -0.5963699, 39.338573, 44.643955, 42.022526, 0
736, 3284410808, -0.7102679, 0.18732263, -0.36149934, -0.57430226, -8.909376, -2.8021746, 2.5443783, 0
737, 3284427475, -0.7093879, 0.20884082, -0.37170163, -0.5613087, -4.5621896, 0.6014233, -0.7651777, 0
739, 3284460809, -0.70246184, 0.23647559, -0.39039516, -0.5461624, 3.7995625, 0.3094567, 0.72762394, 0
741, 3284494143, -0.69427496, 0.26476765, -0.4085927, -0.53010154, -4.0118823, -3.3726432, -0.63785934, 0
743, 3284527477, -0.6450325, 0.3311534, -0.48026317, -0.4936527, -2.4980214, -6.4713373, -1.3574791, 0
744, 3284544144, -0.5978954, 0.38683867, -0.5371572, -0.45212236, -4.4050007, -4.913351, 0.28938866, 0
745, 3284560811, -0.5370327, 0.4379285, -0.6013996, -0.39775413, -9.557503, -7.7919574, 11.027397, 0
747, 3284594145, -0.45112386, 0.45745534, -0.71539396, -0.27478802, -12.156656, -24.807814, 48.104664, 0
748, 3284610812, -0.41444138, 0.465671, -0.74376774, -0.24139935, 41.11566, -32.771275, 31.517189, 0
749, 3284627479, -0.35962173, 0.468425, -0.76804006, -0.24787065, -22.174852, -1.6634486, 24.369118, 0
751, 3284660813, -0.31864122, 0.4889962, -0.79534256, -0.16387779, -11.406726, -27.64751, 3.2482643, 0
752, 3284677480, -0.28859782, 0.5079415, -0.8000837, -0.13655803, -17.195887, -16.13835, -1.1863394, 0
753, 3284694147, -0.26596522, 0.5258792, -0.8012495, -0.10386628, -20.440334, -18.789116, -6.5845947, 0
756, 3284744148, -0.22205542, 0.5804337, -0.7819389, -0.049343653, -9.893778, -12.522287, -18.276276, 0
757, 3284760815, -0.21982968, 0.58779025, -0.77794933, -0.032365635, -6.607087, -8.04107, -20.741966, 0
759, 3284794149, -0.23436463, 0.5896769, -0.77289987, -0.0074403994, -4.258403, -9.887884, -25.476759, 0
760, 3284810816, -0.24712628, 0.5881776, -0.76994497, -0.015350822, -3.0885577, -10.232959, -24.47046, 0
761, 3284827483, -0.26062852, 0.5866469, -0.7658788, -0.037725516, -2.571444, -7.0941544, -20.234695, 0
763, 3284860817, -0.29327294, 0.5856434, -0.7508125, -0.085841924, -3.7584789, 0.7829918, -12.51761, 0
764, 3284877484, -0.3189502, 0.58164847, -0.74173135, -0.099326886, -5.129279, -2.8200202, -11.525446, 0
766, 3284910818, -0.38545516, 0.5601058, -0.7200977, -0.13870907, -1.0042611, -9.2364025, -7.0631294, 0
767, 3284927485, -0.41356388, 0.5474411, -0.70757943, -0.16935045, 0.5283425, -5.640807, -3.080143, 0
768, 3284944152, -0.4380971, 0.5338938, -0.6951463, -0.19968781, -0.9660743, -0.9441297, -0.048971176, 0
771, 3284994153, -0.5241845, 0.4810835, -0.653671, -0.25802827, -2.4617574, 1.8947189, 4.692436, 0
772, 3285010820, -0.55447507, 0.46097338, -0.637316, -0.2719643, -1.6696647, 1.0948619, 3.5175714, 0
774, 3285044154, -0.6003667, 0.42206573, -0.60559934, -0.3078068, 0.31499836, 0.74229497, 2.112317, 0
775, 3285060821, -0.6184365, 0.40237007, -0.5906212, -0.3269198, -0.8499727, 3.8799436, 4.646199, 0
776, 3285077488, -0.63930863, 0.37897745, -0.5756325, -0.34114942, 0.5134137, 5.906448, 6.298626, 0
778, 3285110822, -0.68037885, 0.33713734, -0.54223585, -0.35983133, 5.0459347, 1.4692246, 4.4669437, 0
779, 3285127489, -0.6945981, 0.32144794, -0.52592784, -0.37105262, 4.178377, 1.0306555, 2.57895, 0
780, 3285144156, -0.70363724, 0.3056922, -0.51287836, -0.38532853, 3.5994575, 0.8130781, 1.7662144, 0
782, 3285177490, -0.7085839, 0.27912587, -0.49503452, -0.41834646, 1.2537496, 1.3131576, 1.4894056, 0
783, 3285194157, -0.7082579, 0.26777303, -0.4881532, -0.43410838, 0.6218834, 0.37771857, 3.611599, 0
786, 3285244158, -0.71326274, 0.23532394, -0.4488388, -0.48425004, 0.41840795, 2.2157106, 3.545475, 0
787, 3285260825, -0.7167665, 0.2216371, -0.43528584, -0.4977192, 1.303776, 2.9863906, 2.7697458, 0
788, 3285277492, -0.72015065, 0.2082991, -0.4236335, -0.50853145, 1.9597964, 2.9754322, 2.4806566, 0
790, 3285310826, -0.7251682, 0.18316807, -0.40459698, -0.5262673, 2.875735, 2.6365938, 4.238905, 0
791, 3285327493, -0.7272147, 0.1713274, -0.3936019, -0.53568506, 3.0604024, 2.971861, 3.4192305, 0
792, 3285344160, -0.72879326, 0.16093989, -0.38214624, -0.54497546, 3.2491217, 3.3608553, 1.801424, 0
794, 3285377494, -0.73083746, 0.14055078, -0.3661252, -0.5587038, 2.0117748, 5.1962705, -0.5537844, 0
795, 3285394161, -0.7317739, 0.13006058, -0.36230126, -0.5624982, 2.3201973, 5.0101585, -0.29681492, 0
797, 3285427495, -0.7347386, 0.11375129, -0.35423696, -0.5672841, 3.3252487, 3.663756, 0.10597515, 0
798, 3285444162, -0.7360274, 0.10784765, -0.34834278, -0.57040775, 4.139862, 3.7770503, 1.0831413, 0
799, 3285460829, -0.73698467, 0.10285018, -0.34099454, -0.57452023, 4.072258, 3.696821, -0.8228493, 0
801, 3285494163, -0.7357953, 0.09794606, -0.33104926, -0.5826608, 3.849326, 2.6085997, -1.3898535, 0
802, 3285510830, -0.7335231, 0.09661653, -0.3276909, -0.587625, 3.5947077, 2.5542243, -0.61547375, 0
803, 3285527497, -0.7302699, 0.094636485, -0.32495612, -0.5934883, 3.2847521, 2.9600794, -1.1199617, 0
805, 3285560831, -0.72242296, 0.09173423, -0.32063192, -0.60577244, 3.72199, 4.735205, -1.8469276, 0
806, 3285577498, -0.7197323, 0.09129944, -0.31850943, -0.6101449, 3.2692919, 6.0493393, -2.0913405, 0
807, 3285594165, -0.71861255, 0.08985438, -0.3174264, -0.61224025, 3.88934, 6.5008993, -2.2304392, 0
809, 3285627499, -0.71837634, 0.08872643, -0.317275, -0.61275995, 6.0661263, 6.098803, -4.1402807, 0
810, 3285644166, -0.7163255, 0.09058389, -0.31937277, -0.6137983, 7.5069857, 6.4481325, -5.0441794, 0
813, 3285694167, -0.704246, 0.10808826, -0.34166595, -0.6129389, 11.585047, 13.023216, -5.5124173, 0
814, 3285710834, -0.69998467, 0.11661834, -0.36064675, -0.60533535, 16.112305, 15.406329, -4.4906483, 0
815, 3285727501, -0.69281644, 0.13096641, -0.38383523, -0.5963214, 20.3609, 19.852777, -1.2794247, 0
817, 3285760835, -0.66509825, 0.19189543, -0.44736412, -0.56635785, 6.310425, 37.164516, 4.2147694, 0
818, 3285777502, -0.66817415, 0.23729876, -0.44922793, -0.5436011, -2.7390466, 22.45193, 21.77591, 0
820, 3285810836, -0.67324024, 0.28197584, -0.4246968, -0.53567255, -0.8876354, -1.7723899, 2.4612637, 0
821, 3285827503, -0.67044306, 0.3018399, -0.42414296, -0.52875024, -4.908156, -3.8497162, -0.22121525, 0
822, 3285844170, -0.65576196, 0.33049285, -0.44342726, -0.51400197, -5.2559752, -5.253577, -2.605062, 0
824, 3285877504, -0.5717952, 0.42579037, -0.5509525, -0.43391174, -7.7293444, -9.313095, 7.891712, 0
825, 3285894171, -0.51460135, 0.46864212, -0.6133408, -0.37342775, -13.147562, -12.794725, 21.283716, 0
828, 3285944172, -0.39594862, 0.51855004, -0.7150145, -0.25131655, 3.6806827, -17.620682, 27.243458, 0
829, 3285960839, -0.36552274, 0.5424286, -0.7220758, -0.22549072, -12.258887, 9.739398, 13.929182, 0
830, 3285977506, -0.34097043, 0.5590086, -0.73191816, -0.1887317, -0.9379623, -30.260174, 2.586419, 0
832, 3286010840, -0.28574026, 0.58584243, -0.7464703, -0.13415822, -13.080489, -20.909311, -7.2160654, 0
833, 3286027507, -0.26805913, 0.5938659, -0.75128305, -0.10543528, -13.8004675, -21.104855, -19.19281, 0
834, 3286044174, -0.25719532, 0.6000087, -0.7525298, -0.08725995, -12.117683, -18.541466, -26.467203, 0
836, 3286077508, -0.26961464, 0.6032274, -0.7464622, -0.07933517, -7.0524373, -11.615789, -18.658325, 0
837, 3286094175, -0.28729615, 0.6010315, -0.7410285, -0.08470132, -4.00241, -10.079505, -13.687028, 0
838, 3286110842, -0.30869812, 0.596692, -0.7347193, -0.094482444, -2.958324, -7.6922626, -8.653694, 0
840, 3286144176, -0.3499981, 0.59024954, -0.7180768, -0.116394974, -2.4775627, -2.3037162, -8.166975, 0
842, 3286177510, -0.39187866, 0.5762681, -0.7054837, -0.12928301, -3.315203, -1.5319877, -9.699118, 0
844, 3286210844, -0.43885747, 0.5499262, -0.6955682, -0.14575751, -2.9339066, -5.536396, -7.7837286, 0
845, 3286227511, -0.46029556, 0.53574765, -0.689105, -0.16220987, -2.2428877, -5.0342216, -6.7318735, 0
847, 3286260845, -0.48933327, 0.51562965, -0.67261356, -0.20577966, -3.8193889, -2.5468745, -3.967105, 0
848, 3286277512, -0.50510216, 0.503819, -0.66297233, -0.22711506, -5.20318, -1.4370372, -2.4818273, 0
849, 3286294179, -0.52455956, 0.48804325, -0.65272444, -0.24632746, -4.6798625, -1.8598821, -1.8498769, 0
851, 3286327513, -0.56159925, 0.45626563, -0.6282203, -0.28608102, -2.0711935, -2.931779, -1.4778585, 0
852, 3286344180, -0.57407963, 0.44445413, -0.6139029, -0.30998585, -1.303167, -2.4514623, -0.17773724, 0
853, 3286360847, -0.5842899, 0.4343068, -0.59846973, -0.33450228, -2.686177, -0.09744153, 1.3480844, 0
855, 3286394181, -0.61287755, 0.40718856, -0.56515354, -0.3731693, -3.1340907, -0.6827447, 2.0826626, 0
857, 3286427515, -0.6465172, 0.37825048, -0.5243438, -0.40506905, 0.99264795, -4.1812615, 3.830079, 0
859, 3286460849, -0.66751313, 0.3465386, -0.48390082, -0.44749576, 5.0734596, 1.1016638, 5.02382, 0
860, 3286477516, -0.6721, 0.3297509, -0.4685083, -0.46917063, 5.260094, 3.7080357, 4.846609, 0
861, 3286494183, -0.67471164, 0.314412, -0.45587227, -0.48802155, 4.0198517, 4.6480007, 4.550913, 0
863, 3286527517, -0.6838637, 0.28389254, -0.43146867, -0.51540804, 2.0706272, 2.5430462, 6.841543, 0
864, 3286544184, -0.69063073, 0.26900366, -0.41697776, -0.5261854, 2.9830644, 2.64793, 3.0742455, 0
865, 3286560851, -0.69590116, 0.25592867, -0.40419835, -0.53565, 3.2943897, 2.483748, 0.90486526, 0
867, 3286594185, -0.7011015, 0.2303397, -0.38827664, -0.5520116, 1.7789217, 1.9001386, 0.67872715, 0
868, 3286610852, -0.701903, 0.21513398, -0.38437995, -0.55980074, 1.8090967, 1.1994272, 3.6199417, 0
869, 3286627519, -0.7024642, 0.19855452, -0.37791198, -0.56954193, 2.4536922, 1.0122122, 6.630886, 0
871, 3286660853, -0.70342267, 0.1687479, -0.3537964, -0.59297884, 0.99646086, 4.702509, 0.8443699, 0
872, 3286677520, -0.70389336, 0.15489675, -0.34347615, -0.60219634, 1.0527245, 5.6353626, 0.14042854, 0
874, 3286710854, -0.70605576, 0.12916373, -0.33104447, -0.6126065, 1.8856405, 6.306747, -1.9105144, 0
875, 3286727521, -0.7065073, 0.1152836, -0.33143178, -0.6146425, 3.4197023, 6.7685747, 0.099396706, 0
876, 3286744188, -0.70656496, 0.10008252, -0.3300743, -0.6179608, 5.9635262, 6.412586, 3.4689226, 0
878, 3286777522, -0.7049194, 0.08204435, -0.31752133, -0.62897766, 4.6677732, 7.9723163, -4.5170283, 0
879, 3286794189, -0.702833, 0.078443825, -0.3146915, -0.63317984, 4.1020017, 9.623674, -5.591441, 0
880, 3286810856, -0.70006245, 0.07584716, -0.31643018, -0.635694, 4.3245564, 10.559175, -5.6830187, 0
882, 3286844190, -0.6943569, 0.077147044, -0.3272464, -0.63631904, 7.047966, 12.634235, -3.3276362, 0
886, 3286910858, -0.6798526, 0.1411791, -0.33940044, -0.634627, 7.457417, 14.230797, -2.7450633, 0
887, 3286927525, -0.6725006, 0.15749815, -0.35151917, -0.6320181, 7.3469763, 14.70323, -1.2798796, 0
888, 3286944192, -0.66568905, 0.17369854, -0.36880246, -0.6250974, 7.473423, 16.110535, -2.8400226, 0
890, 3286977526, -0.6685111, 0.23462954, -0.3954903, -0.5845549, 28.1118, 57.14982, 16.23257, 0
891, 3286994193, -0.6675387, 0.2579703, -0.4007867, -0.57209146, -10.961388, 7.1478457, 4.420108, 0
892, 3287010860, -0.6605935, 0.28201932, -0.40979728, -0.56233686, -0.5411298, 0.1152758, -4.2416334, 0
894, 3287044194, -0.6390391, 0.32967174, -0.4375667, -0.5399593, -1.8799572, -2.674281, -0.23499584, 0
895, 3287060861, -0.61590254, 0.36459786, -0.4690578, -0.51748693, -2.4063325, -6.423246, -0.38016796, 0
896, 3287077528, -0.5765566, 0.408425, -0.51901567, -0.48111254, -6.5728674, -6.7887096, 3.287221, 0
898, 3287110862, -0.4759565, 0.483195, -0.62921417, -0.37967455, -13.848773, -13.347718, 22.535866, 0
900, 3287144196, -0.3728315, 0.53488505, -0.7017613, -0.28722998, 26.580029, -20.580917, 36.881138, 0
902, 3287177530, -0.28485572, 0.5811832, -0.71884465, -0.25381267, -24.855114, 2.0667481, 12.735825, 0
903, 3287194197, -0.26826507, 0.5968468, -0.7293746, -0.1997388, -3.3188715, -29.588018, 4.038739, 0
905, 3287227531, -0.21554744, 0.6206955, -0.74081373, -0.13980862, -18.549355, -26.593973, -26.271688, 0
906, 3287244198, -0.21530922, 0.6254773, -0.7397195, -0.1237341, -18.189548, -21.321537, -27.265862, 0
907, 3287260865, -0.23186427, 0.6301278, -0.73142195, -0.11947827, -14.513674, -23.320356, -23.295507, 0
909, 3287294199, -0.30220678, 0.63907856, -0.688929, -0.16031703, -8.437914, -13.222438, -6.7587767, 0
910, 3287310866, -0.34331882, 0.63820374, -0.66577417, -0.17789899, 0.2778558, -1.5559018, -8.473622, 0
911, 3287327533, -0.3752304, 0.633225, -0.6507161, -0.18673998, 3.614805, -3.557775, -14.2184, 0
913, 3287360867, -0.4248021, 0.61223745, -0.6263155, -0.22915651, -2.809386, -9.958473, -15.988342, 0
915, 3287394201, -0.478065, 0.5721408, -0.5961969, -0.29788107, -2.9427183, -2.332213, -10.482108, 0
917, 3287427535, -0.5261413, 0.52131665, -0.56672144, -0.36097944, 0.2784545, -8.538475, -4.4590507, 0
918, 3287444202, -0.5437043, 0.4949083, -0.54890746, -0.39777792, 2.4724596, -7.652611, -3.3544645, 0
919, 3287460869, -0.5559261, 0.4684763, -0.5308825, -0.43556285, 3.3159325, -5.626426, -1.8874583, 0
921, 3287494203, -0.56609696, 0.40950906, -0.49757752, -0.51412857, 5.2879157, -4.6492047, 2.4609938, 0
922, 3287510870, -0.56346226, 0.3787969, -0.48196125, -0.55390596, 4.4123836, -0.76077193, 4.25167, 0
923, 3287527537, -0.55822736, 0.34700277, -0.46906704, -0.58993435, 3.831712, 3.2747037, 4.291916, 0
925, 3287560871, -0.5521083, 0.290227, -0.44927824, -0.63966316, 5.756089, 10.970797, 5.877241, 0
926, 3287577538, -0.55198926, 0.26821652, -0.4439845, -0.6529324, 5.5262785, 14.457728, 4.2782173, 0
928, 3287610872, -0.5613669, 0.21474493, -0.4447048, -0.6641269, 2.3708124, 12.442792, 4.32032, 0
930, 3287644206, -0.5970734, 0.16829151, -0.44289, -0.6473832, -1.8546937, 16.729067, -6.872922, 0
932, 3287677540, -0.6161478, 0.17858317, -0.47833657, -0.5997826, 14.661944, 17.408844, 31.10643, 0
933, 3287694207, -0.63999635, 0.17799248, -0.44925705, -0.5974667, -5.673536, 9.29641, 1.7989063, 0
934, 3287710874, -0.6613816, 0.17884144, -0.42513442, -0.59154546, 3.5908585, -7.9521017, -3.175228, 0
936, 3287744208, -0.68848425, 0.185197, -0.3769937, -0.59130573, -4.1131454, -2.0885565, 0.81800747, 0
937, 3287760875, -0.69360673, 0.1836552, -0.36246395, -0.5948746, -5.50304, 0.6735011, 1.152112, 0
938, 3287777542, -0.6973142, 0.18025982, -0.35195658, -0.59788036, -3.172032, 2.542392, 5.101592, 0
940, 3287810876, -0.6980657, 0.1709423, -0.34215787, -0.605381, -0.41607067, 0.8282286, 2.325285, 0
941, 3287827543, -0.6969241, 0.16632093, -0.33964685, -0.6093844, -0.5544408, 0.28206065, 2.012784, 0
942, 3287844210, -0.69600976, 0.1629484, -0.33742535, -0.61256635, 0.42794365, 0.15547204, -0.3338747, 0
944, 3287877544, -0.6988348, 0.1572355, -0.3253112, -0.6173773, 3.691533, -1.4819359, -2.1056895, 0
945, 3287894211, -0.70123035, 0.15411223, -0.3187935, -0.6188467, 1.8826653, -1.6946377, -1.0828829, 0
946, 3287910878, -0.7042049, 0.14926246, -0.31081343, -0.6207143, -0.968295, -0.9991199, 1.381772, 0
948, 3287944212, -0.70979154, 0.13897821, -0.29515827, -0.6243701, -2.3655639, 0.056921374, -0.05126381, 0
949, 3287960879, -0.7106684, 0.13413586, -0.28863838, -0.62747186, -0.78864926, -0.9641479, -0.586771, 0
950, 3287977546, -0.711047, 0.12927498, -0.28263053, -0.63078946, 0.43571427, -0.66892153, 0.18154907, 0
952, 3288010880, -0.71237326, 0.120888546, -0.27161276, -0.6357765, 0.53769124, -1.0741477, -0.19966507, 0
953, 3288027547, -0.7127242, 0.11779423, -0.26765844, -0.63763845, 0.599736, 0.6147268, 1.2995472, 0
955, 3288060881, -0.7134255, 0.11248875, -0.26217428, -0.6400863, -1.3802462, 0.60375154, -0.18132496, 0
957, 3288094215, -0.7138884, 0.11040255, -0.26128384, -0.64029735, -0.76537675, 1.382858, 0.16588879, 0
959, 3288127549, -0.7139616, 0.10933122, -0.2613217, -0.6403841, -0.033282198, 0.8092898, 1.2543106, 0
960, 3288144216, -0.7143604, 0.10913973, -0.26167935, -0.6398256, 0.13727668, 1.4564427, -0.64361763, 0
961, 3288160883, -0.7151209, 0.10987581, -0.26132247, -0.6389953, 0.35758346, 2.4807086, 0.2656126, 0
963, 3288194217, -0.71772397, 0.1117471, -0.25743273, -0.6373292, -1.0437279, 1.0080534, 0.17107296, 0
964, 3288210884, -0.71972364, 0.11273135, -0.25470874, -0.6359938, 0.3041575, 0.9857754, 0.46270657, 0
965, 3288227551, -0.7215664, 0.11337881, -0.25222555, -0.63477933, 0.73993343, 0.48292708, -0.052297592, 0
967, 3288260885, -0.72506595, 0.1136159, -0.24569866, -0.63330746, -0.43052968, -0.44581884, -0.7661686, 0
968, 3288277552, -0.7265637, 0.11370346, -0.24298163, -0.6326227, 0.08680919, -1.1688366, -0.24601746, 0
969, 3288294219, -0.72762316, 0.11376398, -0.24092187, -0.6321819, 0.16774507, -0.6484949, -0.38912392, 0
972, 3288344220, -0.72852695, 0.11375609, -0.23668398, -0.632743, 0.54698956, -1.0076936, 0.35881233, 0
973, 3288360887, -0.7286234, 0.11381459, -0.23546761, -0.6330754, 0.6609346, -1.5011264, 0.40485, 0
975, 3288394221, -0.7280815, 0.11383847, -0.23358302, -0.63439107, 0.8160171, -0.035465695, 0.77889156, 0
976, 3288410888, -0.72757983, 0.11393957, -0.23335819, -0.63503087, 0.5598302, 0.40715522, 0.49956512, 0
977, 3288427555, -0.7268857, 0.11404799, -0.23360294, -0.6357161, 0.5230406, 0.38513887, 0.51943874, 0
979, 3288460889, -0.72446364, 0.113502175, -0.2367696, -0.6374048, -0.031510353, -0.009407548, 0.4968729, 0
980, 3288477556, -0.7231253, 0.11257626, -0.23882197, -0.6383225, -0.33949086, -0.27141938, 0.30926132, 0
982, 3288510890, -0.7207708, 0.111035556, -0.24200895, -0.64005256, 0.27051142, 0.6339013, -0.14106178, 0
983, 3288527557, -0.72006416, 0.11109825, -0.24289525, -0.6405013, 0.4491651, 1.3019083, 0.46028805, 0
984, 3288544224, -0.7196512, 0.1111429, -0.24353848, -0.64071333, 0.0015872912, 0.5103185, -0.27239513, 0
987, 3288594225, -0.7189861, 0.11061235, -0.24505521, -0.6409733, -1.4613094, -1.1432387, 1.5633612, 0
988, 3288610892, -0.71913415, 0.110113725, -0.24533263, -0.6407871, -0.75589734, 0.020088675, 0.37815666, 0
990, 3288644226, -0.71987706, 0.110648625, -0.24577898, -0.63968873, -0.43659496, 2.510699, -0.22186756, 0
991, 3288660893, -0.720652, 0.110945575, -0.24502693, -0.6390531, 0.24330184, 0.42141545, 0.52444553, 0
992, 3288677560, -0.7214013, 0.111414105, -0.24444129, -0.63835, -0.14513524, -0.39474142, 0.16680336, 0
994, 3288710894, -0.723806, 0.1118564, -0.24066947, -0.6369821, -0.77949446, -2.0491898, 0.343462, 0
995, 3288727561, -0.7249695, 0.1120821, -0.23893417, -0.6362723, -0.18871827, -0.7022535, 0.35065842, 0
996, 3288744228, -0.72591895, 0.112145565, -0.23768638, -0.6356457, -0.7272754, -0.6250701, -0.641201, 0
998, 3288777562, -0.72692907, 0.11267403, -0.23691967, -0.6346834, -0.65212774, -0.026794845, 1.0263939, 0
999, 3288794229, -0.72753745, 0.11284013, -0.23656213, -0.6340899, 0.04479705, -0.45187938, 0.9518604, 0
1002, 3288844230, -0.72862494, 0.11285056, -0.23647182, -0.63287187, -1.3145629, -1.277575, -0.2202959, 0
1003, 3288860897, -0.72910523, 0.112629294, -0.23609763, -0.63249767, -0.6681686, -2.1018062, 0.89756775, 0
1004, 3288877564, -0.729646, 0.11240038, -0.23572779, -0.6320526, -0.53867096, -2.2243588, 0.5465059, 0
1006, 3288910898, -0.73054373, 0.1122995, -0.23506649, -0.6312793, -0.46582493, -1.2257968, 2.5999222, 0
1007, 3288927565, -0.7308773, 0.11232294, -0.2355845, -0.6306958, -2.1166735, -1.6039771, 1.2730904, 0
1008, 3288944232, -0.7311941, 0.112672746, -0.23671903, -0.62984073, -3.3384306, -1.5155035, -0.65721226, 0
1010, 3288977566, -0.7316101, 0.11313842, -0.2389536, -0.62842876, -1.0837474, -3.0378819, -1.4680634, 0
1011, 3288994233, -0.7318079, 0.11190958, -0.23841116, -0.6286243, -0.26377317, -4.042259, 1.0030193, 0
1013, 3289027567, -0.7315547, 0.11094573, -0.2411586, -0.6280418, -1.5713365, -0.33318394, 5.855155, 0
1014, 3289044234, -0.7308973, 0.11173633, -0.24544862, -0.627004, -2.0848513, 0.7646841, 0.9267731, 0
1015, 3289060901, -0.7301532, 0.11334104, -0.2510871, -0.6253483, -2.9873228, 0.7388955, -4.0761075, 0
1017, 3289094235, -0.7303928, 0.11230941, -0.2536916, -0.6242023, 0.39182398, 0.14623459, -3.2838378, 0
1018, 3289110902, -0.7310576, 0.10971145, -0.25172195, -0.6246835, 0.4909257, 0.11320272, 0.37351036, 0
1019, 3289127569, -0.731419, 0.10794182, -0.25140393, -0.62469685, 1.6840055, 4.1798944, -3.3207316, 0
1021, 3289160903, -0.7345803, 0.10215023, -0.24547422, -0.62431943, -0.92791295, 0.06977996, -2.554192, 0
1022, 3289177570, -0.73689824, 0.10072601, -0.2426163, -0.62293494, 1.6656673, 4.1175876, 4.9431562, 0
1023, 3289194237, -0.7387175, 0.09964047, -0.24016516, -0.6219035, 1.1336708, 0.99467635, 6.090539, 0
1025, 3289227571, -0.7404461, 0.09945867, -0.23879069, -0.6204045, -0.080669686, 1.7342085, -0.12295818, 0
1026, 3289244238, -0.7410667, 0.099992, -0.23824547, -0.6197873, 2.4615436, 0.9765634, -0.6032038, 0
1029, 3289294239, -0.74087006, 0.10096784, -0.23766595, -0.6200863, 1.1180179, 3.9581864, 0.5912237, 0
1030, 3289310906, -0.7402313, 0.101474494, -0.23798709, -0.6206432, 0.7623523, 2.45506, 1.3721466, 0
1031, 3289327573, -0.7392231, 0.1015327, -0.23849036, -0.62164116, 1.6592127, 1.3983003, 0.46600628, 0
1033, 3289360907, -0.7366631, 0.10079238, -0.23989116, -0.6242562, 1.8749325, 1.2665782, -1.6012344, 0
1034, 3289377574, -0.7346505, 0.10036881, -0.24186398, -0.62593275, 1.8089414, 2.475902, -3.0539799, 0
1035, 3289394241, -0.73283064, 0.09997821, -0.24333887, -0.62755454, 0.37859857, 1.8091166, -0.3741703, 0
1037, 3289427575, -0.7293632, 0.09889339, -0.24616335, -0.63065684, 2.0780182, 1.5076844, 1.4858541, 0
1038, 3289444242, -0.72770727, 0.09802682, -0.24783653, -0.63204837, 0.1436243, 0.52314246, -0.3060646, 0
1040, 3289477576, -0.72478014, 0.0966131, -0.2507525, -0.6344747, 0.17487155, 0.70338184, 0.21800232, 0
1041, 3289494243, -0.72344935, 0.095820874, -0.25216562, -0.6355525, 0.18188503, 0.6694792, -0.06192875, 0
1044, 3289544244, -0.7208868, 0.09406517, -0.2562569, -0.63708824, 0.21772304, 1.14188, 0.76049805, 0
1045, 3289560911, -0.72052705, 0.09344352, -0.2570273, -0.6372763, -0.048287228, 0.13548696, 0.9050274, 0
1046, 3289577578, -0.72014, 0.09299784, -0.25792357, -0.637417, -0.8398045, 0.14969914, 0.45950985, 0
1048, 3289610912, -0.72029227, 0.09209621, -0.2586532, -0.63708025, -1.2011641, -0.19022797, 0.6161642, 0
1049, 3289627579, -0.7207678, 0.09185672, -0.25882012, -0.63650894, -0.77758414, 0.1630849, -0.7942438, 0
1050, 3289644246, -0.72138596, 0.09183879, -0.25888297, -0.6357851, -0.11092213, 1.8410801, 1.132534, 0
1052, 3289677580, -0.72314554, 0.091829, -0.2589897, -0.63374084, 0.05242351, 1.0043757, 0.8005705, 0
1053, 3289694247, -0.7238742, 0.09208286, -0.25981218, -0.6325343, -1.5503652, 0.70495665, -1.2121239, 0
1054, 3289710914, -0.7245619, 0.092186734, -0.2604461, -0.63147026, -1.3747112, 0.85998666, -0.14859867, 0
1056, 3289744248, -0.72646105, 0.09181092, -0.2610636, -0.6290834, -0.7172447, -0.23607427, 0.24776554, 0
1058, 3289777582, -0.7286144, 0.09157287, -0.2612112, -0.62656146, -0.35894492, -0.12509215, 1.152791, 0
1060, 3289810916, -0.7319646, 0.09200384, -0.2589977, -0.62350506, -0.2268672, 0.9473437, 1.4910603, 0
1063, 3289860917, -0.7364293, 0.092269115, -0.25555995, -0.61961484, -1.2137992, -0.85390407, -0.6865854, 0
1064, 3289877584, -0.7378911, 0.0927133, -0.2544385, -0.6182695, 0.5351189, 0.3874834, 0.85798454, 0
1065, 3289894251, -0.7392636, 0.09310064, -0.25318682, -0.6170845, 0.32340536, -0.75928766, -0.029425621, 0
1067, 3289927585, -0.74140894, 0.094010375, -0.25007173, -0.6156413, -0.5585646, -0.34234416, 0.741416, 0
1068, 3289944252, -0.7424774, 0.09453323, -0.24881215, -0.61478305, 0.11951883, 0.062601954, 0.89603615, 0
1069, 3289960919, -0.74340594, 0.09512296, -0.2477589, -0.61399496, 0.594711, -0.020171598, 0.7265091, 0
1071, 3289994253, -0.7441972, 0.0961809, -0.24623138, -0.6134862, -0.2521466, -0.14004327, -0.6770859, 0
1072, 3290010920, -0.74447125, 0.09679411, -0.24576178, -0.61324555, -0.23707503, -0.20921321, 0.42260742, 0
1075, 3290060921, -0.744971, 0.098091885, -0.24364452, -0.6132772, -0.011971214, -1.1672333, -0.08997822, 0
1076, 3290077588, -0.7450478, 0.09809858, -0.2427486, -0.6135379, 0.044500537, -1.1976213, 0.2184658, 0
1077, 3290094255, -0.7450974, 0.09803862, -0.24215388, -0.6137223, 0.068949625, -0.6031394, 0.20871544, 0
1079, 3290127589, -0.7439297, 0.09763773, -0.24299373, -0.6148696, -0.37989882, -0.2821376, 0.6108389, 0
1080, 3290144256, -0.74309075, 0.09743817, -0.24421085, -0.6154334, -0.63370275, -0.014008004, 1.262475, 0
1081, 3290160923, -0.7423769, 0.09730573, -0.24575093, -0.6157027, 0.058659885, -0.4441551, 0.16135883, 0
1083, 3290194257, -0.74053293, 0.09648326, -0.24997064, -0.6163537, -0.25035822, 0.52352905, 0.94476795, 0
1084, 3290210924, -0.7399874, 0.09599318, -0.25089628, -0.61670935, -0.4824735, -0.052065667, -0.053059578, 0
1085, 3290227591, -0.73971426, 0.09601667, -0.2517298, -0.6166935, 0.10341918, 0.7567804, 0.45701885, 0
1087, 3290260925, -0.7399633, 0.09606052, -0.25147966, -0.6164899, -0.17737287, 0.002595097, 0.07090187, 0
1088, 3290277592, -0.7402064, 0.09633689, -0.25153622, -0.61613184, -0.5916145, 0.83581173, 0.45405483, 0
1090, 3290310926, -0.7406648, 0.096990906, -0.2523613, -0.6151404, -0.18186435, 0.67332864, 0.38531208, 0
1091, 3290327593, -0.74103373, 0.09698645, -0.25217652, -0.6147722, -0.5846376, 0.26063308, 0.32048798, 0
1092, 3290344260, -0.74167234, 0.09728635, -0.25186482, -0.6140822, 0.12906575, 0.6851549, 0.4918089, 0
1094, 3290377594, -0.74308217, 0.09765676, -0.25098786, -0.6126763, 0.12841634, 0.7314875, 1.0124197, 0
1095, 3290394261, -0.7434605, 0.09761441, -0.2506527, -0.6123612, -0.31867626, 0.13315013, -0.017676353, 0
1096, 3290410928, -0.7438946, 0.097666815, -0.2505933, -0.61185, -0.62892836, 0.5527616, 0.43570423, 0
1098, 3290444262, -0.74495465, 0.097880974, -0.2501804, -0.6106938, 0.62627554, -0.1804581, 0.6242075, 0
1099, 3290460929, -0.74530345, 0.09791146, -0.2497192, -0.61045194, 0.20958312, -0.039292347, -0.16236973, 0
1102, 3290510930, -0.7470673, 0.098313086, -0.24748702, -0.60913926, 0.0076071657, -0.53017443, 0.0115356445, 0
1103, 3290527597, -0.7471872, 0.098297656, -0.24705638, -0.6091691, -0.12471661, 0.18039742, 0.5572243, 0
1104, 3290544264, -0.7473, 0.09823483, -0.24661182, -0.6092209, -0.7820165, -0.35912764, 0.7839222, 0
1106, 3290577598, -0.74746203, 0.09855718, -0.24659853, -0.60897565, 0.09863314, -0.8813411, -0.43942928, 0
1107, 3290594265, -0.7473904, 0.099300444, -0.24696839, -0.608793, 0.5901082, -0.12462552, -0.026906013, 0
1108, 3290610932, -0.7475442, 0.09996196, -0.24670675, -0.6086018, 0.58724195, -0.32177997, 0.087304115, 0
1110, 3290644266, -0.7479124, 0.10045461, -0.24586032, -0.6084107, -0.76256037, -0.909769, -0.11619282, 0
1111, 3290660933, -0.74782556, 0.100416094, -0.24568753, -0.6085937, -1.0270424, -1.4003047, 0.45952797, 0
1112, 3290677600, -0.74787945, 0.10057044, -0.24521479, -0.60869265, -0.88316554, -0.9257008, 0.7128992, 0
1114, 3290710934, -0.7479676, 0.10085842, -0.24467853, -0.6087525, 0.14199218, -0.82774466, 1.3703995, 0
1117, 3290760935, -0.7478741, 0.100649476, -0.24461505, -0.6089276, -1.2914644, -1.4274626, 1.4349699, 0
1118, 3290777602, -0.7478252, 0.100437686, -0.24466603, -0.609002, -1.9033583, -2.5728812, 0.028264046, 0
1119, 3290794269, -0.7476924, 0.10039061, -0.24484882, -0.60909927, -1.0722599, -2.19533, 0.19425774, 0
1121, 3290827603, -0.74812144, 0.100749366, -0.24307346, -0.60922444, -0.70525366, -3.0730786, 1.5332699, 0
1122, 3290844270, -0.7485944, 0.10044484, -0.2413085, -0.6093952, -2.2817101, -3.605471, 1.6957159, 0
1123, 3290860937, -0.74902284, 0.100546755, -0.24023469, -0.60927606, -2.4335349, -3.292717, 1.2060194, 0
1125, 3290894271, -0.7498532, 0.10139428, -0.23858188, -0.6087636, -3.241351, -1.8427995, 0.42554665, 0
1126, 3290910938, -0.75012493, 0.101664916, -0.23851782, -0.6084085, -3.1427338, -1.8443309, 1.9206438, 0
1127, 3290927605, -0.7503666, 0.101687886, -0.23894888, -0.6079375, -2.161568, -1.0985212, 1.9643545, 0
1129, 3290960939, -0.75061136, 0.10363516, -0.24129252, -0.60637903, -2.0291696, -1.880009, -0.2859745, 0
1131, 3290994273, -0.7514369, 0.10616185, -0.24307834, -0.6042022, -1.128676, -0.2122421, -4.122414, 0
1133, 3291027607, -0.7520394, 0.102006346, -0.24122855, -0.6049096, 2.479574, 3.8179917, -0.6376381, 0
1134, 3291044274, -0.75208676, 0.09873776, -0.23994336, -0.6059034, 2.9740126, 2.505456, -1.7334051, 0
1135, 3291060941, -0.7516686, 0.09680342, -0.24073821, -0.6064189, 3.548316, 2.8845613, -0.854331, 0
1137, 3291094275, -0.7511861, 0.093315884, -0.24265787, -0.6067981, 1.1391125, 0.44035494, 0.86207867, 0
1138, 3291110942, -0.7514397, 0.092049845, -0.24157855, -0.6071082, 1.6047568, -0.29383025, 2.498003, 0
1139, 3291127609, -0.7515503, 0.09128576, -0.24037753, -0.607563, 2.615954, 0.766344, 4.19318, 0
1141, 3291160943, -0.75198996, 0.09179329, -0.2378525, -0.607936, 0.66481966, 1.4446799, 2.7530289, 0
1142, 3291177610, -0.75215274, 0.09224956, -0.2365434, -0.60817635, -0.4406337, -0.5471206, 0.81290245, 0
1143, 3291194277, -0.7521103, 0.09331548, -0.23581213, -0.6083501, 1.7032948, 2.1698825, -1.6440849, 0
1146, 3291244278, -0.7508354, 0.09712452, -0.23508766, -0.60960793, 2.3766139, 4.8936505, 0.55933475, 0
1148, 3291277612, -0.7483472, 0.09778848, -0.23657404, -0.6119819, 2.5100725, 1.5081892, -1.398284, 0
1149, 3291294279, -0.746614, 0.09708058, -0.23759094, -0.6138147, 1.6835234, 0.32991892, -1.4639559, 0
1150, 3291310946, -0.74456614, 0.0961147, -0.23920135, -0.61582565, 3.1766896, 2.3951232, -0.22501564, 0
1152, 3291344280, -0.73918164, 0.09375736, -0.24413325, -0.62072074, 1.4961773, 2.4031134, -0.005906105, 0
1153, 3291360947, -0.7363034, 0.09243159, -0.24688587, -0.62324655, 1.2649941, 1.2750967, -0.13912964, 0
1154, 3291377614, -0.73363, 0.09134253, -0.24952054, -0.6255064, 1.2911263, -0.009881396, -0.06277561, 0
1156, 3291410948, -0.72828954, 0.08885827, -0.25487006, -0.6299327, -0.15397385, -0.12505277, -0.41256046, 0
1157, 3291427615, -0.7260663, 0.08783178, -0.25718683, -0.6316988, 0.18681596, 1.0201455, 0.45132446, 0
1158, 3291444282, -0.7242749, 0.08709552, -0.25925753, -0.6330097, -0.03108329, 0.029078364, 0.29171658, 0
1160, 3291477616, -0.7212378, 0.085679896, -0.26322865, -0.6350282, -1.4985212, 0.24620232, -0.38719273, 0
1161, 3291494283, -0.72027636, 0.08511582, -0.26502404, -0.63544846, -2.0568278, 0.49614757, -0.7703247, 0
1162, 3291510950, -0.7199849, 0.08471016, -0.26639435, -0.63526, -0.8058362, 0.34931263, -0.13586426, 0
1164, 3291544284, -0.72019595, 0.08342104, -0.26871377, -0.6342136, -1.3463527, 1.1700253, 1.3922501, 0
1165, 3291560951, -0.72073627, 0.08285053, -0.26960847, -0.6332942, -0.9468636, 1.138059, 0.96728706, 0
1166, 3291577618, -0.7214764, 0.08239931, -0.2706116, -0.6320814, -0.74333006, 1.6470641, 0.8839445, 0
1168, 3291610952, -0.72325444, 0.08162713, -0.27247193, -0.6293443, -0.5931788, 0.96551573, 0.511261, 0
1169, 3291627619, -0.72403157, 0.08132681, -0.2738449, -0.6278919, -1.6153976, 0.86681867, 0.15298653, 0
1171, 3291660953, -0.7264041, 0.081226274, -0.27600995, -0.62420595, -0.7370407, 1.5817057, -0.18841743, 0
1173, 3291694287, -0.7291919, 0.07991279, -0.27669823, -0.6208111, -0.86769164, 0.24584112, -0.16797256, 0
1175, 3291727621, -0.73216623, 0.07903381, -0.27732018, -0.61713433, -0.8549927, 0.39069527, 1.1358175, 0
1176, 3291744288, -0.7335585, 0.07848607, -0.27788144, -0.61529577, -1.2008125, -0.15891962, -0.58825016, 0
1177, 3291760955, -0.7347338, 0.07813609, -0.2788982, -0.61347526, -1.0479286, 0.8903308, 0.7125864, 0
1179, 3291794289, -0.73752177, 0.077719115, -0.28015906, -0.60959595, -0.554703, 0.45841357, 0.9533138, 0
1180, 3291810956, -0.7390049, 0.076877825, -0.28003398, -0.6079619, -1.682226, -1.1260533, 0.45179367, 0
1181, 3291827623, -0.7404905, 0.076441295, -0.28004733, -0.60620064, -0.7946134, 0.020077387, 0.14322376, 0
1183, 3291860957, -0.74414694, 0.07546514, -0.27819163, -0.60268986, -0.5032503, 0.19704556, 0.19311333, 0
1184, 3291877624, -0.7458122, 0.07502567, -0.2770473, -0.6012114, -0.39644217, -0.1314768, 0.62049484, 0
1185, 3291894291, -0.74747324, 0.0746528, -0.2756308, -0.59984463, -0.71627915, -0.38074124, 0.14840508, 0
1188, 3291944292, -0.75216705, 0.07421746, -0.2706592, -0.5962847, -0.26647228, -0.57619953, -0.53495884, 0
1189, 3291960959, -0.7532421, 0.074366435, -0.2695706, -0.5954014, -0.12582746, -0.5456761, -1.0139923, 0
1191, 3291994293, -0.75560564, 0.07440645, -0.2664966, -0.5937834, 0.08610342, -0.6681969, -0.2716856, 0
1192, 3292010960, -0.7561276, 0.074406534, -0.26589018, -0.5933905, 0.38497368, 0.4697251, 1.2327795, 0
1193, 3292027627, -0.7565619, 0.07450914, -0.26527524, -0.5930993, -0.9867594, 0.25654492, 0.20991993, 0
1195, 3292060961, -0.7573416, 0.07519428, -0.2648501, -0.5922069, 0.19274941, -0.37275603, 0.521122, 0
1196, 3292077628, -0.7574371, 0.075565346, -0.2649012, -0.5920149, 0.61440945, 0.39016935, 0.35755348, 0
1198, 3292110962, -0.758429, 0.077011876, -0.2638854, -0.5910111, 0.29157153, 0.24551915, 0.9453125, 0
1199, 3292127629, -0.7591625, 0.077789165, -0.2630052, -0.5903596, 0.3642196, 0.29764014, 0.87360096, 0
1200, 3292144296, -0.7596828, 0.07844003, -0.26234517, -0.5898979, -0.9471626, 0.009673865, 0.18944645, 0
1203, 3292194297, -0.7615023, 0.08098571, -0.26014578, -0.58817923, 1.0222825, 0.5930105, 1.1346235, 0
1204, 3292210964, -0.76189834, 0.081686065, -0.2593967, -0.5879002, -0.141937, -1.0509808, -0.15758705, 0
1206, 3292244298, -0.7628032, 0.08352527, -0.25815699, -0.58701336, -0.02843907, -0.694107, 1.035306, 0
1207, 3292260965, -0.76340336, 0.08424664, -0.25669485, -0.58677155, -0.11013715, -1.0042821, -0.10629749, 0
1208, 3292277632, -0.7637379, 0.084881544, -0.25559977, -0.5867226, -0.29833207, -0.47706482, 0.21232414, 0
1210, 3292310966, -0.7638021, 0.08559634, -0.25503352, -0.5867817, 0.35702956, -0.7559085, -0.20625019, 0
1211, 3292327633, -0.7633596, 0.08566187, -0.25546536, -0.58716, -0.08950217, -0.8349705, 1.6739502, 0
1212, 3292344300, -0.76299095, 0.08599737, -0.2561802, -0.5872786, -0.73852515, -0.630348, -0.1472187, 0
1214, 3292377634, -0.7631262, 0.08794717, -0.25663292, -0.5866161, 0.3841414, -0.03709052, 0.46541023, 0
1215, 3292394301, -0.7633363, 0.08963012, -0.25620818, -0.5862734, 0.79368955, 0.6935425, 0.9204197, 0
1218, 3292444302, -0.7660347, 0.09426974, -0.25082102, -0.58435285, 0.30914372, 0.26897794, 1.3287363, 0
1219, 3292460969, -0.76714873, 0.09527862, -0.24812838, -0.58387685, -0.07452184, -1.0644783, -0.76761436, 0
1220, 3292477636, -0.7678334, 0.096537724, -0.24646436, -0.58347476, 0.4692216, -0.055092815, 0.30891705, 0
1222, 3292510970, -0.7683812, 0.09800237, -0.24457261, -0.5833054, -0.26433152, -0.28191555, -0.16453743, 0
1223, 3292527637, -0.76842254, 0.09886606, -0.24416745, -0.58327496, -0.39826238, -0.33263275, -0.053339005, 0
1225, 3292560971, -0.76863754, 0.10053769, -0.24207422, -0.58357835, 0.69264907, -1.1407758, -0.22287083, 0
1226, 3292577638, -0.7686801, 0.10134201, -0.2407828, -0.58391744, -0.10496277, -0.6379051, 1.0574951, 0
1227, 3292594305, -0.76880276, 0.10200286, -0.23913217, -0.5843192, 0.3008607, -0.47628224, 0.6441488, 0
1229, 3292627639, -0.76878697, 0.10271575, -0.23576842, -0.5855806, 0.30387875, -1.0843594, 0.7651453, 0
1230, 3292644306, -0.76840895, 0.10356848, -0.23519473, -0.58615685, -0.1955134, -0.38606682, -0.6799116, 0
1231, 3292660973, -0.76777107, 0.10390812, -0.23464641, -0.5871515, -0.58126026, -1.3661325, -0.27277374, 0
1233, 3292694307, -0.7666099, 0.103939846, -0.23274031, -0.58941734, 2.1987417, -1.1292017, 0.9158201, 0
1234, 3292710974, -0.7660884, 0.103566445, -0.23103552, -0.5908301, 1.7835325, -2.6197333, 0.8184166, 0
1235, 3292727641, -0.76546305, 0.103883244, -0.2306845, -0.5917214, 0.64227897, -1.1527419, -0.34455776, 0
1237, 3292760975, -0.76438355, 0.10449524, -0.22869964, -0.5937762, -1.3836598, -1.8665887, -0.7421179, 0
1238, 3292777642, -0.76330674, 0.10436331, -0.22809772, -0.595414, -0.27866566, -0.90783036, 0.031894684, 0
1239, 3292794309, -0.7620703, 0.10431932, -0.22746602, -0.5972442, 0.22117606, -2.29362, -0.3076868, 0
1241, 3292827643, -0.7593473, 0.104972884, -0.22728844, -0.6006558, 1.1034907, -2.8221908, 1.2630606, 0
1242, 3292844310, -0.7581057, 0.10559699, -0.2275329, -0.60202074, -0.6456325, -1.4872814, 1.5914268, 0
1245, 3292894311, -0.7550983, 0.107183024, -0.22727968, -0.6056053, -1.0587542, -2.2304597, -0.5611267, 0
1246, 3292910978, -0.75416, 0.10811974, -0.2270906, -0.6066779, -0.55851936, -2.098795, 1.9753456, 0
1247, 3292927645, -0.75298446, 0.109007716, -0.22841941, -0.60747963, -1.5487251, -1.5701147, 2.0488186, 0
1249, 3292960979, -0.75070584, 0.112260275, -0.23355721, -0.60775375, -2.6303046, 0.28595158, -2.723363, 0
1250, 3292977646, -0.7500936, 0.11296132, -0.23469797, -0.6079403, -0.8250393, -0.30504566, -1.957242, 0
1251, 3292994313, -0.74967057, 0.11208271, -0.23369461, -0.60901016, 0.97790015, -1.587438, -2.4528627, 0
1253, 3293027647, -0.7488384, 0.10805528, -0.2308222, -0.6118505, 2.588957, 1.4366417, 2.0508146, 0
1254, 3293044314, -0.7484678, 0.10717585, -0.23111635, -0.6123476, 1.7985408, 6.4896846, -1.3798819, 0
1256, 3293077648, -0.7472857, 0.105954796, -0.2319841, -0.6136744, 0.049572982, 1.364699, -0.7436018, 0
1257, 3293094315, -0.74691296, 0.10531871, -0.23158789, -0.6143869, 2.2789347, -0.1416148, 2.8035202, 0
1260, 3293144316, -0.7444029, 0.10407117, -0.23399365, -0.61672974, 1.519263, 3.6511047, 0.5178051, 0
1261, 3293160983, -0.7434684, 0.103615314, -0.23494065, -0.6175731, 0.070538275, 3.5321329, -0.9629688, 0
1262, 3293177650, -0.74246705, 0.10339883, -0.2356204, -0.61855435, 0.39288062, 1.4497403, -2.0984716, 0
1264, 3293210984, -0.7400634, 0.10402304, -0.23704189, -0.62078315, 1.6362438, 1.143989, 1.6182575, 0
1265, 3293227651, -0.73898447, 0.104091614, -0.23762858, -0.6218319, 0.04210861, 2.2172885, 0.8884926, 0
1266, 3293244318, -0.7379189, 0.103941604, -0.23838861, -0.62283045, 0.3612741, 2.073231, 0.013160706, 0
1268, 3293277652, -0.7354848, 0.10412799, -0.24082205, -0.62473947, 1.4753231, 1.8392514, 0.88989925, 0
1269, 3293294319, -0.7344634, 0.10394626, -0.24175048, -0.625612, 0.91414577, 0.67618155, 1.4918385, 0
1270, 3293310986, -0.7336068, 0.103915185, -0.24293038, -0.62616503, 0.9744809, 1.2053623, 0.88387775, 0
1272, 3293344320, -0.7313253, 0.10318944, -0.24586974, -0.6278045, -1.1607759, -0.76289916, -1.2872667, 0
1274, 3293377654, -0.7298905, 0.1023055, -0.24712864, -0.62912315, -0.11877816, -1.1578631, 0.64131737, 0
1276, 3293410988, -0.72956014, 0.10178982, -0.24707122, -0.62961245, 0.3029436, -0.19364883, 1.0225334, 0
1277, 3293427655, -0.72951937, 0.101888925, -0.24662293, -0.6298194, -0.40881625, 0.640789, 0.6222887, 0
1279, 3293460989, -0.7301101, 0.10232748, -0.2453203, -0.62957245, 0.39929098, -0.641694, 0.96925545, 0
1280, 3293477656, -0.7303438, 0.1024562, -0.24493305, -0.6294311, -0.35233268, -0.77027196, -1.3284359, 0
1281, 3293494323, -0.7303885, 0.10264625, -0.24486376, -0.62937516, 0.099204674, 0.7412514, -0.008759499, 0
1283, 3293527657, -0.73029524, 0.1018621, -0.24544674, -0.6293839, -0.32006165, 0.85220975, 0.75387955, 0
1284, 3293544324, -0.73016125, 0.10156199, -0.24619444, -0.62929595, -0.24192825, 0.71880335, 0.58191395, 0
1285, 3293560991, -0.72979856, 0.10095444, -0.24716718, -0.6294329, 0.7581219, 1.3352965, 0.7673712, 0
1287, 3293594325, -0.72931, 0.10027656, -0.24939077, -0.6292304, 0.015577023, -0.673373, 0.6605177, 0
1289, 3293627659, -0.7283075, 0.10144458, -0.25389975, -0.6284006, -0.318135, 0.22633235, 0.10011387, 0
1291, 3293660993, -0.7271419, 0.103315435, -0.25852263, -0.62756014, -0.08176921, -0.45482546, -0.34349537, 0
1292, 3293677660, -0.7269728, 0.1036917, -0.25955635, -0.62726736, -0.017556272, -1.3477954, 2.173791, 0
1293, 3293694327, -0.727126, 0.103688836, -0.2595769, -0.6270816, -4.0331097, -2.8857942, -1.4462929, 0
1295, 3293727661, -0.7244514, 0.10736911, -0.26712224, -0.62638885, 0.15750276, 0.6609442, 0.579504, 0
1296, 3293744328, -0.7228135, 0.10951635, -0.27203435, -0.62579495, -1.9477476, 1.0440956, -1.4231462, 0
1297, 3293760995, -0.7199001, 0.11377946, -0.28022847, -0.62477636, -2.3363357, -0.068571374, -4.073881, 0
1299, 3293794329, -0.715372, 0.115726665, -0.2899868, -0.62516636, -1.9411235, -7.171155, -1.3518076, 0
1300, 3293810996, -0.7125958, 0.11844973, -0.29768148, -0.62420994, 0.31407708, 0.6180358, -1.5527678, 0
1301, 3293827663, -0.7111188, 0.1194265, -0.30249247, -0.62339455, -0.10574333, 1.8572907, 4.1144724, 0
1303, 3293860997, -0.7087926, 0.12126415, -0.31054577, -0.6217271, -1.5372607, 0.06738625, -0.5097065, 0
1304, 3293877664, -0.7067501, 0.12371666, -0.31682816, -0.62039804, -2.1544573, -0.035609078, 1.7725468, 0
1306, 3293910998, -0.7000884, 0.13256058, -0.33866504, -0.61456096, -0.75514096, -1.137571, -3.3723202, 0
1307, 3293927665, -0.6963098, 0.13780572, -0.34790197, -0.61253697, -0.89015174, 4.520451, 6.504402, 0
1308, 3293944332, -0.69479823, 0.13842009, -0.35371968, -0.61078054, -1.697774, -5.248131, -2.430519, 0
1310, 3293977666, -0.68391967, 0.14889704, -0.3777009, -0.60621834, 1.0294734, 5.699342, 6.091467, 0
1311, 3293994333, -0.6802602, 0.151637, -0.3856426, -0.6046546, -0.79364276, 1.0696973, -1.2583752, 0
1312, 3294011000, -0.6747182, 0.15530702, -0.39554128, -0.60353744, -1.2584634, -0.6331458, -2.524867, 0
1314, 3294044334, -0.6624535, 0.16182587, -0.41699684, -0.60096294, 1.265498, 0.16366535, -0.4895115, 0
1316, 3294077668, -0.65184957, 0.16922212, -0.43408763, -0.5984137, 5.348477, 6.645968, 6.849043, 0
1318, 3294111002, -0.6476458, 0.1777501, -0.4429028, -0.5940304, -2.117948, -0.17991194, 0.58601284, 0
1319, 3294127669, -0.6437136, 0.182959, -0.4509007, -0.5906965, -3.4395318, -0.38073084, -0.34469795, 0
1320, 3294144336, -0.6394669, 0.18847322, -0.45897973, -0.5873437, -2.5595272, 1.3283865, -0.13649368, 0
1322, 3294177670, -0.63146955, 0.19733083, -0.4741038, -0.58103985, -0.84752816, 1.8518755, 1.5389223, 0
1323, 3294194337, -0.6299883, 0.20072389, -0.47908476, -0.5773885, -1.3381017, -0.3558419, 0.43348598, 0
1324, 3294211004, -0.6286497, 0.20385842, -0.48525155, -0.5725794, -3.482931, -2.5954175, -3.0968676, 0
1326, 3294244338, -0.6290719, 0.21167484, -0.49458876, -0.56117684, 0.023036111, -2.424459, -0.16045284, 0
1327, 3294261005, -0.62536347, 0.2200776, -0.5041581, -0.5535216, -2.876198, -0.7395102, -1.6130133, 0
1328, 3294277672, -0.6219866, 0.22777177, -0.513858, -0.5452317, -5.399056, 0.4991735, -0.4780779, 0
1331, 3294327673, -0.6140773, 0.24006155, -0.5349354, -0.5283927, -0.35970688, -1.5911697, -2.031084, 0
1333, 3294361007, -0.6075335, 0.24810228, -0.5468709, -0.51995736, -0.5374088, -2.6041124, -1.5850897, 0
1334, 3294377674, -0.5998889, 0.25409895, -0.5561975, -0.5160295, 0.054798726, -0.14551264, -1.4034586, 0
1335, 3294394341, -0.59070486, 0.26187992, -0.56618536, -0.5118556, -0.78593326, 0.42743948, 1.1934137, 0
1337, 3294427675, -0.57189226, 0.2723994, -0.5865872, -0.50470644, -0.16552123, -1.4648316, -2.1587458, 0
1338, 3294444342, -0.56292915, 0.275525, -0.59554386, -0.5025927, 0.14508039, -0.7017569, 0.27883816, 0
1339, 3294461009, -0.5551507, 0.27732798, -0.6026861, -0.50173855, 1.5706497, -0.5497125, -0.840168, 0
1341, 3294494343, -0.53228766, 0.28409716, -0.6219165, -0.49925327, -3.3017206, -0.41793996, 1.7323828, 0
1342, 3294511010, -0.51941377, 0.2902605, -0.63231164, -0.49620077, -3.7425725, 0.07573066, -0.5557785, 0
1343, 3294527677, -0.5055084, 0.29676524, -0.6422648, -0.4939258, -0.98329717, 0.65718913, -1.4314375, 0
1346, 3294577678, -0.4719777, 0.29398826, -0.65842074, -0.50731164, -1.2957004, 2.57533, 1.9322882, 0
1347, 3294594345, -0.4636786, 0.2853045, -0.6613164, -0.5160806, -1.6707166, 2.0626776, 3.0050497, 0
1349, 3294627679, -0.44172496, 0.25842184, -0.66739213, -0.5410731, -3.80771, 3.3815498, 2.8590307, 0
1350, 3294644346, -0.43248576, 0.24269742, -0.6670151, -0.5560755, -5.504228, 3.3057532, 4.2596264, 0
1351, 3294661013, -0.43158215, 0.22506995, -0.6600636, -0.5722511, -3.4563189, 2.430448, 2.4851465, 0
1353, 3294694347, -0.4641478, 0.19587043, -0.62630826, -0.5949911, -12.402583, 10.11384, 0.7610779, 0
1354, 3294711014, -0.5052103, 0.19023368, -0.5942737, -0.59622777, -6.0126815, 6.11599, -1.5041084, 0
1355, 3294727681, -0.54593205, 0.19046879, -0.56291986, -0.5906574, -1.478992, 2.8685446, -7.154896, 0
1357, 3294761015, -0.6077398, 0.20028166, -0.5105579, -0.5744087, 0.5629355, -3.449301, -8.273939, 0
1358, 3294777682, -0.62838143, 0.20689833, -0.4910322, -0.5668266, -0.2332718, -4.5472827, -5.2981796, 0
1361, 3294827683, -0.67393476, 0.21119317, -0.42912075, -0.56315196, 0.33355966, -3.0430176, -2.1119747, 0
1362, 3294844350, -0.6841425, 0.20509802, -0.4114685, -0.5662619, 0.9433691, -1.6619182, -1.4590902, 0
1364, 3294877684, -0.6937938, 0.18972456, -0.3834838, -0.57937056, 2.7851834, 0.27938125, 0.7862301, 0
1365, 3294894351, -0.6949548, 0.18246329, -0.37153915, -0.5880296, 3.6677752, 1.6233919, 3.6717052, 0
1366, 3294911018, -0.6969167, 0.17419127, -0.3574017, -0.5969117, 4.3516755, 3.3999074, 4.2543964, 0
1368, 3294944352, -0.7094617, 0.1503852, -0.3304728, -0.6040789, 3.7433097, 6.9432173, -1.7401066, 0
1369, 3294961019, -0.71757406, 0.13622451, -0.32302627, -0.60187966, 6.634958, 5.7644925, -1.3811016, 0
1370, 3294977686, -0.7226938, 0.12384321, -0.31747282, -0.601384, 11.847008, 4.214084, -0.340127, 0
1372, 3295011020, -0.7209331, 0.11635421, -0.3088174, -0.6094457, 11.549499, 9.430144, -11.081185, 0
1373, 3295027687, -0.7178754, 0.11345593, -0.31896073, -0.60837644, 11.931378, 13.41795, -10.806181, 0
1374, 3295044354, -0.71495736, 0.10769483, -0.33683583, -0.6032034, 16.354126, 11.928603, -8.343822, 0
1376, 3295077688, -0.72376037, 0.14178348, -0.36585686, -0.56770766, 44.07645, 82.88973, 40.84889, 0
1377, 3295094355, -0.73549855, 0.1622339, -0.35853297, -0.5515896, 42.538284, 19.957851, -7.4102354, 0
1378, 3295111022, -0.7457565, 0.16868976, -0.3588705, -0.5354232, -28.846157, -8.915134, 6.460291, 0
1380, 3295144356, -0.72746444, 0.21370003, -0.4010183, -0.5141859, -0.7953563, 5.5513906, -2.2131329, 0
1381, 3295161023, -0.7137482, 0.2317487, -0.42621174, -0.50524706, 5.624422, -3.1968632, 0.18984413, 0
1382, 3295177690, -0.6996138, 0.25369266, -0.45257872, -0.49135333, -0.22592404, -2.2085466, -1.2449093, 0
1384, 3295211024, -0.63738185, 0.31956273, -0.5393199, -0.448144, -3.094834, -3.208933, -1.0343103, 0
1385, 3295227691, -0.58445746, 0.36364692, -0.5982635, -0.41027585, -5.580004, -5.725823, 1.9388189, 0
1388, 3295277692, -0.4307527, 0.45650673, -0.74220777, -0.23506764, -5.6470566, -31.909342, 47.963303, 0
1389, 3295294359, -0.36244407, 0.49771154, -0.7581209, -0.21504746, 50.59022, -48.49937, 34.805664, 0
1391, 3295327693, -0.27301955, 0.50908464, -0.7986178, -0.16904983, -30.98744, 7.486675, 17.12022, 0
1392, 3295344360, -0.2591626, 0.51596516, -0.80855715, -0.11368859, -19.478424, -35.00594, -1.1059456, 0
1393, 3295361027, -0.2349606, 0.53159666, -0.8096902, -0.08170337, -24.974472, -19.790953, -8.434584, 0
1395, 3295394361, -0.19758818, 0.5582921, -0.8056826, -0.014816705, -12.888968, -14.336911, -33.869698, 0
1396, 3295411028, -0.18254666, 0.5671995, -0.8031277, -0.004750479, -8.813458, -13.69344, -40.536682, 0
1397, 3295427695, -0.17968637, 0.57123667, -0.80081856, -0.01290087, -8.299931, -9.18005, -32.510887, 0
1399, 3295461029, -0.20292677, 0.57890564, -0.7876031, -0.05869703, -8.213502, -11.2462845, -11.488939, 0
1400, 3295477696, -0.22934952, 0.5850003, -0.77225155, -0.0942135, -6.826768, -10.669459, -3.3071737, 0
1403, 3295527697, -0.31859803, 0.5837534, -0.7287497, -0.16348228, 2.26554, 3.6245208, -6.4376955, 0
1404, 3295544364, -0.3432911, 0.5755402, -0.72284853, -0.16873068, 1.4397917, 0.4218727, -7.5923476, 0
1405, 3295561031, -0.3678409, 0.5654126, -0.7173635, -0.17454663, -0.78510803, -4.038174, -5.8334274, 0
1407, 3295594365, -0.41667727, 0.5473596, -0.69735926, -0.20135252, -2.765538, -1.7370936, -2.4929495, 0
1408, 3295611032, -0.44249004, 0.53740877, -0.6851602, -0.21453492, -2.8849978, 1.1276466, -1.9561734, 0
1409, 3295627699, -0.46983927, 0.5239112, -0.6741431, -0.22444269, -2.5083241, 1.5615062, -1.2141247, 0
1411, 3295661033, -0.51743746, 0.49595088, -0.6532811, -0.24411035, -1.9696894, -0.004227692, 0.48391628, 0
1412, 3295677700, -0.53798944, 0.48112473, -0.6422414, -0.25823915, -3.105422, -0.40404016, 0.6169224, 0
1414, 3295711034, -0.5704619, 0.4554262, -0.6182511, -0.29154927, -1.6524949, 2.741906, -0.6406021, 0
1415, 3295727701, -0.583506, 0.44662178, -0.60551333, -0.30574262, -3.0651124, 1.7582045, 1.8481779, 0
1418, 3295777702, -0.632954, 0.4203211, -0.5554377, -0.33802885, 0.054661967, 0.064419225, 1.5980015, 0
1419, 3295794369, -0.6476647, 0.4118447, -0.539005, -0.34707826, 1.1140751, -1.580106, 0.7195482, 0
1420, 3295811036, -0.65897965, 0.40367413, -0.524032, -0.35813206, 0.9069799, -2.8406348, 0.5868788, 0
1422, 3295844370, -0.67492694, 0.386603, -0.49549603, -0.38674372, 1.6460603, -2.4025896, 2.256978, 0
1423, 3295861037, -0.6818497, 0.37575346, -0.4821422, -0.40187597, 1.1998472, -0.7345827, 3.5614414, 0
1424, 3295877704, -0.68942654, 0.36293072, -0.46886748, -0.41618598, 1.4395475, 0.018984074, 3.1898966, 0
1426, 3295911038, -0.70282525, 0.3405856, -0.44315124, -0.44014812, 1.1687542, 0.55929255, 1.3194981, 0
1427, 3295927705, -0.70852864, 0.3302524, -0.43206325, -0.44979662, 0.9407678, -0.16443993, 1.5935602, 0
1428, 3295944372, -0.71438545, 0.3181567, -0.42150515, -0.45917112, 1.0516425, -1.4613507, 3.959361, 0
1430, 3295977706, -0.7263746, 0.29084283, -0.39416152, -0.482185, 1.3883924, -0.12097862, 2.4835377, 0
1432, 3296011040, -0.7364574, 0.26307768, -0.3677702, -0.5032303, 0.7353474, 0.98376054, 1.5589132, 0
1434, 3296044374, -0.74587524, 0.2358036, -0.34451747, -0.5190854, 0.71517706, 0.7689088, 3.283061, 0
1435, 3296061041, -0.7510739, 0.22042754, -0.331759, -0.52660304, 1.4192039, 0.2920046, 4.2626047, 0
1436, 3296077708, -0.7561254, 0.20417604, -0.3178324, -0.5344569, 1.4829788, 0.75114155, 3.1111279, 0
1438, 3296111042, -0.76334566, 0.17299715, -0.29072994, -0.55038774, 2.298861, 1.5000348, 2.7869177, 0
1439, 3296127709, -0.76524425, 0.15944594, -0.27789113, -0.5584174, 2.5855343, 2.4385178, 1.1533899, 0
1441, 3296161043, -0.76585984, 0.13545558, -0.2588904, -0.57285357, 4.9177265, 3.5818791, 2.5497398, 0
1442, 3296177710, -0.7654708, 0.123525664, -0.24911365, -0.58035606, 5.203708, 4.132514, 1.7843199, 0
1443, 3296194377, -0.7644633, 0.11350694, -0.23992524, -0.5875566, 4.550798, 4.7128277, -0.881299, 0
1445, 3296227711, -0.76225686, 0.1024628, -0.22709468, -0.59746855, 3.7532644, 4.2078366, -2.0360818, 0
1446, 3296244378, -0.7611434, 0.09903589, -0.22439088, -0.6004802, 3.0005348, 3.0205162, -2.12635, 0
1447, 3296261045, -0.7595353, 0.09515031, -0.22366355, -0.6034089, 3.3480427, 2.729467, -0.24528027, 0
1449, 3296294379, -0.75519705, 0.08740312, -0.21804056, -0.6120226, 2.523754, 2.315174, -0.42438507, 0
1450, 3296311046, -0.7532359, 0.086006716, -0.21431871, -0.6159394, 1.7094085, 3.1905482, -0.844429, 0
1451, 3296327713, -0.7519487, 0.084240764, -0.21162222, -0.61868215, 1.5797789, 3.0074887, -0.8943205, 0
1453, 3296361047, -0.75044364, 0.0790491, -0.2098765, -0.6217816, 2.007543, 2.6329746, -0.27423096, 0
1454, 3296377714, -0.7497697, 0.0756561, -0.20860347, -0.623443, 2.3138344, 2.5677543, 0.22427654, 0
1455, 3296394381, -0.7495754, 0.07247348, -0.20607117, -0.6248954, 1.8610559, 2.9313388, -0.65752125, 0
1457, 3296427715, -0.75032485, 0.06847034, -0.20295495, -0.6254668, 1.9796344, 2.0625534, -2.0205936, 0
1459, 3296461049, -0.74838454, 0.06875684, -0.20387039, -0.6274592, 2.1482062, 1.5349262, -0.88832283, 0
1461, 3296494383, -0.74368155, 0.071424104, -0.20425116, -0.632608, 1.6617857, 2.495869, -0.20004368, 0
1462, 3296511050, -0.7413876, 0.073156014, -0.20414174, -0.6351329, 0.9053769, 2.0190227, -1.3230314, 0
1463, 3296527717, -0.739251, 0.075657606, -0.2050808, -0.637025, 0.4366053, 1.9413383, -1.1537752, 0
1465, 3296561051, -0.73620796, 0.0791329, -0.20892784, -0.638874, 0.09606342, 1.548823, 0.5289755, 0
1466, 3296577718, -0.73603857, 0.07910932, -0.21069536, -0.6384915, 0.045198966, 2.0457242, 0.7751255, 0
1468, 3296611052, -0.7379537, 0.075270474, -0.21286677, -0.63602006, 0.95817506, 0.9374257, -0.118564606, 0
1469, 3296627719, -0.7388559, 0.07413896, -0.21324345, -0.63497865, 1.4533958, 0.5556741, -0.6026392, 0
1470, 3296644386, -0.7392841, 0.0740469, -0.21372475, -0.63432866, 1.5049493, 0.77772033, -0.9750767, 0
1472, 3296677720, -0.73776144, 0.070240274, -0.2181529, -0.6350267, 2.2741246, 1.642657, -0.43058586, 0
1474, 3296711054, -0.7341966, 0.06852819, -0.22409655, -0.6372715, 1.7665187, 2.799983, -2.0623884, 0
1476, 3296744388, -0.7314106, 0.07021196, -0.23348598, -0.6369209, 2.7292678, 3.9476147, -2.0886664, 0
1477, 3296761055, -0.7305004, 0.071038365, -0.23979695, -0.6355276, 3.5509002, 4.4827747, -2.1814737, 0
1478, 3296777722, -0.7291923, 0.07120743, -0.24752356, -0.6340468, 4.906353, 5.477609, -2.1995487, 0
1480, 3296811056, -0.72520757, 0.078753024, -0.2646743, -0.6307889, 8.231077, 7.1135426, -4.102828, 0
1481, 3296827723, -0.72224844, 0.088826634, -0.27591762, -0.6280221, 9.168617, 8.776248, -3.7470522, 0
1482, 3296844390, -0.7180984, 0.100524195, -0.29041478, -0.62447107, 8.9429, 10.358392, -5.203501, 0
1484, 3296877724, -0.70555896, 0.1251094, -0.33854663, -0.60991454, 12.820795, 15.165223, -3.7704153, 0
1485, 3296894391, -0.69576544, 0.1362428, -0.36826912, -0.6014992, 15.744342, 15.398414, -0.2648754, 0
1486, 3296911058, -0.6820511, 0.15838674, -0.39700034, -0.5934526, 20.804146, 18.276537, -0.32553196, 0
1489, 3296961059, -0.6860025, 0.25070474, -0.4123201, -0.5446236, 2.2453866, -1.1006875, -0.66943455, 0
1490, 3296977726, -0.67629045, 0.2725771, -0.42583185, -0.535794, -4.504528, -4.975475, -0.50137615, 0
1492, 3297011060, -0.6146232, 0.35708034, -0.5116515, -0.4827212, -6.055378, -7.528346, 0.19425678, 0
1493, 3297027727, -0.56016886, 0.4119807, -0.57521, -0.43091923, -8.416006, -7.446544, 12.241531, 0
1494, 3297044394, -0.5059266, 0.4510182, -0.63415986, -0.3722057, -10.985333, -9.533573, 26.671162, 0
1496, 3297077728, -0.3978461, 0.51194173, -0.7232207, -0.23803565, 32.96709, -27.263895, 48.011242, 0
1497, 3297094395, -0.32485956, 0.53923005, -0.7441754, -0.22355214, -31.39126, -34.366207, 28.1344, 0
1499, 3297127729, -0.26454705, 0.5835497, -0.7539908, -0.14511292, -2.734429, -38.04133, -1.385953, 0
1500, 3297144396, -0.22868569, 0.5946107, -0.7619387, -0.11689998, -10.665248, -29.58284, -12.722978, 0
1501, 3297161063, -0.20686549, 0.5967509, -0.77071947, -0.08462718, -17.373505, -20.570297, -20.297935, 0
1504, 3297211064, -0.2014803, 0.597085, -0.7756242, -0.03711264, -8.328289, -12.315453, -18.586971, 0
1505, 3297227731, -0.21078832, 0.5971809, -0.7732852, -0.032380067, -7.2273374, -9.013485, -16.228775, 0
1507, 3297261065, -0.24038695, 0.5942914, -0.76721925, -0.02194276, -4.0994143, -4.3620253, -14.409222, 0
1508, 3297277732, -0.25582427, 0.5929612, -0.7633758, -0.016837958, -3.1358063, -4.8029284, -14.238402, 0
1509, 3297294399, -0.27065864, 0.59161115, -0.75931203, -0.016142119, -2.556506, -6.161146, -14.197695, 0
1511, 3297327733, -0.29864195, 0.5880328, -0.7509202, -0.03499203, -2.6041713, -5.811817, -12.31374, 0
1512, 3297344400, -0.31286806, 0.5856353, -0.7459348, -0.05292529, -2.6843107, -4.4829464, -10.734792, 0
1513, 3297361067, -0.32792765, 0.5821597, -0.7405151, -0.07256757, -2.5177574, -2.9977665, -9.375792, 0
1515, 3297394401, -0.36063412, 0.57206804, -0.7283341, -0.110840276, -2.805833, -3.6840549, -6.259337, 0
1516, 3297411068, -0.3792102, 0.56363994, -0.7220567, -0.13122113, -3.4796395, -4.9566913, -4.0173693, 0
1517, 3297427735, -0.3994263, 0.5528751, -0.7146978, -0.15514421, -4.0364184, -5.7351832, -1.3986626, 0
1519, 3297461069, -0.4421085, 0.52747476, -0.6951307, -0.20779483, -3.1886744, -1.0114475, 2.6917381, 0
1520, 3297477736, -0.46356487, 0.5127029, -0.6848425, -0.23088786, -1.510498, 1.2040122, 2.6586409, 0
1522, 3297511070, -0.49963534, 0.4878081, -0.6641152, -0.26727152, -1.8177743, 1.3697108, 3.6043062, 0
1523, 3297527737, -0.5168196, 0.47668272, -0.6523441, -0.28318432, -2.226742, 0.3005303, 4.412669, 0
1524, 3297544404, -0.5339017, 0.4663427, -0.63865787, -0.2994408, -2.1401603, -0.182479, 4.4963484, 0
1526, 3297577738, -0.5698453, 0.4442981, -0.6064308, -0.3319521, -2.1977692, -0.0664133, 4.9242887, 0
1527, 3297594405, -0.5896518, 0.4310637, -0.58714604, -0.34904075, -0.55244666, -0.6365106, 4.225466, 0
1528, 3297611072, -0.6069267, 0.4193775, -0.5668576, -0.36675602, 1.9991113, 0.48442376, 1.1611567, 0
1531, 3297661073, -0.63531977, 0.392274, -0.5152606, -0.42079866, 1.4723004, -1.1518042, 2.400257, 0
1532, 3297677740, -0.6409298, 0.38055944, -0.500255, -0.4406852, 1.8133824, -0.58406603, 3.8181982, 0
1534, 3297711074, -0.6516154, 0.35588607, -0.4683913, -0.47898564, 1.6594524, 2.0718112, 3.2873774, 0
1535, 3297727741, -0.6570998, 0.34467536, -0.45226702, -0.49492288, 1.6048865, 1.879187, 1.8540144, 0
1536, 3297744408, -0.66216004, 0.33456022, -0.43701193, -0.50863457, 1.5419897, 0.8399426, 1.4425793, 0
1538, 3297777742, -0.67168933, 0.31281036, -0.40960944, -0.53223884, 2.2413878, 2.704213, 3.5890226, 0
1539, 3297794409, -0.6775654, 0.29909262, -0.39855444, -0.54099727, 3.8728108, 4.3256974, 3.607689, 0
1540, 3297811076, -0.68315625, 0.2858637, -0.3883624, -0.5484789, 4.762376, 4.6911783, 2.9030075, 0
1542, 3297844410, -0.6905447, 0.2649489, -0.37244987, -0.5606303, 2.76887, 3.669373, 1.3664961, 0
1543, 3297861077, -0.69346476, 0.2562839, -0.3662333, -0.56513137, 1.88237, 2.6323035, 1.9348516, 0
1546, 3297911078, -0.7049682, 0.22497687, -0.35500705, -0.571358, 2.1859906, 3.7972353, -0.23118973, 0
1547, 3297927745, -0.70721453, 0.2165177, -0.3525313, -0.5733798, 1.927227, 3.0977373, 0.13528347, 0
1549, 3297961079, -0.7088, 0.20307803, -0.34545395, -0.58060193, 0.8281765, 2.2602031, 2.0080948, 0
1550, 3297977746, -0.7090159, 0.19647667, -0.3402139, -0.58568156, 0.50231373, 1.5784364, 1.5546865, 0
1551, 3297994413, -0.7087519, 0.1901963, -0.3347727, -0.591184, 0.2190344, 1.9394747, 1.0034943, 0
1553, 3298027747, -0.7075281, 0.17536458, -0.32827404, -0.6008015, -0.95766956, 3.6999593, -0.13178158, 0
1554, 3298044414, -0.7073444, 0.16778877, -0.32673925, -0.6040095, -1.8149314, 4.289979, 0.45024204, 0
1555, 3298061081, -0.7085837, 0.1607803, -0.32441086, -0.60571575, -2.2720106, 4.2644706, 0.8165827, 0
1557, 3298094415, -0.7141402, 0.14949484, -0.31677657, -0.60612106, -1.5212017, 2.8655689, 1.0049171, 0
1558, 3298111082, -0.7171352, 0.14422542, -0.31227556, -0.60619736, -0.6683676, 2.364085, 0.19063568, 0
1561, 3298161083, -0.72018284, 0.13225642, -0.29993606, -0.61152136, 0.2810467, 1.9604361, -0.8577337, 0
1562, 3298177750, -0.71909744, 0.1310313, -0.29577655, -0.615078, 0.35498217, 2.0763423, -1.0808611, 0
1563, 3298194417, -0.71739364, 0.13143413, -0.29145655, -0.6190313, 0.6096846, 2.1269171, -0.7922106, 0
1565, 3298227751, -0.7135906, 0.13608746, -0.28028557, -0.627522, 1.6090592, 1.535742, -0.41033077, 0
1566, 3298244418, -0.71133983, 0.13866383, -0.27596673, -0.6314155, 1.9046142, 1.4864231, -0.42367363, 0
1567, 3298261085, -0.7085032, 0.1407187, -0.27346528, -0.63522696, 1.8072408, 1.3597375, -0.27930737, 0
1569, 3298294419, -0.7024624, 0.1448226, -0.27001944, -0.6424467, 0.32951993, 1.8934073, 0.5687971, 0
1570, 3298311086, -0.7005671, 0.14549139, -0.2689449, -0.64481133, -0.70858854, 1.9927912, 0.9040718, 0
1571, 3298327753, -0.7001384, 0.14553297, -0.26766354, -0.6458002, -1.0172576, 1.3410219, 1.0411406, 0
1573, 3298361087, -0.703225, 0.14335026, -0.26508674, -0.643995, -1.8467088, 1.0382836, 0.34734154, 0
1576, 3298411088, -0.71352655, 0.13666758, -0.25987387, -0.6361938, -1.4086422, 0.6748081, 0.61111736, 0
1577, 3298427755, -0.71763253, 0.13373694, -0.25711685, -0.633312, -1.0840685, 0.35597175, 0.49610043, 0
1578, 3298444422, -0.7214575, 0.13127483, -0.2539112, -0.63076955, -0.6288352, -0.43986747, 0.25641823, 0
1580, 3298477756, -0.72747165, 0.12649494, -0.24797553, -0.6271898, -0.6036654, -0.053585332, 0.09499645, 0
1581, 3298494423, -0.7296134, 0.12306015, -0.24631535, -0.6260387, -0.33547875, 0.6049433, 0.40184402, 0
1582, 3298511090, -0.73161155, 0.12044178, -0.24346827, -0.62532926, 0.29133347, 1.0021275, 1.2757835, 0
1584, 3298544424, -0.73671496, 0.11757584, -0.23349358, -0.62368476, -0.27331293, 2.0180497, -0.5262203, 0
1585, 3298561091, -0.7395535, 0.115395196, -0.22949779, -0.6222141, 0.37626025, 1.3046981, -0.69189453, 0
1586, 3298577758, -0.7423643, 0.11294963, -0.22610636, -0.62055504, 0.8636462, 1.5373014, -0.4355526, 0
1588, 3298611092, -0.747901, 0.10488443, -0.22249654, -0.6166146, 1.7294288, 3.034688, -0.9203253, 0
1589, 3298627759, -0.75089765, 0.1011595, -0.22079985, -0.61420035, 2.836103, 3.2520044, -0.9617443, 0
1590, 3298644426, -0.7540438, 0.09884125, -0.2188868, -0.6114018, 3.4820426, 3.3264227, -2.1094408, 0
1592, 3298677760, -0.7587501, 0.0957091, -0.22015916, -0.6055932, 4.736055, 3.4828527, -3.8888922, 0
1593, 3298694427, -0.75977606, 0.0950093, -0.22457263, -0.6027901, 5.4579864, 3.3861976, -4.013317, 0
1594, 3298711094, -0.75935024, 0.09344699, -0.23217912, -0.6006852, 6.458981, 3.725989, -2.9938273, 0
1596, 3298744428, -0.7521645, 0.08981589, -0.2536079, -0.60161436, 9.2532835, 2.795438, -5.503339, 0
1597, 3298761095, -0.74310744, 0.092512235, -0.26928297, -0.6056356, 10.690719, 3.2475739, -8.670222, 0
1598, 3298777762, -0.7285294, 0.098468915, -0.29061663, -0.6125078, 12.338062, 4.893028, -7.1466255, 0
1600, 3298811096, -0.68891096, 0.121379495, -0.33601943, -0.63074136, 12.759253, 11.047541, -2.0396476, 0
1602, 3298844430, -0.65499884, 0.15189196, -0.37837756, -0.63624746, 9.654133, 20.759546, -5.8100286, 0
1604, 3298877764, -0.6472982, 0.20853177, -0.42593226, -0.5968053, 30.971962, 74.679634, 44.608795, 0
1605, 3298894431, -0.6637254, 0.2328786, -0.3965485, -0.5899666, -8.380738, 8.877688, 14.614212, 0
1607, 3298927765, -0.67586946, 0.26225117, -0.37572023, -0.57735103, -6.4264007, -2.5557218, -1.3124781, 0
1608, 3298944432, -0.66683733, 0.28948608, -0.39311206, -0.5630842, -2.8581884, -7.712181, -1.1715775, 0
1609, 3298961099, -0.6415353, 0.33313438, -0.4331086, -0.5384665, -4.837294, -7.259997, -3.5250154, 0
1611, 3298994433, -0.53635985, 0.45554382, -0.5645897, -0.43140656, -7.7024765, -7.405496, 16.30771, 0
1612, 3299011100, -0.48572212, 0.48683816, -0.628853, -0.3628797, -9.503314, -10.766082, 31.25608, 0
1613, 3299027767, -0.44698405, 0.502777, -0.6850429, -0.2796638, 12.832092, -11.554389, 53.154068, 0
1615, 3299061101, -0.31515527, 0.5514214, -0.7405034, -0.21986681, -33.95303, -22.95237, 26.739117, 0
1617, 3299094435, -0.2716476, 0.5840203, -0.7566506, -0.112618476, 0.7679056, -44.151375, -6.6083803, 0
1619, 3299127769, -0.21397416, 0.5933387, -0.77438474, -0.05067289, -19.454363, -17.264378, -22.2919, 0
1620, 3299144436, -0.20805481, 0.59250534, -0.7779858, -0.021536365, -11.175603, -18.049572, -28.245434, 0
1621, 3299161103, -0.2046872, 0.5940138, -0.77799684, -0.0068515576, -8.689238, -14.102771, -27.451883, 0
1623, 3299194437, -0.21976677, 0.59551275, -0.7727227, 0.006475229, -9.580217, -7.017769, -20.274307, 0
1624, 3299211104, -0.23977311, 0.5937062, -0.76810753, 0.01038754, -8.505778, -5.818447, -17.275585, 0
1625, 3299227771, -0.2646924, 0.59073454, -0.76216865, 0.012040131, -7.3229265, -5.1757045, -14.997276, 0
1627, 3299261105, -0.31291512, 0.58596396, -0.7475329, 3.4566224E-4, -4.15294, -6.433634, -12.980986, 0
1628, 3299277772, -0.33226067, 0.58521104, -0.7395803, -0.015062332, -3.6730223, -5.4975595, -11.627165, 0
1630, 3299311106, -0.3680533, 0.582224, -0.72290933, -0.05503782, -3.7403512, -4.8316875, -8.862177, 0
1632, 3299344440, -0.40916982, 0.5719067, -0.703533, -0.103048995, -3.2404492, -4.7565293, -5.3584614, 0
1634, 3299377774, -0.45526204, 0.5490895, -0.68395567, -0.15335235, -2.2842724, -3.7334397, -1.3375072, 0
1635, 3299394441, -0.477261, 0.5355922, -0.67364275, -0.17788629, -2.63315, -2.7687457, 0.2861681, 0
1636, 3299411108, -0.4985787, 0.5205078, -0.6632706, -0.20158896, -2.1173947, -2.1146772, 1.3755693, 0
1638, 3299444442, -0.5340246, 0.49359488, -0.63961047, -0.24930994, -0.8697346, -1.3494987, 1.9083071, 0
1639, 3299461109, -0.5487974, 0.4835271, -0.625614, -0.27148694, -1.4344201, -0.011587191, 2.055235, 0
1640, 3299477776, -0.5637198, 0.47292912, -0.6114534, -0.2911322, -1.4458578, -1.536244, 2.9483433, 0
1642, 3299511110, -0.5928118, 0.4488142, -0.5775053, -0.3371982, 2.0368445, -4.121837, 5.382267, 0
1643, 3299527777, -0.6038913, 0.43810597, -0.5582086, -0.36312106, 3.4003956, -0.09617852, 4.2794247, 0
1644, 3299544444, -0.6127213, 0.42746878, -0.5414329, -0.38570532, 2.999431, 2.7297378, 2.7628222, 0
1647, 3299594445, -0.6315704, 0.3965019, -0.49690095, -0.44392514, 5.672208, -2.1242101, 6.0132637, 0
1648, 3299611112, -0.6332461, 0.38831002, -0.47880188, -0.46801555, 6.046071, 1.4897469, 3.8746881, 0
1650, 3299644446, -0.635142, 0.3655367, -0.45282853, -0.50793606, 4.4226484, 5.7410345, 2.968813, 0
1651, 3299661113, -0.6369712, 0.35289553, -0.442177, -0.523724, 4.6168156, 4.452395, 3.273736, 0
1652, 3299677780, -0.6395713, 0.34101894, -0.4302084, -0.5381919, 4.777474, 3.5008578, 2.9919806, 0
1654, 3299711114, -0.6449396, 0.31618798, -0.4065614, -0.5646778, 5.95249, 4.5276294, 1.6454382, 0
1655, 3299727781, -0.6461573, 0.30215013, -0.39918286, -0.5761199, 5.6399207, 5.926952, 0.9523001, 0
1657, 3299761115, -0.64335406, 0.2761534, -0.39305282, -0.59617066, 3.3366606, 5.8822575, 0.19897938, 0
1658, 3299777782, -0.6408125, 0.2652933, -0.3918325, -0.6045837, 1.2262168, 5.2593994, 1.8416939, 0
1659, 3299794449, -0.6399232, 0.25413856, -0.3892432, -0.61194503, 0.6708057, 3.9989798, 2.3612547, 0
1661, 3299827783, -0.64230824, 0.23566182, -0.3805432, -0.62222624, 1.2945586, 4.7901635, -0.2295475, 0
1662, 3299844450, -0.64389884, 0.22683829, -0.37927708, -0.6246299, 1.6840719, 4.5005302, -0.73038864, 0
1663, 3299861117, -0.6441006, 0.2184254, -0.38048717, -0.6266813, 1.9180295, 3.7003818, -0.48882866, 0
1665, 3299894451, -0.6404691, 0.20310038, -0.38618872, -0.6320467, 0.7443387, 2.6984367, 0.6460581, 0
1666, 3299911118, -0.63832456, 0.19629256, -0.3889303, -0.63468033, -0.5407151, 2.2839763, -0.51894, 0
