sep=,
DeviceTag:,Xsens_DOT_4,,,,,,,,,,,,,,,,,
FirmwareVersion:,3.0.0,,,,,,,,,,,,,,,,,
AppVersion:,2023.6.1,,,,,,,,,,,,,,,,,
SyncStatus:,Synced,,,,,,,,,,,,,,,,,
OutputRate:,60Hz,,,,,,,,,,,,,,,,,
FilterProfile:,General,,,,,,,,,,,,,,,,,
Measurement Mode:,Sensor fusion Mode - Extended (Quaternion),,,,,,,,,,,,,,,,,
StartTime:,2025-05-05 12:01:19.151 +0200,,,,,,,,,,,,,,,,,
 2025,,,,,,,,,,,,,,,,,,,

PacketCounter,SampleTimeFine,Quat_W,Quat_X,Quat_Y,Quat_Z,FreeAcc_X,FreeAcc_Y,FreeAcc_Z,Status
1, 3272127229, 0.014604613, -0.69659495, -0.019680753, -0.7170507, 0.8849415, 0.90852374, 0.053217888, 0
2, 3272143896, 0.0147853345, -0.6964423, -0.019528896, -0.71719927, 0.8775902, 0.87494934, 0.02280426, 0
3, 3272160563, 0.014959469, -0.69628793, -0.019371957, -0.7173498, 0.86929494, 0.82983834, -0.050619125, 0
4, 3272177230, 0.015123114, -0.6961441, -0.019222707, -0.71749, 0.8110977, 0.81982964, -0.051012993, 0
5, 3272193897, 0.015280917, -0.69600505, -0.019077107, -0.7176254, 0.82788473, 0.814113, -0.021893501, 0
6, 3272210564, 0.015426621, -0.6958622, -0.01893431, -0.7177647, 0.83597803, 0.8370154, 0.045323372, 0
7, 3272227231, 0.015555173, -0.69571626, -0.01881434, -0.71790665, 0.8136202, 0.84697294, 0.050027847, 0
8, 3272243898, 0.015661523, -0.6955779, -0.018710122, -0.71804094, 0.8130842, 0.831017, -0.008174896, 0
9, 3272260565, 0.015755385, -0.6954367, -0.01863736, -0.71817744, 0.80317974, 0.82835376, 0.001739502, 0
10, 3272277232, 0.015819892, -0.6953052, -0.018583298, -0.7183048, 0.7616746, 0.84945977, 0.038318634, 0
11, 3272293899, 0.015868068, -0.6951679, -0.018542439, -0.7184377, 0.79651767, 0.82773304, 0.012372971, 0
12, 3272310566, 0.01590921, -0.69501895, -0.018518254, -0.7185816, 0.79300964, 0.8022806, 3.452301E-4, 0
13, 3272327233, 0.01594077, -0.69487953, -0.018501416, -0.71871614, 0.79626477, 0.82273763, -0.002040863, 0
14, 3272343900, 0.015970439, -0.69473594, -0.018483803, -0.71885467, 0.7935121, 0.78341234, -0.0019330978, 0
15, 3272360567, 0.015996143, -0.694599, -0.018463433, -0.71898687, 0.8041068, 0.7931669, 0.009095192, 0
16, 3272377234, 0.016021848, -0.69446254, -0.018442705, -0.7191187, 0.81370145, 0.7870534, 0.033891678, 0
17, 3272393901, 0.016048312, -0.69431376, -0.018429443, -0.7192622, 0.82214993, 0.8131587, 0.046708107, 0
18, 3272410568, 0.016074657, -0.69416994, -0.01843059, -0.71940035, 0.8094557, 0.8202432, -0.016508102, 0
19, 3272427235, 0.016105637, -0.6940348, -0.01841782, -0.7195303, 0.789351, 0.7886812, -0.028401375, 0
20, 3272443902, 0.016134575, -0.69390243, -0.018394098, -0.7196579, 0.80089706, 0.78735477, -0.003698349, 0
21, 3272460569, 0.016171202, -0.6937576, -0.01838316, -0.719797, 0.8388647, 0.76499224, 0.011264801, 0
22, 3272477236, 0.016202852, -0.6936356, -0.01836878, -0.7199143, 0.864255, 0.79222524, 0.018053055, 0
23, 3272493903, 0.01625, -0.69350153, -0.01835385, -0.72004265, 0.8395161, 0.8071479, 0.039113045, 0
24, 3272510570, 0.016285047, -0.69336337, -0.01832515, -0.7201757, 0.8390805, 0.7970195, -0.007910728, 0
25, 3272527237, 0.016338453, -0.69323313, -0.01827389, -0.72030103, 0.83307904, 0.80389315, -0.018042564, 0
26, 3272543904, 0.01641567, -0.69311047, -0.018219605, -0.72041875, 0.8021346, 0.7778527, 0.015702248, 0
27, 3272560571, 0.016495302, -0.6929881, -0.018139347, -0.7205367, 0.80306995, 0.7624559, 0.01538372, 0
28, 3272577238, 0.016590044, -0.6928596, -0.018049553, -0.7206602, 0.8031198, 0.7831041, 0.031938553, 0
29, 3272593905, 0.01667513, -0.69274074, -0.017970353, -0.7207745, 0.7832218, 0.74930906, 0.052495956, 0
30, 3272610572, 0.016769603, -0.69261336, -0.017896175, -0.7208967, 0.79254687, 0.7767259, 0.05117321, 0
31, 3272627239, 0.016863823, -0.69248104, -0.01782827, -0.72102326, 0.7637019, 0.7728876, -0.016057968, 0
32, 3272643906, 0.016962096, -0.6923508, -0.017746806, -0.721148, 0.74522674, 0.76528037, 0.013846397, 0
33, 3272660573, 0.017047256, -0.69221294, -0.017678887, -0.72128004, 0.7461648, 0.7677903, -0.031160355, 0
34, 3272677240, 0.017135456, -0.6920993, -0.01761885, -0.72138846, 0.7362621, 0.760585, 0.004588127, 0
35, 3272693907, 0.017218485, -0.6919705, -0.017561495, -0.72151136, 0.7570129, 0.76731503, 0.02952671, 0
36, 3272710574, 0.017302066, -0.69183946, -0.017508298, -0.72163635, 0.78577375, 0.7848902, 0.06145382, 0
37, 3272727241, 0.017374799, -0.6917136, -0.017433167, -0.721757, 0.780392, 0.78520525, 0.069776535, 0
38, 3272743908, 0.01746431, -0.69157803, -0.017340124, -0.721887, 0.74799025, 0.7932766, 0.066934586, 0
39, 3272760575, 0.01756388, -0.6914474, -0.017253637, -0.72201186, 0.70563865, 0.7438929, 0.025970459, 0
40, 3272777242, 0.017652258, -0.69130886, -0.017164215, -0.7221445, 0.6769664, 0.7228512, -0.024038315, 0
41, 3272793909, 0.017716572, -0.69118416, -0.017090127, -0.722264, 0.65065056, 0.7123596, -0.029992104, 0
42, 3272810576, 0.017754972, -0.6910575, -0.017035693, -0.7223856, 0.6165571, 0.7217493, 0.021966934, 0
43, 3272827243, 0.017780542, -0.6909388, -0.01701811, -0.72249883, 0.565011, 0.72856647, 0.028203964, 0
44, 3272843910, 0.017764166, -0.69081295, -0.017033845, -0.7226192, 0.578672, 0.6988613, 0.0040302277, 0
45, 3272860577, 0.017717049, -0.69069314, -0.01708506, -0.72273374, 0.56563765, 0.67300785, -0.02741146, 0
46, 3272877244, 0.017650023, -0.6905747, -0.017162517, -0.7228467, 0.5431403, 0.69104755, 0.04036808, 0
47, 3272893911, 0.017580763, -0.6904627, -0.017261997, -0.72295284, 0.5186706, 0.6860413, 0.04130745, 0
48, 3272910578, 0.017494306, -0.6903447, -0.017369151, -0.72306514, 0.5589534, 0.67453325, 0.008423805, 0
49, 3272927245, 0.01740639, -0.6902204, -0.017491713, -0.7231829, 0.59233874, 0.6267097, 0.0060606003, 0
50, 3272943912, 0.017317787, -0.69009125, -0.017620385, -0.7233052, 0.60020536, 0.6458489, 0.036338806, 0
51, 3272960579, 0.017249659, -0.6899604, -0.01774466, -0.7234287, 0.5903913, 0.61666733, 0.029167175, 0
52, 3272977246, 0.017193839, -0.68983495, -0.017857552, -0.7235468, 0.5920375, 0.593468, -0.0055322647, 0
53, 3272993913, 0.017177552, -0.6897122, -0.01793906, -0.723662, 0.6174836, 0.6020537, -0.012869835, 0
54, 3273010580, 0.017186075, -0.68959993, -0.017997026, -0.7237675, 0.60271555, 0.5966097, -0.008227348, 0
55, 3273027247, 0.017229244, -0.68948317, -0.018016845, -0.7238772, 0.6271604, 0.6023008, 0.038944244, 0
56, 3273043914, 0.017317265, -0.68937415, -0.01800692, -0.7239792, 0.63755596, 0.6508275, 0.050198555, 0
57, 3273060581, 0.017424375, -0.68925333, -0.017964378, -0.72409266, 0.620306, 0.6517075, 0.056610107, 0
58, 3273077248, 0.017552584, -0.68913805, -0.017908067, -0.72420067, 0.62373656, 0.6343505, 0.035583496, 0
59, 3273093915, 0.017696947, -0.6890191, -0.017844975, -0.7243119, 0.62554, 0.6234554, 0.030317307, 0
60, 3273110582, 0.01785034, -0.68890136, -0.017786622, -0.7244216, 0.6335285, 0.6107358, -0.011170387, 0
61, 3273127249, 0.017999947, -0.68878984, -0.017727718, -0.72452545, 0.6304607, 0.6090768, 0.02098751, 0
62, 3273143916, 0.018161818, -0.6886702, -0.017696857, -0.72463584, 0.619886, 0.6585112, 0.02333641, 0
63, 3273160583, 0.01830791, -0.6885542, -0.017657742, -0.72474337, 0.6026812, 0.73534995, 0.032556534, 0
64, 3273177250, 0.018475592, -0.68844175, -0.017594397, -0.7248474, 0.6058654, 0.7023352, 0.036049843, 0
65, 3273193917, 0.018643767, -0.68833184, -0.017536148, -0.7249488, 0.62584144, 0.6508294, 0.041312218, 0
66, 3273210584, 0.018811375, -0.68822086, -0.017499477, -0.72505087, 0.63946843, 0.65724516, 0.009840012, 0
67, 3273227251, 0.018977702, -0.6881088, -0.017472059, -0.7251533, 0.62704504, 0.6654567, -0.012117386, 0
68, 3273243918, 0.019131914, -0.6880064, -0.01744996, -0.72524714, 0.63145965, 0.7127654, -0.039196968, 0
69, 3273260585, 0.019267872, -0.68790364, -0.017420858, -0.72534174, 0.6417845, 0.72251225, 0.050498962, 0
70, 3273277252, 0.019410059, -0.68779707, -0.01740034, -0.7254395, 0.6946658, 0.73405784, 0.044495583, 0
71, 3273293919, 0.019568473, -0.68769324, -0.017388508, -0.725534, 0.7070098, 0.74006736, 0.08336258, 0
72, 3273310586, 0.019709498, -0.68758386, -0.01736632, -0.7256343, 0.6758506, 0.73227644, 0.08761692, 0
73, 3273327253, 0.019845128, -0.6874818, -0.017354801, -0.72572756, 0.6937879, 0.7264355, -0.04249668, 0
74, 3273343920, 0.019970462, -0.6873779, -0.017359272, -0.72582245, 0.6813243, 0.73079056, 0.007493019, 0
75, 3273360587, 0.020086423, -0.6872896, -0.017352909, -0.72590303, 0.67684996, 0.7896161, 0.065603256, 0
76, 3273377254, 0.020203814, -0.68717957, -0.017334253, -0.7260044, 0.6488363, 0.7566211, 0.08799553, 0
77, 3273393921, 0.020311385, -0.6870752, -0.017316103, -0.72610056, 0.67057216, 0.7215847, 0.02775383, 0
78, 3273410588, 0.02040258, -0.68696773, -0.01732114, -0.7261996, 0.65016645, 0.681589, 0.004667282, 0
79, 3273427255, 0.02047868, -0.6868593, -0.017359257, -0.72629905, 0.6216059, 0.6990635, -0.014462471, 0
80, 3273443922, 0.020540312, -0.6867548, -0.017414138, -0.72639483, 0.6197293, 0.73133236, 0.0457983, 0
81, 3273460589, 0.020578876, -0.68664783, -0.017463982, -0.72649366, 0.62997043, 0.74777395, 0.100170135, 0
82, 3273477256, 0.020610645, -0.68653417, -0.017523587, -0.7265987, 0.6423385, 0.7519226, 0.087537766, 0
83, 3273493923, 0.020634055, -0.6864193, -0.017602101, -0.7267047, 0.64520204, 0.76293755, 0.078107834, 0
84, 3273510590, 0.020625964, -0.6863055, -0.017682657, -0.7268104, 0.6388554, 0.73762393, -0.01558876, 0
85, 3273527257, 0.020602137, -0.6861898, -0.017782554, -0.726918, 0.65040237, 0.70255816, -0.024550438, 0
86, 3273543924, 0.020571887, -0.686089, -0.017899215, -0.72701114, 0.6729504, 0.7034522, -0.009195328, 0
87, 3273560591, 0.020534337, -0.6859977, -0.018030152, -0.72709495, 0.6639329, 0.74294335, 0.045708656, 0
88, 3273577258, 0.020500064, -0.68590146, -0.0181541, -0.72718376, 0.67949134, 0.77633834, 0.07217121, 0
89, 3273593925, 0.020471692, -0.6858042, -0.018251166, -0.72727376, 0.70070255, 0.6994858, 0.0781374, 0
90, 3273610592, 0.020452216, -0.6856989, -0.018330753, -0.7273716, 0.7066377, 0.70601803, 0.020320892, 0
91, 3273627259, 0.02041845, -0.6855988, -0.018419832, -0.7274647, 0.67603236, 0.72691214, 0.012094498, 0
92, 3273643926, 0.020393074, -0.68549466, -0.01850912, -0.72756124, 0.6389055, 0.7338464, 0.034057617, 0
93, 3273660593, 0.020369813, -0.6854007, -0.018580332, -0.72764856, 0.6587463, 0.74910927, 0.026290894, 0
94, 3273677260, 0.020337, -0.6853071, -0.018677622, -0.72773516, 0.7130377, 0.6916259, 0.04581642, 0
95, 3273693927, 0.020317882, -0.6852008, -0.018765539, -0.7278335, 0.6714306, 0.67199844, 0.09082317, 0
96, 3273710594, 0.02031529, -0.68510014, -0.018830627, -0.7279267, 0.66236395, 0.72663605, 0.07089996, 0
97, 3273727261, 0.020329267, -0.68500155, -0.018843949, -0.72801864, 0.62983346, 0.68467456, 0.05182743, 0
98, 3273743928, 0.02035667, -0.6849063, -0.018832669, -0.7281079, 0.6554397, 0.631402, -0.036789894, 0
99, 3273760595, 0.020390764, -0.68479717, -0.018839404, -0.7282094, 0.62303495, 0.6159087, -0.05199337, 0
100, 3273777262, 0.02042894, -0.68470806, -0.018846631, -0.7282919, 0.61489636, 0.69396394, 0.06479931, 0
101, 3273793929, 0.020465821, -0.6846094, -0.018853247, -0.7283835, 0.5787191, 0.71620375, 0.15280342, 0
102, 3273810596, 0.020503148, -0.68450505, -0.018826619, -0.72848105, 0.6510866, 0.725097, 0.101117134, 0
103, 3273827263, 0.020547658, -0.6844, -0.018809363, -0.72857916, 0.64305896, 0.6443981, 0.031012535, 0
104, 3273843930, 0.020612627, -0.684299, -0.018801138, -0.72867227, 0.6234221, 0.62648046, -0.049523354, 0
105, 3273860597, 0.020682275, -0.684204, -0.01877077, -0.7287603, 0.5884229, 0.62825555, -0.037441254, 0
106, 3273877264, 0.020759478, -0.68412584, -0.018742919, -0.7288322, 0.61782634, 0.65170485, 0.03629303, 0
107, 3273893931, 0.020841464, -0.6840412, -0.018722564, -0.72890985, 0.6694208, 0.6425558, 0.06486416, 0
108, 3273910598, 0.020922035, -0.68394494, -0.018725902, -0.72899777, 0.619285, 0.69262916, 0.13193321, 0
109, 3273927265, 0.020994693, -0.6838305, -0.01869154, -0.72910404, 0.5861983, 0.77071434, 0.10687256, 0
110, 3273943932, 0.021082208, -0.6837356, -0.018616542, -0.7291924, 0.5666838, 0.70033383, 0.111424446, 0
111, 3273960599, 0.021176457, -0.68363285, -0.018534645, -0.729288, 0.572567, 0.58228165, -0.03918743, 0
112, 3273977266, 0.02127418, -0.68354684, -0.018474594, -0.72936726, 0.5437732, 0.5261061, -0.039824486, 0
113, 3273993933, 0.021362543, -0.68345624, -0.018427894, -0.7294507, 0.47839668, 0.61736536, 0.03211689, 0
114, 3274010600, 0.021453068, -0.6833624, -0.018358245, -0.7295378, 0.43068185, 0.66868705, 0.14124203, 0
115, 3274027267, 0.021553561, -0.6832525, -0.018266529, -0.7296401, 0.44324276, 0.61765295, 0.057217598, 0
116, 3274043934, 0.02165562, -0.6831542, -0.018187225, -0.7297309, 0.47361612, 0.5513249, -0.0084962845, 0
117, 3274060601, 0.021751255, -0.6830646, -0.018143862, -0.72981316, 0.46442032, 0.56203526, 0.0045690536, 0
118, 3274077268, 0.02182877, -0.68296957, -0.018095285, -0.72990096, 0.4545632, 0.61402416, 0.055923462, 0
119, 3274093935, 0.02188313, -0.68286985, -0.018067017, -0.72999334, 0.45523217, 0.572919, 0.047779083, 0
120, 3274110602, 0.021940649, -0.6827788, -0.018064126, -0.7300769, 0.4688199, 0.5559672, -0.022405624, 0
121, 3274127269, 0.021987036, -0.6826857, -0.018093407, -0.73016167, 0.44299984, 0.628131, 0.05759716, 0
122, 3274143936, 0.022028387, -0.6825916, -0.018108055, -0.7302482, 0.475522, 0.6729785, 0.08222866, 0
123, 3274160603, 0.022068903, -0.6824946, -0.018107891, -0.7303376, 0.5192511, 0.62853646, 0.042359352, 0
124, 3274177270, 0.022101909, -0.6824125, -0.018124774, -0.73041284, 0.5877301, 0.59169894, -0.019381523, 0
125, 3274193937, 0.022141382, -0.68233544, -0.018162206, -0.7304827, 0.5805218, 0.60663444, 0.04087925, 0
126, 3274210604, 0.022174194, -0.6822588, -0.018186599, -0.7305528, 0.5497783, 0.6601033, 0.08042145, 0
127, 3274227271, 0.022208929, -0.6821789, -0.018204927, -0.73062587, 0.56706727, 0.6733694, 0.06352997, 0
128, 3274243938, 0.02225937, -0.68209285, -0.018227458, -0.7307041, 0.57115495, 0.60915196, 0.017830849, 0
129, 3274260605, 0.022310212, -0.6820116, -0.018256083, -0.7307777, 0.56747746, 0.6268715, 0.022996902, 0
130, 3274277272, 0.02236873, -0.68193114, -0.018264323, -0.73085064, 0.56846666, 0.6298087, 0.066233635, 0
131, 3274293939, 0.022426069, -0.6818393, -0.018257394, -0.73093474, 0.5630164, 0.57768005, 0.07830429, 0
132, 3274310606, 0.022502452, -0.68176764, -0.018275917, -0.73099875, 0.6038962, 0.51169044, -0.0035562515, 0
133, 3274327273, 0.022556975, -0.6816965, -0.018317372, -0.7310625, 0.5153835, 0.58252394, -0.005853653, 0
134, 3274343940, 0.0226323, -0.68162215, -0.018328235, -0.73112917, 0.46006382, 0.64506847, 0.0019025803, 0
135, 3274360607, 0.022735402, -0.68154067, -0.018307254, -0.7312023, 0.45110774, 0.61440843, 0.08598423, 0
136, 3274377274, 0.022854239, -0.68146324, -0.018254533, -0.73127216, 0.45844734, 0.5412135, 0.10990238, 0
137, 3274393941, 0.022962362, -0.68137103, -0.018204898, -0.7313561, 0.45246992, 0.5482591, 0.09477997, 0
138, 3274410608, 0.023077473, -0.68128407, -0.018141061, -0.73143494, 0.39398214, 0.64856774, 0.037010193, 0
139, 3274427275, 0.023202315, -0.68119675, -0.018063664, -0.7315142, 0.4269242, 0.6618344, -0.01742363, 0
140, 3274443942, 0.023317724, -0.681121, -0.018009245, -0.73158246, 0.5465248, 0.64752114, 0.0043964386, 0
141, 3274460609, 0.023383766, -0.68105125, -0.017996728, -0.7316455, 0.60073346, 0.6736393, 0.038202286, 0
142, 3274477276, 0.023407653, -0.6809792, -0.018024117, -0.7317112, 0.6063571, 0.75940025, 0.085588455, 0
143, 3274493943, 0.023409992, -0.6808984, -0.018054813, -0.73178554, 0.618566, 0.8230608, 0.17782402, 0
144, 3274510610, 0.02340363, -0.6808029, -0.018066496, -0.7318744, 0.60022783, 0.78359866, 0.10653591, 0
145, 3274527277, 0.023373425, -0.68071926, -0.018113002, -0.7319519, 0.6655211, 0.68479806, -0.059420586, 0
146, 3274543944, 0.023294881, -0.6806606, -0.018214285, -0.7320065, 0.71642196, 0.6520571, 6.4086914E-4, 0
147, 3274560611, 0.023159698, -0.6805989, -0.018376872, -0.7320642, 0.7229073, 0.7429491, 0.061260223, 0
148, 3274577278, 0.022992745, -0.6805258, -0.018581003, -0.7321322, 0.6599666, 0.7896609, 0.07422733, 0
149, 3274593945, 0.022803813, -0.6804484, -0.018806547, -0.73220426, 0.6528574, 0.77973795, 0.07111931, 0
150, 3274610612, 0.022613749, -0.68036985, -0.01901789, -0.7322777, 0.6504247, 0.7400817, 0.03089428, 0
151, 3274627279, 0.022434697, -0.6803202, -0.01919745, -0.7323247, 0.65167344, 0.7441305, 0.026233673, 0
152, 3274643946, 0.022277474, -0.6802605, -0.019335642, -0.73238134, 0.73285997, 0.69871014, 0.082110405, 0
153, 3274660613, 0.022132903, -0.68019307, -0.01947309, -0.73244476, 0.7585593, 0.5914649, 0.21264839, 0
154, 3274677280, 0.021977663, -0.6800907, -0.019618616, -0.73254037, 0.6147344, 0.6338152, 0.16992569, 0
155, 3274693947, 0.021845385, -0.67998815, -0.019710869, -0.73263717, 0.44180283, 0.66646945, 0.09154987, 0
156, 3274710614, 0.021759212, -0.6798871, -0.019728824, -0.73273295, 0.37919465, 0.6504545, -0.03234291, 0
157, 3274727281, 0.021718398, -0.679811, -0.019692853, -0.73280567, 0.3491967, 0.5685761, 0.043606758, 0
158, 3274743948, 0.02171518, -0.67972183, -0.019644573, -0.73288983, 0.4007794, 0.48810548, 0.09081173, 0
159, 3274760615, 0.021693379, -0.67963016, -0.019613251, -0.7329764, 0.44207507, 0.37098825, 0.08274937, 0
160, 3274777282, 0.021642104, -0.67953885, -0.019596413, -0.73306304, 0.37981236, 0.385528, 0.023028374, 0
161, 3274793949, 0.021575078, -0.67945707, -0.01960969, -0.73314035, 0.2802162, 0.5163129, -0.014383316, 0
162, 3274810616, 0.02150087, -0.6793678, -0.01964894, -0.7332243, 0.18749245, 0.6341385, 0.032580376, 0
163, 3274827283, 0.021418884, -0.6792868, -0.019694924, -0.7333005, 0.23402524, 0.57567126, 0.06748772, 0
164, 3274843950, 0.021289214, -0.67919856, -0.019786179, -0.73338366, 0.32777354, 0.47755095, 0.0773592, 0
165, 3274860617, 0.02108118, -0.67911816, -0.019953698, -0.7334594, 0.35281685, 0.5515449, 0.05853653, 0
166, 3274877284, 0.020821273, -0.6790252, -0.020184338, -0.73354656, 0.29131228, 0.6576707, 0.005657196, 0
167, 3274893951, 0.020534873, -0.6789387, -0.020458013, -0.733627, 0.24079183, 0.60724574, -0.019694328, 0
168, 3274910618, 0.02020447, -0.67887163, -0.020755947, -0.73369, 0.3181704, 0.5027535, -0.1369133, 0
169, 3274927285, 0.019844368, -0.6788326, -0.021125287, -0.73372555, 0.42873085, 0.5034804, -0.08947182, 0
170, 3274943952, 0.019449398, -0.67877614, -0.021520168, -0.7337768, 0.5423621, 0.5749607, 0.14802647, 0
171, 3274960619, 0.019034192, -0.6787102, -0.02192232, -0.73383677, 0.5228699, 0.67843187, 0.28230953, 0
172, 3274977286, 0.018662453, -0.6786135, -0.02230367, -0.7339243, 0.46909598, 0.6674135, 0.24735355, 0
173, 3274993953, 0.018321872, -0.6785075, -0.022627518, -0.7340209, 0.42901888, 0.55476964, 0.012848854, 0
174, 3275010620, 0.018012077, -0.6784218, -0.022888988, -0.73409957, 0.42025262, 0.4619142, -0.035258293, 0
175, 3275027287, 0.017741635, -0.6783432, -0.023111373, -0.73417175, 0.42522347, 0.5312769, -0.040914536, 0
176, 3275043954, 0.017509148, -0.6782666, -0.02331318, -0.7342418, 0.4464941, 0.5171822, 0.039539337, 0
177, 3275060621, 0.017298147, -0.6781896, -0.023510411, -0.7343117, 0.51541877, 0.47971043, 0.130373, 0
178, 3275077288, 0.017085105, -0.67810297, -0.023705617, -0.7343906, 0.48120636, 0.49303204, 0.09140682, 0
179, 3275093955, 0.016858831, -0.6780081, -0.0238671, -0.73447806, 0.4182546, 0.5891282, 0.019641876, 0
180, 3275110622, 0.016684502, -0.6779245, -0.024017185, -0.7345542, 0.41315922, 0.564138, -0.0016851425, 0
181, 3275127289, 0.01652424, -0.6778449, -0.024140015, -0.73462725, 0.44845876, 0.5051812, 0.08316612, 0
182, 3275143956, 0.016382873, -0.6777577, -0.024258584, -0.7347071, 0.44611678, 0.4100563, 0.093605995, 0
183, 3275160623, 0.016265884, -0.6776656, -0.024369895, -0.73479086, 0.42852816, 0.36026567, 0.023237228, 0
184, 3275177290, 0.016176552, -0.6775867, -0.024457365, -0.7348628, 0.39060593, 0.33294892, -0.07775974, 0
185, 3275193957, 0.016133979, -0.67751604, -0.024517551, -0.7349268, 0.35859045, 0.43235183, -0.03137207, 0
186, 3275210624, 0.016153961, -0.677446, -0.024525717, -0.7349906, 0.34422255, 0.57698596, 0.09160137, 0
187, 3275227291, 0.01622419, -0.6773755, -0.024447188, -0.73505676, 0.41885033, 0.6021259, 0.11567116, 0
188, 3275243958, 0.016357422, -0.67730707, -0.024309665, -0.7351213, 0.56767225, 0.4643068, 0.043686867, 0
189, 3275260625, 0.016576305, -0.6772415, -0.024113148, -0.7351834, 0.6420986, 0.31850874, 0.033338547, 0
190, 3275277292, 0.016863555, -0.6771797, -0.023847893, -0.73524237, 0.6826384, 0.34393927, 0.0800333, 0
191, 3275293959, 0.017215148, -0.67710483, -0.023484468, -0.73531485, 0.56981295, 0.44636074, 0.11180973, 0
192, 3275310626, 0.017661855, -0.67703086, -0.023005813, -0.7353878, 0.45114785, 0.55954134, 0.12231636, 0
193, 3275327293, 0.018197626, -0.6769438, -0.022469714, -0.73547107, 0.41505367, 0.5639452, 0.072216034, 0
194, 3275343960, 0.018763766, -0.6768643, -0.021896169, -0.7355474, 0.4081046, 0.48330066, 0.020615578, 0
195, 3275360627, 0.019333124, -0.6767878, -0.021314234, -0.73562014, 0.41753742, 0.42789343, 0.03959465, 0
196, 3275377294, 0.019892678, -0.6767261, -0.020756051, -0.73567796, 0.37233296, 0.4217313, 0.0018959045, 0
197, 3275393961, 0.02043058, -0.67665577, -0.020222574, -0.7357428, 0.31925914, 0.50650305, -0.006770134, 0
198, 3275410628, 0.020945191, -0.6765861, -0.01972428, -0.73580587, 0.25061715, 0.54906726, 0.037269592, 0
199, 3275427295, 0.021438405, -0.676525, -0.019265339, -0.7358602, 0.30645514, 0.57036936, 3.3283234E-4, 0
200, 3275443962, 0.021891147, -0.67646396, -0.01885283, -0.73591346, 0.35021234, 0.511021, 0.050700188, 0
201, 3275460629, 0.022271186, -0.6763965, -0.018525645, -0.7359725, 0.32053754, 0.5191621, 0.16122437, 0
202, 3275477296, 0.022603378, -0.67631674, -0.018274024, -0.73604184, 0.24617404, 0.5919497, 0.15450287, 0
203, 3275493963, 0.02292122, -0.6762335, -0.018067077, -0.7361137, 0.16150443, 0.56235856, 0.116719246, 0
204, 3275510630, 0.023221895, -0.6761481, -0.017848998, -0.736188, 0.2130122, 0.41763675, -0.026880264, 0
205, 3275527297, 0.023507044, -0.6760734, -0.017641798, -0.73625255, 0.30225933, 0.34990585, -0.12625027, 0
206, 3275543964, 0.023747668, -0.6760069, -0.017444, -0.7363106, 0.3222656, 0.433511, 0.021074295, 0
207, 3275560631, 0.024009883, -0.675935, -0.017281324, -0.73637205, 0.28634858, 0.599072, 0.106303215, 0
208, 3275577298, 0.024235547, -0.6758578, -0.017101169, -0.73643947, 0.29174516, 0.6157091, 0.15450191, 0
209, 3275593965, 0.02445212, -0.6757692, -0.016923174, -0.7365177, 0.37172967, 0.5784147, 0.040932655, 0
210, 3275610632, 0.024676666, -0.6756982, -0.016757533, -0.73657924, 0.4050734, 0.52876633, -0.045292854, 0
211, 3275627299, 0.024846375, -0.6756458, -0.01659356, -0.7366253, 0.4409149, 0.5743694, -0.067495346, 0
212, 3275643966, 0.02494511, -0.6755953, -0.016436324, -0.73667186, 0.4785039, 0.69131, 0.11883068, 0
213, 3275660633, 0.025041386, -0.6755325, -0.0163351, -0.73672825, 0.4113936, 0.7194507, 0.15958023, 0
214, 3275677300, 0.025097758, -0.67546755, -0.016273677, -0.73678726, 0.42300472, 0.68040156, 0.10856342, 0
215, 3275693967, 0.025110438, -0.6754025, -0.016252398, -0.73684704, 0.41006914, 0.6037733, 0.100569725, 0
216, 3275710634, 0.025093883, -0.6753257, -0.016265884, -0.7369178, 0.42251295, 0.60817075, 0.07992458, 0
217, 3275727301, 0.025048569, -0.6752605, -0.016289145, -0.73697853, 0.3554098, 0.66024363, 0.09388924, 0
218, 3275743968, 0.02497366, -0.6752004, -0.016327485, -0.7370351, 0.36010066, 0.6487264, -0.0058431625, 0
219, 3275760635, 0.024869323, -0.6751412, -0.01641415, -0.737091, 0.3958796, 0.5889462, -0.121956825, 0
220, 3275777302, 0.02471742, -0.67509556, -0.016547933, -0.7371351, 0.35257512, 0.5425967, 0.076467514, 0
221, 3275793969, 0.024521962, -0.6750365, -0.016713202, -0.737192, 0.40417808, 0.52715486, 0.14553928, 0
222, 3275810636, 0.024298191, -0.6749714, -0.016922861, -0.7372542, 0.4058061, 0.48873076, 0.18199253, 0
223, 3275827303, 0.024042144, -0.67490244, -0.017135069, -0.7373206, 0.38427386, 0.5195674, 0.089167595, 0
224, 3275843970, 0.023787007, -0.67483276, -0.017360628, -0.7373874, 0.26512745, 0.5717003, 0.0018758774, 0
225, 3275860637, 0.023540214, -0.6747825, -0.017552868, -0.73743683, 0.25993243, 0.5600067, -0.109680176, 0
226, 3275877304, 0.023310825, -0.6747452, -0.01772657, -0.7374743, 0.31964907, 0.48327246, -0.019457817, 0
227, 3275893971, 0.02309534, -0.67470574, -0.017924502, -0.73751235, 0.42539418, 0.4221307, 0.027005196, 0
228, 3275910638, 0.02285257, -0.67468, -0.01815699, -0.73753756, 0.47654498, 0.43123415, 0.08685589, 0
229, 3275927305, 0.022600576, -0.6746282, -0.018404335, -0.7375867, 0.40145713, 0.45993647, 0.15991688, 0
230, 3275943972, 0.02235204, -0.6745693, -0.018660933, -0.73764163, 0.38883573, 0.48916426, 0.1651411, 0
231, 3275960639, 0.022129133, -0.674511, -0.01888606, -0.7376958, 0.353416, 0.5024446, 0.15318584, 0
232, 3275977306, 0.021947458, -0.6744401, -0.01905945, -0.73776174, 0.3276547, 0.4206334, 0.058813095, 0
233, 3275993973, 0.021814197, -0.67437536, -0.019209042, -0.737821, 0.33176482, 0.27282584, -0.015241623, 0
234, 3276010640, 0.021728799, -0.6743207, -0.019313857, -0.7378707, 0.31957117, 0.21890502, -0.09004593, 0
235, 3276027307, 0.021706581, -0.67426926, -0.019358352, -0.73791724, 0.23842934, 0.297464, -0.034950256, 0
236, 3276043974, 0.021772683, -0.67421865, -0.019314528, -0.7379627, 0.24593773, 0.40276843, -0.072338104, 0
237, 3276060641, 0.02190803, -0.67418647, -0.019193336, -0.73799133, 0.2917472, 0.35036317, 0.013916969, 0
238, 3276077308, 0.022114769, -0.6741562, -0.019024923, -0.7380171, 0.2694849, 0.3995635, 0.2264843, 0
239, 3276093975, 0.022359863, -0.6741092, -0.018804193, -0.73805827, 0.30655602, 0.4462367, 0.20853615, 0
240, 3276110642, 0.022652626, -0.6740296, -0.018510133, -0.73812944, 0.18359338, 0.523849, 0.22136974, 0
241, 3276127309, 0.022964388, -0.6739428, -0.01820533, -0.7382066, 0.2754712, 0.42349055, 0.013883591, 0
242, 3276143976, 0.023232102, -0.6738735, -0.01796487, -0.7382674, 0.3034731, 0.22832966, -0.061309814, 0
243, 3276160643, 0.023443267, -0.67382514, -0.017789155, -0.73830926, 0.25520432, 0.26149005, -0.23215199, 0
244, 3276177310, 0.023604214, -0.6738027, -0.017642543, -0.73832804, -0.0046483995, 0.48527795, -0.039712906, 0
245, 3276193977, 0.023752183, -0.67378885, -0.017479822, -0.73833984, -0.06622686, 0.65773165, 0.19009686, 0
246, 3276210644, 0.023873419, -0.67373174, -0.017354384, -0.738391, 0.11654533, 0.5258418, 0.26176643, 0
247, 3276227311, 0.023940623, -0.6736522, -0.017369077, -0.738461, 0.27452162, 0.34091637, 0.01595211, 0
248, 3276243978, 0.02391842, -0.6735864, -0.017458037, -0.73851967, 0.21567206, 0.41785568, -0.0135746, 0
249, 3276260645, 0.023850024, -0.6735406, -0.01752074, -0.7385622, 0.17648894, 0.5523226, -0.021335602, 0
250, 3276277312, 0.023796424, -0.6735042, -0.017575338, -0.7385958, 0.26861784, 0.48929656, 0.0708189, 0
251, 3276293979, 0.023721531, -0.67344695, -0.017663896, -0.7386483, 0.41456187, 0.37515152, 0.092469215, 0
252, 3276310646, 0.023614705, -0.6733995, -0.017793953, -0.7386918, 0.46302417, 0.43670106, 0.10258007, 0
253, 3276327313, 0.023501381, -0.67334205, -0.017915756, -0.738745, 0.3901122, 0.6453637, 0.10452843, 0
254, 3276343980, 0.02343136, -0.67327935, -0.018015146, -0.7388019, 0.40240598, 0.67305595, 0.05138111, 0
255, 3276360647, 0.02336146, -0.67323387, -0.018058106, -0.7388444, 0.47105524, 0.5631552, 0.07284832, 0
256, 3276377314, 0.023375824, -0.67318153, -0.01812996, -0.73888993, 0.51003754, 0.5528491, 0.07951069, 0
257, 3276393981, 0.023382872, -0.67312086, -0.018113434, -0.7389454, 0.53953075, 0.5625306, 0.041796684, 0
258, 3276410648, 0.023424372, -0.6730802, -0.018034667, -0.738983, 0.52520704, 0.50274533, 0.10267162, 0
259, 3276427315, 0.023497954, -0.67303, -0.017944708, -0.73902845, 0.53680027, 0.4553169, 0.09115219, 0
260, 3276443982, 0.023584887, -0.6729747, -0.01785934, -0.7390782, 0.5727734, 0.4301994, -0.008293152, 0
261, 3276460649, 0.023671597, -0.67293215, -0.017778277, -0.739116, 0.5343292, 0.42856342, 0.009292603, 0
262, 3276477316, 0.023776859, -0.6729023, -0.017675042, -0.73914236, 0.51344645, 0.5065194, 0.0319376, 0
263, 3276493983, 0.023937762, -0.67286754, -0.01754117, -0.739172, 0.4510621, 0.53048205, 0.111647606, 0
264, 3276510650, 0.024143279, -0.67282784, -0.017357767, -0.7392057, 0.412062, 0.48207083, 0.14543438, 0
265, 3276527317, 0.024414062, -0.6727804, -0.017158076, -0.7392448, 0.33812684, 0.3648258, -3.8146973E-5, 0
266, 3276543984, 0.0246955, -0.6727532, -0.016939789, -0.7392652, 0.29634196, 0.32434255, -0.06015873, 0
267, 3276560651, 0.024963617, -0.67272496, -0.016707078, -0.73928726, 0.31139204, 0.31844786, 0.061953545, 0
268, 3276577318, 0.025235102, -0.67267853, -0.016507134, -0.7393248, 0.28709078, 0.27668, 0.19545555, 0
269, 3276593985, 0.025503635, -0.672611, -0.01631771, -0.7393812, 0.20325643, 0.439497, 0.161726, 0
270, 3276610652, 0.025844708, -0.6725564, -0.016094953, -0.7394238, 0.17925382, 0.3410288, 0.04495716, 0
271, 3276627319, 0.026242837, -0.67248833, -0.015809312, -0.739478, 0.255678, 0.39376935, 0.09538841, 0
272, 3276643986, 0.026725486, -0.67242503, -0.015443727, -0.73952603, 0.31508705, 0.18848993, 0.070939064, 0
273, 3276660653, 0.027216896, -0.67235816, -0.015029684, -0.7395774, 0.23763429, 0.3243951, -0.036393166, 0
274, 3276677320, 0.02773963, -0.6723008, -0.014618903, -0.73961836, 0.17841695, 0.32004562, -0.018961906, 0
275, 3276693987, 0.02827786, -0.6722719, -0.014156148, -0.7396331, 0.17695189, 0.43553343, 0.058901787, 0
276, 3276710654, 0.028877273, -0.67223495, -0.013611838, -0.7396539, 0.32941893, 0.5774416, -0.014767647, 0
277, 3276727321, 0.029486254, -0.6721763, -0.013052389, -0.7396932, 0.40152147, 0.41426829, 0.13248348, 0
278, 3276743988, 0.030079529, -0.6721273, -0.012525588, -0.7397228, 0.40706342, 0.48258314, 0.187397, 0
279, 3276760655, 0.030696884, -0.672045, -0.012019992, -0.7397806, 0.3497122, 0.6083807, 0.12722683, 0
280, 3276777322, 0.031278223, -0.6719611, -0.011453673, -0.73984164, 0.37147745, 0.5170888, 0.042619705, 0
281, 3276793989, 0.03188525, -0.6718934, -0.010896534, -0.7398855, 0.4748336, 0.3286525, 9.870529E-4, 0
282, 3276810656, 0.03249404, -0.6718308, -0.010368094, -0.73992354, 0.42777258, 0.41701415, -0.09699726, 0
283, 3276827323, 0.033103347, -0.6717814, -0.009851769, -0.7399484, 0.45595646, 0.6163515, 0.048586845, 0
284, 3276843990, 0.033679128, -0.6717214, -0.009330079, -0.7399837, 0.33706322, 0.7313025, 0.22633076, 0
285, 3276860657, 0.034173504, -0.671665, -0.008802444, -0.7400186, 0.25320885, 0.66141766, 0.3149252, 0
286, 3276877324, 0.034620553, -0.6715979, -0.008282766, -0.7400649, 0.3045554, 0.6604104, 0.017251968, 0
287, 3276893991, 0.035025865, -0.6715217, -0.007900447, -0.74011904, 0.4020954, 0.15427054, 0.007712364, 0
288, 3276910658, 0.035382837, -0.67145616, -0.007566616, -0.74016505, 0.13471444, 0.5547723, 0.10562134, 0
289, 3276927325, 0.035726026, -0.6713825, -0.0071684867, -0.7402193, 0.11862584, 0.48718393, -0.038949966, 0
290, 3276943992, 0.035998374, -0.6713243, -0.00688754, -0.7402615, 0.13925251, 0.16651502, -0.026475906, 0
291, 3276960659, 0.036224455, -0.6712611, -0.0068205893, -0.7403085, 0.13584131, 0.28209594, 0.11632824, 0
292, 3276977326, 0.03643261, -0.67119807, -0.0068458617, -0.74035513, -0.03309696, 0.6207138, 0.13184929, 0
293, 3276993993, 0.036529183, -0.67113733, -0.006748572, -0.7404064, 0.046704095, 0.5973636, 0.15336514, 0
294, 3277010660, 0.036621302, -0.67106056, -0.0066901, -0.7404719, 0.21024384, 0.28979978, 0.15392303, 0
295, 3277027327, 0.036685646, -0.6709717, -0.00673528, -0.7405488, 0.22460353, 0.27218917, 0.050078392, 0
296, 3277043994, 0.036759093, -0.67089176, -0.0067944527, -0.740617, 0.08701463, 0.46904206, -0.021461487, 0
297, 3277060661, 0.03682585, -0.6708221, -0.0067400187, -0.7406773, 0.07452324, 0.43411613, -0.041380882, 0
298, 3277077328, 0.03687261, -0.67076844, -0.006677538, -0.74072427, 0.2255432, 0.25798312, -0.101854324, 0
299, 3277093995, 0.03688921, -0.67072356, -0.006719008, -0.7407636, 0.26009312, 0.32124555, 0.018965721, 0
300, 3277110662, 0.036880046, -0.67066073, -0.0067629665, -0.7408205, 0.11069865, 0.6611793, 0.24359989, 0
301, 3277127329, 0.03691311, -0.67059183, -0.0067276508, -0.7408817, 0.17752583, 0.61323726, 0.11313534, 0
302, 3277143996, 0.036929622, -0.670503, -0.0066863447, -0.74096155, 0.33005232, 0.22382498, 0.07423115, 0
303, 3277160663, 0.036951408, -0.6704264, -0.0067535937, -0.74102914, 0.32934964, 0.24190482, -0.016189575, 0
304, 3277177330, 0.036949873, -0.6703661, -0.006826639, -0.741083, 0.23533776, 0.4851437, -0.03582573, 0
305, 3277193997, 0.03695056, -0.6703198, -0.0068107545, -0.741125, 0.24059689, 0.55125743, 0.060801506, 0
306, 3277210664, 0.03698808, -0.6702645, -0.006784454, -0.7411734, 0.38430122, 0.38133717, 0.059951782, 0
307, 3277227331, 0.037014008, -0.6702117, -0.006806284, -0.7412197, 0.3470837, 0.3605464, 0.09157753, 0
308, 3277243998, 0.037058532, -0.67016304, -0.006820649, -0.74126136, 0.2892606, 0.46466735, 0.110126495, 0
309, 3277260665, 0.037098974, -0.6701169, -0.00677, -0.74130154, 0.2934469, 0.4493205, 0.12041283, 0
310, 3277277332, 0.037152827, -0.6700636, -0.006719306, -0.7413474, 0.35978657, 0.37683067, 0.06763649, 0
311, 3277293999, 0.037203863, -0.67000455, -0.0067670047, -0.7413978, 0.31537077, 0.44943193, -0.045825005, 0
312, 3277310666, 0.037213013, -0.66996145, -0.0068277717, -0.7414357, 0.23251049, 0.6407997, -0.03417778, 0
313, 3277327333, 0.037202075, -0.6699535, -0.006857887, -0.7414433, 0.3206395, 0.8761781, -0.26556015, 0
314, 3277344000, 0.037088633, -0.67000085, -0.006874457, -0.7414061, 0.77877367, 0.44857532, -0.30524063, 0
315, 3277360667, 0.036952138, -0.67000645, -0.0069080144, -0.74140733, 0.17109227, 0.7893169, 1.3428469, 0
316, 3277377334, 0.03686011, -0.6699045, -0.0068852156, -0.7415043, 0.24106489, 0.9856826, -0.17840862, 0
317, 3277394001, 0.036790118, -0.6698353, -0.006869003, -0.7415705, -0.013507083, 0.32372007, -0.07169056, 0
318, 3277410668, 0.03666468, -0.66980463, -0.0069459975, -0.7416037, 0.28201416, -0.043799598, 0.07613754, 0
319, 3277427335, 0.03644879, -0.6697622, -0.0070659965, -0.7416516, 0.10727229, 0.031133374, 0.05145359, 0
320, 3277444002, 0.03624335, -0.66975796, -0.007156804, -0.74166447, -0.075498655, 0.38864678, 0.03974819, 0
321, 3277460669, 0.036078572, -0.66973203, -0.007181123, -0.74169576, -0.031133454, 0.3380838, 0.0019989014, 0
322, 3277477336, 0.035949856, -0.66970116, -0.007247925, -0.7417292, 0.0072866064, 0.12142565, -0.0074510574, 0
323, 3277494003, 0.03582415, -0.66966707, -0.007356122, -0.74176496, 0.09491167, 0.1180943, 0.020849228, 0
324, 3277510670, 0.03566079, -0.66961634, -0.0074771047, -0.7418174, -0.0031421173, 0.07655129, 0.11598396, 0
325, 3277527337, 0.03552212, -0.6695665, -0.0075873733, -0.7418679, -0.0474929, 0.224713, 0.11100483, 0
326, 3277544004, 0.03541772, -0.66951555, -0.0076559335, -0.7419182, -0.07565626, 0.2988812, 0.1267147, 0
327, 3277560671, 0.035396963, -0.66946316, -0.0077068657, -0.74196607, 0.029636253, 0.25604907, -0.026947975, 0
328, 3277577338, 0.035391197, -0.66942793, -0.0077364743, -0.74199784, 0.13479842, 0.050617304, -0.07379627, 0
329, 3277594005, 0.03538926, -0.6694014, -0.0077721626, -0.7420214, 0.21767977, 0.11246412, 0.028328896, 0
330, 3277610672, 0.03543, -0.66937244, -0.007802084, -0.7420453, 0.29313767, 0.33577132, 0.085383415, 0
331, 3277627339, 0.035535276, -0.66932213, -0.007748395, -0.7420862, 0.33164167, 0.45748547, 0.1275711, 0
332, 3277644006, 0.035703555, -0.6692724, -0.0076358467, -0.742124, 0.3652694, 0.48074552, 0.17097569, 0
333, 3277660673, 0.035884395, -0.6692151, -0.007493049, -0.7421685, 0.37978724, 0.4964872, 0.16226768, 0
334, 3277677340, 0.03606361, -0.6691513, -0.0073302537, -0.7422191, 0.38804638, 0.51761013, 0.09011936, 0
335, 3277694007, 0.036270857, -0.669093, -0.007173732, -0.742263, 0.43864158, 0.5303495, 0.022514343, 0
336, 3277710674, 0.03645657, -0.66904044, -0.0070360303, -0.7423026, 0.5249405, 0.501298, 0.01677227, 0
337, 3277727341, 0.036624625, -0.6689961, -0.0069274902, -0.7423353, 0.5504591, 0.53119206, 0.035634995, 0
338, 3277744008, 0.03676863, -0.66896975, -0.0068222582, -0.74235284, 0.5221605, 0.591606, 0.10405254, 0
339, 3277760675, 0.036910623, -0.6689363, -0.0067336857, -0.7423768, 0.5055433, 0.61921006, 0.03217411, 0
340, 3277777342, 0.037019134, -0.66890645, -0.006650269, -0.74239904, 0.46511188, 0.59524655, 0.068639755, 0
341, 3277794009, 0.037107974, -0.6688678, -0.0065945536, -0.7424299, 0.42847458, 0.5665693, 0.14148903, 0
342, 3277810676, 0.03717482, -0.6688326, -0.006561026, -0.74245846, 0.46830627, 0.58367246, 0.15458393, 0
343, 3277827343, 0.03721057, -0.66879445, -0.006531924, -0.7424913, 0.50498194, 0.53648794, 0.11336708, 0
344, 3277844010, 0.037238866, -0.66874903, -0.0065357983, -0.7425309, 0.48850736, 0.5134966, 0.035518646, 0
345, 3277860677, 0.03725493, -0.6687095, -0.00654383, -0.7425655, 0.42273787, 0.56181055, 0.0064020157, 0
346, 3277877344, 0.037243217, -0.66866904, -0.0065814704, -0.7426023, 0.3983013, 0.5415004, 0.124913216, 0
347, 3277894011, 0.037191153, -0.6686314, -0.006648779, -0.7426381, 0.37074918, 0.54406834, 0.11795902, 0
348, 3277910678, 0.037086338, -0.6685916, -0.0067576617, -0.7426781, 0.33019114, 0.51542634, 0.117334366, 0
349, 3277927345, 0.036939666, -0.6685585, -0.006899789, -0.74271405, 0.29350793, 0.56663877, 0.08808422, 0
350, 3277944012, 0.036763296, -0.66852367, -0.0070195943, -0.74275297, 0.24654824, 0.5886351, 0.057844162, 0
351, 3277960679, 0.036581904, -0.668493, -0.007148236, -0.7427884, 0.26549318, 0.43086928, 0.036854744, 0
352, 3277977346, 0.03637047, -0.66847247, -0.007299423, -0.74281573, 0.31081477, 0.3148256, 0.06535053, 0
353, 3277994013, 0.036148593, -0.66844743, -0.0074946284, -0.74284714, 0.26770315, 0.41301027, 0.07673073, 0
354, 3278010680, 0.03591463, -0.6684164, -0.0076895207, -0.7428845, 0.20087023, 0.51328444, 0.11702061, 0
355, 3278027347, 0.03569451, -0.66839224, -0.007844225, -0.7429152, 0.24823925, 0.46861213, 0.08964634, 0
356, 3278044014, 0.035453424, -0.6683576, -0.0079782605, -0.74295664, 0.26198775, 0.3497978, 0.037796974, 0
357, 3278060681, 0.035242468, -0.66833186, -0.00814271, -0.742988, 0.29253617, 0.32289854, -0.048594475, 0
358, 3278077348, 0.035050318, -0.6683169, -0.0082787275, -0.7430089, 0.2554228, 0.33278152, -0.009780884, 0
359, 3278094015, 0.03490533, -0.6683153, -0.008356735, -0.74301636, 0.25970018, 0.34586117, 0.046826363, 0
360, 3278110682, 0.034779713, -0.668335, -0.008396581, -0.743004, 0.33894056, 0.31126457, 0.15687943, 0
361, 3278127349, 0.034672767, -0.6683137, -0.008457646, -0.7430274, 0.38918048, 0.34655026, 0.20824242, 0
362, 3278144016, 0.034586027, -0.6682844, -0.008522645, -0.7430572, 0.37907466, 0.43499252, 0.16173553, 0
363, 3278160683, 0.03449224, -0.66824037, -0.0085543245, -0.7431007, 0.3493295, 0.38424906, 0.109381676, 0
364, 3278177350, 0.034421757, -0.6682056, -0.008577868, -0.7431349, 0.34068656, 0.28935438, 0.020588875, 0
365, 3278194017, 0.034387663, -0.668174, -0.0086364895, -0.74316436, 0.31030467, 0.28584436, 0.023355484, 0
366, 3278210684, 0.034372956, -0.6681415, -0.008679226, -0.7431936, 0.2505757, 0.4069951, 0.07069111, 0
367, 3278227351, 0.034377024, -0.66811293, -0.008649513, -0.74321955, 0.24737397, 0.42416802, 0.094106674, 0
368, 3278244018, 0.034381226, -0.668064, -0.008563027, -0.7432644, 0.25888816, 0.3152537, 0.10895729, 0
369, 3278260685, 0.034430683, -0.66800696, -0.008553237, -0.7433134, 0.2510174, 0.32571772, 0.09223461, 0
370, 3278277352, 0.03446719, -0.66796213, -0.008519322, -0.74335235, 0.15407388, 0.38835934, 0.08432865, 0
371, 3278294019, 0.034511894, -0.6679148, -0.008491635, -0.74339306, 0.15051463, 0.36510953, -0.0056352615, 0
372, 3278310686, 0.034512356, -0.66788495, -0.008475035, -0.7434202, 0.14938715, 0.2833999, 0.021568298, 0
373, 3278327353, 0.034468457, -0.66785836, -0.008499593, -0.7434458, 0.18421192, 0.35444427, 0.061138153, 0
374, 3278344020, 0.034437776, -0.66783595, -0.0085527, -0.7434667, 0.14568259, 0.40982834, 0.09725189, 0
375, 3278360687, 0.034381405, -0.66781384, -0.0085930675, -0.7434887, 0.22426933, 0.450913, 0.1095829, 0
376, 3278377354, 0.034288555, -0.6677854, -0.008652791, -0.7435179, 0.30516002, 0.42978713, 0.10218716, 0
377, 3278394021, 0.034189135, -0.66773653, -0.008770898, -0.743565, 0.26704794, 0.5042895, 0.12930107, 0
378, 3278410688, 0.034073442, -0.6676919, -0.008880675, -0.74360913, 0.24556002, 0.49486038, 0.1099329, 0
379, 3278427355, 0.03394413, -0.66765505, -0.008969352, -0.7436471, 0.24975745, 0.3756762, 0.086992264, 0
380, 3278444022, 0.033801556, -0.6676229, -0.009065539, -0.7436812, 0.2815642, 0.33599138, 0.046292305, 0
381, 3278460689, 0.03364663, -0.6675897, -0.009177893, -0.74371654, 0.24738088, 0.34070495, 0.061862946, 0
382, 3278477356, 0.033475533, -0.66754776, -0.009286389, -0.74376076, 0.23795678, 0.4246592, 0.072958946, 0
383, 3278494023, 0.03331153, -0.667511, -0.009359553, -0.74380016, 0.16593833, 0.43116343, 0.10788345, 0
384, 3278510690, 0.03319554, -0.66747046, -0.00941968, -0.74384093, 0.18575919, 0.33107165, 0.07231903, 0
385, 3278527357, 0.033109978, -0.6674351, -0.009457797, -0.7438759, 0.19096589, 0.20125476, 0.044315338, 0
386, 3278544024, 0.03302425, -0.66740227, -0.009483695, -0.7439088, 0.14624178, 0.19492888, 0.040096283, 0
387, 3278560691, 0.032955647, -0.6673628, -0.009490192, -0.7439473, 0.095830426, 0.30557072, 0.054416656, 0
388, 3278577358, 0.03292674, -0.66732246, -0.009497926, -0.74398464, 0.10411337, 0.30749047, 0.026651382, 0
389, 3278594025, 0.032954738, -0.6672863, -0.00950712, -0.74401575, 0.10772358, 0.263463, 0.030558586, 0
390, 3278610692, 0.032986596, -0.66723996, -0.009452149, -0.7440566, 0.1841319, 0.21711166, 0.09270859, 0
391, 3278627359, 0.03306584, -0.66720426, -0.009361744, -0.7440862, 0.25738907, 0.20659168, 0.038772583, 0
392, 3278644026, 0.033181205, -0.6671516, -0.009237245, -0.74412984, 0.20840093, 0.22512984, 0.055422783, 0
393, 3278660693, 0.033307165, -0.66711026, -0.0091008395, -0.7441629, 0.17027508, 0.3236526, 0.07909298, 0
394, 3278677360, 0.03346345, -0.66706246, -0.008984089, -0.7442003, 0.13072619, 0.3206764, 0.042902946, 0
395, 3278694027, 0.03360349, -0.6670193, -0.00883247, -0.7442344, 0.10126087, 0.3561366, 0.052182198, 0
396, 3278710694, 0.033751875, -0.66698116, -0.008660838, -0.7442638, 0.11671752, 0.34196946, 0.04978752, 0
397, 3278727361, 0.03389725, -0.6669527, -0.008518949, -0.74428433, 0.3751245, 0.2477811, -0.40044022, 0
398, 3278744028, 0.03401023, -0.6669522, -0.008442894, -0.7442805, 0.2501119, 0.18628117, 0.36945248, 0
399, 3278760695, 0.03411597, -0.6669328, -0.008375719, -0.7442938, 0.17248169, 0.4576174, 0.36497784, 0
400, 3278777362, 0.034210816, -0.66685545, -0.008185104, -0.7443609, -0.06760001, 0.7158545, 0.24397945, 0
401, 3278794029, 0.034382105, -0.6667732, -0.007973269, -0.7444291, 0.040402174, 0.3227669, 0.011677742, 0
402, 3278810696, 0.034538522, -0.6666871, -0.007830083, -0.7445005, 0.02578859, 0.06644437, -0.058668137, 0
403, 3278827363, 0.034592703, -0.6666285, -0.0077373683, -0.7445512, -0.2312327, 0.010796794, -0.07713318, 0
404, 3278844030, 0.034583703, -0.6665963, -0.007717058, -0.74458075, -0.44540685, 0.12708734, -0.13815022, 0
405, 3278860697, 0.034491032, -0.6665864, -0.0077269077, -0.74459386, -0.5442223, 0.06524578, -0.16729069, 0
406, 3278877364, 0.034419164, -0.6665809, -0.007918224, -0.7446001, -0.44634506, 0.056904547, -0.110798836, 0
407, 3278894031, 0.034294307, -0.6665879, -0.008137867, -0.7445972, -0.29298133, 0.1307876, 0.104120255, 0
408, 3278910698, 0.034172505, -0.666576, -0.008335918, -0.7446112, -0.17062186, 0.17934076, 0.2395773, 0
409, 3278927365, 0.034067586, -0.6665374, -0.008475408, -0.744649, -0.04105296, 0.11375725, 0.17660332, 0
410, 3278944032, 0.033970997, -0.66649324, -0.008583814, -0.7446919, -0.045777883, 0.14695239, -0.03671646, 0
411, 3278960699, 0.03395085, -0.6664457, -0.008670822, -0.7447343, -0.11610551, 0.093921706, -0.112584114, 0
412, 3278977366, 0.033969507, -0.6664211, -0.008708715, -0.74475497, 0.012264016, 0.027031321, -0.07398987, 0
413, 3278994033, 0.034017876, -0.66640234, -0.008765534, -0.7447688, 0.17803994, 0.06200607, 0.015014648, 0
414, 3279010700, 0.034042716, -0.66639304, -0.008798972, -0.7447755, 0.2441001, 0.26050323, 0.12128067, 0
415, 3279027367, 0.034128025, -0.6663837, -0.0088054985, -0.74478006, 0.2435047, 0.54076934, 0.14381313, 0
416, 3279044034, 0.034283057, -0.66634935, -0.0087201, -0.7448046, 0.2252991, 0.4620119, 0.18239403, 0
417, 3279060701, 0.03443232, -0.666324, -0.008600652, -0.7448217, 0.3065129, 0.29682007, 0.081534386, 0
418, 3279077368, 0.034571335, -0.6662778, -0.0085311085, -0.7448575, 0.30413043, 0.23800254, 0.002571106, 0
419, 3279094035, 0.03467536, -0.66627336, -0.008514687, -0.74485695, 0.25605237, 0.4110448, 0.055582047, 0
420, 3279110702, 0.034771398, -0.666263, -0.008492187, -0.7448619, 0.21634065, 0.5896805, 0.12529945, 0
421, 3279127369, 0.03487882, -0.6662449, -0.008452743, -0.7448734, 0.26675457, 0.48778203, 0.19415379, 0
422, 3279144036, 0.034908265, -0.6662199, -0.008423582, -0.7448948, 0.3534585, 0.38133413, 0.13724232, 0
423, 3279160703, 0.034943953, -0.6661662, -0.008455351, -0.7449408, 0.23261413, 0.33784565, 0.09876251, 0
424, 3279177370, 0.034935564, -0.6661364, -0.008479208, -0.74496764, 0.18737365, 0.38105696, -0.037971497, 0
425, 3279194037, 0.03488773, -0.66611725, -0.008524597, -0.7449864, 0.07333876, 0.41315508, 0.021904945, 0
426, 3279210704, 0.03482759, -0.66611904, -0.008639067, -0.7449864, 0.058173046, 0.45418158, 0.023921013, 0
427, 3279227371, 0.034746468, -0.6661124, -0.00878115, -0.7449944, 0.062280934, 0.4426274, 0.1185503, 0
428, 3279244038, 0.034636334, -0.66609144, -0.008877903, -0.7450171, 0.13279144, 0.37309656, 0.12951374, 0
429, 3279260705, 0.03458062, -0.6660631, -0.008951426, -0.7450442, 0.17546938, 0.20168792, 0.16145897, 0
430, 3279277372, 0.034545615, -0.66603076, -0.009018287, -0.745074, 0.10024405, 0.14753632, 0.09555149, 0
431, 3279294039, 0.034508884, -0.66600084, -0.009082332, -0.7451016, -0.09495498, 0.28312194, -0.038205147, 0
432, 3279310706, 0.034418464, -0.66598344, -0.009127855, -0.7451207, -0.19147973, 0.37837481, -0.06918144, 0
433, 3279327373, 0.034283698, -0.66597855, -0.009215847, -0.74513024, -0.14301574, 0.20156476, 0.11241245, 0
434, 3279344040, 0.034096524, -0.66596735, -0.009388715, -0.74514675, -0.034367155, 0.16215786, 0.17123413, 0
435, 3279360707, 0.033917144, -0.66591424, -0.00958018, -0.74519986, -0.102903046, 0.24126022, 0.12631893, 0
436, 3279377374, 0.033762053, -0.66587526, -0.0096987635, -0.74524033, -0.14097247, 0.21464273, -0.083548546, 0
437, 3279394041, 0.03367573, -0.6658451, -0.00972186, -0.7452708, -0.1032774, 0.083476275, -0.054593086, 0
438, 3279410708, 0.03367299, -0.6658149, -0.009693414, -0.74529827, -0.030282233, -0.09925506, 0.07319832, 0
439, 3279427375, 0.033742502, -0.66578716, -0.00963828, -0.74532056, 0.027571775, 0.037734576, 0.2518263, 0
440, 3279444042, 0.03384915, -0.6657476, -0.009486288, -0.74535304, -0.0828001, 0.13026446, 0.31238937, 0
441, 3279460709, 0.034023345, -0.6656945, -0.009287149, -0.74539506, -0.07749834, 0.14916115, 0.113907814, 0
442, 3279477376, 0.03418562, -0.6656382, -0.009074554, -0.7454405, -0.020240048, 0.15632261, -0.34614277, 0
443, 3279494043, 0.034364894, -0.66561615, -0.008912206, -0.74545395, -0.009627326, 0.21340261, -0.15980816, 0
444, 3279510710, 0.034527555, -0.66561204, -0.008718774, -0.7454524, 0.11330484, 0.3104745, 0.08298874, 0
445, 3279527377, 0.03474465, -0.66558945, -0.008482203, -0.74546534, 0.23930225, 0.23619318, 0.40616798, 0
446, 3279544044, 0.03501168, -0.6655158, -0.008225873, -0.7455214, 0.39080697, 0.05671172, 0.4665947, 0
447, 3279560711, 0.035308957, -0.6654023, -0.007973254, -0.7456113, 0.28454348, 0.13427563, 0.3375864, 0
448, 3279577378, 0.03566684, -0.66527396, -0.0076800287, -0.74571204, -0.08071871, 0.23056144, -0.008975029, 0
449, 3279594045, 0.036056682, -0.66516906, -0.007355094, -0.7457901, -0.28370166, 0.18509433, -0.19381618, 0
450, 3279610712, 0.03641434, -0.6650907, -0.0070551783, -0.74584556, -0.30290782, 0.05314635, -0.17170334, 0
451, 3279627379, 0.036760658, -0.66503847, -0.006791055, -0.7458774, -0.29610097, 0.02697589, -0.06438351, 0
452, 3279644046, 0.037127495, -0.6649838, -0.00651367, -0.7459105, -0.29351187, 0.05146028, 0.18530464, 0
453, 3279660713, 0.03756751, -0.6648926, -0.0061445087, -0.74597293, -0.26246235, 0.024836872, 0.32598495, 0
454, 3279677380, 0.03809473, -0.66476774, -0.0056872517, -0.746061, -0.2128981, -0.09768365, 0.14729977, 0
455, 3279694047, 0.03866464, -0.66463006, -0.005200371, -0.74615794, -0.3863568, -0.12403196, -0.1245985, 0
456, 3279710714, 0.039249867, -0.6645225, -0.004705459, -0.7462266, -0.6255632, -0.10827001, -0.11919689, 0
457, 3279727381, 0.03983313, -0.6644546, -0.0041898787, -0.74625915, -0.6635704, 0.07973456, -0.034007072, 0
458, 3279744048, 0.0404426, -0.6643891, -0.0036833435, -0.74628735, -0.5049409, -0.1104515, 0.30372334, 0
459, 3279760715, 0.04108423, -0.664264, -0.003208965, -0.7463657, -0.34731978, -0.25925145, 0.21834564, 0
460, 3279777382, 0.04174313, -0.664127, -0.0027282387, -0.74645305, -0.4341689, -0.25328255, -0.29220104, 0
461, 3279794049, 0.042386338, -0.6640049, -0.0022084415, -0.7465272, -0.7974293, -0.07970818, -0.3127594, 0
462, 3279810716, 0.042998984, -0.66393274, -0.0016724914, -0.74655765, -1.2839097, -0.07493663, -0.29114342, 0
463, 3279827383, 0.043554395, -0.66390765, -0.0012632608, -0.7465486, -1.1043346, -0.41132998, -0.34499073, 0
464, 3279844050, 0.044042096, -0.66386545, -0.0010020584, -0.746558, -0.9451296, -0.14214765, -0.010350227, 0
465, 3279860717, 0.044519767, -0.66380954, -6.6557527E-4, -0.7465797, -1.2076133, 0.09696059, 0.2729702, 0
466, 3279877384, 0.044946104, -0.6637655, -3.4216046E-4, -0.7465935, -1.1423998, -0.5682295, -0.27945518, 0
467, 3279894051, 0.045216113, -0.6637711, -2.8932095E-4, -0.7465722, -1.0120299, -0.84400505, -0.542428, 0
468, 3279910718, 0.04536876, -0.6637408, -3.9340556E-4, -0.7465898, -1.5982903, -0.19219251, 0.11804581, 0
469, 3279927385, 0.045525536, -0.66374075, -3.7413836E-4, -0.74658024, -2.1371493, 0.006443767, -0.35374737, 0
470, 3279944052, 0.045509905, -0.6637889, -5.582571E-4, -0.74653846, -0.98465145, -1.2380332, -0.75927734, 0
471, 3279960719, 0.04541242, -0.66382277, -9.3609095E-4, -0.7465139, -1.8484527, -0.32426086, 0.31145763, 0
472, 3279977386, 0.04533276, -0.66381115, -0.0011873394, -0.74652874, -1.5013921, 0.17517571, -0.1798563, 0
473, 3279994053, 0.045114517, -0.66382617, -0.0015398711, -0.7465279, -1.5049075, -0.53592056, -1.0146141, 0
474, 3280010720, 0.044809774, -0.66401124, -0.0021439344, -0.74638015, -2.81721, -1.0835954, -0.87312984, 0
475, 3280027387, 0.04431781, -0.66422063, -0.0030353218, -0.7462202, -2.5824156, -1.4763314, 0.042951584, 0
476, 3280044054, 0.043744475, -0.66426927, -0.0038729012, -0.7462068, -2.91543, -0.8080568, 0.29661465, 0
477, 3280060721, 0.043196887, -0.6643162, -0.0045486987, -0.7461931, -2.9208674, -0.7325866, -0.66938686, 0
478, 3280077388, 0.04267989, -0.66436225, -0.0052940696, -0.7461769, -2.7810237, -1.676608, -0.352417, 0
479, 3280094055, 0.04212278, -0.6643401, -0.0061715394, -0.7462217, -3.0778968, -1.732102, 0.31592655, 0
480, 3280110722, 0.04154943, -0.66427356, -0.006969914, -0.7463059, -3.30088, -1.3306876, -0.65193176, 0
481, 3280127389, 0.041018173, -0.6642837, -0.007636294, -0.74631965, -3.6645987, -1.4790912, -0.69312096, 0
482, 3280144056, 0.040521786, -0.6643358, -0.008327082, -0.74629307, -3.6871784, -1.9308299, 0.030233383, 0
483, 3280160723, 0.040009335, -0.66434574, -0.009101808, -0.74630296, -3.4834661, -1.8143756, 0.34474373, 0
484, 3280177390, 0.039484456, -0.6643008, -0.0098439455, -0.7463613, -3.2104657, -1.3978475, -0.17886353, 0
485, 3280194057, 0.038910344, -0.66419154, -0.010557532, -0.7464789, -2.8083572, -1.4374056, -1.1261139, 0
486, 3280210724, 0.038323477, -0.66414845, -0.011337265, -0.7465363, -3.221883, -1.3518976, -0.48025703, 0
487, 3280227391, 0.037663534, -0.6643581, -0.012188107, -0.74636996, -3.5417132, -1.451726, -0.84488106, 0
488, 3280244058, 0.036932364, -0.66448593, -0.0132060945, -0.74627537, -2.617144, -1.063918, -1.5714502, 0
489, 3280260725, 0.036082163, -0.6645364, -0.014266893, -0.7462525, -2.890419, -1.1737007, -0.595438, 0
490, 3280277392, 0.03497164, -0.6647451, -0.015452415, -0.74609584, -3.571781, -1.667045, -2.0684261, 0
491, 3280294059, 0.033628285, -0.66517377, -0.016857952, -0.74574494, -3.6955569, -0.066971414, -0.33409595, 0
492, 3280310726, 0.03220032, -0.66549724, -0.018404558, -0.74548274, -3.705684, -0.028132793, -0.70292664, 0
493, 3280327393, 0.030621067, -0.6659401, -0.020192131, -0.74510753, -3.8492763, -1.2125566, -0.81096935, 0
494, 3280344060, 0.028754711, -0.66653836, -0.022254094, -0.744588, -2.5822234, -2.124761, -1.8029613, 0
495, 3280360727, 0.026493296, -0.667177, -0.024462566, -0.7440305, -2.5061064, -0.95787954, -1.6154213, 0
496, 3280377394, 0.0241355, -0.66803676, -0.026612312, -0.743265, -2.1966743, 0.42706946, 0.005173683, 0
497, 3280394061, 0.022138044, -0.66897696, -0.028371587, -0.742416, -2.0674267, 1.4545792, 0.52470016, 0
498, 3280410728, 0.020703375, -0.66967636, -0.029295787, -0.74179083, -0.0137450965, 1.3749937, 1.9410915, 0
499, 3280427395, 0.019670665, -0.67000604, -0.02919367, -0.74152523, 1.7604465, 1.4504237, 2.1480255, 0
500, 3280444062, 0.018941358, -0.6701305, -0.028166696, -0.7414716, 1.760661, 0.74468213, 2.575345, 0
501, 3280460729, 0.018351376, -0.670372, -0.026525453, -0.7413285, 1.5308572, 1.2580509, 0.118463516, 0
502, 3280477396, 0.01791419, -0.67048967, -0.024491057, -0.7413026, 1.8218266, 2.5834737, 0.59375286, 0
503, 3280494063, 0.017663315, -0.6704609, -0.022044048, -0.74141145, 2.172005, 3.1195815, 1.1357412, 0
504, 3280510730, 0.017497107, -0.67035484, -0.019219473, -0.7415899, 3.519861, 2.5166752, 2.5145035, 0
505, 3280527397, 0.01736331, -0.66997635, -0.016355276, -0.7420038, 4.253422, 1.3317497, 1.5938463, 0
506, 3280544064, 0.017279372, -0.6694221, -0.013734683, -0.7425588, 3.8458197, 0.84396863, 1.2674313, 0
507, 3280560731, 0.017291859, -0.6687932, -0.011303782, -0.74316585, 3.311277, 1.040711, -0.3649912, 0
508, 3280577398, 0.017376661, -0.66829675, -0.00890106, -0.7436431, 1.8943559, 1.3728193, -0.03214836, 0
509, 3280594065, 0.017678604, -0.6680224, -0.0065211356, -0.74390715, 2.916798, 1.0634637, -0.6852007, 0
510, 3280610732, 0.018288806, -0.66776323, -0.004446715, -0.7441403, 3.1936936, 0.08553439, 0.92212486, 0
511, 3280627399, 0.019289136, -0.66745704, -0.0026367456, -0.7443984, 3.7124083, -0.4500217, -0.1020298, 0
512, 3280644066, 0.020526335, -0.6670587, -9.267777E-4, -0.7447265, 3.1650603, -0.43806237, 0.012132645, 0
513, 3280660733, 0.021848544, -0.666755, 7.427335E-4, -0.74496084, 1.7730811, -0.39636335, -0.38509464, 0
514, 3280677400, 0.023326397, -0.6664416, 0.0023175925, -0.7451932, 0.559261, 0.27878726, 0.3077736, 0
515, 3280694067, 0.024963155, -0.6661829, 0.0037837178, -0.74536556, 0.22836533, -0.052980505, -0.08458042, 0
516, 3280710734, 0.026780024, -0.66598445, 0.005138129, -0.7454717, -0.32539862, -0.4484089, 0.18225765, 0
517, 3280727401, 0.028742865, -0.6657601, 0.006334454, -0.74558973, -0.53252757, -1.5956162, -0.33382416, 0
518, 3280744068, 0.030701265, -0.66558844, 0.0073833466, -0.74565524, -0.827581, -2.0562663, -1.3221436, 0
519, 3280760735, 0.03254521, -0.6655138, 0.008179575, -0.74563545, -1.3449317, -1.0910698, -0.63745403, 0
520, 3280777402, 0.034375817, -0.6654074, 0.008638635, -0.745643, -1.9463334, -1.1227986, -0.031826973, 0
521, 3280794069, 0.03620754, -0.6652917, 0.008892447, -0.7456565, -1.3228532, -0.7287496, -0.39704704, 0
522, 3280810736, 0.038211137, -0.6652059, 0.009186819, -0.7456295, -1.508743, -1.3947966, -0.055351257, 0
523, 3280827403, 0.040425494, -0.6652545, 0.009431332, -0.7454664, -1.2159637, -2.035118, -0.80925274, 0
524, 3280844070, 0.042657062, -0.6653104, 0.009498686, -0.74529123, -0.6920357, -2.2959154, -0.52543163, 0
525, 3280860737, 0.044600934, -0.6652839, 0.008924842, -0.7452082, -1.4196178, -1.6410359, 0.25328922, 0
526, 3280877404, 0.046426043, -0.66522014, 0.007906288, -0.7451652, -1.6841552, -0.85995203, 0.0046863556, 0
527, 3280894071, 0.048323333, -0.66521204, 0.006937787, -0.7450613, -1.5722698, -0.99065113, -0.6250887, 0
528, 3280910738, 0.050434023, -0.6652761, 0.0060804635, -0.74487174, -0.9326237, -2.1090767, -0.29458046, 0
529, 3280927405, 0.052650303, -0.6653905, 0.0049097985, -0.74462473, -0.14971566, -2.5456731, -0.077246666, 0
530, 3280944072, 0.05484827, -0.6654411, 0.0033559948, -0.7444295, -0.094442494, -1.662883, -0.052085876, 0
531, 3280960739, 0.05693011, -0.66542244, 0.0017656982, -0.74429536, -0.9786981, -0.61137646, 0.8402071, 0
532, 3280977406, 0.058834463, -0.6653469, 6.8068504E-5, -0.74421686, -1.7505988, -0.41436452, 0.030033112, 0
533, 3280994073, 0.060698286, -0.6652334, -0.0016785264, -0.74416685, -2.4864733, 0.021895552, 0.9187584, 0
534, 3281010740, 0.06262848, -0.6651221, -0.0033629984, -0.7441006, -2.3085396, -2.3135931, 0.03669262, 0
535, 3281027407, 0.06447895, -0.6651491, -0.0052582473, -0.74390745, -2.894299, -2.7009358, -0.43340588, 0
536, 3281044074, 0.06621997, -0.665227, -0.0072865933, -0.7436678, -2.971651, -2.8378816, 0.0517416, 0
537, 3281060741, 0.06760082, -0.66526175, -0.009592354, -0.74348634, -2.532367, -2.2127597, 0.66960716, 0
538, 3281077408, 0.06854549, -0.6652102, -0.0121921, -0.7434078, -2.7042916, -0.77588356, -0.16618633, 0
539, 3281094075, 0.069299, -0.66523135, -0.014746815, -0.7432727, -3.7458012, 0.28281096, -2.0852976, 0
540, 3281110742, 0.07001293, -0.66543996, -0.017048314, -0.74296993, -4.260123, -0.7392756, -2.3720293, 0
541, 3281127409, 0.07071887, -0.66574, -0.019310698, -0.74257857, -2.891177, -2.348678, -2.580296, 0
542, 3281144076, 0.07121983, -0.6658258, -0.02166824, -0.7423888, -2.177516, -1.4574832, 1.9480953, 0
543, 3281160743, 0.07159877, -0.6656351, -0.02374655, -0.7424598, -1.9150842, -0.40459532, 4.792701, 0
544, 3281177410, 0.071869776, -0.6650596, -0.025375098, -0.7428953, -0.68155223, 1.5603389, 2.7739592, 0
545, 3281194077, 0.072242066, -0.66438586, -0.026622728, -0.7434181, -1.5210314, 1.269563, -1.4105511, 0
546, 3281210744, 0.072527185, -0.66398907, -0.027799115, -0.7437018, -1.9202641, -0.2963665, -6.228095, 0
547, 3281227411, 0.07237059, -0.6640911, -0.029097497, -0.74357635, -3.5607188, -1.7503246, -1.0198126, 0
548, 3281244078, 0.07167192, -0.66431636, -0.030591175, -0.7433827, -2.5500572, -1.0975459, -0.49824238, 0
549, 3281260745, 0.07038401, -0.6644355, -0.032405436, -0.74332243, -0.03393044, 1.1881826, 0.8413658, 0
550, 3281277412, 0.06878762, -0.66423297, -0.034049764, -0.7435793, -0.39054945, 3.8482244, 2.4961157, 0
551, 3281294079, 0.06728479, -0.663829, -0.035178855, -0.74402475, -0.07291121, 3.6962702, 0.6218796, 0
552, 3281310746, 0.06573711, -0.66357577, -0.03630127, -0.7443352, 0.4881811, 0.5329068, -3.9855604, 0
553, 3281327413, 0.06375946, -0.66340715, -0.03772536, -0.7445868, -0.00202201, -0.3165033, -0.3143921, 0
554, 3281344080, 0.061331555, -0.66333944, -0.039390013, -0.7447646, -0.9652765, 0.3192774, 1.569252, 0
555, 3281360747, 0.05849871, -0.6633201, -0.041009128, -0.7449224, -0.07988432, 2.3406544, 1.3040161, 0
556, 3281377414, 0.055763826, -0.66290146, -0.04265316, -0.74541223, 0.8691904, 2.9620392, 0.12339592, 0
557, 3281394081, 0.05329451, -0.66252327, -0.044234768, -0.7458368, 0.30190626, 1.8259727, 0.4577837, 0
558, 3281410748, 0.05106233, -0.66250587, -0.04536961, -0.7459404, 0.46912485, 0.7762135, -1.6760588, 0
559, 3281427415, 0.0488299, -0.6627594, -0.04598613, -0.7458267, 0.75182414, -0.16774893, -3.5175447, 0
560, 3281444082, 0.046492264, -0.6632689, -0.046510622, -0.7454906, -0.44738987, 0.15832675, -1.2066526, 0
561, 3281460749, 0.044236153, -0.6639775, -0.046986967, -0.7449672, -1.1112535, 2.4151108, -1.6508818, 0
562, 3281477416, 0.042263642, -0.66469425, -0.046798706, -0.74445426, -1.4333154, 3.3993304, -0.046899796, 0
563, 3281494083, 0.04081905, -0.6652708, -0.04583302, -0.7440797, -1.1176262, 1.2484472, 1.360609, 0
564, 3281510750, 0.03971082, -0.66587126, -0.044717908, -0.74367046, 0.19877084, -1.5245157, 0.81002426, 0
565, 3281527417, 0.038533017, -0.6663374, -0.043805823, -0.7433691, 1.1429331, -1.6999698, 1.0481539, 0
566, 3281544084, 0.03720714, -0.666654, -0.042879075, -0.7432068, -0.26592395, -0.3959255, 1.8198242, 0
567, 3281560751, 0.036090657, -0.66677564, -0.041575864, -0.7432267, -0.42310235, 1.6913058, 2.3360405, 0
568, 3281577418, 0.03559208, -0.6666548, -0.039758086, -0.74345857, -0.44600344, 1.7851954, 1.5094662, 0
569, 3281594085, 0.03570062, -0.6665047, -0.037724644, -0.74369395, 0.5367516, 0.39600283, 0.9933367, 0
570, 3281610752, 0.035921335, -0.66646135, -0.0357486, -0.7438199, 1.1951172, -0.5759126, -0.0590868, 0
571, 3281627419, 0.035872713, -0.66639185, -0.034154594, -0.7439591, 1.7369313, 0.25070912, -0.81592464, 0
572, 3281644086, 0.035566792, -0.6661574, -0.03285846, -0.7442422, 1.3664243, 1.4636592, 0.7233248, 0
573, 3281660753, 0.03505045, -0.6659873, -0.031925574, -0.74445945, 1.3468583, 0.9256561, 1.376792, 0
574, 3281677420, 0.034658343, -0.66589296, -0.031453803, -0.7445823, 2.0623891, 0.5923547, -0.046180725, 0
575, 3281694087, 0.034383237, -0.66570634, -0.031417847, -0.7447633, 3.1580207, -0.24792907, -0.75510025, 0
576, 3281710754, 0.033977985, -0.6654681, -0.032118604, -0.744965, 2.85339, -1.0913724, -0.3056116, 0
577, 3281727421, 0.033351094, -0.66532284, -0.033692434, -0.74505365, 2.6020098, -0.6644899, -0.4092512, 0
578, 3281744088, 0.0327221, -0.66513693, -0.035636842, -0.7451571, 2.0313373, 0.44105455, 0.36412048, 0
579, 3281760755, 0.03250009, -0.66487056, -0.0373898, -0.7453186, 1.1215802, 0.049132284, 1.4932556, 0
580, 3281777422, 0.03306152, -0.66461515, -0.03846225, -0.74546707, 0.72841775, -0.667263, -0.17919827, 0
581, 3281794089, 0.034337327, -0.66445553, -0.038872942, -0.74553025, 0.7500059, -1.2972053, -0.84303, 0
582, 3281810756, 0.035957053, -0.66449624, -0.03898123, -0.7454121, -0.14164414, -1.4751166, 0.1937151, 0
583, 3281827423, 0.037678555, -0.66467816, -0.038919374, -0.74516803, -0.15201153, -1.00963, 0.058047295, 0
584, 3281844090, 0.03939587, -0.6647108, -0.038813964, -0.7450555, -0.77507734, -0.3319685, -0.09867859, 0
585, 3281860757, 0.04122044, -0.6648873, -0.038440064, -0.74481875, -1.9013993, -0.163315, -0.43752384, 0
586, 3281877424, 0.04307565, -0.66518676, -0.03766018, -0.7444861, -1.3849285, -0.21313983, -0.39519978, 0
587, 3281894091, 0.04479547, -0.665413, -0.036951154, -0.744218, -0.67775565, -0.23850977, 0.45758438, 0
588, 3281910758, 0.04627928, -0.665506, -0.03636934, -0.7440727, -0.324324, 1.4629341, 0.08507538, 0
589, 3281927425, 0.04757279, -0.6654926, -0.03567505, -0.74403673, -0.49118334, 1.7134013, 0.03770733, 0
590, 3281944092, 0.048667997, -0.665529, -0.03501141, -0.7439648, -0.35866073, 0.92070425, 0.30868816, 0
591, 3281960759, 0.04960622, -0.66566867, -0.03452438, -0.74380064, -0.8598, -0.13293791, 0.16503525, 0
592, 3281977426, 0.0501817, -0.6657999, -0.034386486, -0.74365085, -0.48233715, -0.5729718, -1.0747252, 0
593, 3281994093, 0.05032003, -0.6658495, -0.034724742, -0.7435813, -0.472279, -0.193467, -1.027256, 0
594, 3282010760, 0.05003746, -0.66588724, -0.03538756, -0.7435354, -0.4261735, 0.32904246, 0.56584644, 0
595, 3282027427, 0.04958774, -0.66598016, -0.036224276, -0.7434421, -1.0261497, 1.2606976, 0.8823786, 0
596, 3282044094, 0.04909268, -0.6660617, -0.037173748, -0.743355, -0.7733815, 1.3515086, -0.57231236, 0
597, 3282060761, 0.04859017, -0.6660435, -0.038411453, -0.7433412, -0.38703015, -0.21034883, -0.42231655, 0
598, 3282077428, 0.04781376, -0.66582847, -0.04004447, -0.74349815, 0.64156693, -1.5216447, -1.9774475, 0
599, 3282094095, 0.04680468, -0.66564846, -0.0419755, -0.743617, -0.46118924, -1.4272032, 1.5739136, 0
600, 3282110762, 0.045777828, -0.6656471, -0.043619588, -0.7435876, -1.0951824, -0.11921757, 0.38925934, 0
601, 3282127429, 0.045163557, -0.6657334, -0.04468012, -0.7434849, -0.9798623, 0.4367632, 0.94547844, 0
602, 3282144096, 0.044972703, -0.6658027, -0.045589045, -0.7433793, -0.42313004, -0.835589, 1.1547947, 0
603, 3282160763, 0.045058995, -0.6657836, -0.046591625, -0.7433289, -0.3041243, -1.2789379, -0.535408, 0
604, 3282177430, 0.04523392, -0.6658163, -0.047354117, -0.74324065, -1.2295876, -1.1316186, -0.37323856, 0
605, 3282194097, 0.045339495, -0.6658882, -0.04767087, -0.7431497, -1.7790504, -1.6427542, -0.48721123, 0
606, 3282210764, 0.045312107, -0.66587263, -0.047921956, -0.7431492, -1.5991799, -0.5980133, 0.020553589, 0
607, 3282227431, 0.045409516, -0.66572875, -0.04827392, -0.7432494, -2.495131, 0.7218464, -0.06740379, 0
608, 3282244098, 0.045750663, -0.6655744, -0.04829353, -0.74336535, -2.7283914, 0.92178965, 1.0715876, 0
609, 3282260765, 0.04631038, -0.66539985, -0.048015505, -0.74350506, -2.034607, -1.138771, -0.41699696, 0
610, 3282277432, 0.046781406, -0.6653614, -0.047739804, -0.74352765, -2.2562625, -2.7172952, -1.4910202, 0
611, 3282294099, 0.046927407, -0.66542363, -0.047561795, -0.7434741, -3.915716, -2.5307138, -1.4128618, 0
612, 3282310766, 0.04665014, -0.6654438, -0.047284707, -0.7434912, -3.7398143, -0.3389242, -1.815177, 0
613, 3282327433, 0.046108723, -0.6653612, -0.046824664, -0.743628, -2.697656, 0.52099794, 1.1307573, 0
614, 3282344100, 0.045510396, -0.6650828, -0.046258345, -0.74394935, -1.3871448, 1.0767233, 1.2901783, 0
615, 3282360767, 0.045090288, -0.6644557, -0.04557194, -0.7445773, -1.2418374, 1.8309389, 2.172988, 0
616, 3282377434, 0.044812262, -0.66426694, -0.044656694, -0.74481803, -3.7178972, 0.24710128, -2.8797812, 0
617, 3282394101, 0.04462403, -0.66424125, -0.04306449, -0.744946, -3.392372, 0.26384723, -4.103065, 0
618, 3282410768, 0.04427761, -0.66451347, -0.040979475, -0.7448415, -3.9316118, -1.2799875, -1.1332922, 0
619, 3282427435, 0.043610126, -0.66497946, -0.038972512, -0.7445725, -1.898436, -1.0815494, 1.8892088, 0
620, 3282444102, 0.042690456, -0.66513604, -0.03700672, -0.7445864, -0.5013955, 1.4126488, 6.2848053, 0
621, 3282460769, 0.041730404, -0.6649925, -0.03503406, -0.74486446, -0.75534314, 3.350236, 5.0707273, 0
622, 3282477436, 0.041066617, -0.6650343, -0.032882243, -0.74496204, -0.8501188, 4.617108, -5.606965, 0
623, 3282494103, 0.040361375, -0.665371, -0.030535296, -0.74479973, -3.163808, 0.062906936, -7.300827, 0
624, 3282510770, 0.039101556, -0.66550887, -0.028345361, -0.74483037, -1.0364565, -0.5551736, -3.233315, 0
625, 3282527437, 0.03686349, -0.66556305, -0.026438713, -0.74496627, -0.46011588, -0.61722547, 6.335676, 0
626, 3282544104, 0.034392193, -0.6656092, -0.025347456, -0.74508125, 1.6164864, 3.752994, 4.739317, 0
627, 3282560771, 0.032210365, -0.6649634, -0.024694934, -0.7457767, 5.574542, 7.6349244, -0.8660011, 0
628, 3282577438, 0.03033799, -0.66455376, -0.023777366, -0.7462503, 0.27770206, 3.5411673, -2.9037032, 0
629, 3282594105, 0.028255552, -0.66506195, -0.02290845, -0.74590623, 0.4058338, -1.8480291, -7.4126945, 0
630, 3282610772, 0.025720969, -0.6657079, -0.022137448, -0.7454449, -0.3477653, -2.9269252, -2.2013402, 0
631, 3282627439, 0.023178473, -0.6667985, -0.021294013, -0.7445776, -1.498038, -1.9548937, 1.361331, 0
632, 3282644106, 0.02130659, -0.6679412, -0.019826502, -0.7436495, -0.22971326, 3.2687411, 3.3137922, 0
633, 3282660773, 0.020519555, -0.6682674, -0.017393678, -0.74343914, 1.1554961, 4.1951623, 3.0142946, 0
634, 3282677440, 0.020652458, -0.6683286, -0.014686152, -0.7434389, -0.37190363, -0.53219485, 1.7118807, 0
635, 3282694107, 0.020854682, -0.6688622, -0.012479812, -0.74299353, -1.2016087, -3.7286289, -2.4823046, 0
636, 3282710774, 0.020679697, -0.66946584, -0.010597184, -0.7424838, -0.64403003, -2.8423343, -2.3377333, 0
637, 3282727441, 0.020120889, -0.6699165, -0.009188026, -0.7421114, 0.5411156, -2.0940964, 1.8805065, 0
638, 3282744108, 0.019582838, -0.6699642, -0.008518279, -0.7420908, 2.2326708, 0.9372951, 4.6574144, 0
639, 3282760775, 0.019599602, -0.66946244, -0.007822871, -0.7425507, 2.5320017, 4.6630664, 4.908127, 0
640, 3282777442, 0.020357221, -0.6686814, -0.0064577907, -0.7432468, 2.7775674, 3.0427346, 2.7139177, 0
641, 3282794109, 0.02139245, -0.66801876, -0.004898891, -0.7438254, 3.508499, -1.120059, -1.3680153, 0
642, 3282810776, 0.0223248, -0.6675248, -0.0038309544, -0.74424756, 3.3473377, -1.884184, -1.1971846, 0
643, 3282827443, 0.023166329, -0.667384, -0.003196299, -0.7443511, 2.341951, -0.43462637, 0.35654926, 0
644, 3282844110, 0.024028644, -0.66728, -0.0023920238, -0.74442005, 2.5515268, 1.5326091, -0.2730112, 0
645, 3282860777, 0.025154173, -0.6670934, -0.0017104149, -0.7445521, 2.647587, 1.1265228, -2.2301402, 0
646, 3282877444, 0.026431873, -0.6668308, -0.0014311969, -0.74474347, 2.797248, -0.2991165, -1.2342825, 0
647, 3282894111, 0.027548954, -0.6665909, -0.001572907, -0.7449175, 2.1327333, -1.0023838, 0.5635824, 0
648, 3282910778, 0.02852574, -0.666548, -0.0020109713, -0.744918, 0.8630413, -0.2471234, 0.29562855, 0
649, 3282927445, 0.02962771, -0.6666194, -0.002571106, -0.74480945, 1.5508487, 0.35304403, -1.1858892, 0
650, 3282944112, 0.030903652, -0.6667309, -0.0032628477, -0.7446551, 0.577593, 0.0010626924, -0.35531998, 0
651, 3282960779, 0.032275677, -0.6669869, -0.004000351, -0.7443639, 0.64870316, -0.8220602, -0.24800873, 0
652, 3282977446, 0.03347081, -0.6672681, -0.004950896, -0.7440532, 0.08889486, -1.6831547, 0.54810524, 0
653, 3282994113, 0.034486994, -0.6674357, -0.007112026, -0.743839, -0.30753592, -1.9182317, -1.1216469, 0
654, 3283010780, 0.03501548, -0.6670718, -0.009393409, -0.74411553, -0.55370307, 0.3483199, -0.3940096, 0
655, 3283027447, 0.035013318, -0.6667619, -0.011853963, -0.74435806, -1.2518829, -1.1359557, -0.10070133, 0
656, 3283044114, 0.0350952, -0.66646004, -0.015061155, -0.7445666, -0.9406695, -1.7085415, -0.5250244, 0
657, 3283060781, 0.035102725, -0.6661693, -0.018211365, -0.744756, -1.6581082, -1.0746393, 0.36855602, 0
658, 3283077448, 0.035268426, -0.66605574, -0.021121502, -0.744773, -2.0946825, -0.56370896, 1.2716341, 0
659, 3283094115, 0.03523822, -0.66607577, -0.023362234, -0.74468946, -0.78024995, -0.8251755, 1.0397854, 0
660, 3283110782, 0.035115093, -0.6659423, -0.025736064, -0.74473643, -0.35676572, -0.8042909, 0.058657646, 0
661, 3283127449, 0.03499624, -0.66577256, -0.028666079, -0.7447866, -0.7324137, -0.04235358, -0.48634624, 0
662, 3283144116, 0.0348247, -0.6656016, -0.031077549, -0.74485093, -0.9251495, 0.3392969, -0.06546974, 0
663, 3283160783, 0.034647197, -0.66543883, -0.03270763, -0.7449346, -0.6491667, -0.5505454, -0.76657295, 0
664, 3283177450, 0.03450279, -0.6652587, -0.03436753, -0.7450277, 0.29326463, -0.8177669, 0.5450592, 0
665, 3283194117, 0.03429562, -0.66496575, -0.03638521, -0.7452029, 0.16277772, -0.19454724, 0.79021263, 0
666, 3283210784, 0.033933923, -0.6646078, -0.038389876, -0.7454381, 0.13751456, 1.1013057, 0.35391045, 0
667, 3283227451, 0.033421367, -0.6643766, -0.040146187, -0.74557483, -0.33296922, 0.59175295, 0.10785389, 0
668, 3283244118, 0.032846913, -0.66447145, -0.042216614, -0.7454015, 0.11675825, -0.49484047, 0.16785622, 0
669, 3283260785, 0.032371476, -0.66492635, -0.044546977, -0.7448809, -2.7142553, 0.2412277, -1.472722, 0
670, 3283277452, 0.03137286, -0.6649738, -0.047005042, -0.7447303, 0.8638932, -0.64397883, -1.4075298, 0
671, 3283294119, 0.029861003, -0.6648226, -0.049443603, -0.74476933, 0.11770835, 1.5570909, 1.9319572, 0
672, 3283310786, 0.028157055, -0.6646103, -0.05188884, -0.7448588, -0.9263533, 1.2142875, 0.83731747, 0
673, 3283327453, 0.026517153, -0.66453576, -0.054030105, -0.74483347, -0.47108942, 1.2474182, -1.466219, 0
674, 3283344120, 0.025047585, -0.66464394, -0.055739924, -0.7446617, -2.4393208, 0.7465707, 0.1768055, 0
675, 3283360787, 0.02364859, -0.66482276, -0.056900382, -0.74446, -0.45121852, 0.88105106, -1.4336567, 0
676, 3283377454, 0.022107497, -0.664889, -0.05751708, -0.7444007, -0.40004918, 0.93348855, 1.1928711, 0
677, 3283394121, 0.020461231, -0.6650041, -0.057906255, -0.7443148, -1.9820429, 0.23162492, 2.5153685, 0
678, 3283410788, 0.018834978, -0.66528076, -0.05849439, -0.74406445, -1.356073, 1.2886027, -3.2944574, 0
679, 3283427455, 0.016767263, -0.66561997, -0.058539033, -0.74380696, -1.1636343, 2.5727966, -0.629076, 0
680, 3283444122, 0.014674887, -0.6658359, -0.058458716, -0.74366426, -1.0344642, 1.2083284, 2.5937386, 0
681, 3283460789, 0.012403861, -0.6658243, -0.058497593, -0.74371296, 1.0852035, 0.47071415, 0.91401196, 0
682, 3283477456, 0.010026142, -0.66600937, -0.059192523, -0.7435281, -2.2241766, 0.5894793, -1.616293, 0
683, 3283494123, 0.007810533, -0.666234, -0.05919482, -0.74335325, -1.3392959, 2.8084753, 0.21782398, 0
684, 3283510790, 0.005631268, -0.66628337, -0.058335066, -0.7433967, 1.6111045, 1.7678725, 0.04957676, 0
685, 3283527457, 0.0037092566, -0.66648173, -0.05769016, -0.7432812, 1.8601569, 1.2333201, -0.32453632, 0
686, 3283544124, 0.0020512491, -0.6667618, -0.057014167, -0.74308854, -0.16105337, 1.543871, 1.1234207, 0
687, 3283560791, 5.0906837E-4, -0.6670798, -0.055818453, -0.7428966, 1.1359829, 1.4843147, 0.1574707, 0
688, 3283577458, -0.0011116266, -0.6671741, -0.054205507, -0.74293095, 0.20211774, 1.876153, 1.43297, 0
689, 3283594125, -0.00264287, -0.66726774, -0.052317604, -0.74297816, -0.10450907, 2.4230278, 1.6699495, 0
690, 3283610792, -0.0041323304, -0.6672942, -0.04990694, -0.74311334, 0.55923665, 2.2008262, -1.2850533, 0
691, 3283627459, -0.005810261, -0.6673948, -0.0471676, -0.7431907, 0.14873661, 1.2465944, -0.029708862, 0
692, 3283644126, -0.0074928403, -0.66760045, -0.044680536, -0.74314463, -0.73338366, 1.1346185, -0.49373722, 0
693, 3283660793, -0.00904493, -0.6678341, -0.04242423, -0.7430496, -0.24379419, 1.9460021, 0.14971828, 0
694, 3283677460, -0.010400325, -0.6679516, -0.03991486, -0.74306536, -0.58376694, 2.789498, 1.3165379, 0
695, 3283694127, -0.011717007, -0.6679054, -0.03694144, -0.7432409, 0.15452023, 1.4993819, 0.61283207, 0
696, 3283710794, -0.013378307, -0.6678866, -0.03436698, -0.7433533, 1.6556312, -1.094883, -2.14822, 0
697, 3283727461, -0.0151865035, -0.66801286, -0.03235148, -0.74329555, 0.5743994, 1.1459836, -0.53494644, 0
698, 3283744128, -0.016737565, -0.66812027, -0.029814214, -0.7432717, 0.48778182, 3.0178955, 1.8152103, 0
699, 3283760795, -0.017985195, -0.66821164, -0.02708602, -0.7432651, 1.8793428, 1.6462047, -0.42941666, 0
700, 3283777462, -0.019139767, -0.66831887, -0.024485916, -0.74323004, 1.1344182, 0.42545265, 2.324726, 0
701, 3283794129, -0.020200282, -0.6685667, -0.02202928, -0.74305594, -0.45549458, 0.46591958, 0.69250965, 0
702, 3283810796, -0.021122321, -0.6687148, -0.019397348, -0.74297047, 0.49852866, 1.3326154, -1.5399885, 0
703, 3283827463, -0.02213052, -0.6686587, -0.016520724, -0.7430611, -0.029810676, 0.30502087, 1.288599, 0
704, 3283844130, -0.023186162, -0.668456, -0.0140274465, -0.74326235, -0.18875939, 4.9013447E-4, 0.95234203, 0
705, 3283860797, -0.024126276, -0.66836506, -0.011850104, -0.7433522, -0.69495887, 1.4963392, -1.0898685, 0
706, 3283877464, -0.024667531, -0.66838, -0.009082168, -0.7433599, -1.0011083, 2.989923, -2.3780413, 0
707, 3283894131, -0.02516763, -0.6684118, -0.006164804, -0.7433444, 0.47985297, -0.12264441, -0.11560726, 0
708, 3283910798, -0.026074395, -0.6684421, -0.004067123, -0.7433005, -0.20670408, -1.5331568, 2.8309422, 0
709, 3283927465, -0.027400583, -0.6685036, -0.0027112067, -0.7432036, -0.12939925, 0.53550273, -0.9368067, 0
710, 3283944132, -0.02874136, -0.66862524, -0.0010049045, -0.74304795, -0.5924298, 2.352261, -0.9654026, 0
711, 3283960799, -0.029758677, -0.6687298, 0.0015315711, -0.7429129, -1.3431047, -0.14522552, 0.4192772, 0
712, 3283977466, -0.030525997, -0.6687323, 0.0036689788, -0.74287194, 1.6604245, -1.093882, -1.8673182, 0
713, 3283994133, -0.030972078, -0.66844213, 0.0050433427, -0.74310654, 0.33137184, 0.66865975, 1.937006, 0
714, 3284010800, -0.031233177, -0.66828394, 0.0064971447, -0.7432264, -0.87736326, 0.88642275, 1.0719137, 0
715, 3284027467, -0.03154987, -0.6682224, 0.008069798, -0.743253, 1.2757161, -1.2676545, -2.9693737, 0
716, 3284044134, -0.032053843, -0.6682521, 0.009277239, -0.74319065, 0.2336624, -1.6147445, 0.10406399, 0
717, 3284060801, -0.03237009, -0.6681575, 0.010407209, -0.7432471, -0.15451789, 1.0953144, 0.66838455, 0
718, 3284077468, -0.032514095, -0.6678152, 0.011787102, -0.7435278, -0.5880073, 0.3915863, 0.93233013, 0
719, 3284094135, -0.032540604, -0.6675649, 0.012900889, -0.74373275, -0.5864439, -1.3692938, -3.5953522E-4, 0
720, 3284110802, -0.032539234, -0.6674753, 0.013594598, -0.7438011, -0.85875255, -0.8219823, -1.2509041, 0
721, 3284127469, -0.03248307, -0.66763407, 0.0144138485, -0.74364555, -2.1270924, 1.0285536, -1.6755171, 0
722, 3284144136, -0.03274046, -0.6677982, 0.015729055, -0.7434602, -2.0319216, 0.6561856, 0.25088692, 0
723, 3284160803, -0.03324145, -0.6677709, 0.016957477, -0.7434355, -0.57098526, -0.79906213, 1.2381296, 0
724, 3284177470, -0.033703044, -0.6674976, 0.017706767, -0.7436427, 0.59839803, 0.12769334, 0.51445484, 0
725, 3284194137, -0.033780113, -0.66703206, 0.017927587, -0.7440514, 0.6927562, 0.7621062, 1.7080021, 0
726, 3284210804, -0.033861995, -0.66664004, 0.018248767, -0.7443913, -0.15468445, 0.39544794, 2.327014, 0
727, 3284227471, -0.034006953, -0.6663966, 0.019396573, -0.7445736, -1.6137955, 1.5833219, -4.3849277, 0
728, 3284244138, -0.034168154, -0.666552, 0.021240428, -0.7443768, -2.4469469, -1.0650963, -4.4936852, 0
729, 3284260805, -0.03439945, -0.66670966, 0.02239941, -0.7441909, -1.6938505, -5.1075616, 2.0069866, 0
730, 3284277472, -0.03486918, -0.66666067, 0.022907794, -0.7441973, -0.46522743, 1.087116, 2.254053, 0
731, 3284294139, -0.03473082, -0.6660071, 0.023719758, -0.74476343, 0.57790905, 4.1385517, 1.8570356, 0
732, 3284310806, -0.03430018, -0.66536087, 0.02515956, -0.7453135, -0.43561432, 0.73646504, 4.9323854, 0
733, 3284327473, -0.033797503, -0.6648276, 0.026769228, -0.74575615, 0.95941216, -1.4782617, -4.0051336, 0
734, 3284344140, -0.03360273, -0.6644539, 0.027400866, -0.74607503, 0.6205754, -3.764672, -4.0645714, 0
735, 3284360807, -0.033901617, -0.6643185, 0.027303755, -0.7461855, -3.7101514, -1.7398735, 0.1784811, 0
736, 3284377474, -0.034114838, -0.66449815, 0.026985824, -0.7460274, -2.9811294, -1.24958, 1.5431843, 0
737, 3284394141, -0.034044385, -0.66454685, 0.026424624, -0.7460073, -0.56024003, -1.2165697, -1.2677631, 0
738, 3284410808, -0.033505633, -0.66453075, 0.026335105, -0.74604934, -1.6073842, -1.7742941, 0.30142498, 0
739, 3284427475, -0.032312185, -0.6645381, 0.026811846, -0.74607843, -1.8151911, -3.109896, -1.7012968, 0
740, 3284444142, -0.030776143, -0.66440403, 0.02713985, -0.7462508, -0.9489573, -3.213852, -3.1082325, 0
741, 3284460809, -0.028989673, -0.6644015, 0.026897863, -0.7463334, -3.220775, -4.20187, 2.1327553, 0
742, 3284477476, -0.027646288, -0.6645092, 0.025514185, -0.7463372, 0.18251, -2.534801, -2.499381, 0
743, 3284494143, -0.026434585, -0.6642533, 0.023970068, -0.74666005, 1.5864235, 1.6794658, -2.0204172, 0
744, 3284510810, -0.024542302, -0.66412354, 0.023222432, -0.7468635, -2.71472, -2.73979, 5.401246, 0
745, 3284527477, -0.022282586, -0.6643609, 0.022375211, -0.74674916, 3.4758222, -4.2283278, -4.664886, 0
746, 3284544144, -0.01970546, -0.6642291, 0.021243006, -0.74697185, 2.4312866, -1.0709563, -2.9620929, 0
747, 3284560811, -0.016826779, -0.6642826, 0.020305246, -0.7470206, -1.4491521, -0.8847522, 3.0039673, 0
748, 3284577478, -0.014104143, -0.6644793, 0.019756876, -0.7469168, 1.2807115, 0.5216167, 1.9181099, 0
749, 3284594145, -0.011687234, -0.6643965, 0.019395724, -0.74704164, 3.8210926, 0.39878696, -1.5759993, 0
750, 3284610812, -0.009899557, -0.66417235, 0.018158302, -0.747298, 2.8683841, -0.88908505, 2.904911, 0
751, 3284627479, -0.008807883, -0.6641702, 0.015662298, -0.7473699, 2.2890956, 1.9891531, 2.2332487, 0
752, 3284644146, -0.008103073, -0.66411895, 0.012496382, -0.74748313, 3.0979047, 3.7539241, 1.0680933, 0
753, 3284660813, -0.0075802654, -0.6639234, 0.0093523115, -0.74770826, 2.0750768, 0.31915632, 0.5349808, 0
754, 3284677480, -0.007445991, -0.66399884, 0.006416902, -0.74767363, 2.6721811, -1.3901377, -1.3190536, 0
755, 3284694147, -0.0074385405, -0.6640077, 0.003546521, -0.74768496, 2.1882756, -2.027484, -0.28427982, 0
756, 3284710814, -0.007539913, -0.66401404, 5.9199333E-4, -0.7476865, 1.1026099, -0.20211561, 3.204814, 0
757, 3284727481, -0.0075336695, -0.6638895, -0.001964435, -0.7477947, 0.97681093, 2.4997716, 0.45091534, 0
758, 3284744148, -0.0074763, -0.66384923, -0.004483402, -0.7478202, 0.87757355, 1.3164618, -1.6180677, 0
759, 3284760815, -0.007581994, -0.66409534, -0.007268399, -0.7475787, 0.5475761, 0.3047674, 0.15848446, 0
760, 3284777482, -0.008088186, -0.6643263, -0.009867504, -0.74733835, 0.5848874, 0.57534057, -0.04769516, 0
761, 3284794149, -0.00884375, -0.66432524, -0.011893153, -0.7473012, -0.08163964, 1.6270919, 0.28692913, 0
762, 3284810816, -0.009549335, -0.6643436, -0.013215482, -0.747254, -1.2995623, 1.3204429, 1.2266464, 0
763, 3284827483, -0.010091901, -0.6644865, -0.013749033, -0.7471103, -0.4976863, 2.6389809, -3.1366668, 0
764, 3284844150, -0.0103952885, -0.6644888, -0.013171896, -0.7471144, -0.15236403, 3.072588, 0.11348724, 0
765, 3284860817, -0.010418877, -0.66448045, -0.011435002, -0.74715, -0.35298616, 1.2211753, 2.3911886, 0
766, 3284877484, -0.01040712, -0.66443425, -0.009611517, -0.74721694, 1.4013381, -0.39308447, -0.28006363, 0
767, 3284894151, -0.010688096, -0.66433096, -0.008208528, -0.7473216, -0.76073617, -0.63159287, 0.86548996, 0
768, 3284910818, -0.011053637, -0.6643233, -0.006853536, -0.74733675, -2.1141043, 0.80990136, -1.2712126, 0
769, 3284927485, -0.0114218, -0.6643653, -0.0053514093, -0.74730605, -2.2856638, -0.4009672, -1.5189304, 0
770, 3284944152, -0.011683494, -0.6647153, -0.0040982217, -0.7469987, -2.38359, -0.64722806, -1.4103937, 0
771, 3284960819, -0.011698633, -0.66516954, -0.003292188, -0.746598, -0.11443711, -0.5736066, -0.36142159, 0
772, 3284977486, -0.011734471, -0.66544104, -0.0028216094, -0.7463575, 1.9382845, -1.1854942, 1.799902, 0
773, 3284994153, -0.011948317, -0.66547173, -0.002981335, -0.746326, 1.7017267, -1.4691024, 2.6744146, 0
774, 3285010820, -0.012262583, -0.66553223, -0.003572747, -0.74626434, 9.934593E-4, -0.27439535, 0.50406075, 0
775, 3285027487, -0.012285247, -0.665618, -0.0038795322, -0.7461861, -0.36117393, 0.70421374, -3.9430242, 0
776, 3285044154, -0.011990592, -0.66575146, -0.0038599968, -0.74607176, -0.24770147, -1.4719, 0.46189404, 0
777, 3285060821, -0.0113951415, -0.66591334, -0.0038241893, -0.74593675, 0.29515415, -1.1730244, 2.028695, 0
778, 3285077488, -0.010409027, -0.6658965, -0.003892213, -0.7459659, 2.8610423, 1.2606543, 0.7661915, 0
779, 3285094155, -0.009366587, -0.6656161, -0.0037968904, -0.74623036, 1.5334477, -0.093002744, 1.6051311, 0
780, 3285110822, -0.00872618, -0.665429, -0.0038377494, -0.74640507, 1.2297685, 0.14575642, -2.3753543, 0
781, 3285127489, -0.008247033, -0.66522837, -0.003669992, -0.74658996, -1.2339337, 1.8496653, -0.035362244, 0
782, 3285144156, -0.0076533556, -0.66513664, -0.0026181787, -0.74668235, -2.0345056, 1.5391822, 1.4464846, 0
783, 3285160823, -0.006802708, -0.66501147, -0.0011213124, -0.74680585, 1.712881, 0.5826672, -2.5180693, 0
784, 3285177490, -0.0060090423, -0.6649337, 1.3121963E-4, -0.7468828, 0.8343404, -1.3944031, 0.8501253, 0
785, 3285194157, -0.0055124015, -0.665016, 0.001287967, -0.74681234, -0.57423294, 1.433514, 3.4551868, 0
786, 3285210824, -0.0050072074, -0.6649682, 0.002710238, -0.7468545, 0.08114624, 2.5019474, -0.74500084, 0
787, 3285227491, -0.0046034902, -0.66502625, 0.004111305, -0.74679905, -0.17927432, 0.2001183, -0.72768974, 0
788, 3285244158, -0.004248008, -0.66533715, 0.0052337795, -0.7465172, -2.3300276, -0.7432141, -0.8703127, 0
789, 3285260825, -0.0037844777, -0.66575116, 0.006496057, -0.74614054, 0.61015236, 0.37403587, -2.2790523, 0
790, 3285277492, -0.0033099204, -0.6657081, 0.007929534, -0.74616736, 1.6710558, -0.7500708, 1.5857105, 0
791, 3285294159, -0.002755642, -0.6653958, 0.008969501, -0.7464364, 0.80276847, -1.0828975, 2.9683437, 0
792, 3285310826, -0.0020158887, -0.6649429, 0.0098029375, -0.7468317, 0.48477077, 0.09232929, 0.6606169, 0
793, 3285327493, -0.0011693686, -0.6647976, 0.010605574, -0.74695194, -1.7248865, -0.03806381, -1.759716, 0
794, 3285344160, -2.0092726E-4, -0.6649849, 0.01157859, -0.7467716, -0.89569724, -0.2062928, -2.942658, 0
795, 3285360827, 6.3858926E-4, -0.665184, 0.012356624, -0.74658144, -0.23177202, -2.0499027, 0.49515247, 0
796, 3285377494, 0.0013704151, -0.6651633, 0.012333766, -0.7465994, 0.5958336, -1.3602496, 2.0220823, 0
797, 3285394161, 0.0020539314, -0.6649397, 0.0119690895, -0.74680275, 0.18783769, -0.31934234, -0.3561144, 0
798, 3285410828, 0.0027798414, -0.6647543, 0.011774957, -0.7469687, -0.82800364, -0.77287614, 0.96208954, 0
799, 3285427495, 0.0036687702, -0.6647177, 0.011716649, -0.74699837, -0.6248953, -0.85422343, -2.2979827, 0
800, 3285444162, 0.004826352, -0.66471, 0.011618614, -0.7470001, -0.030949734, -1.0207313, -0.6525154, 0
801, 3285460829, 0.0060100853, -0.6647293, 0.011259645, -0.7469798, -1.3893982, -1.7307335, 0.9353037, 0
802, 3285477496, 0.007269159, -0.6647644, 0.010963187, -0.7469417, -0.31901735, -1.2456659, -0.65560055, 0
803, 3285494163, 0.008603126, -0.6647245, 0.010685071, -0.7469671, 0.10745479, -1.8632607, 0.3813467, 0
804, 3285510830, 0.01001896, -0.6646047, 0.010199845, -0.7470628, -0.30691954, -0.98979026, 3.265812, 0
805, 3285527497, 0.0116660595, -0.6643059, 0.009602502, -0.7473126, 0.8864743, 0.7554622, -3.6525216, 0
806, 3285544164, 0.013040096, -0.6640053, 0.008918062, -0.7475656, -0.54592794, -0.51520807, -0.051085472, 0
807, 3285560831, 0.014187992, -0.6638751, 0.008237362, -0.74766797, -2.7672327, -2.7171807, 3.2331257, 0
808, 3285577498, 0.015201524, -0.6638329, 0.007595107, -0.7476925, 0.17768891, -1.1765376, -2.6884456, 0
809, 3285594165, 0.016385257, -0.66376483, 0.006872952, -0.74773484, -0.95907253, -2.1914783, 1.022934, 0
810, 3285610832, 0.017773196, -0.6637799, 0.0060555637, -0.74769676, -2.2664824, -1.940265, 1.7798595, 0
811, 3285627499, 0.019254208, -0.6638281, 0.0052942634, -0.7476232, -1.6829048, 0.1904559, -3.8729935, 0
812, 3285644166, 0.02080506, -0.66412145, 0.0043774247, -0.7473269, -4.03584, -1.1765732, -5.066081, 0
813, 3285660833, 0.022479787, -0.6646217, 0.0032593608, -0.7468393, -2.650137, -3.4995508, -0.8022051, 0
814, 3285677500, 0.024585024, -0.6647674, 0.00249736, -0.74664617, -1.2166014, -4.756874, 7.537569, 0
815, 3285694167, 0.027154982, -0.6645311, 0.0022957772, -0.7467681, 2.2912354, -3.498745, 1.1260176, 0
816, 3285710834, 0.029674813, -0.66378045, 0.0017471164, -0.747341, 3.5259476, -1.6766871, -0.676898, 0
817, 3285727501, 0.032102287, -0.66318756, 3.286004E-4, -0.747769, -1.8422513, -1.2030342, 1.8660603, 0
818, 3285744168, 0.03411804, -0.66299826, -0.0011163205, -0.7478469, -2.2053707, 2.3719013, -5.4287643, 0
819, 3285760835, 0.03615035, -0.66360015, -0.002425462, -0.7472141, -4.1998477, -2.631313, -3.9004288, 0
820, 3285777502, 0.038071886, -0.6646961, -0.004535347, -0.746134, 0.26612192, -7.244774, -0.556674, 0
821, 3285794169, 0.03971809, -0.6652713, -0.0069748014, -0.7455164, 2.6683097, -2.1709237, 3.3511162, 0
822, 3285810836, 0.04123062, -0.6653558, -0.008625686, -0.7453416, 1.4618672, 1.7031435, 1.4048824, 0
823, 3285827503, 0.042170852, -0.6652146, -0.010296509, -0.74539375, 3.877724, 3.6254396, -1.4674559, 0
824, 3285844170, 0.043210924, -0.6650367, -0.01265502, -0.74545664, -0.23836969, 2.8852482, 0.32759857, 0
825, 3285860837, 0.044475377, -0.66533995, -0.015565276, -0.7450564, 3.1273623, 1.0839514, -1.4922953, 0
826, 3285877504, 0.04560788, -0.6653732, -0.017767027, -0.74490905, 4.011441, 2.1708186, -0.28562737, 0
827, 3285894171, 0.04631616, -0.6654761, -0.018993244, -0.7447433, 3.6009738, 0.37669063, 3.5461264, 0
828, 3285910838, 0.04678741, -0.66538405, -0.019848228, -0.7447737, 5.9557505, 2.3956368, 1.2561779, 0
829, 3285927505, 0.047148764, -0.665018, -0.020489633, -0.7450604, 4.7635217, 4.335535, 2.596715, 0
830, 3285944172, 0.047740668, -0.66470236, -0.02112031, -0.74528676, 3.207857, 3.7638433, 2.3391094, 0
831, 3285960839, 0.04808621, -0.66452247, -0.021993712, -0.74539965, 3.764306, 2.7762666, -2.2320938, 0
832, 3285977506, 0.04818186, -0.6644719, -0.023013905, -0.74540776, 2.4368916, 1.6874493, -1.6344051, 0
833, 3285994173, 0.047525406, -0.6646328, -0.02437447, -0.7452633, 0.5280232, 0.07384432, 3.1327286, 0
834, 3286010840, 0.046406418, -0.66471905, -0.02616918, -0.7451959, 1.5898226, 2.2467291, 0.28623104, 0
835, 3286027507, 0.045429334, -0.6644514, -0.027861893, -0.74543345, 1.0757041, 2.422795, 0.91346073, 0
836, 3286044174, 0.04482609, -0.6641022, -0.02910608, -0.74573356, -0.004238141, 0.8285537, 2.343999, 0
837, 3286060841, 0.044812128, -0.6639399, -0.029822856, -0.7458505, 0.8981238, -0.5604316, 0.83691216, 0
838, 3286077508, 0.04499787, -0.6637183, -0.030274346, -0.7460184, 1.9767772, -1.4990871, -3.5176477, 0
839, 3286094175, 0.04496388, -0.6634273, -0.030933574, -0.74625224, -0.6345573, -1.315361, 2.2745962, 0
840, 3286110842, 0.044834793, -0.66337335, -0.031582296, -0.7462807, -2.97874, -0.39475885, 1.3337879, 0
841, 3286127509, 0.044567212, -0.6635205, -0.032506496, -0.7461265, -0.9411789, -0.8600804, -3.050191, 0
842, 3286144176, 0.044145048, -0.6637116, -0.034462973, -0.7458936, -1.0261517, -2.6990192, -2.3556137, 0
843, 3286160843, 0.043667525, -0.663855, -0.0372027, -0.7456625, 0.23750967, -1.9417918, -0.7170181, 0
844, 3286177510, 0.043219447, -0.6637062, -0.039754182, -0.7456894, -0.6776151, 0.6309923, 2.200674, 0
845, 3286194177, 0.04295139, -0.66349965, -0.04167147, -0.7457838, -0.19992946, -1.0243492, -0.41996288, 0
846, 3286210844, 0.04280196, -0.66344, -0.043445334, -0.7457443, -0.54663336, -1.5382875, 2.9168777, 0
847, 3286227511, 0.042669266, -0.6634132, -0.045393273, -0.7456599, -0.343528, -1.1395426, -3.5539227, 0
848, 3286244178, 0.04259932, -0.6635071, -0.047272444, -0.7454634, -0.83975947, 1.1837709, -0.017294884, 0
849, 3286260845, 0.042569682, -0.6635301, -0.048568293, -0.74536127, -1.5195175, -1.5168445, -0.7845659, 0
850, 3286277512, 0.04255417, -0.6636299, -0.049700677, -0.7451986, 0.049606968, -0.29895627, 1.6355228, 0
851, 3286294179, 0.042650938, -0.66362464, -0.050949052, -0.74511355, -0.43467206, -0.5530302, -2.3932405, 0
852, 3286310846, 0.04282038, -0.6637552, -0.051823273, -0.7449272, 0.01528538, 1.8036342, 0.50523376, 0
853, 3286327513, 0.04291761, -0.6637551, -0.052119046, -0.7449012, -0.9857337, -0.0183958, 0.81430054, 0
854, 3286344180, 0.042907044, -0.663824, -0.05247067, -0.7448157, 1.422471, 0.0018663332, -0.30767536, 0
855, 3286360847, 0.04304667, -0.66379327, -0.05328363, -0.7447774, -0.65761423, -0.8132214, -0.27915478, 0
856, 3286377514, 0.04296601, -0.66398025, -0.05434358, -0.7445386, -0.63094145, 0.3774036, -1.7868261, 0
857, 3286394181, 0.04264331, -0.6639885, -0.055099294, -0.7444944, -0.113705285, 1.9805373, 2.0689526, 0
858, 3286410848, 0.04218577, -0.6638414, -0.055908173, -0.7445911, 0.704491, 1.4416854, 1.5913811, 0
859, 3286427515, 0.041519865, -0.66343355, -0.057253003, -0.7448899, 2.5906734, 2.1200137, 0.39204788, 0
860, 3286444182, 0.040720224, -0.6630409, -0.05861394, -0.7451778, -0.117867656, 1.1860168, 0.13270664, 0
861, 3286460849, 0.03963077, -0.66298604, -0.059692696, -0.74519956, 0.30079833, -0.035015985, -1.0858746, 0
862, 3286477516, 0.038398653, -0.6629761, -0.060778007, -0.74518526, 0.56615275, 0.77962446, -0.8309841, 0
863, 3286494183, 0.03742391, -0.6629013, -0.061679065, -0.74522734, 0.027628716, 0.8255291, 2.5436573, 0
864, 3286510850, 0.036665797, -0.6627444, -0.062207565, -0.7453607, 0.73915744, 2.2136898, -0.5703497, 0
865, 3286527517, 0.036057904, -0.6625593, -0.06224571, -0.7455518, 0.40564233, 0.7422935, 1.872469, 0
866, 3286544184, 0.035523802, -0.66245097, -0.062203944, -0.74567723, 0.6371244, 0.49863115, -1.9991431, 0
867, 3286560851, 0.034900054, -0.6624333, -0.062247872, -0.7457185, 0.22757792, -0.37854177, -2.9826531, 0
868, 3286577518, 0.034291297, -0.66252536, -0.06198235, -0.7456872, -1.1792063, 0.1688855, 3.3118382, 0
869, 3286594185, 0.03372337, -0.66254914, -0.061553806, -0.7457274, 0.119764276, -0.5231912, 0.81029415, 0
870, 3286610852, 0.03327614, -0.6624074, -0.061742842, -0.7458578, 2.380342, 0.8144901, -1.35643, 0
871, 3286627519, 0.03287807, -0.66197526, -0.06237203, -0.7462066, -0.3297938, 0.72648674, 2.754467, 0
872, 3286644186, 0.032209113, -0.6618366, -0.062993675, -0.74630654, -1.4943551, 1.0553882, 0.038383484, 0
873, 3286660853, 0.031188652, -0.6619409, -0.06367402, -0.7461998, -0.47104394, 0.060620178, -2.2913623, 0
874, 3286677520, 0.029874742, -0.66199887, -0.06485823, -0.74609995, -1.0912565, -1.3861778, 0.14491272, 0
875, 3286694187, 0.028472602, -0.6619195, -0.066503614, -0.7460804, -1.1830623, 0.7008714, -2.5199127, 0
876, 3286710854, 0.027319908, -0.6617417, -0.0673558, -0.74620485, -2.2900167, 0.855184, 2.3689404, 0
877, 3286727521, 0.02616185, -0.6616953, -0.067390814, -0.7462842, -0.7674591, 0.34560636, 0.28639507, 0
878, 3286744188, 0.025215149, -0.66169596, -0.067327425, -0.74632204, -0.8666295, 0.5201982, 0.56293964, 0
879, 3286760855, 0.024469212, -0.66175175, -0.06675196, -0.7463491, -1.6200848, 0.2558232, -0.07487297, 0
880, 3286777522, 0.023907185, -0.6618449, -0.06522484, -0.74641967, -2.1538658, 2.0196362, -1.5054522, 0
881, 3286794189, 0.02327846, -0.6620501, -0.06303856, -0.7464455, -3.5164673, -0.15522036, -1.5436058, 0
882, 3286810856, 0.022423103, -0.66251516, -0.060973346, -0.74623054, -2.6430151, -0.784626, 0.6896982, 0
883, 3286827523, 0.021408558, -0.66278815, -0.059011593, -0.74617565, -2.654465, 2.1851468, 0.60869026, 0
884, 3286844190, 0.020674258, -0.662884, -0.05682057, -0.74628127, -1.5923405, 2.607141, 2.62605, 0
885, 3286860857, 0.01985456, -0.66270125, -0.054888576, -0.7466103, -0.46723756, -1.2181681, -0.22613049, 0
886, 3286877524, 0.018568248, -0.6627993, -0.053458095, -0.74666023, -3.215656, -0.22733156, -2.503982, 0
887, 3286894191, 0.017313361, -0.66333383, -0.051743865, -0.74633646, -4.8907204, 0.955774, -3.7640471, 0
888, 3286910858, 0.016149625, -0.6641073, -0.04942088, -0.7458318, -1.9541434, -0.5013633, 0.250062, 0
889, 3286927525, 0.015122086, -0.6645622, -0.047126427, -0.74559665, -0.23600182, -1.3326404, 3.2629614, 0
890, 3286944192, 0.014463201, -0.66458154, -0.045497015, -0.74569374, 1.5512817, -0.19541873, 3.3367863, 0
891, 3286960859, 0.014061898, -0.663985, -0.04380794, -0.74633366, -0.21105364, 0.73901576, -0.2716694, 0
892, 3286977526, 0.013675988, -0.6637034, -0.041459903, -0.7467252, -2.6889315, 0.2604649, -5.895197, 0
893, 3286994193, 0.013620928, -0.6639657, -0.038636982, -0.7466445, -4.4834533, -0.9290624, -1.4079227, 0
894, 3287010860, 0.013840854, -0.6646339, -0.035698056, -0.7461921, -2.642306, -2.0136242, -0.8880148, 0
895, 3287027527, 0.014575362, -0.66530365, -0.032662496, -0.74572015, 1.5476748, 1.1651444, 1.2625828, 0
896, 3287044194, 0.015288055, -0.6654541, -0.029676095, -0.7456965, 0.93705755, 1.4763662, 2.8017883, 0
897, 3287060861, 0.015631318, -0.66548157, -0.027377471, -0.7457527, 3.7589467, 1.4926825, -0.74341583, 0
898, 3287077528, 0.015875533, -0.6653003, -0.025625616, -0.7459715, 1.7309719, 0.7047656, 1.1328917, 0
899, 3287094195, 0.016405463, -0.66552466, -0.023688406, -0.7458241, 2.38219, 1.9370283, -1.3890667, 0
900, 3287110862, 0.017307132, -0.6656928, -0.02144508, -0.74572146, 4.572575, 2.1799848, -1.1025639, 0
901, 3287127529, 0.018198296, -0.6659423, -0.019081205, -0.7455417, 3.6085505, 1.6646261, 3.423623, 0
902, 3287144196, 0.019156665, -0.66606826, -0.016936973, -0.7454569, 6.456662, 3.6488612, 2.2036524, 0
903, 3287160863, 0.019834459, -0.6659314, -0.015539587, -0.7455919, 5.739292, 1.2474697, 0.78112984, 0
904, 3287177530, 0.020151764, -0.66562086, -0.015099317, -0.7458699, 5.5391045, 1.4134269, 2.4938622, 0
905, 3287194197, 0.020318985, -0.6652121, -0.015098974, -0.74622977, 2.5412707, 3.007017, 0.8938236, 0
906, 3287210864, 0.02051653, -0.664999, -0.01459758, -0.74642426, 2.433741, 2.4566228, -0.5452337, 0
907, 3287227531, 0.020732418, -0.66478944, -0.014330342, -0.7466101, 3.1016366, -0.91796553, -1.1402445, 0
908, 3287244198, 0.021095201, -0.66455865, -0.01495783, -0.7467932, 1.5825986, -1.4216622, 0.48807335, 0
909, 3287260865, 0.02161114, -0.6643914, -0.015590414, -0.74691415, -0.012310898, -0.28861657, 0.15359592, 0
910, 3287277532, 0.022255793, -0.66423225, -0.015930131, -0.7470296, -0.33912852, -0.92556906, -0.31297874, 0
911, 3287294199, 0.022875339, -0.6642142, -0.016639054, -0.7470115, -1.6481137, -2.1345537, -0.035068512, 0
912, 3287310866, 0.023463205, -0.66411436, -0.017880738, -0.74705344, -1.1841238, -1.1250446, -0.7637558, 0
913, 3287327533, 0.024127603, -0.663872, -0.019296587, -0.7472124, -1.733935, -0.3049081, 0.523468, 0
914, 3287344200, 0.02469419, -0.6636289, -0.020260364, -0.74738425, -0.71843076, -0.3314973, -0.9399891, 0
915, 3287360867, 0.025059104, -0.66343546, -0.021161139, -0.7475189, 0.39557922, -0.70352197, -0.21594906, 0
916, 3287377534, 0.02531527, -0.6632189, -0.022316307, -0.7476687, -0.9101111, -0.7715931, 1.4331274, 0
917, 3287394201, 0.025406733, -0.66301847, -0.023459598, -0.74780846, -0.5984124, 0.22105387, -1.8457446, 0
918, 3287410868, 0.025436357, -0.66280067, -0.02443029, -0.74796927, -2.0852535, 0.024582403, -0.53155327, 0
919, 3287427535, 0.02550605, -0.66268384, -0.02496989, -0.7480527, -1.7948546, 0.25527436, -1.463625, 0
920, 3287444202, 0.025545612, -0.6627608, -0.02528575, -0.7479725, -0.31267777, 0.03213848, -0.19023705, 0
921, 3287460869, 0.025738478, -0.6629728, -0.025296822, -0.74777764, -0.51453394, 1.4229573, 0.6105604, 0
922, 3287477536, 0.026028544, -0.66311413, -0.024927914, -0.74765474, 1.3536992, 1.2659051, 0.93011856, 0
923, 3287494203, 0.026355416, -0.66304797, -0.024540856, -0.7477148, 1.9074093, -0.38761193, 2.7321796, 0
924, 3287510870, 0.026629984, -0.662954, -0.024159133, -0.747801, -0.2541053, 0.5786805, 0.3818674, 0
925, 3287527537, 0.026940942, -0.6631075, -0.023475423, -0.7476752, -0.32617858, 1.0891838, -1.834291, 0
926, 3287544204, 0.027365372, -0.66357386, -0.022265747, -0.74728304, -0.2785016, -0.08329825, -0.7139616, 0
927, 3287560871, 0.027949378, -0.6641019, -0.020938903, -0.7468305, 0.70436215, -0.14941886, -0.68512535, 0
928, 3287577538, 0.028723478, -0.6643838, -0.020233884, -0.7465698, 2.7034316, -0.29762653, 0.4940338, 0
929, 3287594205, 0.029493526, -0.6643163, -0.019965023, -0.74660707, 1.6021634, -0.2272358, 4.391431, 0
930, 3287610872, 0.03018488, -0.66407585, -0.019739866, -0.7467993, 0.99434453, 0.01682382, -1.9519186, 0
931, 3287627539, 0.03076896, -0.6639187, -0.0197355, -0.74691534, 0.380563, -0.42982453, -2.0168877, 0
932, 3287644206, 0.031555906, -0.66404325, -0.020188913, -0.74675965, -2.4997442, -2.1686618, -0.36432648, 0
933, 3287660873, 0.032483652, -0.664847, -0.02105245, -0.7459805, -1.1213868, -2.098507, -3.6857872, 0
934, 3287677540, 0.033306792, -0.665078, -0.022008926, -0.7457106, 0.42715713, -0.5064226, 4.1333427, 0
935, 3287694207, 0.03441468, -0.66478455, -0.022537291, -0.7459061, 3.5382144, 2.5386193, 2.421939, 0
936, 3287710874, 0.035079822, -0.6642363, -0.022946343, -0.746351, 2.9339263, -1.4515716, -2.4014974, 0
937, 3287727541, 0.03540124, -0.66436124, -0.024659738, -0.7461699, -1.1098552, -3.3779194, -1.6378593, 0
938, 3287744208, 0.035420954, -0.6649197, -0.027391955, -0.74557596, 0.014368447, -0.19357619, -2.6418152, 0
939, 3287760875, 0.03543918, -0.66527, -0.0293006, -0.7451901, -0.942975, 2.2846014, 2.7736893, 0
940, 3287777542, 0.035757944, -0.66528, -0.030276775, -0.7451267, 1.0461746, 1.2113895, 2.7941341, 0
941, 3287794209, 0.03623937, -0.6649528, -0.031519413, -0.7453439, 1.7467593, -0.24231319, 1.724329, 0
942, 3287810876, 0.036890224, -0.66459423, -0.032988146, -0.7455686, -0.22209868, 0.88012314, 2.2067833, 0
943, 3287827543, 0.03744833, -0.6642303, -0.03405857, -0.7458167, 0.1602337, 0.53140855, 0.20545578, 0
944, 3287844210, 0.037732735, -0.66391397, -0.035000116, -0.74604046, 1.1174542, 0.46107796, -0.21492767, 0
945, 3287860877, 0.037877172, -0.6634957, -0.036151886, -0.7463502, 1.093197, -0.7791391, 0.0045957565, 0
946, 3287877544, 0.037665352, -0.6631459, -0.037963033, -0.746582, 2.2222905, -1.8514855, -2.3011746, 0
947, 3287894211, 0.03714162, -0.6630562, -0.040188566, -0.7465714, -0.5708952, -0.9853638, 0.35619164, 0
948, 3287910878, 0.03665033, -0.66323346, -0.04188837, -0.7463446, -1.8154035, 0.80248904, -0.48864365, 0
949, 3287927545, 0.036429644, -0.6634736, -0.04282239, -0.7460888, -1.5421028, 1.4712358, -1.4360027, 0
950, 3287944212, 0.036496088, -0.66365063, -0.04386027, -0.745868, -0.9267403, -0.31731766, -1.0469294, 0
951, 3287960879, 0.036647007, -0.6637246, -0.045416772, -0.74570155, -0.356141, -0.36536846, -0.15350819, 0
952, 3287977546, 0.036518574, -0.6636614, -0.046863094, -0.7456747, -0.7526831, -0.7334326, -0.11537933, 0
953, 3287994213, 0.036080733, -0.6637623, -0.048137784, -0.74552494, -0.10644574, -1.0664531, -0.10987282, 0
954, 3288010880, 0.03547612, -0.6637285, -0.049423814, -0.74549997, 0.65460396, -0.4924206, -0.08181572, 0
955, 3288027547, 0.03495364, -0.6636709, -0.050659463, -0.7454928, -0.3722121, 0.8020877, 0.99010277, 0
956, 3288044214, 0.03451623, -0.6637854, -0.051581964, -0.745348, 0.47291145, 0.7951772, -1.2107697, 0
957, 3288060881, 0.034107983, -0.6639718, -0.05164486, -0.74519646, -0.43365112, 1.6708018, 2.0973635, 0
958, 3288077548, 0.03397724, -0.6641659, -0.051174924, -0.7450619, 0.15742901, 1.5282993, 0.6007166, 0
959, 3288094215, 0.034099817, -0.6641668, -0.05089058, -0.7450749, 1.432579, 1.7762941, 0.9230423, 0
960, 3288110882, 0.034288704, -0.6641315, -0.050324067, -0.7451362, 0.46260145, 1.4081458, 2.0677862, 0
961, 3288127549, 0.034402058, -0.66422325, -0.049245432, -0.74512124, 0.95914346, 0.8760086, -0.5159731, 0
962, 3288144216, 0.03447716, -0.6641742, -0.04773532, -0.7452597, 1.4738482, 2.1564307, -0.5086384, 0
963, 3288160883, 0.034661144, -0.6639624, -0.046371475, -0.74552596, 0.65316945, 1.7103071, 1.4878025, 0
964, 3288177550, 0.034769878, -0.66378874, -0.045169696, -0.74574924, 0.5773552, 1.6634606, -0.55834675, 0
965, 3288194217, 0.03474909, -0.66383183, -0.043493345, -0.74581164, 0.13416767, 1.5140884, 0.16553593, 0
966, 3288210884, 0.034760475, -0.6636648, -0.041729927, -0.74606043, 0.58381885, 0.04529054, -0.16731453, 0
967, 3288227551, 0.03490016, -0.66356087, -0.040451974, -0.74621683, 1.1926298, 0.082782045, 0.24866581, 0
968, 3288244218, 0.035117358, -0.663461, -0.039271906, -0.7463584, -0.0810819, 0.17780791, -0.17995071, 0
969, 3288260885, 0.035418957, -0.6635487, -0.03804761, -0.74632967, 0.09817186, -0.22002123, -0.98400116, 0
970, 3288277552, 0.035647675, -0.66378486, -0.036966205, -0.7461629, 0.17508675, -0.5403783, -0.68591785, 0
971, 3288294219, 0.03606765, -0.6639748, -0.036354452, -0.74600375, -0.21670805, -1.0588471, -0.063734055, 0
972, 3288310886, 0.03663577, -0.6641564, -0.03619334, -0.74582237, 0.8381883, -0.48211846, -1.1113873, 0
973, 3288327553, 0.037338227, -0.66428405, -0.03600788, -0.74568284, 0.1820512, -0.58440626, 1.2697258, 0
974, 3288344220, 0.038106576, -0.664485, -0.035784125, -0.74547565, 0.0064070406, -1.4769213, -0.38335705, 0
975, 3288360887, 0.038869515, -0.66474557, -0.035853595, -0.7452005, 0.25319976, -0.9706123, 0.0760231, 0
976, 3288377554, 0.03962767, -0.6648389, -0.03627132, -0.74505717, 0.44410017, -0.6331742, 0.320302, 0
977, 3288394221, 0.04032959, -0.6648237, -0.03687404, -0.74500334, 0.7256294, 0.15747957, -0.038788795, 0
978, 3288410888, 0.040982783, -0.6646924, -0.037437752, -0.74505687, 0.90840524, 0.22369635, 0.9332323, 0
979, 3288427555, 0.04158713, -0.66447824, -0.03825529, -0.74517286, 0.3709299, -0.24323998, -0.03105259, 0
980, 3288444222, 0.042123288, -0.6642569, -0.039299697, -0.74528563, 0.10753697, 0.44973677, 0.46515465, 0
981, 3288460889, 0.042445228, -0.66410387, -0.040348917, -0.74534774, -0.0358664, 0.52880114, 0.08850956, 0
982, 3288477556, 0.042611763, -0.6640622, -0.041422635, -0.7453164, 0.08356152, 0.41090387, 0.31046295, 0
983, 3288494223, 0.04261872, -0.66394997, -0.042541012, -0.7453531, 0.18593213, 0.28116822, -0.33818245, 0
984, 3288510890, 0.04246804, -0.66365653, -0.043619663, -0.74556077, 1.046382, 1.1584942, -1.0007162, 0
985, 3288527557, 0.042153478, -0.66318965, -0.044464946, -0.74594384, 0.68825, 1.1110775, -0.055462837, 0
986, 3288544224, 0.041684136, -0.66276765, -0.045111075, -0.7463064, 0.022672484, 0.94164866, 0.7814331, 0
987, 3288560891, 0.041230515, -0.6624697, -0.045703083, -0.7465601, -0.310435, 0.32458305, 0.5083952, 0
988, 3288577558, 0.040845335, -0.66258067, -0.046140358, -0.746456, -1.2975193, 0.05725776, 1.7708893, 0
989, 3288594225, 0.04060954, -0.6631166, -0.04602915, -0.7459996, -1.4209452, 0.28170535, 0.82842255, 0
990, 3288610892, 0.04049559, -0.66347593, -0.04545708, -0.74572134, -0.5332159, 0.5412415, -1.134141, 0
991, 3288627559, 0.040388048, -0.6635958, -0.04482691, -0.74565864, 0.7045643, 2.1905005, -1.5810833, 0
992, 3288644226, 0.04021962, -0.6633475, -0.044035167, -0.74593574, 0.35401598, 1.3188081, 0.7366276, 0
993, 3288660893, 0.039861396, -0.6631147, -0.043355778, -0.7462019, 0.08422083, 0.0751008, -0.7614517, 0
994, 3288677560, 0.0395571, -0.6629649, -0.042756215, -0.7463855, -0.33706185, 0.55110854, 1.0447645, 0
995, 3288694227, 0.039356157, -0.66311145, -0.04189664, -0.74631494, -1.7145953, -1.1733378, 0.97458553, 0
996, 3288710894, 0.039282456, -0.6635756, -0.040934995, -0.74595946, -0.23542397, -0.4051113, -0.74253845, 0
997, 3288727561, 0.03935808, -0.6639912, -0.039838403, -0.74564487, -0.6883435, -0.060545415, 0.07028484, 0
998, 3288744228, 0.039587036, -0.6643049, -0.03884074, -0.74540603, -0.1477277, 0.42531124, -0.97401905, 0
999, 3288760895, 0.03990993, -0.664385, -0.03796889, -0.7453623, -0.045571275, 1.1222506, 0.09315491, 0
1000, 3288777562, 0.04013458, -0.6643681, -0.036978707, -0.74541503, -0.6035873, 0.20759693, 0.7980623, 0
1001, 3288794229, 0.040277287, -0.6643079, -0.036054447, -0.7455064, -0.41374126, -0.6214183, 0.1067276, 0
1002, 3288810896, 0.040279925, -0.6642686, -0.035335556, -0.74557567, -1.5417992, -0.7067107, -0.57099056, 0
1003, 3288827563, 0.04031235, -0.6643686, -0.03495811, -0.74550235, -1.7102326, -0.22937246, -1.5969143, 0
1004, 3288844230, 0.040348336, -0.6644706, -0.03457181, -0.74542755, -1.8831968, -0.18830284, 0.18136406, 0
1005, 3288860897, 0.040243655, -0.66472334, -0.03405507, -0.7452317, -1.9312682, -1.493616, -0.049123764, 0
1006, 3288877564, 0.04011652, -0.66483706, -0.03372614, -0.745152, -0.60613424, -1.2012208, -0.2538128, 0
1007, 3288894231, 0.03993851, -0.6645976, -0.033543497, -0.7453835, -0.7460051, -0.59384835, 2.179451, 0
1008, 3288910898, 0.03969054, -0.66448534, -0.03319408, -0.7455125, -1.9847966, -0.4666594, 1.7357693, 0
1009, 3288927565, 0.03949763, -0.6645151, -0.032685846, -0.74551874, -2.2393386, 0.5344362, 0.20860863, 0
1010, 3288944232, 0.03945817, -0.6646397, -0.032213956, -0.7454302, -2.9913402, 0.25839338, -3.4792562, 0
1011, 3288960899, 0.03944999, -0.664733, -0.031978086, -0.7453576, -2.6785061, -0.3638184, -3.469924, 0
1012, 3288977566, 0.039086, -0.6651518, -0.031888008, -0.7450069, -3.4983742, -2.9112613, -1.1854305, 0
1013, 3288994233, 0.03821829, -0.6653522, -0.032040015, -0.74486643, -1.8777041, -1.8787951, 2.0715532, 0
1014, 3289010900, 0.037151843, -0.6650751, -0.032328308, -0.74515545, -1.8633493, -0.20065384, 5.123581, 0
1015, 3289027567, 0.036025494, -0.6645169, -0.03264962, -0.7456946, -1.3217077, 1.1468076, 3.964651, 0
1016, 3289044234, 0.034928948, -0.6637264, -0.033046886, -0.7464329, -0.59273845, 2.632614, -3.361321, 0
1017, 3289060901, 0.033796713, -0.663377, -0.033188447, -0.7467893, -1.8979567, 1.5883323, -4.149691, 0
1018, 3289077568, 0.032369003, -0.6635511, -0.03310053, -0.7467017, -0.9983479, 0.15012242, -4.4789824, 0
1019, 3289094235, 0.030764952, -0.6640224, -0.033033386, -0.74635345, 0.104428716, 0.114949696, 0.44228268, 0
1020, 3289110902, 0.029002845, -0.6646693, -0.03326671, -0.7458376, 3.3600762, 1.8118924, -2.781519, 0
1021, 3289127569, 0.02743034, -0.66513884, -0.033664584, -0.74546057, 3.4125204, 3.5534797, -0.06445503, 0
1022, 3289144236, 0.025929928, -0.66608936, -0.033490434, -0.7446731, 2.0412195, 1.3185627, -4.2019315, 0
1023, 3289160903, 0.024714246, -0.6672746, -0.032481283, -0.7436973, 2.3897662, 2.6910696, 1.3270607, 0
1024, 3289177570, 0.024200588, -0.6679725, -0.031015173, -0.74315, 1.4484714, 0.26353574, 6.5916996, 0
1025, 3289194237, 0.024074659, -0.6685875, -0.029866114, -0.74264795, 1.8372955, 0.14689909, 5.3345537, 0
1026, 3289210904, 0.024317607, -0.66887933, -0.028750181, -0.7424211, 1.8221965, 1.7699496, 1.4496031, 0
1027, 3289227571, 0.024881572, -0.6688375, -0.027441919, -0.7424897, 1.2391173, 0.5623424, -1.406826, 0
1028, 3289244238, 0.025338247, -0.6687903, -0.026347369, -0.7425565, 2.0767841, -1.9247062, 0.5754051, 0
1029, 3289260905, 0.02561766, -0.66875, -0.025724396, -0.7426051, 1.6462853, -1.6896696, 2.2593613, 0
1030, 3289277572, 0.026216537, -0.6684456, -0.025127009, -0.7428785, 2.9537594, 1.3715682, 0.65461445, 0
1031, 3289294239, 0.027234107, -0.6676563, -0.024331912, -0.74357796, 2.6389012, 1.7207162, 1.1338272, 0
1032, 3289310906, 0.028617963, -0.6670552, -0.023891374, -0.7440795, 2.2701993, 0.41924894, 1.3295364, 0
1033, 3289327573, 0.029903933, -0.66673934, -0.023902774, -0.74431175, 2.5584054, -0.16559091, 1.092432, 0
1034, 3289344240, 0.030747965, -0.66677123, -0.02440852, -0.7442325, 2.602902, -0.03468463, -0.30400085, 0
1035, 3289360907, 0.031057462, -0.6666846, -0.025640547, -0.74425566, 3.1354003, 0.6166927, -2.775354, 0
1036, 3289377574, 0.031027392, -0.6663354, -0.02760093, -0.74449956, 2.2397318, 2.0294662, -1.8379145, 0
1037, 3289394241, 0.030908287, -0.66603845, -0.02982378, -0.74468434, 1.4416435, 0.58639574, -0.33670807, 0
1038, 3289410908, 0.030655265, -0.665788, -0.032140404, -0.74482244, 2.4242108, 0.060544632, 1.4178886, 0
1039, 3289427575, 0.030373245, -0.66558856, -0.034343064, -0.7449138, 1.217055, -0.19261117, 0.19431496, 0
1040, 3289444242, 0.030026898, -0.6654767, -0.036432803, -0.7449286, 1.7740005, 1.5762482, -0.42548275, 0
1041, 3289460909, 0.029581547, -0.66520005, -0.03856823, -0.7450859, 0.32821447, 0.98894113, 0.18078327, 0
1042, 3289477576, 0.028972909, -0.66514754, -0.040827543, -0.74503636, 0.61201334, 0.655567, 0.09214306, 0
1043, 3289494243, 0.028135642, -0.66508055, -0.043045655, -0.7450034, 0.64614534, 0.9429719, -0.29161167, 0
1044, 3289510910, 0.027268872, -0.6650099, -0.044877246, -0.74499065, 0.36749336, 1.0650563, 0.3975811, 0
1045, 3289527577, 0.026474833, -0.6648549, -0.046239793, -0.74507433, 0.5061836, 0.76568073, 0.24111176, 0
1046, 3289544244, 0.025827542, -0.6646545, -0.04712403, -0.7452203, 0.21813415, 0.4235756, 1.1889668, 0
1047, 3289560911, 0.025316402, -0.66459864, -0.04781574, -0.7452437, 0.010399136, 0.32698885, -0.033391, 0
1048, 3289577578, 0.024902686, -0.6645835, -0.048203617, -0.7452462, -0.43750834, 1.214886, 0.13037586, 0
1049, 3289594245, 0.0245201, -0.6647039, -0.048013374, -0.74516386, -1.2983679, 1.5091604, -0.3242178, 0
1050, 3289610912, 0.024137005, -0.6650005, -0.047431424, -0.74494886, -0.69694847, 0.74037987, -0.38047886, 0
1051, 3289627579, 0.023684695, -0.66509134, -0.046749726, -0.74492544, 0.4711196, 0.9900073, -0.40739632, 0
1052, 3289644246, 0.023129404, -0.6650614, -0.04596646, -0.74501836, 0.32211542, 1.2775211, 1.2612066, 0
1053, 3289660913, 0.02238506, -0.6648733, -0.045040607, -0.7452655, 0.48386252, 1.1265718, 1.2406139, 0
1054, 3289677580, 0.021532789, -0.66459686, -0.04414858, -0.7455904, 0.3981159, 1.390414, -1.0651855, 0
1055, 3289694247, 0.020703852, -0.6643161, -0.043340668, -0.7459115, -0.37572098, 1.7297637, -0.80360794, 0
1056, 3289710914, 0.019856513, -0.66427696, -0.042452425, -0.74602044, -1.5699208, 1.0703065, 0.083670616, 0
1057, 3289727581, 0.018883765, -0.6642966, -0.04149802, -0.7460818, -0.773871, 0.59834164, -0.81568146, 0
1058, 3289744248, 0.017813623, -0.66432875, -0.040413603, -0.74613905, -0.5436189, 0.09309952, 0.24137402, 0
1059, 3289760915, 0.016728818, -0.6641472, -0.039526686, -0.74637324, -0.008863937, 0.21766004, 0.11453152, 0
1060, 3289777582, 0.015610144, -0.66410506, -0.038673475, -0.74647975, -0.7612147, 0.7456619, 0.18624973, 0
1061, 3289794249, 0.014540523, -0.66410214, -0.03742361, -0.7465677, -0.71633375, 0.8177275, 0.5374117, 0
1062, 3289810916, 0.013667226, -0.6639896, -0.03591995, -0.746758, -0.40740716, -0.27056578, 0.9025831, 0
1063, 3289827583, 0.012995422, -0.6640317, -0.03453684, -0.7467978, -0.42403358, -0.14840925, 0.20037365, 0
1064, 3289844250, 0.01261127, -0.6640845, -0.033142045, -0.74682087, -0.9765279, 0.31180465, -0.5566778, 0
1065, 3289860917, 0.012497395, -0.6641429, -0.03144358, -0.7468442, -0.342101, 0.12722984, -0.65834904, 0
1066, 3289877584, 0.012478769, -0.6640648, -0.029513478, -0.7469925, 0.31510496, -0.84140617, 0.2359457, 0
1067, 3289894251, 0.012573898, -0.66399175, -0.027971283, -0.74711514, 0.41236266, -0.7733061, 0.08422947, 0
1068, 3289910918, 0.012841493, -0.66405946, -0.026690066, -0.74709743, -0.5614536, 0.3730514, 0.48189545, 0
1069, 3289927585, 0.013270602, -0.66415775, -0.0252098, -0.747054, -0.49975798, 0.047174755, 0.18083, 0
1070, 3289944252, 0.013749674, -0.66416985, -0.023540229, -0.7470889, 0.7000586, -0.34543732, 0.3274784, 0
1071, 3289960919, 0.014304295, -0.664146, -0.022197217, -0.74714094, 0.5239463, -0.7294398, 0.64503384, 0
1072, 3289977586, 0.015021086, -0.6641912, -0.021381766, -0.74711055, 0.04763134, -0.3688204, -0.21415234, 0
1073, 3289994253, 0.01579395, -0.66423374, -0.020596936, -0.7470788, -0.1276828, 0.5461646, -0.92000675, 0
1074, 3290010920, 0.016497374, -0.66436297, -0.01971677, -0.74697244, -0.2566274, -0.4039953, -0.31808472, 0
1075, 3290027587, 0.017085865, -0.6644859, -0.019233689, -0.7468624, 0.1353716, -1.2982348, -0.24853516, 0
1076, 3290044254, 0.017547518, -0.6645509, -0.019258916, -0.7467931, -0.41576517, -1.0077074, -0.5381861, 0
1077, 3290060921, 0.017826125, -0.66467625, -0.01960732, -0.7466659, -0.74392664, -0.44317412, -0.39537144, 0
1078, 3290077588, 0.017897457, -0.6647942, -0.019903198, -0.7465514, -0.42931136, -0.4753393, -0.3296976, 0
1079, 3290094255, 0.01786597, -0.66488427, -0.020409778, -0.74645823, 0.28526145, -0.5093082, 0.35827637, 0
1080, 3290110922, 0.017770723, -0.66493326, -0.02136764, -0.74639004, 0.23803392, -0.2550873, 0.5221729, 0
1081, 3290127589, 0.01767625, -0.66505384, -0.02248311, -0.7462522, -0.65850294, 0.70211077, 0.5198021, 0
1082, 3290144256, 0.017693758, -0.6652708, -0.023397729, -0.7460302, -0.3929102, 0.031544942, 0.5744028, 0
1083, 3290160923, 0.01760681, -0.6652835, -0.024115399, -0.745998, 0.5577589, -0.5481958, -0.2017622, 0
1084, 3290177590, 0.017427757, -0.6652286, -0.024950936, -0.7460237, -0.14109115, 0.38953066, 0.2606144, 0
1085, 3290194257, 0.017199561, -0.6652715, -0.02585049, -0.7459601, -0.5792691, 0.6830893, 0.06783199, 0
1086, 3290210924, 0.016858056, -0.66524535, -0.026397645, -0.745972, 0.38995013, 0.5665453, -0.71711826, 0
1087, 3290227591, 0.016476631, -0.6651006, -0.02661167, -0.74610215, 0.1754475, 0.6282226, 1.4720392, 0
1088, 3290244258, 0.016155005, -0.66505754, -0.026778549, -0.7461413, -0.1621964, 0.17975259, -0.19381046, 0
1089, 3290260925, 0.015765205, -0.6649667, -0.026792973, -0.7462302, 0.27998573, 0.8952662, -0.30529118, 0
1090, 3290277592, 0.01547946, -0.6648038, -0.026551992, -0.74639, -0.19574355, 0.8699045, 0.24438095, 0
1091, 3290294259, 0.015201017, -0.66468334, -0.026149586, -0.7465173, 0.4790458, 0.83086956, -1.2138853, 0
1092, 3290310926, 0.014983103, -0.66457874, -0.025783643, -0.7466275, -0.35069495, 0.9005858, 0.6960964, 0
1093, 3290327593, 0.014782444, -0.66454643, -0.025222093, -0.7466794, 0.053158842, 0.6799078, -0.14953041, 0
1094, 3290344260, 0.014538974, -0.6644621, -0.024348646, -0.74678814, 0.26110944, 0.23749961, 0.6162014, 0
1095, 3290360927, 0.014291078, -0.66440517, -0.023582205, -0.74686825, 0.31488717, 0.41585568, 0.083883286, 0
1096, 3290377594, 0.0141687095, -0.6643119, -0.023099124, -0.7469687, 0.3530875, 0.20846282, 0.58813286, 0
1097, 3290394261, 0.0140695125, -0.6643113, -0.022594333, -0.7469866, -0.17486897, 0.65051454, -0.29821777, 0
1098, 3290410928, 0.014119044, -0.6643973, -0.02157417, -0.7469393, 0.13118578, 0.64148164, 0.16817951, 0
1099, 3290427595, 0.014235303, -0.664402, -0.020549849, -0.7469618, 0.61538184, -0.28868788, -0.4036541, 0
1100, 3290444262, 0.014367104, -0.6644599, -0.019953147, -0.7469238, 0.1744475, -0.39904875, 0.3072796, 0
1101, 3290460929, 0.014474601, -0.66442376, -0.019454554, -0.74696714, 0.2558103, -0.042010937, -0.32060146, 0
1102, 3290477596, 0.014537036, -0.6644595, -0.018630877, -0.7469551, -0.033855014, 0.095401675, 0.6203356, 0
1103, 3290494263, 0.014586329, -0.66454756, -0.017892435, -0.7468938, -0.124639936, -0.45568603, 0.11566448, 0
1104, 3290510930, 0.014756918, -0.6646197, -0.017634973, -0.74683255, 0.028756116, -0.3329935, -0.09550381, 0
1105, 3290527597, 0.014965221, -0.66473943, -0.017520085, -0.7467244, -0.1714251, 0.28336793, 0.67588997, 0
1106, 3290544264, 0.015224844, -0.6649637, -0.017265916, -0.7465256, -0.32561746, 0.03093788, -0.31692314, 0
1107, 3290560931, 0.015533105, -0.66502917, -0.017018318, -0.7464664, -0.101888254, -0.75442314, 0.19132233, 0
1108, 3290577598, 0.015820652, -0.6650824, -0.017059818, -0.74641216, 0.7002014, -0.51266897, -1.5401297, 0
1109, 3290594265, 0.016099066, -0.6649069, -0.017218605, -0.7465587, 0.03761963, -0.22941962, 0.22738838, 0
1110, 3290610932, 0.0162846, -0.6647032, -0.017412603, -0.7467315, -0.34351006, -0.80024403, 0.15116882, 0
1111, 3290627599, 0.01637669, -0.66469014, -0.017556757, -0.74673784, -0.5116788, -0.5036205, -0.31987667, 0
1112, 3290644266, 0.01651603, -0.6647368, -0.017782822, -0.74668795, -1.2531089, -0.5327885, 0.10930443, 0
1113, 3290660933, 0.016789556, -0.66494155, -0.018023998, -0.74649364, -1.3301005, -0.25519973, -0.02421379, 0
1114, 3290677600, 0.017173693, -0.6649797, -0.01799342, -0.74645174, -0.5223864, -0.22559743, -0.6388807, 0
1115, 3290694267, 0.017645359, -0.6649414, -0.01783514, -0.7464787, -0.9739863, -0.7814469, 0.832201, 0
1116, 3290710934, 0.018068358, -0.66494393, -0.017872587, -0.74646527, -0.665657, -1.0041692, 0.21946144, 0
1117, 3290727601, 0.01833485, -0.66481066, -0.017910048, -0.74657667, -0.31403825, -0.09595501, -0.20334435, 0
1118, 3290744268, 0.01862675, -0.664618, -0.017882809, -0.7467415, -1.3112556, 0.3304164, 1.0598841, 0
1119, 3290760935, 0.018978313, -0.66465497, -0.017777815, -0.7467024, -2.1137118, -0.73799866, 0.40966797, 0
1120, 3290777602, 0.019394115, -0.664866, -0.017635912, -0.7465071, -2.4559257, -1.1660291, -0.77151585, 0
1121, 3290794269, 0.019962996, -0.66501284, -0.01740633, -0.7463667, -2.5353158, -1.8612858, -1.160634, 0
1122, 3290810936, 0.020462424, -0.66501373, -0.017118275, -0.7463591, -2.088182, -2.3529577, -1.1883297, 0
1123, 3290827603, 0.02082698, -0.6651043, -0.0166782, -0.74627817, -3.7567203, -2.153958, 1.4788733, 0
1124, 3290844270, 0.021211848, -0.6652788, -0.016090125, -0.74612474, -3.3671458, -1.5954771, 0.44745445, 0
1125, 3290860937, 0.021656275, -0.665411, -0.015368998, -0.7460091, -4.0230517, -0.8659689, -0.8749809, 0
1126, 3290877604, 0.02225189, -0.66551375, -0.01438877, -0.7459196, -4.258635, -0.38648173, -0.9148798, 0
1127, 3290894271, 0.022905886, -0.66529846, -0.013040587, -0.7461166, -3.4982889, 0.009341052, -0.6417093, 0
