sep=,
DeviceTag:,Xsens_DOT_3,,,,,,,,,,,,,,,,,
FirmwareVersion:,3.0.0,,,,,,,,,,,,,,,,,
AppVersion:,2023.6.1,,,,,,,,,,,,,,,,,
SyncStatus:,Synced,,,,,,,,,,,,,,,,,
OutputRate:,60Hz,,,,,,,,,,,,,,,,,
FilterProfile:,General,,,,,,,,,,,,,,,,,
Measurement Mode:,Sensor fusion Mode - Extended (Quaternion),,,,,,,,,,,,,,,,,
StartTime:,2025-05-05 12:01:19.151 +0200,,,,,,,,,,,,,,,,,
 2025,,,,,,,,,,,,,,,,,,,

PacketCounter,SampleTimeFine,Quat_W,Quat_X,Quat_Y,Quat_Z,FreeAcc_X,FreeAcc_Y,FreeAcc_Z,Status
1, 3272160563, 0.6541867, 0.25557515, -0.47943085, 0.526194, 0.04156715, -0.036243632, -0.13384056, 0
2, 3272177230, 0.6542117, 0.25550127, -0.47950077, 0.52613515, 0.067735605, -0.0086306175, -0.04458809, 0
3, 3272193897, 0.65420747, 0.25548506, -0.47953683, 0.5261153, 0.086942516, -0.021049947, 0.017942429, 0
4, 3272210564, 0.6541541, 0.2554679, -0.47958568, 0.52614534, 0.099912524, -0.056477755, -0.015533447, 0
5, 3272227231, 0.6540868, 0.25547957, -0.47959837, 0.5262118, 0.04096791, -0.033365354, 0.018174171, 0
6, 3272243898, 0.6540287, 0.25548333, -0.47963992, 0.5262446, 0.0290844, 0.034597237, 0.047369957, 0
7, 3272260565, 0.65401983, 0.25543076, -0.47961622, 0.5263027, 0.013082661, 0.04764078, 0.036514282, 0
8, 3272277232, 0.65401673, 0.25534397, -0.4795398, 0.52641827, 0.052829523, -0.031374346, 0.0759325, 0
9, 3272293899, 0.6539608, 0.25528976, -0.47944364, 0.5266016, 0.08344722, -0.07855754, 0.037596703, 0
10, 3272310566, 0.65383697, 0.25528473, -0.47934696, 0.5268455, 0.07806771, -0.107278064, -0.016752243, 0
11, 3272327233, 0.6536694, 0.2553221, -0.4792588, 0.5271156, 0.08858847, -0.03794764, -0.032527924, 0
15, 3272393901, 0.6533495, 0.25526404, -0.47898942, 0.5277848, 0.091208935, -0.04931903, -0.01564598, 0
16, 3272410568, 0.6532605, 0.25529337, -0.47897908, 0.5278902, 0.05987152, 0.0060531776, -0.021206856, 0
19, 3272460569, 0.65302783, 0.25518093, -0.4789387, 0.528269, 0.11849807, -0.059408516, 0.052357674, 0
20, 3272477236, 0.65292126, 0.25515068, -0.47897148, 0.52838564, 0.1338342, -0.024921192, -0.0014162064, 0
21, 3272493903, 0.6528348, 0.25513616, -0.47897246, 0.52849865, 0.08476863, 0.040406223, -0.0031471252, 0
23, 3272527237, 0.65283936, 0.25501266, -0.47894838, 0.52857435, 0.052052144, 0.047681905, -0.015954971, 0
25, 3272560571, 0.6528653, 0.25493708, -0.47904706, 0.5284893, 0.087680556, 0.042022225, -0.054728508, 0
29, 3272627239, 0.65318614, 0.25465846, -0.47921357, 0.5280762, 0.030506836, 0.06878723, 0.018367767, 0
33, 3272693907, 0.6536727, 0.25398022, -0.47921735, 0.52779734, 0.134975, 0.13412152, 0.12404823, 0
35, 3272727241, 0.653895, 0.25342128, -0.47929573, 0.5277192, 0.1112643, 0.16413523, 0.027094841, 0
36, 3272743908, 0.65410453, 0.2530625, -0.4793929, 0.52754354, 0.07704358, 0.20374738, -0.02499199, 0
38, 3272777242, 0.65458417, 0.25232828, -0.47963056, 0.52708423, 0.08784247, 0.074801385, -0.12149429, 0
39, 3272793909, 0.65476847, 0.2520268, -0.4797384, 0.5269011, 0.14753509, 0.0278762, -0.08281708, 0
42, 3272843910, 0.65488285, 0.25173086, -0.48024118, 0.52644235, 0.12110781, -0.013919717, 0.016138077, 0
46, 3272910578, 0.65416145, 0.2525243, -0.48086834, 0.5263868, 0.053827286, -0.014679884, 0.012645721, 0
50, 3272977246, 0.65303993, 0.25307554, -0.48090377, 0.52748096, 0.084894694, 0.067045055, 0.047989845, 0
51, 3272993913, 0.65285003, 0.25310066, -0.48107567, 0.52754724, 0.048260916, 0.10398694, -0.0064029694, 0
52, 3273010580, 0.6527803, 0.25300324, -0.48125258, 0.527519, 0.040072743, 0.115295306, -0.048392296, 0
55, 3273060581, 0.65296805, 0.25257838, -0.48174453, 0.5270412, 0.002910858, 0.16011378, 0.02299118, 0
56, 3273077248, 0.6530531, 0.25232315, -0.48198932, 0.52683413, 0.013445646, 0.16124403, 0.047644615, 0
59, 3273127249, 0.65365314, 0.25130513, -0.48285386, 0.5257837, 0.13860217, -0.01155277, -0.058397293, 0
61, 3273160583, 0.6541504, 0.2511671, -0.48318893, 0.5249227, 0.14080243, 0.027520927, 0.05423355, 0
63, 3273193917, 0.6544767, 0.25111166, -0.48361844, 0.5241466, 0.07594836, 0.08255624, 0.013970375, 0
65, 3273227251, 0.65449506, 0.2509638, -0.4842588, 0.52360284, 0.11175559, -0.0021804248, 0.113378525, 0
66, 3273243918, 0.6543467, 0.25107676, -0.4845679, 0.5234481, 0.12746675, -0.04635424, 0.012921333, 0
67, 3273260585, 0.65424263, 0.25115275, -0.48478606, 0.5233398, 0.13016188, -0.03628571, 0.029734612, 0
70, 3273310586, 0.6539226, 0.25149688, -0.4849367, 0.5234349, 0.036921658, -0.055116005, 0.06400013, 0
71, 3273327253, 0.6536632, 0.25173736, -0.48501983, 0.52356607, 0.028418861, -6.354092E-4, -0.006067276, 0
74, 3273377254, 0.65349984, 0.2519208, -0.4849071, 0.52378637, 0.05958945, -0.13597523, -0.08054638, 0
75, 3273393921, 0.65350556, 0.25200516, -0.48473322, 0.5238994, 0.017094271, -0.13611515, -0.0019168854, 0
78, 3273443922, 0.6534244, 0.25217044, -0.48478574, 0.5238726, 0.038012847, 0.06582256, 0.072200775, 0
79, 3273460589, 0.65352774, 0.2520484, -0.48494726, 0.5236529, 0.00995795, -0.02057487, 0.05436039, 0
81, 3273493923, 0.6537262, 0.25187188, -0.48512325, 0.523327, 0.0126642445, -0.07324587, -0.06592846, 0
82, 3273510590, 0.65389544, 0.25173104, -0.48525268, 0.5230633, 0.01367497, -0.04194623, -0.03527832, 0
87, 3273593925, 0.65398073, 0.25155982, -0.4855636, 0.52275026, 0.13078906, -0.09283393, 0.06924057, 0
89, 3273627259, 0.6536788, 0.2515919, -0.4855353, 0.5231389, 0.004333022, 0.0707314, 0.03209114, 0
90, 3273643926, 0.65352005, 0.2515292, -0.48539796, 0.5234944, 0.0023871183, 0.017931607, 0.050866127, 0
92, 3273677260, 0.65321136, 0.25130996, -0.48525932, 0.52411324, 0.01861684, -0.114266135, -0.01805973, 0
94, 3273710594, 0.652896, 0.2514494, -0.48488772, 0.5247829, -0.010226612, -0.070114225, -0.040783882, 0
97, 3273760595, 0.65280354, 0.25127995, -0.484453, 0.5253802, 0.08364168, 0.15975666, 0.029090881, 0
98, 3273777262, 0.6528401, 0.2511527, -0.4842584, 0.5255749, 0.1613464, 0.13026468, 0.11555481, 0
100, 3273810596, 0.65294075, 0.25088894, -0.48410916, 0.5257133, 0.045613185, 0.015886016, 0.013025284, 0
102, 3273843930, 0.6530629, 0.2505785, -0.48411202, 0.52570707, 0.007589159, 0.13929406, -0.20016098, 0
104, 3273877264, 0.6533512, 0.25015134, -0.48373327, 0.5259007, 0.29756996, 0.10058753, 0.03526306, 0
105, 3273893931, 0.6532916, 0.25022018, -0.48325977, 0.5263772, 0.39786735, 0.05327476, 0.14174175, 0
106, 3273910598, 0.6531409, 0.25039315, -0.4827813, 0.5269207, 0.404288, 0.014142782, 0.2684908, 0
108, 3273943932, 0.6523315, 0.25089845, -0.48223698, 0.52818024, 0.14387573, -0.050188772, -0.01692295, 0
109, 3273960599, 0.65179515, 0.25115657, -0.48204917, 0.52889055, 0.08397337, 0.011458838, -0.16588593, 0
110, 3273977266, 0.6512737, 0.2514102, -0.48186207, 0.5295824, 0.08585535, 0.10443073, -0.18021584, 0
112, 3274010600, 0.6504389, 0.25200486, -0.48125175, 0.53087926, 0.05195693, 0.07535739, -0.002243042, 0
113, 3274027267, 0.6501036, 0.2523004, -0.48099628, 0.53138083, 0.003329449, 0.06948627, 0.04457569, 0
114, 3274043934, 0.64989597, 0.25246128, -0.4808255, 0.53171283, -0.012885969, 0.14176711, -0.01823616, 0
116, 3274077268, 0.649665, 0.25255013, -0.48061103, 0.5321468, 0.0010335239, 0.054912888, 0.0221529, 0
117, 3274093935, 0.64961857, 0.25251904, -0.48056874, 0.5322562, 0.032609645, 0.031063104, 0.008719444, 0
119, 3274127269, 0.6493988, 0.2526961, -0.48053813, 0.5324678, 0.019592699, 0.105418436, 0.016028404, 0
120, 3274143936, 0.6493572, 0.25272882, -0.48055202, 0.53249043, 0.072119586, 0.052591424, 0.06686306, 0
121, 3274160603, 0.64934975, 0.25265038, -0.48072168, 0.53238374, 0.049954828, 0.033275954, 0.017288208, 0
124, 3274210604, 0.649575, 0.25225544, -0.48113894, 0.5319191, 0.074884884, -0.067469284, -0.10599804, 0
125, 3274227271, 0.64966065, 0.25230443, -0.48100814, 0.5319096, 0.119694315, -0.12467843, -0.013378143, 0
127, 3274260605, 0.6494199, 0.25291002, -0.48079967, 0.5321044, 0.09903636, -0.21660982, 0.055408478, 0
129, 3274293939, 0.64891297, 0.25357336, -0.48085263, 0.53235924, -0.038232785, -0.22417182, -0.120051384, 0
131, 3274327273, 0.6486896, 0.25458032, -0.48093948, 0.5320722, -0.13977875, -0.24496478, -0.109630585, 0
132, 3274343940, 0.64884955, 0.25516772, -0.4809097, 0.5316224, -0.15908669, -0.2799437, -0.018751144, 0
133, 3274360607, 0.6490866, 0.25572026, -0.48091984, 0.5310583, -0.18669322, -0.2985287, 0.075805664, 0
135, 3274393941, 0.649271, 0.25659075, -0.4814467, 0.52993417, -0.11661208, -0.19384122, 0.20299435, 0
136, 3274410608, 0.64928585, 0.25680503, -0.48189676, 0.5294032, -0.0481134, -0.015866626, 0.11347675, 0
137, 3274427275, 0.6493022, 0.25693318, -0.48227298, 0.5289781, 0.063811354, -0.025966289, 0.23083878, 0
140, 3274477276, 0.6488908, 0.2573609, -0.48342082, 0.52822685, 0.12553427, -0.07866645, -0.033291817, 0
141, 3274493943, 0.64841783, 0.25773153, -0.48352858, 0.5285283, 0.12833443, -0.08513251, 0.050679207, 0
143, 3274527277, 0.64741445, 0.2581951, -0.48397654, 0.52912164, 1.8372765E-4, 0.02825606, -0.019262314, 0
144, 3274543944, 0.64730525, 0.2582571, -0.48439234, 0.52884436, -0.25231305, 0.47835633, -0.55877304, 0
146, 3274577278, 0.6481014, 0.2583155, -0.48316443, 0.52896416, 0.78276694, -0.5126005, 0.26664925, 0
147, 3274593945, 0.6470631, 0.2600007, -0.482593, 0.5299303, 0.93602175, -0.6646893, 0.5229349, 0
148, 3274610612, 0.64499164, 0.26223925, -0.48245195, 0.53147864, 0.74848545, -0.31661165, 0.3628254, 0
152, 3274677280, 0.6407108, 0.26793748, -0.48155236, 0.5346209, -0.5010892, 0.69935113, -0.243783, 0
154, 3274710614, 0.64049304, 0.2675917, -0.48136997, 0.53521883, -0.033904433, 0.047862425, 0.015089989, 0
155, 3274727281, 0.6404552, 0.26719046, -0.48165813, 0.5352056, -0.30016515, 0.37403014, -0.11760998, 0
158, 3274777282, 0.6412232, 0.2652398, -0.48166865, 0.5352468, 0.05414959, 0.020030672, 0.15843487, 0
159, 3274793949, 0.6407659, 0.26502407, -0.48167655, 0.53589374, 0.29453465, -0.36785382, 0.2451582, 0
160, 3274810616, 0.64044124, 0.2644782, -0.48194617, 0.5363089, -0.19341694, 0.450311, 0.1467247, 0
162, 3274843950, 0.6407103, 0.2635371, -0.48228583, 0.5361457, 0.1812632, -0.26833922, 0.14010048, 0
163, 3274860617, 0.64088875, 0.2636239, -0.48257628, 0.5356282, 0.17648807, -0.35879815, -0.24335861, 0
164, 3274877284, 0.6410954, 0.26400077, -0.4827363, 0.53505063, 0.02115863, 0.0058743674, -0.29767418, 0
166, 3274910618, 0.6418859, 0.26504293, -0.48242822, 0.53386414, 0.35030782, -0.14579867, -0.05375576, 0
167, 3274927285, 0.6422763, 0.26565853, -0.48239255, 0.53312016, 0.19596587, -0.048195764, -0.096159935, 0
170, 3274977286, 0.6437813, 0.26574218, -0.4824521, 0.531206, -0.30562803, 0.25284404, 0.029784203, 0
171, 3274993953, 0.6438662, 0.2654345, -0.48264366, 0.53108287, 0.0921231, -0.09048978, 0.503294, 0
174, 3275043954, 0.64131933, 0.26671767, -0.48380777, 0.53246075, 0.26072428, -0.03364809, -0.0247221, 0
177, 3275093955, 0.6385493, 0.26798454, -0.48406386, 0.5349153, -0.33872384, 0.6699873, -0.25568676, 0
179, 3275127289, 0.63872623, 0.26716948, -0.48300198, 0.5360704, -0.12578593, 0.5819244, 0.06726837, 0
181, 3275160623, 0.6400277, 0.26509386, -0.48186347, 0.5365729, -0.11768896, 0.30243012, 0.15768051, 0
182, 3275177290, 0.6407177, 0.2639675, -0.4815276, 0.53660625, -0.08099618, 0.14003354, 0.2255888, 0
183, 3275193957, 0.64112175, 0.2631337, -0.48140246, 0.5366454, 0.09565684, -0.1573937, 0.1814127, 0
185, 3275227291, 0.6417091, 0.2624137, -0.4811227, 0.5365469, 8.024115E-4, -0.25924274, -0.054528236, 0
186, 3275243958, 0.6421527, 0.26218677, -0.4810595, 0.5361837, -0.15727131, 0.051702682, -0.20848274, 0
187, 3275260625, 0.6428951, 0.26162064, -0.48086068, 0.53574884, -0.1523346, 0.2381192, -0.18898582, 0
189, 3275293959, 0.64454746, 0.259929, -0.47993463, 0.5354172, 0.06836457, -0.11275815, 0.22636223, 0
190, 3275310626, 0.64478403, 0.25949502, -0.4795165, 0.5357171, 0.2923916, -0.45101523, 0.24724674, 0
191, 3275327293, 0.644415, 0.25954527, -0.47937158, 0.53626627, 0.3406543, -0.5714784, 0.17045116, 0
193, 3275360627, 0.6426263, 0.26083598, -0.479091, 0.5380342, 0.14800447, -0.10204775, 0.058073997, 0
194, 3275377294, 0.6417381, 0.2616415, -0.4788269, 0.5389375, 0.044757128, 0.098885484, 0.013411522, 0
195, 3275393961, 0.640957, 0.2625797, -0.47844082, 0.53975314, 0.052132163, 0.13031487, -0.059150696, 0
197, 3275427295, 0.6399748, 0.26398718, -0.47772, 0.5408692, -0.18222028, 0.34093818, -0.24921799, 0
198, 3275443962, 0.64003605, 0.26402685, -0.47732693, 0.5411246, -0.4124053, 0.6547566, -0.32771778, 0
200, 3275477296, 0.64081705, 0.26334763, -0.47593108, 0.54176056, -0.118157886, 0.2002581, 0.16850281, 0
201, 3275493963, 0.64105666, 0.263097, -0.47537053, 0.5420907, 0.09926434, -0.06382636, 0.263628, 0
204, 3275543964, 0.6402767, 0.26223135, -0.47446793, 0.5442184, 0.3956282, -0.44215265, 0.08381939, 0
205, 3275560631, 0.63926476, 0.2625471, -0.474653, 0.5450937, 0.20983754, -0.3741304, -0.007508278, 0
206, 3275577298, 0.63816106, 0.26329225, -0.47482812, 0.5458744, 0.104424804, -0.27112585, -0.09138203, 0
208, 3275610632, 0.63592595, 0.26607114, -0.47490892, 0.54706407, 0.31397626, -0.2276118, -0.06519413, 0
209, 3275627299, 0.6350569, 0.26765132, -0.4749043, 0.5473068, 0.2784931, 0.0048381616, -0.112463, 0
210, 3275643966, 0.63430214, 0.26912543, -0.4749565, 0.54741365, 0.027598485, 0.23804621, -0.11659336, 0
212, 3275677300, 0.63300645, 0.27069926, -0.4750164, 0.5480852, -0.17436379, 0.34832293, 0.15398312, 0
213, 3275693967, 0.632408, 0.2709419, -0.47514212, 0.54854673, 0.0022628452, 0.044081673, 0.104338646, 0
214, 3275710634, 0.63179684, 0.27128786, -0.47528198, 0.5489588, 0.23434663, -0.19770308, 0.07305431, 0
216, 3275743968, 0.6304814, 0.27252263, -0.4756626, 0.54952955, 0.3947619, -0.12632148, 0.1405487, 0
218, 3275777302, 0.6291741, 0.27286345, -0.47630528, 0.5503017, -0.05953223, 0.2885168, -0.49210548, 0
220, 3275810636, 0.63040066, 0.2716568, -0.47697714, 0.5489112, -0.9578638, 0.77105945, -0.73679256, 0
221, 3275827303, 0.63127685, 0.2713086, -0.4765734, 0.54842687, 0.58016586, -0.6479697, 0.5681057, 0
222, 3275843970, 0.6313835, 0.27120942, -0.476789, 0.5481655, 0.5682978, -0.48500735, 0.5905161, 0
224, 3275877304, 0.6306542, 0.2722081, -0.4776012, 0.547803, 0.5649764, -0.154504, -0.04885769, 0
225, 3275893971, 0.6309004, 0.27223122, -0.47817367, 0.54700834, -0.07519267, 0.24367483, -0.2975359, 0
227, 3275927305, 0.6296096, 0.27357915, -0.47788075, 0.54807776, 0.019735746, 0.594475, 0.3856392, 0
228, 3275943972, 0.6292505, 0.27343, -0.47763932, 0.5487746, -0.38993356, 0.84979546, -0.001036644, 0
229, 3275960639, 0.6296083, 0.2727252, -0.47730798, 0.5490032, -0.40202293, 0.5520826, -0.21608448, 0
231, 3275993973, 0.6321258, 0.27011162, -0.47697452, 0.54769075, -0.18170218, 0.054442056, -0.30670547, 0
233, 3276027307, 0.6348805, 0.26777577, -0.47654736, 0.5460206, 0.15915598, -0.3195443, -0.12605762, 0
235, 3276060641, 0.6506267, 0.23391151, -0.4971299, 0.5242569, -2.8229403, 0.38710275, 0.036427498, 0
236, 3276077308, 0.6565077, 0.2237379, -0.500294, 0.51832247, 1.1477368, -4.2061687, -6.173066, 0
237, 3276093975, 0.6572022, 0.22022825, -0.4998713, 0.5193521, 1.1239693, -2.596577, -0.96814156, 0
239, 3276127309, 0.6609663, 0.21371767, -0.49602187, 0.5209836, 1.381935, -2.0489314, 1.4550676, 0
240, 3276143976, 0.66256624, 0.213419, -0.49603468, 0.51905787, 1.2849438, -1.2441347, 1.3121843, 0
241, 3276160643, 0.66201884, 0.21491343, -0.4970782, 0.5181409, 0.2195827, -0.07567344, -0.13566303, 0
243, 3276193977, 0.6564698, 0.22455347, -0.49855024, 0.5196958, -0.06082592, 0.5856097, 1.2682991, 0
244, 3276210644, 0.65411663, 0.23084973, -0.49896592, 0.5195054, -0.18976653, 0.97061974, 1.4586964, 0
245, 3276227311, 0.6528168, 0.23529024, -0.4985973, 0.51950234, -0.6162346, 0.8847611, 0.55978966, 0
248, 3276277312, 0.65146387, 0.23690389, -0.4971979, 0.5218034, -0.15111756, -0.4767766, 0.42275047, 0
250, 3276310646, 0.6535268, 0.23711392, -0.49354562, 0.5225949, -0.38548297, 0.19782896, 0.5286331, 0
251, 3276327313, 0.65527266, 0.23670462, -0.49068353, 0.52328897, -0.45170403, 0.34198174, 0.25060844, 0
252, 3276343980, 0.6569179, 0.2357386, -0.48788142, 0.52428126, -0.3370678, -0.056219097, -0.28172493, 0
254, 3276377314, 0.6597497, 0.23131001, -0.48792595, 0.5226541, -0.4205953, -0.32191616, -0.74385357, 0
255, 3276393981, 0.6600162, 0.23146075, -0.48844984, 0.521761, -0.15569867, -0.5125267, -0.38139343, 0
256, 3276410648, 0.6603456, 0.23201656, -0.48764846, 0.5218469, -0.08163319, -0.5215995, -0.31651306, 0
258, 3276443982, 0.66111827, 0.23349333, -0.48522332, 0.52247, 0.14133216, -0.10767228, 0.12735939, 0
259, 3276460649, 0.6617569, 0.23361254, -0.4846607, 0.52213037, 0.13165316, 0.004451931, 0.24494171, 0
260, 3276477316, 0.66250944, 0.23360375, -0.48451403, 0.5213155, 0.21696536, -0.024693487, 0.21876335, 0
262, 3276510650, 0.6637809, 0.23338723, -0.48521832, 0.5191355, 0.14097588, -0.07714572, -0.08485031, 0
263, 3276527317, 0.66452765, 0.23332602, -0.48499084, 0.5184198, 0.20974188, -0.051568296, -0.09332085, 0
264, 3276543984, 0.66518563, 0.23317668, -0.48466602, 0.5179466, 0.28610283, 0.068506494, 0.16565514, 0
266, 3276577318, 0.66570866, 0.2333321, -0.48410556, 0.5177287, 0.41855037, -0.08803399, 0.21831894, 0
267, 3276593985, 0.6655981, 0.23339212, -0.4836613, 0.5182587, 0.4756293, -0.18898116, 0.15022564, 0
268, 3276610652, 0.6652924, 0.23368311, -0.48300633, 0.5191302, 0.60863787, -0.26198322, 0.08423042, 0
270, 3276643986, 0.66427004, 0.23534214, -0.48134822, 0.5212259, 0.39966664, -0.17150573, -0.06584263, 0
271, 3276660653, 0.6633904, 0.23652266, -0.48067126, 0.52243525, 0.29573715, -0.03280455, -0.11158371, 0
272, 3276677320, 0.66247225, 0.23769823, -0.47984612, 0.5238236, 0.18558861, 0.16122855, -0.09169865, 0
275, 3276727321, 0.6603035, 0.2406325, -0.4766067, 0.5281612, 0.24910295, 0.16935906, 0.2100954, 0
276, 3276743988, 0.6595131, 0.2413037, -0.47569445, 0.5296631, 0.2435348, 0.105497666, 0.22034645, 0
278, 3276777322, 0.6578175, 0.24259672, -0.47454962, 0.53220165, -0.06083084, 0.17166175, -0.27535725, 0
279, 3276793989, 0.6570586, 0.2432378, -0.4740149, 0.5333219, -0.14879794, 0.2813532, -0.36879444, 0
281, 3276827323, 0.6561256, 0.2444395, -0.4725916, 0.535181, 0.055343147, 0.22012405, -0.09141636, 0
282, 3276843990, 0.65582037, 0.24497774, -0.47194406, 0.53587985, -0.038826436, 0.20677842, -0.015985489, 0
283, 3276860657, 0.6554971, 0.24553183, -0.47124115, 0.53664017, -0.07022911, 0.19004166, -0.018909454, 0
285, 3276893991, 0.65493536, 0.24673507, -0.46999598, 0.5378647, -0.12150566, 0.40437365, -0.02054882, 0
286, 3276910658, 0.6550165, 0.2473309, -0.46935344, 0.5380532, 0.01993303, 0.43896925, 0.16710567, 0
287, 3276927325, 0.6550765, 0.24763666, -0.46877205, 0.53834623, 0.19097438, 0.2994674, 0.30030823, 0
290, 3276977326, 0.6540751, 0.24803889, -0.46790802, 0.54012764, 0.047226053, -0.067316405, 0.061782837, 0
291, 3276993993, 0.6534528, 0.24810797, -0.4679527, 0.54080975, -0.13024212, -0.12901895, -0.19297695, 0
293, 3277027327, 0.6523774, 0.24820712, -0.46785665, 0.5421443, -0.18479179, -0.11178056, -0.42232895, 0
294, 3277043994, 0.6520222, 0.24837416, -0.46766046, 0.54266405, -0.07350313, -0.037383102, -0.25383377, 0
295, 3277060661, 0.6517495, 0.24869278, -0.4673573, 0.5431066, 0.030437548, 0.031673014, 0.023200035, 0
297, 3277093995, 0.65123034, 0.24937215, -0.46680388, 0.5438932, 0.066619374, 0.08369242, 0.32849598, 0
298, 3277110662, 0.6508991, 0.24957693, -0.4666569, 0.5443218, -0.05103248, 0.018020062, 0.2431612, 0
299, 3277127329, 0.65046984, 0.24969131, -0.46660438, 0.5448273, -0.15713273, -0.024425495, 0.097527504, 0
301, 3277160663, 0.6499684, 0.24932775, -0.46660233, 0.5455934, -0.16070068, 0.017341308, -0.18846798, 0
302, 3277177330, 0.65004206, 0.24894935, -0.46661672, 0.54566634, -0.06517157, 0.077963844, -0.1567564, 0
305, 3277227331, 0.65062445, 0.24809939, -0.46681252, 0.5451914, 0.1275575, -0.092398636, 0.14847565, 0
306, 3277243998, 0.6507372, 0.24782184, -0.46720913, 0.5448433, 8.7393564E-4, -0.07723848, 0.023769379, 0
308, 3277277332, 0.6511507, 0.24694839, -0.468282, 0.54382384, -0.15367611, 0.010889272, -0.169384, 0
309, 3277293999, 0.65154594, 0.24640219, -0.46869498, 0.5432422, -0.02670667, -0.01789143, -0.1367712, 0
310, 3277310666, 0.6520874, 0.24589339, -0.46899575, 0.5425632, 0.09819997, -0.030416034, -0.05342102, 0
312, 3277344000, 0.64464295, 0.24129426, -0.4642381, 0.55741245, 1.4332111, -11.677377, 7.4934196, 0
313, 3277360667, 0.63782704, 0.22703332, -0.47272, 0.5640758, -3.2930105, 0.6757365, -3.3263168, 0
314, 3277377334, 0.6403556, 0.22660357, -0.4689358, 0.56454235, 1.8686465, -1.8259376, 1.2435293, 0
316, 3277410668, 0.6414666, 0.22512954, -0.4744297, 0.55925566, 2.1362174, -2.452315, 0.12827873, 0
317, 3277427335, 0.6439055, 0.22674839, -0.47566208, 0.5547341, 1.4438022, -1.5698828, 0.43801975, 0
320, 3277477336, 0.6455765, 0.23559648, -0.47562906, 0.5491041, -0.56713486, 0.6844999, -0.0026540756, 0
321, 3277494003, 0.6459804, 0.23762137, -0.47355613, 0.5495481, -0.4842692, 0.10331618, -0.49097347, 0
322, 3277510670, 0.6462113, 0.23689792, -0.47406006, 0.5491542, -0.13851768, -0.025378443, 0.033744812, 0
324, 3277544004, 0.64604384, 0.23460954, -0.47640893, 0.5483003, 0.24851735, -0.34630337, 0.58898926, 0
325, 3277560671, 0.645464, 0.23420769, -0.4772034, 0.5484641, 0.36068955, -0.5719931, 0.23609829, 0
326, 3277577338, 0.6450921, 0.23446035, -0.47671837, 0.5492151, 0.23779498, -0.7993759, -0.10820007, 0
328, 3277610672, 0.64490616, 0.23456052, -0.47548914, 0.55045485, -0.07584398, -0.20626809, -0.40659332, 0
329, 3277627339, 0.64473164, 0.23425454, -0.47525236, 0.5509937, 0.04829668, -0.18286684, -0.01772499, 0
330, 3277644006, 0.64468575, 0.2344473, -0.4749565, 0.5512205, 0.21367392, -0.30638245, 0.18902111, 0
332, 3277677340, 0.6452563, 0.2350924, -0.47507605, 0.5501741, 0.1598444, -0.3632569, -0.2525978, 0
333, 3277694007, 0.6455011, 0.23526034, -0.47551233, 0.5494378, 0.103025615, -0.1526327, -0.3081665, 0
335, 3277727341, 0.6457579, 0.235778, -0.47607726, 0.5484241, 0.2803958, -0.13211176, -0.11506653, 0
336, 3277744008, 0.64590526, 0.23633833, -0.47590375, 0.54815984, 0.37722638, -0.15848745, 0.056175232, 0
337, 3277760675, 0.6459558, 0.23670617, -0.4759137, 0.54793304, 0.382795, -0.20602272, 0.22284603, 0
339, 3277794009, 0.6456404, 0.23645554, -0.4765487, 0.5478611, 0.24873193, -0.15826538, -0.073783875, 0
340, 3277810676, 0.6453427, 0.23641971, -0.47665292, 0.54813635, 0.26740777, -0.23381634, -0.02633667, 0
343, 3277860677, 0.64460284, 0.23678976, -0.47674933, 0.548763, 0.35776824, -0.16166888, 0.039564133, 0
344, 3277877344, 0.6443373, 0.23696503, -0.4765371, 0.5491835, 0.33773077, -0.29613426, -0.06750202, 0
345, 3277894011, 0.64414054, 0.23729289, -0.4760876, 0.5496626, 0.33093193, -0.3923257, -0.08664894, 0
348, 3277944012, 0.64330566, 0.23908965, -0.4750397, 0.55076706, 0.09973148, -0.060917675, 0.006655693, 0
349, 3277960679, 0.64287114, 0.24003491, -0.47444272, 0.5513774, 0.09129744, -0.080687955, 0.0900383, 0
351, 3277994013, 0.6426902, 0.2440831, -0.47160065, 0.5522487, 0.12311004, -0.36154282, -0.084239006, 0
352, 3278010680, 0.6426413, 0.24464284, -0.4712284, 0.5523758, 0.13008836, -0.20088837, -0.12537289, 0
353, 3278027347, 0.64251304, 0.24506429, -0.4709176, 0.5526031, 0.18369144, -0.3585031, 0.05165577, 0
355, 3278060681, 0.642526, 0.24583563, -0.46923527, 0.5536756, 0.20596763, -0.22609587, -0.15948868, 0
356, 3278077348, 0.6424577, 0.24625129, -0.46842307, 0.55425733, 0.21156351, -0.16240881, -0.123067856, 0
357, 3278094015, 0.642297, 0.24669078, -0.46770605, 0.5548533, 0.21357289, -0.213593, -0.0810833, 0
359, 3278127349, 0.6417003, 0.24752814, -0.46698213, 0.55578, 0.14996736, -0.2876236, -0.060303688, 0
360, 3278144016, 0.64149743, 0.24783295, -0.46687657, 0.5559669, 0.085170954, -0.26800376, -0.05131626, 0
363, 3278194017, 0.6416108, 0.2485682, -0.46649563, 0.55582756, 0.25270107, -0.09328738, 0.2583933, 0
364, 3278210684, 0.6416006, 0.24873176, -0.46646315, 0.5557935, 0.21563636, -0.032053936, 0.2628441, 0
366, 3278244018, 0.6413906, 0.24874327, -0.46655157, 0.5559564, 0.14620474, -0.029257286, 0.09248257, 0
367, 3278260685, 0.64134145, 0.2486021, -0.4666274, 0.5560128, 0.07791706, -0.08110224, -0.012372017, 0
368, 3278277352, 0.641423, 0.24837895, -0.4666787, 0.5559755, 0.07284476, -0.095897675, -0.12132263, 0
370, 3278310686, 0.6418521, 0.24816212, -0.466479, 0.5557444, 0.18469726, -0.17977259, -0.12305164, 0
371, 3278327353, 0.64208376, 0.24820282, -0.4662681, 0.5556355, 0.20404632, -0.19172075, -0.062431335, 0
372, 3278344020, 0.6423, 0.24816936, -0.46587288, 0.555732, 0.26967597, -0.030745938, 0.05823326, 0
374, 3278377354, 0.6425611, 0.24848408, -0.46456754, 0.556382, 0.3719135, -0.090108916, 0.18328953, 0
375, 3278394021, 0.64232594, 0.24876592, -0.46412122, 0.5568996, 0.3222203, -0.14980821, 0.13352299, 0
378, 3278444022, 0.6408709, 0.24996877, -0.46329167, 0.5587251, 0.20600787, -0.03457645, -0.02849102, 0
379, 3278460689, 0.6403839, 0.2504022, -0.4630542, 0.55928606, 0.2774578, -0.027710801, 0.03156185, 0
380, 3278477356, 0.63996613, 0.25074375, -0.46283132, 0.5597958, 0.27283734, -0.059707854, 0.025932312, 0
382, 3278510690, 0.63925946, 0.2513039, -0.4626, 0.56054246, 0.17832758, -0.023524795, -0.0037937164, 0
383, 3278527357, 0.63906235, 0.25143325, -0.46268547, 0.5606388, 0.11950657, 0.069157705, -0.094880104, 0
385, 3278560691, 0.63915014, 0.25136808, -0.46289146, 0.56039786, 0.14064737, 0.030521879, -0.1018343, 0
386, 3278577358, 0.6394156, 0.25125712, -0.46303546, 0.5600257, 0.16474022, 0.0030775499, -0.034880638, 0
387, 3278594025, 0.6397939, 0.2510627, -0.46318722, 0.5595552, 0.19963016, 0.008432697, 0.055132866, 0
389, 3278627359, 0.640643, 0.25062162, -0.46355042, 0.55847967, 0.2628329, 0.020739041, 0.060411453, 0
390, 3278644026, 0.64107835, 0.25021565, -0.46388078, 0.55788755, 0.25011635, -0.007982598, -0.00932312, 0
393, 3278694027, 0.64268005, 0.24908674, -0.4645958, 0.5559515, 0.2652759, 0.00848539, 0.024280548, 0
394, 3278710694, 0.6433439, 0.24809703, -0.46611035, 0.5543562, 0.21691708, 0.49836102, 0.6359844, 0
395, 3278727361, 0.6543642, 0.23510572, -0.4946122, 0.5214448, 14.876508, 6.7072673, 6.5759945, 1024
397, 3278760695, 0.65571654, 0.25274867, -0.49325457, 0.5127056, -6.4869747, 0.18697569, -4.0871572, 0
398, 3278777362, 0.65682954, 0.24834518, -0.49082664, 0.51575375, 0.6212147, 2.2040453, -1.7051258, 0
399, 3278794029, 0.6596044, 0.23997903, -0.49164715, 0.5153914, 1.8388867, -1.3474619, 3.2935677, 0
401, 3278827363, 0.65971375, 0.23694217, -0.49047974, 0.51776356, 0.47067037, -1.1738685, -1.4794178, 0
402, 3278844030, 0.6570485, 0.23714049, -0.49005637, 0.5214493, -0.42511114, 0.1893542, -1.1219292, 0
403, 3278860697, 0.65618795, 0.23675725, -0.48666173, 0.52586746, 0.15866692, 0.09513818, 0.29675102, 0
405, 3278894031, 0.65805525, 0.2402265, -0.47775057, 0.53011507, 0.49697658, -0.34734517, 0.34203815, 0
406, 3278910698, 0.65706384, 0.24291566, -0.47692466, 0.53086245, 0.07171771, 0.10880968, 0.70654964, 0
407, 3278927365, 0.65499836, 0.24598356, -0.4787733, 0.5303382, 0.42693388, -0.13605133, 0.61740017, 0
409, 3278960699, 0.6547058, 0.24469033, -0.4752961, 0.53440964, 0.14246045, -0.49479997, -0.44651985, 0
410, 3278977366, 0.65811294, 0.24220966, -0.46764827, 0.53808945, -0.29543072, -0.3351802, -1.2607536, 0
411, 3278994033, 0.6614419, 0.23905852, -0.4602558, 0.54177773, 0.53259563, 0.17362642, 2.0597115, 0
413, 3279027367, 0.6623186, 0.23731922, -0.45827302, 0.54315066, 0.2649031, 0.12460177, -0.04742527, 0
414, 3279044034, 0.66206545, 0.23673844, -0.4579647, 0.54397225, -0.016892662, 0.21589871, -0.32207966, 0
416, 3279077368, 0.6622737, 0.23600683, -0.45617312, 0.54553974, 0.2029149, 0.2156058, -0.1154356, 0
417, 3279094035, 0.6626607, 0.23477066, -0.4554605, 0.5461983, 0.059987973, 0.13931976, -0.58911514, 0
420, 3279144036, 0.6632783, 0.23277551, -0.45256007, 0.5487075, 0.25656718, 0.15859596, -0.113461494, 0
421, 3279160703, 0.66345584, 0.2319352, -0.45178136, 0.54949, 0.17904148, 0.29559556, 0.105918884, 0
422, 3279177370, 0.6634595, 0.2310835, -0.45145258, 0.5501143, 0.17711838, 0.14548168, 0.08494568, 0
424, 3279210704, 0.6630538, 0.23105651, -0.45114076, 0.55087006, 0.3294107, -0.16557945, 0.32850552, 0
425, 3279227371, 0.66301453, 0.23147905, -0.45089978, 0.5509371, 0.39441097, -0.11536398, 0.4256115, 0
426, 3279244038, 0.66312104, 0.23150277, -0.45036152, 0.55123925, 0.28590792, -0.05006925, 0.37723637, 0
428, 3279277372, 0.66270345, 0.23216906, -0.45033246, 0.55148476, -0.08690005, 0.0950115, -0.01112175, 0
429, 3279294039, 0.6623885, 0.23236087, -0.45112005, 0.55113864, -0.21682858, 0.18287265, -0.026878357, 0
430, 3279310706, 0.6616683, 0.23190954, -0.45278051, 0.55083203, -0.122741245, 0.19478205, 0.24516296, 0
432, 3279344040, 0.6612302, 0.23031288, -0.45639774, 0.54904014, 0.37621343, -0.7521097, -0.21974468, 0
434, 3279377374, 0.66157866, 0.22943574, -0.4571471, 0.54836345, -0.0415955, 0.3172637, 0.15909576, 0
436, 3279410708, 0.66256624, 0.22744179, -0.45650122, 0.5485399, -0.037588622, 0.3541788, 0.20509243, 0
437, 3279427375, 0.6632608, 0.22576469, -0.4559988, 0.54881114, 0.07570607, 0.07593451, 0.10563278, 0
438, 3279444042, 0.66403484, 0.22388703, -0.4555745, 0.54899657, 0.10171806, -0.095942825, 0.013480186, 0
440, 3279477376, 0.665154, 0.2207426, -0.45495257, 0.5494307, 0.19224483, 0.079659514, -0.1900444, 0
441, 3279494043, 0.6657849, 0.21918853, -0.45482993, 0.5493902, 0.2196482, 0.29293978, -0.3313141, 0
443, 3279527377, 0.66742235, 0.21601428, -0.45415556, 0.5492188, 0.32654685, 0.15865749, -0.078471184, 0
444, 3279544044, 0.6682525, 0.21455102, -0.45355555, 0.54927844, 0.3647727, 0.1048558, 0.059140205, 0
445, 3279560711, 0.66906404, 0.2132222, -0.45285907, 0.5493826, 0.35755634, 0.1453868, 0.16232681, 0
447, 3279594045, 0.6707281, 0.21051346, -0.45125896, 0.5497149, 0.43742356, 0.40970322, -0.02734375, 0
449, 3279627379, 0.6724997, 0.20738998, -0.44927344, 0.55036366, 0.5984555, 0.22567673, -0.035611153, 0
451, 3279660713, 0.67340976, 0.20472816, -0.44733682, 0.5518231, 0.61235297, 0.22484562, 0.34422398, 0
452, 3279677380, 0.6737809, 0.2024706, -0.44567537, 0.5535444, 0.7064198, 0.44164908, 0.52762127, 0
453, 3279694047, 0.6746987, 0.20037615, -0.4446262, 0.5540322, 0.61372143, 0.5906224, -0.16044235, 0
455, 3279727381, 0.67751825, 0.19353825, -0.44186765, 0.5552281, 1.0246648, 1.0155082, -0.09619331, 0
456, 3279744048, 0.6793109, 0.18994778, -0.439975, 0.55578035, 1.3971804, 0.9839272, 0.42693138, 0
457, 3279760715, 0.68125486, 0.18574116, -0.43761897, 0.55668193, 1.0137801, 0.17125535, -0.1334629, 0
459, 3279794049, 0.68472946, 0.17703456, -0.43379194, 0.5582491, 1.2139261, 0.92320955, -0.49158, 0
460, 3279810716, 0.6866494, 0.1722183, -0.43168792, 0.55902785, 1.512206, 1.1640034, -0.22722721, 0
461, 3279827383, 0.68845046, 0.16774683, -0.4295179, 0.559843, 1.5879574, 0.75250185, -0.43200207, 0
464, 3279877384, 0.69269234, 0.15437709, -0.4209641, 0.5649313, 2.1162198, 0.96468323, -0.04112625, 0
465, 3279894051, 0.693507, 0.15008871, -0.41818106, 0.5671499, 2.0239627, 1.1750004, -0.3427086, 0
467, 3279927385, 0.69499445, 0.14285475, -0.41256154, 0.5712981, 2.0674844, 1.4294662, -0.8396473, 0
468, 3279944052, 0.69569963, 0.1389444, -0.4093183, 0.57373166, 2.1209795, 1.2069819, -1.0047579, 0
470, 3279977386, 0.69644666, 0.1321464, -0.40160432, 0.5798503, 2.422239, 1.1420352, -0.5357027, 0
471, 3279994053, 0.6961603, 0.12972574, -0.39751804, 0.58354473, 2.2981892, 1.0790405, -0.7331257, 0
472, 3280010720, 0.695584, 0.12753317, -0.3930764, 0.5877093, 2.228216, 1.1639966, -0.66407394, 0
474, 3280044054, 0.69493765, 0.12384374, -0.38309133, 0.5958006, 1.98857, 1.414044, -0.6883116, 0
475, 3280060721, 0.69496393, 0.121726535, -0.3771885, 0.59995794, 1.9120615, 1.2145251, -0.72056484, 0
476, 3280077388, 0.69513035, 0.119766936, -0.37141424, 0.60375005, 1.7374487, 1.1264641, -0.929657, 0
478, 3280110722, 0.69697255, 0.11501606, -0.35986876, 0.6095147, 1.5691237, 1.0916928, -1.4539843, 0
479, 3280127389, 0.69860923, 0.11209617, -0.35391355, 0.6116683, 1.8688513, 1.2930251, -1.4416924, 0
480, 3280144056, 0.7008188, 0.109268196, -0.34738383, 0.613393, 2.4333625, 1.5514599, -1.5504818, 0
482, 3280177390, 0.7075057, 0.10496671, -0.33345357, 0.61419845, 2.5920768, 0.941555, -1.7931623, 0
483, 3280194057, 0.71240205, 0.103567354, -0.32604444, 0.61275226, 2.6485438, 1.0507573, -2.26967, 0
484, 3280210724, 0.71726483, 0.10326004, -0.31788683, 0.6114161, 3.6764376, 0.73220533, -2.2441134, 0
486, 3280244058, 0.7252135, 0.10913846, -0.29931283, 0.6103927, 4.700948, 2.4769378, -1.292881, 0
488, 3280277392, 0.72943467, 0.1205749, -0.28218994, 0.61136603, 3.1388433, 3.4375136, -1.5374155, 0
491, 3280327393, 0.72706616, 0.13201499, -0.2715449, 0.61662245, 1.3375186, 4.522291, 1.433918, 0
494, 3280377394, 0.7218058, 0.13371673, -0.2711902, 0.6225635, 3.1962836, 3.0861287, 5.848381, 0
495, 3280394061, 0.71920085, 0.13517311, -0.27195916, 0.6249237, 3.166462, 1.2598099, 6.7457466, 0
497, 3280427395, 0.71247524, 0.14329097, -0.27716392, 0.6285221, 0.053930994, 0.45474482, 4.674608, 0
498, 3280444062, 0.71150494, 0.14838836, -0.28099146, 0.6267364, -2.3431478, 1.1356691, 2.9670324, 0
499, 3280460729, 0.7125857, 0.15224248, -0.284726, 0.6228868, -2.801838, 1.9039888, 3.0033636, 0
501, 3280494063, 0.71969795, 0.15436772, -0.29222226, 0.6105939, -1.2745093, 1.9092305, 3.9138803, 0
502, 3280510730, 0.72427404, 0.15370291, -0.29488403, 0.60403556, -0.52078986, 1.1496167, 4.158469, 0
503, 3280527397, 0.7289461, 0.15314223, -0.29626966, 0.5978483, 0.117698796, 0.46283376, 3.919693, 0
505, 3280560731, 0.73666495, 0.15327853, -0.29855737, 0.58711755, 1.0536801, -0.262195, 1.8580818, 0
506, 3280577398, 0.7387643, 0.15426631, -0.2999466, 0.58350194, 1.1834537, -0.10287843, 0.69541264, 0
509, 3280627399, 0.7395679, 0.15986681, -0.3069112, 0.5773218, 0.6959523, -0.9750089, -1.0115118, 0
510, 3280644066, 0.73807377, 0.16429771, -0.30780908, 0.5775118, 0.63984716, -1.3223602, -1.3998823, 0
511, 3280660733, 0.736152, 0.17003518, -0.30744985, 0.57849437, 0.86767125, -1.6012815, -1.6508322, 0
513, 3280694067, 0.733109, 0.1814967, -0.30794233, 0.5786146, 0.9624593, -2.3162665, -1.8223386, 0
514, 3280710734, 0.7309208, 0.18774459, -0.30970204, 0.5784503, 0.77680165, -2.3097484, -2.1527886, 0
515, 3280727401, 0.72795033, 0.1940001, -0.3118888, 0.5789567, 0.40399095, -1.5769485, -2.59768, 0
517, 3280760735, 0.7217058, 0.20550859, -0.31685603, 0.5801056, -1.0255554, 0.15878306, -2.4896903, 0
518, 3280777402, 0.7183074, 0.21123338, -0.32013857, 0.58046484, -1.2368454, 0.8598853, -2.3541327, 0
519, 3280794069, 0.7149822, 0.21656135, -0.32407355, 0.5804233, -1.389662, 1.011806, -2.1168652, 0
521, 3280827403, 0.70865744, 0.22807226, -0.33096635, 0.5798811, 0.044534955, 0.45640406, -1.7602358, 0
524, 3280877404, 0.70355314, 0.24059926, -0.34442386, 0.57315814, -1.2877697, 0.46845645, -1.5947561, 0
525, 3280894071, 0.7014807, 0.24387354, -0.35136226, 0.57009494, -1.0746387, 1.1888965, -1.7811527, 0
526, 3280910738, 0.6996012, 0.24668846, -0.3587871, 0.566558, -1.0166022, 2.0327318, -1.4810219, 0
528, 3280944072, 0.696513, 0.25045705, -0.3691631, 0.56202555, -0.9420005, 1.2270031, -0.10078907, 0
529, 3280960739, 0.6948985, 0.25051907, -0.3719925, 0.5621307, -1.1159213, -0.42484593, 0.18309593, 0
530, 3280977406, 0.6933784, 0.2497294, -0.37507284, 0.56231225, -0.7966726, -1.2769302, 0.5852003, 0
532, 3281010740, 0.6917882, 0.2458887, -0.38119134, 0.56184876, 0.2709176, 0.04911798, 1.0225668, 0
533, 3281027407, 0.69215083, 0.24181016, -0.38408846, 0.56119883, -1.3109279, 0.54908127, 0.12268829, 0
534, 3281044074, 0.6930586, 0.23619267, -0.38592482, 0.5612112, -1.970212, 0.50191635, -0.1931467, 0
536, 3281077408, 0.69566053, 0.22019234, -0.3875572, 0.5633688, -3.0709245, -0.35667694, -2.3442554, 0
538, 3281110742, 0.69937503, 0.20068167, -0.3851406, 0.56769836, -2.1551116, -0.5982907, -5.368734, 0
540, 3281144076, 0.6998805, 0.18545486, -0.37347707, 0.5799154, -1.7765797, -2.282091, -2.4028583, 0
541, 3281160743, 0.70101357, 0.17744023, -0.36346436, 0.58736837, -0.18680677, -1.5997863, 0.1712656, 0
542, 3281177410, 0.70243174, 0.16974574, -0.35078964, 0.595597, 2.473335, -3.0051205, 1.0940657, 0
544, 3281210744, 0.7001507, 0.1622904, -0.3210903, 0.6167373, 4.7474823, -0.7290647, -1.2700176, 0
545, 3281227411, 0.6976128, 0.16325913, -0.30447173, 0.6276885, 4.616857, 1.249225, -0.8001776, 0
546, 3281244078, 0.6947439, 0.16463451, -0.28693852, 0.638675, 3.7691276, 1.8273505, 0.0010271072, 0
548, 3281277412, 0.68756485, 0.16627145, -0.25367343, 0.6597508, 2.1620295, 2.953423, -1.0599318, 0
549, 3281294079, 0.68437356, 0.16482258, -0.2397396, 0.66858375, 1.4985484, 4.642896, -0.62983227, 0
551, 3281327413, 0.6806138, 0.15967429, -0.22023702, 0.68027747, 2.1592636, 6.067146, 1.1360826, 0
552, 3281344080, 0.6808914, 0.15439063, -0.21347874, 0.68336684, 2.8472133, 5.6640196, 2.193451, 0
553, 3281360747, 0.6824934, 0.14931108, -0.20704678, 0.68487495, 3.81017, 5.1347766, 3.151928, 0
555, 3281394081, 0.6841038, 0.13511515, -0.19962968, 0.688409, 7.021912, 5.6744018, 2.6789036, 0
556, 3281410748, 0.6826151, 0.12971757, -0.19901347, 0.6910983, 6.5008626, 6.431709, 2.2010412, 0
557, 3281427415, 0.68152124, 0.12562847, -0.20037004, 0.6925396, 5.830206, 6.852012, 1.9087467, 0
559, 3281460749, 0.67874444, 0.12224454, -0.20562902, 0.6943285, 3.3429508, 4.13682, 0.3898878, 0
561, 3281494083, 0.67629313, 0.12243071, -0.22099411, 0.6919633, 2.5891418, 0.09565148, 0.6437254, 0
564, 3281544084, 0.67415106, 0.12930423, -0.24370377, 0.6851438, -3.5417693, -6.8486166, 2.1321468, 0
565, 3281560751, 0.6746144, 0.13150957, -0.2434502, 0.684358, -0.98981977, -5.6201296, 4.4806576, 0
568, 3281610752, 0.6742051, 0.13797703, -0.24740127, 0.68206716, -0.54029745, 0.7228264, 4.740843, 0
569, 3281627419, 0.67818415, 0.13890669, -0.25041768, 0.6768125, -1.3878254, -0.1323941, 1.8222532, 0
571, 3281660753, 0.6867988, 0.14181542, -0.25183287, 0.6669252, 0.14205366, -1.0042478, 0.5766268, 0
572, 3281677420, 0.6902853, 0.14518878, -0.25373128, 0.6618609, 0.45170313, -0.44152224, 0.3918047, 0
574, 3281710754, 0.6953536, 0.15282646, -0.2603403, 0.65219873, 0.89645255, -0.2817175, -0.6149578, 0
575, 3281727421, 0.69603676, 0.1580831, -0.26349238, 0.6489434, 2.0768862, -1.2877163, -0.99666023, 0
576, 3281744088, 0.6959543, 0.16374147, -0.26642174, 0.64642775, 1.7210649, -1.1481427, -0.9038229, 0
578, 3281777422, 0.69508445, 0.1764158, -0.27642897, 0.63979304, 0.112779945, -0.577178, -1.81672, 0
579, 3281794089, 0.69485515, 0.18289907, -0.2834185, 0.63514674, -0.5854997, -0.17782037, -2.5294385, 0
580, 3281810756, 0.69465375, 0.1901821, -0.2899333, 0.6302688, -1.0366093, 0.17938524, -2.5272985, 0
583, 3281860757, 0.69672155, 0.21052855, -0.30585966, 0.6137752, -0.80092514, 0.009364519, -1.1163368, 0
584, 3281877424, 0.6964291, 0.2197457, -0.30954653, 0.6090094, -0.14973423, -0.051271748, -1.1939125, 0
586, 3281910758, 0.6955641, 0.23797035, -0.31543902, 0.60006005, 0.11472473, 0.9105224, -0.41556358, 0
587, 3281927425, 0.69284785, 0.24870951, -0.3178029, 0.5975951, 1.0238098, -0.39397153, -0.5771961, 0
588, 3281944092, 0.68940353, 0.25715035, -0.32110405, 0.59623975, 0.13640325, 0.3884398, -0.32753658, 0
590, 3281977426, 0.68147916, 0.27514073, -0.32950228, 0.5927269, -0.317976, -0.5165084, -1.4586239, 0
591, 3281994093, 0.6774905, 0.28446463, -0.33542535, 0.5895672, -0.41200927, -0.02743141, -2.0323038, 0
592, 3282010760, 0.674116, 0.29265106, -0.34147432, 0.5859449, -0.67904913, 0.74796665, -1.6176167, 0
594, 3282044094, 0.6715077, 0.30354014, -0.35188034, 0.5771776, -1.8138765, 1.6420984, -0.4888401, 0
595, 3282060761, 0.67117065, 0.308159, -0.35550502, 0.57288504, -1.5948491, 1.4759299, -0.3583536, 0
598, 3282110762, 0.6685411, 0.321382, -0.3695084, 0.55968136, 0.5195715, -1.3859009, -0.5633478, 0
599, 3282127429, 0.66947657, 0.32244724, -0.37473, 0.5544543, 0.15877564, -1.2029945, 0.37621593, 0
600, 3282144096, 0.6715854, 0.32186615, -0.3786819, 0.54953486, -1.0707341, -0.68411493, 0.15632534, 0
602, 3282177430, 0.67660165, 0.31989142, -0.3787716, 0.5444493, -0.16261618, -0.22665644, 0.91336536, 0
603, 3282194097, 0.67785084, 0.32027963, -0.37670186, 0.544103, 1.2967949, -1.4702384, 1.2713423, 0
605, 3282227431, 0.67789716, 0.32051685, -0.37313476, 0.54635876, 0.67148346, -2.4861681, 1.2943869, 0
606, 3282244098, 0.6780146, 0.31756407, -0.3729971, 0.5480287, -1.5707413, -2.4520624, 0.39940453, 0
607, 3282260765, 0.67842615, 0.31414706, -0.37413603, 0.5487118, -3.2322512, -1.5266199, -1.1310139, 0
610, 3282310766, 0.68190217, 0.30594087, -0.36267048, 0.5566803, 1.2038202, -0.008006122, -1.7725506, 0
611, 3282327433, 0.6827171, 0.3023597, -0.3547765, 0.5626923, 1.6540148, -0.38348442, 0.3031664, 0
614, 3282377434, 0.6862919, 0.27886486, -0.34051692, 0.5790504, -1.2129636, 0.9912015, -3.976976, 0
615, 3282394101, 0.6890852, 0.26985297, -0.3328927, 0.58441114, -0.45602074, 3.8926904, -4.4539557, 0
617, 3282427435, 0.6945355, 0.24566004, -0.31249875, 0.5996909, 1.12934, 0.8801954, -3.244502, 0
618, 3282444102, 0.6978036, 0.22946084, -0.30301493, 0.60713494, 0.14286278, -0.09553536, -3.5297198, 0
619, 3282460769, 0.70347816, 0.21401167, -0.2927829, 0.6112355, -0.75405574, -1.0693626, -5.296285, 0
621, 3282494103, 0.71406686, 0.19801061, -0.25356916, 0.6217846, 2.4907868, 1.1079099, -3.8509927, 0
622, 3282510770, 0.7168901, 0.19097799, -0.23335817, 0.6286121, 7.568646, 2.7589705, 1.022747, 0
623, 3282527437, 0.7176107, 0.18163104, -0.22490947, 0.63361984, 8.403313, 2.2620873, 1.4009027, 0
625, 3282560771, 0.713433, 0.17356627, -0.21739846, 0.64314777, 1.5487436, 8.415458, 0.4760723, 0
626, 3282577438, 0.71432835, 0.17247462, -0.21343799, 0.64377385, 2.0767732, 10.039259, 2.2334566, 0
627, 3282594105, 0.7164539, 0.16883628, -0.21328036, 0.6424272, 5.434208, 9.206431, 5.18974, 0
629, 3282627439, 0.72122204, 0.16203488, -0.21851632, 0.63706124, 6.2142453, 6.133091, 5.897567, 0
630, 3282644106, 0.72220075, 0.16004574, -0.22546472, 0.6340269, 3.918824, 3.2481203, 5.477956, 0
632, 3282677440, 0.72379756, 0.15505278, -0.2514797, 0.6235757, 0.11074246, -2.4920585, 3.3826084, 0
633, 3282694107, 0.7243292, 0.15316267, -0.26449147, 0.61801755, -1.6694483, -7.647823, 3.7648554, 0
634, 3282710774, 0.7256768, 0.15301411, -0.26991552, 0.6141161, -2.1356428, -9.134375, 5.2285423, 0
636, 3282744108, 0.7275581, 0.161988, -0.2714962, 0.6088695, 1.4321489, -4.9430237, 8.287125, 0
637, 3282760775, 0.7244622, 0.1670574, -0.2760504, 0.60914344, -0.88746715, -0.97421, 5.4240913, 0
638, 3282777442, 0.7223002, 0.17207286, -0.280118, 0.60845757, -1.9443003, 0.64224046, 3.1294794, 0
641, 3282827443, 0.7250036, 0.18437964, -0.27937695, 0.60194325, 1.3766376, -0.6131959, 0.8815985, 0
642, 3282844110, 0.7261641, 0.18694067, -0.2780533, 0.60036534, 2.957334, -1.0884553, 0.5875225, 0
644, 3282877444, 0.7232188, 0.19619106, -0.27661714, 0.60163105, 1.6789216, -0.4705943, -1.8633261, 0
645, 3282894111, 0.7195748, 0.2015241, -0.2762678, 0.6043915, 1.0839958, -0.5956798, -3.0782094, 0
646, 3282910778, 0.7156039, 0.20634255, -0.27724633, 0.6070269, 0.5306845, -1.059977, -3.5354862, 0
648, 3282944112, 0.71045405, 0.21612075, -0.28238788, 0.6073032, -0.943709, -0.6421038, -5.326154, 0
649, 3282960779, 0.7088619, 0.22112955, -0.28490257, 0.6061851, -2.1299193, 1.0100061, -4.235677, 0
650, 3282977446, 0.7085167, 0.2269943, -0.28636324, 0.60372746, -1.2047144, 1.036725, -3.6544566, 0
652, 3283010780, 0.70655906, 0.23986581, -0.28537464, 0.60150886, -0.314588, 0.78750545, -1.4742031, 0
653, 3283027447, 0.70369625, 0.2467609, -0.28527144, 0.60212475, 0.79778165, 1.0458238, -0.21667004, 0
656, 3283077448, 0.6932505, 0.2647876, -0.2941018, 0.6023359, 0.5087622, -0.03318318, -0.37666893, 0
657, 3283094115, 0.6901209, 0.2708213, -0.29447606, 0.6030638, -0.21078524, 0.1708343, 0.17718124, 0
659, 3283127449, 0.68519044, 0.2822302, -0.29053813, 0.60536027, -0.27216145, 0.36953878, 0.854125, 0
660, 3283144116, 0.6831905, 0.28809947, -0.28844735, 0.6058552, 0.13494952, 0.33747607, 0.47706795, 0
661, 3283160783, 0.6800757, 0.2942676, -0.28658438, 0.60727763, 1.2379525, -0.17410788, -0.31411934, 0
663, 3283194117, 0.67650604, 0.30191442, -0.2854835, 0.6080292, -0.7683414, 1.335417, -0.19544125, 0
664, 3283210784, 0.67509896, 0.30585384, -0.28306767, 0.60875344, -0.8958849, 0.6093225, -0.18796825, 0
665, 3283227451, 0.67442954, 0.30799338, -0.28133076, 0.6092218, -1.0590279, 0.18590759, -0.015845299, 0
667, 3283260785, 0.6721256, 0.31354237, -0.27898008, 0.61001766, 0.37819734, 0.423567, -0.55339146, 0
668, 3283277452, 0.67135936, 0.31548494, -0.27844062, 0.6101063, 0.3919226, 0.052078407, -0.84176064, 0
671, 3283327453, 0.66839445, 0.31919995, -0.27629033, 0.6124027, -0.27396876, -0.4549861, 0.42876816, 0
672, 3283344120, 0.6675968, 0.32028723, -0.27460742, 0.613461, -6.750091E-4, -0.3906556, 0.231431, 0
673, 3283360787, 0.6659794, 0.32248566, -0.27256602, 0.6149759, 0.49556488, -0.57578266, -0.008348465, 0
675, 3283394121, 0.66459405, 0.32707715, -0.27224177, 0.61419284, 0.17425406, -0.57891285, -0.04751587, 0
676, 3283410788, 0.66368973, 0.32778963, -0.27460092, 0.6137406, -0.5981399, -0.13071507, -0.18910503, 0
677, 3283427455, 0.6634572, 0.32748774, -0.2763737, 0.61335707, -1.454582, 0.39597443, -0.53363705, 0
679, 3283460789, 0.66567683, 0.32830656, -0.27594706, 0.6107007, -0.1998293, -0.97011733, -0.01436615, 0
680, 3283477456, 0.6668042, 0.3283332, -0.27821088, 0.6084252, 0.27572826, -0.82132196, -0.34680843, 0
681, 3283494123, 0.6678494, 0.32798195, -0.28150976, 0.60594594, 0.029549306, -0.3460128, -0.8985567, 0
683, 3283527457, 0.66926795, 0.32592276, -0.2858478, 0.6034559, 0.4608247, -1.1476178, -0.4485588, 0
686, 3283577458, 0.6743999, 0.32611793, -0.28584474, 0.59761, 1.9868817, -0.7022826, 1.0506773, 0
687, 3283594125, 0.67573243, 0.3261659, -0.2875097, 0.5952754, 1.3923047, -0.024502384, 1.2722149, 0
688, 3283610792, 0.67691314, 0.32499382, -0.29095614, 0.59289575, 0.21794212, 0.13357313, 1.3817234, 0
690, 3283644126, 0.68079007, 0.32110637, -0.2959033, 0.58810693, -0.7593627, 0.46655267, 0.37161922, 0
691, 3283660793, 0.68334377, 0.32046613, -0.29529512, 0.5857957, 0.21222734, -0.27532953, -0.18551254, 0
692, 3283677460, 0.6860898, 0.31942248, -0.29402632, 0.5837908, 1.3335869, -0.8459735, -0.03334999, 0
694, 3283710794, 0.69018465, 0.3136093, -0.29732567, 0.58043504, 0.8600488, -1.1902529, 0.02654457, 0
695, 3283727461, 0.6924239, 0.3087423, -0.30103135, 0.57846415, 0.6842248, -0.66316706, 0.6681156, 0
696, 3283744128, 0.69500726, 0.30390155, -0.30514437, 0.5757681, -0.9305403, -0.5808477, 0.03679371, 0
698, 3283777462, 0.70169675, 0.29701126, -0.3057066, 0.5709314, -0.56457394, -1.8105556, -0.24646091, 0
699, 3283794129, 0.70504737, 0.29341418, -0.30470833, 0.5691945, 0.17037275, -2.0452511, 0.1392641, 0
700, 3283810796, 0.70810425, 0.28847516, -0.30430275, 0.5681403, 0.6572032, -1.2987343, 0.66785336, 0
702, 3283844130, 0.7163391, 0.27503765, -0.30499557, 0.5640954, -0.2724585, 0.26038802, 0.22799397, 0
703, 3283860797, 0.7208404, 0.26887637, -0.30407298, 0.5618251, -0.6246586, -0.14813165, -0.5087261, 0
704, 3283877464, 0.7246939, 0.2642395, -0.30234796, 0.5599957, -0.26224396, -0.9904714, -0.93613815, 0
706, 3283910798, 0.7293862, 0.25831592, -0.29934463, 0.5582781, 1.2937353, -2.1078055, -1.4903069, 0
707, 3283927465, 0.7306258, 0.25578502, -0.29852286, 0.5582626, 1.8293678, -2.3426468, -1.220294, 0
708, 3283944132, 0.7311324, 0.25392133, -0.29885924, 0.5582702, 1.6353773, -2.1133442, -0.8486862, 0
710, 3283977466, 0.72906315, 0.25128388, -0.30368307, 0.5595649, 0.026493661, -0.007817365, -0.57296944, 0
713, 3284027467, 0.7253642, 0.24800941, -0.30936012, 0.56271446, 1.0387874, -0.69237125, -0.7895851, 0
714, 3284044134, 0.72516567, 0.24680357, -0.30956322, 0.5633884, 1.3313346, -1.2695546, -0.63383484, 0
715, 3284060801, 0.7251474, 0.24527666, -0.31079277, 0.5634019, 0.8248566, -0.6042534, -0.55528927, 0
717, 3284094135, 0.72721034, 0.24088666, -0.31131157, 0.56234944, -0.44947517, 0.0047021536, -1.3522034, 0
718, 3284110802, 0.7289766, 0.23962545, -0.30923668, 0.56174606, -0.17619929, -0.66166264, -1.5172386, 0
719, 3284127469, 0.7304456, 0.2399692, -0.30606693, 0.5614269, 0.20386326, -1.62134, -1.1219234, 0
722, 3284177470, 0.7352441, 0.23788658, -0.3040139, 0.5571487, -0.85456425, -0.3798965, -0.5527687, 0
723, 3284194137, 0.7367858, 0.23861238, -0.29971552, 0.5571307, -0.8372042, -0.74258226, 0.004714966, 0
725, 3284227471, 0.7379883, 0.24225241, -0.29139066, 0.55838305, 0.31821024, -2.0210395, -1.4468355, 0
726, 3284244138, 0.7382751, 0.2417204, -0.29115415, 0.55835783, 1.3273871, -1.4025987, -1.2340212, 0
729, 3284294139, 0.7446557, 0.23418684, -0.28955296, 0.5539104, -2.0678928, 0.819389, -1.6789389, 0
730, 3284310806, 0.74692476, 0.23273502, -0.2853982, 0.5536236, -2.1386054, -0.96754533, -3.7179985, 0
731, 3284327473, 0.747396, 0.23178765, -0.2822403, 0.555002, -0.018038312, -1.9614078, -4.7385697, 0
733, 3284360807, 0.7461061, 0.22941686, -0.28300568, 0.557328, 1.8632414, -1.5381324, -6.918992, 0
734, 3284377474, 0.74602616, 0.22720486, -0.2846559, 0.55750096, 1.4499704, -0.32424736, -6.2479515, 0
735, 3284394141, 0.7467006, 0.22733893, -0.28289765, 0.55743814, 2.0915046, -0.103044726, -4.2809477, 0
737, 3284427475, 0.7495121, 0.23002902, -0.2737842, 0.55711174, 2.0035577, 2.974803, -0.34138584, 0
738, 3284444142, 0.75141656, 0.23637173, -0.2637696, 0.55672276, 6.0990944, 6.262959, 4.4457235, 0
740, 3284477476, 0.7529021, 0.24729148, -0.24566871, 0.558252, 7.6403184, 6.0262847, 12.18372, 0
741, 3284494143, 0.75370854, 0.2500295, -0.23503257, 0.56051886, 8.215614, 7.529397, 13.832752, 0
744, 3284544144, 0.753083, 0.25208753, -0.20352499, 0.5726329, 4.717003, 6.013427, 6.3659363, 0
745, 3284560811, 0.7501509, 0.24969217, -0.19882189, 0.57914615, 2.8357043, 4.6092167, 3.0616312, 0
746, 3284577478, 0.74622214, 0.24613571, -0.19474179, 0.5870763, -2.0063202, 3.3285344, 1.2491646, 0
748, 3284610812, 0.7425909, 0.24195309, -0.1903335, 0.5948139, -10.581768, -0.6296047, 2.688282, 0
749, 3284627479, 0.7411286, 0.2429407, -0.19181293, 0.5957591, -10.925601, -4.9518204, -0.676075, 0
750, 3284644146, 0.73858577, 0.24704117, -0.18850645, 0.59828085, -5.5202947, -6.5884, -1.269496, 0
752, 3284677480, 0.7377558, 0.24645185, -0.17996834, 0.60216486, 4.064383, -1.3541193, 2.0909243, 0
753, 3284694147, 0.7366077, 0.24144097, -0.17975739, 0.6056532, -0.56002325, 0.10756807, 1.5597954, 0
754, 3284710814, 0.7376714, 0.23547685, -0.1827325, 0.60581636, -2.3799493, 1.704703, 1.026413, 0
756, 3284744148, 0.73921686, 0.23320965, -0.18786266, 0.603235, -2.0528815, 1.7820296, -0.5995321, 0
758, 3284777482, 0.73692644, 0.23446228, -0.19073097, 0.60465014, 0.53242147, 0.08842988, 0.059404373, 0
760, 3284810816, 0.7361843, 0.23075762, -0.19613655, 0.6052498, -0.4049733, -0.90149796, -1.0218201, 0
761, 3284827483, 0.7356887, 0.22995836, -0.1987901, 0.6052908, -0.09747132, -0.68920344, -1.6631231, 0
762, 3284844150, 0.73321027, 0.23087397, -0.20302679, 0.606542, -0.96205026, -0.81578606, -1.5591269, 0
764, 3284877484, 0.7278384, 0.23005882, -0.21745709, 0.608317, -1.7924811, 0.24426097, -2.032514, 0
765, 3284894151, 0.72624844, 0.22870924, -0.22427067, 0.60825235, -1.2981442, -0.11068451, -2.2205944, 0
767, 3284927485, 0.7285584, 0.2226927, -0.24031092, 0.6015599, -1.7447989, -0.6545231, -3.5194817, 0
768, 3284944152, 0.73100466, 0.22056636, -0.24854293, 0.5960052, -0.8161604, -0.54839873, -3.332995, 0
769, 3284960819, 0.7332458, 0.21924427, -0.25772053, 0.58981013, -0.5514612, -0.075287655, -2.418139, 0
771, 3284994153, 0.7348964, 0.21903166, -0.2727387, 0.58101547, 1.0635319, -0.8064317, -2.1659484, 0
772, 3285010820, 0.7354896, 0.21744959, -0.28018194, 0.5773057, 2.0400805, -1.6621668, -1.1657257, 0
773, 3285027487, 0.73614025, 0.2142426, -0.2888099, 0.5734104, 2.7754145, -1.4109458, -0.31301212, 0
775, 3285060821, 0.73564845, 0.20903853, -0.3066957, 0.56663483, 1.1014806, 0.7409573, -0.7896137, 0
776, 3285077488, 0.7345946, 0.21083802, -0.3115275, 0.5646964, 0.9400879, 0.80793834, -0.16930103, 0
777, 3285094155, 0.7344035, 0.2134554, -0.31416026, 0.5624987, 1.7295667, -0.31310478, 0.313385, 0
779, 3285127489, 0.7321224, 0.21506341, -0.32054406, 0.56125677, 1.7098985, -1.5920506, -0.19184685, 0
780, 3285144156, 0.7315655, 0.21458723, -0.3243456, 0.55997956, 0.74346375, -0.5479408, -0.5592861, 0
781, 3285160823, 0.7310042, 0.2152741, -0.32692638, 0.5589475, -0.033026528, 0.8206891, -0.36259365, 0
783, 3285194157, 0.7273064, 0.21742958, -0.32819995, 0.562181, -0.84338456, 0.3040393, 0.23414135, 0
785, 3285227491, 0.72416306, 0.21693249, -0.3290096, 0.56594527, -0.7327924, -1.388305, -0.24963665, 0
787, 3285260825, 0.72188383, 0.2172164, -0.33426306, 0.56566966, -0.89145035, 0.26064515, -0.4638071, 0
788, 3285277492, 0.72095585, 0.21702062, -0.33760494, 0.56494296, -0.8567446, 0.9175736, 0.19475365, 0
789, 3285294159, 0.72028023, 0.21718192, -0.33962464, 0.5645323, -0.2749064, 0.3432836, 0.8019476, 0
791, 3285327493, 0.71955144, 0.21790305, -0.3405692, 0.5646148, 0.1450684, -1.3783362, 0.029425621, 0
792, 3285344160, 0.71951, 0.21666022, -0.34213337, 0.56419975, 0.06163817, -1.2149726, -0.004896164, 0
794, 3285377494, 0.719636, 0.21363726, -0.34578425, 0.56296474, -0.600369, 0.53392553, -0.12815475, 0
795, 3285394161, 0.7196138, 0.21324742, -0.34589446, 0.56307334, -0.24265595, 0.054684456, -0.0040426254, 0
796, 3285410828, 0.7191329, 0.2136646, -0.3453598, 0.5638573, 0.26823008, -1.0925336, -0.09564209, 0
798, 3285444162, 0.71720606, 0.21357055, -0.34501126, 0.566554, -0.06775616, -1.3485409, -0.48127174, 0
800, 3285477496, 0.7156836, 0.21282922, -0.34582603, 0.5682589, -0.51733774, 0.7566622, 0.050834656, 0
802, 3285510830, 0.71756005, 0.21277648, -0.34044024, 0.56916374, -0.53381085, -0.2077411, 0.08407307, 0
803, 3285527497, 0.7174308, 0.21231161, -0.33687112, 0.57161874, -0.79897994, -1.2751004, -0.45039368, 0
804, 3285544164, 0.71682227, 0.21187901, -0.33323333, 0.57466674, -0.10860249, -1.1778107, -0.5035391, 0
806, 3285577498, 0.71683186, 0.20943353, -0.32761782, 0.57876533, 0.06372086, 0.1777147, -0.3747282, 0
808, 3285610832, 0.71718645, 0.20705843, -0.318568, 0.58420724, -1.4978046, -0.99947864, -2.5991635, 0
810, 3285644166, 0.71583974, 0.20440811, -0.31065238, 0.5910152, -1.4160612, -0.3018768, -1.8387485, 0
811, 3285660833, 0.716919, 0.20226389, -0.30792212, 0.591873, -0.29218307, 0.951443, -1.4542217, 0
812, 3285677500, 0.719732, 0.20096391, -0.30355543, 0.59115696, 0.015722571, 1.093839, -1.5937757, 0
814, 3285710834, 0.72511077, 0.20027947, -0.28740925, 0.59288424, -1.1595112, -2.23542, -3.9900966, 0
816, 3285744168, 0.72532153, 0.20211524, -0.26744014, 0.6012877, 2.9869654, -0.3472129, -5.297877, 0
818, 3285777502, 0.7226288, 0.211594, -0.25429088, 0.6069473, 5.8762326, 0.562287, -3.5109735, 0
819, 3285794169, 0.72331536, 0.22223002, -0.24634694, 0.60560304, 8.249565, 2.4690108, 1.2426605, 0
821, 3285827503, 0.7212125, 0.23993415, -0.22479656, 0.60972434, 3.8671005, 6.776308, 7.0232067, 0
822, 3285844170, 0.72000027, 0.24460113, -0.21833019, 0.61164963, 2.162387, 10.608943, 9.052208, 0
823, 3285860837, 0.7205516, 0.24732056, -0.21176282, 0.61221504, -1.108386, 11.418135, 8.867876, 0
825, 3285894171, 0.71837616, 0.25690746, -0.1978789, 0.61546016, -1.4769635, 5.864405, 5.278243, 0
827, 3285927505, 0.71216273, 0.2588783, -0.19982156, 0.6212011, -6.198443, -0.53907436, 5.278366, 0
829, 3285960839, 0.7131367, 0.26301646, -0.2060314, 0.6162975, -5.346882, -5.4849195, -2.1391053, 0
830, 3285977506, 0.71500736, 0.2638692, -0.20630671, 0.6136677, 0.4311733, -2.9817102, 1.1508789, 0
833, 3286027507, 0.71754044, 0.25628775, -0.21364345, 0.6114098, 0.68441904, 1.2931559, 3.767744, 0
834, 3286044174, 0.7156141, 0.2509888, -0.2195211, 0.6137791, -1.0960501, 1.4310839, 3.6156273, 0
835, 3286060841, 0.7142081, 0.24583721, -0.22523563, 0.61542875, -2.2651277, 2.2743914, 3.2678223, 0
837, 3286094175, 0.7095722, 0.24075258, -0.23331052, 0.6197779, -1.3964466, -0.7488944, 0.49639893, 0
838, 3286110842, 0.7086516, 0.23889302, -0.23729698, 0.62003726, -0.029060485, -2.4791243, -0.64826965, 0
839, 3286127509, 0.70904034, 0.2354073, -0.24182072, 0.6191779, -0.20945533, -3.305662, -1.7412672, 0
841, 3286160843, 0.7101201, 0.2289312, -0.25083053, 0.61677957, -0.7926753, -1.6798052, -2.481444, 0
842, 3286177510, 0.7097438, 0.22706632, -0.25521678, 0.6161022, -1.5574939, -1.3658779, -2.711532, 0
843, 3286194177, 0.7091523, 0.22683488, -0.2574564, 0.61593693, -1.1451303, -1.1860756, -2.5379949, 0
845, 3286227511, 0.7076017, 0.22475427, -0.26407093, 0.6156826, -0.12530404, -1.1140975, -1.5759935, 0
846, 3286244178, 0.7060542, 0.22303838, -0.268958, 0.6159677, 0.3715999, -1.2376362, -2.487916, 0
848, 3286277512, 0.7027099, 0.22298658, -0.2777951, 0.6158886, -0.49182585, -0.77903193, -3.5861263, 0
849, 3286294179, 0.7014303, 0.22627395, -0.27806225, 0.6160278, 0.18631928, -0.87672764, -2.719304, 0
850, 3286310846, 0.7013072, 0.22815463, -0.2793072, 0.61491, 0.009303504, -1.1384058, -1.5675621, 0
852, 3286344180, 0.69836223, 0.2286514, -0.28765535, 0.61422837, -0.6178898, -1.5101552, -2.4469714, 0
853, 3286360847, 0.696314, 0.22983414, -0.29281622, 0.61367315, -0.23759294, -0.32721135, -3.2815838, 0
854, 3286377514, 0.69514114, 0.23102836, -0.29645386, 0.6128075, 0.099540375, 0.27573213, -2.4076972, 0
856, 3286410848, 0.6930991, 0.23522347, -0.29878885, 0.6123902, 1.4374483, 0.32466242, 1.1702642, 0
857, 3286427515, 0.6904075, 0.23818907, -0.30050915, 0.61344194, 1.2265598, 0.119727954, 1.4509516, 0
860, 3286477516, 0.6797617, 0.24819013, -0.30605254, 0.6186037, 0.7259871, 0.4076596, -0.9859266, 0
861, 3286494183, 0.6774348, 0.2512535, -0.3069697, 0.6194647, 0.7681239, 0.8160306, -0.20624065, 0
862, 3286510850, 0.67544985, 0.25406638, -0.30706522, 0.6204369, 0.61569995, 0.55854124, 0.9704361, 0
864, 3286544184, 0.6722527, 0.25765648, -0.30607522, 0.6229131, 0.3979181, -1.4042066, 0.41725254, 0
865, 3286560851, 0.6706072, 0.25878987, -0.30594847, 0.62427753, 0.5263625, -0.70642847, -0.58426476, 0
866, 3286577518, 0.6695127, 0.25887182, -0.30770326, 0.6245559, -0.16625944, 0.33424383, -0.5875864, 0
868, 3286610852, 0.6688219, 0.2618342, -0.30846396, 0.6236851, 0.026186554, 0.61668295, 0.9438505, 0
869, 3286627519, 0.66901153, 0.2637049, -0.30761674, 0.62311167, 0.45884103, -0.3442665, 0.40874195, 0
870, 3286644186, 0.6694357, 0.26466343, -0.30662274, 0.62273973, 0.24935105, -1.2259108, 0.37061024, 0
872, 3286677520, 0.6696621, 0.26603413, -0.30562463, 0.62240314, 0.40674442, -0.80766076, -0.9830837, 0
875, 3286727521, 0.6688352, 0.2708872, -0.30276695, 0.6225951, 0.3504634, -0.9457215, 0.20059681, 0
876, 3286744188, 0.6683769, 0.2730331, -0.29982752, 0.62357193, 0.5157984, -1.6545445, -0.16567898, 0
877, 3286760855, 0.6676233, 0.2747287, -0.29644746, 0.62524813, 0.017410764, -2.371127, -0.93075466, 0
879, 3286794189, 0.66702807, 0.27545595, -0.29283884, 0.6272609, -0.57351124, -0.28222322, -0.8217077, 0
880, 3286810856, 0.6678936, 0.2748558, -0.2919301, 0.6270266, -0.82391924, 0.3087331, -0.58517075, 0
881, 3286827523, 0.6696552, 0.27500108, -0.28992727, 0.62601244, -1.1226411, 0.4670985, -0.63840294, 0
883, 3286860857, 0.6730482, 0.2759819, -0.28182074, 0.62564397, -0.93702936, -1.7722299, -2.3928542, 0
884, 3286877524, 0.6743069, 0.27576792, -0.2784442, 0.62589467, -0.030732138, -1.4282352, -2.5144978, 0
885, 3286894191, 0.675887, 0.27509463, -0.27751988, 0.62489647, 0.44856614, -0.87875545, -2.2830772, 0
887, 3286927525, 0.68213373, 0.27420172, -0.2725248, 0.62068546, 0.58793855, -0.20230749, -1.7369957, 0
889, 3286960859, 0.68463516, 0.27769297, -0.2591474, 0.6221068, 1.1037636, -0.4194953, -4.022855, 0
891, 3286994193, 0.68484694, 0.2834918, -0.25002044, 0.6229928, 4.167262, 0.3761034, -3.10638, 0
892, 3287010860, 0.6864347, 0.2919032, -0.24415174, 0.61967987, 6.0758743, 2.9128258, 1.3103981, 0
893, 3287027527, 0.6879692, 0.30107296, -0.23478122, 0.6172069, 5.9656796, 4.860301, 6.1830425, 0
895, 3287060861, 0.6868471, 0.30570486, -0.2217589, 0.6209843, 2.4797592, 5.0453563, 6.376734, 0
896, 3287077528, 0.6872068, 0.30348668, -0.21905226, 0.6226329, -0.2602022, 5.3525248, 5.992607, 0
898, 3287110862, 0.6858119, 0.30131945, -0.21842694, 0.62543684, -2.6865041, 2.5738199, 5.803087, 0
899, 3287127529, 0.68747246, 0.29606557, -0.22238657, 0.62472713, -5.101899, 0.26351774, 5.254652, 0
900, 3287144196, 0.6911468, 0.2895171, -0.22660182, 0.62222224, -9.006443, -1.9610875, 3.9566364, 0
902, 3287177530, 0.694945, 0.289923, -0.23578712, 0.61434007, -0.6966912, -4.983932, -0.45016003, 0
904, 3287210864, 0.7049994, 0.28648698, -0.2453683, 0.60059005, 5.5057282, -0.72169083, 2.107479, 0
906, 3287244198, 0.709494, 0.2708186, -0.25837934, 0.59710044, -0.9755013, 0.61690736, 4.339074, 0
907, 3287260865, 0.7108385, 0.26351374, -0.2664364, 0.595226, -1.9232948, 1.4137245, 3.3038025, 0
908, 3287277532, 0.7117134, 0.25599515, -0.27352995, 0.5942431, -2.842179, 0.79275036, 1.9450436, 0
910, 3287310866, 0.71371335, 0.24441849, -0.28819925, 0.5897687, -1.7296755, -2.0149975, -2.185038, 0
911, 3287327533, 0.7161871, 0.23760657, -0.29438037, 0.5864916, -2.269677, -2.4545527, -3.156108, 0
912, 3287344200, 0.7187483, 0.23188895, -0.29691985, 0.584363, 0.004289437, -2.4749792, -2.8518686, 0
914, 3287377534, 0.7204976, 0.22430089, -0.30200174, 0.58256376, 0.7601993, -2.2955992, -2.88479, 0
915, 3287394201, 0.7206918, 0.22093971, -0.30474296, 0.58218014, 0.8110425, -1.823979, -2.7406645, 0
916, 3287410868, 0.7203046, 0.21784914, -0.30837762, 0.58191013, 1.2500222, -1.3884087, -2.5606856, 0
918, 3287444202, 0.7174313, 0.21327361, -0.31977028, 0.581005, -0.39052463, 0.3187991, -3.2457576, 0
919, 3287460869, 0.7158503, 0.21132028, -0.32400683, 0.58132154, -0.45484865, 1.397827, -2.8481545, 0
920, 3287477536, 0.71357095, 0.21008776, -0.3265476, 0.58314604, 0.20373541, 0.5796276, -2.524971, 0
922, 3287510870, 0.70892525, 0.2093378, -0.32885072, 0.58776945, 1.4774473, -1.3218323, -2.117988, 0
923, 3287527537, 0.70641303, 0.20977788, -0.3310814, 0.5893827, 1.9824307, -0.9482796, -1.854476, 0
924, 3287544204, 0.70471025, 0.21158567, -0.3339069, 0.5891808, 1.8007383, 0.85073894, -1.2235003, 0
926, 3287577538, 0.70317477, 0.21805736, -0.34018722, 0.5850486, 0.8448032, 2.1455233, -1.9800901, 0
927, 3287594205, 0.7024958, 0.22356871, -0.34075788, 0.5834499, 1.1493428, 0.9060702, -1.9360385, 0
929, 3287627539, 0.69956577, 0.23683806, -0.3424517, 0.580737, 1.8222593, -0.14831251, -0.2602234, 0
931, 3287660873, 0.69557774, 0.24975947, -0.35228115, 0.57419765, 1.2551318, 2.3182907, -0.6849718, 0
933, 3287694207, 0.69124067, 0.26617125, -0.35172278, 0.5724014, 0.91013134, 0.63477045, 1.4384336, 0
934, 3287710874, 0.6881185, 0.2736139, -0.34889442, 0.57438153, 1.4138566, -0.6589902, 2.137145, 0
935, 3287727541, 0.6845576, 0.27937317, -0.34892127, 0.57584596, 0.81838596, -1.4947518, 1.7472801, 0
937, 3287760875, 0.67738885, 0.28711694, -0.35832748, 0.5747371, -2.3991935, 0.82507145, 1.4444895, 0
938, 3287777542, 0.6743949, 0.28984767, -0.3631755, 0.5738438, -3.8165174, 1.9605604, 1.552412, 0
939, 3287794209, 0.67315996, 0.29230294, -0.36266738, 0.5743693, -3.614336, 2.1400075, 2.0645933, 0
941, 3287827543, 0.6741305, 0.29859284, -0.35385603, 0.57549036, -0.33537358, -1.215361, 2.126072, 0
942, 3287844210, 0.6757605, 0.30089757, -0.35049635, 0.5744335, 1.1277858, -1.0391215, 1.523346, 0
943, 3287860877, 0.67513096, 0.30495661, -0.34862974, 0.57416916, 1.469105, -0.5273878, -0.3498068, 0
946, 3287910878, 0.671855, 0.31684914, -0.35093966, 0.5701511, -0.35360733, -1.2225244, -2.3952317, 0
947, 3287927545, 0.6710981, 0.31894976, -0.35579523, 0.5668521, -1.4920332, -0.9976809, -3.8650546, 0
949, 3287960879, 0.66968584, 0.3217235, -0.36341286, 0.5621023, -1.9386474, -0.40931302, -3.031229, 0
950, 3287977546, 0.66892064, 0.32312474, -0.3649438, 0.56121725, -1.2307045, -0.47868094, -2.0707264, 0
951, 3287994213, 0.668118, 0.32471454, -0.36506996, 0.5611737, -0.77520084, -0.9084359, -0.6059561, 0
953, 3288027547, 0.66759425, 0.32670933, -0.36671034, 0.5595672, 0.8465428, -0.7884671, 1.8878727, 0
954, 3288044214, 0.66795075, 0.3275562, -0.36785424, 0.5578933, 0.7366178, -0.9402669, 2.7299328, 0
956, 3288077548, 0.6694925, 0.32810694, -0.3719452, 0.55298793, -0.706077, 0.24728222, 2.5953312, 0
957, 3288094215, 0.6699407, 0.3284421, -0.37365717, 0.55108875, -0.47770843, 0.6196651, 1.5370884, 0
958, 3288110882, 0.6698682, 0.32935455, -0.3744298, 0.550107, 0.04209911, 0.090981394, 1.0395966, 0
961, 3288160883, 0.66538775, 0.33535498, -0.3753861, 0.5512664, 1.0055506, -0.58348346, 0.039136887, 0
962, 3288177550, 0.6639362, 0.33725142, -0.37605405, 0.5514043, 0.309063, -0.35217202, 0.07669544, 0
964, 3288210884, 0.6624254, 0.3412134, -0.37734917, 0.5498969, -0.83361167, -0.15013164, -0.9988375, 0
965, 3288227551, 0.6623208, 0.34345388, -0.37754092, 0.548495, -0.79173696, -0.12627934, -1.411066, 0
966, 3288244218, 0.66248333, 0.34591874, -0.37786725, 0.54652137, -0.88147944, -0.5401355, -1.7610884, 0
968, 3288277552, 0.6618589, 0.3495245, -0.37886062, 0.54429156, -0.30535132, -0.8638503, -0.98307323, 0
969, 3288294219, 0.6606821, 0.3513331, -0.38077876, 0.5432174, -0.38961372, -1.1884171, -1.3458643, 0
970, 3288310886, 0.65935993, 0.35218263, -0.3818414, 0.5435275, -0.12581655, -1.0531702, -0.3994875, 0
972, 3288344220, 0.65603715, 0.35289985, -0.38503477, 0.5448288, -0.08191995, -0.49602464, -0.1388855, 0
973, 3288360887, 0.65467167, 0.35254648, -0.3855486, 0.54633474, -0.013979394, -0.5690043, 0.6935291, 0
976, 3288410888, 0.64984816, 0.3534932, -0.38754195, 0.5500586, 0.15976438, -0.8228748, 0.96180534, 0
977, 3288427555, 0.6481257, 0.35476243, -0.38837278, 0.55068713, 0.08031849, -0.706276, 0.7509947, 0
978, 3288444222, 0.6467552, 0.35603967, -0.38948154, 0.55069095, -0.08809875, -0.16315518, 0.3678255, 0
980, 3288477556, 0.64285797, 0.3588593, -0.3878857, 0.55453706, 0.24432537, 0.02804037, 0.45864677, 0
981, 3288494223, 0.64085007, 0.36039203, -0.38621807, 0.55702555, 0.22278297, -0.16130404, 0.5898218, 0
983, 3288527557, 0.6372293, 0.36430606, -0.38335353, 0.5606008, -0.028813502, -0.09375609, -0.11552429, 0
984, 3288544224, 0.63584983, 0.36647856, -0.38259748, 0.56126684, -0.42227408, 0.13971393, -0.5213499, 0
985, 3288560891, 0.63492566, 0.36836988, -0.38194287, 0.5615208, -0.8099012, 0.4605815, -0.8201351, 0
987, 3288594225, 0.63352937, 0.37072814, -0.37966394, 0.5630894, -0.91216016, 0.5596637, 0.31187248, 0
988, 3288610892, 0.6323503, 0.37161097, -0.37911886, 0.5641988, -0.2672978, 0.6708024, 1.0723114, 0
989, 3288627559, 0.6312876, 0.37186903, -0.37928334, 0.56510776, 0.28835785, 0.94565094, 1.0532484, 0
991, 3288660893, 0.6301141, 0.3724, -0.37831852, 0.56671226, 0.6296121, -0.8012527, 0.059514046, 0
992, 3288677560, 0.6301681, 0.3726988, -0.37855336, 0.56629884, -0.042559326, -0.87604594, -0.80334663, 0
993, 3288694227, 0.6307065, 0.37249428, -0.37895536, 0.5655646, -0.7538524, -1.1540115, -1.2685108, 0
995, 3288727561, 0.6334716, 0.36972302, -0.3802488, 0.56342053, -1.1002457, -0.27700433, -0.48785496, 0
996, 3288744228, 0.63465184, 0.36890855, -0.38130134, 0.5619127, -0.50031567, -0.3585872, 0.11833382, 0
997, 3288760895, 0.6361661, 0.36757663, -0.38209328, 0.56053364, -0.14876486, -0.46406633, 0.3730383, 0
1000, 3288810896, 0.63863164, 0.3615466, -0.3826359, 0.5612813, -6.9780747E-4, -0.50165784, -0.49453545, 0
1001, 3288827563, 0.64080465, 0.35629866, -0.3817745, 0.5627451, -0.23126416, -0.34811026, -0.22715473, 0
1005, 3288894231, 0.6510209, 0.33313888, -0.37121713, 0.57218987, -0.44259053, -0.4300986, -1.8074265, 0
1007, 3288927565, 0.6588402, 0.31426564, -0.3630395, 0.57912195, -1.5049217, -0.25492167, -2.4790893, 0
1008, 3288944232, 0.6641013, 0.30322272, -0.35718942, 0.5826272, -0.69527715, -0.15450634, -3.7162576, 0
1010, 3288977566, 0.6720233, 0.28501165, -0.34054202, 0.592619, 1.5433713, 0.7677869, -3.2337127, 0
1011, 3288994233, 0.67453337, 0.2750541, -0.33080846, 0.59994096, 1.3657943, 0.14080769, -0.7783632, 0
1012, 3289010900, 0.6779022, 0.2629205, -0.32048446, 0.60714436, 0.90178376, -0.727476, -1.4355965, 0
1015, 3289060901, 0.6908519, 0.22989893, -0.28947204, 0.6213608, 3.149286, 4.8854837, -2.8897486, 0
1016, 3289077568, 0.6936643, 0.221721, -0.28024933, 0.6254142, 4.045511, 7.8470473, -0.4473772, 0
1018, 3289110902, 0.6990495, 0.20782955, -0.2638627, 0.6312895, 3.067654, 7.783388, 1.433568, 0
1019, 3289127569, 0.7004046, 0.20079067, -0.25859815, 0.6342371, 2.893321, 6.2927046, 2.4314919, 0
1022, 3289177570, 0.69337624, 0.18619232, -0.27618554, 0.6389808, 1.3908259, -0.61410534, 3.9882402, 0
1023, 3289194237, 0.68857133, 0.18761414, -0.28642747, 0.6392518, 0.527276, -8.267393, 3.9248362, 0
1024, 3289210904, 0.6859743, 0.18673879, -0.28735197, 0.6418801, 2.0337105, -10.8862915, 6.0687256, 0
1026, 3289244238, 0.6782163, 0.19061822, -0.28301772, 0.6508467, 2.2335243, -4.595799, 9.550846, 0
1027, 3289260905, 0.6711728, 0.19406132, -0.2826736, 0.6572488, 0.10602337, -0.27450666, 10.172676, 0
1028, 3289277572, 0.6660973, 0.19804168, -0.28464407, 0.6603672, -2.8650992, -0.34470412, 5.3619986, 0
1030, 3289310906, 0.66627795, 0.20397234, -0.28452152, 0.65842986, -2.0060153, -0.2543878, 1.5250568, 0
1031, 3289327573, 0.6679803, 0.20597236, -0.28205407, 0.65714246, 0.2599887, -0.24570757, 1.1903257, 0
1032, 3289344240, 0.6689727, 0.20769654, -0.27997565, 0.6564788, 1.5793886, 0.014180444, 0.9808054, 0
1034, 3289377574, 0.6670805, 0.21038309, -0.2789154, 0.6579985, 2.5936258, 0.35931244, -0.31691933, 0
1037, 3289427575, 0.6579702, 0.22472629, -0.2846541, 0.6599686, -0.8311488, 0.5632942, -2.4142752, 0
1038, 3289444242, 0.6576463, 0.23014814, -0.28770703, 0.6570927, -1.217142, 0.7378937, -2.794272, 0
1039, 3289460909, 0.6569745, 0.23695038, -0.28986382, 0.65439385, -0.97528046, 0.028530087, -3.5042396, 0
1041, 3289494243, 0.6545566, 0.2489785, -0.2918259, 0.65147233, 0.0723127, -0.0072859637, -2.4199853, 0
1042, 3289510910, 0.6529088, 0.25530463, -0.29329017, 0.65001833, 0.5274881, 0.26187226, -1.6109791, 0
1043, 3289527577, 0.65181637, 0.26122347, -0.29570436, 0.6476648, 0.80782497, 0.3610655, -0.4904213, 0
1045, 3289560911, 0.6488788, 0.27640545, -0.30188394, 0.6414326, 1.1011357, -0.056764413, -0.3683424, 0
1046, 3289577578, 0.647027, 0.28364375, -0.30605167, 0.6381597, 0.2529769, 0.37324506, -0.5495224, 0
1047, 3289594245, 0.6436708, 0.29033858, -0.31087893, 0.6362066, -0.76808363, 0.64266324, -1.052906, 0
1049, 3289627579, 0.640111, 0.30334562, -0.31910476, 0.62962264, -1.3125734, 0.4839422, -1.245781, 0
1051, 3289660913, 0.63810754, 0.3177879, -0.3256076, 0.6211464, -1.1292794, -0.56190675, -0.9179001, 0
1053, 3289694247, 0.6384879, 0.32814375, -0.3322381, 0.61178887, -1.5378342, 0.6214745, -0.509573, 0
1054, 3289710914, 0.6371429, 0.33450192, -0.33343112, 0.60909265, -0.12399717, -0.34309584, -1.0518913, 0
1055, 3289727581, 0.6369537, 0.33919603, -0.33492935, 0.6058642, 0.4021778, -0.4657432, -0.38987827, 0
1057, 3289760915, 0.6382031, 0.34592944, -0.3427946, 0.59626716, 0.17391431, -0.8456134, -0.49561024, 0
1058, 3289777582, 0.63949156, 0.348548, -0.34758618, 0.59056056, -0.2445985, -0.6059111, -0.76135635, 0
1059, 3289794249, 0.641202, 0.35043526, -0.35238454, 0.58471644, -0.61526096, -0.54747856, -0.82947445, 0
1061, 3289827583, 0.6456427, 0.35199326, -0.3634317, 0.5719937, -1.0507205, -0.45459336, -0.5838299, 0
1062, 3289844250, 0.6479955, 0.3519498, -0.36945367, 0.56546474, -0.78482705, -0.23484148, -0.425416, 0
1063, 3289860917, 0.65007937, 0.35189882, -0.37540463, 0.55914986, -0.040062685, -0.27252576, -0.7925577, 0
1065, 3289894251, 0.65350187, 0.35141903, -0.3841379, 0.54944634, 0.5061433, -0.6406228, 0.26466942, 0
1066, 3289910918, 0.6555709, 0.35101885, -0.38796347, 0.54452735, 0.6757912, -1.0703316, -0.24188137, 0
1068, 3289944252, 0.6590905, 0.34912056, -0.39511508, 0.53629434, 0.47561747, -1.0561002, 0.16069317, 0
1069, 3289960919, 0.66014606, 0.34802994, -0.39884636, 0.5329326, 0.28338873, -0.8823182, 0.11677647, 0
1070, 3289977586, 0.6602375, 0.34776583, -0.4023918, 0.53032005, 0.320339, -1.1143144, -0.45487976, 0
1072, 3290010920, 0.65800536, 0.34874398, -0.40847987, 0.5277914, 0.34480584, -0.86525923, 0.16205597, 0
1073, 3290027587, 0.6565806, 0.34987673, -0.41077396, 0.5270351, 0.37266025, -1.1532406, -0.4386444, 0
1074, 3290044254, 0.6549553, 0.3511017, -0.41264895, 0.5267779, 0.24091858, -1.1764048, -0.61630726, 0
1076, 3290077588, 0.65203315, 0.35320285, -0.41629368, 0.52613044, -0.48253787, -0.8654958, -0.35935783, 0
1078, 3290110922, 0.6498734, 0.35436517, -0.42043227, 0.52472836, -0.90151, -0.53170073, -0.06603241, 0
1080, 3290144256, 0.6474737, 0.35577124, -0.42429483, 0.52363336, -0.010309759, -0.08412581, 0.38870716, 0
1081, 3290160923, 0.64601827, 0.35727578, -0.42601013, 0.5230131, 0.5269881, 0.09396708, 0.88749886, 0
1082, 3290177590, 0.64386815, 0.3596452, -0.42719102, 0.5230776, 0.8973106, 0.1486435, 1.0543537, 0
1084, 3290210924, 0.63794875, 0.3648438, -0.42855883, 0.5256053, 0.7871353, -0.26384208, 0.7185478, 0
1085, 3290227591, 0.63516724, 0.36727583, -0.42940018, 0.52659243, 0.091501735, -0.108453624, 0.03312111, 0
1086, 3290244258, 0.63296604, 0.36950707, -0.43025243, 0.52698624, -0.35077253, -0.03834644, -0.23427296, 0
1088, 3290277592, 0.6308202, 0.37304085, -0.43362802, 0.52429587, -0.9604877, 0.4984664, -0.34430218, 0
1089, 3290294259, 0.63064116, 0.37439185, -0.4347531, 0.5226138, -0.7153152, 1.049398, -0.019402504, 0
1091, 3290327593, 0.63083607, 0.37830806, -0.4340925, 0.5201017, 0.40815678, -0.20374447, -0.057570457, 0
1093, 3290360927, 0.6316368, 0.3802596, -0.4343143, 0.51751506, 0.8106895, -0.40061468, -0.19846916, 0
1095, 3290394261, 0.632011, 0.3795696, -0.4368446, 0.51543075, -0.23310658, 0.5597133, 0.5538435, 0
1096, 3290410928, 0.631982, 0.37917936, -0.43797404, 0.5147947, -0.28847924, 0.4657744, 0.21000767, 0
1097, 3290427595, 0.63164806, 0.37905782, -0.43817708, 0.51512116, 0.05070883, 0.03954626, -0.03041935, 0
1099, 3290460929, 0.63048905, 0.37892014, -0.43842998, 0.5164257, 0.5253317, -0.659062, -0.3960619, 0
1100, 3290477596, 0.6302177, 0.37840146, -0.43909755, 0.5165702, 0.20054588, -0.40943617, -0.32953262, 0
1101, 3290494263, 0.63052475, 0.377239, -0.43951693, 0.51668864, -0.2607949, -0.17802371, 0.011209488, 0
1103, 3290527597, 0.63151884, 0.37442032, -0.43952388, 0.51751816, -0.8246039, -0.20745556, 0.35161877, 0
1104, 3290544264, 0.6320391, 0.3729782, -0.4399599, 0.51755375, -0.6835261, -0.3576308, 0.29121304, 0
1105, 3290560931, 0.6325572, 0.3717838, -0.44115895, 0.5167592, -0.23661573, -0.16448776, 0.18463612, 0
1108, 3290610932, 0.6359529, 0.36765486, -0.44005626, 0.51648563, 0.016611036, -0.81689334, 0.68911266, 0
1109, 3290627599, 0.6375799, 0.36558545, -0.43779317, 0.51787007, -0.5748085, -1.4075316, 0.38432503, 0
1112, 3290677600, 0.6423916, 0.3604836, -0.43516013, 0.5177196, -0.78013533, -0.453891, -0.5664511, 0
1113, 3290694267, 0.6433687, 0.35956752, -0.43490633, 0.5173562, -0.83367896, -0.20589064, -0.12730598, 0
1115, 3290727601, 0.6461453, 0.35578978, -0.43222395, 0.51875395, -0.5775593, -0.96258885, 0.96452713, 0
1116, 3290744268, 0.6489192, 0.3506059, -0.43083885, 0.5199714, -1.4312062, -0.9624357, 0.4735756, 0
1118, 3290777602, 0.655621, 0.33925232, -0.42522857, 0.52370095, -0.89953613, -0.3418549, -0.34516716, 0
1119, 3290794269, 0.6583617, 0.33432603, -0.4213102, 0.52658975, -0.91845495, -0.9472542, -0.6689596, 0
1122, 3290844270, 0.67038316, 0.3101853, -0.4063783, 0.5378116, -0.86428976, -0.85573107, 0.37114048, 0
1123, 3290860937, 0.6762647, 0.29786724, -0.399881, 0.54226345, -1.6181508, -1.3713301, -1.1127014, 0
1126, 3290910938, 0.6960684, 0.25855514, -0.3735696, 0.5559647, 0.8665466, 1.1414179, -3.2303305, 0
1127, 3290927605, 0.7023466, 0.24405035, -0.36068362, 0.5630888, -0.38681066, 0.13549872, -5.357385, 0
1128, 3290944272, 0.70835805, 0.22964881, -0.34768495, 0.56975305, 0.52617306, 1.3527532, -6.590062, 0
1130, 3290977606, 0.71786326, 0.20408176, -0.32403833, 0.581408, 3.5130317, 4.934433, -3.792059, 0
1131, 3290994273, 0.72142345, 0.19390184, -0.3119905, 0.5870481, 4.871362, 5.299292, -1.1638308, 0
1135, 3291060941, 0.7156041, 0.17095384, -0.28125277, 0.6161133, 3.3799772, 1.6154149, 0.0457592, 0
1136, 3291077608, 0.71034104, 0.17190906, -0.2868037, 0.6193702, 3.2149026, -0.15912363, 2.1228037, 0
1138, 3291110942, 0.69990075, 0.17631072, -0.30368474, 0.6219663, -4.150644, -4.703465, 1.7978773, 0
1140, 3291144276, 0.69465137, 0.17869422, -0.30574664, 0.62614685, -1.2277055, -3.8609722, 6.0226984, 0
1142, 3291177610, 0.6865184, 0.1827595, -0.30846503, 0.6325771, 1.4912695, -0.70482594, 8.870735, 0
1143, 3291194277, 0.6862193, 0.18279386, -0.31059238, 0.63185036, 1.0546906, -1.1616383, 6.1105337, 0
1145, 3291227611, 0.6888351, 0.18455236, -0.31097537, 0.62829465, 0.8258415, -2.0087328, 4.188402, 0
1146, 3291244278, 0.68897164, 0.18717484, -0.31083935, 0.6274358, 0.8334134, -1.178799, 3.1165485, 0
1147, 3291260945, 0.6875177, 0.19039106, -0.30938116, 0.62878215, 1.2734019, -0.17517124, 2.261261, 0
1149, 3291294279, 0.6803126, 0.20031452, -0.3045774, 0.63584185, 1.7153279, 0.23203254, 0.92509747, 0
1150, 3291310946, 0.6753581, 0.20642668, -0.3034975, 0.6396732, 0.98496217, 0.7151003, 0.07184219, 0
1151, 3291327613, 0.67057186, 0.21271937, -0.30420744, 0.64230436, 0.084959954, 0.32809293, -0.9694214, 0
1153, 3291360947, 0.6628261, 0.22661245, -0.30637482, 0.6445587, -0.80982614, -0.024035968, -2.8042817, 0
1154, 3291377614, 0.65988564, 0.23229253, -0.30753905, 0.64499915, -0.905591, 1.7588689, -1.44629, 0
1157, 3291427615, 0.6489465, 0.2539703, -0.3132757, 0.6451658, -0.18840131, 1.163008, -1.5214405, 0
1158, 3291444282, 0.6458721, 0.26142874, -0.31431243, 0.64476746, 1.0039796, 0.5017433, -0.82135296, 0
1159, 3291460949, 0.64314735, 0.2683568, -0.31668544, 0.6434824, 1.1328678, -0.21982689, -0.02421093, 0
1161, 3291494283, 0.63841337, 0.2821561, -0.32453147, 0.63836426, -0.8351372, 0.933299, -1.7082682, 0
1162, 3291510950, 0.6346954, 0.28951192, -0.326701, 0.6376709, 0.07373893, 0.43967065, -1.4845257, 0
1163, 3291527617, 0.6304163, 0.2960491, -0.32844839, 0.6380165, 0.004582016, 1.0887927, 0.38431072, 0
1165, 3291560951, 0.62674755, 0.30858886, -0.3332013, 0.63320667, -0.35111696, 0.1023743, 0.27667332, 0
1166, 3291577618, 0.626336, 0.3131219, -0.33453324, 0.6306809, -0.5735662, 0.5223389, 0.43869114, 0
1167, 3291594285, 0.62491786, 0.31917402, -0.33554652, 0.62851197, -0.44487995, -0.48438957, -0.7545557, 0
1169, 3291627619, 0.6236831, 0.3269031, -0.3373365, 0.6247965, 0.0030936429, 0.42280516, 0.086013794, 0
1172, 3291677620, 0.6230485, 0.33672974, -0.34323648, 0.61694866, -0.49609685, -0.33051464, -0.8179064, 0
1173, 3291694287, 0.62356114, 0.34038028, -0.34607014, 0.61283064, -0.74230015, -0.716201, -1.5168571, 0
1174, 3291710954, 0.62548953, 0.34191447, -0.34794688, 0.6089365, -0.8165293, 0.15314773, -0.505929, 0
1176, 3291744288, 0.6290257, 0.34661308, -0.3515799, 0.6004921, -0.19873722, -0.41791245, 0.12068844, 0
1177, 3291760955, 0.6304597, 0.34937742, -0.3540706, 0.5959053, -0.037113663, -1.3803355, -1.060256, 0
1178, 3291777622, 0.63300127, 0.34975362, -0.35708508, 0.5911728, -0.30068573, -0.5866122, -0.026446342, 0
1180, 3291810956, 0.63748765, 0.35180694, -0.36358914, 0.5810828, -0.5926048, -0.82159275, -0.3740158, 0
1181, 3291827623, 0.6403729, 0.35200638, -0.36720172, 0.575491, -0.6855902, -0.55399865, -0.53802013, 0
1182, 3291844290, 0.64261603, 0.3530357, -0.37049308, 0.57022655, -0.56548464, -0.8551877, -0.9008312, 0
1184, 3291877624, 0.64852035, 0.35282826, -0.37789252, 0.55869853, -0.17403948, -1.1527388, -0.7440872, 0
1186, 3291910958, 0.6548849, 0.35074723, -0.3861662, 0.5468007, -0.10447286, -1.2704909, -1.0128517, 0
1188, 3291944292, 0.6609244, 0.34774184, -0.3929012, 0.53655976, 0.040858615, -1.2313749, -1.3703251, 0
1189, 3291960959, 0.66361856, 0.34646848, -0.3955543, 0.53209007, -0.08592665, -0.9647029, -1.0096359, 0
1190, 3291977626, 0.6658442, 0.34570462, -0.3979505, 0.52800405, 0.25169772, -1.7422382, -1.073309, 0
1192, 3292010960, 0.6699343, 0.3408821, -0.40472686, 0.5207654, -0.22101676, -1.1712681, -0.006937027, 0
1193, 3292027627, 0.67089295, 0.33821055, -0.4090811, 0.51786304, -0.45979488, -0.6802755, 0.28116322, 0
1194, 3292044294, 0.67087483, 0.33653945, -0.4124283, 0.51631814, 0.027574345, -0.5415063, 0.52305794, 0
1196, 3292077628, 0.66905457, 0.3346401, -0.41803235, 0.51540667, 0.8247995, -0.4195443, 0.7294302, 0
1197, 3292094295, 0.66765285, 0.33456868, -0.41993967, 0.5157201, 1.0849842, -0.7003013, 0.6144295, 0
1199, 3292127629, 0.6643088, 0.33497828, -0.424332, 0.5161772, 0.45556277, -0.35368186, 0.45330238, 0
1201, 3292160963, 0.6610339, 0.33602586, -0.42972296, 0.5152397, -0.601544, 0.19789569, 0.22787571, 0
1203, 3292194297, 0.65712917, 0.33857995, -0.43507195, 0.5140724, -0.7471895, -0.32983908, -0.52052593, 0
1204, 3292210964, 0.6551872, 0.3398353, -0.43783638, 0.5133752, -0.4384868, -0.46339622, -0.774765, 0
1205, 3292227631, 0.6534363, 0.3406352, -0.44125876, 0.512145, -0.22241394, -0.17754652, -0.80480385, 0
1207, 3292260965, 0.65162694, 0.34087926, -0.4477512, 0.508641, -0.04757071, 0.19817631, -0.3913498, 0
1208, 3292277632, 0.651232, 0.3406067, -0.45107585, 0.5063868, -0.09220826, 0.53595835, 0.01755619, 0
1209, 3292294299, 0.65108687, 0.3402588, -0.45407325, 0.50412345, -0.2161853, 0.52047664, 0.2669735, 0
1211, 3292327633, 0.65140456, 0.33932877, -0.45977867, 0.49914417, -0.06368152, 0.3403415, 0.25463772, 0
1212, 3292344300, 0.6513338, 0.338634, -0.46250406, 0.4971863, -0.01514792, 0.38250253, 0.4683981, 0
1213, 3292360967, 0.65095997, 0.3379001, -0.46502912, 0.4958181, 0.16082473, -0.024779428, 0.6168833, 0
1215, 3292394301, 0.6504655, 0.33516133, -0.46940035, 0.49420446, -0.12720704, -0.875938, 0.6092682, 0
1216, 3292410968, 0.65068007, 0.3329695, -0.47216335, 0.4927696, -0.633541, -0.5117072, 0.31836414, 0
1217, 3292427635, 0.65161735, 0.33044755, -0.47459352, 0.49089012, -0.9137625, -0.07836811, -0.13504219, 0
1219, 3292460969, 0.65394735, 0.32765082, -0.4771236, 0.48720008, -0.42026046, -0.43963042, -0.47585678, 0
1220, 3292477636, 0.65495795, 0.3272838, -0.4779774, 0.48524854, -0.14443004, -0.5538294, -0.48259258, 0
1221, 3292494303, 0.6555875, 0.32732373, -0.47866574, 0.4836906, 0.048062436, -0.49336484, -0.28549385, 0
1223, 3292527637, 0.65578085, 0.32697546, -0.47996813, 0.48237136, -0.0637374, 0.039069843, 0.7047472, 0
1224, 3292544304, 0.6561248, 0.3255481, -0.48020107, 0.48263717, -0.39011148, -0.04181324, 0.6427164, 0
1226, 3292577638, 0.65787625, 0.32119372, -0.47864112, 0.48471585, -0.7463345, -0.09489947, -0.09259319, 0
1228, 3292610972, 0.6598149, 0.31703293, -0.4757352, 0.4876715, -0.6263839, -0.5763342, -0.034366608, 0
1230, 3292644306, 0.6617311, 0.3127492, -0.47342652, 0.49008167, -0.13198932, -0.0643011, 0.074453354, 0
1231, 3292660973, 0.66291, 0.31085384, -0.4710061, 0.49202293, 0.85537606, -0.28885865, 0.14543915, 0
1232, 3292677640, 0.66408473, 0.30829632, -0.46737427, 0.49549896, 0.63914335, -0.2772459, 0.16746902, 0
1234, 3292710974, 0.6678717, 0.30031157, -0.45933872, 0.50277346, -1.4586234, -0.24734491, 0.631505, 0
1235, 3292727641, 0.67003506, 0.29488724, -0.45561934, 0.50647694, -0.70583534, -0.12773173, -0.48390865, 0
1238, 3292777642, 0.6783338, 0.279635, -0.4423405, 0.5157669, 0.45889983, -0.52837443, -0.7104902, 0
1239, 3292794309, 0.6798704, 0.2758729, -0.43534485, 0.5216882, -0.12534204, -0.35838592, 0.20730972, 0
1240, 3292810976, 0.6822753, 0.27094117, -0.42604426, 0.52876335, -0.27434605, -1.11828, 0.5624895, 0
1242, 3292844310, 0.6900349, 0.25805128, -0.40264785, 0.54327637, 0.274777, -1.4066392, -1.0388355, 0
1244, 3292877644, 0.69231725, 0.24775344, -0.37640283, 0.5636037, 0.9628395, 1.2738528, -1.2944202, 0
1246, 3292910978, 0.6911333, 0.23443225, -0.3521732, 0.58597255, -0.6119035, 2.7764556, -2.4077334, 0
1247, 3292927645, 0.69244206, 0.22630909, -0.34143296, 0.5939233, -1.4909427, 4.074023, -4.559894, 0
1248, 3292944312, 0.69674146, 0.21864256, -0.33052242, 0.59792536, -2.536745, 4.38872, -6.06683, 0
1250, 3292977646, 0.7085007, 0.2018584, -0.3112504, 0.60034674, -0.7063414, 3.5096304, -1.6491117, 0
1251, 3292994313, 0.71390593, 0.19389361, -0.3029362, 0.60082144, 2.399547, 4.23227, 2.0950537, 0
1253, 3293027647, 0.718605, 0.18492177, -0.29293406, 0.60300386, 4.9095325, 1.9728811, 2.7768269, 0
1254, 3293044314, 0.7144585, 0.18002905, -0.29394147, 0.60889256, 4.5856314, 0.07246234, 1.98349, 0
1255, 3293060981, 0.7122625, 0.17681415, -0.29862434, 0.61012745, 1.5039946, -2.067083, 0.9383421, 0
1257, 3293094315, 0.709939, 0.18152228, -0.3066051, 0.60748893, -0.68658733, -4.963485, 3.575327, 0
1259, 3293127649, 0.7066338, 0.19036247, -0.30847952, 0.60768783, -2.7421503, -1.7818148, 3.9269905, 0
1261, 3293160983, 0.70333576, 0.1937055, -0.30996886, 0.60969615, -0.21102305, -0.7688731, 3.796811, 0
1262, 3293177650, 0.70240086, 0.19682136, -0.30884507, 0.61034584, 0.6034316, -1.1905388, 2.8606262, 0
1263, 3293194317, 0.70101774, 0.20208314, -0.30651608, 0.61139, 1.0822089, -0.78263354, 1.9375658, 0
1265, 3293227651, 0.6965878, 0.21402909, -0.3036718, 0.6138024, 1.6421318, -1.2621676, 1.5579853, 0
1266, 3293244318, 0.69398326, 0.22062436, -0.30359593, 0.61445475, 0.6897228, -0.44880927, 0.3361721, 0
1267, 3293260985, 0.69038093, 0.22774878, -0.3036077, 0.6159061, -0.008952364, 0.033464696, -0.8061466, 0
1269, 3293294319, 0.6830414, 0.23941344, -0.3026606, 0.6201172, -0.62122875, -0.58568275, -0.40766716, 0
1270, 3293310986, 0.6769168, 0.24666303, -0.30210912, 0.6242471, -0.05626469, -1.3289292, -0.9628849, 0
1271, 3293327653, 0.6712149, 0.25244993, -0.30117115, 0.6285291, -0.9445498, 0.35655794, -1.072093, 0
1274, 3293377654, 0.65928453, 0.2701779, -0.29766276, 0.6354194, -0.22169535, 0.6188534, -1.0503998, 0
1275, 3293394321, 0.65673316, 0.27615136, -0.2974039, 0.6356148, 0.26205933, -0.19970894, -0.9327822, 0
1277, 3293427655, 0.65438074, 0.28672305, -0.29598388, 0.6340209, -0.83014077, 0.3005856, -0.7597971, 0
1278, 3293444322, 0.653301, 0.2921673, -0.2936786, 0.6337208, -0.966759, 0.68255216, -0.6942072, 0
1280, 3293477656, 0.6517692, 0.30164328, -0.29193634, 0.63166004, 0.12945178, 0.7249372, -1.3135777, 0
1281, 3293494323, 0.6505819, 0.3051664, -0.2933281, 0.630546, 0.019693727, 0.53976744, -1.5858183, 0
1282, 3293510990, 0.6499444, 0.307767, -0.2947991, 0.62925214, -0.2947394, 0.32722196, -1.1628876, 0
1284, 3293544324, 0.6478499, 0.31461278, -0.29392266, 0.6284361, -0.89550847, 0.30904844, 0.70641327, 0
1285, 3293560991, 0.6471283, 0.3177836, -0.29346615, 0.6277972, -0.6585179, 0.39048854, 0.542429, 0
1286, 3293577658, 0.64635384, 0.32062593, -0.29357147, 0.62710035, 0.20856039, 0.27488685, 0.32225418, 0
1288, 3293610992, 0.64726585, 0.32385492, -0.29510078, 0.6237737, -0.3118028, 0.6798611, 0.18400764, 0
1289, 3293627659, 0.6488395, 0.3256182, -0.2952834, 0.62112904, -0.6758976, 0.58482397, -0.21844482, 0
1290, 3293644326, 0.6500158, 0.32847536, -0.29443455, 0.61879295, -0.63265455, -0.15139247, -0.44907856, 0
1292, 3293677660, 0.65293354, 0.33358276, -0.29429442, 0.61302865, 0.20182635, -0.24480598, -0.72408104, 0
1293, 3293694327, 0.6541228, 0.33474904, -0.29667, 0.60997266, 0.24014679, 0.16839197, -0.764349, 0
1294, 3293710994, 0.6556687, 0.33457813, -0.30022377, 0.6066587, -0.52680016, 0.38598764, -0.120622635, 0
1296, 3293744328, 0.6588136, 0.33405304, -0.3048399, 0.60121465, -0.42222536, -0.559195, -0.63526154, 0
1297, 3293760995, 0.65946937, 0.33508414, -0.30412602, 0.60028285, 0.31191346, -0.12613831, -1.2406912, 0
1298, 3293777662, 0.66037977, 0.33631682, -0.30192354, 0.5997039, 0.67802006, -0.5338769, -0.45476818, 0
1301, 3293827663, 0.6614091, 0.3355123, -0.3014113, 0.59927773, 0.26462033, -0.28432512, 1.0828676, 0
1302, 3293844330, 0.66174227, 0.33477807, -0.3023036, 0.59887105, -0.4937495, -0.97935903, 1.0663824, 0
1304, 3293877664, 0.6634133, 0.33479342, -0.30345935, 0.5964241, -1.3565135, -0.5479609, -0.3294773, 0
1305, 3293894331, 0.66435325, 0.33530283, -0.30220413, 0.5957286, -0.34052244, -0.50254476, 0.64406395, 0
1307, 3293927665, 0.66748995, 0.33431837, -0.30128887, 0.5932338, 0.50587374, 0.38680995, 0.77564526, 0
1308, 3293944332, 0.6690707, 0.33300176, -0.3028561, 0.59139276, 0.41512614, -0.7010582, 1.483738, 0
1309, 3293960999, 0.6711262, 0.33116078, -0.30524802, 0.5888623, -0.27013317, 0.2752866, 0.7103653, 0
1311, 3293994333, 0.6749489, 0.32823968, -0.306365, 0.58553934, -0.09966979, -0.7389119, -0.08500481, 0
1312, 3294011000, 0.67639834, 0.32683498, -0.3068169, 0.58441484, 0.6126926, -0.55226475, -0.47515106, 0
1313, 3294027667, 0.67748946, 0.32581028, -0.3066054, 0.58383405, 1.5085601, -0.5052838, -0.7144871, 0
1316, 3294077668, 0.677456, 0.32407576, -0.30724347, 0.5845021, 1.5428954, -1.3287249, -0.8324051, 0
1317, 3294094335, 0.6761053, 0.32362515, -0.30926389, 0.5852499, 0.55027324, -1.7718931, -0.55510235, 0
1319, 3294127669, 0.67325836, 0.32264256, -0.31515402, 0.5859319, -1.1522895, -0.39912206, -0.8350401, 0
1320, 3294144336, 0.6720623, 0.32306135, -0.3166973, 0.5862421, -0.65899754, 0.19062571, -0.04840088, 0
1321, 3294161003, 0.6714622, 0.32377663, -0.31790692, 0.5858801, 0.19716525, 0.74990857, 0.803174, 0
1323, 3294194337, 0.67179555, 0.3232528, -0.32216486, 0.5834565, 0.28884223, -0.19963272, 0.7292862, 0
1324, 3294211004, 0.67273456, 0.3213637, -0.32547027, 0.5815806, -0.28436795, -0.037705854, -0.018161774, 0
1325, 3294227671, 0.67411315, 0.31959975, -0.3279636, 0.5795521, -1.0941608, -0.7991262, -0.020786285, 0
1327, 3294261005, 0.6772342, 0.31634736, -0.33343944, 0.5745515, -1.9084644, -1.0699949, -0.31821537, 0
1328, 3294277672, 0.67969143, 0.31425205, -0.3359514, 0.5713275, -1.2649841, -0.065227896, -0.6234379, 0
1331, 3294327673, 0.6866894, 0.30809015, -0.3477733, 0.5591107, 0.01796977, -0.3778215, -0.47292995, 0
1332, 3294344340, 0.6884992, 0.30603904, -0.35295025, 0.5547505, 0.42228615, -0.77122223, -0.9828434, 0
1334, 3294377674, 0.6915022, 0.30172613, -0.36390007, 0.54623795, 0.090353325, -1.2582468, -2.3580012, 0
1335, 3294394341, 0.6924644, 0.29934677, -0.36915246, 0.542793, -0.07198369, -1.3093983, -2.1919446, 0
1336, 3294411008, 0.6923011, 0.2980212, -0.37436342, 0.54015553, 0.32381105, -1.1430423, -2.0216384, 0
1338, 3294444342, 0.68986475, 0.29698208, -0.3822536, 0.53831565, 1.3117025, -1.7513438, -1.794344, 0
1339, 3294461009, 0.68878126, 0.2972751, -0.38428235, 0.5380969, 1.2437301, -2.409793, -1.3931971, 0
1340, 3294477676, 0.68755054, 0.29784045, -0.38698366, 0.53742164, 0.54094136, -2.394781, -0.6507082, 0
1342, 3294511010, 0.68408954, 0.29847828, -0.3951719, 0.5355227, -0.06383706, -0.41099745, -0.036209106, 0
1343, 3294527677, 0.68231505, 0.30004987, -0.3967974, 0.5357063, -0.4559052, 0.66579723, -8.621216E-4, 0
1346, 3294577678, 0.67914146, 0.31084055, -0.38401747, 0.5428525, 2.1919174, -2.7245588, 3.754898, 0
1347, 3294594345, 0.6771418, 0.3126761, -0.38176364, 0.5458774, 1.1118536, -1.3546784, 2.3956842, 0
1348, 3294611012, 0.67449206, 0.31316277, -0.3813495, 0.5491585, -0.5213046, 0.9234487, 2.1429644, 0
1350, 3294644346, 0.6723646, 0.31239235, -0.38131016, 0.5522251, -2.188632, 2.7665093, 0.124759674, 0
1351, 3294661013, 0.67465895, 0.31067586, -0.37935773, 0.5517397, -0.94935495, 2.208451, -0.12918472, 0
1352, 3294677680, 0.67760026, 0.3088267, -0.3768561, 0.55088717, 0.31169352, 0.89976, -0.17390919, 0
1354, 3294711014, 0.68250936, 0.3044466, -0.37429816, 0.5490056, 1.88303, -0.7594596, -0.54027176, 0
1355, 3294727681, 0.68390906, 0.30195367, -0.37380838, 0.54897416, 1.783527, -0.81022537, -0.30881977, 0
1356, 3294744348, 0.6850466, 0.29956648, -0.37369716, 0.5489394, 1.2274907, -0.22638029, -0.21436691, 0
1358, 3294777682, 0.68641645, 0.29557878, -0.3719868, 0.5505495, 0.30381724, 0.12642318, -0.8949833, 0
1359, 3294794349, 0.6881032, 0.29258358, -0.3720581, 0.54999524, -0.72046316, 0.4052661, -1.4757967, 0
1361, 3294827683, 0.6929739, 0.28911793, -0.36984822, 0.5471961, -0.59735334, -0.004734675, -1.6469564, 0
1362, 3294844350, 0.6954026, 0.28900835, -0.36694223, 0.54612803, 0.28770208, -0.80304146, -1.2775984, 0
1363, 3294861017, 0.6976862, 0.28911042, -0.3636208, 0.5453826, 0.8049971, -1.366814, -0.48159122, 0
1365, 3294894351, 0.7006792, 0.2875625, -0.3579024, 0.5461461, 0.42882144, -2.4140744, -0.8947964, 0
1366, 3294911018, 0.70095, 0.28689092, -0.35648954, 0.547075, 0.007506906, -1.7386167, -1.7193327, 0
1367, 3294927685, 0.70124197, 0.2856838, -0.3554212, 0.5480269, -1.3809243, -0.008239134, -1.1682882, 0
1369, 3294961019, 0.70466727, 0.28600088, -0.34689283, 0.54893166, -1.0967287, -0.96490544, -0.90431976, 0
1370, 3294977686, 0.7076581, 0.2846551, -0.34067777, 0.54967576, -0.8329653, -1.9836614, -1.2368488, 0
1373, 3295027687, 0.715376, 0.27889705, -0.32302535, 0.55328226, -1.1909009, -0.58958906, -3.7516189, 0
1374, 3295044354, 0.7178429, 0.2770205, -0.31595832, 0.5551079, -0.41961014, -0.21859103, -4.6884623, 0
1375, 3295061021, 0.7208936, 0.27433014, -0.30569464, 0.5582289, 0.57971233, -0.9827355, -5.3087263, 0
1377, 3295094355, 0.72923183, 0.26227584, -0.28558403, 0.5638149, 0.21874374, -1.2472318, -5.2339473, 0
1378, 3295111022, 0.7352256, 0.25779852, -0.2760132, 0.5628617, 1.3759873, 0.6946772, -3.9562917, 0
1379, 3295127689, 0.74119735, 0.2580709, -0.26245224, 0.56138915, 5.3680983, 5.950394, -0.7707386, 0
1381, 3295161023, 0.74707955, 0.25673708, -0.23675562, 0.56561303, 6.9743843, 3.8299732, 1.154953, 0
1382, 3295177690, 0.7490602, 0.25400162, -0.22562009, 0.5687711, 5.699531, 5.01013, 3.9721384, 0
1383, 3295194357, 0.7515004, 0.25057772, -0.21654132, 0.57059705, 5.03551, 6.700081, 5.4772406, 0
1385, 3295227691, 0.75652224, 0.2524853, -0.20205958, 0.5684278, 6.615297, 5.730717, 7.431278, 0
1387, 3295261025, 0.75306606, 0.25596493, -0.18943256, 0.575762, -4.1105294, 1.3468162, 7.7218895, 0
1389, 3295294359, 0.743744, 0.25811976, -0.18231393, 0.5890616, -9.908855, -5.2637916, 6.1560316, 0
1390, 3295311026, 0.74061525, 0.25420246, -0.17878231, 0.595752, -5.80326, -5.390329, 4.0152607, 0
1392, 3295344360, 0.74035025, 0.2480795, -0.16806398, 0.6017524, 2.2957816, 2.0352175, 4.1591444, 0
1393, 3295361027, 0.7399347, 0.24204016, -0.16623339, 0.6052211, -0.3472115, 3.913486, 3.1714745, 0
1394, 3295377694, 0.739448, 0.23726942, -0.16583002, 0.6078104, -2.5484486, 4.3314276, 2.0250397, 0
1396, 3295411028, 0.73707694, 0.23691022, -0.17048773, 0.6095395, -1.2031426, 0.26582542, 0.8738308, 0
1397, 3295427695, 0.7391488, 0.23580186, -0.1739647, 0.60646987, -1.6466601, 0.19886507, 0.24107361, 0
1398, 3295444362, 0.74108434, 0.23698288, -0.17645879, 0.60291666, -0.23362043, 0.65929246, 1.2127495, 0
1400, 3295477696, 0.7432328, 0.23483351, -0.1867306, 0.59799916, -0.8983643, -0.99161065, -0.7245159, 0
1402, 3295511030, 0.7427774, 0.23034385, -0.2020255, 0.5953336, -0.3263999, -1.0571404, -2.5839615, 0
1404, 3295544364, 0.7397357, 0.2264425, -0.22014931, 0.59419024, -0.27774814, -0.568823, -3.2959704, 0
1405, 3295561031, 0.73833203, 0.22506714, -0.22930804, 0.5929936, -0.7267454, 0.08070863, -2.9878616, 0
1406, 3295577698, 0.73709226, 0.22442251, -0.23856285, 0.5911264, -0.67681766, 0.21426968, -2.8765182, 0
1408, 3295611032, 0.7347683, 0.22484127, -0.25648558, 0.5863362, 1.3541613, -0.74943006, -2.465961, 0
1409, 3295627699, 0.73476183, 0.22503647, -0.26660213, 0.5817389, 0.2760975, -0.74187636, -2.5529952, 0
1410, 3295644366, 0.7339057, 0.22613537, -0.27435115, 0.57878304, 1.510779, 0.17482524, -1.6744165, 0
1412, 3295677700, 0.728416, 0.23144834, -0.29134503, 0.57530236, -0.11796567, -0.91102195, -2.00815, 0
1413, 3295694367, 0.72422016, 0.23448895, -0.29960677, 0.57512516, -0.06505278, -1.0507023, -1.6306095, 0
1415, 3295727701, 0.71690875, 0.23761788, -0.31602037, 0.57421595, -0.22796892, -0.5511721, -1.1961861, 0
1417, 3295761035, 0.7113906, 0.24137625, -0.32913366, 0.5721408, -0.4329428, 0.16399637, -0.13367176, 0
1419, 3295794369, 0.70520717, 0.24900743, -0.33766437, 0.5715542, -0.11892789, -0.78274184, 0.23997402, 0
1420, 3295811036, 0.70190257, 0.251991, -0.34330297, 0.570955, -0.47791228, -0.6815833, -0.06722927, 0
1421, 3295827703, 0.69863015, 0.25430796, -0.3493155, 0.570294, -1.0915841, -0.41812077, -0.23649979, 0
1423, 3295861037, 0.6914955, 0.25873256, -0.35841268, 0.57135385, -1.2929221, 0.17097478, -0.20259857, 0
1424, 3295877704, 0.6874224, 0.26156512, -0.36101604, 0.57333666, -0.76694876, -0.4070556, 0.071928024, 0
1425, 3295894371, 0.6839952, 0.26370066, -0.36417523, 0.574458, -0.46474916, -0.6021276, 0.21108341, 0
1427, 3295927705, 0.6804636, 0.26655436, -0.3737338, 0.5711869, -0.99687135, -0.015277446, -0.09003258, 0
1428, 3295944372, 0.6790809, 0.26790437, -0.37811598, 0.5693134, -0.033285998, -0.11825221, 0.17532253, 0
1429, 3295961039, 0.6776501, 0.26829034, -0.38286135, 0.5676628, -0.47270665, 0.30187884, -0.22638702, 0
1431, 3295994373, 0.67552555, 0.26931927, -0.3886317, 0.5657832, -0.64292717, 0.47609422, -0.3382597, 0
1432, 3296011040, 0.67464036, 0.26978564, -0.39048523, 0.565341, -0.4624302, -0.03464909, -0.22566986, 0
1433, 3296027707, 0.67349136, 0.26993442, -0.3926359, 0.5651503, -0.24733743, -0.041972827, 0.011390686, 0
1435, 3296061041, 0.6696652, 0.27132562, -0.3975933, 0.5655648, 0.2586121, -0.39307833, -0.090488434, 0
1436, 3296077708, 0.66761446, 0.27242383, -0.3995059, 0.5661133, 0.12597257, -0.45191145, -0.020076752, 0
1437, 3296094375, 0.6656123, 0.2737267, -0.40062904, 0.56704795, 0.07439495, -0.37832406, -0.027570724, 0
1439, 3296127709, 0.66249275, 0.27527717, -0.40200478, 0.5689738, -0.30272147, -0.16286138, 0.08962536, 0
1440, 3296144376, 0.660632, 0.2768365, -0.40222362, 0.5702245, -0.38059586, 0.120139554, -0.0917511, 0
1442, 3296177710, 0.6563661, 0.2805883, -0.4006677, 0.57439727, -0.024986066, -0.20109136, 0.17084503, 0
1444, 3296211044, 0.6544211, 0.28164846, -0.39994144, 0.57659984, -0.94066256, -0.30677867, -0.17312527, 0
1446, 3296244378, 0.65464103, 0.28100985, -0.4021582, 0.5751178, -1.273382, 0.19471778, -0.7603798, 0
1447, 3296261045, 0.6545553, 0.28193218, -0.4027576, 0.574344, -0.8661158, 0.45187536, -0.934309, 0
1448, 3296277712, 0.65464103, 0.28309298, -0.40312985, 0.57341355, -0.30501315, 0.1277125, -0.2835188, 0
1450, 3296311046, 0.65507823, 0.28479403, -0.40470007, 0.57096064, 0.39487675, 0.2167033, 1.003622, 0
1451, 3296327713, 0.6552056, 0.28515825, -0.40572855, 0.56990147, 0.21151926, 0.1921874, 1.0577021, 0
1452, 3296344380, 0.6551538, 0.28544423, -0.4063633, 0.5693653, 0.11420506, 0.09732536, 0.63945675, 0
1454, 3296377714, 0.65520906, 0.28495783, -0.40669298, 0.5693103, 0.07174185, 0.102658495, -0.042131424, 0
1455, 3296394381, 0.65516484, 0.28411686, -0.4066907, 0.5697827, -0.013242472, 0.23002802, -0.017716408, 0
1456, 3296411048, 0.6548915, 0.2833059, -0.40651667, 0.5706242, -0.18158238, 0.12384171, 0.08282757, 0
1459, 3296461049, 0.65334076, 0.2825304, -0.40455988, 0.5741662, -0.0401921, -0.37344936, -0.40738964, 0
1460, 3296477716, 0.6528924, 0.2828117, -0.40286726, 0.57572556, 0.27048644, -0.6736626, -0.3742695, 0
1462, 3296511050, 0.6532792, 0.28157344, -0.40101737, 0.57718354, -0.5190172, -0.012990462, -0.16513157, 0
1463, 3296527717, 0.6540561, 0.28065178, -0.40077323, 0.5769223, -0.8747794, 0.17540325, -0.22811317, 0
1464, 3296544384, 0.65525794, 0.27961737, -0.40059677, 0.57618296, -0.9102234, 0.18224844, -0.24578571, 0
1466, 3296577718, 0.65789527, 0.27808648, -0.39934123, 0.57478833, -0.12938651, -0.09794964, -0.055909157, 0
1467, 3296594385, 0.659426, 0.27709967, -0.39840856, 0.5741577, -0.16884236, -0.2982309, 0.21237373, 0
1469, 3296627719, 0.66250503, 0.2757111, -0.39489323, 0.57370985, 0.031996105, -0.6106403, -0.13574314, 0
1470, 3296644386, 0.663792, 0.27494332, -0.39264137, 0.574136, -0.1296831, -0.70659167, -0.16529083, 0
1471, 3296661053, 0.66504127, 0.27387908, -0.39039713, 0.5747293, -0.18144648, -0.33179906, -0.07487965, 0
1474, 3296711054, 0.6683201, 0.26973498, -0.38279894, 0.5779873, -1.0823003, -0.4016841, -0.4133606, 0
1475, 3296727721, 0.66941375, 0.26908043, -0.37945092, 0.57923335, -0.5904166, -0.48195317, -0.7055359, 0
1477, 3296761055, 0.67188746, 0.2675972, -0.37235147, 0.58165866, 0.22014059, -0.5606775, -1.049984, 0
1478, 3296777722, 0.674279, 0.26546815, -0.36882997, 0.58211005, -0.08289671, -0.054845273, -0.593894, 0
1479, 3296794389, 0.6777809, 0.26309136, -0.36375666, 0.58231443, -0.65602887, 0.14664406, -0.48552036, 0
1481, 3296827723, 0.6851649, 0.2585424, -0.346859, 0.5860093, -0.591616, -0.69032073, -1.6900864, 0
1482, 3296844390, 0.6885231, 0.25668836, -0.3355099, 0.58948576, 0.57857734, -0.38344598, -2.9888673, 0
1483, 3296861057, 0.69151413, 0.25425583, -0.322959, 0.5940311, 0.8147143, -0.42464083, -3.8745594, 0
1485, 3296894391, 0.69493043, 0.2486392, -0.30045354, 0.6041449, 2.5719118, -0.46911755, -6.2708797, 0
1486, 3296911058, 0.6952751, 0.24628057, -0.29078236, 0.60942364, 2.2276425, -0.40347686, -7.4707565, 0
1489, 3296961059, 0.6929539, 0.2602325, -0.2578767, 0.62097245, 6.619846, 3.6114473, -0.41516876, 0
1490, 3296977726, 0.696825, 0.26603472, -0.24457328, 0.61956245, 4.591156, 7.6747694, 7.535139, 0
1491, 3296994393, 0.6981353, 0.26610687, -0.23643649, 0.6212125, 2.837945, 7.206184, 7.0277863, 0
1493, 3297027727, 0.70361567, 0.2589232, -0.22524546, 0.6222229, -5.3433027, 6.492091, 6.0137215, 0
1496, 3297077728, 0.70345026, 0.2712592, -0.20823076, 0.62308043, -4.0738087, -6.802831, 1.5813818, 0
1497, 3297094395, 0.7052281, 0.26923782, -0.20731518, 0.62225246, -4.542886, -6.9576035, 0.5865507, 0
1498, 3297111062, 0.7078894, 0.2665249, -0.20555022, 0.6209826, 0.40978104, -2.9355803, 4.2619934, 0
1500, 3297144396, 0.70905393, 0.26720533, -0.19957533, 0.62131035, 1.9705322, 2.0517693, 7.1611557, 0
1501, 3297161063, 0.707128, 0.2657647, -0.19772516, 0.6247057, -1.7008564, 1.4199834, 6.304249, 0
1502, 3297177730, 0.7051833, 0.26355273, -0.19674581, 0.6281406, -2.5170124, 2.3861535, 5.013176, 0
1504, 3297211064, 0.70175904, 0.26029247, -0.19597575, 0.6335523, -2.0201378, 0.7538683, 1.2789536, 0
1505, 3297227731, 0.70086324, 0.2588267, -0.19711538, 0.63478965, -1.5313765, 0.12512825, -0.5631752, 0
1506, 3297244398, 0.7004059, 0.25760233, -0.19849041, 0.6353637, -0.95202124, -0.086999625, -1.3322678, 0
1508, 3297277732, 0.7000306, 0.25642568, -0.20425263, 0.63442653, -0.32975638, -0.6145296, -2.168972, 0
1509, 3297294399, 0.6996248, 0.25646707, -0.20872907, 0.63339967, 0.12495212, -0.818659, -2.378934, 0
1510, 3297311066, 0.6989653, 0.25682172, -0.21348327, 0.63239884, 0.22709721, -1.0466464, -2.071371, 0
1512, 3297344400, 0.69550365, 0.25745416, -0.22458136, 0.63211405, 0.20657682, -0.32508898, -1.8494253, 0
1513, 3297361067, 0.69256693, 0.25761092, -0.23163071, 0.6327305, -0.05887465, -0.18030377, -1.9276114, 0
1514, 3297377734, 0.68914044, 0.25757557, -0.2394696, 0.6335674, -0.5421812, -0.27484974, -1.7366562, 0
1517, 3297427735, 0.6796903, 0.25948656, -0.26118928, 0.6344142, -0.8262437, -0.8834833, -1.2997046, 0
1518, 3297444402, 0.67797554, 0.26051533, -0.2683554, 0.6328343, -0.9131582, -1.0518305, -1.3481293, 0
1520, 3297477736, 0.67494076, 0.2651741, -0.28088582, 0.6286921, -0.4881105, -0.36296213, -0.9931145, 0
1521, 3297494403, 0.6732344, 0.26943812, -0.28619048, 0.626312, -0.2053456, -0.2958441, -0.6124811, 0
1523, 3297527737, 0.66957235, 0.27730817, -0.29631168, 0.62208176, 0.3789466, -1.0080218, -0.61793613, 0
1524, 3297544404, 0.6684773, 0.2800173, -0.3016462, 0.6194766, 0.1465085, -0.79795736, -0.40131092, 0
1525, 3297561071, 0.6673407, 0.2824902, -0.30638552, 0.61724937, 0.48010293, -0.5529418, -0.7261238, 0
1527, 3297594405, 0.662918, 0.28800255, -0.31439728, 0.6154362, 0.50522554, 0.47144648, -0.4871149, 0
1528, 3297611072, 0.66036963, 0.29110205, -0.31844705, 0.614635, -0.47991607, 0.5813675, -0.3594675, 0
1529, 3297627739, 0.65626895, 0.29531327, -0.32093415, 0.61572367, 1.361619, -0.13608006, -0.24167538, 0
1532, 3297677740, 0.64332885, 0.3043869, -0.3319025, 0.61913687, 0.0025641406, -0.91369736, -1.0469561, 0
1533, 3297694407, 0.63888806, 0.30820924, -0.33450848, 0.62044024, 0.03795496, -1.1827787, -1.1431332, 0
1535, 3297727741, 0.63116425, 0.31552774, -0.33942306, 0.6219958, 0.05047079, -0.72692716, -0.4954586, 0
1536, 3297744408, 0.62817454, 0.31893775, -0.34154525, 0.6221217, -0.34568378, -0.30130005, -0.15632725, 0
1537, 3297761075, 0.62540007, 0.3222237, -0.3447484, 0.6214566, -0.853288, 0.21515837, -0.33708763, 0
1539, 3297794409, 0.61962956, 0.32963294, -0.35192907, 0.6193226, -0.7582856, 0.6619756, -0.27791882, 0
1540, 3297811076, 0.6174808, 0.33278057, -0.35483596, 0.6181256, -0.82945037, 0.07220108, -0.1656313, 0
1541, 3297827743, 0.6158225, 0.33578163, -0.356623, 0.61712754, -0.12106781, -0.8117331, 0.039274216, 0
1543, 3297861077, 0.6154527, 0.34067222, -0.36120084, 0.61213344, 0.08845749, -0.31329522, 0.3185997, 0
1544, 3297877744, 0.6160444, 0.34294796, -0.3639833, 0.6086093, -0.03794982, 0.6226115, 0.62523174, 0
1547, 3297927745, 0.6164784, 0.35059512, -0.3696366, 0.60034955, 0.74404514, -0.36927536, 0.47443485, 0
1548, 3297944412, 0.6161372, 0.35290238, -0.37044236, 0.59884924, 0.85849404, -0.9533561, 0.3360014, 0
1550, 3297977746, 0.61539555, 0.35504472, -0.3750715, 0.59545445, -0.23144431, -0.7412031, 0.3004961, 0
1551, 3297994413, 0.6163128, 0.35397452, -0.37986818, 0.5920927, -0.6137355, -0.08244655, 0.10338116, 0
1552, 3298011080, 0.6178223, 0.35255414, -0.38436714, 0.5884524, -1.1536444, 0.48795807, 0.030460358, 0
1554, 3298044414, 0.6224145, 0.34985787, -0.39039183, 0.58121157, -0.58670205, -0.038174223, -0.25612545, 0
1555, 3298061081, 0.6250535, 0.34806612, -0.39267105, 0.5779105, -0.0031993645, -0.7355142, -0.12917614, 0
1556, 3298077748, 0.62782717, 0.34589326, -0.39545366, 0.5742998, 0.40235126, -0.8838697, 0.34118176, 0
1558, 3298111082, 0.63260376, 0.34211072, -0.40205398, 0.5666907, 0.6913821, -1.0196611, 0.56455994, 0
1559, 3298127749, 0.635008, 0.33937752, -0.40559596, 0.5631099, 0.8924727, -0.48015344, 0.12679482, 0
1562, 3298177750, 0.637542, 0.3335179, -0.4078906, 0.56208944, 1.2930146, -1.199269, -0.36210155, 0
1563, 3298194417, 0.63655317, 0.33298346, -0.4073181, 0.5639388, 1.5508058, -1.4801652, -0.18063354, 0
1564, 3298211084, 0.63519174, 0.3330717, -0.4072072, 0.5654997, 1.2870426, -1.4392786, -0.13666725, 0
1566, 3298244418, 0.63204145, 0.33429557, -0.4079069, 0.5677985, -0.19671173, -0.24699791, -0.115449905, 0
1567, 3298261085, 0.63134015, 0.3346064, -0.40804714, 0.5682945, -0.9250039, 0.2549354, 0.046110153, 0
1568, 3298277752, 0.63130325, 0.33450544, -0.408227, 0.56826603, -1.2063452, 0.5401349, 0.16249561, 0
1570, 3298311086, 0.6335764, 0.33188763, -0.40893242, 0.566762, -0.6477799, 0.22067758, 0.26604176, 0
1571, 3298327753, 0.6354723, 0.32988015, -0.40992114, 0.5650947, -0.41485503, -0.24902126, 0.27295208, 0
1572, 3298344420, 0.6375431, 0.32738057, -0.41136846, 0.5631605, -0.2505397, -0.14395955, 0.025109291, 0
1574, 3298377754, 0.6406785, 0.32257336, -0.41328797, 0.56096685, 0.31458578, -0.41038924, -0.08741665, 0
1575, 3298394421, 0.64163023, 0.32036597, -0.41383898, 0.56073767, 0.53396887, -0.6351373, 0.19691181, 0
1577, 3298427755, 0.6436533, 0.31543708, -0.4156932, 0.5598411, 0.19514515, -0.4677943, 0.4333868, 0
1578, 3298444422, 0.6446604, 0.3134178, -0.4167058, 0.559063, -0.14505388, -0.6134206, 0.046135902, 0
1579, 3298461089, 0.64558744, 0.31169865, -0.41778037, 0.55815184, -0.41486084, -0.55119646, -0.5286608, 0
1582, 3298511090, 0.64725846, 0.3070695, -0.42014498, 0.5570065, -0.30376238, -0.38886014, -0.40279675, 0
1583, 3298527757, 0.64773756, 0.30492604, -0.42132616, 0.55673504, -0.29624185, -0.60425454, -0.30504704, 0
1585, 3298561091, 0.6495611, 0.29982227, -0.4232065, 0.5559553, -0.3394784, -0.65564185, -0.24205208, 0
1586, 3298577758, 0.6502565, 0.29799798, -0.42349473, 0.5559036, -0.20573004, -0.9758804, -0.1810627, 0
1587, 3298594425, 0.65099216, 0.2960021, -0.4237134, 0.55594254, -0.22862872, -0.7584708, -0.06858921, 0
1590, 3298644426, 0.6556351, 0.29019117, -0.41648102, 0.55900663, -0.012403181, -1.2519065, 0.10207558, 0
1591, 3298661093, 0.65779316, 0.2878756, -0.41222423, 0.5608208, -0.28748348, -1.4643322, -0.04008007, 0
1593, 3298694427, 0.66364074, 0.28473592, -0.40198985, 0.56295985, -0.26307118, -1.28925, -0.8416128, 0
1594, 3298711094, 0.66709185, 0.2818051, -0.395943, 0.5646387, -0.71682703, -0.60853785, -0.9362354, 0
1595, 3298727761, 0.67051077, 0.27763736, -0.3888924, 0.567546, -0.78085345, 0.13453367, -0.84695816, 0
1597, 3298761095, 0.6781447, 0.26795197, -0.3716197, 0.57465935, -1.8607208, -0.01849011, -2.4121647, 0
1598, 3298777762, 0.6821208, 0.2643305, -0.35894397, 0.579666, -0.47726566, 0.043590277, -2.3497663, 0
1599, 3298794429, 0.6856921, 0.260863, -0.34472007, 0.5856261, 0.73756415, -0.224136, -3.6820698, 0
1601, 3298827763, 0.69113135, 0.24711956, -0.3201693, 0.59897745, 1.3775387, -0.47114977, -5.39565, 0
1602, 3298844430, 0.6936121, 0.23807602, -0.31149113, 0.6043247, 1.4975986, 0.25146028, -6.2707624, 0
1605, 3298894431, 0.69692093, 0.23571295, -0.2758564, 0.61859274, 5.3539915, 0.44706172, -2.7811027, 0
1606, 3298911098, 0.6989281, 0.2430219, -0.26014543, 0.6203042, 7.5115137, 3.1148822, 2.4597225, 0
1608, 3298944432, 0.70223147, 0.24843745, -0.23522708, 0.62436455, 3.9937572, 9.096285, 9.808968, 0
1609, 3298961099, 0.7017899, 0.24487194, -0.23170581, 0.6275781, -0.19455238, 11.763375, 10.531267, 0
1610, 3298977766, 0.7055012, 0.24285495, -0.22885178, 0.6252437, -3.825678, 9.634124, 6.7796326, 0
1612, 3299011100, 0.7018752, 0.24893896, -0.21555421, 0.6316249, -1.3191721, 1.1799873, 5.274884, 0
1613, 3299027767, 0.6990972, 0.2531956, -0.21600997, 0.63285685, -4.093306, -4.2661014, 2.7194805, 0
1614, 3299044434, 0.6977792, 0.25542998, -0.21837583, 0.6326016, -8.095034, -7.085186, 1.253747, 0
1616, 3299077768, 0.7018136, 0.25606146, -0.22035813, 0.62717277, 0.15126798, 0.032299858, 4.3356514, 0
1617, 3299094435, 0.7039533, 0.2585629, -0.22071657, 0.6236122, 3.215279, 1.5034163, 5.3701315, 0
1620, 3299144436, 0.7009921, 0.25867108, -0.22268414, 0.6261983, -1.200443, 1.6454014, 2.537405, 0
1621, 3299161103, 0.6983782, 0.25735766, -0.22457755, 0.62897784, -1.319889, 2.1563911, 1.923583, 0
1622, 3299177770, 0.6952112, 0.25688446, -0.22710106, 0.6317674, -1.6269494, 1.3183953, 0.57708836, 0
1624, 3299211104, 0.6890297, 0.25748572, -0.23163731, 0.6366289, -0.9121912, 0.44490018, -0.77386, 0
1625, 3299227771, 0.68653166, 0.25770426, -0.23525956, 0.63790965, -1.2957634, -0.66451395, -2.5733624, 0
1626, 3299244438, 0.68452436, 0.25720087, -0.24012023, 0.6384586, -1.385409, -0.8990308, -3.0331955, 0
1628, 3299277772, 0.6809033, 0.25497332, -0.2504864, 0.63924104, -0.9495257, -0.09709112, -3.035756, 0
1629, 3299294439, 0.6795222, 0.25391024, -0.2566033, 0.6387072, -0.72944814, 0.36877468, -2.6222267, 0
1631, 3299327773, 0.6767125, 0.2532694, -0.27060172, 0.6361624, -1.4734178, 0.10032714, -2.2599277, 0
1632, 3299344440, 0.6747844, 0.25453523, -0.27597952, 0.63539475, -0.49981475, -0.38532087, -2.3064013, 0
1635, 3299394441, 0.6687244, 0.25974518, -0.29651156, 0.63042367, 0.16678493, -1.1111516, -1.2437496, 0
1636, 3299411108, 0.66697454, 0.26271057, -0.30319023, 0.627867, 0.09788191, -0.9293287, -1.464036, 0
1637, 3299427775, 0.6643754, 0.26564547, -0.30947155, 0.62632126, 0.015519845, -1.1215621, -1.1720133, 0
1639, 3299461109, 0.6574569, 0.27251816, -0.31859565, 0.62609446, -0.7090087, -0.99391663, -0.32642174, 0
1640, 3299477776, 0.6539909, 0.27718368, -0.32249403, 0.6256803, -0.5109316, -0.9626105, -0.09983635, 0
1641, 3299494443, 0.6502536, 0.2822071, -0.32670128, 0.6251469, -0.5427753, -1.2035495, -0.29461002, 0
1643, 3299527777, 0.64225805, 0.2901935, -0.33537993, 0.62516063, -0.15619041, -1.0025008, -0.5127716, 0
1644, 3299544444, 0.6380808, 0.29425162, -0.33846268, 0.62587947, -0.029572105, -0.9628471, -0.15165997, 0
1645, 3299561111, 0.63396645, 0.29781735, -0.34231135, 0.62628067, -0.59825253, -0.53473943, -0.24436188, 0
1647, 3299594445, 0.6254049, 0.30598027, -0.34871092, 0.6274221, 0.5045418, -0.96565956, -0.18781853, 0
1648, 3299611112, 0.6211837, 0.31078947, -0.35183126, 0.62750995, 0.5241989, -0.8744358, -0.1866188, 0
1649, 3299627779, 0.617685, 0.31484702, -0.35557583, 0.62682986, 0.35185453, -0.21287799, -0.47239304, 0
1651, 3299661113, 0.6107471, 0.32243305, -0.36206055, 0.62605935, 0.19508614, -0.092503294, -0.52653694, 0
1652, 3299677780, 0.60803986, 0.32568604, -0.3638815, 0.62595475, -0.10720866, -0.1638445, -0.051695824, 0
1653, 3299694447, 0.60620666, 0.32891446, -0.36605442, 0.6247766, -0.6574888, 0.23069957, 0.39593124, 0
1655, 3299727781, 0.60250133, 0.33565587, -0.37088323, 0.62192124, -0.17874242, 1.0890799, 0.53792, 0
1656, 3299744448, 0.6011443, 0.33798543, -0.3727063, 0.62088186, -0.10440558, 0.842363, 0.48437214, 0
1658, 3299777782, 0.5998612, 0.34216583, -0.3727852, 0.6197851, 0.44015914, -0.27315798, 0.683321, 0
1659, 3299794449, 0.60002834, 0.34311914, -0.3727573, 0.61911255, 0.28698146, -0.328957, 0.6358757, 0
1662, 3299844450, 0.6023375, 0.3436067, -0.37430644, 0.6156556, 0.043418285, -0.19115834, -0.2870531, 0
1663, 3299861117, 0.60332525, 0.34389254, -0.37559432, 0.6137415, -0.15868592, -0.07698982, -0.58790874, 0
1664, 3299877784, 0.6047499, 0.34364882, -0.376881, 0.61168367, 0.034655012, -0.13087767, -0.82973385, 0
1666, 3299911118, 0.6076676, 0.34372705, -0.37828904, 0.6078669, 0.05091111, -0.080248415, -0.21963978, 0
1667, 3299927785, 0.6094969, 0.34315816, -0.37888154, 0.6059849, 0.10720084, -0.041488476, 0.12126446, 0
1668, 3299944452, 0.6113551, 0.34237275, -0.37964618, 0.6040758, 0.21756081, -0.057288494, 0.34086418, 0
1670, 3299977786, 0.61468893, 0.34094062, -0.38127026, 0.60046905, 0.11974125, -0.2706124, -0.10416508, 0
1671, 3299994453, 0.61613286, 0.34074926, -0.38157895, 0.59889984, 0.82681084, -0.5574005, -0.12089348, 0
1672, 3300011120, 0.6176847, 0.3405836, -0.3821993, 0.5969969, 0.3734903, -0.22452663, -0.14229774, 0
1674, 3300044454, 0.62137437, 0.33993292, -0.38284868, 0.59310985, 0.08415554, -0.37189528, 0.22255707, 0
1676, 3300077788, 0.6259948, 0.33894086, -0.3839575, 0.5880811, -0.029331382, -0.27514657, 0.35938072, 0
1678, 3300111122, 0.63038695, 0.33704358, -0.38608775, 0.58306366, 0.3027226, -0.3841771, 0.29507542, 0
1680, 3300144456, 0.63348114, 0.3348677, -0.38971257, 0.57853466, 0.27403292, -0.51216674, 0.16283417, 0
1682, 3300177790, 0.6357077, 0.3335279, -0.39321497, 0.57448244, 0.4632409, -0.839405, 0.044444084, 0
1683, 3300194457, 0.6366168, 0.3333655, -0.39495993, 0.57236904, 0.44600445, -0.7316214, -0.12565327, 0
1685, 3300227791, 0.63852733, 0.3328887, -0.3979647, 0.56842357, 0.20701145, -0.5217406, -0.18013859, 0
1686, 3300244458, 0.639792, 0.3320967, -0.39958072, 0.566327, 0.1153832, -0.35558018, -0.20044231, 0
1687, 3300261125, 0.6412118, 0.33099073, -0.40130496, 0.5641453, 0.13007449, -0.39067182, -0.2587452, 0
1689, 3300294459, 0.6442853, 0.32792336, -0.40540397, 0.559485, -0.05150722, -0.6284498, -0.30070496, 0
1690, 3300311126, 0.64554536, 0.32654598, -0.40770665, 0.55716026, -0.08530349, -0.7384723, -0.40681648, 0
1693, 3300361127, 0.64851636, 0.32343367, -0.41297263, 0.55161935, 0.29579303, -0.6424758, 0.32913876, 0
1694, 3300377794, 0.64938325, 0.32245064, -0.41568157, 0.5491348, 0.47702536, -0.69519156, 0.8962488, 0
1695, 3300394461, 0.65053695, 0.32133108, -0.41756302, 0.54699385, 0.64878434, -0.31910956, 0.91755867, 0
1697, 3300427795, 0.65323764, 0.3196333, -0.41971388, 0.5431103, 0.65627694, 0.0030176484, 0.56711483, 0
1698, 3300444462, 0.6540734, 0.31928572, -0.42020962, 0.5419241, 0.5027756, -0.18079996, 0.17793846, 0
1699, 3300461129, 0.6547028, 0.31863648, -0.4205255, 0.54130095, 0.011991694, -0.2929202, 0.039696693, 0
1701, 3300494463, 0.6564282, 0.3157455, -0.42124936, 0.54034156, -0.15849282, -0.3030517, -0.31546402, 0
1702, 3300511130, 0.6574867, 0.31513572, -0.4211408, 0.5394944, 0.053879138, -0.43124723, -0.54586124, 0
1703, 3300527797, 0.6587169, 0.31516188, -0.42089272, 0.53817046, 0.03342167, -0.5054558, -0.18635559, 0
1705, 3300561131, 0.66086274, 0.31642872, -0.42110968, 0.53461504, -0.21700308, -0.5660926, 0.1826973, 0
1707, 3300594465, 0.66225505, 0.31587684, -0.42298248, 0.5317319, -0.9443666, -0.69810045, -0.44285393, 0
1709, 3300627799, 0.6640584, 0.3139335, -0.42620602, 0.5280471, -0.9580105, -0.63363004, -0.67352486, 0
1710, 3300644466, 0.6654699, 0.31269455, -0.42808285, 0.525481, -0.9062874, -0.3891136, -0.542346, 0
1711, 3300661133, 0.6672309, 0.3113156, -0.4303918, 0.52217, -0.8037816, 0.06975884, -0.42902374, 0
1713, 3300694467, 0.67155457, 0.3079761, -0.43298796, 0.5164298, -0.1255716, 0.15737033, 6.990433E-4, 0
1714, 3300711134, 0.6737826, 0.30625424, -0.43349165, 0.5141239, 0.35272402, 0.17354909, 0.48154163, 0
1716, 3300744468, 0.6768943, 0.30337456, -0.4331063, 0.5120644, 0.8831265, -0.47848156, 1.2790318, 0
1717, 3300761135, 0.6774767, 0.30151516, -0.4328559, 0.512604, 0.83146507, -0.7566053, 0.9720564, 0
1718, 3300777802, 0.6775425, 0.29993248, -0.43223256, 0.51396936, 0.9148336, -0.9966275, 0.49118137, 0
1720, 3300811136, 0.67676705, 0.29814267, -0.43112928, 0.51695037, 0.7976221, -0.13630614, -0.071196556, 0
1721, 3300827803, 0.6757824, 0.29826525, -0.43051517, 0.518677, 0.50332993, -0.143929, -0.072244644, 0
1722, 3300844470, 0.6745895, 0.29831535, -0.4302962, 0.5203799, 0.041639123, -0.20144519, -0.11387825, 0
1724, 3300877804, 0.6726221, 0.29708827, -0.4305447, 0.523414, -0.76722765, 0.1955336, -0.58891773, 0
1725, 3300894471, 0.6717859, 0.2961182, -0.43078274, 0.5248398, -0.47488657, 0.71852976, -0.6632147, 0
1726, 3300911138, 0.6710988, 0.29540685, -0.4301041, 0.5266732, -0.35559034, 0.28883374, -0.31673813, 0
1728, 3300944472, 0.6697756, 0.29384512, -0.42816743, 0.5307933, -0.04752556, -0.12254299, 0.077604294, 0
1729, 3300961139, 0.66904557, 0.29350576, -0.42713022, 0.5327338, 0.14406036, -0.0023471096, 0.13594437, 0
1730, 3300977806, 0.66835827, 0.29382673, -0.42643043, 0.5339788, 0.14265245, 0.4722025, 0.081092834, 0
1732, 3301011140, 0.6672231, 0.29538307, -0.4257371, 0.5350916, -0.011379715, 1.1202368, -0.5565691, 0
1734, 3301044474, 0.6680502, 0.29833785, -0.42291224, 0.5346603, -0.61206585, 0.2689158, 0.22619247, 0
1736, 3301077808, 0.6705009, 0.30038616, -0.41828755, 0.5340836, -1.2504292, -0.82823294, 0.42609406, 0
1737, 3301094475, 0.6714802, 0.30043966, -0.41619685, 0.5344566, -1.3818699, -0.83767915, 1.0271101, 0
1739, 3301127809, 0.6713513, 0.30285516, -0.41303745, 0.5357045, -0.75895077, -0.40490848, 0.25407887, 0
1740, 3301144476, 0.66948676, 0.30645993, -0.41030714, 0.53808063, -0.6039322, -1.0081735, -0.09922695, 0
1741, 3301161143, 0.6668726, 0.3100066, -0.40820548, 0.54088664, -0.3042065, -1.5124031, -0.5259762, 0
1743, 3301194477, 0.66183704, 0.31451422, -0.40722066, 0.5451945, -0.82681155, -0.9271367, -1.9000907, 0
1744, 3301211144, 0.6596397, 0.31531745, -0.40771738, 0.54701924, -1.2559843, -0.7401808, -1.979384, 0
1745, 3301227811, 0.65809375, 0.31527707, -0.40888718, 0.5480304, -1.9384912, 0.020638293, -1.5194969, 0
1747, 3301261145, 0.6571398, 0.31547797, -0.41079202, 0.5476348, -2.2237835, 0.47448626, -0.3822708, 0
1749, 3301294479, 0.66058517, 0.31663597, -0.4102648, 0.5431987, -1.0833945, 0.72648984, 0.17352104, 0
1751, 3301327813, 0.66689724, 0.3189897, -0.40653846, 0.5368737, -0.088211626, -0.050571706, 1.2272234, 0
1752, 3301344480, 0.66972435, 0.3188339, -0.40736997, 0.5328012, -0.14154941, -0.7058739, 0.57045174, 0
1753, 3301361147, 0.67193234, 0.31796128, -0.4103676, 0.52822256, -0.1986201, -0.18364763, -0.8191681, 0
1755, 3301394481, 0.6742857, 0.31734216, -0.41563025, 0.52143764, 0.20132616, -0.24268846, -1.624219, 0
1756, 3301411148, 0.6747907, 0.3177482, -0.4167366, 0.5196511, 0.068958215, -0.4431587, -1.3101254, 0
1757, 3301427815, 0.67444754, 0.31840038, -0.41760996, 0.51899606, -0.057730045, -1.1031033, -0.66364765, 0
