sep=,
DeviceTag:,Xsens_DOT_4,,,,,,,,,,,,,,,,,
FirmwareVersion:,3.0.0,,,,,,,,,,,,,,,,,
AppVersion:,2023.6.1,,,,,,,,,,,,,,,,,
SyncStatus:,Synced,,,,,,,,,,,,,,,,,
OutputRate:,60Hz,,,,,,,,,,,,,,,,,
FilterProfile:,General,,,,,,,,,,,,,,,,,
Measurement Mode:,Sensor fusion Mode - Extended (Quaternion),,,,,,,,,,,,,,,,,
StartTime:,2025-05-05 11:30:15.488 +0200,,,,,,,,,,,,,,,,,
 2025,,,,,,,,,,,,,,,,,,,

PacketCounter,SampleTimeFine,Quat_W,Quat_X,Quat_Y,Quat_Z,FreeAcc_X,FreeAcc_Y,FreeAcc_Z,Status
1, 1408506624, 0.6245633, -0.41603965, -0.5128884, -0.41685942, -0.029551988, 0.30389267, 0.06503582, 0
2, 1408523291, 0.6244765, -0.4159447, -0.5129482, -0.4170107, -0.01781443, 0.31365305, 0.08359909, 0
3, 1408539958, 0.6243651, -0.41581675, -0.5130379, -0.4171946, -0.0073815193, 0.3091506, 0.108444214, 0
4, 1408556625, 0.6242408, -0.41565838, -0.51315194, -0.41739815, -0.0054181777, 0.28282884, 0.13450623, 0
5, 1408573292, 0.6240902, -0.41549, -0.51327944, -0.41763413, -0.018294089, 0.2784408, 0.060379982, 0
6, 1408589959, 0.6239332, -0.41528222, -0.5134307, -0.41788924, -0.021584647, 0.25424913, 0.039456367, 0
7, 1408606626, 0.62373924, -0.4150762, -0.5135905, -0.41818684, -0.037696578, 0.25088993, 0.08774567, 0
8, 1408623293, 0.62354606, -0.41485068, -0.5137662, -0.4184832, -0.036589295, 0.24055001, 0.13645363, 0
9, 1408639960, 0.62334645, -0.4146323, -0.51392424, -0.41880292, 0.047990914, 0.23742038, 0.112602234, 0
10, 1408656627, 0.6231586, -0.41438267, -0.5141003, -0.41911292, 0.08946128, 0.24340382, 0.04330063, 0
11, 1408673294, 0.6229686, -0.4141333, -0.5142809, -0.41942033, 0.08070427, 0.22782698, 0.06143856, 0
12, 1408689961, 0.62276953, -0.4139084, -0.51445055, -0.41973013, 0.05810063, 0.22946087, 0.097558975, 0
13, 1408706628, 0.6225838, -0.41369453, -0.51460415, -0.4200276, 0.06691419, 0.19237804, 0.07614231, 0
14, 1408723295, 0.62242144, -0.41349024, -0.51475877, -0.42028025, 0.11271267, 0.21735495, 0.08452606, 0
15, 1408739962, 0.6222618, -0.4133106, -0.5148851, -0.42053822, 0.10082914, 0.18398549, 0.07186413, 0
16, 1408756629, 0.62212545, -0.41314775, -0.51500463, -0.42075372, 0.11374932, 0.19639793, 0.05215168, 0
17, 1408773296, 0.62200475, -0.4130158, -0.51509315, -0.4209535, 0.105351046, 0.21469134, 0.049651146, 0
18, 1408789963, 0.6218946, -0.41291922, -0.5151616, -0.4211271, 0.1336822, 0.17425272, 0.0797081, 0
19, 1408806630, 0.62179846, -0.4128367, -0.5152223, -0.42127544, 0.12334741, 0.19661675, 0.11103344, 0
20, 1408823297, 0.6217385, -0.41275144, -0.5152644, -0.4213962, 0.12706287, 0.1611962, 0.07779884, 0
21, 1408839964, 0.62168056, -0.4126833, -0.51530653, -0.4214969, 0.13521573, 0.16343066, 0.04736328, 0
22, 1408856631, 0.621635, -0.41262698, -0.5153307, -0.42158976, 0.15491727, 0.14962628, 0.04300213, 0
23, 1408873298, 0.6216006, -0.41258815, -0.51534384, -0.42166203, 0.1416082, 0.13034336, 0.07657719, 0
24, 1408889965, 0.6215817, -0.41256562, -0.515338, -0.4217194, 0.14969467, 0.16989756, 0.09578514, 0
25, 1408906632, 0.62159055, -0.41255495, -0.51531374, -0.42174634, 0.14054316, 0.17045188, 0.08924961, 0
26, 1408923299, 0.6215815, -0.41258526, -0.5152589, -0.42179695, 0.11505978, 0.14278209, 0.04910946, 0
27, 1408939966, 0.62161, -0.41258934, -0.5152347, -0.4217805, 0.110359825, 0.16349393, 0.0637722, 0
28, 1408956633, 0.621652, -0.4126091, -0.5151997, -0.4217421, 0.13972443, 0.17970754, 0.06340122, 0
29, 1408973300, 0.62168425, -0.41265607, -0.51514894, -0.42171064, 0.123490684, 0.21626689, 0.044000626, 0
30, 1408989967, 0.6217452, -0.41269627, -0.51508504, -0.42165953, 0.10070242, 0.20727362, 0.081944466, 0
31, 1409006634, 0.62181854, -0.4127518, -0.5150067, -0.42159262, 0.0673782, 0.21246985, 0.11432552, 0
32, 1409023301, 0.62191325, -0.41281244, -0.51492447, -0.42149413, 0.06745107, 0.19686797, 0.072761536, 0
33, 1409039968, 0.6220172, -0.4129038, -0.514813, -0.42138728, 0.09702563, 0.24074088, 0.062693596, 0
34, 1409056635, 0.62211096, -0.41301954, -0.5147015, -0.42127186, 0.098261885, 0.23704621, 0.067902565, 0
35, 1409073302, 0.6222378, -0.41311005, -0.5145983, -0.42112163, 0.07644478, 0.25251913, 0.0751009, 0
36, 1409089969, 0.6223631, -0.41323078, -0.51447904, -0.42096376, 0.07230957, 0.23371096, 0.067619324, 0
37, 1409106636, 0.62253135, -0.41330966, -0.5143926, -0.42074302, 0.08586921, 0.23904398, 0.11640549, 0
38, 1409123303, 0.6226779, -0.41343108, -0.51425135, -0.42057973, 0.0733565, 0.2091489, 0.1084404, 0
39, 1409139970, 0.62282467, -0.413567, -0.51411676, -0.42039293, 0.038430147, 0.18798669, 0.057229996, 0
40, 1409156637, 0.62298536, -0.41369662, -0.51398176, -0.42019245, 0.06507636, 0.19770233, 0.07010269, 0
41, 1409173304, 0.6231289, -0.41383943, -0.5138396, -0.4200128, 0.07381046, 0.22130622, 0.09762859, 0
42, 1409189971, 0.62327147, -0.41397256, -0.51369697, -0.41984466, 0.051715758, 0.24191098, 0.10381222, 0
43, 1409206638, 0.62342703, -0.41409692, -0.513554, -0.41966584, 0.010081552, 0.20658408, 0.094418526, 0
44, 1409223305, 0.6235792, -0.41422895, -0.5134131, -0.41948205, 0.031232135, 0.20107114, 0.07080269, 0
45, 1409239972, 0.6237216, -0.41435447, -0.51328576, -0.41930187, 0.046951354, 0.18938409, 0.06307888, 0
46, 1409256639, 0.62385845, -0.41449076, -0.5131474, -0.41913283, 0.053527106, 0.19024573, 0.044508934, 0
47, 1409273306, 0.6239858, -0.41463226, -0.51301783, -0.41896188, 0.07409141, 0.17901912, 0.07609272, 0
48, 1409289973, 0.6241086, -0.41475865, -0.5128889, -0.41881183, 0.06172623, 0.17675069, 0.113098145, 0
49, 1409306640, 0.6242412, -0.41486293, -0.51276803, -0.41865876, 0.036896847, 0.1630098, 0.09463596, 0
50, 1409323307, 0.62434953, -0.41497695, -0.51263875, -0.41854268, 0.017487431, 0.123053044, 0.066467285, 0
51, 1409339974, 0.6244547, -0.41508347, -0.512528, -0.41841578, 0.004202714, 0.10242571, 0.017195702, 0
52, 1409356641, 0.62455046, -0.41519254, -0.5124203, -0.41829646, 0.062007938, 0.093186796, 0.029929161, 0
53, 1409373308, 0.6246419, -0.41529337, -0.51232535, -0.41817626, 0.10953766, 0.14611287, 0.123921394, 0
54, 1409389975, 0.62474686, -0.41537747, -0.5122279, -0.41805503, 0.13902685, 0.1515391, 0.1481266, 0
55, 1409406642, 0.62485945, -0.41547212, -0.5121065, -0.4179414, 0.090850644, 0.15908468, 0.09400272, 0
56, 1409423309, 0.62499034, -0.41558477, -0.51198393, -0.4177839, 0.08314682, 0.13784826, 0.021723747, 0
57, 1409439976, 0.6251313, -0.41573098, -0.5118277, -0.4176191, 0.07323469, 0.17579316, 0.036120415, 0
58, 1409456643, 0.6252486, -0.4159378, -0.5116296, -0.41748032, 0.09133499, 0.20860375, 0.113913536, 0
59, 1409473310, 0.62541133, -0.41608545, -0.5114877, -0.41726306, 0.056926962, 0.22454715, 0.12717533, 0
60, 1409489977, 0.6255487, -0.4162529, -0.511321, -0.41709447, 0.045170404, 0.18044268, 0.087620735, 0
61, 1409506644, 0.6256945, -0.4164019, -0.5111748, -0.41690603, 0.016221676, 0.12741892, 0.055220604, 0
62, 1409523311, 0.62580603, -0.41654935, -0.5110334, -0.41676486, 0.037726082, 0.08387212, 0.021313667, 0
63, 1409539978, 0.62589973, -0.4166419, -0.5109404, -0.41664565, 0.06078636, 0.10289441, 0.049500465, 0
64, 1409556645, 0.6259668, -0.41669106, -0.5108861, -0.41656235, 0.038095996, 0.14967366, 0.08071518, 0
65, 1409573312, 0.6260085, -0.4166968, -0.510856, -0.4165307, 0.03220807, 0.1264719, 0.11843872, 0
66, 1409589979, 0.6260377, -0.41668427, -0.5108302, -0.41653088, -0.011547126, 0.10698693, 0.09223938, 0
67, 1409606646, 0.6260793, -0.4166687, -0.5108093, -0.4165095, -0.016419038, 0.0757662, 0.10326004, 0
68, 1409623313, 0.6261301, -0.41665477, -0.51078355, -0.41647872, 0.05090977, 0.07547921, 0.105439186, 0
69, 1409639980, 0.62617, -0.41667476, -0.5107424, -0.41644928, 0.11276743, 0.13202463, 0.07314587, 0
70, 1409656647, 0.6262039, -0.41667628, -0.5107186, -0.41642588, 0.13483374, 0.09292864, 0.05135727, 0
71, 1409673314, 0.6262298, -0.4166691, -0.5106879, -0.4164316, 0.08954935, 0.06536301, 0.09608364, 0
72, 1409689981, 0.6262521, -0.41665047, -0.51067466, -0.41643307, 0.0495336, 0.05946741, 0.089447975, 0
73, 1409706648, 0.6262621, -0.41665527, -0.5106474, -0.41644678, 0.021836098, 0.09274513, 0.039497375, 0
74, 1409723315, 0.6262731, -0.41666895, -0.51061606, -0.416455, 0.02750014, 0.08735669, 0.07449436, 0
75, 1409739982, 0.6262997, -0.41667986, -0.51057523, -0.41645426, 0.040589057, 0.16985017, 0.084682465, 0
76, 1409756649, 0.62630934, -0.41671696, -0.5105159, -0.41647524, 0.05390775, 0.18433516, 0.107468605, 0
77, 1409773316, 0.6263406, -0.4167299, -0.51047015, -0.4164715, 0.06081959, 0.15836976, 0.08642292, 0
78, 1409789983, 0.6263451, -0.416775, -0.51041853, -0.41648278, 0.014910549, 0.13235544, 0.02263546, 0
79, 1409806650, 0.62636435, -0.41681093, -0.51036876, -0.41647878, 0.048553273, 0.14369178, 0.05533886, 0
80, 1409823317, 0.62636906, -0.41685057, -0.51032346, -0.41648766, 0.09228403, 0.15911709, 0.099760056, 0
81, 1409839984, 0.6263687, -0.41685507, -0.51030016, -0.41651225, 0.07079862, 0.20995176, 0.10277367, 0
82, 1409856651, 0.62637293, -0.41682953, -0.51028305, -0.4165524, 0.048183806, 0.1846141, 0.1121912, 0
83, 1409873318, 0.6263706, -0.41679382, -0.5102798, -0.41659573, 0.015858691, 0.18033785, 0.07311249, 0
84, 1409889985, 0.62635285, -0.41675553, -0.5102931, -0.41664413, 0.016033925, 0.19722202, 0.06882286, 0
85, 1409906652, 0.62629455, -0.416748, -0.51028514, -0.41674903, 0.042638894, 0.25801778, 0.08196926, 0
86, 1409923319, 0.6262619, -0.4166753, -0.51032984, -0.41681597, 0.08478562, 0.28857312, 0.11177254, 0
87, 1409939986, 0.6262506, -0.4165502, -0.51040596, -0.41686487, 0.076716796, 0.27875933, 0.16307545, 0
88, 1409956653, 0.6261966, -0.41646573, -0.5104477, -0.41697937, 0.0788138, 0.24683988, 0.09362221, 0
89, 1409973320, 0.6261616, -0.41637152, -0.5105018, -0.41705978, 0.06826354, 0.26415923, 0.027116776, 0
90, 1409989987, 0.62613064, -0.41629803, -0.5105361, -0.41713765, 0.065917164, 0.23827219, 0.076901436, 0
91, 1410006654, 0.62611556, -0.41623473, -0.51057035, -0.41718143, 0.06312051, 0.2714386, 0.10148811, 0
92, 1410023321, 0.6261325, -0.4161813, -0.5105917, -0.4171832, 0.09821137, 0.28045803, 0.100785255, 0
93, 1410039988, 0.62615883, -0.41615996, -0.51057553, -0.41718477, 0.08904711, 0.26330474, 0.14011669, 0
94, 1410056655, 0.6262062, -0.41617355, -0.5105391, -0.4171446, 0.08937255, 0.2542518, 0.08024788, 0
95, 1410073322, 0.6262881, -0.41623116, -0.51046014, -0.41706085, 0.10417201, 0.19574304, 0.06257725, 0
96, 1410089989, 0.6263992, -0.41632864, -0.51035565, -0.41692477, 0.105000354, 0.12712099, -0.009789467, 0
97, 1410106656, 0.626518, -0.41649994, -0.51020914, -0.41675428, 0.09831352, 0.17009448, 0.04458332, 0
98, 1410123323, 0.62667066, -0.41669923, -0.51001894, -0.41655812, 0.09304934, 0.19365834, 0.1363182, 0
99, 1410139990, 0.6268471, -0.41690466, -0.5098191, -0.41633177, 0.13207984, 0.19851013, 0.122615814, 0
100, 1410156657, 0.62704754, -0.4171227, -0.5095849, -0.41609845, 0.12157026, 0.14460506, 0.099282265, 0
101, 1410173324, 0.6272573, -0.41736612, -0.5093491, -0.41582656, 0.090723015, 0.119418725, 0.07001686, 0
102, 1410189991, 0.62748086, -0.41761175, -0.5091144, -0.41553026, 0.06655928, 0.08296504, 0.06341839, 0
103, 1410206658, 0.62768877, -0.4178715, -0.5088682, -0.41525632, 0.077677235, 0.06949532, 0.08387184, 0
104, 1410223325, 0.6279077, -0.41810676, -0.508645, -0.41496187, 0.048347194, 0.059371524, 0.087332726, 0
105, 1410239992, 0.62810487, -0.41834518, -0.5084088, -0.41471258, 0.05594775, 0.05161607, 0.05269432, 0
106, 1410256659, 0.628287, -0.4185676, -0.5082035, -0.41446367, 0.08167655, 0.066803776, 0.020341873, 0
107, 1410273326, 0.62848073, -0.41872966, -0.50803846, -0.4142088, 0.10378645, 0.09178761, 0.050250053, 0
108, 1410289993, 0.62863326, -0.41888717, -0.50788075, -0.41401166, 0.066067524, 0.08456456, 0.06916714, 0
109, 1410306660, 0.62879395, -0.41901478, -0.507741, -0.4138099, 0.023475341, 0.09889599, 0.060210228, 0
110, 1410323327, 0.62893385, -0.41915533, -0.50760597, -0.41362026, -0.0072295265, 0.08329479, 0.057034492, 0
111, 1410339994, 0.62905633, -0.4192838, -0.5074914, -0.41344443, 0.025620619, 0.11208996, 0.038391113, 0
112, 1410356661, 0.6291443, -0.4193913, -0.5074077, -0.41330394, -0.002211437, 0.15439671, 0.0949955, 0
113, 1410373328, 0.62921876, -0.41944358, -0.507366, -0.4131888, 0.030324226, 0.23936136, 0.16849518, 0
114, 1410389995, 0.6292922, -0.41940993, -0.5073727, -0.4131031, 0.034220237, 0.2791657, 0.13433933, 0
115, 1410406662, 0.6293125, -0.4193722, -0.5073732, -0.4131097, 0.02135331, 0.2378645, 0.105882645, 0
116, 1410423329, 0.6293331, -0.41930935, -0.5074014, -0.41310748, -0.040362194, 0.18842478, 0.06469917, 0
117, 1410439996, 0.62935245, -0.4192653, -0.5074022, -0.41312176, -0.06766341, 0.16269329, 0.11188507, 0
118, 1410456663, 0.6293701, -0.41921914, -0.5074117, -0.41312993, -0.037529167, 0.185501, 0.086294174, 0
119, 1410473330, 0.6293737, -0.41918975, -0.5074225, -0.41314128, -0.042171083, 0.22041932, 0.04364109, 0
120, 1410489997, 0.62935954, -0.4191629, -0.5074305, -0.41318005, -0.06846448, 0.20286818, 0.085505486, 0
121, 1410506664, 0.6293118, -0.41916108, -0.5074362, -0.41324785, -0.034179825, 0.29137483, 0.09852886, 0
122, 1410523331, 0.6292781, -0.41911498, -0.5074658, -0.4133095, 0.016123777, 0.3009935, 0.17662048, 0
123, 1410539998, 0.62924945, -0.4190317, -0.50750524, -0.4133892, -0.023827152, 0.19861495, 0.18902302, 0
124, 1410556665, 0.62919456, -0.4189784, -0.50750875, -0.41352242, -0.08405674, 0.04623723, 0.02820015, 0
125, 1410573332, 0.62911683, -0.418974, -0.50748914, -0.41366902, -0.025396213, -0.069612436, -0.05805683, 0
126, 1410589999, 0.6290439, -0.4189697, -0.5074891, -0.41378433, 0.034352824, -0.089194186, -0.028676987, 0
127, 1410606666, 0.62891966, -0.4189847, -0.5074991, -0.41394576, 0.0756014, -0.09415745, 0.1057291, 0
128, 1410623333, 0.62877834, -0.41896158, -0.50755614, -0.41411385, 0.05593121, 0.06664195, 0.111629486, 0
129, 1410640000, 0.6286345, -0.41884336, -0.50765014, -0.41433668, 0.1245669, 0.2311857, 0.19166088, 0
130, 1410656667, 0.62849694, -0.41859138, -0.5077954, -0.41462174, 0.11801328, 0.13479887, 0.16339779, 0
131, 1410673334, 0.62833667, -0.41831344, -0.5079815, -0.4149171, -0.0038544808, 0.028752707, -0.052707672, 0
132, 1410690001, 0.6281487, -0.41810113, -0.5081518, -0.4152074, -0.07343563, -0.035344776, -0.05496025, 0
133, 1410706668, 0.62796533, -0.41790035, -0.50833833, -0.41545814, -0.020586213, 0.11464024, 0.023344994, 0
134, 1410723335, 0.6277542, -0.41770267, -0.50852245, -0.4157507, 0.026788475, 0.24052632, 0.09036541, 0
135, 1410740002, 0.62754285, -0.4174475, -0.5087392, -0.41606092, -0.004081123, 0.25903496, 0.08553028, 0
136, 1410756669, 0.6273151, -0.41719517, -0.5089671, -0.41637883, 0.012832773, 0.28936568, 0.031297684, 0
137, 1410773336, 0.62707275, -0.41693467, -0.5092116, -0.41670516, 0.1400617, 0.37285268, 0.03830433, 0
138, 1410790003, 0.6268203, -0.41666085, -0.50946283, -0.41705188, 0.20614086, 0.41655728, 0.105187416, 0
139, 1410806670, 0.62656045, -0.4164092, -0.5096842, -0.417423, 0.09905232, 0.34191495, 0.13144779, 0
140, 1410823337, 0.62637764, -0.416168, -0.50988144, -0.41769716, 0.074457526, 0.22733055, 0.14918709, 0
141, 1410840004, 0.62626344, -0.41600546, -0.5100111, -0.4178719, 0.2217434, 0.14633349, 0.06455326, 0
142, 1410856671, 0.6261943, -0.41594157, -0.5100735, -0.4179629, 0.29490456, 0.1383324, 0.019972801, 0
143, 1410873338, 0.62619203, -0.41596204, -0.51006615, -0.41795498, 0.2245572, 0.12639323, 0.070423126, 0
144, 1410890005, 0.6262465, -0.41607508, -0.50996906, -0.41787925, 0.19219813, 0.0990453, 0.15815926, 0
145, 1410906672, 0.6263932, -0.41619873, -0.50984234, -0.41769078, 0.23209094, 0.12665875, 0.093818665, 0
146, 1410923339, 0.6265467, -0.4163946, -0.5096561, -0.41749263, 0.23353416, 0.11630139, 0.0820055, 0
147, 1410940006, 0.62673974, -0.41661084, -0.5094513, -0.417237, 0.14804918, 0.07814237, 0.102381706, 0
148, 1410956673, 0.62697303, -0.41685703, -0.50922704, -0.41691434, 0.08238017, 0.15536855, 0.11711407, 0
149, 1410973340, 0.62722635, -0.41713357, -0.50894743, -0.41659778, 0.14447899, 0.17067024, 0.07627392, 0
150, 1410990007, 0.6274927, -0.41741443, -0.5086801, -0.4162418, 0.14479303, 0.1006747, 0.032105446, 0
151, 1411006674, 0.6277577, -0.41771406, -0.5083944, -0.41589043, 0.10114855, 4.9038744E-4, 0.051844597, 0
152, 1411023341, 0.62803096, -0.41800493, -0.50812846, -0.4155106, 0.07426488, 0.051720027, 0.051384926, 0
153, 1411040008, 0.6282674, -0.41828397, -0.50787467, -0.41518256, 0.06069651, 0.10338033, 0.036969185, 0
154, 1411056675, 0.6284655, -0.41853824, -0.5076311, -0.41492414, -0.0050779907, 0.096845925, 0.06793594, 0
155, 1411073342, 0.62864673, -0.41874814, -0.50742954, -0.4146842, -0.07648591, 0.042041223, 0.08593464, 0
156, 1411090009, 0.6288029, -0.41891798, -0.50728315, -0.41445506, 0.009300151, 0.024071898, 0.07211208, 0
157, 1411106676, 0.6289575, -0.4190149, -0.5071744, -0.4142558, 0.09994918, -0.0011457275, 0.07989502, 0
158, 1411123343, 0.6290397, -0.41910002, -0.5070829, -0.41415676, 0.06735988, -0.006196226, 0.04332161, 0
159, 1411140010, 0.62911034, -0.41912484, -0.5070394, -0.41407755, -0.0036526488, 0.012852218, 0.032117844, 0
160, 1411156677, 0.62917244, -0.41913098, -0.50702345, -0.41399643, -0.01420693, 0.0136588765, 0.04854393, 0
161, 1411173344, 0.62921745, -0.4191497, -0.50699484, -0.41394407, 0.016186362, 0.07770428, 0.122712135, 0
162, 1411190011, 0.6292769, -0.41915077, -0.50696874, -0.41388473, 0.0593447, 0.13274166, 0.15188694, 0
163, 1411206678, 0.629308, -0.4191776, -0.5069406, -0.4138447, 0.006251434, 0.13860887, 0.06439781, 0
164, 1411223345, 0.6293665, -0.41920617, -0.5068953, -0.41378236, 0.0065351264, 0.10003303, 0.057976723, 0
165, 1411240012, 0.62941736, -0.4192515, -0.50683886, -0.4137281, 0.01196152, 0.17000932, 0.03673172, 0
166, 1411256679, 0.6294616, -0.41930744, -0.506784, -0.41367114, 0.04652333, 0.19318247, 0.10649109, 0
167, 1411273346, 0.6294995, -0.41937384, -0.5067227, -0.4136212, 0.015474919, 0.19962993, 0.1400013, 0
168, 1411290013, 0.62954825, -0.4194427, -0.5066379, -0.4135812, -0.008688843, 0.17562419, 0.10190773, 0
169, 1411306680, 0.62961185, -0.41950443, -0.506564, -0.41351226, 0.021264352, 0.15131, 0.07135677, 0
170, 1411323347, 0.62966985, -0.41957888, -0.50648534, -0.4134447, 0.0090806605, 0.15577221, 0.057852745, 0
171, 1411340014, 0.6297159, -0.41966406, -0.50640625, -0.41338485, 0.032682512, 0.12556332, 0.06548405, 0
172, 1411356681, 0.62975544, -0.4197502, -0.50633466, -0.41332513, 0.07024856, 0.116085924, 0.0861187, 0
173, 1411373348, 0.6297941, -0.41981277, -0.50626826, -0.41328382, 0.058403935, 0.110723846, 0.08187771, 0
174, 1411390015, 0.62983215, -0.4198547, -0.50622135, -0.41324094, 0.048235886, 0.08628047, 0.02552414, 0
175, 1411406682, 0.6298538, -0.419896, -0.5061824, -0.4132136, 0.033346567, 0.07071235, 0.04770279, 0
176, 1411423349, 0.6298503, -0.41993332, -0.5061606, -0.4132077, 0.06640771, 0.11244289, 0.09349537, 0
177, 1411440016, 0.6298453, -0.4199326, -0.5061512, -0.41322762, 0.09781636, 0.12050849, 0.12005329, 0
178, 1411456683, 0.6298462, -0.4198989, -0.5061577, -0.41325247, 0.06008833, 0.09257862, 0.047124863, 0
179, 1411473350, 0.62982774, -0.41987687, -0.5061719, -0.41328564, 0.02062287, 0.042552397, 0.009051323, 0
180, 1411490017, 0.6298174, -0.41986582, -0.50619614, -0.413283, 0.0314257, 0.045534283, 0.05086708, 0
181, 1411506684, 0.62980217, -0.41987184, -0.5061998, -0.4132956, 0.089318015, 0.035236817, 0.15488243, 0
182, 1411523351, 0.62981176, -0.41982812, -0.50622773, -0.41329113, 0.15134934, 0.03731683, 0.10302544, 0
183, 1411540018, 0.6298032, -0.4197855, -0.5062478, -0.4133229, 0.11351687, 0.02671494, 0.04293251, 0
184, 1411556685, 0.6297818, -0.41972858, -0.5062832, -0.41336995, 0.03135708, 0.060528427, 0.09190655, 0
185, 1411573352, 0.62975466, -0.41965738, -0.50632477, -0.4134326, -0.018773748, 0.13589655, 0.079689026, 0
186, 1411590019, 0.62971395, -0.4195891, -0.50637287, -0.4135049, -0.058211267, 0.18289484, 0.11175823, 0
187, 1411606686, 0.6296794, -0.41949624, -0.50642097, -0.41359296, -0.057906173, 0.20008723, 0.16275883, 0
188, 1411623353, 0.62961215, -0.4194084, -0.5064695, -0.41372502, 0.04277144, 0.19453785, 0.08171272, 0
189, 1411640020, 0.6295377, -0.41930693, -0.50655025, -0.41384217, 0.07138151, 0.18334338, 0.019760132, 0
190, 1411656687, 0.6294571, -0.4191875, -0.5066541, -0.41395876, 0.012052042, 0.1957788, 0.05126381, 0
191, 1411673354, 0.62935275, -0.41907477, -0.50675493, -0.414108, -0.09087813, 0.2115206, 0.053793907, 0
192, 1411690021, 0.62923324, -0.4189732, -0.50684845, -0.41427803, -0.10696503, 0.22440834, 0.07946968, 0
193, 1411706688, 0.6291046, -0.41883197, -0.5069799, -0.4144554, -0.035667527, 0.21910304, 0.06853104, 0
194, 1411723355, 0.6289672, -0.41869038, -0.507101, -0.41465864, -0.0055770953, 0.2014529, 0.14816284, 0
195, 1411740022, 0.628827, -0.41853908, -0.50721776, -0.41488123, 0.10561121, 0.185503, 0.19093418, 0
196, 1411756689, 0.62869817, -0.4183819, -0.5073217, -0.4151079, 0.19394353, 0.15448388, 0.12322426, 0
197, 1411773356, 0.6285838, -0.4182196, -0.50742507, -0.41531852, 0.17607456, 0.15150446, 0.032125473, 0
198, 1411790023, 0.6284979, -0.4180809, -0.5075229, -0.41546834, 0.057524413, 0.10381909, 0.065582275, 0
199, 1411806690, 0.6284504, -0.41799673, -0.5075769, -0.41555873, 0.024312621, 0.1241943, 0.11032486, 0
200, 1411823357, 0.62843037, -0.41798234, -0.5075711, -0.41561064, 0.05148822, 0.18937582, 0.063920975, 0
201, 1411840024, 0.6284318, -0.41799855, -0.507543, -0.41562644, 0.065544814, 0.17402166, 0.09985542, 0
202, 1411856691, 0.6284512, -0.41803697, -0.5074872, -0.41562665, 0.06912496, 0.14846781, 0.06252289, 0
203, 1411873358, 0.62847203, -0.41808718, -0.507431, -0.41561338, 0.08591145, 0.1700272, 0.09691334, 0
204, 1411890025, 0.62847966, -0.41811392, -0.5073957, -0.41561794, 0.121152066, 0.18362729, 0.096105576, 0
205, 1411906692, 0.62846327, -0.41813183, -0.5073615, -0.41566637, 0.083236, 0.17423238, 0.049964905, 0
206, 1411923359, 0.6284641, -0.41812953, -0.50734913, -0.4156826, 0.045682248, 0.11207119, 0.076657295, 0
207, 1411940026, 0.62846637, -0.41813016, -0.5073274, -0.41570482, 0.053910878, 0.1262513, 0.12593079, 0
208, 1411956693, 0.6284761, -0.41813496, -0.50730354, -0.41571462, 0.0925632, 0.08515307, 0.14592838, 0
209, 1411973360, 0.6284983, -0.4181243, -0.50728434, -0.41571516, 0.100987844, 0.035842985, 0.034316063, 0
210, 1411990027, 0.6285081, -0.41812903, -0.507261, -0.41572425, 0.11400636, 0.019535033, -0.02396965, 0
211, 1412006694, 0.6285279, -0.4181331, -0.5072511, -0.41570225, 0.100777075, 0.044317257, 0.014666557, 0
212, 1412023361, 0.6285428, -0.41814324, -0.5072366, -0.41568717, 0.11293215, 0.03890489, 0.09056473, 0
213, 1412040028, 0.6285708, -0.41815227, -0.5072069, -0.41567183, 0.090689935, 0.038219374, 0.12244034, 0
214, 1412056695, 0.62861913, -0.41816753, -0.5071739, -0.41562372, 0.10442033, 0.026826426, 0.08794212, 0
215, 1412073362, 0.6286653, -0.4182062, -0.507126, -0.4155734, 0.124766946, 0.024680747, 0.080937386, 0
216, 1412090029, 0.6287046, -0.4182494, -0.50708044, -0.41552618, 0.15758044, 0.019356893, 0.0508461, 0
217, 1412106696, 0.62876517, -0.41828412, -0.50703704, -0.41545236, 0.15754803, 0.029084623, 0.009925842, 0
218, 1412123363, 0.6288369, -0.41833702, -0.5069775, -0.4153633, 0.124264486, 0.03530745, 0.037843704, 0
219, 1412140030, 0.628922, -0.41840824, -0.5068933, -0.41526562, 0.11069121, 0.07759856, 0.05596447, 0
220, 1412156697, 0.6289975, -0.4185401, -0.50677085, -0.4151677, 0.05249157, 0.1207408, 0.05085087, 0
221, 1412173364, 0.62911505, -0.41866675, -0.50665134, -0.4150077, 0.078927346, 0.13600518, 0.087677956, 0
222, 1412190031, 0.62924963, -0.4188287, -0.5065104, -0.41481224, 0.06931114, 0.1391071, 0.13162231, 0
223, 1412206698, 0.62941813, -0.41900185, -0.5063466, -0.4145815, 0.025092458, 0.12435054, 0.10521412, 0
224, 1412223365, 0.62959665, -0.4191884, -0.50616705, -0.4143412, 0.09798562, 0.11356135, 0.091150284, 0
225, 1412240032, 0.6297615, -0.41939056, -0.5059758, -0.41411966, 0.08708087, 0.18933536, 0.031723976, 0
226, 1412256699, 0.6299334, -0.41958705, -0.5057934, -0.41388184, 0.028640125, 0.10496745, 0.08370209, 0
227, 1412273366, 0.6301037, -0.41978794, -0.5056087, -0.41364446, 0.020626223, 0.089185916, 0.13064098, 0
228, 1412290033, 0.63029486, -0.41995344, -0.5054312, -0.41340214, 0.03894378, 0.0641015, 0.08845806, 0
229, 1412306700, 0.6304799, -0.4201218, -0.5052653, -0.41315153, -0.11768203, -0.008631847, 0.04476261, 0
230, 1412323367, 0.6306583, -0.4203169, -0.5050828, -0.4129038, -0.19285816, -0.055034924, 0.084578514, 0
231, 1412340034, 0.6308125, -0.42052063, -0.50491, -0.4126724, -0.011475155, 0.0045073624, 0.027755737, 0
232, 1412356701, 0.63093716, -0.4206385, -0.5048035, -0.41249192, 0.08046958, -0.032207545, 0.016447067, 0
233, 1412373368, 0.6309929, -0.42072606, -0.5047326, -0.41240412, 0.07149777, -0.050058186, 0.13288212, 0
234, 1412390035, 0.63100994, -0.42077518, -0.5046924, -0.4123772, 0.065521926, 0.039168857, 0.1018095, 0
235, 1412406702, 0.630988, -0.42075053, -0.50471205, -0.41241184, 0.104156144, 0.0631851, 0.058026314, 0
236, 1412423369, 0.63093466, -0.42063457, -0.5047904, -0.41251576, 0.20822087, 0.05732012, 0.007610321, 0
237, 1412440036, 0.6308504, -0.42050162, -0.5049012, -0.4126447, 0.060062848, 0.04591135, -0.0479393, 0
238, 1412456703, 0.6307866, -0.42042246, -0.5049771, -0.4127298, -0.09684883, 0.08687591, 0.17086506, 0
239, 1412473370, 0.6307861, -0.42038342, -0.50497687, -0.4127706, -0.05597479, 0.24646725, 0.20467663, 0
240, 1412490037, 0.63081425, -0.42041045, -0.5049332, -0.41275358, 0.019313531, 0.34544778, 0.15215206, 0
241, 1412506704, 0.63085854, -0.42049286, -0.50485265, -0.4127005, -0.042134874, 0.37948453, 0.14218998, 0
242, 1412523371, 0.6309359, -0.42056683, -0.5047614, -0.41261846, -0.0069092326, 0.41734427, 0.044947624, 0
243, 1412540038, 0.63096964, -0.42065158, -0.50469077, -0.41256684, 0.10519056, 0.47105175, 0.07714558, 0
244, 1412556705, 0.6309787, -0.4207012, -0.50465375, -0.41254774, 0.12576605, 0.537037, 0.06430054, 0
245, 1412573372, 0.63100034, -0.42072698, -0.504618, -0.41253185, 0.00294903, 0.52085984, 0.12817383, 0
246, 1412590039, 0.6310472, -0.42080212, -0.50453454, -0.41248578, 0.030669553, 0.45726973, 0.14356709, 0
247, 1412606706, 0.6311334, -0.42094472, -0.50440633, -0.41236532, 0.04789659, 0.45377734, 0.073428154, 0
248, 1412623373, 0.6312835, -0.42114168, -0.50422853, -0.4121516, 0.008688172, 0.319856, 0.19178486, 0
249, 1412640040, 0.63145584, -0.42140812, -0.50400716, -0.41188607, -0.08392129, 0.1680167, 0.04708481, 0
250, 1412656707, 0.6316732, -0.42168579, -0.5037778, -0.41154894, -0.044531602, 0.03275314, -0.025129318, 0
251, 1412673374, 0.63187975, -0.4219671, -0.50354636, -0.41122672, -0.09203242, -0.1634984, 0.11220646, 0
252, 1412690041, 0.63210714, -0.4221972, -0.50332105, -0.41091663, 0.14703912, -0.3068254, 0.29031944, 0
253, 1412706708, 0.63231814, -0.42236727, -0.5031231, -0.4106597, 0.35351458, -0.39107504, 0.16082859, 0
254, 1412723375, 0.6324553, -0.42249107, -0.5029667, -0.41051272, 0.4688734, -0.5643253, -0.16123867, 0
255, 1412740042, 0.63251454, -0.4225578, -0.5028988, -0.41043583, 0.30943334, -0.80284894, -0.23703098, 0
256, 1412756709, 0.63252234, -0.42258358, -0.50286746, -0.41043556, 0.14070252, -0.92565876, -0.014543533, 0
257, 1412773376, 0.63252723, -0.422574, -0.50285465, -0.41045356, 0.005224839, -0.8623789, -0.019907951, 0
258, 1412790043, 0.63252735, -0.4225596, -0.50285125, -0.41047245, 0.05623273, -0.74316335, 0.033524513, 0
259, 1412806710, 0.6325433, -0.42252177, -0.5028594, -0.4104768, 0.15486275, -0.67555135, 0.037727356, 0
260, 1412823377, 0.63253015, -0.42247444, -0.50285065, -0.41055658, 0.34360737, -0.6054613, 9.050369E-4, 0
261, 1412840044, 0.6325108, -0.42235738, -0.5029097, -0.41063458, 0.35084984, -0.57536256, 0.012876511, 0
262, 1412856711, 0.6324569, -0.42225942, -0.50294906, -0.41077003, 0.16715595, -0.5394206, -0.0242033, 0
263, 1412873378, 0.6323977, -0.42216882, -0.502997, -0.4108956, 0.21486658, -0.42925015, -0.15589905, 0
264, 1412890045, 0.63232195, -0.42208698, -0.5030608, -0.41101807, 0.15983436, -0.10292109, -0.11357498, 0
265, 1412906712, 0.63227665, -0.42199522, -0.5031265, -0.41110167, -0.17857859, 0.17345075, 0.3071699, 0
266, 1412923379, 0.6322264, -0.42187315, -0.50322384, -0.41118497, -0.16679141, 0.61423284, 0.24669075, 0
267, 1412940046, 0.63205755, -0.42162985, -0.5034323, -0.41143903, -0.026118606, 0.97160435, -0.05545044, 0
268, 1412956713, 0.63180554, -0.42116615, -0.5038006, -0.41185027, -0.024642974, 0.6398865, 0.2841339, 0
269, 1412973380, 0.6315264, -0.42056894, -0.5042793, -0.41230232, -0.20806865, 0.38101113, -0.038433075, 0
270, 1412990047, 0.63122, -0.42005533, -0.50471073, -0.4127669, -0.13202664, 0.17321293, -0.039497375, 0
271, 1413006714, 0.6309666, -0.41955402, -0.5051315, -0.4131494, 0.1810323, 0.045717116, 0.015993118, 0
272, 1413023381, 0.6307047, -0.41914696, -0.5054957, -0.41351673, 0.08873196, -0.03501621, 0.0037956238, 0
273, 1413040048, 0.6304596, -0.41885307, -0.5057797, -0.41384095, -0.11788677, -0.1696526, 0.13194084, 0
274, 1413056715, 0.63022405, -0.41863427, -0.50599647, -0.41415596, -0.046324402, -0.080948345, 0.059248924, 0
275, 1413073382, 0.62999, -0.41837364, -0.5062194, -0.4145029, 0.22358112, -0.087841265, 0.10416794, 0
276, 1413090049, 0.6297448, -0.41808233, -0.50648504, -0.41484478, -0.021726614, -0.084631, 0.030023575, 0
277, 1413106716, 0.62948626, -0.4178474, -0.506722, -0.41518432, -0.102157936, 0.04858792, 0.08272171, 0
278, 1413123383, 0.6292193, -0.4176483, -0.5069058, -0.415565, 0.06540347, 0.23406298, 0.14150524, 0
279, 1413140050, 0.62897414, -0.41733167, -0.5071764, -0.4159235, 0.17250752, 0.48800814, 0.13998222, 0
280, 1413156717, 0.6287172, -0.41696438, -0.50746745, -0.41632515, -0.07312249, 0.59054136, 0.16419792, 0
281, 1413173384, 0.6284709, -0.4166405, -0.5077359, -0.41669387, -0.24444896, 0.61741495, 0.27995682, 0
282, 1413190051, 0.6282637, -0.41636437, -0.5079459, -0.4170265, -0.030963473, 0.75958127, 0.28957653, 0
283, 1413206718, 0.62808293, -0.416086, -0.5081254, -0.41735762, 0.10486557, 0.8079725, 0.16919231, 0
284, 1413223385, 0.62795717, -0.41576946, -0.5083523, -0.41758627, -0.08631534, 0.822061, 0.0350914, 0
285, 1413240052, 0.6277892, -0.41561157, -0.5084901, -0.41782784, -0.2705705, 0.81248504, 0.06636047, 0
286, 1413256719, 0.6276836, -0.41548303, -0.5086088, -0.4179699, -0.114321515, 0.8018505, 0.21474266, 0
287, 1413273386, 0.62757283, -0.41540384, -0.50866413, -0.41814753, -0.0109257605, 0.91297936, 0.2008276, 0
288, 1413290053, 0.6275005, -0.4153116, -0.50873095, -0.41826642, -0.14377345, 0.81945527, 0.22653198, 0
289, 1413306720, 0.6274723, -0.41530544, -0.5087329, -0.4183126, -0.23109585, 0.72527385, 0.17887592, 0
290, 1413323387, 0.6274599, -0.4154059, -0.5086541, -0.41832715, -0.078353584, 0.5771717, 0.15990639, 0
291, 1413340054, 0.62747246, -0.41551974, -0.5085612, -0.41830823, 0.08391682, 0.51856166, 0.15895176, 0
292, 1413356721, 0.6274984, -0.4156066, -0.5084699, -0.41829413, 0.015270182, 0.44794253, 0.11569691, 0
293, 1413373388, 0.6275217, -0.41572574, -0.50836444, -0.4182688, -0.06305122, 0.32359713, 0.103907585, 0
294, 1413390055, 0.6275562, -0.41587195, -0.5082432, -0.41821906, 0.024397334, 0.3252869, 0.13321972, 0
295, 1413406722, 0.6276108, -0.41598713, -0.5081326, -0.41815713, 0.12651972, 0.29387462, 0.1553402, 0
296, 1413423389, 0.6276681, -0.416091, -0.5080175, -0.41810736, -0.015484083, 0.22033036, 0.10659981, 0
297, 1413440056, 0.6277262, -0.41624266, -0.5078644, -0.41805524, -0.031197492, 0.11532218, 0.087254524, 0
298, 1413456723, 0.6277861, -0.4164453, -0.50769323, -0.41797143, 0.09940337, 0.07872998, -0.010569572, 0
299, 1413473390, 0.6278514, -0.41665262, -0.5075272, -0.41786832, 0.1518947, 0.044726953, 0.12616348, 0
300, 1413490057, 0.62795675, -0.41681293, -0.5073666, -0.4177452, 0.06303602, 0.07583437, 0.09666824, 0
301, 1413506724, 0.6280573, -0.416984, -0.5071934, -0.4176337, 0.07028993, 0.0037154565, 0.14475536, 0
302, 1413523391, 0.6281537, -0.41712078, -0.50705117, -0.41752476, 0.14396805, -0.0023665552, 0.125494, 0
303, 1413540058, 0.628244, -0.41722536, -0.5069231, -0.41744, 0.12650163, -0.049212635, -0.04238987, 0
304, 1413556725, 0.6283225, -0.41730845, -0.5068369, -0.4173432, 0.048715767, -0.14644077, -0.011099815, 0
305, 1413573392, 0.62838376, -0.41739506, -0.50676143, -0.41725588, 0.061303344, -0.15454178, -0.0029325485, 0
306, 1413590059, 0.62843543, -0.41747597, -0.5066844, -0.41719055, 0.13410218, -0.17348517, 0.08996296, 0
307, 1413606726, 0.62848246, -0.41752818, -0.5066301, -0.41713357, 0.23360144, -0.15978561, 0.016318321, 0
308, 1413623393, 0.62851816, -0.4175603, -0.50657743, -0.41711158, 0.20100789, -0.20241289, 0.039567947, 0
309, 1413640060, 0.62856096, -0.41759354, -0.50652313, -0.4170798, 0.16546418, -0.2447849, 0.035959244, 0
310, 1413656727, 0.6286119, -0.41763976, -0.50645685, -0.4170371, 0.13266723, -0.22541304, -0.0110788345, 0
311, 1413673394, 0.6286967, -0.41766393, -0.5063955, -0.41695973, 0.15677646, -0.23122862, 0.031122208, 0
312, 1413690061, 0.62877077, -0.41771638, -0.50633544, -0.41686848, 0.116991155, -0.23504354, 0.022262573, 0
313, 1413706728, 0.62886685, -0.41777217, -0.506265, -0.41675317, 0.09211623, -0.21886215, 0.022735596, 0
314, 1413723395, 0.6289471, -0.41787085, -0.5061689, -0.41664973, 0.21433127, -0.18980877, 0.05154133, 0
315, 1413740062, 0.62902486, -0.41794202, -0.50608855, -0.4165584, 0.22326642, -0.17032962, 0.03885269, 0
316, 1413756729, 0.629111, -0.4179996, -0.50601417, -0.41646102, 0.09311505, -0.18253118, -0.04188633, 0
317, 1413773396, 0.6291872, -0.41809613, -0.5059228, -0.41636002, 0.009994606, -0.1549964, -0.0019569397, 0
318, 1413790063, 0.6292813, -0.41819802, -0.5058401, -0.41621596, 0.10015951, -0.040254906, 0.040964127, 0
319, 1413806730, 0.6293747, -0.41830847, -0.5057412, -0.41608408, 0.13175999, 0.03670619, 0.10610771, 0
320, 1413823397, 0.62947774, -0.41840407, -0.5056427, -0.4159516, 0.06858696, 0.06301389, 0.09923744, 0
321, 1413840064, 0.62957925, -0.41851893, -0.50553495, -0.4158135, 0.0072020344, 0.013399155, 0.10337639, 0
322, 1413856731, 0.62968546, -0.4186429, -0.50541437, -0.4156744, 0.06710954, 0.028657937, 0.044973373, 0
323, 1413873398, 0.6297934, -0.41873947, -0.5053196, -0.41552883, 0.14139766, 0.07797853, 0.03215885, 0
324, 1413890065, 0.62987816, -0.4188129, -0.50524974, -0.41541117, 0.073559456, 0.06691732, 0.021056175, 0
325, 1413906732, 0.62994003, -0.41891506, -0.5051664, -0.4153157, -0.006128278, 0.06517973, 0.110980034, 0
326, 1413923399, 0.6300224, -0.41901565, -0.5050732, -0.4152027, 0.004185029, 0.115781255, 0.11938667, 0
327, 1413940066, 0.63012695, -0.41909954, -0.50497305, -0.41508132, 0.060471877, 0.12584628, 0.10761356, 0
328, 1413956733, 0.6302405, -0.41918048, -0.50488394, -0.41493538, 0.019932885, 0.093251616, 0.12853432, 0
329, 1413973400, 0.63034016, -0.41928732, -0.50479054, -0.41478965, 0.036187865, 0.12612814, 0.05613041, 0
330, 1413990067, 0.63043267, -0.41940004, -0.50468224, -0.4146671, 0.057209034, 0.1043544, 0.06636429, 0
331, 1414006734, 0.6305436, -0.41947982, -0.5045947, -0.4145242, 0.0398727, 0.11064987, 0.08103466, 0
332, 1414023401, 0.6306426, -0.41957203, -0.5045082, -0.41438565, -0.032737944, 0.096212044, 0.059620857, 0
333, 1414040068, 0.63072926, -0.41969362, -0.50439686, -0.41426596, -0.052745704, 0.096187234, 0.06331158, 0
334, 1414056735, 0.6308143, -0.4198078, -0.504309, -0.41412786, 0.16660902, 0.29206774, -0.0469656, 0
335, 1414073402, 0.6308711, -0.41991878, -0.504239, -0.41401356, 0.025974441, 0.331811, 0.007907867, 0
336, 1414090069, 0.63097733, -0.42004085, -0.5041504, -0.41383597, -0.21118778, 0.28117773, 0.37493134, 0
337, 1414106736, 0.6311256, -0.4202294, -0.50396085, -0.4136492, -0.2954649, 0.29824877, 0.25203323, 0
338, 1414123403, 0.63130945, -0.42043024, -0.50374997, -0.41342133, 0.120312706, 0.059406176, 0.18249321, 0
339, 1414140070, 0.63145643, -0.42061374, -0.5035693, -0.41323036, 0.2412876, -0.11804703, -0.1730957, 0
340, 1414156737, 0.6315457, -0.4208197, -0.50341743, -0.41306943, 0.24950461, -0.520966, -0.2279892, 0
341, 1414173404, 0.6316059, -0.42101753, -0.5032945, -0.41292548, 0.2636371, -0.8005246, -0.026964188, 0
342, 1414190071, 0.63164914, -0.42117012, -0.5032067, -0.41281074, 0.3169228, -0.80900025, -0.06769562, 0
343, 1414206738, 0.63169783, -0.42122495, -0.50317764, -0.41271552, 0.26183715, -0.7901212, 0.042229652, 0
344, 1414223405, 0.631739, -0.42123875, -0.5031526, -0.41266897, 0.20083578, -0.6594296, 0.1005888, 0
345, 1414240072, 0.631764, -0.4212001, -0.5031521, -0.4126708, 0.24684122, -0.5606494, 0.1042881, 0
346, 1414256739, 0.63176906, -0.42112365, -0.5031771, -0.41271058, 0.2890141, -0.5109546, -0.06636429, 0
347, 1414273406, 0.6317448, -0.4209933, -0.5032647, -0.4127738, 0.09562063, -0.47807857, -0.06650448, 0
348, 1414290073, 0.63172114, -0.42087045, -0.50335306, -0.41282782, -0.05850943, -0.4139107, 0.023057938, 0
349, 1414306740, 0.63168263, -0.42076194, -0.50344527, -0.41288477, 0.062037364, -0.22082789, 0.03081131, 0
350, 1414323407, 0.6316115, -0.42062065, -0.5035763, -0.41297767, 0.13941196, -6.059436E-4, 0.04129505, 0
351, 1414340074, 0.63150895, -0.4204501, -0.5037328, -0.41311744, 0.027257556, 0.1768762, 0.058879852, 0
352, 1414356741, 0.6314076, -0.4202354, -0.5039079, -0.41327733, -0.1241724, 0.29345396, 0.12537766, 0
353, 1414373408, 0.631278, -0.42006505, -0.504048, -0.41347748, -0.18898669, 0.4608828, 0.24352074, 0
354, 1414390075, 0.6312054, -0.4198648, -0.50420463, -0.41360083, -0.25558504, 0.64532435, 0.2239151, 0
355, 1414406742, 0.6311142, -0.41970623, -0.50431734, -0.41376346, -0.168877, 0.7307687, 0.30048943, 0
356, 1414423409, 0.6310085, -0.41956782, -0.5044041, -0.41395932, -0.15476686, 0.79002553, 0.21043491, 0
357, 1414440076, 0.6308777, -0.4194517, -0.5044801, -0.41418365, -0.18834119, 0.76572967, 0.08080292, 0
358, 1414456743, 0.6307477, -0.4193463, -0.50456446, -0.41438547, -0.22335248, 0.7168121, 0.086488724, 0
359, 1414473410, 0.63063335, -0.41923794, -0.5046417, -0.41457516, -0.1682429, 0.7057303, 0.16903496, 0
360, 1414490077, 0.63051176, -0.41911274, -0.50473344, -0.4147748, -0.18853094, 0.7164672, 0.14229012, 0
361, 1414506744, 0.6303671, -0.41901574, -0.50482225, -0.41498446, -0.24454619, 0.66304785, 0.1784172, 0
362, 1414523411, 0.63022727, -0.41894478, -0.5048966, -0.41517812, -0.23427086, 0.613187, 0.2032566, 0
363, 1414540078, 0.63007796, -0.41890454, -0.50494236, -0.41538954, -0.10078935, 0.5683663, 0.10995293, 0
364, 1414556745, 0.62993234, -0.41884074, -0.50501627, -0.41558504, -0.026426384, 0.48999694, 0.097307205, 0
365, 1414573412, 0.6297887, -0.41878042, -0.50508976, -0.41577426, -0.023786025, 0.5043809, 0.14178753, 0
366, 1414590079, 0.6296589, -0.41873044, -0.50512993, -0.41597205, 0.019767039, 0.46043602, 0.19308662, 0
367, 1414606746, 0.6295409, -0.41867337, -0.50518453, -0.41614166, 0.031956095, 0.4265309, 0.11526871, 0
368, 1414623413, 0.62943137, -0.4186219, -0.5052234, -0.416312, -0.025845027, 0.31405315, 0.11397934, 0
369, 1414640080, 0.62934214, -0.4186026, -0.5052485, -0.41643605, -0.04557988, 0.26309553, 0.11622238, 0
370, 1414656747, 0.62925345, -0.4185997, -0.50526696, -0.41655055, 0.08107888, 0.21562138, 0.11974144, 0
371, 1414673414, 0.62918717, -0.41858438, -0.5052825, -0.41664702, 0.17083229, 0.15442152, 0.12107277, 0
372, 1414690081, 0.62912095, -0.4185546, -0.50528926, -0.41676882, 0.10623347, 0.13836369, 0.13702965, 0
373, 1414706748, 0.62905276, -0.4185465, -0.5052865, -0.4168831, 0.05544552, 0.12294107, 0.09324074, 0
374, 1414723415, 0.6290119, -0.41852027, -0.50528646, -0.41697082, 0.11867599, 0.1241601, 0.052721024, 0
375, 1414740082, 0.62898755, -0.41848078, -0.50529647, -0.41703513, 0.11937557, 0.109194726, 0.09132862, 0
376, 1414756749, 0.62897444, -0.4184563, -0.50528806, -0.41709, 0.07625435, 0.056595493, 0.06165409, 0
377, 1414773416, 0.6289703, -0.41846633, -0.5052647, -0.41711435, 0.0800011, 0.06495376, 0.052801132, 0
378, 1414790083, 0.6289914, -0.418505, -0.5052114, -0.41710818, 0.1344312, 0.054573596, 0.0034780502, 0
379, 1414806750, 0.629029, -0.41856298, -0.5051572, -0.41705912, 0.13326848, 0.09772344, 0.06385136, 0
380, 1414823417, 0.6290733, -0.41866016, -0.50506824, -0.41700238, 0.10818407, 0.087861605, 0.06507206, 0
381, 1414840084, 0.6291518, -0.41877443, -0.50496346, -0.4168962, 0.10188883, 0.09600351, 0.12573433, 0
382, 1414856751, 0.62926906, -0.4188771, -0.5048724, -0.4167264, 0.14235562, 0.054513246, 0.09912014, 0
383, 1414873418, 0.62938696, -0.41902164, -0.5047414, -0.4165619, 0.118963204, 0.08798833, 0.05344677, 0
384, 1414890085, 0.62952346, -0.41917944, -0.50459343, -0.41637588, 0.09188081, 0.08532741, 0.015450478, 0
385, 1414906752, 0.6296541, -0.41937596, -0.5044233, -0.41618657, 0.12375376, 0.049657874, 0.13952923, 0
386, 1414923419, 0.6297813, -0.41960195, -0.50421566, -0.4160178, 0.11083985, 0.06317326, 0.11044407, 0
387, 1414940086, 0.62996304, -0.41975987, -0.5040483, -0.415786, 0.086981855, 0.06967815, 0.075161934, 0
388, 1414956753, 0.6301465, -0.41995347, -0.503866, -0.41553336, 0.059814513, 0.07274508, 0.06957817, 0
389, 1414973420, 0.63033384, -0.42015216, -0.5036695, -0.41528672, 0.07530844, 0.07030712, 0.09526634, 0
390, 1414990087, 0.6305291, -0.4203612, -0.5034751, -0.41501445, 0.073534645, 0.1090294, 0.08720398, 0
391, 1415006754, 0.63074654, -0.42054975, -0.5032808, -0.41472852, 0.07366093, 0.10611881, 0.064780235, 0
392, 1415023421, 0.63096243, -0.4207357, -0.50307786, -0.41445777, 0.042111404, 0.07113054, 0.07617664, 0
393, 1415040088, 0.63118106, -0.42093706, -0.5028714, -0.4141708, 0.056405284, 0.10902761, 0.03496456, 0
394, 1415056755, 0.63139224, -0.42116746, -0.5026522, -0.41388047, 0.04009107, 0.13842694, 0.024451256, 0
395, 1415073422, 0.63160926, -0.42139465, -0.50243294, -0.41358414, 0.016851312, 0.06762899, 0.15384865, 0
396, 1415090089, 0.63186437, -0.4216161, -0.5022116, -0.41323784, -0.012548017, 0.03337406, 0.084955215, 0
397, 1415106756, 0.6320882, -0.42188454, -0.50195444, -0.41293398, 0.020376336, -0.039551288, 0.05150509, 0
398, 1415123423, 0.6323005, -0.4221519, -0.50171375, -0.4126278, 0.04839145, -0.018900702, 0.03841591, 0
399, 1415140090, 0.6324928, -0.42239147, -0.5014908, -0.41235882, 0.015498612, -0.0040326207, 0.0522213, 0
400, 1415156757, 0.6326506, -0.42261556, -0.50127256, -0.41215256, -0.0378901, -0.04817421, 0.072250366, 0
401, 1415173424, 0.63279253, -0.42281753, -0.5010943, -0.4119443, -0.018194402, -0.07290792, 0.1223011, 0
402, 1415190091, 0.63292444, -0.42298624, -0.50092804, -0.41177052, -0.02314432, -0.078429356, 0.09614754, 0
403, 1415206758, 0.6330284, -0.4231352, -0.5007676, -0.41165298, -0.03307679, -0.08545705, 0.055286407, 0
404, 1415223425, 0.6331065, -0.42325482, -0.5006447, -0.41155913, -0.049730513, -0.08419666, -0.0026140213, 0
405, 1415240092, 0.6331651, -0.42334372, -0.5005569, -0.41148436, -0.025546636, -0.100347705, 0.06707668, 0
406, 1415256759, 0.63320756, -0.423375, -0.5005097, -0.41144428, 0.037565824, -0.09844136, 0.1461401, 0
407, 1415273426, 0.63321036, -0.42338777, -0.5004843, -0.4114578, 0.038095325, -0.06805478, 0.07025623, 0
408, 1415290093, 0.6331934, -0.42335185, -0.50049907, -0.41150308, 0.037971947, -0.11705999, 0.021580696, 0
409, 1415306760, 0.6331423, -0.42330062, -0.5005372, -0.41158766, 0.023657057, -0.119342506, -0.008710861, 0
410, 1415323427, 0.6330724, -0.42322484, -0.5005966, -0.411701, 0.03734298, -0.13333128, 0.040477753, 0
411, 1415340094, 0.6329796, -0.42314318, -0.50066537, -0.41184404, 0.030347025, -0.096350625, 0.10479736, 0
412, 1415356761, 0.6328788, -0.42305455, -0.50073844, -0.41200116, 0.013405637, -0.05767886, 0.06809139, 0
413, 1415373428, 0.6327866, -0.42294767, -0.50082123, -0.4121518, 0.056363456, -0.07818908, 0.06722641, 0
414, 1415390095, 0.63268846, -0.4228243, -0.5009243, -0.41230386, 0.049062435, -0.056429647, 0.08828068, 0
415, 1415406762, 0.63257, -0.42269054, -0.501034, -0.41248927, 0.03156316, -0.04636419, 0.048339844, 0
416, 1415423429, 0.6324509, -0.42253435, -0.501155, -0.41268516, 0.07005723, -0.022920806, 0.051241875, 0
417, 1415440096, 0.63230777, -0.42236316, -0.5012906, -0.41291457, 0.102420345, -0.027821999, 0.10700607, 0
418, 1415456763, 0.63215685, -0.4221668, -0.50143826, -0.413167, 0.059883814, -0.003758147, 0.091944695, 0
419, 1415473430, 0.6320044, -0.42196766, -0.5015886, -0.41342133, 0.012693748, -0.014290748, 0.039834023, 0
420, 1415490097, 0.6318655, -0.42175665, -0.5017636, -0.41363636, 0.024996124, 0.014550917, -0.04258728, 0
421, 1415506764, 0.6317069, -0.4215767, -0.50191694, -0.41387588, 0.089334555, 0.057223786, 0.09041691, 0
422, 1415523431, 0.6315582, -0.4213944, -0.5020698, -0.41410306, 0.03913086, 0.14542647, 0.14839077, 0
423, 1415540098, 0.63141984, -0.42122892, -0.50220156, -0.4143227, -0.008708064, 0.17725785, 0.10970974, 0
424, 1415556765, 0.63129365, -0.42110324, -0.502293, -0.41453207, 0.0052869753, 0.23079434, 0.032066345, 0
425, 1415573432, 0.631181, -0.42097792, -0.5024123, -0.41468605, 0.050546434, 0.21510556, 0.084459305, 0
426, 1415590099, 0.63105667, -0.42087662, -0.5024918, -0.41488197, 0.060726237, 0.2096243, 0.11500549, 0
427, 1415606766, 0.630962, -0.42075965, -0.5025798, -0.4150379, -0.006465783, 0.20454945, 0.05570507, 0
428, 1415623433, 0.6308505, -0.42068848, -0.5026328, -0.41521543, 0.022575032, 0.16243401, 0.080319405, 0
429, 1415640100, 0.6307469, -0.42061913, -0.5026921, -0.41537088, 0.0062657385, 0.20587823, 0.10247517, 0
430, 1415656767, 0.6306567, -0.4205436, -0.5027538, -0.4155096, -0.013198216, 0.19888005, 0.080433846, 0
431, 1415673434, 0.63057685, -0.42045128, -0.5028326, -0.41562882, 0.01549593, 0.22064506, 0.02511692, 0
432, 1415690101, 0.6304744, -0.4203902, -0.5029038, -0.41576022, 0.021942938, 0.14753017, 0.08817482, 0
433, 1415706768, 0.6303726, -0.42033157, -0.5029725, -0.41589072, 0.030324226, 0.17308106, 0.067445755, 0
434, 1415723435, 0.6302881, -0.42025837, -0.5030467, -0.416003, 0.010341497, 0.17018254, 0.12994576, 0
435, 1415740102, 0.63021696, -0.42017096, -0.5031235, -0.41610608, 0.005795244, 0.08301003, 0.19294548, 0
436, 1415756769, 0.6301419, -0.42010593, -0.5031692, -0.41623026, 0.12628639, 0.059609342, 0.14758682, 0
437, 1415773436, 0.6300927, -0.42002743, -0.503215, -0.41632837, 0.2569514, 0.16432717, -0.09904957, 0
438, 1415790103, 0.6300266, -0.4199894, -0.50325847, -0.41641426, -0.023200594, -0.20435368, 0.065013885, 0
439, 1415806770, 0.6299932, -0.41999733, -0.5032728, -0.4164396, 0.037657462, 0.044040322, -0.07123947, 0
440, 1415823437, 0.6299415, -0.41996378, -0.5033103, -0.41650617, -0.047443308, -0.04055777, 0.283844, 0
441, 1415840104, 0.62985337, -0.41994825, -0.50331575, -0.4166485, -0.07977088, 0.065177046, -0.0013065338, 0
442, 1415856771, 0.6297653, -0.4197219, -0.5034648, -0.4168298, 0.103827134, 0.035905123, 0.13284492, 0
443, 1415873438, 0.62960213, -0.4196548, -0.5035486, -0.4170424, -0.20231834, -0.0073497766, 0.054431915, 0
444, 1415890105, 0.62948275, -0.41959414, -0.5036388, -0.41717488, 0.21064733, 0.3759097, -0.17590427, 0
445, 1415906772, 0.6293979, -0.41942492, -0.50376457, -0.41732094, 0.24551848, 0.3646538, 0.12290192, 0
446, 1415923439, 0.6292705, -0.4192846, -0.50389737, -0.41749364, 0.15379748, 0.24406587, 0.19585896, 0
447, 1415940106, 0.6291608, -0.4190923, -0.50403637, -0.41768432, -0.06556909, 0.14331405, 0.3725872, 0
448, 1415956773, 0.6290922, -0.41882727, -0.50415635, -0.41790852, 0.18452112, -0.12259574, 0.24206638, 0
449, 1415973440, 0.6289911, -0.41844216, -0.5044478, -0.4180947, 0.32682243, -0.3694345, -0.34298992, 0
450, 1415990107, 0.62880206, -0.4180629, -0.50478554, -0.41835102, 0.1949267, -0.62937874, -0.21800137, 0
451, 1416006774, 0.62864757, -0.4177296, -0.504998, -0.41865963, -0.0016569016, -1.1030926, 0.044436455, 0
452, 1416023441, 0.6285311, -0.41753137, -0.5051301, -0.41887245, 0.31141657, -1.5141926, -0.01958847, 0
453, 1416040108, 0.6284167, -0.41739056, -0.50524503, -0.41904595, 0.73457444, -1.3334537, -0.16420078, 0
454, 1416056775, 0.6283346, -0.41720647, -0.5053482, -0.4192281, 0.20716476, -1.5610125, -0.0181036, 0
455, 1416073442, 0.6283037, -0.41710985, -0.5054019, -0.41930583, -0.07632654, -1.4175256, -0.076725006, 0
456, 1416090109, 0.62823874, -0.41719222, -0.5053524, -0.41938093, 0.59538776, -0.86439323, -0.2323122, 0
457, 1416106776, 0.6281518, -0.41719425, -0.50538963, -0.41946393, 0.8576693, -0.4363346, -0.06011963, 0
458, 1416123443, 0.6281449, -0.41711578, -0.5054364, -0.41949597, 0.09098698, -0.20840237, 0.12322712, 0
459, 1416140110, 0.6281373, -0.4172067, -0.5053517, -0.41951892, -0.26412103, -0.12463775, 0.114066124, 0
460, 1416156777, 0.6281356, -0.41738102, -0.5052245, -0.41950145, 0.010013827, 0.24778065, -0.06500816, 0
461, 1416173444, 0.6282023, -0.41750556, -0.50512445, -0.4193982, 0.20920768, 0.46125296, -0.034100533, 0
462, 1416190111, 0.62828207, -0.41766673, -0.5050374, -0.41922298, -0.05305857, 0.7066526, 0.19925213, 0
463, 1416206778, 0.62838346, -0.4178697, -0.504895, -0.4190404, -0.05210847, 1.021851, 0.39617062, 0
464, 1416223445, 0.6284383, -0.41808158, -0.5047229, -0.41895416, -0.02386403, 1.2534596, 0.39568138, 0
465, 1416240112, 0.6285284, -0.41820654, -0.50458205, -0.41886365, -0.38272795, 1.2942514, 0.28400898, 0
466, 1416256779, 0.6286708, -0.4182852, -0.50444514, -0.41873643, -0.5886477, 1.1375654, 0.16932106, 0
467, 1416273446, 0.6288005, -0.41838628, -0.504291, -0.41862646, -0.38083345, 0.9014081, 0.17063522, 0
468, 1416290113, 0.6288788, -0.4184825, -0.5041932, -0.4185305, 0.18980989, 0.9693321, -0.024518013, 0
469, 1416306780, 0.62889165, -0.41846597, -0.5042031, -0.41851553, 0.11070552, 0.8134066, 0.19414043, 0
470, 1416323447, 0.62888336, -0.41839135, -0.5042536, -0.41854182, -0.50284135, 0.5885181, 0.37999058, 0
471, 1416340114, 0.62891126, -0.41839927, -0.5042264, -0.41852474, -0.4480051, 0.42066234, 0.26414394, 0
472, 1416356781, 0.62896407, -0.418474, -0.50414693, -0.41846633, 0.21077563, 0.42684, 0.037226677, 0
473, 1416373448, 0.6290198, -0.41850707, -0.5041335, -0.41836578, 0.34202534, 0.43588558, -0.17142296, 0
474, 1416390115, 0.62908196, -0.4186303, -0.50407153, -0.41822392, 0.00817901, 0.25629425, 0.101343155, 0
475, 1416406782, 0.6291628, -0.41890195, -0.5038952, -0.41804236, -0.11477283, 0.25381324, 0.20911121, 0
476, 1416423449, 0.62929, -0.4192098, -0.50366116, -0.4178246, 0.04466817, 0.26694176, 0.24538994, 0
477, 1416440116, 0.62947047, -0.41945785, -0.5034594, -0.41754657, 0.18994579, 0.25914672, 0.14272594, 0
478, 1416456783, 0.62969637, -0.4196577, -0.50324106, -0.4172683, 0.10132758, -0.010878823, 0.24713612, 0
479, 1416473450, 0.62992215, -0.4199112, -0.50298303, -0.41698352, 0.08269644, -0.17344964, 0.14211845, 0
480, 1416490117, 0.6301334, -0.42016408, -0.50273377, -0.4167102, 0.1959348, -0.18018453, 0.08285999, 0
481, 1416506784, 0.630348, -0.42035967, -0.5025279, -0.41643664, 0.1229804, -0.24076167, -0.05571556, 0
482, 1416523451, 0.630576, -0.42050013, -0.50237274, -0.41613662, 0.12221376, -0.25869322, 0.034018517, 0
483, 1416540118, 0.6307565, -0.4205924, -0.5022374, -0.41593304, 0.1412166, -0.34316683, 0.08183193, 0
484, 1416556785, 0.6308884, -0.4206665, -0.50212586, -0.41579297, 0.023973776, -0.468092, -0.078502655, 0
485, 1416573452, 0.63099754, -0.42073667, -0.50205714, -0.41563925, 0.14239071, -0.5485922, -0.24297905, 0
486, 1416590119, 0.6310646, -0.42076975, -0.5020371, -0.4155281, 0.11809754, -0.63739926, 0.028658867, 0
487, 1416606786, 0.6311232, -0.42081255, -0.50199056, -0.41545197, -0.087708816, -0.5277656, 0.16389656, 0
488, 1416623453, 0.6311803, -0.42089337, -0.5019012, -0.41539136, 0.15050423, -0.4950689, 0.02787304, 0
489, 1416640120, 0.63122624, -0.42097485, -0.50184107, -0.4153117, 0.33842677, -0.37928584, -0.09495735, 0
490, 1416656787, 0.63127345, -0.4210261, -0.5018136, -0.415221, 0.17808774, -0.20842002, 0.028769493, 0
491, 1416673454, 0.631313, -0.42111418, -0.50175375, -0.4151439, -0.09151291, -0.040676005, 0.099606514, 0
492, 1416690121, 0.6313753, -0.42123455, -0.50166374, -0.41503596, -0.12315832, 0.08937568, 0.15081596, 0
493, 1416706788, 0.63146925, -0.4213648, -0.5015246, -0.41492876, 0.030420784, 0.19123344, 0.17542934, 0
494, 1416723455, 0.63156956, -0.42147595, -0.5013979, -0.41481647, 0.17681774, 0.21298192, 0.21244717, 0
495, 1416740122, 0.6317102, -0.42156973, -0.501268, -0.41466397, 0.046549257, 0.2277863, 0.17113018, 0
496, 1416756789, 0.6318659, -0.42169422, -0.50109076, -0.41451418, 0.05277208, 0.12418536, 0.11705971, 0
497, 1416773456, 0.63202226, -0.4218447, -0.50088984, -0.4143658, 0.12669116, -0.03402918, 0.21385956, 0
498, 1416790123, 0.6322176, -0.42196888, -0.5006756, -0.41420045, 0.08268079, -0.21181719, 0.2777357, 0
499, 1416806790, 0.63247585, -0.42209262, -0.50042856, -0.41397846, 0.07543719, -0.37122306, 0.37481022, 0
500, 1416823457, 0.6327596, -0.42226672, -0.50010043, -0.41376346, 0.19264945, -0.50896144, 0.54351044, 0
501, 1416840124, 0.63308036, -0.42245197, -0.49972025, -0.41354313, 0.5417923, -0.5623313, 0.6176853, 0
502, 1416856791, 0.63342744, -0.4225473, -0.49934036, -0.41337326, 0.44975477, -0.5189553, 0.116888046, 0
503, 1416873458, 0.6337234, -0.4225819, -0.4989933, -0.41330317, 0.19459172, -0.6906528, -0.4985218, 0
504, 1416890125, 0.6339063, -0.42260802, -0.498755, -0.41328374, 0.066959344, -0.9797744, -0.71220684, 0
505, 1416906792, 0.63400596, -0.4226793, -0.49855608, -0.4132978, -0.05665472, -1.1723311, -0.39877033, 0
506, 1416923459, 0.63413346, -0.4227011, -0.4984472, -0.41321138, 0.24799813, -1.150564, -0.19351387, 0
507, 1416940126, 0.63423896, -0.42269835, -0.498376, -0.41313812, 0.5126337, -0.9626439, -0.40084934, 0
508, 1416956793, 0.6342837, -0.42275965, -0.49829364, -0.4131057, 0.43474945, -0.86192137, -0.61795425, 0
509, 1416973460, 0.6343074, -0.42285508, -0.49822304, -0.41305688, -0.085822046, -1.2515577, -0.28153706, 0
510, 1416990127, 0.63437164, -0.42293787, -0.49813318, -0.41298187, 0.19443057, -1.5013242, 0.0529871, 0
511, 1417006794, 0.6344024, -0.4229199, -0.49810672, -0.41298512, 1.0974462, -1.3727989, -0.2391777, 0
512, 1417023461, 0.634406, -0.42286608, -0.4981437, -0.4129901, 0.5881446, -1.5557479, -0.43076515, 0
513, 1417040128, 0.6344694, -0.42289484, -0.49816498, -0.4128375, 0.23412132, -1.793284, -0.15493965, 0
514, 1417056795, 0.6345327, -0.42302552, -0.49808222, -0.4127062, 0.43390816, -1.8210704, 0.050117493, 0
515, 1417073462, 0.634621, -0.42307398, -0.49802995, -0.41258377, 0.7891847, -1.7809939, -0.010107994, 0
516, 1417090129, 0.6347121, -0.42305037, -0.4980166, -0.41248405, 0.524403, -1.6900226, -0.0780468, 0
517, 1417106796, 0.63482416, -0.42308024, -0.49794698, -0.412365, 0.5690767, -1.6990348, -0.22633839, 0
518, 1417123463, 0.6349319, -0.4231602, -0.49785164, -0.41223198, 0.71526045, -1.7196758, -0.14683533, 0
519, 1417140130, 0.63503665, -0.42321226, -0.49779153, -0.41208977, 0.6759141, -1.8686501, -0.30430317, 0
520, 1417156797, 0.6351181, -0.42324045, -0.4977857, -0.4119424, 0.4289797, -2.0986915, -0.104548454, 0
521, 1417173464, 0.6351569, -0.4232533, -0.4978331, -0.41181216, 0.40561745, -2.0664096, -0.33382988, 0
522, 1417190131, 0.635187, -0.4232113, -0.49788642, -0.4117444, 0.6590501, -1.9471512, -0.28220558, 0
523, 1417206798, 0.63514334, -0.423166, -0.49799427, -0.41172782, 0.6704193, -2.1118464, -0.34500408, 0
524, 1417223465, 0.63508266, -0.42312115, -0.49811062, -0.41172683, 0.49056557, -2.2363567, -0.09419823, 0
525, 1417240132, 0.63499415, -0.4230697, -0.49822715, -0.41177523, 0.34172633, -2.3315396, -0.19956017, 0
526, 1417256799, 0.6349003, -0.42289835, -0.49836585, -0.4119283, 0.47845584, -2.1537411, -0.08715916, 0
527, 1417273466, 0.6347773, -0.42262253, -0.49853596, -0.4121947, 0.6426458, -2.4436042, 0.029079437, 0
528, 1417290133, 0.6345788, -0.42228246, -0.49877903, -0.4125548, 0.48379827, -2.6335766, -0.76948166, 0
529, 1417306800, 0.63428736, -0.4218852, -0.49912968, -0.412985, 0.52219486, -2.7928572, -0.6294317, 0
530, 1417323467, 0.6338917, -0.42139277, -0.49964747, -0.413469, 0.69782376, -3.0857317, -0.4706211, 0
531, 1417340134, 0.6334176, -0.42076266, -0.5002621, -0.41409338, 0.681489, -3.0068738, -0.9098482, 0
532, 1417356801, 0.6328633, -0.4201039, -0.5009172, -0.4148172, 0.42996114, -3.18784, -0.5474453, 0
533, 1417373468, 0.63224685, -0.41941434, -0.50161475, -0.41561148, 0.6995578, -3.3835614, -0.10560799, 0
534, 1417390135, 0.6315671, -0.41856652, -0.5024261, -0.41651884, 1.26355, -3.6420832, -0.21068096, 0
535, 1417406802, 0.63075894, -0.41764882, -0.5033789, -0.41751277, 0.9034697, -3.636803, -1.0253143, 0
536, 1417423469, 0.6299195, -0.41675082, -0.50429016, -0.41857624, 0.83822054, -4.005671, 0.16056442, 0
537, 1417440136, 0.62907916, -0.4159155, -0.505111, -0.41967994, 0.73431265, -4.3065267, -0.45486164, 0
538, 1417456803, 0.62824667, -0.41507554, -0.5059438, -0.42075387, 0.76037216, -4.1949005, -0.5221224, 0
539, 1417473470, 0.6273952, -0.4141631, -0.50683814, -0.4218458, 1.1304069, -4.3500805, -0.2514391, 0
540, 1417490137, 0.6265067, -0.41320032, -0.5077183, -0.42305055, 1.0817993, -4.3546, -0.6175251, 0
541, 1417506804, 0.6254968, -0.41224808, -0.50863004, -0.42437664, 0.961984, -4.0806723, -0.60880756, 0
542, 1417523471, 0.6244312, -0.4112607, -0.5095298, -0.42582196, 0.92547584, -4.256619, -0.38565636, 0
543, 1417540138, 0.6233382, -0.4100883, -0.5104382, -0.427463, 0.2518819, -3.9465244, -0.4008608, 0
544, 1417556805, 0.622135, -0.4089832, -0.5114589, -0.4290516, 0.169685, -4.567616, -0.22754097, 0
545, 1417573472, 0.6208049, -0.40796873, -0.51245475, -0.4307524, -0.06649108, -3.3287597, -2.2661438, 0
546, 1417590139, 0.6194594, -0.40696368, -0.51331186, -0.4326154, 0.12231769, -3.483007, -1.5476427, 0
547, 1417606806, 0.61800003, -0.4061537, -0.5142085, -0.43439534, 0.7969297, -4.5724077, -0.9764137, 0
548, 1417623473, 0.6162776, -0.40575558, -0.51535565, -0.4358529, 0.49040496, -3.361183, -2.394948, 0
549, 1417640140, 0.61458397, -0.405546, -0.5163969, -0.43720457, 0.75398153, -2.2060397, -0.23741722, 0
550, 1417656807, 0.6129282, -0.4057431, -0.5171465, -0.43845832, 0.46060142, -1.7820656, -0.05932045, 0
551, 1417673474, 0.61140937, -0.40624094, -0.5175783, -0.4396071, -0.42628548, 0.63871187, -0.7060623, 0
552, 1417690141, 0.61011255, -0.40691188, -0.51769346, -0.44065127, -1.006665, 0.1230783, 1.2268276, 0
553, 1417706808, 0.60897225, -0.40798372, -0.5176123, -0.4413322, -1.0900052, 1.0258291, 1.8009882, 0
554, 1417723475, 0.6079928, -0.40932834, -0.51731926, -0.44178087, -0.4198454, 1.7952858, 2.4592829, 0
555, 1417740142, 0.60722965, -0.41079012, -0.51671207, -0.4421843, -0.3117438, 2.2866027, 1.0413942, 0
556, 1417756809, 0.6066635, -0.41231894, -0.51580226, -0.44260058, -0.7145383, 1.9177402, 0.896081, 0
557, 1417773476, 0.606191, -0.41370514, -0.5149476, -0.44294944, -0.2858554, 1.9622881, 0.8478842, 0
558, 1417790143, 0.60589606, -0.4148193, -0.5140509, -0.44335216, -0.10111279, 2.5901859, 1.0043764, 0
559, 1417806810, 0.6057913, -0.41575292, -0.5130175, -0.4438177, -0.08049014, 2.7589393, 0.36354828, 0
560, 1417823477, 0.6057657, -0.41642368, -0.5120864, -0.4442988, 0.28574768, 2.5250232, 0.34453487, 0
561, 1417840144, 0.6056639, -0.4169019, -0.5113673, -0.44481692, -0.0885726, 2.6424317, -0.20619392, 0
562, 1417856811, 0.6055716, -0.41724265, -0.5108242, -0.44524696, -0.07985505, 2.495517, 1.3101921, 0
563, 1417873478, 0.6054836, -0.41731, -0.5104818, -0.445696, 0.12483467, 2.637611, 0.18029308, 0
564, 1417890145, 0.60534334, -0.41710693, -0.5104432, -0.44612056, 0.05564087, 2.5580056, -0.029978752, 0
565, 1417906812, 0.6052899, -0.4165548, -0.51056206, -0.44657296, 0.5657987, 2.9666052, 0.6670666, 0
566, 1417923479, 0.6052084, -0.41581586, -0.51079845, -0.44710127, 0.8053136, 2.292181, -0.035710335, 0
567, 1417940146, 0.60501736, -0.4149384, -0.51129967, -0.447602, 0.78447616, 1.8380712, 0.35984802, 0
568, 1417956813, 0.6048449, -0.4138362, -0.5120863, -0.44795573, 0.729144, 0.84369165, -1.3008795, 0
569, 1417973480, 0.6046567, -0.41267926, -0.51301056, -0.44821954, 1.0247222, 0.76198006, 0.0491848, 0
570, 1417990147, 0.60451776, -0.41142973, -0.5139752, -0.44845054, 1.2257361, 0.38326773, 0.6209812, 0
571, 1418006814, 0.6045373, -0.41017914, -0.5148354, -0.4485831, 0.6255278, 0.29236388, 0.6604805, 0
572, 1418023481, 0.604809, -0.4090897, -0.51546353, -0.44849044, 0.9621055, -0.31006745, -0.7171602, 0
573, 1418040148, 0.6052153, -0.4081468, -0.51608586, -0.44808552, 0.91909915, -0.9631106, -0.7336931, 0
574, 1418056815, 0.6057253, -0.4074098, -0.51657104, -0.44750768, 1.252263, -1.2328572, 0.013522148, 0
575, 1418073482, 0.6062821, -0.4068083, -0.5169679, -0.44684213, 0.7919462, -1.5781103, -0.4338026, 0
576, 1418090149, 0.60690945, -0.4062277, -0.5173381, -0.44608957, 0.55070573, -1.5577261, 0.27702808, 0
577, 1418106816, 0.6075459, -0.4057079, -0.5176103, -0.4453799, 0.53029656, -1.6707662, -0.34992218, 0
578, 1418123483, 0.60804844, -0.40524942, -0.51788145, -0.44479588, 0.71716946, -2.3658416, -0.58578205, 0
579, 1418140150, 0.60838497, -0.40477172, -0.5182695, -0.4443186, 0.4295244, -2.365894, 0.01167202, 0
580, 1418156817, 0.6085982, -0.40406534, -0.5188271, -0.44401878, 0.32454485, -2.2671976, -0.3585596, 0
581, 1418173484, 0.60867566, -0.40317693, -0.51957256, -0.44384834, 0.26750612, -2.4680703, 0.29741573, 0
582, 1418190151, 0.6087022, -0.40221187, -0.5203523, -0.443774, 0.025416777, -2.637148, -0.97020817, 0
583, 1418206818, 0.6086458, -0.4012554, -0.5212009, -0.44372123, 0.54409873, -2.3215976, -0.35398674, 0
584, 1418223485, 0.6084725, -0.4002546, -0.52216303, -0.44373167, 1.4107695, -2.384083, 0.18901443, 0
585, 1418240152, 0.60810256, -0.39920086, -0.52331406, -0.4438323, 1.0317537, -2.4056747, -0.31709194, 0
586, 1418256819, 0.60770005, -0.39807224, -0.5244347, -0.4440744, 0.14558382, -1.010204, -0.81818676, 0
587, 1418273486, 0.6074388, -0.39702836, -0.5252025, -0.44445843, 0.06495143, -1.3380235, 1.0786448, 0
588, 1418290153, 0.6073178, -0.3961561, -0.5256776, -0.44484055, 0.38289356, -1.4941568, -0.09457111, 0
589, 1418306820, 0.60718465, -0.39529815, -0.5261437, -0.4452345, 0.17984612, -1.8689811, 0.013906479, 0
590, 1418323487, 0.607075, -0.3944875, -0.5266144, -0.44554618, -0.1497758, -1.7791734, -0.2762785, 0
591, 1418340154, 0.6069776, -0.3939439, -0.52687, -0.44585785, -0.13654988, -1.9151685, 0.0062856674, 0
592, 1418356821, 0.60688525, -0.39357102, -0.52698433, -0.4461774, 0.46339154, -2.1498744, -0.40215206, 0
593, 1418373488, 0.60673356, -0.39323413, -0.52714753, -0.44648802, 0.32505333, -2.147284, -0.63418865, 0
594, 1418390155, 0.6064904, -0.39314243, -0.5272349, -0.44679555, 0.08693246, -1.999893, -0.25595093, 0
595, 1418406822, 0.6062475, -0.39325637, -0.5271747, -0.4470958, -0.10080993, -2.2654452, 0.104543686, 0
596, 1418423489, 0.6060662, -0.39350012, -0.5270296, -0.447298, -0.20578927, -2.2817392, 0.42998695, 0
597, 1418440156, 0.60586697, -0.39383307, -0.52679724, -0.44754887, -0.12605393, -2.2903452, -0.8159609, 0
598, 1418456823, 0.60551965, -0.39421597, -0.5266565, -0.44784713, 0.2794493, -2.4727094, -0.61580944, 0
599, 1418473490, 0.6050877, -0.39465404, -0.52650255, -0.4482263, 0.18232198, -2.532525, 0.7015619, 0
600, 1418490157, 0.60462224, -0.39511144, -0.5261654, -0.44884655, -0.48475736, -2.0274022, 1.3656597, 0
601, 1418506824, 0.6042335, -0.39537048, -0.5257591, -0.4496175, -0.7534832, -1.7419516, 0.86751175, 0
602, 1418523491, 0.6037987, -0.39540526, -0.52550703, -0.45046493, 0.055816103, -2.6325178, -1.7722406, 0
603, 1418540158, 0.60308146, -0.39546517, -0.52551824, -0.4513594, 0.08660915, -2.973847, -3.066516, 0
604, 1418556825, 0.6021818, -0.39554802, -0.525606, -0.4523847, 0.17296527, -3.1707113, -0.28243923, 0
605, 1418573492, 0.60106647, -0.39561808, -0.5258257, -0.45354947, 0.35519674, -3.6918378, 2.4269638, 0
606, 1418590159, 0.59972376, -0.39546928, -0.5264139, -0.45477286, 0.6669258, -3.0443661, 1.5031538, 0
607, 1418606826, 0.59828174, -0.39500448, -0.52712244, -0.4562531, 0.17786469, -2.1787019, -1.7934551, 0
608, 1418623493, 0.59697545, -0.39442152, -0.5275442, -0.4579777, -0.3366047, -0.83858484, -3.0513635, 0
609, 1418640160, 0.59556943, -0.39413688, -0.5278903, -0.45965183, 0.17003144, -1.1676974, -1.8256259, 0
610, 1418656827, 0.5942266, -0.39403147, -0.52803034, -0.461316, -0.39325964, -2.2488108, 3.4312553, 0
611, 1418673494, 0.59292775, -0.39413577, -0.5280996, -0.4628164, -1.087495, 1.3421441, -1.7960587, 0
612, 1418690161, 0.59185743, -0.39425337, -0.5279371, -0.4642695, -1.9242673, 1.767448, -0.31208515, 0
613, 1418706828, 0.5908644, -0.39475033, -0.52754503, -0.4655558, -1.996802, 0.517582, 1.6125908, 0
614, 1418723495, 0.5898292, -0.3956313, -0.5270246, -0.4667087, -1.230926, 2.873142, -1.4877434, 0
615, 1418740162, 0.58876604, -0.3965992, -0.5264576, -0.4678681, -0.9062543, 2.951535, -1.2574635, 0
616, 1418756829, 0.58753145, -0.39742282, -0.5259984, -0.46923575, -0.34493637, 0.5602683, 0.9211788, 0
617, 1418773496, 0.58565944, -0.39812937, -0.52625275, -0.4706896, 0.90035915, 2.0522192, -8.370178, 0
618, 1418790163, 0.5833564, -0.39919603, -0.5265591, -0.47230098, -4.5760455, 2.597057, 0.04284668, 0
619, 1418806830, 0.581539, -0.4010055, -0.52598035, -0.47365192, -4.535048, -2.8760748, 13.463921, 0
620, 1418823497, 0.58035, -0.4028392, -0.5249636, -0.4746812, -2.272374, 4.4690604, 1.0091591, 0
621, 1418840164, 0.5799448, -0.4037897, -0.5234009, -0.47609237, 0.26590845, 2.7360654, -2.841673, 0
622, 1418856831, 0.57913697, -0.40510467, -0.52189726, -0.477607, -1.287926, -2.332314, -1.2750845, 0
623, 1418873498, 0.57771254, -0.40782928, -0.5200867, -0.4789864, -2.079355, -2.4450247, 0.7686081, 0
624, 1418890165, 0.5762288, -0.41126907, -0.5177806, -0.48032907, -2.2657366, -0.10528885, 2.2330332, 0
625, 1418906832, 0.57531244, -0.41416767, -0.5153822, -0.4815149, -1.721796, 1.2907225, 1.752408, 0
626, 1418923499, 0.57479775, -0.4168485, -0.51283765, -0.4825322, -1.3397756, 1.4592414, 1.393055, 0
627, 1418940166, 0.574255, -0.41998467, -0.50988406, -0.48358756, -0.17702562, 1.4220643, -0.1022234, 0
628, 1418956833, 0.57354337, -0.4231497, -0.5069967, -0.48470744, 1.1856736, 1.4954756, -1.0314837, 0
629, 1418973500, 0.5728671, -0.42571872, -0.50458485, -0.48577335, 0.30059543, 1.3991216, 0.89382076, 0
630, 1418990167, 0.57239604, -0.42789924, -0.50249046, -0.48658293, -0.9272703, 1.8105663, 0.84439945, 0
631, 1419006834, 0.5722387, -0.4298664, -0.5004455, -0.4871413, 1.019779, 2.1911597, 0.24299335, 0
632, 1419023501, 0.5722576, -0.43147433, -0.49857157, -0.48761892, 3.1098535, 1.7768347, -1.095087, 0
633, 1419040168, 0.5723159, -0.43271253, -0.4971537, -0.48790085, 3.5488577, 1.4436929, -0.7559023, 0
634, 1419056835, 0.5724514, -0.4335963, -0.49622095, -0.4879066, 2.0159795, 0.37391338, -0.10297871, 0
635, 1419073502, 0.5728364, -0.43443143, -0.49544764, -0.48749754, 1.0013691, 0.68417674, -0.047984123, 0
636, 1419090169, 0.57346, -0.43504998, -0.4947745, -0.4868964, 2.0869436, 1.2703873, 0.33727837, 0
637, 1419106836, 0.57425904, -0.43514034, -0.49444452, -0.48620853, 3.3714924, 0.56739444, -0.1392088, 0
638, 1419123503, 0.57498884, -0.4350254, -0.49442622, -0.48546693, 2.1625934, -0.18645763, -0.39053917, 0
639, 1419140170, 0.57577753, -0.4348922, -0.49450952, -0.4845657, 1.2127047, -1.0270096, -0.28629017, 0
640, 1419156837, 0.57669157, -0.43475997, -0.49462762, -0.48347586, 0.94231296, -0.5712267, 0.1235199, 0
641, 1419173504, 0.57769585, -0.4345085, -0.49473676, -0.48239017, 1.7524236, -0.828453, 0.3440733, 0
642, 1419190171, 0.57872885, -0.43406904, -0.49507898, -0.48119476, 1.2895325, -0.9511084, -1.1315994, 0
643, 1419206838, 0.57979214, -0.43365863, -0.4953134, -0.48004228, 0.71356285, -1.2970256, -0.76102734, 0
644, 1419223505, 0.58068687, -0.43344194, -0.4955679, -0.4788923, 0.33794624, -1.6798412, 0.9241247, 0
645, 1419240172, 0.5815928, -0.43310508, -0.49590304, -0.4777497, 0.7218561, -1.4382259, 0.13221073, 0
646, 1419256839, 0.5823908, -0.43263462, -0.49642482, -0.4766606, 0.8899714, -1.2003087, -0.83082485, 0
647, 1419273506, 0.58318114, -0.4320901, -0.49691796, -0.47567305, 0.23405226, -0.67503685, 0.017217636, 0
648, 1419290173, 0.5839602, -0.43159068, -0.49732977, -0.47473946, 0.3270761, -1.8808161, 0.44901752, 0
649, 1419306840, 0.5845067, -0.43120995, -0.49789378, -0.47382095, 0.8639415, -1.3501529, -0.5823593, 0
650, 1419323507, 0.5849485, -0.43068558, -0.49859032, -0.47301948, 1.1217282, -0.8192458, 0.55674267, 0
651, 1419340174, 0.585397, -0.43012518, -0.49935853, -0.47216338, 0.23532271, -0.86250633, -0.707736, 0
652, 1419356841, 0.5860066, -0.42951947, -0.49996692, -0.47131413, 0.5219414, -0.626031, -0.3352852, 0
653, 1419373508, 0.58650434, -0.42892647, -0.5006605, -0.47049806, 1.4736906, -1.841658, 0.67979145, 0
654, 1419390175, 0.5869482, -0.42823866, -0.5014616, -0.4697171, 1.0191071, -1.0713605, -0.7699089, 0
655, 1419406842, 0.58741945, -0.42767334, -0.50212014, -0.46893936, 0.46112266, -1.122219, -0.032821655, 0
656, 1419423509, 0.58795595, -0.4271507, -0.5026188, -0.4682085, 0.660061, -0.65478766, 0.12573242, 0
657, 1419440176, 0.5885911, -0.42649066, -0.5030947, -0.46750018, 0.52777624, -0.9238631, -0.45917797, 0
658, 1419456843, 0.5892211, -0.4258086, -0.5036144, -0.46676815, 0.48339573, -1.3400714, 0.5401602, 0
659, 1419473510, 0.5897367, -0.42534238, -0.5040628, -0.46605763, 0.5471778, -1.9021757, -0.46237087, 0
660, 1419490177, 0.5900854, -0.42503363, -0.50451005, -0.46541354, 1.0018514, -1.5188805, -0.36480522, 0
661, 1419506844, 0.59039766, -0.4246543, -0.50491595, -0.46492332, 0.6533294, -1.4834043, -0.11403656, 0
662, 1419523511, 0.59075457, -0.4242376, -0.5053085, -0.46442378, 0.03523056, -2.0036855, 0.15318108, 0
663, 1419540178, 0.5911239, -0.4238627, -0.50566185, -0.4639115, 0.36113212, -2.2583256, -0.03277397, 0
664, 1419556845, 0.591368, -0.42364278, -0.5060095, -0.46342167, 0.3483, -1.8683946, -0.33146477, 0
665, 1419573512, 0.59163433, -0.4233401, -0.50631154, -0.46302816, 0.76607096, -1.9830436, 0.54767704, 0
666, 1419590179, 0.59181935, -0.42303467, -0.50667876, -0.46266901, 0.5534943, -2.242558, -0.85331154, 0
667, 1419606846, 0.59197146, -0.42274722, -0.5070081, -0.46237636, 0.41469297, -2.3950262, -0.5546694, 0
668, 1419623513, 0.59215194, -0.42238417, -0.5073944, -0.46205333, 0.6503878, -2.9143019, -0.40854168, 0
669, 1419640180, 0.5922704, -0.42223883, -0.507601, -0.46180746, 0.18408795, -2.098734, -0.363904, 0
670, 1419656847, 0.592395, -0.42205638, -0.5077375, -0.46166417, 0.6322569, -2.620093, -0.5577955, 0
671, 1419673514, 0.5925301, -0.42170396, -0.50793546, -0.4615954, 0.44085225, -2.2605093, 1.6051989, 0
672, 1419690181, 0.5926173, -0.42141762, -0.50801337, -0.4616589, 0.2755177, -3.3091693, -0.49625015, 0
673, 1419706848, 0.59253234, -0.42116788, -0.50822866, -0.46175888, 0.49566546, -2.7053597, -1.9435611, 0
674, 1419723515, 0.59243506, -0.42082056, -0.5084039, -0.46200767, 0.4792133, -3.1512349, -2.7155476, 0
675, 1419740182, 0.59220684, -0.42051837, -0.50864446, -0.46231043, 0.45321923, -2.6519794, 0.074819565, 0
676, 1419756849, 0.5921108, -0.42009312, -0.50883496, -0.46261024, -0.09570736, -1.8964576, 0.9600744, 0
677, 1419773516, 0.592014, -0.4198029, -0.50887084, -0.46295792, -0.07733079, -1.2150232, 1.9049892, 0
678, 1419790183, 0.5919262, -0.41945893, -0.5088103, -0.4634484, 0.12674212, -0.9863135, -0.006132126, 0
679, 1419806850, 0.59171003, -0.41915417, -0.5087985, -0.46401268, -0.19930807, -1.1162479, -1.7544546, 0
680, 1419823517, 0.59116834, -0.41901037, -0.509009, -0.46460184, -0.6569236, -2.7317502, 2.173151, 0
681, 1419840184, 0.59035844, -0.41895264, -0.50958043, -0.46505702, -0.31332785, -3.3707066, 2.4283247, 0
682, 1419856851, 0.5892177, -0.41881707, -0.5104488, -0.46567312, -0.24620421, -0.7158749, -0.4278326, 0
683, 1419873518, 0.5879713, -0.41826013, -0.5114366, -0.46666402, 0.15325859, -0.28320074, -2.4884791, 0
684, 1419890185, 0.5868508, -0.4175063, -0.5120653, -0.4680581, -1.8843217, 2.5650911, -4.6289887, 0
685, 1419906852, 0.5859929, -0.4171059, -0.5118254, -0.4697493, -3.6479692, 1.2151146, -0.73722935, 0
686, 1419923519, 0.5850893, -0.41692924, -0.5120173, -0.47082204, 4.332084, -0.6259062, 3.0527458, 0
687, 1419940186, 0.5836216, -0.41550678, -0.5137045, -0.47206193, 2.107148, 2.5887346, -0.4782095, 0
688, 1419956853, 0.58236414, -0.4137068, -0.51546794, -0.47327173, -1.6544335, 3.2098286, -1.1803808, 0
689, 1419973520, 0.58097833, -0.41314188, -0.5163843, -0.47446793, -2.5040038, 1.0311134, -0.8363924, 0
690, 1419990187, 0.579434, -0.4129331, -0.517252, -0.47559172, 0.015595393, 1.0179292, 0.05195713, 0
691, 1420006854, 0.5779161, -0.41183278, -0.51877236, -0.47673535, 1.2419875, 0.90405154, 0.4809599, 0
692, 1420023521, 0.576562, -0.41066912, -0.5201615, -0.47786364, -1.9121324, 1.2682832, 0.5951376, 0
693, 1420040188, 0.575495, -0.41026896, -0.520771, -0.4788288, -2.0751908, -0.51649797, 1.2784729, 0
694, 1420056855, 0.57447654, -0.41034645, -0.52114564, -0.47957736, 0.4081396, -0.901563, -0.0053749084, 0
695, 1420073522, 0.5734867, -0.41051942, -0.5214108, -0.48032513, 0.7462264, 1.3905554, 0.5230942, 0
696, 1420090189, 0.5727155, -0.4107992, -0.5213384, -0.48108405, -1.046735, 0.5106777, 1.7888937, 0
697, 1420106856, 0.5722877, -0.411506, -0.520751, -0.48162508, -1.3664688, 2.6629157, 2.3016863, 0
698, 1420123523, 0.57234454, -0.4122777, -0.51953965, -0.4822056, 0.7457014, 3.0082254, 3.9754791, 0
699, 1420140190, 0.5726063, -0.41282496, -0.51842624, -0.48262456, 2.232735, 3.7133322, 3.1973314, 0
700, 1420156857, 0.5731072, -0.41296196, -0.5173988, -0.48301536, 1.1564717, 4.7550898, 1.3686771, 0
701, 1420173524, 0.57365525, -0.412994, -0.51660866, -0.48318288, 0.07794925, 2.623321, -0.09951973, 0
702, 1420190191, 0.5742189, -0.4132403, -0.5160033, -0.48294973, 0.5482835, 2.3937235, -3.2953568, 0
703, 1420206858, 0.5748169, -0.41337383, -0.51571125, -0.4824357, 2.07853, 2.7419581, -4.3984795, 0
704, 1420223525, 0.57542366, -0.41307387, -0.5160227, -0.4816356, 2.0404754, 2.3815198, 0.6786804, 0
705, 1420240192, 0.5760812, -0.41244304, -0.5166265, -0.48074222, 1.2005064, 1.0225427, 0.7377386, 0
706, 1420256859, 0.5767803, -0.4117559, -0.5172377, -0.4798346, 1.3982369, 2.0910254, 1.3502598, 0
707, 1420273526, 0.57775086, -0.4105801, -0.51773643, -0.47913632, 2.5957668, 1.4004776, -0.25940132, 0
708, 1420290193, 0.5786749, -0.4090436, -0.518699, -0.4782934, 2.4093976, -0.2961856, -0.75047493, 0
709, 1420306860, 0.579533, -0.40748945, -0.5198122, -0.47737145, 1.2009157, -0.70768, -1.2708883, 0
710, 1420323527, 0.58033967, -0.4060234, -0.5209032, -0.4764506, 1.009185, -0.8702942, -0.1256609, 0
711, 1420340194, 0.58126456, -0.40456107, -0.5217075, -0.47568658, 0.88216925, 0.2984063, -0.9763918, 0
712, 1420356861, 0.58240587, -0.40302226, -0.52220076, -0.47505528, 0.0950386, -0.30477154, 0.1622572, 0
713, 1420373528, 0.5836021, -0.40170905, -0.5224929, -0.47437772, -0.50978994, -1.1151291, 0.066952705, 0
714, 1420390195, 0.584576, -0.40070668, -0.52279425, -0.47369394, -0.413484, -1.9814466, -0.19551468, 0
715, 1420406862, 0.5850968, -0.39990395, -0.52345383, -0.47300026, 0.37805673, -2.2756639, 0.47227383, 0
716, 1420423529, 0.5851663, -0.3992895, -0.5243306, -0.47246197, -0.4011224, -1.1512252, -0.5076761, 0
717, 1420440196, 0.58500504, -0.39878312, -0.5252283, -0.472092, -0.69617605, -0.57513124, 0.535512, 0
718, 1420456863, 0.58484167, -0.39815992, -0.5259459, -0.47202164, -1.1236283, 0.66875905, -0.7469759, 0
719, 1420473530, 0.58488506, -0.39735234, -0.52630144, -0.47225213, -1.3108007, 0.33520773, 1.2688999, 0
720, 1420490197, 0.58498985, -0.3967365, -0.52638626, -0.4725454, -0.6027143, -0.8249206, 1.2731066, 0
721, 1420506864, 0.5848748, -0.39641827, -0.5264149, -0.47292298, -0.15135068, -0.60914946, -1.4925585, 0
722, 1420523531, 0.58478993, -0.39612392, -0.52625316, -0.473454, -1.049942, 0.10112598, 0.15970612, 0
723, 1420540198, 0.58458275, -0.39598525, -0.52615464, -0.473935, -0.35808045, -1.455954, 2.4313831, 0
724, 1420556865, 0.58408767, -0.39614883, -0.52620494, -0.4743528, -0.075647734, -1.5467005, -0.5399189, 0
725, 1420573532, 0.5833397, -0.3966458, -0.52634984, -0.47469708, -0.52225256, -1.3527956, -0.67937565, 0
726, 1420590199, 0.5827413, -0.39726618, -0.5262496, -0.47502428, -0.9469381, 0.3226396, -0.89445114, 0
727, 1420606866, 0.5825478, -0.39768487, -0.5257531, -0.47546107, -0.36503175, 1.0971009, 0.7798319, 0
728, 1420623533, 0.5824602, -0.39813432, -0.52502275, -0.47599858, -0.25956985, -0.80324364, 1.4245987, 0
729, 1420640200, 0.58219004, -0.3989185, -0.52433455, -0.47643128, -0.37288174, -1.424369, -0.62843704, 0
730, 1420656867, 0.5817569, -0.4000382, -0.52366006, -0.4767631, -0.1238302, -1.1849815, -0.16401482, 0
731, 1420673534, 0.5812672, -0.40134513, -0.52304786, -0.47693405, -0.3288043, -1.5672711, -1.688838, 0
732, 1420690201, 0.5808169, -0.40266228, -0.5225906, -0.47687367, -0.3831685, -2.0432017, -0.79620934, 0
733, 1420706868, 0.5803284, -0.40398258, -0.5221728, -0.4768096, 0.35459548, -1.6569374, 0.123277664, 0
734, 1420723535, 0.5798048, -0.40527454, -0.52166814, -0.47690243, 0.10448694, -1.1031464, 0.5005226, 0
735, 1420740202, 0.579417, -0.40641102, -0.52102196, -0.47711298, 0.17211168, -0.2314964, 0.099508286, 0
736, 1420756869, 0.5791415, -0.40721133, -0.52047735, -0.47735927, -0.3331824, -1.1017392, 1.808279, 0
737, 1420773536, 0.57891953, -0.40804335, -0.5200026, -0.4774353, -0.4381339, -1.5656135, -0.47978497, 0
738, 1420790203, 0.57862556, -0.40924916, -0.51936936, -0.47744906, 0.5702803, -1.5719532, -1.2499514, 0
739, 1420806870, 0.57826644, -0.41053498, -0.5188355, -0.47736067, 0.868513, -1.6716161, 0.41928768, 0
740, 1420823537, 0.5779334, -0.41165686, -0.5183871, -0.47728497, 0.4612617, -1.8784511, -1.0945702, 0
741, 1420840204, 0.5775615, -0.41299275, -0.51789063, -0.4771202, -0.4276498, -1.5677872, -0.78431416, 0
742, 1420856871, 0.5774114, -0.41436532, -0.5170763, -0.4769952, 0.14094414, -0.81979746, 0.7215662, 0
743, 1420873538, 0.57741344, -0.41564676, -0.5161039, -0.4769306, 0.23074964, 0.3426505, 1.6177616, 0
744, 1420890205, 0.5776582, -0.4165507, -0.5150644, -0.4769694, -0.07585851, -0.096125096, 1.857132, 0
745, 1420906872, 0.577914, -0.4172844, -0.51429653, -0.47684693, 0.26579624, -1.2644284, -0.30563068, 0
746, 1420923539, 0.57800275, -0.4182081, -0.5136552, -0.47662124, 0.2519477, -1.3562, -2.4811492, 0
747, 1420940206, 0.5780637, -0.41911134, -0.5130573, -0.47639763, 0.80489945, -1.1374772, -0.23605537, 0
748, 1420956873, 0.57809407, -0.4195288, -0.5129231, -0.47613785, 1.4700235, -0.98795694, 0.19402313, 0
749, 1420973540, 0.578162, -0.41965643, -0.5129476, -0.47591662, 1.4281398, -0.6519283, 1.3542595, 0
750, 1420990207, 0.57821774, -0.41992563, -0.5129045, -0.4756579, 0.77655935, -1.0204148, -0.14156914, 0
751, 1421006874, 0.57842916, -0.41992724, -0.5128448, -0.47546357, 0.59401274, 0.7675928, -1.4436073, 0
752, 1421023541, 0.5788016, -0.4194806, -0.5129499, -0.47529122, 1.1017599, -1.6363504, 1.4156122, 0
753, 1421040208, 0.57894963, -0.41927892, -0.5131841, -0.47503605, 0.752603, -1.9585325, -1.4049263, 0
754, 1421056875, 0.5789963, -0.4192533, -0.51343054, -0.4747353, 0.6803055, -1.7917174, -0.18848228, 0
755, 1421073542, 0.5790115, -0.419131, -0.51386625, -0.4743532, 0.83889663, -1.6491888, 0.30264568, 0
756, 1421090209, 0.579111, -0.41881102, -0.5142494, -0.47409928, 0.536723, -0.92959416, -0.43394947, 0
757, 1421106876, 0.57922155, -0.4184654, -0.5144982, -0.4739994, -0.5638371, -1.0604649, 0.86601925, 0
758, 1421123543, 0.5794695, -0.41807142, -0.51459014, -0.4739439, 0.4942153, -1.4911137, -1.4965239, 0
759, 1421140210, 0.5796518, -0.41777644, -0.5146518, -0.4739143, 0.73758495, -1.628045, -1.4352856, 0
760, 1421156877, 0.57972354, -0.41764775, -0.5147745, -0.47380677, 0.6187686, -3.040813, 0.49437332, 0
761, 1421173544, 0.57968354, -0.41767767, -0.51501834, -0.47356442, 0.35368043, -2.4510329, 1.6650753, 0
762, 1421190211, 0.57958835, -0.4179923, -0.51490927, -0.47352165, -0.3214246, -1.4804724, 1.1547365, 0
763, 1421206878, 0.5795259, -0.4182042, -0.51469046, -0.47364888, -0.73369604, -1.6638978, -2.2443771, 0
764, 1421223545, 0.57958317, -0.41829008, -0.51443416, -0.47378126, -0.52054995, -1.1426364, -4.3482, 0
765, 1421240212, 0.57949257, -0.418706, -0.51392084, -0.4740819, -0.12560289, -2.4015715, -1.373641, 0
766, 1421256879, 0.5793013, -0.41901627, -0.51360255, -0.4743863, 0.4184348, -2.8925884, 3.9622288, 0
767, 1421273546, 0.5789405, -0.41946957, -0.5133087, -0.47474408, -0.37345102, -3.402863, 2.886817, 0
768, 1421290213, 0.5785047, -0.42010063, -0.51293343, -0.47512278, -1.1987028, -1.9883324, -3.3185377, 0
769, 1421306880, 0.578293, -0.4203947, -0.51238334, -0.47571367, -0.6727311, -3.085168, 0.082901955, 0
770, 1421323547, 0.5778473, -0.42075256, -0.5119537, -0.47640085, -1.2501906, -1.7887007, -1.7867365, 0
771, 1421340214, 0.57726383, -0.42104033, -0.51152885, -0.47730935, -0.56800926, -0.29322398, -0.9016094, 0
772, 1421356881, 0.5764888, -0.4209676, -0.5113091, -0.47854427, 0.19436352, 0.07625726, -1.5661125, 0
773, 1421373548, 0.57516575, -0.4205766, -0.51182437, -0.4799271, 0.019821728, -0.17179047, -3.1482425, 0
774, 1421390215, 0.57329094, -0.41966102, -0.51316106, -0.48154187, 0.253421, 1.039917, -1.5648384, 0
775, 1421406882, 0.5712515, -0.41784757, -0.515116, -0.4834516, 0.0658648, 3.0673032, 0.85324574, 0
776, 1421423549, 0.56921446, -0.41534337, -0.5177469, -0.48519862, 0.70567644, 4.1166005, 1.488822, 0
777, 1421440216, 0.56738406, -0.41240847, -0.52071595, -0.48666638, 0.9457933, 6.25166, 2.107502, 0
778, 1421456883, 0.56609756, -0.409542, -0.52317804, -0.48794273, 1.0946217, 5.8622055, 2.1749868, 0
779, 1421473550, 0.56543237, -0.4071539, -0.5247893, -0.4889813, 0.6260848, 6.1272817, 0.06559181, 0
780, 1421490217, 0.5653928, -0.4057968, -0.5253454, -0.48955795, -0.79930466, 2.8930297, 3.1349916, 0
781, 1421506884, 0.5654986, -0.40612662, -0.52506024, -0.48946795, -1.7276142, 1.3894044, 2.7732182, 0
782, 1421523551, 0.5658891, -0.4075609, -0.52368504, -0.4892977, -2.99823, 4.7236915, 1.299222, 0
783, 1421540218, 0.566663, -0.409203, -0.52156276, -0.48929852, -2.4465427, 3.6647108, 3.5191584, 0
784, 1421556885, 0.56726325, -0.4111122, -0.51936245, -0.48934284, -2.352296, 2.994724, 1.5369883, 0
785, 1421573552, 0.5677605, -0.41300213, -0.5170114, -0.48966447, -1.7310417, 3.045728, -0.8662844, 0
786, 1421590219, 0.5680095, -0.4144908, -0.51498795, -0.49024945, -1.3657491, 2.0478537, -1.4820786, 0
787, 1421606886, 0.56804776, -0.41563046, -0.5134051, -0.4909003, -1.1019019, 1.0457655, -0.10442448, 0
788, 1421623553, 0.56800514, -0.4166029, -0.51224184, -0.49134004, -0.33130565, 0.9897802, -0.11390591, 0
789, 1421640220, 0.5679912, -0.41755512, -0.51116985, -0.49166426, 1.0036383, 1.5989639, -0.63607407, 0
790, 1421656887, 0.5681222, -0.41825324, -0.51011324, -0.4920169, 1.3067902, 0.95254004, 0.79448605, 0
791, 1421673554, 0.5681674, -0.41891277, -0.5094135, -0.49212825, 1.4674335, -0.1734056, -0.43846416, 0
792, 1421690221, 0.56829166, -0.4195358, -0.50878304, -0.49210653, 1.4726568, 0.98444784, -1.7822046, 0
793, 1421706888, 0.56855947, -0.4200601, -0.50816476, -0.4919886, 0.975035, -0.41918603, 0.8627119, 0
794, 1421723555, 0.5689018, -0.4207054, -0.5075941, -0.49163038, 0.5577647, 0.44251832, 0.25154686, 0
795, 1421740222, 0.5694903, -0.4211632, -0.50693953, -0.4912323, 0.9548449, 0.3253611, 0.17031193, 0
796, 1421756889, 0.5700741, -0.42147017, -0.5065468, -0.49069682, 1.3199432, -0.7583783, -1.0108795, 0
797, 1421773556, 0.5706276, -0.4218368, -0.50621974, -0.4900753, 1.293328, -0.4088062, -1.228488, 0
798, 1421790223, 0.5711853, -0.42234558, -0.5059998, -0.489214, 0.8141679, -2.002721, 0.6030655, 0
799, 1421806890, 0.571753, -0.42297724, -0.5058527, -0.4881561, 0.33071357, -0.7187765, -0.27006626, 0
800, 1421823557, 0.57249206, -0.42337668, -0.505655, -0.4871475, 0.7139945, 0.03431773, 0.19921112, 0
801, 1421840224, 0.57336146, -0.4234386, -0.50541914, -0.48631516, 0.97509223, 0.34270057, 0.58015823, 0
802, 1421856891, 0.5741346, -0.4233757, -0.505224, -0.48565987, 0.56866926, -0.67115575, 0.71777153, 0
803, 1421873558, 0.57471377, -0.42324138, -0.50537044, -0.4849393, 0.42726222, -2.162947, 0.52549076, 0
804, 1421890225, 0.5749261, -0.42307016, -0.5060757, -0.48410088, 1.4331071, -1.5960146, -0.46772957, 0
805, 1421906892, 0.5749717, -0.42266172, -0.50703996, -0.4833939, 1.7474093, -0.20437388, -1.9125724, 0
806, 1421923559, 0.5751079, -0.4219456, -0.5079786, -0.4828716, 0.55420125, 0.57203984, -1.1609621, 0
807, 1421940226, 0.57551414, -0.42092994, -0.5087308, -0.48248228, 1.3342166, -0.38179097, -0.34681416, 0
808, 1421956893, 0.575887, -0.4198746, -0.5096095, -0.48202926, 2.21655, -0.9252388, 1.0279932, 0
809, 1421973560, 0.57612604, -0.4189806, -0.5105696, -0.4815055, 1.2367821, -1.4277736, -0.32342148, 0
810, 1421990227, 0.57623386, -0.41830552, -0.51158667, -0.48088333, -0.3899305, -0.3791368, -1.1057539, 0
811, 1422006894, 0.57669705, -0.41759348, -0.5122002, -0.48029333, -0.7012332, 0.47717893, 2.1382275, 0
812, 1422023561, 0.5772021, -0.41715622, -0.51245314, -0.4797965, 0.2930863, -0.8031817, 0.5089264, 0
813, 1422040228, 0.5776249, -0.4167402, -0.51275545, -0.4793261, -0.28409904, -0.41283938, -1.1759338, 0
814, 1422056895, 0.5779464, -0.41647002, -0.5130296, -0.47888008, 0.6061812, -2.3491752, 1.4746246, 0
815, 1422073562, 0.57778174, -0.4167207, -0.5133409, -0.47852695, -0.55680853, -0.9759669, -2.083078, 0
816, 1422090229, 0.57768774, -0.41691625, -0.51347166, -0.4783297, -1.3462181, -0.50509703, 1.4161854, 0
817, 1422106896, 0.577756, -0.41693777, -0.5133905, -0.4783154, -0.49140576, 1.000201, 0.2824459, 0
818, 1422123563, 0.57789636, -0.41688, -0.5130431, -0.47856885, -0.76381326, -0.04591582, 1.6296244, 0
819, 1422140230, 0.5778733, -0.41688153, -0.5129241, -0.47872293, -0.29279706, -1.3775551, -1.3209896, 0
820, 1422156897, 0.57760215, -0.417177, -0.51293427, -0.47878176, -0.04675332, -0.24063249, 0.7189932, 0
821, 1422173564, 0.5774122, -0.41736147, -0.512825, -0.4789674, 0.35420412, 0.22491059, -0.22664738, 0
822, 1422190231, 0.57749885, -0.41702187, -0.51273066, -0.47925958, 0.81353664, 1.3052514, 0.6298208, 0
823, 1422206898, 0.5777475, -0.4166634, -0.51230776, -0.47972378, 0.066535145, -0.067485236, 0.29356003, 0
824, 1422223565, 0.577845, -0.4166167, -0.51199657, -0.47997895, 0.8149575, -2.290358, -0.59033203, 0
825, 1422240232, 0.57769156, -0.41668093, -0.51226646, -0.47981998, 1.4815844, -2.2459993, 0.30241203, 0
826, 1422256899, 0.5772427, -0.41703838, -0.5127206, -0.47956452, 0.5114117, -2.1449256, 0.33759594, 0
827, 1422273566, 0.5768601, -0.41755792, -0.5130585, -0.4792113, -0.6631448, -0.8110456, -0.7142143, 0
828, 1422290233, 0.5769276, -0.4178126, -0.5129999, -0.4789708, 0.6443825, 0.073768884, -1.1354694, 0
829, 1422306900, 0.5771657, -0.41781026, -0.51267743, -0.479031, 0.62479246, -0.25108886, -1.1064644, 0
830, 1422323567, 0.5775497, -0.41759098, -0.51227653, -0.47918826, 0.1758459, -2.1492515, -1.3814955, 0
831, 1422340234, 0.5777045, -0.41764206, -0.51203567, -0.47921458, 0.84499073, -3.193608, 0.5696583, 0
832, 1422356901, 0.5775731, -0.4180067, -0.51172525, -0.4793865, 0.17320466, -2.2854495, -1.0615826, 0
833, 1422373568, 0.57757837, -0.41797152, -0.51162356, -0.4795193, -0.34868446, -1.5329982, 1.4500141, 0
834, 1422390235, 0.5776361, -0.41795996, -0.51137877, -0.47972143, -0.71682346, -1.7274176, 0.7214508, 0
835, 1422406902, 0.5777629, -0.418256, -0.51088613, -0.47983536, -0.35136652, -2.202274, -1.174675, 0
836, 1422423569, 0.57778335, -0.41878155, -0.51050514, -0.4797576, 1.0483975, -3.2961972, -0.11511612, 0
837, 1422440236, 0.5775894, -0.4194112, -0.5102329, -0.47973093, 1.4410158, -2.7821767, -0.24155998, 0
838, 1422456903, 0.57741815, -0.4199173, -0.5100437, -0.4796957, 0.033056226, -3.272345, -1.1444721, 0
839, 1422473570, 0.577317, -0.42071742, -0.50947195, -0.47972363, -1.5055553, -2.0319028, 1.0959044, 0
840, 1422490237, 0.5774821, -0.4215019, -0.50864625, -0.47971275, 0.21588178, -3.4167318, 1.7888117, 0
841, 1422506904, 0.5775646, -0.42207402, -0.50798196, -0.47981438, 1.0570401, -2.4245234, -1.3512125, 0
842, 1422523571, 0.577678, -0.42241293, -0.50737846, -0.480018, 0.217266, -2.4934266, -1.7202072, 0
843, 1422540238, 0.5778147, -0.42279252, -0.5066974, -0.48023835, -0.20394127, -4.1309457, 0.57359886, 0
844, 1422556905, 0.57761884, -0.42363203, -0.5062856, -0.4801685, 0.7069269, -4.5739603, -1.1220455, 0
845, 1422573572, 0.57719, -0.42431664, -0.50636333, -0.47999775, 1.2452302, -2.9670076, -2.7052803, 0
846, 1422590239, 0.5767525, -0.42465743, -0.5066368, -0.47993353, 0.00916202, -2.9349933, 0.37240887, 0
847, 1422606906, 0.5764036, -0.42506224, -0.50672984, -0.47989613, -0.3436049, -2.6600056, -0.3976736, 0
848, 1422623573, 0.57604015, -0.42542067, -0.5068227, -0.47991696, 0.8906611, -2.465807, 0.8362808, 0
849, 1422640240, 0.5755927, -0.42528087, -0.50722283, -0.4801549, 1.777108, -1.2187053, -0.5503769, 0
850, 1422656907, 0.5751413, -0.42462716, -0.5076633, -0.48080838, -0.1563777, 0.1940564, -1.7828226, 0
851, 1422673574, 0.5747164, -0.42365697, -0.50816387, -0.48164287, -0.25213045, -0.46072277, -0.253685, 0
852, 1422690241, 0.5738779, -0.4228865, -0.5090152, -0.48242015, 0.43797162, -1.3307273, 0.22134972, 0
853, 1422706908, 0.5726213, -0.42206588, -0.5104564, -0.4831087, 1.0399588, 1.8459018, -1.2677193, 0
854, 1422723575, 0.5712229, -0.4206075, -0.5124605, -0.48391366, 1.4471223, 2.6145945, 0.5071697, 0
855, 1422740242, 0.569641, -0.4189873, -0.5148249, -0.48467377, -0.2053342, 5.1964974, -2.6380892, 0
856, 1422756909, 0.5685575, -0.4173482, -0.5166687, -0.48539782, -0.8241745, 6.9337626, 0.0714941, 0
857, 1422773576, 0.56790197, -0.41573778, -0.51817644, -0.4859399, 0.8389679, 4.6158495, 1.5251102, 0
858, 1422790243, 0.5672941, -0.41410527, -0.5199382, -0.48616147, 0.7702985, 5.299436, 1.7347202, 0
859, 1422806910, 0.56684506, -0.4123283, -0.52159405, -0.48642194, -1.3968594, 5.2974596, 3.3424902, 0
860, 1422823577, 0.56663257, -0.41103974, -0.5226614, -0.48661453, -1.5591198, 4.369045, 3.318472, 0
861, 1422840244, 0.5667269, -0.41029668, -0.5229002, -0.4868748, 0.28304785, 4.918149, 1.448597, 0
862, 1422856911, 0.5670022, -0.40997505, -0.52248746, -0.48726827, 0.1666459, 4.5032005, 2.6185074, 0
863, 1422873578, 0.56752306, -0.409839, -0.5216526, -0.4876707, -1.1292031, 3.9391503, 1.4231253, 0
864, 1422890245, 0.5681272, -0.41007432, -0.52079856, -0.4876821, -1.5321258, 1.8917359, 1.593008, 0
865, 1422906912, 0.5685177, -0.41066468, -0.52006793, -0.4875102, -1.0913686, 1.6586735, -1.985703, 0
866, 1422923579, 0.56882477, -0.4110686, -0.5195762, -0.48733586, -0.32742122, 2.9000235, -0.83457947, 0
867, 1422940246, 0.5689408, -0.41147494, -0.51907754, -0.4873889, -0.595561, 1.2836841, 1.958169, 0
868, 1422956913, 0.5688394, -0.41190723, -0.518759, -0.4874812, -0.24200977, 2.023286, -0.32665062, 0
869, 1422973580, 0.56897444, -0.41192496, -0.5184973, -0.48758703, 0.56491625, 2.0760062, 1.8162527, 0
870, 1422990247, 0.5690355, -0.41217119, -0.5181781, -0.48764697, -0.45692933, 0.42989835, 0.60897255, 0
871, 1423006914, 0.5691509, -0.41261685, -0.51795954, -0.4873678, -0.22320853, -0.12512232, 0.8511143, 0
872, 1423023581, 0.569223, -0.413216, -0.51759374, -0.4871644, 0.2353714, 1.1724305, -4.5738187, 0
873, 1423040248, 0.56944996, -0.41383514, -0.51697785, -0.4870273, -0.19249651, 1.6626318, -1.9456878, 0
874, 1423056915, 0.5698246, -0.41436002, -0.5162993, -0.4868627, -0.4127969, -1.2037482, 1.234765, 0
875, 1423073582, 0.5698921, -0.41555563, -0.5155067, -0.48660454, -1.0345333, 0.5139039, 0.5726738, 0
876, 1423090249, 0.5701611, -0.41647482, -0.5145867, -0.48647702, -0.14611869, 0.52099615, 1.7590742, 0
877, 1423106916, 0.5703496, -0.4174663, -0.51373804, -0.4863036, -0.347237, 0.77171177, -0.047133446, 0
878, 1423123583, 0.57049966, -0.41851446, -0.5128169, -0.48619875, -1.0792482, -0.16297492, -1.1914244, 0
879, 1423140250, 0.5704518, -0.41955644, -0.51230145, -0.4859003, -0.37817118, -0.7564655, -0.57179165, 0
880, 1423156917, 0.5702442, -0.4206342, -0.5117942, -0.48574668, 0.43070254, 0.9700677, 0.7642355, 0
881, 1423173584, 0.5701601, -0.42125866, -0.5114237, -0.48569447, 0.19598532, -0.35045892, -0.54923725, 0
882, 1423190251, 0.57014436, -0.42164245, -0.5111666, -0.48565042, -0.27734718, 1.2819448, -0.4820366, 0
883, 1423206918, 0.57028186, -0.42192605, -0.51050246, -0.4859411, -0.057622086, -0.24513583, 1.5375462, 0
884, 1423223585, 0.57042587, -0.4220722, -0.5101293, -0.48603716, 1.0924143, -1.0522395, 0.30048656, 0
885, 1423240252, 0.5704941, -0.42224208, -0.5097703, -0.4861863, 0.7533895, -0.2610707, -0.5890722, 0
886, 1423256919, 0.5705032, -0.4223907, -0.5095473, -0.48628032, 0.10753544, -1.479449, 0.5293026, 0
887, 1423273586, 0.5707868, -0.42232183, -0.50929445, -0.4862718, 0.2972255, 0.6159883, -0.24038029, 0
888, 1423290253, 0.57106763, -0.42257795, -0.50865906, -0.48638475, 0.6024476, -1.0933943, 1.7666454, 0
889, 1423306920, 0.5711901, -0.42282194, -0.50842416, -0.48627466, 1.3532946, -1.9820993, -1.3380394, 0
890, 1423323587, 0.5709963, -0.42321357, -0.5085089, -0.48607263, 0.589734, -1.8429902, -2.1263938, 0
891, 1423340254, 0.57064295, -0.42377266, -0.50866354, -0.48583874, 0.08191906, -1.4193708, -1.4206018, 0
892, 1423356921, 0.5706859, -0.4238012, -0.50872886, -0.48569503, -0.08452389, 1.0928409, 2.011385, 0
893, 1423373588, 0.5709268, -0.42364347, -0.50856316, -0.4857232, 0.9572597, -0.84562683, 1.93295, 0
894, 1423390255, 0.5711134, -0.4233275, -0.50859845, -0.4857421, 1.0335066, -0.82019466, -2.2479167, 0
895, 1423406922, 0.57127887, -0.4230949, -0.50857836, -0.4857713, -0.20486036, -1.4107378, 0.15546227, 0
896, 1423423589, 0.57119995, -0.42312574, -0.50871307, -0.48569614, 0.32649365, -1.5577142, -0.7210064, 0
897, 1423440256, 0.5710849, -0.4230959, -0.5089226, -0.48563793, 0.19728372, -0.11726283, 0.29055882, 0
898, 1423456923, 0.57115245, -0.423009, -0.5088549, -0.4857051, -0.0053462065, -0.32601377, -0.20816517, 0
899, 1423473590, 0.5712472, -0.4229476, -0.5088563, -0.48564577, -0.13312835, -0.87872374, 1.7203236, 0
900, 1423490257, 0.5711608, -0.4232979, -0.5085846, -0.48572662, -0.05329465, -1.5337278, -0.5414057, 0
901, 1423506924, 0.5709483, -0.42385265, -0.5083872, -0.48569924, -0.34964848, -0.8647021, -0.32393932, 0
902, 1423523591, 0.5709092, -0.4242686, -0.5080883, -0.485695, -0.43093565, -0.54103345, -1.0798244, 0
903, 1423540258, 0.5709817, -0.4247524, -0.5076687, -0.48562562, -0.35340193, -0.7081666, 0.7580147, 0
904, 1423556925, 0.57116985, -0.42530864, -0.506969, -0.48564863, -0.09893712, -0.7871581, 0.6975012, 0
905, 1423573592, 0.5713881, -0.42594936, -0.50618434, -0.48564887, 0.47263288, -0.9796973, 0.7792692, 0
906, 1423590259, 0.57153875, -0.42668113, -0.50537103, -0.48567623, -0.38251606, -1.0406654, 0.22237682, 0
907, 1423606926, 0.57169634, -0.4274964, -0.50464803, -0.48552576, -0.8249769, -1.3934133, -2.4378853, 0
908, 1423623593, 0.5716925, -0.42872557, -0.5038011, -0.48532587, -0.5922179, -1.2385662, 0.8767395, 0
909, 1423640260, 0.57175267, -0.42984167, -0.5029874, -0.48511162, 0.19139795, -0.6977554, -0.85344887, 0
910, 1423656927, 0.57175815, -0.43085438, -0.5023291, -0.48488897, 0.50287104, 0.29259643, 0.19300365, 0
911, 1423673594, 0.57182765, -0.43174407, -0.5015519, -0.4848202, -0.03845518, -0.33606893, 1.0678196, 0
912, 1423690261, 0.5718974, -0.43268222, -0.50075424, -0.48472598, -0.4545641, 0.12730381, -0.64221096, 0
913, 1423706928, 0.5720898, -0.43347046, -0.50003415, -0.484538, 0.28827828, -0.2638671, 0.4859867, 0
914, 1423723595, 0.57228804, -0.4341204, -0.49947426, -0.48429948, 1.0074867, -0.17088695, -1.3299007, 0
915, 1423740262, 0.5726022, -0.4345093, -0.49891883, -0.48415178, 0.46523282, 0.114155665, 0.31352234, 0
916, 1423756929, 0.57285196, -0.43492705, -0.49841186, -0.48400354, 0.5354939, -0.14545776, 0.26450253, 0
917, 1423773596, 0.57307327, -0.435347, -0.49799532, -0.48379263, 0.7184189, -0.5695443, 1.0905476, 0
918, 1423790263, 0.57346046, -0.43563217, -0.4976164, -0.48346704, 1.277926, -0.65385985, -1.6459904, 0
919, 1423806930, 0.5738401, -0.43584895, -0.49742785, -0.48301485, 0.93048644, -1.0699071, 2.0363321, 0
920, 1423823597, 0.57431835, -0.43599004, -0.49713755, -0.48261762, 0.77653396, -1.5086317, -2.3505092, 0
921, 1423840264, 0.5746541, -0.43633696, -0.49691227, -0.48213637, 0.6677255, -1.1964371, 0.8204937, 0
922, 1423856931, 0.57515055, -0.43652123, -0.49663302, -0.4816651, 0.8709082, -2.1146147, 0.31743145, 0
923, 1423873598, 0.5756389, -0.43663254, -0.4966499, -0.48096302, 1.0603962, -1.9214044, 0.27908897, 0
924, 1423890265, 0.5764021, -0.4365762, -0.49636072, -0.48039803, 1.4014826, -0.647243, -0.19585514, 0
925, 1423906932, 0.57720375, -0.43650123, -0.496011, -0.47986466, 1.3421713, -2.7242765, -0.29626656, 0
926, 1423923599, 0.5779615, -0.43645042, -0.49584246, -0.47917253, 1.1193385, -4.019048, -2.6977682, 0
927, 1423940266, 0.5785105, -0.43679804, -0.4958508, -0.47818357, 0.958381, -5.086805, -1.6528168, 0
928, 1423956933, 0.57889616, -0.43738776, -0.49599367, -0.47702822, 0.8702941, -4.2008123, -0.45091248, 0
929, 1423973600, 0.5792777, -0.4377873, -0.4962152, -0.475967, 0.48891604, -3.3392072, 1.0096693, 0
930, 1423990267, 0.5797166, -0.43787742, -0.4962803, -0.4752812, 0.8731183, -3.0897586, -0.04999447, 0
931, 1424006934, 0.5802019, -0.4376946, -0.49620202, -0.4749391, 0.60935587, -3.411231, -0.23078156, 0
932, 1424023601, 0.5806949, -0.43737638, -0.4961199, -0.4747156, 0.13683318, -4.458507, 0.12772465, 0
933, 1424040268, 0.58104825, -0.4370049, -0.496338, -0.47439727, 0.90801936, -3.9251754, -1.2439394, 0
934, 1424056935, 0.58123523, -0.43637264, -0.49679732, -0.47426936, 1.2466685, -4.1571765, -2.2874608, 0
935, 1424073602, 0.58114487, -0.4356557, -0.4975405, -0.4742601, 0.20924295, -3.2099233, -0.9415302, 0
936, 1424090269, 0.5809832, -0.43482733, -0.49817094, -0.4745565, -0.5357089, -1.073157, -0.2951851, 0
937, 1424106936, 0.58064723, -0.43399638, -0.4989445, -0.47491574, -0.0808234, 0.137112, 0.39692307, 0
938, 1424123603, 0.58012736, -0.43276092, -0.5000498, -0.47551546, 1.3041027, 0.7430953, -2.2398705, 0
939, 1424140270, 0.5791683, -0.43136248, -0.501851, -0.47605735, 0.2714433, 1.7129174, -1.1731539, 0
940, 1424156937, 0.5777811, -0.43000826, -0.50403434, -0.47666124, 0.62092257, 2.501404, 1.1280317, 0
941, 1424173604, 0.57626545, -0.42832917, -0.5065799, -0.47730893, 0.2750014, 4.1509824, 1.8857632, 0
942, 1424190271, 0.57496774, -0.42629382, -0.50898224, -0.47813955, -0.85214674, 7.948573, 1.9344511, 0
943, 1424206938, 0.5739316, -0.42411047, -0.5112648, -0.47889015, 0.33962882, 6.5093703, 0.3015213, 0
944, 1424223605, 0.57293504, -0.4216821, -0.5137087, -0.47961187, 1.0219607, 6.6156125, -2.2828026, 0
945, 1424240272, 0.5717869, -0.41934332, -0.5161788, -0.48038, 0.85619944, 3.8012831, 1.0542221, 0
946, 1424256939, 0.5704231, -0.41726664, -0.51875234, -0.48103696, 0.65624744, 4.2150073, 2.8070288, 0
947, 1424273606, 0.5695553, -0.4148432, -0.52089804, -0.48184192, 1.6500922, 7.757018, 2.1593266, 0
948, 1424290273, 0.569369, -0.41203636, -0.5224465, -0.48279315, 1.3500589, 5.9586864, 5.3825607, 0
949, 1424306940, 0.56954354, -0.4093511, -0.52390486, -0.48329103, 0.9190236, 4.2017775, 2.4934359, 0
950, 1424323607, 0.5700284, -0.4065952, -0.5253762, -0.48344848, 2.2084205, 5.062582, -1.5126982, 0
951, 1424340274, 0.5704106, -0.40386632, -0.5269075, -0.48361832, 2.4200723, 3.7665827, -1.0954456, 0
952, 1424356941, 0.5707298, -0.40122885, -0.52861935, -0.48356932, 0.50822043, 3.4478612, 0.13114262, 0
953, 1424373608, 0.57126254, -0.39914593, -0.52982265, -0.48334682, 0.026934205, 2.9509447, 0.9071102, 0
954, 1424390275, 0.5719459, -0.39756766, -0.5305906, -0.48299724, -0.35278973, 3.3279572, 1.6749048, 0
955, 1424406942, 0.5729566, -0.39633036, -0.5309532, -0.4824172, -0.7042717, 1.5255959, 1.2053537, 0
956, 1424423609, 0.5739256, -0.3957537, -0.5309937, -0.48169386, -0.5383969, 1.2247361, 0.3590269, 0
957, 1424440276, 0.57469404, -0.3956426, -0.5308898, -0.48098272, -0.6317325, -0.055832643, -0.75218964, 0
958, 1424456943, 0.5752293, -0.39570123, -0.5307642, -0.48043317, -1.4403719, 0.32382122, -2.1609273, 0
959, 1424473610, 0.5758166, -0.39587167, -0.53037494, -0.48001903, -1.521418, 0.67633444, 1.1470909, 0
960, 1424490277, 0.57614654, -0.39624965, -0.5298698, -0.47986898, -0.8712725, -0.65472823, 0.6400356, 0
961, 1424506944, 0.5764045, -0.3963556, -0.529613, -0.4797547, -0.84937894, 0.9105232, 0.3807392, 0
962, 1424523611, 0.576577, -0.39633992, -0.5293609, -0.47983876, -0.21536456, -0.5468043, -0.90322876, 0
963, 1424540278, 0.5765748, -0.39649028, -0.52923787, -0.47985297, -0.3621178, 0.24658285, -1.3154182, 0
964, 1424556945, 0.5765448, -0.39675802, -0.5289287, -0.48000848, -0.56729865, -0.43659568, -0.40503597, 0
965, 1424573612, 0.57635313, -0.3971133, -0.5288208, -0.4800637, 0.2046212, -0.639823, 1.1920395, 0
966, 1424590279, 0.57618004, -0.39747593, -0.52864546, -0.48016456, -0.7438272, -0.025170911, -0.2693634, 0
967, 1424606946, 0.5759918, -0.3982225, -0.52807516, -0.48039928, -1.3584726, -0.4671003, -1.4401579, 0
968, 1424623613, 0.5759481, -0.3989884, -0.5273311, -0.48063362, -1.0861626, 0.17577015, 0.8385229, 0
969, 1424640280, 0.5757666, -0.40001827, -0.5265126, -0.48089212, -0.4303704, -2.3400223, 0.2526226, 0
970, 1424656947, 0.57537097, -0.40111676, -0.5259798, -0.48103392, -0.7994618, -0.33659822, -1.4102488, 0
971, 1424673614, 0.57507586, -0.40222174, -0.5251661, -0.4813528, -0.7830059, -1.6117225, 2.5899448, 0
972, 1424690281, 0.5745294, -0.403467, -0.52452403, -0.48166335, -0.5463556, -1.0389345, -0.5883875, 0
973, 1424706948, 0.57416034, -0.4043558, -0.52379763, -0.48214817, 0.24005894, 0.61654305, -0.21118641, 0
974, 1424723615, 0.5739759, -0.40469044, -0.52325976, -0.48267087, 0.99453455, -0.17168365, -1.1029282, 0
975, 1424740282, 0.57368726, -0.40493438, -0.5229032, -0.48319554, 0.15743649, -1.2002789, 1.483264, 0
976, 1424756949, 0.57326543, -0.40528095, -0.5226023, -0.48373082, 0.44740096, -1.1352732, -0.6070509, 0
977, 1424773616, 0.5727705, -0.40569755, -0.5224651, -0.48411584, 0.63916814, -0.43836433, 1.0165243, 0
978, 1424790283, 0.57237804, -0.40604356, -0.5223021, -0.48446572, 0.25775915, -0.93912566, -0.6984892, 0
979, 1424806950, 0.57214826, -0.4065017, -0.522064, -0.4846098, -1.0616456, -0.13562654, -1.0524435, 0
980, 1424823617, 0.5721422, -0.40700266, -0.5215443, -0.484756, -0.2769748, -0.3651616, 0.8738737, 0
981, 1424840284, 0.57208806, -0.4076793, -0.52086353, -0.48498312, -0.2655705, -0.6398096, 0.42062664, 0
982, 1424856951, 0.57197607, -0.40857163, -0.52007073, -0.4852152, -1.0660346, -1.655761, 0.099555016, 0
983, 1424873618, 0.5716727, -0.40984392, -0.5193262, -0.48529714, -1.5525934, -1.6536222, -1.550087, 0
984, 1424890285, 0.5712942, -0.41131675, -0.5185227, -0.48535594, -1.130156, -1.154935, -0.10121155, 0
985, 1424906952, 0.5708119, -0.4128172, -0.5176187, -0.4856144, -0.92641294, -0.7884936, -0.5995445, 0
986, 1424923619, 0.5705442, -0.41419008, -0.51642513, -0.48603043, -1.1681719, 0.67717427, 0.32913303, 0
987, 1424940286, 0.5704419, -0.41540185, -0.5149802, -0.4866493, -0.39634502, -0.5600155, 0.66188145, 0
988, 1424956953, 0.5702896, -0.41653562, -0.51380837, -0.487097, 0.16567272, -1.0945045, 1.7721052, 0
989, 1424973620, 0.5699683, -0.41780323, -0.5127564, -0.487496, -0.40556023, -2.0687578, -1.7552748, 0
990, 1424990287, 0.5695635, -0.419246, -0.51190835, -0.48762143, -1.2122743, -0.43296248, -1.6891537, 0
991, 1425006954, 0.5695131, -0.42043176, -0.5106943, -0.4879323, 0.24643622, -0.14298347, 0.9129038, 0
992, 1425023621, 0.5695642, -0.4214291, -0.50955576, -0.48820245, 0.8294286, -0.39813736, 0.37713337, 0
993, 1425040288, 0.56969994, -0.42220023, -0.5085329, -0.48844427, 0.9906993, -0.91072524, 1.3387003, 0
994, 1425056955, 0.56949145, -0.42344612, -0.50782835, -0.48834205, -0.39147913, -2.366059, 3.0806332, 0
995, 1425073622, 0.56917083, -0.4251217, -0.5071725, -0.48794127, -0.27443546, -1.1960844, -2.1631823, 0
996, 1425090289, 0.5690628, -0.42670053, -0.50632393, -0.4875705, -0.5163268, 1.9027877, -2.5472312, 0
997, 1425106956, 0.5696278, -0.42770702, -0.50509584, -0.48730254, -0.15143546, 2.092576, 1.4084024, 0
998, 1425123623, 0.5704813, -0.42835814, -0.5037779, -0.48709628, 1.2568789, -0.08850286, 0.6688309, 0
999, 1425140290, 0.57102174, -0.4292333, -0.5028515, -0.48664966, 1.8815024, -1.2342135, 1.2586346, 0
1000, 1425156957, 0.5713065, -0.43032536, -0.5021221, -0.48610377, 0.6694126, -1.150757, -0.53253365, 0
1001, 1425173624, 0.57144254, -0.431559, -0.50159997, -0.48538876, -0.42281008, -0.36691597, -0.8008747, 0
1002, 1425190291, 0.57185674, -0.43229085, -0.5012576, -0.48460287, 0.5410116, -0.0879662, 0.11969948, 0
1003, 1425206958, 0.572438, -0.43262488, -0.5010302, -0.48385304, 1.6412838, 0.36047712, -0.31863022, 0
1004, 1425223625, 0.5730989, -0.4326329, -0.5008051, -0.48329636, 1.7323751, -0.7124673, -0.6051712, 0
1005, 1425240292, 0.5736832, -0.4324924, -0.5008572, -0.48267448, 1.835985, -2.066219, -1.5239391, 0
1006, 1425256959, 0.57398754, -0.4322972, -0.501278, -0.4820504, 1.9545922, -2.2651844, -2.1433582, 0
1007, 1425273626, 0.57425356, -0.43166822, -0.5021056, -0.4814353, 1.261126, -1.8736792, 0.75128937, 0
1008, 1425290293, 0.57471037, -0.4306764, -0.50271237, -0.48114535, 0.16479208, 0.1847319, 1.6407928, 0
1009, 1425306960, 0.57541573, -0.4295784, -0.5029958, -0.4809875, 1.1123992, -0.615853, 6.3539257, 0
1010, 1425323627, 0.5759537, -0.4285965, -0.50336444, -0.48083377, 1.2627159, -3.2421541, -0.3984518, 0
1011, 1425340294, 0.5759937, -0.42779058, -0.5044196, -0.48039764, 1.3729187, -4.533734, -8.03332, 0
1012, 1425356961, 0.5756762, -0.42685714, -0.50589573, -0.4800564, 1.008619, -4.301871, -4.1848354, 0
1013, 1425373628, 0.5753672, -0.42595044, -0.5070499, -0.48001435, -0.012958834, -2.7999732, 2.385191, 0
1014, 1425390295, 0.5754045, -0.42501533, -0.50753516, -0.48028588, -0.06364665, -0.9101474, 2.56503, 0
1015, 1425406962, 0.575667, -0.42396605, -0.5077711, -0.480649, 1.0520015, -2.4834666, 4.621066, 0
1016, 1425423629, 0.5758759, -0.42297947, -0.50818545, -0.4808301, 0.78570294, -3.971827, -3.1152124, 0
1017, 1425440296, 0.57591766, -0.42263162, -0.5086496, -0.48059505, 0.4212215, -4.888352, -5.0384054, 0
1018, 1425456963, 0.57586443, -0.42316145, -0.50865567, -0.48018602, 0.08400209, -4.6877036, -1.7226887, 0
1019, 1425473630, 0.57598084, -0.42415002, -0.5082956, -0.4795551, 0.13330916, -4.6892037, 1.429532, 0
1020, 1425490297, 0.5763515, -0.425091, -0.50766337, -0.47894618, -0.010569257, -1.8545344, 1.5257149, 0
1021, 1425506964, 0.5768134, -0.4262113, -0.5067332, -0.4783789, -0.07752904, -3.9249492, 2.088645, 0
1022, 1425523631, 0.5771054, -0.42759997, -0.50569063, -0.47789034, -1.7194457, -1.7814078, -2.314783, 0
1023, 1425540298, 0.57742953, -0.42908606, -0.5043146, -0.47762084, -0.6125938, -1.0688955, -0.33105946, 0
1024, 1425556965, 0.57721955, -0.4302144, -0.503654, -0.47755662, 0.029330488, -2.671674, -0.4378147, 0
1025, 1425573632, 0.5765398, -0.43081033, -0.504027, -0.47744694, -1.2419317, 0.79871994, -3.8701854, 0
1026, 1425590299, 0.575683, -0.43080664, -0.5046322, -0.4778447, -0.4520677, 1.7018033, -1.8203421, 0
1027, 1425606966, 0.57444227, -0.43014175, -0.5058945, -0.47860175, 0.638239, 5.056626, -1.8449407, 0
1028, 1425623633, 0.5729997, -0.42849755, -0.5079045, -0.4796754, 2.1685164, 4.679445, 5.09706, 0
1029, 1425640300, 0.5711859, -0.42652032, -0.510831, -0.48049292, 0.58048415, 3.3085442, 3.1485252, 0
1030, 1425656967, 0.5693858, -0.4243181, -0.51397985, -0.48122075, 0.39045432, 8.145842, -2.374909, 0
1031, 1425673634, 0.56806374, -0.42124322, -0.5168901, -0.48236606, 1.4051709, 8.152659, -2.0710707, 0
1032, 1425690301, 0.5670121, -0.4178604, -0.51975965, -0.48346102, 0.7706673, 6.903946, 1.0428419, 0
1033, 1425706968, 0.5662407, -0.41486216, -0.52210283, -0.48442134, 0.40064207, 5.6934953, 6.1386957, 0
1034, 1425723635, 0.5657871, -0.41241148, -0.5238405, -0.48516753, 0.5189789, 6.2158113, 6.372099, 0
1035, 1425740302, 0.5660405, -0.4098899, -0.52493954, -0.4858205, 1.1840907, 7.093399, 1.7279444, 0
1036, 1425756969, 0.56670594, -0.40732265, -0.5256993, -0.48638183, 0.49901703, 4.754627, -0.8956175, 0
1037, 1425773636, 0.5672161, -0.4055452, -0.5263927, -0.48652256, -1.3783233, 1.0971107, -0.16970825, 0
1038, 1425790303, 0.56737065, -0.4046091, -0.527097, -0.48635927, 0.10331819, 1.7513416, -1.1399021, 0
1039, 1425806970, 0.5672491, -0.40405208, -0.5277605, -0.48624453, 0.3342158, 2.7514892, -0.4130125, 0
1040, 1425823637, 0.5673249, -0.40348396, -0.52826834, -0.4860762, -1.0073863, 2.8181224, 0.1243124, 0
1041, 1425840304, 0.5676844, -0.40327206, -0.52825093, -0.48585144, -2.4425917, 1.7315551, 2.95786, 0
1042, 1425856971, 0.5683033, -0.40335038, -0.5278336, -0.48551625, -1.0475507, 1.2603062, 0.14085484, 0
1043, 1425873638, 0.5691324, -0.4032908, -0.52715975, -0.48532668, 0.6858571, 3.2733982, -0.24163628, 0
1044, 1425890305, 0.569903, -0.4031299, -0.52645886, -0.48531696, 0.4873112, -0.6177359, 0.14847946, 0
1045, 1425906972, 0.5702528, -0.40355504, -0.5260987, -0.48494303, -0.4438481, -0.42354164, -2.727344, 0
1046, 1425923639, 0.57061124, -0.40422082, -0.5255304, -0.48458305, 0.3378276, 0.4640302, -3.442099, 0
1047, 1425940306, 0.57099724, -0.404868, -0.52511173, -0.48404175, -0.17704685, -0.041654546, 2.4744349, 0
1048, 1425956973, 0.57146215, -0.40553805, -0.52460295, -0.48348355, -0.8289892, 0.8132099, 3.5859013, 0
1049, 1425973640, 0.57194006, -0.40649864, -0.5236329, -0.48316318, -0.7582474, 1.7042907, 1.9113121, 0
1050, 1425990307, 0.572465, -0.40735513, -0.5224921, -0.4830551, -0.4885356, 0.88579243, -2.667667, 0
1051, 1426006974, 0.5728825, -0.40822095, -0.5215637, -0.48283264, -1.062273, -0.55102915, -0.82921696, 0
1052, 1426023641, 0.57306737, -0.40946105, -0.5207114, -0.48248294, -1.330091, -1.3954945, 0.5925989, 0
1053, 1426040308, 0.57323676, -0.41072923, -0.51982147, -0.4821632, -0.8869647, 1.4087919, 1.619174, 0
1054, 1426056975, 0.57371795, -0.41158086, -0.51853704, -0.4822478, -0.5385766, 1.26453, 0.8960085, 0
1055, 1426073642, 0.57408077, -0.41238222, -0.5173558, -0.48240003, -0.2395813, 0.28957602, -0.7880478, 0
1056, 1426090309, 0.574159, -0.4133589, -0.5164651, -0.4824253, 0.09336807, -2.075585, 0.33363056, 0
1057, 1426106976, 0.57389164, -0.41443664, -0.5159213, -0.48240086, -0.0015677199, -1.036648, -2.3245993, 0
1058, 1426123643, 0.5735415, -0.41550493, -0.51537097, -0.4824865, -0.36325595, 0.1984547, -0.15403938, 0
1059, 1426140310, 0.57332605, -0.41622347, -0.5148172, -0.48271474, 0.478131, 0.15288687, 0.78320885, 0
1060, 1426156977, 0.57316434, -0.41668707, -0.5143673, -0.48298582, 0.6682416, 0.32312688, -0.06370449, 0
1061, 1426173644, 0.57319355, -0.41670042, -0.5141066, -0.48321727, 0.8895711, -0.04030989, -0.24039078, 0
1062, 1426190311, 0.5731271, -0.41670287, -0.5140999, -0.48330116, 0.8564549, -1.3185997, -1.0505733, 0
1063, 1426206978, 0.57304806, -0.41670406, -0.5141949, -0.48329288, 1.2195802, -1.2837069, -0.9770622, 0
1064, 1426223645, 0.5728554, -0.41671446, -0.51452, -0.48316598, 1.2456049, -0.4388954, 0.052181244, 0
1065, 1426240312, 0.57287824, -0.41655055, -0.5147948, -0.48298767, 1.2750754, -0.23499504, 1.3784637, 0
1066, 1426256979, 0.5730942, -0.41632372, -0.5149128, -0.4828012, 0.7792225, -0.269947, -1.2757893, 0
1067, 1426273646, 0.5733594, -0.41637617, -0.5149206, -0.482433, -0.6009955, -1.4181725, 2.6872587, 0
1068, 1426290313, 0.57357275, -0.41682816, -0.5146652, -0.48206142, -0.09955401, -1.134026, -2.8748107, 0
1069, 1426306980, 0.57381797, -0.41743872, -0.51447237, -0.48144662, -0.67652005, -0.8791281, 0.8239975, 0
1070, 1426323647, 0.5742167, -0.41802454, -0.5141114, -0.4808479, 0.15213007, -1.6863849, 0.18152905, 0
1071, 1426340314, 0.57440734, -0.41878444, -0.51371706, -0.4803803, 0.084840424, -0.84994125, 0.4100666, 0
1072, 1426356981, 0.5747373, -0.41936377, -0.51296985, -0.48027876, -0.5631664, -0.21629013, -0.4222107, 0
1073, 1426373648, 0.5750336, -0.41984558, -0.51217145, -0.48035508, -0.79638094, -1.0545739, 2.0162382, 0
1074, 1426390315, 0.57526016, -0.42032447, -0.5114332, -0.48045173, -0.3769213, -2.1213408, -0.66147137, 0
1075, 1426406982, 0.57518375, -0.4209976, -0.5110199, -0.48039365, 0.14186412, -2.0802977, -1.5366726, 0
1076, 1426423649, 0.5751304, -0.42162043, -0.51064664, -0.48030826, -0.20427877, -0.8222078, -0.45216084, 0
1077, 1426440316, 0.5752251, -0.42210895, -0.5101934, -0.48024714, 0.3567365, -0.56510353, 1.0724525, 0
1078, 1426456983, 0.57538235, -0.42255342, -0.5096731, -0.4802205, 1.2606279, -1.0700283, 0.36441898, 0
1079, 1426473650, 0.57540804, -0.42311132, -0.50926447, -0.480132, 0.6185357, -0.87567055, -0.3284092, 0
1080, 1426490317, 0.5755361, -0.42358518, -0.5088152, -0.48003706, -0.18735862, -0.34451437, -1.4495583, 0
1081, 1426506984, 0.5756667, -0.42411593, -0.508416, -0.4798347, -0.34713954, -0.37811732, 1.2712688, 0
1082, 1426523651, 0.57609755, -0.42431688, -0.50790155, -0.47968486, 0.81736743, -0.6191552, 0.0636673, 0
1083, 1426540318, 0.5763364, -0.42460912, -0.507678, -0.4793757, 0.89978695, -0.7133597, -1.7553473, 0
1084, 1426556985, 0.5765783, -0.4248426, -0.50739145, -0.47918114, 0.60386646, -0.36180642, 1.186018, 0
1085, 1426573652, 0.576714, -0.42511046, -0.5072909, -0.47888687, 0.39380166, -1.5622234, 1.3372688, 0
1086, 1426590319, 0.57678103, -0.42530638, -0.5074408, -0.47847322, 0.8964434, -0.59528655, -2.2354646, 0
1087, 1426606986, 0.57689786, -0.4252884, -0.50761724, -0.47816092, 0.3863694, 0.15103352, 0.11993122, 0
1088, 1426623653, 0.5772468, -0.42499784, -0.5075821, -0.47803542, -0.17657791, 0.28253803, -0.10340977, 0
1089, 1426640320, 0.5776862, -0.4246157, -0.5076214, -0.47780243, 1.0724002, -1.2905477, 0.9289093, 0
1090, 1426656987, 0.577995, -0.42431292, -0.50779176, -0.47751707, 2.0944166, -1.148157, -1.3779726, 0
1091, 1426673654, 0.5782798, -0.42397892, -0.5080729, -0.47716957, 0.75384283, -1.2757565, 1.5329895, 0
1092, 1426690321, 0.57869565, -0.42355102, -0.5082819, -0.47682282, 0.43813413, -1.4132322, -0.24682236, 0
1093, 1426706988, 0.57904065, -0.42330334, -0.5083072, -0.47659686, 0.06265761, -0.6424918, -0.19230938, 0
1094, 1426723655, 0.57944375, -0.42298615, -0.50829595, -0.4764005, 0.81056505, -3.076686, 0.21525002, 0
1095, 1426740322, 0.57948786, -0.42274016, -0.5087613, -0.4760684, 1.2943075, -3.041204, -0.8580322, 0
1096, 1426756989, 0.5794892, -0.42243052, -0.50920933, -0.47586256, 0.93799603, -2.4545636, -1.0402899, 0
1097, 1426773656, 0.5793942, -0.42213845, -0.50967777, -0.4757361, 0.14902145, -3.457469, 1.5253181, 0
1098, 1426790323, 0.57934797, -0.42179552, -0.51004475, -0.47570312, 0.23256433, -1.724172, -0.3332491, 0
1099, 1426806990, 0.57933474, -0.42140105, -0.51028377, -0.47581258, -0.027095135, -2.4485602, 1.6186705, 0
1100, 1426823657, 0.57932323, -0.42113012, -0.5105554, -0.47577503, -0.027701078, -3.0991518, -1.4048166, 0
1101, 1426840324, 0.5791765, -0.42114082, -0.51084304, -0.47563523, 1.0332851, -3.801292, -4.1574516, 0
1102, 1426856991, 0.5789492, -0.42131513, -0.5109935, -0.47559607, 0.068802096, -2.4210176, -1.6938305, 0
1103, 1426873658, 0.5787905, -0.42172852, -0.5108525, -0.4755744, -0.99223524, -2.6116931, 0.5082321, 0
1104, 1426890325, 0.5786462, -0.4223997, -0.5105993, -0.47542623, -0.05748418, -4.33911, 3.5075588, 0
1105, 1426906992, 0.5781449, -0.423489, -0.5105665, -0.4751019, -0.21648549, -3.6389396, 0.18057919, 0
1106, 1426923659, 0.5774484, -0.42476425, -0.5104788, -0.4749049, -0.9497365, -2.4271073, -0.7165451, 0
1107, 1426940326, 0.577335, -0.42574215, -0.5095955, -0.4751156, -2.74025, 0.9428793, -4.6518946, 0
1108, 1426956993, 0.57758725, -0.42655972, -0.5079426, -0.47584504, -1.7541082, 0.06535653, 1.0534668, 0
1109, 1426973660, 0.57749397, -0.42701468, -0.5068035, -0.47676414, 0.04961958, -3.36564, 3.1012392, 0
1110, 1426990327, 0.57656336, -0.42751515, -0.5066554, -0.47759882, -0.98564655, -1.0861557, -2.3664212, 0
1111, 1427006994, 0.5751643, -0.42777675, -0.50714713, -0.47852847, -0.7243514, 2.6734135, -3.4949827, 0
1112, 1427023661, 0.57375485, -0.42741522, -0.5079718, -0.47966743, 0.016220111, 5.2746315, -2.636806, 0
1113, 1427040328, 0.5723569, -0.42643255, -0.5091892, -0.4809198, 1.1557533, 5.911312, 3.6718454, 0
1114, 1427056995, 0.5708693, -0.42474106, -0.5113775, -0.48186192, 1.8303738, 5.631532, -0.42153454, 0
1115, 1427073662, 0.5694609, -0.42249832, -0.514128, -0.48257256, 1.0087461, 7.17544, 1.5373316, 0
1116, 1427090329, 0.5682748, -0.42016658, -0.5164847, -0.48348942, 0.18927121, 5.2804346, 0.85501385, 0
1117, 1427106996, 0.5673332, -0.41785994, -0.5185704, -0.484361, 0.91109335, 6.1075535, 3.4694252, 0
1118, 1427123663, 0.56682, -0.4151737, -0.52034426, -0.4853681, 1.0119196, 4.5653043, 5.0698605, 0
1119, 1427140330, 0.5663659, -0.41293043, -0.5220772, -0.48595092, 0.8046024, 3.4690866, 1.3468208, 0
1120, 1427156997, 0.5661009, -0.4109306, -0.5234291, -0.48650005, 0.84524935, 3.6598582, -1.6009235, 0
1121, 1427173664, 0.5659788, -0.4089599, -0.52475595, -0.48687315, 1.652322, 2.4491498, -0.7358303, 0
1122, 1427190331, 0.5658758, -0.4072659, -0.5258247, -0.48725978, -0.49420547, 2.8669767, 2.9837008, 0
1123, 1427206998, 0.5660923, -0.40578607, -0.52652967, -0.48748165, -0.9137902, 2.7404497, 2.1963205, 0
1124, 1427223665, 0.56644994, -0.40453616, -0.52687585, -0.4877309, -0.4239024, 3.9713156, 0.16101837, 0
1125, 1427240332, 0.5667587, -0.40338516, -0.52718705, -0.48798922, 0.22752434, 2.0837646, -2.5076146, 0
1126, 1427256999, 0.56674874, -0.40251714, -0.52802116, -0.48781562, -0.51467276, 0.9880726, -0.79478073, 0
1127, 1427273666, 0.5666873, -0.4019813, -0.5286827, -0.4876123, -0.72853446, 2.3262222, -0.32464218, 0
1128, 1427290333, 0.56675535, -0.40164515, -0.5288832, -0.48759264, -0.8878806, 3.3537533, 1.4753323, 0
1129, 1427307000, 0.56709135, -0.40135777, -0.5285698, -0.48777857, -0.18776876, 2.8290706, 1.6287584, 0
1130, 1427323667, 0.56733435, -0.40139377, -0.52802247, -0.48805898, -1.1565855, 0.91552573, -0.5237427, 0
1131, 1427340334, 0.56751955, -0.4016294, -0.52744067, -0.48827904, -1.6873281, 0.84609276, -0.9516201, 0
1132, 1427357001, 0.5675425, -0.4023079, -0.52667254, -0.48852262, -2.0530722, 1.066609, 0.026740074, 0
1133, 1427373668, 0.5675401, -0.4033201, -0.5256567, -0.488785, -1.7964013, 0.6639273, 0.30993652, 0
1134, 1427390335, 0.56739366, -0.4043513, -0.5248586, -0.48896065, -0.94271106, 1.2833332, 1.545207, 0
1135, 1427407002, 0.56723154, -0.40525222, -0.52404624, -0.4892739, -1.0071738, 0.6304804, -0.558609, 0
1136, 1427423669, 0.56702864, -0.40615156, -0.52310765, -0.48976782, -1.4011298, 1.5328835, -0.995841, 0
1137, 1427440336, 0.5668659, -0.40706605, -0.52209544, -0.49027678, -1.355727, -0.5358518, 1.1138544, 0
1138, 1427457003, 0.56648713, -0.40811634, -0.52131444, -0.49067238, 0.31903434, -0.19184989, -0.6413975, 0
1139, 1427473670, 0.56613344, -0.4091206, -0.5205663, -0.49103823, 0.100549094, 0.42917684, 0.79496, 0
1140, 1427490337, 0.56586593, -0.4101103, -0.5198266, -0.49130458, -0.64405954, -1.0947497, 0.55460644, 0
1141, 1427507004, 0.56566834, -0.4114046, -0.5189058, -0.49142367, -0.47573638, 0.049866635, -0.45443344, 0
1142, 1427523671, 0.5658534, -0.41239494, -0.51778305, -0.49156457, 0.6808542, 0.33065346, -0.29501915, 0
1143, 1427540338, 0.56604755, -0.41353542, -0.5165181, -0.4917136, 0.17613514, -0.8412907, 1.7723284, 0
1144, 1427557005, 0.5661282, -0.41492593, -0.5153202, -0.49170637, -0.43513057, -2.5029104, 0.047495842, 0
1145, 1427573672, 0.5659597, -0.41671863, -0.51426685, -0.491487, -0.5360227, -1.738226, -1.5544548, 0
1146, 1427590339, 0.5658829, -0.4184606, -0.51323974, -0.4911688, -0.66091317, -0.7945666, -2.0833793, 0
1147, 1427607006, 0.5658479, -0.4200606, -0.51228976, -0.49083504, -0.12857628, -0.9154485, 1.6901665, 0
