sep=,
DeviceTag:,Xsens_DOT_5,,,,,,,,,,,,,,,,,
FirmwareVersion:,3.0.0,,,,,,,,,,,,,,,,,
AppVersion:,2023.6.1,,,,,,,,,,,,,,,,,
SyncStatus:,Synced,,,,,,,,,,,,,,,,,
OutputRate:,60Hz,,,,,,,,,,,,,,,,,
FilterProfile:,General,,,,,,,,,,,,,,,,,
Measurement Mode:,Sensor fusion Mode - Extended (Quaternion),,,,,,,,,,,,,,,,,
StartTime:,2025-05-05 11:30:15.487 +0200,,,,,,,,,,,,,,,,,
 2025,,,,,,,,,,,,,,,,,,,

PacketCounter,SampleTimeFine,Quat_W,Quat_X,Quat_Y,Quat_Z,FreeAcc_X,FreeAcc_Y,FreeAcc_Z,Status
1, 1408523291, -0.9031687, 0.12588066, -0.3006202, 0.27941135, 0.021840122, 0.0800696, -0.116719246, 0
2, 1408539958, -0.9031821, 0.12580964, -0.30061442, 0.27940637, 0.024652362, 0.080186166, -0.119000435, 0
3, 1408556625, -0.9032029, 0.12575991, -0.3005948, 0.2793826, 0.042285744, 0.10061156, -0.100029945, 0
4, 1408573292, -0.90320593, 0.12575094, -0.30058113, 0.2793916, 5.5654727E-5, 0.116743386, -0.11123943, 0
5, 1408589959, -0.9031918, 0.12577556, -0.3005742, 0.27943352, 0.015655294, 0.09477799, -0.12357521, 0
6, 1408606626, -0.9031838, 0.1257677, -0.300568, 0.27946964, 0.013425976, 0.05355471, -0.1129179, 0
7, 1408623293, -0.9032078, 0.12576556, -0.30054837, 0.27941385, 0.03312283, 0.09183946, -0.117533684, 0
8, 1408639960, -0.9032294, 0.12576419, -0.30053002, 0.2793645, 0.021030111, 0.08389793, -0.10065937, 0
9, 1408656627, -0.90322775, 0.12575196, -0.3005304, 0.27937514, 0.020118177, 0.08947011, -0.11612511, 0
10, 1408673294, -0.90321624, 0.12575568, -0.30054465, 0.27939546, -0.0074143717, 0.07825367, -0.11832428, 0
11, 1408689961, -0.9032147, 0.12577157, -0.30055857, 0.2793783, 0.014203355, 0.06112632, -0.1269207, 0
12, 1408706628, -0.9032122, 0.1257817, -0.30058736, 0.27935076, 0.004597438, 0.04693772, -0.12965584, 0
13, 1408723295, -0.90321124, 0.12574446, -0.3006048, 0.279352, -0.0011873008, 0.08172025, -0.13065147, 0
14, 1408739962, -0.90322155, 0.12574142, -0.30060428, 0.27932072, -9.689287E-4, 0.081985444, -0.090289116, 0
15, 1408756629, -0.90322113, 0.12573545, -0.30060393, 0.27932498, 0.008222595, 0.0760885, -0.117648125, 0
16, 1408773296, -0.90322006, 0.12571537, -0.3006288, 0.2793106, 0.022937793, 0.06199467, -0.11619377, 0
17, 1408789963, -0.9032202, 0.12566033, -0.30065677, 0.27930516, -0.009502877, 0.07579671, -0.13005924, 0
18, 1408806630, -0.90322375, 0.125623, -0.30066082, 0.2793056, 0.01642172, 0.115425445, -0.11224365, 0
19, 1408823297, -0.90323955, 0.12559868, -0.3006421, 0.27928552, -0.0046168836, 0.07636018, -0.10935497, 0
20, 1408839964, -0.9032378, 0.12551786, -0.30062956, 0.27934107, 0.0026437112, 0.06444415, -0.109116554, 0
21, 1408856631, -0.9032496, 0.12546097, -0.30060846, 0.2793512, 0.0045864857, 0.08719218, -0.13698769, 0
22, 1408873298, -0.9032542, 0.12540022, -0.30058417, 0.27938995, 0.037830237, 0.10678879, -0.1180706, 0
23, 1408889965, -0.9032422, 0.12538911, -0.3005935, 0.27942386, 0.037383884, 0.13162902, -0.11111069, 0
24, 1408906632, -0.90323174, 0.1254258, -0.30059317, 0.2794414, 0.002854931, 0.0978457, -0.1229887, 0
25, 1408923299, -0.9032112, 0.12543967, -0.30059424, 0.27950034, 0.0034747324, 0.06825203, -0.10855198, 0
26, 1408939966, -0.90321386, 0.12543179, -0.30057517, 0.27951556, 0.018630028, 0.059510548, -0.13408375, 0
27, 1408956633, -0.9032194, 0.12542458, -0.30055302, 0.27952477, 0.010786512, 0.081119, -0.13331604, 0
28, 1408973300, -0.90323234, 0.12542666, -0.30052492, 0.27951208, 0.014093386, 0.101324566, -0.1106472, 0
29, 1408989967, -0.90323275, 0.12545396, -0.30048603, 0.2795405, 0.014323604, 0.08820481, -0.107337, 0
30, 1409006634, -0.90322673, 0.12550364, -0.30044296, 0.27958354, 0.0056202332, 0.09873316, -0.11577606, 0
31, 1409023301, -0.903219, 0.125551, -0.30039167, 0.2796429, 0.017342817, 0.0761883, -0.111932755, 0
32, 1409039968, -0.9032154, 0.12558483, -0.30033416, 0.2797008, -0.0056613595, 0.06387207, -0.13807106, 0
33, 1409056635, -0.90321386, 0.12560122, -0.30029202, 0.27974367, 0.023668233, 0.059668124, -0.124913216, 0
34, 1409073302, -0.90322447, 0.1256002, -0.3002488, 0.27975628, 0.0029112562, 0.07340512, -0.11903, 0
35, 1409089969, -0.90325326, 0.12559247, -0.30019897, 0.27972043, 0.015408983, 0.0851676, -0.11843872, 0
36, 1409106636, -0.903246, 0.12558676, -0.30015862, 0.2797899, 0.00883882, 0.1114801, -0.1236763, 0
38, 1409139970, -0.90321904, 0.12564866, -0.3001554, 0.27985278, 0.022653038, 0.059464727, -0.11742592, 0
39, 1409156637, -0.90324163, 0.12568991, -0.30013865, 0.27977905, -0.03388747, 0.05136026, -0.13669968, 0
41, 1409189971, -0.90323323, 0.12574674, -0.30011433, 0.27980646, 0.0213323, 0.072884336, -0.11907101, 0
42, 1409206638, -0.90320534, 0.12577605, -0.30014658, 0.27984884, 0.013867191, 0.093908854, -0.122686386, 0
45, 1409256639, -0.9031908, 0.12581927, -0.3001632, 0.27985862, -5.8605097E-4, 0.073164284, -0.12963486, 0
46, 1409273306, -0.9031919, 0.1257974, -0.3001599, 0.27986848, 0.008311553, 0.09479732, -0.13101959, 0
47, 1409289973, -0.90318984, 0.12579682, -0.30015957, 0.27987555, 0.017627573, 0.123922735, -0.11635876, 0
49, 1409323307, -0.9031752, 0.12576345, -0.30016947, 0.2799273, -0.0109702395, 0.07250414, -0.13258743, 0
50, 1409339974, -0.9032006, 0.1257579, -0.30014876, 0.27986988, 0.01085066, 0.077438414, -0.11180973, 0
54, 1409406642, -0.9031649, 0.1257928, -0.3001569, 0.2799607, 0.02889799, 0.078441314, -0.1052227, 0
55, 1409423309, -0.90313804, 0.1258589, -0.30020872, 0.27996218, 0.011049363, 0.037403777, -0.13720036, 0
59, 1409489977, -0.90305233, 0.12600069, -0.30046463, 0.27990022, 0.021341687, 0.09770019, -0.12051296, 0
61, 1409523311, -0.9030597, 0.1259601, -0.3004901, 0.27986765, 5.811337E-6, 0.04038354, -0.1377058, 0
62, 1409539978, -0.9030877, 0.1258933, -0.3005044, 0.27979198, 0.0041419184, 0.06749018, -0.12664795, 0
65, 1409589979, -0.9031449, 0.12566549, -0.30052057, 0.27969226, -0.0036546604, 0.073656015, -0.108202934, 0
66, 1409606646, -0.9031762, 0.1255606, -0.30049837, 0.27966225, 0.019957695, 0.08699817, -0.13075447, 0
67, 1409623313, -0.90320563, 0.12550007, -0.30051133, 0.27958035, 0.014661333, 0.09520657, -0.13270378, 0
69, 1409656647, -0.9032012, 0.12548497, -0.30060318, 0.27950227, 0.021706237, 0.11014506, -0.12370968, 0
70, 1409673314, -0.90319437, 0.12552917, -0.3006818, 0.27942, 0.0059814304, 0.07418574, -0.12950516, 0
74, 1409739982, -0.9031424, 0.12563372, -0.3007692, 0.27944738, 0.008008692, 0.07165993, -0.11835194, 0
76, 1409773316, -0.9030925, 0.12555616, -0.30079538, 0.27961516, 0.0010312888, 0.0839233, -0.11792946, 0
77, 1409789983, -0.9030913, 0.12549797, -0.30081123, 0.279628, 0.018992119, 0.04187929, -0.1297512, 0
78, 1409806650, -0.90310585, 0.12540649, -0.30084872, 0.27958167, 0.011044445, 0.060331736, -0.14384556, 0
80, 1409839984, -0.90309, 0.12521693, -0.30098033, 0.2795763, 0.01669083, 0.111212224, -0.0799799, 0
81, 1409856651, -0.90307415, 0.12517156, -0.3010523, 0.2795701, 0.010014721, 0.101993434, -0.11270237, 0
82, 1409873318, -0.9030485, 0.12512033, -0.30111855, 0.27960458, -0.024319327, 0.10465894, -0.1276617, 0
84, 1409906652, -0.9030363, 0.12496326, -0.30115652, 0.27967346, 0.029102728, 0.08441749, -0.11561298, 0
85, 1409923319, -0.9030523, 0.12490319, -0.30115014, 0.27965558, 0.023708243, 0.09624121, -0.12248421, 0
86, 1409939986, -0.90303814, 0.124867864, -0.30118984, 0.27967414, 0.026712481, 0.124831766, -0.0833807, 0
89, 1409989987, -0.9030181, 0.12504101, -0.30119509, 0.27965564, -5.453716E-4, 0.06437654, -0.15041637, 0
90, 1410006654, -0.90301085, 0.12510774, -0.3012073, 0.27963597, 0.016684571, 0.06702941, -0.10891056, 0
92, 1410039988, -0.90298396, 0.12518893, -0.30132398, 0.27956107, 0.03581907, 0.07413254, -0.11422348, 0
93, 1410056655, -0.9029482, 0.12526163, -0.30143562, 0.2795237, 0.024093132, 0.10902817, -0.11051655, 0
95, 1410089989, -0.9028854, 0.12536718, -0.30160427, 0.27949747, -0.03608885, 0.07385963, -0.13582897, 0
96, 1410106656, -0.90288377, 0.12535043, -0.3015938, 0.27952147, -0.0049593053, 0.082416825, -0.14487362, 0
97, 1410123323, -0.9028958, 0.12529717, -0.30159843, 0.27950138, 0.025295632, 0.0516601, -0.13320827, 0
100, 1410173324, -0.9028716, 0.1249929, -0.30181763, 0.27947915, -9.253436E-5, 0.07836342, -0.11214256, 0
105, 1410256659, -0.9028507, 0.12469667, -0.30219853, 0.27926743, -0.008513162, 0.100251816, -0.14589787, 0
109, 1410323327, -0.90280956, 0.12451256, -0.30252624, 0.2791278, -0.04741358, 0.126162, -0.13996315, 0
111, 1410356661, -0.9028644, 0.124431506, -0.30239102, 0.2791329, 0.030584395, 0.11659364, -0.11272907, 0
112, 1410373328, -0.9028826, 0.12442928, -0.30238858, 0.27907768, 0.052339807, 0.103533104, -0.09493065, 0
113, 1410389995, -0.9028892, 0.124474995, -0.30249187, 0.27892393, 0.01687478, 0.06738066, -0.09784603, 0
115, 1410423329, -0.9028375, 0.124586254, -0.30285698, 0.27864513, 0.034826, 0.11008192, -0.13551903, 0
116, 1410439996, -0.90278953, 0.12469774, -0.30308565, 0.27850237, 0.013068803, 0.11289148, -0.12544537, 0
119, 1410489997, -0.9027154, 0.12503959, -0.3034769, 0.2781629, -0.0051117414, 0.10118275, -0.12046814, 0
120, 1410506664, -0.9027009, 0.12515716, -0.30351534, 0.27811503, 0.00842912, 0.13339767, -0.13508415, 0
122, 1410539998, -0.9026593, 0.12533693, -0.30356976, 0.27810985, -0.014055165, 0.11999751, -0.13088703, 0
123, 1410556665, -0.9026522, 0.1253606, -0.30352166, 0.2781749, -0.017454574, 0.031723306, -0.1471405, 0
127, 1410623333, -0.9026471, 0.12521452, -0.3031463, 0.2786664, 0.09642707, 0.009505112, -0.061694145, 0
128, 1410640000, -0.9025572, 0.12521033, -0.30344474, 0.27863455, 0.073460214, -0.0040032286, -0.12950039, 0
131, 1410690001, -0.9023242, 0.12513734, -0.3048098, 0.27793095, -0.04207095, 0.06542023, -0.13206196, 0
134, 1410740002, -0.90239114, 0.12484307, -0.30553392, 0.27704948, -0.03209512, 0.14578365, -0.10051632, 0
135, 1410756669, -0.90245056, 0.124753684, -0.30561563, 0.27680582, -0.027936438, 0.09682112, -0.105493546, 0
136, 1410773336, -0.9025079, 0.12467082, -0.3056501, 0.27661818, -0.021033464, 0.16855884, -0.11599922, 0
138, 1410806670, -0.9025599, 0.1246669, -0.30564165, 0.27645987, 0.024004621, 0.146077, -0.10858059, 0
139, 1410823337, -0.90255415, 0.12472977, -0.30559167, 0.27650517, -0.01229433, 0.15190677, -0.13866234, 0
140, 1410840004, -0.9025617, 0.12476056, -0.30547673, 0.27659357, -0.024053346, 0.039077554, -0.14578342, 0
142, 1410873338, -0.90259296, 0.12469688, -0.30526248, 0.27675736, 0.0127639305, 0.050912004, -0.13544273, 0
144, 1410906672, -0.9026355, 0.124597155, -0.30518743, 0.27674577, 0.016891545, 0.07391629, -0.12759495, 0
146, 1410940006, -0.9026473, 0.12450557, -0.3051141, 0.27682927, 0.009623574, 0.119945996, -0.11194134, 0
148, 1410973340, -0.9026276, 0.124445625, -0.3050714, 0.27696756, 0.002286761, 0.041156333, -0.11475086, 0
150, 1411006674, -0.9026339, 0.12434796, -0.30526593, 0.27677655, 0.016657079, 0.08763619, -0.110899925, 0
151, 1411023341, -0.90262234, 0.12430389, -0.3053634, 0.27672663, -0.022567432, 0.15850835, -0.12696552, 0
153, 1411056675, -0.9026272, 0.12437318, -0.30533412, 0.27671158, 0.018484522, 0.1433545, -0.138731, 0
154, 1411073342, -0.90263635, 0.12445224, -0.30525807, 0.27673045, 0.012409886, 0.11439918, -0.116755486, 0
155, 1411090009, -0.9026376, 0.1245137, -0.30521014, 0.2767513, -0.004787871, 0.061219975, -0.10975456, 0
157, 1411123343, -0.90257293, 0.12476995, -0.30517906, 0.27688107, 0.046834234, 0.19222757, -0.13003635, 0
158, 1411140010, -0.9025058, 0.124975085, -0.30519477, 0.27699056, -0.036438424, 0.06660709, -0.12252903, 0
161, 1411190011, -0.9025475, 0.12522522, -0.30490628, 0.27705905, 0.03408863, 0.09135589, -0.1556015, 0
163, 1411223345, -0.9025835, 0.12517698, -0.3048142, 0.2770652, 7.1367685E-4, 0.06054061, -0.10587978, 0
165, 1411256679, -0.9026314, 0.1250549, -0.3048001, 0.27697957, 0.0425182, 0.09466712, -0.1029377, 0
166, 1411273346, -0.9026411, 0.12500168, -0.30486885, 0.27689588, 0.007352459, 0.061933093, -0.11076164, 0
167, 1411290013, -0.90265185, 0.12491896, -0.3049658, 0.2767917, -0.008677667, 0.063730694, -0.11240482, 0
169, 1411323347, -0.90268826, 0.12474452, -0.3051241, 0.27657697, 0.0010375471, 0.109545596, -0.14021969, 0
170, 1411340014, -0.90270835, 0.124665946, -0.30518863, 0.2764756, 0.004345986, 0.09094004, -0.110902786, 0
171, 1411356681, -0.9027266, 0.1245728, -0.305261, 0.27637824, 0.012673408, 0.08582093, -0.12425232, 0
173, 1411390015, -0.9027393, 0.12442879, -0.30548427, 0.27615505, -0.02319662, 0.086661115, -0.11581707, 0
174, 1411406682, -0.9027737, 0.124319695, -0.30556545, 0.2760018, 0.006010934, 0.08124249, -0.11042309, 0
176, 1411440016, -0.9028393, 0.12407891, -0.30574426, 0.27569732, 0.02580904, 0.11539393, -0.122938156, 0
178, 1411473350, -0.9028904, 0.1239289, -0.30577818, 0.27555987, 0.001286764, 0.15934552, -0.13093185, 0
181, 1411523351, -0.90294296, 0.12387896, -0.3056417, 0.27556142, 0.014199778, 0.058674946, -0.10779953, 0
182, 1411540018, -0.9029421, 0.12386532, -0.30573562, 0.27546582, 0.02260029, 0.09295915, -0.11321831, 0
184, 1411573352, -0.9029211, 0.123957604, -0.30601096, 0.27518776, -0.001448811, 0.1509355, -0.10538292, 0
185, 1411590019, -0.90290385, 0.12400921, -0.30614653, 0.27507004, 0.017370533, 0.037254468, -0.11614895, 0
188, 1411640020, -0.9029483, 0.123863116, -0.30683988, 0.27421647, -0.012848419, 0.07213657, -0.14552593, 0
189, 1411656687, -0.9030182, 0.12373979, -0.3069474, 0.27392134, -0.021986969, 0.18672703, -0.15571117, 0
190, 1411673354, -0.90307117, 0.12366699, -0.3069331, 0.27379555, -0.012167598, 0.23167202, -0.13594341, 0
194, 1411740022, -0.9031474, 0.123948984, -0.30628687, 0.2741403, 0.017055826, 0.07056919, -0.080467224, 0
196, 1411773356, -0.90308744, 0.124090165, -0.30631945, 0.2742372, 0.0058482164, 0.0026799203, -0.1061306, 0
197, 1411790023, -0.9030829, 0.124075614, -0.30641004, 0.27415735, 0.009607257, 0.07672037, -0.10815239, 0
198, 1411806690, -0.90306777, 0.124059506, -0.3064825, 0.27413368, 0.014202908, 0.1433241, -0.14956474, 0
200, 1411840024, -0.90304536, 0.12402637, -0.30652383, 0.2741765, 0.016263474, 0.08591626, -0.12047863, 0
201, 1411856691, -0.90303165, 0.123962, -0.30656272, 0.2742072, -0.017323371, 0.080252886, -0.11365032, 0
203, 1411890025, -0.9029996, 0.12386284, -0.30665648, 0.2742527, 0.01687031, 0.12451091, -0.117323875, 0
204, 1411906692, -0.902967, 0.12384792, -0.30673766, 0.27427608, 0.018945182, 0.10587328, -0.10789013, 0
205, 1411923359, -0.90292674, 0.12379182, -0.30684713, 0.2743112, 0.034317955, 0.0877342, -0.11277008, 0
208, 1411973360, -0.9028001, 0.12387924, -0.3072397, 0.2742494, -0.019505082, 0.13024938, -0.10938358, 0
211, 1412023361, -0.9027373, 0.12414331, -0.3071244, 0.27446574, 0.006562117, 0.12215084, -0.10942936, 0
212, 1412040028, -0.902721, 0.124243625, -0.30705923, 0.2745469, 0.011442746, 0.11082175, -0.119047165, 0
213, 1412056695, -0.902693, 0.12435595, -0.30703554, 0.27461472, -0.010512485, 0.046498854, -0.12094021, 0
215, 1412090029, -0.9026539, 0.1244904, -0.30707824, 0.27463418, -0.0022440702, 0.115433045, -0.10985279, 0
216, 1412106696, -0.9026313, 0.12455407, -0.3071099, 0.27464417, 0.005249649, 0.105692685, -0.12681293, 0
217, 1412123363, -0.9026191, 0.12458474, -0.30711225, 0.2746677, -0.04598377, 0.112054646, -0.11170483, 0
219, 1412156697, -0.9026488, 0.12456779, -0.3069565, 0.27475184, 0.028909612, 0.09203347, -0.13314152, 0
220, 1412173364, -0.90267944, 0.124553286, -0.30687833, 0.27474508, -0.002572187, 0.08053272, -0.11851883, 0
223, 1412223365, -0.9026551, 0.124534845, -0.3069481, 0.27475563, 0.023173377, 0.04071691, -0.1338234, 0
224, 1412240032, -0.9026302, 0.12438667, -0.30711317, 0.27472028, 0.04773879, -0.0035473742, -0.14193344, 0
227, 1412290033, -0.9025398, 0.12346551, -0.30854365, 0.27382824, 0.08542799, 0.18499787, -0.07887936, 0
228, 1412306700, -0.90246695, 0.12322868, -0.30917126, 0.27346703, 0.081584685, 0.26646227, -0.08701992, 0
229, 1412323367, -0.90232486, 0.123086765, -0.3097828, 0.27330732, 0.036844995, 0.11178486, -0.14417839, 0
231, 1412356701, -0.9022424, 0.12281614, -0.31037983, 0.27302402, -0.16869998, 0.25396872, -0.12985134, 0
232, 1412373368, -0.9022385, 0.12289587, -0.3103487, 0.27303636, -0.03908996, 0.26861218, -0.12671375, 0
234, 1412406702, -0.9021531, 0.12292148, -0.31023252, 0.27343902, -0.007132969, -0.0271775, -0.1913948, 0
235, 1412423369, -0.9021129, 0.12258694, -0.31035176, 0.2735863, -0.012916367, 0.04325132, -0.09474754, 0
238, 1412473370, -0.9022062, 0.12178994, -0.3104941, 0.27347288, -0.023406947, 0.20949025, -0.12408829, 0
239, 1412490037, -0.90219074, 0.121669084, -0.31048808, 0.27358437, 0.02213583, 0.2129243, -0.14094639, 0
240, 1412506704, -0.90214574, 0.12168688, -0.3104624, 0.27375412, -0.0017445186, 0.22766253, -0.11864948, 0
243, 1412556705, -0.90221334, 0.12167569, -0.3097183, 0.2743783, -0.07202973, 0.08070584, -0.0723753, 0
244, 1412573372, -0.902288, 0.12153036, -0.3093419, 0.27462208, -0.0039758487, 0.14963791, -0.08225632, 0
246, 1412606706, -0.9022916, 0.121497616, -0.30868074, 0.27536774, 0.0027235053, 0.14732303, -0.07034588, 0
247, 1412623373, -0.9022542, 0.12166245, -0.3083345, 0.27580488, -0.06255412, 0.31428403, -0.015268326, 0
248, 1412640040, -0.9021863, 0.122053966, -0.3078049, 0.2764451, -0.08056502, 0.45408377, 0.017170906, 0
250, 1412673374, -0.9017255, 0.12359969, -0.30658427, 0.2786095, 0.11617444, -0.10694435, -0.26652718, 0
252, 1412706708, -0.9013229, 0.12470826, -0.30631882, 0.27970803, 0.05683085, -0.18778586, -0.23019981, 0
254, 1412740042, -0.9009673, 0.12531993, -0.30682343, 0.28002676, 0.04546745, 0.14164105, -0.06611729, 0
255, 1412756709, -0.9007795, 0.12564643, -0.30708826, 0.2801946, 0.002806205, 0.1981264, -0.094278336, 0
257, 1412790043, -0.9003583, 0.12648356, -0.3077813, 0.28041112, -0.015764369, 0.0061364365, -0.09655762, 0
258, 1412806710, -0.9001779, 0.12680031, -0.30803812, 0.28056526, -0.03814785, 0.22882815, -0.11198902, 0
259, 1412823377, -0.9000078, 0.12719887, -0.3081277, 0.28083208, 0.0014959722, 0.30502573, -0.055419922, 0
261, 1412856711, -0.8997236, 0.12833488, -0.3080238, 0.2813396, -0.050107133, -0.12934415, -0.19275379, 0
262, 1412873378, -0.89972913, 0.12847504, -0.30787745, 0.2814178, -0.08198321, -0.06586525, -0.12857151, 0
263, 1412890045, -0.89974606, 0.12852132, -0.30772853, 0.2815055, 0.03944691, 0.15986171, -0.1065588, 0
265, 1412923379, -0.89984745, 0.12834725, -0.3075793, 0.28142405, -0.08217923, -0.06414028, -0.19898796, 0
267, 1412956713, -0.9005369, 0.12630855, -0.30730802, 0.28043598, 0.11562817, 0.022110125, -0.07556248, 0
269, 1412990047, -0.90121216, 0.12426832, -0.3071905, 0.27930412, 0.00861553, 0.274933, -0.026950836, 0
270, 1413006714, -0.90139467, 0.1235008, -0.30736753, 0.27886075, 0.022670472, 0.1450237, -0.090411186, 0
273, 1413056715, -0.9017983, 0.12154333, -0.30837837, 0.27729565, -0.060837545, 0.20727642, -0.08745098, 0
274, 1413073382, -0.9018686, 0.121161275, -0.30865487, 0.27692664, -0.12385009, 0.3796742, -0.06153679, 0
275, 1413090049, -0.9018564, 0.12103209, -0.30887282, 0.2767795, 0.07256818, 0.2242915, -0.14582157, 0
277, 1413123383, -0.90196824, 0.12037738, -0.30947477, 0.27602714, -0.015026329, -0.041143596, -0.10132599, 0
278, 1413140050, -0.9021544, 0.119715594, -0.30967337, 0.2754832, -0.06402215, 0.018637404, -0.10314369, 0
279, 1413156717, -0.9023689, 0.11895995, -0.30988792, 0.27486622, 0.09591902, 0.0076375497, -0.12648106, 0
282, 1413206718, -0.9032533, 0.11580695, -0.3110005, 0.27203634, 0.016268838, 0.11724735, -0.06925583, 0
284, 1413240052, -0.90384823, 0.11411548, -0.31197134, 0.26965353, 0.0454603, 0.24419516, -0.07827282, 0
285, 1413256719, -0.90411735, 0.11360777, -0.3123599, 0.26851326, -0.06185922, 0.3907444, -0.0727787, 0
286, 1413273386, -0.9043216, 0.11344421, -0.31256253, 0.26765728, -0.038046375, 0.507488, -0.13415432, 0
289, 1413323387, -0.90419316, 0.11449861, -0.3127146, 0.26746497, -0.12127433, 0.09277246, -0.1541357, 0
290, 1413340054, -0.904188, 0.114860624, -0.31246454, 0.26761886, -0.06960752, 0.18348865, -0.13355827, 0
292, 1413373388, -0.9040547, 0.11596327, -0.31189784, 0.2682544, 0.04019657, 0.24225831, -0.08617973, 0
293, 1413390055, -0.9038969, 0.11683872, -0.3116699, 0.2686709, 0.013943185, 0.24809138, -0.121165276, 0
294, 1413406722, -0.9036624, 0.11787576, -0.31151524, 0.26918536, 0.056791738, 0.17656434, -0.076506615, 0
297, 1413456723, -0.9028708, 0.121103, -0.31128374, 0.27067322, -0.021654159, 0.0829394, -0.08512306, 0
298, 1413473390, -0.9026531, 0.122045696, -0.31120205, 0.27106938, -0.0034307004, 0.21343213, -0.02367878, 0
300, 1413506724, -0.90212953, 0.12419167, -0.31103447, 0.2720283, -0.106556445, -0.019520057, -0.1731348, 0
301, 1413523391, -0.90193063, 0.12504645, -0.3108622, 0.27249286, -0.089735314, 0.24848858, -0.07067299, 0
302, 1413540058, -0.9017191, 0.12623471, -0.31048673, 0.27307206, -0.06935048, 0.41338968, -0.073399544, 0
305, 1413590059, -0.90104204, 0.12982434, -0.309485, 0.27475634, 0.01744675, 0.068587184, -0.055192947, 0
306, 1413606726, -0.9008957, 0.13067554, -0.30909947, 0.27526572, 0.012301929, 0.20804094, -0.06705189, 0
308, 1413640060, -0.90078515, 0.13169484, -0.30808967, 0.27627182, -0.06375841, 0.12895927, -0.07913494, 0
309, 1413656727, -0.9008326, 0.13198146, -0.30745238, 0.27668992, 0.05670166, -0.030737503, -0.29293537, 0
312, 1413706728, -0.9008362, 0.13249792, -0.3066011, 0.27737564, 0.06680221, 0.058058944, -0.14739132, 0
313, 1413723395, -0.9008302, 0.13262339, -0.30653197, 0.2774117, 0.04199451, 0.020143881, -0.13861561, 0
315, 1413756729, -0.9008407, 0.13263603, -0.3064427, 0.2774698, -0.016191278, 0.023194386, -0.11803532, 0
316, 1413773396, -0.9008821, 0.13250147, -0.30631736, 0.27753833, -0.057242785, 0.16555169, -0.08401394, 0
317, 1413790063, -0.9009403, 0.13235638, -0.30613762, 0.2776167, 0.02184951, 0.11530307, -0.15559196, 0
319, 1413823397, -0.90101117, 0.13218309, -0.3058549, 0.27778104, 0.045276795, 0.039578445, -0.16818142, 0
321, 1413856731, -0.90108645, 0.13185158, -0.30578598, 0.27776992, 0.0056255977, 0.1378553, -0.09575844, 0
323, 1413890065, -0.90114224, 0.1316842, -0.30565786, 0.27780923, 0.029209344, 0.16509214, -0.099892616, 0
324, 1413906732, -0.9011301, 0.13170634, -0.30563563, 0.27786258, 0.0027485387, 0.14508115, -0.1073637, 0
327, 1413956733, -0.90113837, 0.13156788, -0.30569065, 0.27784127, 0.012782259, 0.099442594, -0.13512707, 0
328, 1413973400, -0.9011397, 0.13153097, -0.3057887, 0.2777465, 0.0067324336, 0.12807024, -0.121557236, 0
329, 1413990067, -0.9011339, 0.13151567, -0.30590793, 0.2776414, 0.012223253, 0.11169479, -0.12648869, 0
331, 1414023401, -0.90110487, 0.13145564, -0.30623096, 0.27740723, -0.0036146515, 0.18152794, -0.07944584, 0
332, 1414040068, -0.9011099, 0.13140018, -0.3063102, 0.27732986, -0.0018748266, 0.1410198, -0.12330818, 0
333, 1414056735, -0.90105987, 0.13141815, -0.30645725, 0.27732125, 0.074834816, 0.20790829, -0.030517578, 0
335, 1414090069, -0.90098137, 0.13152139, -0.30676484, 0.27718756, -0.047956493, 0.027036909, -0.16933441, 0
336, 1414106736, -0.9010358, 0.131368, -0.3068753, 0.27696115, -0.06958428, -0.09916521, -0.21550179, 0
337, 1414123403, -0.9011755, 0.1309997, -0.3069293, 0.27662084, -0.021677852, 0.022528766, -0.1653471, 0
339, 1414156737, -0.9015327, 0.1301185, -0.3068386, 0.27597257, 0.079472266, -0.03234121, -0.16512871, 0
342, 1414206738, -0.9018831, 0.12841386, -0.30801436, 0.2743117, 0.007889113, 0.16975161, -0.05411148, 0
343, 1414223405, -0.90198517, 0.12777211, -0.3085694, 0.2736512, -0.032925695, 0.027451973, -0.114907265, 0
344, 1414240072, -0.9021011, 0.1270693, -0.30914882, 0.27294117, -0.0050163013, 0.15124138, -0.091854095, 0
346, 1414273406, -0.9023183, 0.12578475, -0.31017047, 0.2716566, -0.06303557, 0.2989463, -0.0914402, 0
347, 1414290073, -0.9024213, 0.12536, -0.3104539, 0.27118656, -0.06744503, 0.253027, -0.13779068, 0
348, 1414306740, -0.90252423, 0.12508844, -0.31061375, 0.27078587, -0.030259408, 0.25496224, -0.12797737, 0
352, 1414373408, -0.90302634, 0.12427015, -0.31028545, 0.26986352, 0.003510718, 0.17625925, -0.11785412, 0
354, 1414406742, -0.9033154, 0.123345174, -0.31023562, 0.26937717, 0.117770314, 0.09324826, -0.06983185, 0
356, 1414440076, -0.9036109, 0.12227102, -0.31070408, 0.2683339, 0.033049744, 0.15215823, -0.15806484, 0
358, 1414473410, -0.9038838, 0.1211315, -0.31151566, 0.26698762, 0.026128441, 0.25363067, -0.041975975, 0
359, 1414490077, -0.90395373, 0.12086963, -0.31195498, 0.26635528, -0.016220111, 0.25991422, -0.057372093, 0
360, 1414506744, -0.9039842, 0.12088902, -0.3122876, 0.265853, -0.048668604, 0.3254875, -0.14038277, 0
363, 1414556745, -0.90391576, 0.1217093, -0.31235537, 0.26563188, -0.04921308, 0.22532481, -0.13809586, 0
365, 1414590079, -0.90393925, 0.12223922, -0.31188297, 0.2658638, -0.0447084, 0.15730675, -0.12574482, 0
366, 1414606746, -0.9039774, 0.122493334, -0.3115239, 0.26603752, -0.03455801, 0.2152104, -0.11683369, 0
367, 1414623413, -0.90399176, 0.122820646, -0.31114843, 0.26627696, 0.022653038, 0.1672558, -0.13548088, 0
371, 1414690081, -0.9037387, 0.12447763, -0.31027767, 0.26738083, 0.05373855, 0.20615478, -0.09245968, 0
373, 1414723415, -0.90353775, 0.12530297, -0.31021512, 0.26774693, -0.040196348, -0.01363105, -0.12957382, 0
375, 1414756749, -0.90350336, 0.12556951, -0.31011328, 0.2678559, 0.007868326, 0.14400224, -0.13183594, 0
377, 1414790083, -0.90338665, 0.12604941, -0.3099854, 0.26817155, 0.007533057, 0.22137232, -0.09963322, 0
378, 1414806750, -0.9033018, 0.1264012, -0.30987334, 0.26842147, -0.02687721, 0.14595641, -0.13869286, 0
379, 1414823417, -0.90324855, 0.12666637, -0.309747, 0.26862156, 0.007486343, 0.056762345, -0.14264965, 0
382, 1414873418, -0.90308315, 0.12747931, -0.30932385, 0.26927993, -0.009923081, 0.19292615, -0.11799908, 0
383, 1414890085, -0.9030411, 0.1277467, -0.30912998, 0.2695165, -0.005182148, 0.031145077, -0.16426373, 0
386, 1414940086, -0.9029178, 0.12838267, -0.30868664, 0.2701346, 0.003465345, 0.09444663, -0.15645981, 0
387, 1414956753, -0.90289557, 0.12853582, -0.3085698, 0.2702697, -0.006981651, 0.09270971, -0.11628246, 0
392, 1415040088, -0.9027036, 0.12945753, -0.30810297, 0.2710025, 7.145709E-4, 0.14058585, -0.11692333, 0
393, 1415056755, -0.90268016, 0.12962626, -0.3079813, 0.2711383, -0.008845972, 0.052629367, -0.15965939, 0
394, 1415073422, -0.9026723, 0.12972316, -0.30786285, 0.2712527, -0.005646608, 0.14210942, -0.1092062, 0
397, 1415123423, -0.9025948, 0.13013574, -0.30746353, 0.27176532, 0.0050786613, 0.13841744, -0.1275835, 0
398, 1415140090, -0.9025888, 0.13029669, -0.3073049, 0.27188784, 0.011279581, 0.14512116, -0.104699135, 0
401, 1415190091, -0.9025504, 0.13053177, -0.3069186, 0.2723384, 0.02435196, 0.2133562, -0.0799427, 0
402, 1415206758, -0.9025243, 0.13064592, -0.3067458, 0.27256474, -0.02581664, 0.17867547, -0.101454735, 0
404, 1415240092, -0.9025107, 0.1307381, -0.30639285, 0.27296212, 0.017979158, 0.022355318, -0.17575645, 0
405, 1415256759, -0.90252286, 0.13073865, -0.30628645, 0.2730412, 0.01364636, 0.15460123, -0.12611675, 0
406, 1415273426, -0.9025331, 0.13077916, -0.3062006, 0.27308428, 0.0062319883, 0.10242336, -0.10894489, 0
409, 1415323427, -0.90252376, 0.13078773, -0.30607912, 0.27324688, -0.009953256, 0.17936814, -0.08677387, 0
410, 1415340094, -0.902489, 0.13081771, -0.30601794, 0.27341563, 0.0028770587, 0.18627658, -0.12638378, 0
412, 1415373428, -0.90245074, 0.13094443, -0.30582118, 0.2737014, -0.0122420285, 0.12633902, -0.110095024, 0
413, 1415390095, -0.9024488, 0.13104133, -0.3056841, 0.2738149, -0.024908954, 0.14214362, -0.10025883, 0
416, 1415440096, -0.9024929, 0.13122891, -0.3051483, 0.27417707, 0.0062404815, 0.17178334, -0.104403496, 0
417, 1415456763, -0.90251267, 0.13136001, -0.304925, 0.27429774, -0.0272431, 0.19525902, -0.07991886, 0
418, 1415473430, -0.9025219, 0.1315029, -0.30464417, 0.2745101, 0.012613954, 0.13432515, -0.12512779, 0
420, 1415506764, -0.90256053, 0.13162233, -0.30420122, 0.27481756, 0.006422198, 0.15046556, -0.096256256, 0
421, 1415523431, -0.902546, 0.13167852, -0.3040349, 0.27502233, 0.015195975, 0.17677751, -0.082844734, 0
423, 1415556765, -0.9025085, 0.13191944, -0.30375525, 0.2753389, 0.014436702, 0.07049297, -0.16253948, 0
424, 1415573432, -0.90251833, 0.13196562, -0.30365476, 0.27539504, -0.008857371, 0.079974055, -0.14269638, 0
425, 1415590099, -0.9025282, 0.13199309, -0.30356127, 0.27545246, 0.0074639916, 0.14299297, -0.15006065, 0
427, 1415623433, -0.9025346, 0.13200371, -0.30346847, 0.2755286, 0.001941657, 0.08719464, -0.13774967, 0
428, 1415640100, -0.9025516, 0.1319207, -0.30347133, 0.2755096, 0.007963766, 0.08090018, -0.13804626, 0
431, 1415690101, -0.9026392, 0.13160633, -0.30338678, 0.27546594, -0.013409884, 0.19762222, -0.10311508, 0
432, 1415706768, -0.9026812, 0.13152857, -0.30329153, 0.27547044, 0.039583027, 0.13686201, -0.11851215, 0
433, 1415723435, -0.9027035, 0.13142283, -0.30328143, 0.2754591, 0.05538651, 0.09336829, -0.110554695, 0
435, 1415756769, -0.90277374, 0.13120352, -0.30335084, 0.27525702, 0.0021108564, 0.13318177, -0.12620068, 0
436, 1415773436, -0.90279764, 0.1310842, -0.30344108, 0.27513635, 0.021330511, 0.08587513, -0.14449024, 0
439, 1415823437, -0.9028705, 0.13084595, -0.30368045, 0.27474564, 0.014071928, 0.18825568, -0.11337185, 0
440, 1415840104, -0.9028754, 0.13086914, -0.3037142, 0.274681, 0.0029872507, 0.1720558, -0.13156986, 0
443, 1415890105, -0.902933, 0.1307416, -0.30383164, 0.27442294, -0.024271272, 0.1876522, -0.116992, 0
446, 1415940106, -0.9028918, 0.1308734, -0.3041147, 0.27418146, 0.0018415232, 0.02664185, -0.18062496, 0
447, 1415956773, -0.9029093, 0.1308493, -0.3043322, 0.27389443, -0.03542658, -0.03153466, -0.15266609, 0
448, 1415973440, -0.9029551, 0.1306486, -0.3045704, 0.27357435, 0.0118077425, 0.034321308, -0.1344738, 0
450, 1416006774, -0.9032429, 0.12955846, -0.3051097, 0.27253965, -0.02291656, -0.15002547, -0.18131542, 0
451, 1416023441, -0.90346104, 0.12852304, -0.30544743, 0.27192768, 0.043308094, 0.029894076, -0.08859539, 0
452, 1416040108, -0.90367407, 0.12732233, -0.3058731, 0.27130586, 0.07289652, 0.22655955, -0.031166077, 0
454, 1416073442, -0.90394366, 0.12508163, -0.30706438, 0.2701018, -0.044654537, 0.06941318, -0.08072853, 0
456, 1416106776, -0.9041308, 0.12335198, -0.3083501, 0.26880306, -0.006213884, 0.34789932, -0.057076454, 0
458, 1416140110, -0.9040861, 0.12284015, -0.3091322, 0.2682888, -0.09342596, 0.20459683, -0.192132, 0
460, 1416173444, -0.9043795, 0.12219503, -0.30888492, 0.26787853, -0.031791367, 0.026215611, -0.14488602, 0
462, 1416206778, -0.9047783, 0.12126699, -0.30858755, 0.2672959, 0.117076084, 0.15767945, -0.09781456, 0
463, 1416223445, -0.9048777, 0.12087754, -0.30874258, 0.2669566, 0.08421163, 0.13975069, -0.059078217, 0
464, 1416240112, -0.904884, 0.120565504, -0.30911762, 0.26664224, 0.06394371, 0.17689984, -0.05972004, 0
466, 1416273446, -0.9048596, 0.11989894, -0.31026122, 0.265696, 0.051006105, 0.19420281, -0.045272827, 0
467, 1416290113, -0.90496886, 0.11988352, -0.31084418, 0.26464704, 0.088005096, 0.09671193, -0.07762241, 0
468, 1416306780, -0.90544456, 0.11985653, -0.31129864, 0.26248923, -0.34602442, -0.42345592, -0.13471508, 0
470, 1416340114, -0.90702134, 0.119737945, -0.31179863, 0.25643668, -0.06777538, 0.18897574, -0.11299133, 0
473, 1416390115, -0.90972275, 0.120237105, -0.31216526, 0.24597445, -0.18987985, 0.2545721, -0.07156086, 0
475, 1416423449, -0.9121202, 0.12137267, -0.31128624, 0.2375064, -0.18424441, 0.27306372, -0.19301128, 0
477, 1416456783, -0.9151606, 0.122636914, -0.3089625, 0.22800522, -0.06966653, 0.32154977, -0.17757225, 0
478, 1416473450, -0.91666096, 0.1236199, -0.30759358, 0.22324869, 0.028447388, 0.58000124, -0.14084816, 0
479, 1416490117, -0.9179874, 0.12519006, -0.30617493, 0.2188294, 0.11996589, 0.47764724, -0.11243057, 0
481, 1416523451, -0.9196523, 0.12788604, -0.30328852, 0.21425174, 0.36761534, 0.93492997, -0.13639069, 0
482, 1416540118, -0.91959524, 0.12962294, -0.3021006, 0.21512945, 0.13265426, 0.8063891, -0.016834259, 0
483, 1416556785, -0.919298, 0.13172509, -0.30089542, 0.21680553, -0.05988091, 0.47868484, -0.07278061, 0
485, 1416590119, -0.91866887, 0.13638128, -0.2980548, 0.22048585, -0.05571306, -0.11912559, -0.1606884, 0
486, 1416606786, -0.91869783, 0.13742788, -0.29658794, 0.22168937, -0.11363958, -1.070395, -0.23638248, 0
490, 1416673454, -0.9195213, 0.1368622, -0.29252133, 0.2240172, 0.071440555, 0.2230019, -0.06922817, 0
491, 1416690121, -0.9196768, 0.13665262, -0.29180545, 0.22443977, 0.12640865, 0.15662223, -0.16027641, 0
493, 1416723455, -0.91985726, 0.13654564, -0.2910886, 0.2246962, -0.03600436, 0.31829378, -0.065169334, 0
494, 1416740122, -0.91991764, 0.1366288, -0.2906127, 0.22501397, -0.15367074, 0.4076094, 0.025997162, 0
495, 1416756789, -0.9200191, 0.13679487, -0.28986773, 0.22545873, -0.08699571, 0.4529841, 0.031642914, 0
497, 1416790123, -0.9202903, 0.13906734, -0.28706563, 0.22654387, -0.1581685, 0.94491357, 0.21909809, 0
498, 1416806790, -0.9203449, 0.14150502, -0.2849473, 0.22748515, -0.33957162, 0.53965694, 0.36360264, 0
500, 1416840124, -0.9199798, 0.14963882, -0.2797729, 0.2301635, -0.23244856, 0.14449342, 0.28690147, 0
501, 1416856791, -0.91955906, 0.1547641, -0.2772703, 0.23148051, 0.2109589, -0.19081312, -0.0928936, 0
502, 1416873458, -0.91908765, 0.1601374, -0.274763, 0.23268467, -0.13197166, -0.038539555, -0.22627926, 0
505, 1416923459, -0.9184003, 0.1706525, -0.26822478, 0.23553568, 0.0138669675, 0.22818504, -0.033659935, 0
506, 1416940126, -0.9182381, 0.17329344, -0.26641822, 0.23628876, 0.15397629, -0.005465227, 0.028258324, 0
508, 1416973460, -0.91776615, 0.17886274, -0.2630398, 0.2377531, -0.0066971187, -0.4119794, -0.36927032, 0
509, 1416990127, -0.91739535, 0.18138121, -0.26183704, 0.23860171, 0.4158512, 0.51045644, -0.12969875, 0
510, 1417006794, -0.91692877, 0.18427034, -0.26083654, 0.23927648, 0.32694358, 0.28676566, -0.044776917, 0
512, 1417040128, -0.91618794, 0.18874148, -0.25872847, 0.24091268, -0.33736956, -0.68861014, -0.6266918, 0
513, 1417056795, -0.91608554, 0.18934079, -0.2577059, 0.24192521, -0.31994516, -0.6727836, -0.45897388, 0
514, 1417073462, -0.9160664, 0.18937233, -0.25674966, 0.24298765, 0.18484633, -0.007932922, -0.78685856, 0
516, 1417106796, -0.9160294, 0.18831626, -0.2563318, 0.24438511, 0.30293113, -0.1310918, -1.0028324, 0
520, 1417173464, -0.915868, 0.18258525, -0.26129943, 0.24407753, -0.06790972, -0.37911317, -0.58310986, 0
521, 1417190131, -0.91616523, 0.17958131, -0.262754, 0.24362907, -0.18233338, -0.06603813, -0.026760101, 0
522, 1417206798, -0.91672176, 0.17557737, -0.26415336, 0.24294023, 0.18848981, -0.26434174, -0.5197754, 0
524, 1417240132, -0.9178953, 0.16694736, -0.26703256, 0.24143961, 0.3616947, 0.2381012, -0.15852642, 0
525, 1417256799, -0.91819715, 0.16315919, -0.26917273, 0.24050358, 0.5642039, 0.5607891, 0.045763016, 0
526, 1417273466, -0.9182602, 0.16006537, -0.27182814, 0.23935279, 0.57548887, 0.20781721, -0.17809677, 0
528, 1417306800, -0.9184433, 0.1536521, -0.27710724, 0.23678567, 0.08900867, 0.22436823, 0.17665195, 0
529, 1417323467, -0.9183373, 0.1507883, -0.27997023, 0.23566766, 0.15132095, 0.18611152, 0.014419556, 0
531, 1417356801, -0.9178049, 0.14568731, -0.2866026, 0.23296188, 0.12393659, 0.3380181, 0.34010792, 0
532, 1417373468, -0.91685593, 0.14417918, -0.29106852, 0.2320988, 0.049453136, 0.6268264, 0.2590809, 0
536, 1417440136, -0.9078406, 0.1336788, -0.3236351, 0.2306913, 0.9041602, -1.0557762, 0.16680908, 0
537, 1417456803, -0.9039816, 0.12862849, -0.33854634, 0.22729123, 1.3940818, -0.81103677, 0.14831924, 0
539, 1417490137, -0.89091164, 0.10984577, -0.3838657, 0.216473, 1.6158867, -1.6294081, -0.16328335, 0
540, 1417506804, -0.8818644, 0.09442371, -0.4120059, 0.20893317, -0.8268151, -0.17046489, -0.7779951, 0
541, 1417523471, -0.8726444, 0.07591472, -0.438907, 0.20023002, -1.1372529, 0.11324128, -0.8762388, 0
543, 1417556805, -0.8568714, 0.04441852, -0.47950894, 0.18404411, -2.5616853, 1.8419113, -0.7830486, 0
544, 1417573472, -0.85247254, 0.03297126, -0.4906061, 0.17751622, -2.0008047, 1.6171744, -0.35062885, 0
545, 1417590139, -0.84977007, 0.02413603, -0.49762937, 0.17226796, -1.0771534, 1.8687958, -0.36508465, 0
547, 1417623473, -0.8471541, 0.013390694, -0.50543153, 0.16337878, 0.2691637, -0.4253884, 0.8259945, 0
549, 1417656807, -0.8345153, -0.0050255056, -0.52988994, 0.15092549, 3.9172354, -3.199411, 1.3607197, 0
552, 1417706808, -0.7600207, -0.07990451, -0.6388107, 0.088925175, 5.5256124, -4.437072, 4.948676, 0
554, 1417740142, -0.68646085, -0.11978397, -0.7170306, 0.017128572, 9.742038, -10.606181, 11.302622, 0
555, 1417756809, -0.66639096, -0.13793115, -0.73269284, -0.00786878, 16.269594, -32.014816, 14.993856, 0
556, 1417773476, -0.65705574, -0.15947773, -0.73677826, -0.0023365084, 2.8121443, -24.500397, 6.7713375, 0
558, 1417806810, -0.6542232, -0.1855542, -0.7330388, 0.0147928735, 2.1458676, -6.105484, -4.46528, 0
559, 1417823477, -0.6512503, -0.19035888, -0.7344427, 0.015277637, 2.0604248, -13.858046, -4.000625, 0
560, 1417840144, -0.6472238, -0.19525535, -0.7365043, 0.023262339, 2.3687449, -15.005059, -5.8060393, 0
562, 1417873478, -0.63709384, -0.20112276, -0.7421581, 0.053529643, 6.3910794, -11.184537, -7.232938, 0
564, 1417906812, -0.63600534, -0.19286385, -0.7430688, 0.07843801, 7.7732253, -6.7158003, -9.351343, 0
566, 1417940146, -0.65297383, -0.17718926, -0.7305492, 0.092357546, 7.6369534, -6.78388, -9.168874, 0
568, 1417973480, -0.6889304, -0.15349813, -0.70061725, 0.1046505, 8.181601, -7.149001, -6.41376, 0
570, 1418006814, -0.73973536, -0.116298646, -0.65341794, 0.11096993, 5.7169056, -2.0388703, -5.3374586, 0
571, 1418023481, -0.7667328, -0.09630286, -0.6253187, 0.10874769, 3.807272, -2.5293067, -3.8075223, 0
572, 1418040148, -0.7924995, -0.07813034, -0.5954399, 0.10627714, 2.194399, -4.586509, -1.4653378, 0
574, 1418073482, -0.8339439, -0.03458413, -0.53860706, 0.11509581, -1.8603823, -4.4925222, 0.49437523, 0
575, 1418090149, -0.8469458, -0.00992313, -0.515513, 0.12974401, -1.3109862, -4.402895, 3.2997866, 0
576, 1418106816, -0.8560015, 0.0177284, -0.49458602, 0.14944786, 0.6690047, 0.041061845, 4.5795355, 0
579, 1418156817, -0.8748213, 0.09400806, -0.42685443, 0.20892197, -0.97577757, 7.7742686, 5.9111776, 0
581, 1418190151, -0.8855255, 0.12739828, -0.37712696, 0.23956706, -4.45699, 5.710641, 4.0080366, 0
582, 1418206818, -0.88787526, 0.13985407, -0.35467678, 0.25753784, -4.960971, 4.3797536, 2.2992067, 0
583, 1418223485, -0.88678366, 0.15182933, -0.33596158, 0.278739, -4.1189218, 5.582689, 1.8106804, 0
585, 1418256819, -0.87988716, 0.17192191, -0.30409583, 0.3221337, -2.9278355, 10.108731, 2.5078964, 0
586, 1418273486, -0.87678516, 0.18140306, -0.28915125, 0.33872622, -4.9760084, 10.22559, 1.9755707, 0
587, 1418290153, -0.87493, 0.18814456, -0.2744858, 0.35179484, -6.278477, 9.991103, 1.0894814, 0
589, 1418323487, -0.8711048, 0.19989024, -0.24780741, 0.3739181, -7.0970016, 9.660991, -2.1762137, 0
590, 1418340154, -0.8683411, 0.20243433, -0.23875056, 0.3847146, -6.895528, 10.254754, -2.79853, 0
591, 1418356821, -0.86533546, 0.20380303, -0.23220275, 0.39464357, -6.8725433, 11.916066, -2.9603562, 0
594, 1418406822, -0.86342734, 0.20217189, -0.22093728, 0.40596732, -6.1533666, 11.51816, -4.399687, 0
595, 1418423489, -0.864948, 0.20056555, -0.22099783, 0.40348655, -6.078017, 10.609041, -4.375637, 0
598, 1418473490, -0.8748051, 0.18911764, -0.22911619, 0.38270026, -5.7236457, 7.8475666, -3.5093894, 0
599, 1418490157, -0.87844896, 0.18449678, -0.23444577, 0.37326467, -5.548735, 7.4796686, -4.8401546, 0
601, 1418523491, -0.88647246, 0.1717004, -0.2520598, 0.34807256, -9.34826, 8.945988, -4.938299, 0
602, 1418540158, -0.8898398, 0.16195911, -0.2669463, 0.3327118, -12.666003, 9.31365, -9.027085, 0
603, 1418556825, -0.8904044, 0.14907072, -0.2902392, 0.3173675, -17.01355, 10.279418, -8.871546, 0
605, 1418590159, -0.8927851, 0.12225123, -0.30111086, 0.311969, 31.07845, 5.1876845, 35.705868, 0
606, 1418606826, -0.8943795, 0.11546146, -0.2995106, 0.31152877, -13.444534, -8.163084, 10.931726, 0
609, 1418656827, -0.89164233, 0.100904495, -0.32872868, 0.29450423, 0.8165592, 2.4548311, 0.72984314, 0
610, 1418673494, -0.8885213, 0.09821285, -0.34136865, 0.29043856, -0.73078185, -0.9012165, -0.3172083, 0
612, 1418706828, -0.8877802, 0.08963775, -0.35735986, 0.27587745, -1.3850553, 1.5023779, -0.021515846, 0
614, 1418740162, -0.8859118, 0.079072714, -0.37511963, 0.261144, 1.5632697, -1.6138482, 0.19781303, 0
616, 1418773496, -0.8683323, 0.050294954, -0.43220666, 0.23805453, 2.1905425, -3.8725784, 0.48760605, 0
617, 1418790163, -0.85015655, 0.022655144, -0.47831085, 0.21895766, 2.735493, -4.060987, 1.2226915, 0
618, 1418806830, -0.82486933, -0.013785256, -0.53156775, 0.19193521, 5.5260234, -5.3816648, 1.6732674, 0
620, 1418840164, -0.75203544, -0.0913772, -0.6415423, 0.120496556, 7.7997556, -7.70729, 12.995775, 0
621, 1418856831, -0.71510786, -0.10863507, -0.68630266, 0.07622894, 10.465068, -11.728314, 9.012276, 0
624, 1418906832, -0.6582575, -0.13746297, -0.7393376, 0.034407027, 3.7337599, -25.512058, 9.521427, 0
625, 1418923499, -0.65158385, -0.15339653, -0.74101335, 0.05301256, -1.6276081, 6.6388507, -5.8390408, 0
626, 1418940166, -0.6407706, -0.16105181, -0.7492057, 0.04657296, 2.3686192, -3.8617647, -2.2510405, 0
628, 1418973500, -0.62055784, -0.17047322, -0.7642643, 0.04182975, 3.8834474, -13.687446, -5.6703067, 0
630, 1419006834, -0.5978092, -0.17670506, -0.7802955, 0.050409384, 9.309638, -9.948365, -8.791313, 0
632, 1419040168, -0.5907988, -0.16636232, -0.7880246, 0.04796505, 9.854261, -6.177701, -11.703045, 0
633, 1419056835, -0.59619015, -0.1611738, -0.78531265, 0.043211676, 9.313415, -7.1664996, -11.662076, 0
635, 1419090169, -0.6245004, -0.15959789, -0.7633908, 0.042011715, 6.3820934, -6.2911434, -11.954653, 0
636, 1419106836, -0.64347064, -0.16049105, -0.74713, 0.044585787, 5.1008916, -7.3430486, -11.130077, 0
639, 1419156837, -0.70699346, -0.15671977, -0.6849671, 0.08013715, 2.833749, -5.0134954, -10.235093, 0
640, 1419173504, -0.7263953, -0.14499167, -0.6653889, 0.09266996, 2.319908, -7.2417502, -8.10717, 0
641, 1419190171, -0.7443581, -0.12936759, -0.64598787, 0.10907597, 1.8828781, -9.223326, -5.846346, 0
643, 1419223505, -0.7730583, -0.08798961, -0.61051124, 0.14804588, 2.380083, -7.512626, -1.7282562, 0
644, 1419240172, -0.78489053, -0.06284343, -0.5926422, 0.16963412, 2.648753, -6.452795, 0.6727247, 0
647, 1419290173, -0.8141994, 0.018832866, -0.52940255, 0.23761374, 2.3423996, -2.540303, 8.767944, 0
648, 1419306840, -0.82252425, 0.04684916, -0.5041609, 0.2590056, 1.6056509, -0.71436137, 10.520447, 0
649, 1419323507, -0.8300858, 0.073632985, -0.47682133, 0.27960733, 0.5177472, 0.5580054, 10.951429, 0
651, 1419356841, -0.8414773, 0.12548676, -0.41623366, 0.320814, -1.074484, 3.1103818, 11.424145, 0
653, 1419390175, -0.8460571, 0.17381294, -0.34932756, 0.36324868, -3.2878206, 5.4174094, 10.0436535, 0
655, 1419423509, -0.84154487, 0.21453306, -0.2820828, 0.40768877, -4.766178, 7.5458097, 7.1531277, 0
656, 1419440176, -0.83643955, 0.2302026, -0.25123283, 0.42925608, -5.0548444, 9.548565, 6.3664513, 0
657, 1419456843, -0.8299824, 0.24431865, -0.22205727, 0.44958988, -5.045024, 12.656438, 5.399437, 0
659, 1419490177, -0.8172958, 0.26771343, -0.17285766, 0.48008355, -4.604981, 15.467835, -4.62639, 0
660, 1419506844, -0.8138348, 0.27530777, -0.15566194, 0.48749438, -4.8210354, 15.549101, -8.089518, 0
662, 1419540178, -0.81829464, 0.2713634, -0.13309416, 0.48892194, -5.286235, 14.572205, -10.061523, 0
663, 1419556845, -0.8230463, 0.2668553, -0.12622303, 0.4852357, -6.3354926, 17.18916, -6.123083, 0
664, 1419573512, -0.82562256, 0.26652873, -0.1215805, 0.4822147, -6.8552227, 12.342467, -8.902394, 0
666, 1419606846, -0.8298329, 0.26080686, -0.122485325, 0.47786748, -7.077203, 9.713975, -8.639597, 0
668, 1419640180, -0.8350562, 0.24693127, -0.1319373, 0.47360507, -6.6317873, 10.130264, -6.563362, 0
670, 1419673514, -0.83992934, 0.23469469, -0.14582528, 0.46709204, -5.428296, 12.304489, -5.654396, 0
671, 1419690181, -0.8425762, 0.23104, -0.15429148, 0.46139258, -5.6475077, 12.850171, -5.903558, 0
672, 1419706848, -0.8471264, 0.22557327, -0.16301899, 0.45268217, -5.784007, 13.674307, -6.4281874, 0
674, 1419740182, -0.8625772, 0.20531903, -0.1831743, 0.42456436, -9.253288, 15.958877, -2.432384, 0
676, 1419773516, -0.88166684, 0.17677812, -0.2030233, 0.38755327, -9.339186, 16.149683, -2.962625, 0
678, 1419806850, -0.9030451, 0.14161019, -0.23217268, 0.3324979, -0.115650296, 11.3646345, 5.8800488, 0
679, 1419823517, -0.908294, 0.13989297, -0.24032955, 0.31253266, 15.6392765, -12.923453, 33.632183, 0
680, 1419840184, -0.9091019, 0.118433245, -0.26232255, 0.30115956, -29.206797, -33.40159, -8.931242, 0
683, 1419890185, -0.90657276, 0.1122817, -0.29298317, 0.28228113, -3.8221054, -2.5691707, 1.3765316, 0
684, 1419906852, -0.90638816, 0.10826969, -0.3016342, 0.27524206, -2.0894582, -1.2037693, 0.5026951, 0
686, 1419940186, -0.90426594, 0.097741306, -0.32429165, 0.2599759, 0.54080343, -0.5460264, 0.860343, 0
687, 1419956853, -0.9008604, 0.09030501, -0.34228095, 0.2512809, 0.9176689, -0.071570635, 0.4629612, 0
688, 1419973520, -0.8935188, 0.07914936, -0.37009662, 0.24164206, 1.4012047, -1.1795127, 0.6658459, 0
690, 1420006854, -0.8612822, 0.041347224, -0.4578931, 0.21637917, 2.9960985, -3.492181, 2.093233, 0
693, 1420056855, -0.75541306, -0.06300532, -0.6421672, 0.114042334, 9.340183, -10.256587, 18.177061, 0
695, 1420090189, -0.6803637, -0.10822359, -0.72456425, 0.020067241, 7.8523264, -51.588367, 48.54454, 0
698, 1420140190, -0.64150214, -0.15763128, -0.7506706, 0.011145126, 2.7301903, -16.755331, 14.349615, 0
699, 1420156857, -0.6264573, -0.18498929, -0.7571838, -0.0024703476, -1.5940502, -16.043236, 0.796031, 0
701, 1420190191, -0.57690674, -0.22819073, -0.7837714, -0.028507948, 7.5547442, -22.150417, -6.65986, 0
702, 1420206858, -0.5493527, -0.24149384, -0.79912245, -0.036035042, 9.813495, -18.378817, -11.433411, 0
703, 1420223525, -0.5254139, -0.24978879, -0.8121291, -0.04466778, 13.684973, -15.367918, -15.412693, 0
705, 1420256859, -0.5045596, -0.253315, -0.82253015, -0.068544365, 11.306093, -7.425827, -20.464443, 0
706, 1420273526, -0.5069929, -0.25504464, -0.81943256, -0.0802726, 8.345406, -5.1217403, -19.922913, 0
707, 1420290193, -0.5147036, -0.25969547, -0.8122824, -0.08853743, 5.3717246, -4.052467, -18.969368, 0
710, 1420340194, -0.55401164, -0.2813242, -0.7795047, -0.07939339, 1.468344, -5.7871666, -16.464518, 0
713, 1420390195, -0.61144817, -0.26826468, -0.7436338, -0.03430914, 1.5785182, -0.9090202, -12.699755, 0
714, 1420406862, -0.63309884, -0.25358215, -0.7311524, -0.017360473, 0.9194069, -0.62202907, -11.949796, 0
716, 1420440196, -0.6752742, -0.21482971, -0.70538485, 0.01697236, 3.2867155, -1.3662153, -8.2672825, 0
717, 1420456863, -0.6944801, -0.19244413, -0.6923407, 0.03646774, 4.013927, -3.3452544, -6.7733183, 0
718, 1420473530, -0.7133433, -0.16963032, -0.67751944, 0.05776875, 6.1769524, -3.586052, -3.5030103, 0
720, 1420506864, -0.752465, -0.1209835, -0.64023364, 0.09624594, 5.960586, -4.217527, 1.9941053, 0
721, 1420523531, -0.77153933, -0.09555281, -0.61869514, 0.113208875, 4.5108433, -4.1901717, 4.5177994, 0
722, 1420540198, -0.78919584, -0.07188097, -0.59591746, 0.12995541, 2.5331979, -5.062777, 7.093071, 0
724, 1420573532, -0.8179583, -0.02551612, -0.5481648, 0.17266037, -1.2533551, -7.5524573, 9.3812065, 0
728, 1420640200, -0.8372494, 0.06763765, -0.46756375, 0.27536455, 1.2077818, 0.41960496, 12.1848755, 0
729, 1420656867, -0.84130865, 0.08735346, -0.44336575, 0.29664615, 0.95511824, 1.4457669, 11.390875, 0
730, 1420673534, -0.84594166, 0.10632171, -0.41602764, 0.3162316, -0.36800334, 1.4796913, 11.619003, 0
732, 1420706868, -0.8534001, 0.14327386, -0.3557271, 0.35304645, -3.140679, 2.0639503, 7.526613, 0
733, 1420723535, -0.85454535, 0.16038938, -0.3263684, 0.3708292, -4.297166, 2.1986575, 6.3318253, 0
734, 1420740202, -0.85375637, 0.17581296, -0.29871157, 0.3885414, -4.9838853, 2.7948718, 6.3749313, 0
736, 1420773536, -0.8472987, 0.20439152, -0.24895161, 0.42229712, -5.0539975, 5.794627, 6.6640987, 0
737, 1420790203, -0.84202105, 0.21869215, -0.22738405, 0.4375774, -4.6640625, 7.286595, 4.925474, 0
738, 1420806870, -0.83637077, 0.23243538, -0.20782451, 0.45085454, -4.4918256, 9.163663, 3.6768866, 0
740, 1420840204, -0.8295255, 0.2520307, -0.17196192, 0.46776065, -4.042776, 10.378888, -1.4044561, 0
743, 1420890205, -0.83270484, 0.26303685, -0.13274184, 0.46882513, -5.740292, 11.845613, -2.140499, 0
744, 1420906872, -0.8331565, 0.26740146, -0.12358084, 0.46805692, -6.063927, 9.676503, -4.6524096, 0
745, 1420923539, -0.8328401, 0.27056003, -0.11760651, 0.46834433, -6.6140256, 8.000168, -5.705088, 0
747, 1420956873, -0.83189243, 0.26812848, -0.110822305, 0.47305736, -4.4311514, 6.72185, -6.727375, 0
748, 1420973540, -0.83260906, 0.261441, -0.10894671, 0.4759667, -3.274038, 6.525333, -6.59183, 0
749, 1420990207, -0.834351, 0.2522484, -0.108109616, 0.47806326, -2.4916966, 7.315138, -5.411707, 0
751, 1421023541, -0.8360795, 0.24036902, -0.10569006, 0.48169145, -2.954202, 7.665627, -4.528598, 0
752, 1421040208, -0.83572984, 0.23701853, -0.10630389, 0.4838185, -2.8482645, 6.729235, -6.8075843, 0
753, 1421056875, -0.83505315, 0.2335495, -0.10881228, 0.48611125, -3.211387, 8.127004, -6.746229, 0
757, 1421123543, -0.8358666, 0.21075636, -0.12792271, 0.49045643, -4.3415747, 11.405882, -8.286709, 0
759, 1421156877, -0.83956933, 0.19153325, -0.14960854, 0.4858586, -4.0734215, 14.103195, -5.0807676, 0
760, 1421173544, -0.8430088, 0.18147175, -0.16358413, 0.47921547, -4.400158, 13.505836, -4.1862063, 0
761, 1421190211, -0.8484458, 0.16970724, -0.17903017, 0.46828464, -5.7210345, 14.462506, -3.3109107, 0
763, 1421223545, -0.8623838, 0.13621657, -0.21682993, 0.4367233, -16.806065, 16.356369, -1.087162, 0
764, 1421240212, -0.8661349, 0.10933803, -0.24381888, 0.42238736, -21.826494, 17.606636, -1.7249403, 0
765, 1421256879, -0.8635983, 0.0786943, -0.28405502, 0.40904886, -24.845991, 21.330212, 2.148716, 0
767, 1421290213, -0.8444433, 0.04514294, -0.38742062, 0.36713207, 0.31728825, 23.279085, 56.296146, 0
768, 1421306880, -0.852807, 0.049325816, -0.3901436, 0.34362492, 11.525882, -31.266987, 1.1768656, 0
770, 1421340214, -0.85403466, 0.048339795, -0.39647314, 0.33331716, 1.3408319, 6.2455516, 8.60314, 0
774, 1421406882, -0.8156725, -0.013828104, -0.5047645, 0.28231668, 3.6702695, -1.4269439, 1.3216772, 0
775, 1421423549, -0.7926641, -0.038648188, -0.54836196, 0.26361355, 3.719692, -3.1942365, 1.4626598, 0
776, 1421440216, -0.7600441, -0.07567867, -0.59984934, 0.23830518, 6.719282, -6.9918528, 4.4757233, 0
778, 1421473550, -0.65833014, -0.13851315, -0.725136, 0.14695723, 20.54658, -27.069263, 28.187576, 0
779, 1421490217, -0.6051107, -0.1554764, -0.7761172, 0.08551711, 20.441675, -42.597397, 50.39315, 0
780, 1421506884, -0.57954544, -0.16190292, -0.7951627, 0.07505897, 14.720141, -45.56735, 42.194897, 0
782, 1421540218, -0.55629903, -0.20043679, -0.8057158, 0.034373444, 9.027212, -12.478365, 17.596392, 0
783, 1421556885, -0.5494426, -0.2275498, -0.8039399, 0.0041993554, 3.743928, -26.367542, 6.6085663, 0
784, 1421573552, -0.5366142, -0.2553879, -0.80374867, -0.028519642, 6.0750895, -20.72223, -0.8437195, 0
787, 1421623553, -0.48906898, -0.32166234, -0.80533785, -0.09369561, 10.650097, -18.768394, -18.061132, 0
790, 1421673554, -0.47732344, -0.34577098, -0.7959919, -0.13785723, 3.3945234, -9.141601, -21.176594, 0
791, 1421690221, -0.48039275, -0.3530847, -0.7905113, -0.14017498, 2.2665033, -7.1354, -20.748022, 0
792, 1421706888, -0.48565522, -0.35827902, -0.7853303, -0.13796502, 1.5182079, -4.1297235, -19.458519, 0
794, 1421740222, -0.50316715, -0.35829163, -0.77656996, -0.1240645, 1.20871, -3.6956549, -17.77023, 0
795, 1421756889, -0.5153532, -0.35265398, -0.77300656, -0.11184874, 1.3398656, -2.590229, -16.509865, 0
796, 1421773556, -0.52925247, -0.3437315, -0.76974386, -0.096112676, 1.4425844, -2.8050773, -15.783173, 0
798, 1421806890, -0.56404984, -0.31439847, -0.76162946, -0.054080624, 3.879121, -0.5194968, -13.416631, 0
799, 1421823557, -0.5843816, -0.29436153, -0.7555968, -0.0304284, 4.2806864, -0.9667824, -12.532213, 0
802, 1421873558, -0.66028166, -0.22293867, -0.71530056, 0.051716484, 6.698916, -2.2485073, -7.055996, 0
803, 1421890225, -0.68845105, -0.19712523, -0.69371295, 0.07708577, 4.75871, -5.1610737, -4.506687, 0
806, 1421940226, -0.76251596, -0.111288354, -0.6167694, 0.1605706, 1.7375629, -7.2895403, 5.987152, 0
807, 1421956893, -0.7805228, -0.078827314, -0.59068614, 0.18884726, 0.97029746, -6.044473, 9.701992, 0
809, 1421990227, -0.8097467, -0.012088621, -0.53547055, 0.23966362, 2.03956, -2.132445, 17.414827, 0
810, 1422006894, -0.82482076, 0.019093191, -0.50110555, 0.26115635, 1.186608, 1.467677, 16.86111, 0
811, 1422023561, -0.8391272, 0.049229536, -0.4651444, 0.2776432, -1.2186954, 3.7859821, 13.31147, 0
813, 1422056895, -0.8582862, 0.10643257, -0.3971117, 0.30711946, -6.7743363, 0.9360507, 14.46349, 0
814, 1422073562, -0.86007684, 0.13311063, -0.3665974, 0.3288744, -6.883468, 1.738484, 12.258635, 0
817, 1422123563, -0.8445543, 0.19226608, -0.28637135, 0.40958074, -2.2132316, 7.5750017, 6.559511, 0
818, 1422140230, -0.8386668, 0.20248652, -0.26176214, 0.4325746, -0.98567784, 9.216705, 5.980504, 0
819, 1422156897, -0.83391875, 0.21248809, -0.2377407, 0.4504561, -0.9816662, 11.441979, 6.426182, 0
821, 1422190231, -0.8287206, 0.23459817, -0.19464274, 0.46936446, -4.083248, 11.72973, 0.844306, 0
822, 1422206898, -0.8287007, 0.2444506, -0.17682563, 0.47141784, -4.4339533, 10.313786, -2.984789, 0
824, 1422240232, -0.8354549, 0.2509998, -0.15103295, 0.46497962, -4.841138, 8.929185, -4.302908, 0
825, 1422256899, -0.8402825, 0.25068024, -0.140261, 0.4597984, -5.473294, 10.279255, -2.0431395, 0
826, 1422273566, -0.8432654, 0.25133485, -0.13051173, 0.45684135, -5.9705215, 7.8471923, -3.8324022, 0
828, 1422306900, -0.8432969, 0.24846539, -0.118787415, 0.46152794, -6.2047434, 6.6625314, -6.509528, 0
829, 1422323567, -0.8415218, 0.24356692, -0.11584584, 0.46807998, -5.5649304, 7.6966043, -7.384165, 0
832, 1422373568, -0.8376757, 0.22114238, -0.113805406, 0.48625776, -3.5680156, 12.30927, -4.9486117, 0
833, 1422390235, -0.8372154, 0.21730676, -0.11313474, 0.48892897, -3.0833426, 10.283015, -7.3620067, 0
836, 1422440236, -0.84129155, 0.2076652, -0.12058916, 0.48431894, -3.976047, 10.803942, -7.827606, 0
837, 1422456903, -0.8444458, 0.20313351, -0.124902226, 0.4796355, -5.239481, 12.980364, -4.9258103, 0
838, 1422473570, -0.84858525, 0.1983251, -0.12769805, 0.47356755, -4.6190085, 13.960718, -4.481704, 0
840, 1422506904, -0.8618581, 0.18516994, -0.13982561, 0.45095932, -4.8149433, 14.248336, -5.6267786, 0
841, 1422523571, -0.870284, 0.17503798, -0.15004896, 0.4352651, -7.8310776, 13.698342, -2.995565, 0
842, 1422540238, -0.8785451, 0.1608188, -0.16274394, 0.41930094, -10.455032, 12.725249, -1.8077621, 0
844, 1422573572, -0.8861574, 0.11714761, -0.20544738, 0.39849198, -17.414928, 11.767069, -2.716066, 0
846, 1422606906, -0.8736986, 0.05908649, -0.28553835, 0.38939747, -16.948975, 20.48254, -0.49316597, 0
848, 1422640240, -0.868077, 0.06030642, -0.34301838, 0.353761, 21.61939, 17.605742, 29.946259, 0
849, 1422656907, -0.86451954, 0.06654853, -0.35020697, 0.3543097, -12.321191, -15.770318, 16.537523, 0
852, 1422706908, -0.84445614, 0.027919281, -0.42467958, 0.32521477, 0.54443866, -0.7484363, -0.15586281, 0
853, 1422723575, -0.8318149, 0.007002599, -0.46130332, 0.3086054, 0.39258665, 1.2005808, 0.6937294, 0
855, 1422756909, -0.79321766, -0.03970686, -0.5433183, 0.27209798, 3.516099, -3.1902685, 1.1305647, 0
856, 1422773576, -0.76370823, -0.07761471, -0.5921393, 0.24515264, 4.949772, -5.249984, 4.6116714, 0
857, 1422790243, -0.72212815, -0.11967753, -0.6495099, 0.20578621, 7.37706, -11.235119, 9.049526, 0
859, 1422823577, -0.61470026, -0.15084004, -0.7715447, 0.0641302, 25.155418, -53.87547, 52.845417, 0
861, 1422856911, -0.5824792, -0.16878808, -0.79318607, 0.0555638, -1.8261894, 17.21619, 8.044096, 0
863, 1422890245, -0.5625798, -0.22146733, -0.79610646, -0.025959976, 4.7420454, -31.322561, 7.438299, 0
864, 1422906912, -0.5472947, -0.2549073, -0.79502994, -0.058489136, 9.102102, -22.346428, -0.7753725, 0
865, 1422923579, -0.5279987, -0.28307295, -0.7953818, -0.09196518, 12.076372, -29.991241, -6.3843927, 0
868, 1422973580, -0.469487, -0.34653538, -0.79950845, -0.14242385, 7.4510164, -13.533295, -23.174408, 0
869, 1422990247, -0.45636198, -0.35594985, -0.80109364, -0.15259561, 5.0334744, -9.424933, -23.237556, 0
871, 1423023581, -0.44397068, -0.36368746, -0.80338985, -0.15871163, 2.8419683, -5.264755, -21.300186, 0
872, 1423040248, -0.44283798, -0.36350468, -0.80485874, -0.15480332, 2.7258215, -4.4364734, -20.114918, 0
873, 1423056915, -0.44598842, -0.3613425, -0.8057865, -0.14572974, 3.4991236, -4.7616096, -19.1926, 0
876, 1423106916, -0.4872017, -0.33480862, -0.8003656, -0.09977777, 4.1250305, -0.0629962, -15.061527, 0
877, 1423123583, -0.50941676, -0.31838873, -0.79522955, -0.08207505, 4.396745, 0.7536071, -14.041853, 0
879, 1423156917, -0.56099993, -0.2813015, -0.7776466, -0.037648454, 6.7435923, -2.7256627, -12.095531, 0
880, 1423173584, -0.5918397, -0.25986877, -0.7629542, -0.0099034235, 7.928895, -2.8861911, -10.359437, 0
882, 1423206918, -0.6590805, -0.20816775, -0.7213429, 0.044119477, 8.037908, -1.8419373, -6.1458607, 0
884, 1423240252, -0.72723144, -0.15223084, -0.66303617, 0.091355875, 6.359036, -4.328805, -0.7440624, 0
886, 1423273586, -0.7847044, -0.093969494, -0.59679306, 0.13874392, 1.8730206, -6.782522, 7.0900555, 0
887, 1423290253, -0.805122, -0.061868515, -0.5665426, 0.16426569, -0.79096496, -6.4347014, 9.478395, 0
888, 1423306920, -0.8190841, -0.029673994, -0.5399845, 0.19141665, -2.3000565, -6.203765, 13.740391, 0
891, 1423356921, -0.8414845, 0.05523317, -0.45386615, 0.28785706, -4.1370444, 0.32712758, 19.478546, 0
892, 1423373588, -0.84446865, 0.08200632, -0.4209498, 0.3208616, -3.9016564, 3.9746084, 12.644844, 0
894, 1423406922, -0.8458703, 0.13047743, -0.3545068, 0.37657258, -5.8536816, 4.9313655, 13.652372, 0
895, 1423423589, -0.84384906, 0.15247373, -0.32086232, 0.40214518, -6.5444846, 5.911812, 9.573914, 0
896, 1423440256, -0.83974856, 0.17259742, -0.28978613, 0.42551088, -6.2975607, 7.190721, 8.28116, 0
898, 1423473590, -0.82719505, 0.211066, -0.23657261, 0.4639351, -4.258603, 11.649226, 4.505295, 0
899, 1423490257, -0.82064, 0.22787629, -0.21529466, 0.4777799, -3.1004958, 12.848968, 0.29179192, 0
900, 1423506924, -0.8168698, 0.2408226, -0.1971842, 0.48564324, -2.7755752, 13.988919, -1.7521162, 0
902, 1423540258, -0.8197181, 0.25744697, -0.16710155, 0.48359403, -4.5362763, 13.3852625, -4.2533607, 0
903, 1423556925, -0.82422096, 0.26201102, -0.15525268, 0.47739866, -5.4063683, 11.221949, -4.75867, 0
906, 1423606926, -0.83065516, 0.27071032, -0.13539127, 0.4673328, -6.1156898, 4.349221, -3.5452366, 0
907, 1423623593, -0.8296103, 0.26859432, -0.13270955, 0.47116345, -5.188551, 3.727164, -3.2414865, 0
909, 1423656927, -0.8228585, 0.2617438, -0.13029978, 0.48725668, -1.8300804, 4.8377786, -3.3311605, 0
910, 1423673594, -0.81920004, 0.25901756, -0.12952441, 0.4950229, -0.18448542, 5.3978205, -3.5345297, 0
911, 1423690261, -0.8168237, 0.25736988, -0.1287183, 0.4999942, 0.10779376, 5.4840403, -3.3227258, 0
914, 1423740262, -0.81765634, 0.25575253, -0.1257953, 0.5002072, -2.9317868, 4.633366, -3.8335776, 0
915, 1423756929, -0.8191245, 0.25440517, -0.12559852, 0.498539, -3.1272645, 4.550612, -3.9921088, 0
917, 1423790263, -0.8223171, 0.24888013, -0.12879317, 0.49524587, -3.197448, 4.436743, -4.564303, 0
918, 1423806930, -0.8242612, 0.24458188, -0.13213165, 0.49327222, -3.459524, 5.277714, -4.053203, 0
921, 1423856931, -0.83050853, 0.2295788, -0.14775741, 0.48550978, -3.1757467, 5.7199583, -4.2944593, 0
922, 1423873598, -0.8330993, 0.22385612, -0.15433876, 0.4816808, -3.4014761, 6.6997213, -2.766139, 0
923, 1423890265, -0.8353763, 0.21851113, -0.16103841, 0.47798413, -3.0350814, 5.635278, -3.801704, 0
925, 1423923599, -0.8392087, 0.20234342, -0.17556295, 0.47325096, -4.512183, 7.1306057, -3.1033916, 0
926, 1423940266, -0.840075, 0.19479692, -0.18362905, 0.4718172, -4.500679, 9.301842, -2.6892033, 0
927, 1423956933, -0.8406226, 0.18927431, -0.19321454, 0.46925503, -4.3857694, 11.669515, -2.8528342, 0
930, 1424006934, -0.8529858, 0.1587235, -0.23706418, 0.43706477, -12.850037, 21.128391, -3.9348273, 0
932, 1424040268, -0.8601553, 0.11233586, -0.29733983, 0.39888024, -15.852245, 26.08868, -1.5059338, 0
933, 1424056935, -0.8575817, 0.087844364, -0.34182063, 0.37416407, -12.623296, 27.682913, -5.4815707, 0
936, 1424106936, -0.8436306, 0.08447522, -0.4009114, 0.34702218, -5.7859015, -8.1499, -1.6522627, 0
937, 1424123603, -0.8364101, 0.0659185, -0.43386105, 0.32839075, -1.5515932, -3.3679872, -0.16389465, 0
938, 1424140270, -0.82656485, 0.035943087, -0.4708127, 0.30632833, 0.3128245, 0.85953337, -0.41169453, 0
940, 1424173604, -0.78707135, -0.022205858, -0.55409855, 0.2701912, 3.859122, -0.65948194, 1.6773863, 0
941, 1424190271, -0.758631, -0.055905417, -0.5991153, 0.24983492, 4.7218075, -2.7108529, 3.5862274, 0
942, 1424206938, -0.7209607, -0.08844323, -0.65105206, 0.22029075, 6.219348, -7.5185823, 5.9973106, 0
944, 1424240272, -0.61048585, -0.14369456, -0.76991266, 0.117882915, 20.688389, -28.62582, 24.00821, 0
946, 1424273606, -0.55585086, -0.1525966, -0.8154981, 0.052056182, 15.263092, -36.42767, 44.928867, 0
948, 1424306940, -0.5590262, -0.20482162, -0.8031815, -0.020982945, 8.43651, -22.087172, 21.088692, 0
950, 1424340274, -0.54834557, -0.27854928, -0.78275424, -0.09500584, 2.628229, -30.104513, 0.5253763, 0
952, 1424373608, -0.4995299, -0.34145933, -0.7859368, -0.12720862, 3.5984669, -29.611975, -14.557188, 0
953, 1424390275, -0.4703091, -0.36104053, -0.79463124, -0.13047318, 6.996146, -19.831156, -16.920933, 0
954, 1424406942, -0.44472978, -0.36872098, -0.80463904, -0.13718396, 6.919867, -13.011077, -18.139965, 0
956, 1424440276, -0.40585282, -0.37254196, -0.821201, -0.14875452, 5.641731, -8.3698015, -19.39748, 0
957, 1424456943, -0.39566398, -0.3713634, -0.82685375, -0.14783515, 5.683958, -5.373886, -19.315567, 0
958, 1424473610, -0.39241982, -0.36756548, -0.8307295, -0.14420138, 4.8949027, -2.02427, -18.16454, 0
960, 1424506944, -0.4048644, -0.35734686, -0.83140767, -0.13096651, 5.440202, -1.3353908, -17.234203, 0
963, 1424556945, -0.46529886, -0.32968473, -0.81591815, -0.09531757, 3.6106308, 2.9939253, -14.206338, 0
965, 1424590279, -0.5174398, -0.30005208, -0.79868394, -0.06581677, 6.0464425, 0.36589473, -13.419458, 0
967, 1424623613, -0.5828423, -0.25811994, -0.77022517, -0.020627849, 8.037819, -2.3075902, -10.205812, 0
968, 1424640280, -0.61871606, -0.23225327, -0.7504802, 0.005594467, 6.577463, 0.25851798, -8.815342, 0
969, 1424656947, -0.65370244, -0.20503023, -0.7278392, 0.029815545, 6.310573, -0.7634283, -6.460388, 0
971, 1424690281, -0.7178879, -0.15173805, -0.67517066, 0.07589568, 7.3183513, -4.370339, -1.9130487, 0
972, 1424706948, -0.74767315, -0.12381728, -0.6448561, 0.0990849, 6.2192454, -7.029426, 3.2174196, 0
973, 1424723615, -0.77384174, -0.09481644, -0.6139569, 0.123444244, 2.7750144, -7.8664927, 5.760784, 0
975, 1424756949, -0.81057006, -0.038708117, -0.55389804, 0.18622041, -0.44727176, -11.614227, 15.129263, 0
976, 1424773616, -0.8223663, -0.008585937, -0.5231523, 0.22350565, -0.55315614, -3.2105298, 10.520178, 0
977, 1424790283, -0.82981944, 0.020504657, -0.49557453, 0.25571147, -1.053574, -1.6005458, 13.480982, 0
980, 1424840284, -0.8476119, 0.090686776, -0.39872152, 0.3381631, -5.069411, 2.7629712, 17.95639, 0
981, 1424856951, -0.8508665, 0.11555697, -0.3620154, 0.36279574, -6.3440194, 3.8964262, 15.705416, 0
983, 1424890285, -0.84975535, 0.16548419, -0.28972414, 0.40815923, -7.5396695, 6.1615825, 9.428169, 0
984, 1424906952, -0.8447825, 0.18847746, -0.2578777, 0.42932627, -7.2723594, 7.648108, 6.620264, 0
986, 1424940286, -0.83180916, 0.22088324, -0.20928778, 0.46422616, -4.6327057, 11.053011, -0.07849598, 0
987, 1424956953, -0.8280058, 0.22984645, -0.18947333, 0.47505793, -5.01231, 14.555674, 2.3558607, 0
988, 1424973620, -0.82634884, 0.23855938, -0.17071298, 0.48072565, -4.0643253, 14.078139, -2.6194024, 0
990, 1425006954, -0.8300816, 0.25178307, -0.14459771, 0.47609285, -6.129677, 11.105577, -6.5217257, 0
992, 1425040288, -0.839573, 0.2531366, -0.13314459, 0.46185988, -5.785919, 7.6122317, -5.5266805, 0
995, 1425090289, -0.843754, 0.24977641, -0.12713403, 0.45774555, -5.690949, 3.1616101, -2.8678732, 0
996, 1425106956, -0.84134656, 0.24659443, -0.12689504, 0.46392632, -4.810748, 2.6855824, -3.2205434, 0
998, 1425140290, -0.83248377, 0.23838417, -0.13003157, 0.4829479, -1.673959, 3.7951052, -4.805783, 0
999, 1425156957, -0.8285527, 0.23307477, -0.13292317, 0.49143767, -1.0679941, 5.2615185, -3.5401983, 0
1000, 1425173624, -0.8262696, 0.22845435, -0.13492037, 0.49687693, -0.96185213, 6.9795322, -1.4687681, 0
1002, 1425206958, -0.8243991, 0.22701474, -0.13663009, 0.5001656, -1.6024898, 5.0033245, -4.3628535, 0
1003, 1425223625, -0.8242337, 0.22641411, -0.13869382, 0.50014263, -2.3651369, 5.134928, -4.4824405, 0
1004, 1425240292, -0.8243889, 0.22425158, -0.14159404, 0.5000484, -2.4259796, 5.055247, -4.9773173, 0
1006, 1425273626, -0.8253422, 0.21325725, -0.14962834, 0.50094527, -2.3162916, 5.8141246, -4.08221, 0
1010, 1425340294, -0.8267408, 0.19032544, -0.16649415, 0.5025521, -2.9273555, 8.606548, -4.2279344, 0
1011, 1425356961, -0.8280882, 0.1846173, -0.17226687, 0.50051326, -2.5768924, 9.791721, -5.5309258, 0
1013, 1425390295, -0.8332229, 0.17383379, -0.18791881, 0.49011317, -1.9815876, 13.213364, -3.317422, 0
1014, 1425406962, -0.83806795, 0.16810645, -0.195178, 0.48092723, -2.7195594, 13.514401, -1.7670507, 0
1015, 1425423629, -0.84479207, 0.16037893, -0.20282456, 0.46847638, -4.203634, 13.842183, -5.0345883, 0
1017, 1425456963, -0.85883033, 0.1258002, -0.2341349, 0.43791378, -16.537466, 15.989461, -3.438117, 0
1018, 1425473630, -0.8606255, 0.10151516, -0.26122436, 0.42518628, -19.862255, 18.901047, -2.269668, 0
1019, 1425490297, -0.8483901, 0.08539091, -0.31751356, 0.41488665, -39.476665, 36.542667, -6.577319, 0
1021, 1425523631, -0.84300643, 0.07350472, -0.34869218, 0.402932, -1.2789729, -23.088505, -0.007081032, 0
1022, 1425540298, -0.8432442, 0.05520815, -0.3747538, 0.38138434, -11.517446, 5.883697, 3.2575178, 0
1026, 1425606966, -0.8002032, -0.017470349, -0.5028221, 0.32640865, 0.101837866, -2.9687016, 1.0047989, 0
1027, 1425623633, -0.7789271, -0.04880461, -0.5453942, 0.305678, 3.6128094, -5.709482, 2.0689173, 0
1029, 1425656967, -0.70764506, -0.13840905, -0.6538114, 0.22938012, 8.624984, -12.246128, 9.456228, 0
1030, 1425673634, -0.64834005, -0.16163276, -0.72692525, 0.15846992, 21.462053, -30.299831, 29.019218, 0
1031, 1425690301, -0.5867724, -0.1679873, -0.78908676, 0.0694529, 26.048737, -50.99489, 42.135315, 0
1033, 1425723635, -0.53858185, -0.17751357, -0.821736, 0.056317814, 3.7555864, -3.6691148, 8.31518, 0
1034, 1425740302, -0.52161026, -0.19597052, -0.83034724, 0.006726221, 19.827518, 15.83841, 7.7480507, 0
1035, 1425756969, -0.5160927, -0.20918086, -0.82904625, -0.050764628, 12.040445, -44.305573, 6.927847, 0
1040, 1425840304, -0.47755924, -0.34150875, -0.7928811, -0.16325302, 4.53403, -14.156036, -22.121391, 0
1041, 1425856971, -0.46885982, -0.35404956, -0.79272, -0.16253467, 3.6581807, -10.004527, -21.614754, 0
1044, 1425906972, -0.46201983, -0.3587506, -0.8009522, -0.12772837, 4.424015, -2.8465853, -18.465057, 0
1045, 1425923639, -0.46921286, -0.35226053, -0.80228674, -0.10995842, 5.8854523, -0.42780837, -16.986206, 0
1046, 1425940306, -0.48306105, -0.3419148, -0.8007511, -0.092451245, 6.5683084, 0.063406825, -15.831558, 0
1048, 1425973640, -0.52813584, -0.31462166, -0.7869163, -0.05339989, 6.573107, -0.36511868, -14.010506, 0
1049, 1425990307, -0.5574855, -0.2963402, -0.774865, -0.03129859, 6.2308474, -0.49518475, -12.950396, 0
1050, 1426006974, -0.58990943, -0.27604887, -0.75878763, -0.006948755, 6.992787, -2.721628, -11.30654, 0
1052, 1426040308, -0.66498977, -0.22405434, -0.71094406, 0.046370294, 6.44448, -4.2284894, -6.454518, 0
1054, 1426073642, -0.7356828, -0.16118403, -0.64992845, 0.101914935, 5.496298, -4.920644, -1.6583481, 0
1056, 1426106976, -0.7911401, -0.08692243, -0.5847581, 0.15685403, 3.6653478, -5.746158, 6.7612877, 0
1057, 1426123643, -0.8119601, -0.048479628, -0.5521124, 0.18315397, 0.8290766, -6.38168, 10.780495, 0
1058, 1426140310, -0.82719374, -0.012171294, -0.5199414, 0.212759, -2.4176905, -8.274129, 17.156013, 0
1060, 1426173644, -0.84559554, 0.05481527, -0.44827178, 0.28463876, -5.8403883, -1.4166343, 18.382381, 0
1061, 1426190311, -0.8494979, 0.085154876, -0.40954483, 0.32152477, -6.609837, 1.0901028, 17.95323, 0
1062, 1426206978, -0.8500943, 0.1137194, -0.37065724, 0.35640413, -7.743283, 3.4111907, 15.114086, 0
1064, 1426240312, -0.8431573, 0.16256446, -0.2970146, 0.4176648, -9.354257, 6.9719915, 10.234531, 0
1065, 1426256979, -0.8371813, 0.18207411, -0.26483932, 0.4425378, -8.386344, 8.716038, 7.4410706, 0
1066, 1426273646, -0.82971364, 0.20161195, -0.23733066, 0.463255, -6.31325, 12.744616, 8.441746, 0
1069, 1426323647, -0.8097358, 0.252458, -0.17254849, 0.50082237, -2.8007567, 16.900127, -5.9546537, 0
1071, 1426356981, -0.8151541, 0.26365325, -0.15001208, 0.4934677, -5.7208047, 13.194256, -8.032825, 0
1073, 1426390315, -0.82645035, 0.26184496, -0.13736328, 0.4791154, -5.993068, 10.82458, -3.1451497, 0
1075, 1426423649, -0.830605, 0.26198226, -0.13338406, 0.4729403, -6.184895, 4.339431, -2.263383, 0
1076, 1426440316, -0.83035225, 0.25942433, -0.13306145, 0.4748809, -5.0070896, 2.5942094, -2.7156143, 0
1077, 1426456983, -0.82915306, 0.25422385, -0.13345681, 0.4796539, -3.9246407, 1.9683015, -3.113091, 0
1079, 1426490317, -0.82572347, 0.23925962, -0.13535692, 0.49256214, -1.0641826, 4.7892942, -0.83039474, 0
1080, 1426506984, -0.8235534, 0.23531668, -0.13510463, 0.4981323, 0.15018539, 5.656383, -0.56208324, 0
1081, 1426523651, -0.8216077, 0.23372577, -0.13456616, 0.50222313, 0.07363137, 4.2323265, -2.2505255, 0
1084, 1426573652, -0.819584, 0.2274267, -0.13464613, 0.5083628, -1.2246182, 4.012301, -3.4933572, 0
1085, 1426590319, -0.81958324, 0.22347514, -0.13615774, 0.5097121, -1.650306, 5.408134, -1.4756546, 0
1087, 1426623653, -0.8196007, 0.21635377, -0.13813789, 0.51221734, -0.39510518, 5.2173476, -2.517252, 0
1089, 1426656987, -0.8203756, 0.20968331, -0.1440306, 0.51212806, -0.49740005, 5.0173764, -2.9628882, 0
1091, 1426690321, -0.82338566, 0.19835737, -0.1526505, 0.5093049, -1.2140368, 6.058654, -1.7788944, 0
1092, 1426706988, -0.8255906, 0.19207922, -0.15649344, 0.5069703, -1.4134825, 5.7911253, -2.0526586, 0
1094, 1426740322, -0.83135307, 0.1767698, -0.1653206, 0.50027674, -1.728218, 5.0365415, -3.329267, 0
1095, 1426756989, -0.83412015, 0.16826904, -0.17052738, 0.49684286, -2.1428401, 4.79688, -3.13628, 0
1096, 1426773656, -0.83656174, 0.15987942, -0.17567308, 0.4937056, -2.0498633, 5.446371, -2.2259207, 0
1099, 1426823657, -0.8422979, 0.14408475, -0.18912475, 0.48374453, -3.3209774, 7.8265495, -1.4153671, 0
1100, 1426840324, -0.8441215, 0.14317688, -0.19380486, 0.4789594, -4.8257604, 9.646855, -4.382055, 0
1102, 1426873658, -0.8494148, 0.13225733, -0.21698165, 0.46251965, -13.408258, 16.384487, -4.646118, 0
1103, 1426890325, -0.850926, 0.120642595, -0.23544972, 0.4538025, -15.736907, 18.392624, -8.060595, 0
1106, 1426940326, -0.8453005, 0.06494749, -0.35214084, 0.39654616, -9.737736, 27.17764, 5.1956625, 0
1107, 1426956993, -0.8476913, 0.06723648, -0.34737825, 0.3952598, -31.811008, 27.82414, 43.60096, 0
1108, 1426973660, -0.84439117, 0.071339406, -0.3589006, 0.39128968, 6.842281, -18.16786, -5.964384, 0
1110, 1427006994, -0.8343481, 0.053701207, -0.40709546, 0.36777118, -0.2677692, -1.4814531, -0.79946136, 0
1111, 1427023661, -0.8211904, 0.035750136, -0.44648653, 0.3535832, 1.7052934, -2.399996, 0.4312296, 0
1114, 1427073662, -0.7376987, -0.0771031, -0.61362123, 0.27079132, 7.4902916, -9.827403, 9.398388, 0
1115, 1427090329, -0.6833529, -0.12719849, -0.68710923, 0.211503, 13.644532, -22.971735, 25.928455, 0
1116, 1427106996, -0.62847763, -0.14449902, -0.7529719, 0.13104346, 23.180311, -44.82482, 49.3336, 0
1118, 1427140330, -0.5798659, -0.15659596, -0.7949617, 0.085277565, 7.5729184, -1.8439072, 14.0406685, 0
1119, 1427156997, -0.5608689, -0.18533103, -0.8061528, 0.03462933, 13.077113, 5.9876394, 19.036173, 0
1122, 1427206998, -0.50062174, -0.28203195, -0.81369245, -0.08799881, 16.079254, -34.353027, -5.8892565, 0
1123, 1427223665, -0.4731144, -0.3088676, -0.8165108, -0.11864554, 17.12278, -31.637627, -15.538805, 0
1125, 1427256999, -0.43033412, -0.3489763, -0.81592274, -0.1652312, 9.368567, -17.480013, -24.2994, 0
1126, 1427273666, -0.41391036, -0.3669114, -0.8140131, -0.1773132, 4.6632156, -11.428248, -24.10991, 0
1129, 1427323667, -0.3891203, -0.39645937, -0.8105366, -0.18557742, 2.1640036, -5.8552957, -21.777596, 0
1130, 1427340334, -0.3912696, -0.39895305, -0.80977684, -0.1789113, 1.4086828, -3.2058544, -20.283154, 0
1131, 1427357001, -0.39840996, -0.3978003, -0.8088448, -0.16969861, 1.5257007, -2.0511405, -19.020596, 0
1133, 1427390335, -0.42773134, -0.3817568, -0.806455, -0.14470989, 1.4136381, 0.48462608, -16.32313, 0
1134, 1427407002, -0.44709396, -0.36777437, -0.80516404, -0.12869686, 2.016919, 1.6398708, -15.28985, 0
1135, 1427423669, -0.46907753, -0.349586, -0.8033208, -0.11150974, 4.2279224, 2.122191, -14.465869, 0
1137, 1427457003, -0.52306193, -0.30484474, -0.79297405, -0.06834613, 6.6365676, -1.2047447, -13.199691, 0
1138, 1427473670, -0.55444676, -0.28109866, -0.78226733, -0.04041969, 7.4975953, -1.5964878, -11.69045, 0
1139, 1427490337, -0.5877698, -0.2560095, -0.76737624, -0.011083239, 7.355921, -1.5260005, -10.160836, 0
1141, 1427523671, -0.6577928, -0.20435612, -0.72343993, 0.04674427, 8.235738, -5.841336, -5.1975107, 0
1143, 1427557005, -0.72843975, -0.14896896, -0.6610299, 0.10112632, 6.109481, -6.9199452, 0.7165861, 0
1145, 1427590339, -0.78808564, -0.08653569, -0.59131575, 0.14758575, 0.80352014, -9.544156, 7.856678, 0
1146, 1427607006, -0.80956596, -0.05225596, -0.5584893, 0.17310391, -1.1194181, -12.199893, 14.088194, 0
1147, 1427623673, -0.82518816, -0.015943458, -0.52618694, 0.20479459, -3.054926, -8.246874, 14.875795, 0
1149, 1427657007, -0.8408535, 0.051930644, -0.4650262, 0.2720704, -3.6632576, -2.6752732, 20.085857, 0
1152, 1427707008, -0.84509814, 0.13563602, -0.3712214, 0.36001363, -6.0828056, 6.0702567, 17.758533, 0
1153, 1427723675, -0.8445124, 0.15825413, -0.3376227, 0.38440683, -7.468011, 7.0324187, 13.968348, 0
1154, 1427740342, -0.8425361, 0.17807391, -0.30490217, 0.40676838, -7.964115, 7.160683, 10.1766815, 0
1156, 1427773676, -0.8333089, 0.21358144, -0.24481076, 0.44726953, -8.620802, 8.827226, 7.0331306, 0
1158, 1427807010, -0.8178643, 0.24385348, -0.19990359, 0.48132637, -5.4187713, 12.059338, 1.1545286, 0
1160, 1427840344, -0.8083295, 0.26254648, -0.16854824, 0.49926707, -1.9435564, 13.461594, -3.033286, 0
1161, 1427857011, -0.80834574, 0.26893315, -0.1565399, 0.49975044, -2.3522701, 14.383688, -1.9120522, 0
1162, 1427873678, -0.80896527, 0.27680176, -0.14631736, 0.49754438, -3.3834126, 12.349828, -2.9397326, 0
1164, 1427907012, -0.81060517, 0.28744495, -0.12907073, 0.49359772, -3.4342318, 6.7730446, -4.197741, 0
1165, 1427923679, -0.8105087, 0.2882307, -0.12221737, 0.49504015, -3.7744951, 4.98729, -3.9549785, 0
1168, 1427973680, -0.80344963, 0.28302372, -0.10937758, 0.5122559, -0.9937897, 7.9633007, -3.7388558, 0
1169, 1427990347, -0.80156416, 0.2814875, -0.10598077, 0.51675063, -0.7560406, 7.5273557, -4.5390754, 0
1170, 1428007014, -0.8009698, 0.27990955, -0.10298415, 0.5191296, -1.1861752, 7.059041, -4.684458, 0
1173, 1428057015, -0.8035718, 0.26965138, -0.099279195, 0.5212553, -2.194584, 6.1247325, -4.1834326, 0
1175, 1428090349, -0.8052129, 0.26187655, -0.09961172, 0.5226215, -2.0433693, 5.537766, -4.21612, 0
1176, 1428107016, -0.8063383, 0.25780746, -0.10096596, 0.5226498, -2.046187, 5.499009, -4.309521, 0
1177, 1428123683, -0.8082964, 0.25306597, -0.103320256, 0.5214814, -1.9200993, 5.3040547, -4.4351945, 0
1179, 1428157017, -0.8147508, 0.24069522, -0.110727735, 0.5157418, -2.3964546, 5.242154, -3.2016816, 0
1180, 1428173684, -0.8188399, 0.23342834, -0.11474286, 0.51171255, -2.4766073, 5.325399, -2.7810402, 0
1181, 1428190351, -0.82296896, 0.22642836, -0.1194651, 0.5071328, -3.406009, 5.4568706, -2.408403, 0
1184, 1428240352, -0.83226347, 0.20492828, -0.13760588, 0.4963968, -4.043273, 5.733043, -3.4229918, 0
1185, 1428257019, -0.83466095, 0.19603585, -0.1450517, 0.4938361, -3.558785, 6.166512, -3.9077644, 0
1188, 1428307020, -0.84629905, 0.17006746, -0.16725664, 0.47632253, -1.9210098, 10.731276, -4.0365543, 0
1189, 1428323687, -0.8533352, 0.16312926, -0.17622992, 0.4627678, -6.0044875, 13.224685, -4.8453813, 0
1191, 1428357021, -0.865689, 0.13831595, -0.2061352, 0.4346986, -17.326233, 18.674747, -7.1323185, 0
1192, 1428373688, -0.8673953, 0.12121793, -0.23468733, 0.4217302, -20.501026, 22.479559, -8.820224, 0
1193, 1428390355, -0.86637294, 0.0986693, -0.27449474, 0.40536165, -22.010002, 25.265972, -9.291162, 0
1195, 1428423689, -0.8562392, 0.084953606, -0.31540343, 0.4002011, -19.230846, -16.269804, -19.757038, 0
1196, 1428440356, -0.8570348, 0.07494693, -0.3263008, 0.39166978, -3.788044, -5.132712, 4.6210556, 0
1197, 1428457023, -0.85856956, 0.064024, -0.34282565, 0.37581, 3.289407, -1.4101796, 1.389945, 0
1200, 1428507024, -0.82198554, -0.010171248, -0.46313298, 0.33128166, 0.71936303, -3.5247703, 1.220396, 0
1203, 1428557025, -0.71237594, -0.13809012, -0.6578901, 0.20158249, 13.928588, -20.220747, 24.09465, 0
1204, 1428573692, -0.6576249, -0.1532467, -0.72868305, 0.11432068, 7.4705825, -23.630873, 30.725811, 0
1206, 1428607026, -0.5778637, -0.15683082, -0.7964533, 0.08451569, 11.148204, -29.812534, 28.215542, 0
1207, 1428623693, -0.54379344, -0.19391948, -0.81304455, 0.07513762, 11.558041, 44.73371, 3.4840965, 0
1208, 1428640360, -0.5197119, -0.21487801, -0.82674795, 0.014764544, 18.704014, -30.213638, 22.34185, 0
1210, 1428673694, -0.48441947, -0.27429634, -0.828528, -0.060362868, 12.715686, -24.499857, -2.9362335, 0
1211, 1428690361, -0.4593994, -0.30060375, -0.8299848, -0.09857992, 12.870694, -31.732485, -10.186713, 0
1212, 1428707028, -0.4339946, -0.32520664, -0.8305436, -0.126846, 11.260384, -28.464783, -19.558117, 0
1214, 1428740362, -0.39656878, -0.36089444, -0.8270774, -0.16862568, 9.271459, -11.891775, -25.084904, 0
1215, 1428757029, -0.38943037, -0.37356013, -0.8208877, -0.18693146, 6.3578606, -9.271287, -24.632523, 0
1218, 1428807030, -0.39254144, -0.40896818, -0.795899, -0.2126126, -0.22200134, -4.629769, -21.896582, 0
1219, 1428823697, -0.3965505, -0.4157077, -0.7905336, -0.21211879, -0.48753205, -3.687275, -20.993536, 0
1220, 1428840364, -0.40233627, -0.4170448, -0.7879012, -0.20836039, -0.20497389, -3.302091, -20.243256, 0
1222, 1428873698, -0.42205444, -0.40416482, -0.7900875, -0.18516412, 0.40417802, -1.783998, -18.46054, 0
1223, 1428890365, -0.4358967, -0.3913115, -0.7932427, -0.16624793, 1.7940161, -0.2855787, -16.547287, 0
1224, 1428907032, -0.45359203, -0.3735278, -0.7959038, -0.14584742, 3.4777322, 1.1997018, -14.85869, 0
1226, 1428940366, -0.49881473, -0.32653677, -0.7962491, -0.10270474, 6.4799314, -0.38159204, -13.459269, 0
1227, 1428957033, -0.5267849, -0.30162108, -0.79098946, -0.07655921, 8.209948, -2.6047637, -12.670963, 0
1230, 1429007034, -0.6313459, -0.21880232, -0.74389446, 0.012326318, 9.832789, -4.3304434, -6.371908, 0
1233, 1429057035, -0.7448157, -0.12519838, -0.64899457, 0.09156464, 9.0197935, -8.405636, 5.517049, 0
1234, 1429073702, -0.7783417, -0.09021133, -0.61058587, 0.11503965, 5.4845266, -9.429164, 9.459085, 0
1235, 1429090369, -0.8048278, -0.05181096, -0.5746709, 0.13901111, 2.3142593, -9.450883, 12.866312, 0
1237, 1429123703, -0.83993924, 0.025077006, -0.5048129, 0.1975857, -0.7724965, -5.5905747, 24.85173, 0
1238, 1429140370, -0.8517617, 0.059609186, -0.4669122, 0.23009823, -3.901476, -1.0036721, 21.885628, 0
1239, 1429157037, -0.8590185, 0.09051556, -0.4299843, 0.26269868, -6.1194253, -0.5021651, 20.961979, 0
1241, 1429190371, -0.85988766, 0.14323345, -0.3630194, 0.3290856, -8.724756, 3.6347215, 17.050295, 0
1242, 1429207038, -0.8564971, 0.15978314, -0.33167085, 0.36177295, -8.750276, 5.1621003, 13.167046, 0
1243, 1429223705, -0.85103756, 0.17385091, -0.30187526, 0.39291906, -8.13163, 7.825886, 14.3913765, 0
1247, 1429290373, -0.80855525, 0.23141725, -0.20845507, 0.49923366, -2.3809342, 13.405605, 0.65017986, 0
1249, 1429323707, -0.80475426, 0.24274816, -0.17233384, 0.5135641, -0.28705457, 15.474905, -1.7877827, 0
1250, 1429340374, -0.8076814, 0.251447, -0.15565887, 0.51009685, -2.4054134, 14.353008, -3.1172767, 0
1251, 1429357041, -0.8112467, 0.26067784, -0.14181955, 0.50380164, -4.5526023, 10.432736, -5.8495064, 0
1253, 1429390375, -0.81759095, 0.27146873, -0.12262889, 0.4927627, -5.7496653, 6.3548517, -6.6515703, 0
1254, 1429407042, -0.8193694, 0.27174386, -0.11576046, 0.49131635, -6.111427, 6.1530905, -5.1511292, 0
1255, 1429423709, -0.8202065, 0.26810363, -0.10976527, 0.49329162, -5.7946053, 6.1675005, -4.8890424, 0
1257, 1429457043, -0.81817555, 0.25771725, -0.10057481, 0.5040421, -4.288496, 7.756075, -4.673598, 0
1258, 1429473710, -0.8155399, 0.25402138, -0.09789964, 0.5106726, -3.0413432, 7.347987, -6.0328317, 0
1260, 1429507044, -0.8112908, 0.24837342, -0.09657378, 0.52037895, -1.7556509, 7.905073, -6.007944, 0
1264, 1429573712, -0.81673026, 0.24083507, -0.099528655, 0.5148273, -2.967414, 8.076936, -7.7767305, 0
1265, 1429590379, -0.81866264, 0.23817907, -0.10294873, 0.51231503, -3.8073072, 8.620883, -8.199018, 0
1266, 1429607046, -0.82072145, 0.23357783, -0.10778888, 0.51013947, -3.9042041, 10.009132, -8.048408, 0
1268, 1429640380, -0.82429135, 0.22124135, -0.12334235, 0.50634545, -3.441014, 13.198131, -8.04969, 0
1269, 1429657047, -0.82654995, 0.21413235, -0.13426048, 0.5029311, -2.5963938, 15.90633, -6.5771046, 0
1270, 1429673714, -0.8297452, 0.2085268, -0.14709061, 0.49639386, -2.6685436, 16.974659, -7.2928147, 0
1272, 1429707048, -0.8452549, 0.18245423, -0.1782965, 0.46954036, -7.479268, 19.327902, -5.2316527, 0
1273, 1429723715, -0.8547344, 0.16148984, -0.19834858, 0.45167574, -10.918735, 19.880463, -2.8832936, 0
1274, 1429740382, -0.8630195, 0.13527142, -0.22313412, 0.43256578, -14.830246, 19.596561, -2.0437326, 0
1277, 1429790383, -0.86727804, 0.074730396, -0.31716657, 0.37636772, -16.410042, 41.78251, 62.95393, 0
1280, 1429840384, -0.86307275, 0.054944355, -0.3584997, 0.35152164, 2.1722276, 0.92451876, 0.058029175, 0
1281, 1429857051, -0.85775197, 0.03164835, -0.3904071, 0.33293462, 2.4225826, 2.601186, 0.8793621, 0
1283, 1429890385, -0.82594895, -0.0251326, -0.4778617, 0.29803985, 1.6082343, -2.784084, 1.2362518, 0
1284, 1429907052, -0.8003954, -0.06258407, -0.53196967, 0.26918772, 4.4157505, -5.9645867, 1.8332367, 0
1285, 1429923719, -0.7659015, -0.10627647, -0.5916021, 0.22827646, 8.251916, -8.417776, 10.168789, 0
1287, 1429957053, -0.6682933, -0.14938208, -0.72181046, 0.1003088, 15.941647, -22.748161, 20.53423, 0
1288, 1429973720, -0.6317052, -0.13656898, -0.7621837, 0.03710322, 16.90254, -69.137505, 47.558163, 0
1289, 1429990387, -0.601175, -0.12464842, -0.7872411, 0.057499282, 28.898333, -61.022236, 51.03402, 0
1292, 1430040388, -0.5548485, -0.18616939, -0.8108217, 0.007424477, 5.314033, -17.458698, 7.7414074, 0
1293, 1430057055, -0.53851295, -0.21743295, -0.81357217, -0.02881296, 5.376498, -19.49778, 0.8458538, 0
1295, 1430090389, -0.48956916, -0.27946046, -0.82232124, -0.07755402, 10.418584, -31.132107, -13.201557, 0
1296, 1430107056, -0.46543023, -0.30523726, -0.8254476, -0.09404374, 12.889581, -21.13598, -18.044374, 0
1297, 1430123723, -0.44982505, -0.32082972, -0.8250403, -0.11847916, 11.715042, -14.699184, -21.909985, 0
1299, 1430157057, -0.4419794, -0.34176883, -0.8133975, -0.16197442, 5.4003057, -12.493574, -24.378021, 0
1300, 1430173724, -0.44516486, -0.35374832, -0.8050538, -0.16906181, 3.11388, -7.9068685, -23.229183, 0
1301, 1430190391, -0.4505442, -0.3636837, -0.7970844, -0.17147534, 2.17524, -5.1952295, -21.500381, 0
1303, 1430223725, -0.47003374, -0.3707809, -0.7844907, -0.16176312, 0.6164751, -4.704937, -19.741154, 0
1304, 1430240392, -0.48218393, -0.3681612, -0.7806902, -0.14994015, 1.0630168, -2.6058087, -18.115707, 0
1307, 1430290393, -0.53974336, -0.32140848, -0.77188396, -0.09783585, 4.3350215, -1.5826895, -14.591089, 0
1310, 1430340394, -0.6155334, -0.23618352, -0.7518229, -0.010083279, 9.517339, -3.066386, -8.943003, 0
1311, 1430357061, -0.6445791, -0.20863998, -0.73516846, 0.022754531, 10.088048, -2.9042792, -6.0757647, 0
1312, 1430373728, -0.6754898, -0.18401177, -0.71205175, 0.053277988, 9.737833, -4.43482, -3.4881287, 0
1314, 1430407062, -0.7434871, -0.13284965, -0.6466733, 0.10674575, 7.388026, -7.3953443, 5.3235207, 0
1315, 1430423729, -0.776485, -0.10592087, -0.60764664, 0.12892053, 1.3898572, -6.5899196, 7.01816, 0
1316, 1430440396, -0.80404305, -0.07777881, -0.57028264, 0.14915112, -1.9718546, -6.4527874, 9.1457, 0
1318, 1430473730, -0.84038484, -0.0175969, -0.50487494, 0.1963365, -5.981713, -7.239956, 18.389376, 0
1319, 1430490397, -0.85132223, 0.011830292, -0.47338855, 0.22586854, -5.6351166, -0.79035664, 18.469881, 0
1322, 1430540398, -0.87407774, 0.09305393, -0.37294793, 0.29705516, -5.2770247, 10.16224, 15.074509, 0
1323, 1430557065, -0.88126636, 0.116106935, -0.33733916, 0.30999064, -7.8305545, 9.748273, 10.051039, 0
1326, 1430607066, -0.88143015, 0.17408364, -0.25775486, 0.35544553, -10.278063, 5.4113307, 4.927846, 0
1327, 1430623733, -0.87408316, 0.18884765, -0.24010366, 0.37771484, -8.723484, 6.965411, 5.367605, 0
1328, 1430640400, -0.8649208, 0.20071773, -0.22441652, 0.4015776, -6.1244617, 8.404475, 4.266589, 0
1330, 1430673734, -0.8460657, 0.2189824, -0.19609818, 0.4447114, -0.35396272, 11.723083, 0.19625664, 0
1331, 1430690401, -0.8389193, 0.22606377, -0.18400641, 0.45962402, 1.3012472, 12.842533, -0.2769394, 0
1332, 1430707068, -0.8348948, 0.23247656, -0.17299344, 0.46795478, 2.8996572, 12.713329, -1.9025688, 0
1334, 1430740402, -0.8339046, 0.24749804, -0.1528691, 0.46902248, 0.7894653, 11.824095, -1.143199, 0
1336, 1430773736, -0.8376978, 0.2584656, -0.13487078, 0.46181282, -1.2967758, 8.1421995, -3.615604, 0
1338, 1430807070, -0.8409453, 0.25770655, -0.12189908, 0.459937, -2.2410262, 6.102227, -3.761013, 0
1339, 1430823737, -0.84142613, 0.25345045, -0.115992926, 0.46294028, -2.001216, 5.7025595, -3.3985052, 0
1342, 1430873738, -0.84232235, 0.23910677, -0.10576057, 0.47131616, -0.7254714, 5.334392, -3.5895596, 0
1343, 1430890405, -0.84387785, 0.23449767, -0.103703156, 0.47130665, -0.48257, 5.183006, -3.752428, 0
1345, 1430923739, -0.84815544, 0.22674629, -0.10160437, 0.4678654, -1.4622787, 3.682844, -3.194756, 0
1346, 1430940406, -0.84970105, 0.22311874, -0.101593226, 0.46680626, -1.8566345, 3.1235492, -2.5362234, 0
1347, 1430957073, -0.8503955, 0.21980882, -0.10210102, 0.4670013, -2.1671128, 3.3566368, -2.0711565, 0
1349, 1430990407, -0.8500571, 0.21476784, -0.104633264, 0.46939617, -1.6411772, 4.3641257, -2.3817134, 0
1351, 1431023741, -0.8517272, 0.20905994, -0.10821925, 0.46813092, -0.6298533, 4.8554826, -2.6082988, 0
1353, 1431057075, -0.8568141, 0.20265706, -0.111658156, 0.46079865, -1.4619777, 3.8853843, -2.9534903, 0
1354, 1431073742, -0.85979813, 0.19892508, -0.11430229, 0.45619535, -2.4226408, 3.1849885, -2.8897877, 0
1355, 1431090409, -0.8624688, 0.19481367, -0.11810293, 0.45194033, -3.4709723, 3.0742445, -2.4099326, 0
1358, 1431140410, -0.8663997, 0.18047325, -0.13174336, 0.44657347, -3.6948426, 3.0998187, -2.8873286, 0
1359, 1431157077, -0.8664418, 0.17440037, -0.13710262, 0.44729123, -3.9525137, 3.788373, -2.3283992, 0
1361, 1431190411, -0.86484104, 0.16170883, -0.14684324, 0.4520402, -3.8351068, 6.3418527, -3.4096317, 0
1362, 1431207078, -0.86427176, 0.15643428, -0.15121096, 0.4535427, -4.0820184, 9.184099, -4.0160446, 0
1364, 1431240412, -0.86827743, 0.14757244, -0.16382158, 0.44438982, -4.7890534, 15.575627, -9.790697, 0
1366, 1431273746, -0.87815464, 0.12773864, -0.1975608, 0.4165333, -15.991041, 21.495277, -7.832267, 0
1368, 1431307080, -0.88311183, 0.083117545, -0.26048955, 0.38125226, -20.29009, 19.360016, -9.475264, 0
1369, 1431323747, -0.8673963, 0.08226631, -0.31334022, 0.37772602, -17.231955, 51.296886, 44.54914, 0
1370, 1431340414, -0.86462665, 0.091807, -0.3127044, 0.38237566, -21.80405, -17.77805, -22.692614, 0
1372, 1431373748, -0.86771494, 0.076056264, -0.3398072, 0.35471198, 3.0468285, -0.02485045, 1.1392174, 0
1373, 1431390415, -0.8642082, 0.06261745, -0.36570808, 0.33982918, 4.4763546, 4.1723943, 1.3479385, 0
1374, 1431407082, -0.8513304, 0.04552614, -0.40664873, 0.3283348, 0.66584015, -2.4629152, 0.19602871, 0
1376, 1431440416, -0.80439264, -0.014107819, -0.5189091, 0.28894612, 5.458231, -7.1441426, 4.1620398, 0
1377, 1431457083, -0.76866096, -0.06388508, -0.5858703, 0.24867287, 6.303008, -8.967296, 8.084335, 0
1378, 1431473750, -0.71938217, -0.11244006, -0.65881497, 0.18924128, 10.091034, -15.367032, 18.923075, 0
1381, 1431523751, -0.6181922, -0.13501161, -0.77191854, 0.061280772, 11.176345, -15.3070545, 26.890175, 0
1382, 1431540418, -0.5913975, -0.17737405, -0.7862094, 0.025798889, 2.1180983, 25.05706, 13.731478, 0
1384, 1431573752, -0.5521439, -0.2356066, -0.7974549, -0.060789216, 6.8471355, -30.546898, -4.4232974, 0
1385, 1431590419, -0.52072686, -0.26318577, -0.8065168, -0.09544866, 15.416559, -32.48292, -11.214773, 0
1388, 1431640420, -0.45209387, -0.30528715, -0.82307124, -0.15801188, 13.552293, -11.553213, -28.044613, 0
1389, 1431657087, -0.44791973, -0.314188, -0.8192506, -0.17171334, 9.295148, -7.0707603, -25.960943, 0
1391, 1431690421, -0.45512432, -0.3370564, -0.8025326, -0.18761544, 4.7643332, -7.51948, -22.74187, 0
1392, 1431707088, -0.46402138, -0.34932813, -0.7926775, -0.18525536, 1.8799858, -6.692825, -21.77692, 0
1393, 1431723755, -0.47495982, -0.35931993, -0.78362507, -0.1767412, 1.1354417, -6.212873, -20.357086, 0
1396, 1431773756, -0.52580667, -0.34806734, -0.7647682, -0.1323225, 0.24428457, -0.63086784, -14.984436, 0
1397, 1431790423, -0.5460497, -0.33081374, -0.7610631, -0.114795476, 2.0401483, -0.96716875, -13.766096, 0
1399, 1431823757, -0.5905496, -0.2839447, -0.75188005, -0.07284306, 6.228098, 0.13624924, -11.647, 0
1400, 1431840424, -0.61471176, -0.25742027, -0.7438047, -0.051207528, 8.44842, -0.96523464, -9.551921, 0
1401, 1431857091, -0.6408755, -0.2303574, -0.7317183, -0.028383465, 9.743833, -2.3095517, -6.6518993, 0
1404, 1431907092, -0.72403187, -0.15527348, -0.6709709, 0.03832861, 7.6876907, -5.0705967, 2.0236855, 0
1405, 1431923759, -0.75200886, -0.1342817, -0.6425343, 0.060033347, 2.9440491, -6.1777945, 3.4131432, 0
1407, 1431957093, -0.7969852, -0.088127695, -0.5869175, 0.112155765, -1.9279182, -7.8549695, 7.3808746, 0
1408, 1431973760, -0.8126646, -0.06281138, -0.5611838, 0.14389874, -3.1171455, -5.999481, 8.105576, 0
1411, 1432023761, -0.83616775, 0.012587168, -0.49478942, 0.23632948, -1.9138064, -3.483955, 13.197128, 0
1412, 1432040428, -0.84061545, 0.036952358, -0.47033384, 0.26606253, -2.3234806, -1.889037, 13.887941, 0
1413, 1432057095, -0.844563, 0.060144782, -0.44314757, 0.29448122, -2.7542403, -0.2575941, 13.461363, 0
1415, 1432090429, -0.8493418, 0.10599616, -0.38560468, 0.34452242, -4.0043697, 2.7702386, 9.487659, 0
1416, 1432107096, -0.8501087, 0.12704885, -0.35858637, 0.364133, -5.1203237, 3.4361658, 8.165386, 0
1417, 1432123763, -0.85017824, 0.14614499, -0.33260795, 0.38106915, -6.667575, 3.6664815, 10.567123, 0
1420, 1432173764, -0.8378358, 0.20720069, -0.26616, 0.4292562, -5.2069283, 7.923888, 5.010603, 0
1422, 1432207098, -0.8274829, 0.23326087, -0.23154365, 0.45524946, -3.2032354, 9.542161, 1.9879351, 0
1423, 1432223765, -0.8245427, 0.23917009, -0.21610676, 0.46500343, -3.1166964, 10.675227, 2.0952377, 0
1426, 1432273766, -0.81578887, 0.26394734, -0.17798138, 0.482852, -4.132654, 9.659937, -4.445444, 0
1427, 1432290433, -0.81441826, 0.26890978, -0.17011, 0.48525903, -4.3191614, 8.545642, -5.113903, 0
1428, 1432307100, -0.81474495, 0.26983088, -0.16399588, 0.48630285, -4.846118, 6.8832126, -4.767063, 0
1430, 1432340434, -0.81726295, 0.26367363, -0.15474178, 0.48848307, -4.2886944, 4.514458, -2.2961955, 0
1431, 1432357101, -0.8158027, 0.26073658, -0.15137574, 0.49352908, -3.5924244, 3.4928982, -2.07512, 0
1432, 1432373768, -0.8118305, 0.2581904, -0.1488988, 0.50209683, -2.4491727, 2.837121, -2.5408888, 0
1434, 1432407102, -0.80172837, 0.2542505, -0.1466531, 0.52065784, 1.0205418, 4.9578843, -2.5579371, 0
1436, 1432440436, -0.79627776, 0.2524555, -0.14456373, 0.530389, 1.2535737, 5.9473677, -1.6867342, 0
1438, 1432473770, -0.79629034, 0.2540729, -0.13928212, 0.53101075, 0.7809417, 4.961797, -3.132052, 0
1440, 1432507104, -0.799311, 0.253681, -0.13584228, 0.5275395, -0.195668, 4.19918, -3.116459, 0
1442, 1432540438, -0.8029979, 0.24899101, -0.13642387, 0.5240129, -0.5364919, 4.351718, -1.481493, 0
1443, 1432557105, -0.8044376, 0.24667402, -0.13691077, 0.52277225, -0.2736629, 4.3793383, -1.0139656, 0
1445, 1432590439, -0.8078256, 0.2411431, -0.13795884, 0.5198443, -0.058652148, 2.6748059, -1.6624374, 0
1446, 1432607106, -0.8102226, 0.23681064, -0.13904768, 0.5178117, -0.09977786, 1.8758848, -1.623807, 0
1447, 1432623773, -0.81301117, 0.23129909, -0.1406237, 0.5155017, -0.14674206, 0.89840984, -1.6198559, 0
1449, 1432657107, -0.8183676, 0.21999738, -0.14339262, 0.5111924, -1.2531135, 2.0541627, 0.90807915, 0
1450, 1432673774, -0.8202698, 0.2166059, -0.14300443, 0.509698, -0.74379045, 1.248501, -1.0772982, 0
1451, 1432690441, -0.82155794, 0.21471317, -0.14273566, 0.50849825, -1.31981, 1.3850292, -2.022151, 0
1453, 1432723775, -0.82374924, 0.21192855, -0.14234355, 0.5062261, -2.261376, 2.336713, -3.4535413, 0
1455, 1432757109, -0.82627594, 0.21073845, -0.14325088, 0.5023341, -2.9394894, 5.1973357, -2.4949884, 0
1457, 1432790443, -0.8282326, 0.21522474, -0.1414538, 0.49769762, -2.459297, 6.850041, -5.4184933, 0
1458, 1432807110, -0.830202, 0.21799363, -0.14044592, 0.4934791, -3.9118733, 9.522022, -5.26465, 0
1459, 1432823777, -0.83339286, 0.2198442, -0.13841267, 0.4878216, -5.470347, 11.387236, -7.467173, 0
1461, 1432857111, -0.84161234, 0.21867488, -0.14563766, 0.47187176, -7.666943, 18.043716, -10.120886, 0
1462, 1432873778, -0.8464545, 0.21421312, -0.15785159, 0.46120867, -9.22962, 22.06064, -11.072102, 0
1463, 1432890445, -0.8549969, 0.20015343, -0.17574374, 0.44501272, -12.6897745, 25.995047, -9.431709, 0
1466, 1432940446, -0.86639357, 0.12523088, -0.30583373, 0.37436405, -39.59343, 33.218426, 24.372791, 0
1467, 1432957113, -0.8703519, 0.11302041, -0.30365664, 0.37082314, -19.396791, -15.503767, 28.342941, 0
1470, 1433007114, -0.8655478, 0.07869496, -0.3756671, 0.32173237, 2.5720248, 3.131938, 0.64851856, 0
1472, 1433040448, -0.8315295, 0.025646402, -0.4730872, 0.28998712, 1.1629922, -2.7377665, 1.3012228, 0
1473, 1433057115, -0.80540305, -0.007797655, -0.5289532, 0.26735184, 5.86151, -3.095223, 3.7315655, 0
1474, 1433073782, -0.7698828, -0.050765622, -0.5900639, 0.23776318, 7.6851587, -5.7587214, 5.5815926, 0
1476, 1433107116, -0.65491235, -0.13246945, -0.730321, 0.14204147, 25.998478, -39.76044, 36.009644, 0
1477, 1433123783, -0.60870695, -0.15578434, -0.77226907, 0.09386532, 23.78915, -71.60359, 47.417587, 1024
1478, 1433140450, -0.57015693, -0.16365428, -0.799033, 0.098426506, 1.1501726, -45.28218, 57.44676, 1024
1480, 1433173784, -0.5416824, -0.19034159, -0.81807506, 0.033261377, 17.675226, -12.201061, 19.46172, 0
1482, 1433207118, -0.5208031, -0.2647572, -0.8105579, -0.04082343, 19.014812, -20.779118, 1.6572304, 0
1485, 1433257119, -0.48936388, -0.35544905, -0.7821189, -0.14990637, 5.6257577, -21.440338, -21.808765, 0
1486, 1433273786, -0.47550684, -0.37664095, -0.7767862, -0.16923648, 3.309335, -14.772464, -24.032299, 0
1488, 1433307120, -0.45273492, -0.39999273, -0.7747428, -0.18658368, 2.6981487, -9.20913, -24.292244, 0
1489, 1433323787, -0.44574398, -0.40249416, -0.77744836, -0.18678302, 2.3480997, -4.7120957, -22.269028, 0
1490, 1433340454, -0.4400335, -0.40135965, -0.78156525, -0.18557972, 2.5767174, -2.1402996, -20.212969, 0
1492, 1433373788, -0.4388397, -0.39444157, -0.7882776, -0.1745195, 5.3884797, -3.0400596, -19.09036, 0
1493, 1433390455, -0.4469015, -0.38769752, -0.7890265, -0.1655604, 4.521837, -0.3149936, -17.529898, 0
1494, 1433407122, -0.46030477, -0.37801957, -0.78801304, -0.15575452, 3.8077247, -0.8040938, -16.538277, 0
1496, 1433440456, -0.49938875, -0.35264686, -0.78141266, -0.12509365, 3.5723681, 0.14920318, -14.46556, 0
1500, 1433507124, -0.6242677, -0.26299953, -0.7345265, -0.039936084, 3.5041664, -2.614818, -8.9299755, 0
1501, 1433523791, -0.6569369, -0.23759913, -0.7153986, -0.01372995, 3.005041, -3.498248, -7.6733847, 0
1503, 1433557125, -0.7151321, -0.17548427, -0.67515755, 0.04423595, 5.80523, -6.0705576, -2.87716, 0
1504, 1433573792, -0.7404471, -0.13953467, -0.65333414, 0.07365989, 8.811695, -6.7551517, 2.1415367, 0
1505, 1433590459, -0.7655019, -0.102118075, -0.6270557, 0.10189744, 9.270279, -5.9857755, 6.6316986, 0
1507, 1433623793, -0.81265503, -0.03499746, -0.5622363, 0.14919914, 4.6560698, -5.1608872, 13.166075, 0
1508, 1433640460, -0.8337446, -0.005015727, -0.52506745, 0.17073968, 1.8147517, -6.3908772, 16.655727, 0
1509, 1433657127, -0.85039186, 0.025797278, -0.48820683, 0.19448774, -1.9238931, -5.9658933, 16.921482, 0
1511, 1433690461, -0.86644405, 0.08699843, -0.42072502, 0.25436127, -4.37211, -1.8256531, 20.15763, 0
1512, 1433707128, -0.86856353, 0.11544082, -0.38645715, 0.28796634, -4.9033074, 2.2269928, 17.9842, 0
1516, 1433773796, -0.85383624, 0.1960805, -0.26030684, 0.4059058, -8.926699, 8.3676, 5.531006, 0
1517, 1433790463, -0.8464811, 0.20801048, -0.23898347, 0.42789197, -7.3868055, 9.997709, 2.6745644, 0
1519, 1433823797, -0.83261055, 0.22822204, -0.20879078, 0.45943877, -4.1401815, 14.482486, 1.125413, 0
1520, 1433840464, -0.8296814, 0.23716773, -0.19581364, 0.46587595, -3.5443814, 13.078, -2.380279, 0
1521, 1433857131, -0.8298778, 0.24438688, -0.18518238, 0.46614227, -4.962437, 11.693366, -2.3938088, 0
1523, 1433890465, -0.83663034, 0.24972393, -0.16728465, 0.4579377, -5.8203278, 7.7393517, -2.819827, 0
1524, 1433907132, -0.84057826, 0.25004223, -0.16038439, 0.45297578, -5.450201, 6.477804, -1.8464832, 0
1525, 1433923799, -0.84279007, 0.25136033, -0.15509404, 0.4499689, -5.1594896, 4.908141, -1.4933386, 0
1527, 1433957133, -0.8423586, 0.2515172, -0.14645083, 0.45357063, -4.638807, 2.5749466, -2.0822177, 0
1530, 1434007134, -0.83296305, 0.24577865, -0.14010866, 0.47553962, -1.5806369, 2.8883631, -2.4788346, 0
1531, 1434023801, -0.8291322, 0.24345213, -0.13887617, 0.48372248, -1.211456, 3.7656443, -1.708087, 0
1532, 1434040468, -0.8257922, 0.2415008, -0.13640621, 0.4910612, -0.73155737, 4.4083676, -1.426156, 0
1534, 1434073802, -0.82081705, 0.23950773, -0.13165475, 0.501563, -0.29248118, 3.518623, -2.772769, 0
1535, 1434090469, -0.81887174, 0.23871851, -0.12980348, 0.50558555, -0.27392587, 3.2940376, -2.9257317, 0
1536, 1434107136, -0.8174379, 0.23726799, -0.12819412, 0.508988, -0.2850116, 3.6828132, -2.8218932, 0
1538, 1434140470, -0.8161663, 0.2344956, -0.12625802, 0.5127832, -0.020205235, 4.9595904, -1.5671778, 0
1539, 1434157137, -0.8164792, 0.23348553, -0.124855034, 0.5130894, 0.22095792, 4.398047, -1.7829733, 0
1540, 1434173804, -0.81718946, 0.23221457, -0.12401243, 0.51273954, -0.2567353, 3.512344, -1.9504213, 0
1542, 1434207138, -0.81902236, 0.22735648, -0.12357529, 0.5120972, -0.10406177, 2.0889919, -1.8659267, 0
1546, 1434273806, -0.82096153, 0.21864761, -0.12637351, 0.5121016, 0.86539096, 4.3036113, -0.05996704, 0
1547, 1434290473, -0.8221399, 0.21868113, -0.12582818, 0.51032835, 0.67409015, 3.3015952, -1.7521992, 0
1548, 1434307140, -0.823666, 0.21807246, -0.12575343, 0.5081415, 0.18552363, 3.132094, -2.2314062, 0
1550, 1434340474, -0.8273206, 0.21420783, -0.1272571, 0.50345254, -0.8683025, 3.615452, -2.394548, 0
1551, 1434357141, -0.8294908, 0.21053007, -0.12825152, 0.5011752, -1.8007181, 4.119562, -2.1898098, 0
1554, 1434407142, -0.8330551, 0.1985257, -0.1323921, 0.4990817, -2.9512646, 4.122879, -4.0813212, 0
1557, 1434457143, -0.83384377, 0.1764232, -0.14172761, 0.50348383, -4.685142, 6.2687244, -3.2869387, 0
1559, 1434490477, -0.8324144, 0.16077681, -0.14829347, 0.5091654, -4.7686777, 8.0302, -5.3735714, 0
1561, 1434523811, -0.8340695, 0.14720099, -0.15923214, 0.50725555, -2.8031952, 11.851714, -8.420949, 0
1562, 1434540478, -0.8376666, 0.14343537, -0.17052205, 0.49866435, -5.1474032, 16.026337, -6.6658354, 0
1565, 1434590479, -0.8630319, 0.12144615, -0.22797883, 0.43411458, -20.544573, 19.840586, -11.913735, 0
1566, 1434607146, -0.84158975, 0.102702014, -0.31460544, 0.4268556, -59.87705, 56.81694, -5.833523, 0
1567, 1434623813, -0.8431108, 0.09703228, -0.31202412, 0.42707488, -4.411552, -4.2874317, 31.35847, 0
1569, 1434657147, -0.84959763, 0.07762724, -0.34675774, 0.3897695, 2.3338282, 7.5332155, 3.876276, 0
1570, 1434673814, -0.8488745, 0.066282265, -0.36973032, 0.37191546, 4.778903, 4.315946, 1.7772636, 0
1571, 1434690481, -0.83789396, 0.05144922, -0.40690926, 0.3601591, 2.409461, -1.6198273, -0.7836542, 0
1574, 1434740482, -0.7687441, -0.050332032, -0.5660398, 0.29342994, 6.108254, -7.8300605, 4.7366085, 0
1575, 1434757149, -0.7296341, -0.099298686, -0.63030857, 0.24594319, 9.676523, -10.626448, 12.721214, 0
1577, 1434790483, -0.6205702, -0.15292042, -0.76174355, 0.10610439, 13.118956, -49.90714, 47.71363, 0
1578, 1434807150, -0.5820646, -0.16025123, -0.790808, 0.100726984, 19.165808, -70.29872, 59.491474, 0
1581, 1434857151, -0.51733583, -0.20289792, -0.8308523, 0.029726543, 15.664738, -31.230633, 12.618732, 0
1582, 1434873818, -0.50417197, -0.23265898, -0.83159554, -0.011512909, 12.554348, -19.54363, 0.37209797, 0
1584, 1434907152, -0.47374585, -0.28895065, -0.8265497, -0.094291545, 12.375118, -32.827038, -13.067783, 0
1585, 1434923819, -0.45742926, -0.3197227, -0.82114935, -0.11938361, 9.810573, -22.956408, -20.540361, 0
1586, 1434940486, -0.44357988, -0.34493524, -0.8148833, -0.14221406, 8.860341, -15.495102, -22.650856, 0
1589, 1434990487, -0.4239901, -0.4014547, -0.7905015, -0.18487044, 1.4020989, -8.25636, -22.83226, 0
1590, 1435007154, -0.4221529, -0.41298667, -0.7849805, -0.18718368, 0.50159526, -6.511528, -22.164658, 0
1592, 1435040488, -0.42582113, -0.41776562, -0.782499, -0.17845643, 0.9876792, -3.388494, -20.248318, 0
1593, 1435057155, -0.4328186, -0.41008297, -0.78480995, -0.16904628, 2.194805, -3.0386167, -19.210545, 0
1594, 1435073822, -0.44379058, -0.39728183, -0.7881919, -0.15483469, 2.7786982, -1.7622894, -17.893517, 0
1597, 1435123823, -0.49748525, -0.33490053, -0.79449296, -0.095571995, 6.698996, 0.68830556, -14.308783, 0
1598, 1435140490, -0.52230954, -0.30930954, -0.79146075, -0.071508735, 8.750177, -1.4850912, -13.30977, 0
1600, 1435173824, -0.58864534, -0.25378364, -0.7674186, -0.012739392, 10.18406, -3.6004434, -9.203556, 0
1601, 1435190491, -0.6258327, -0.22633941, -0.74617654, 0.018100988, 8.316357, -2.2896326, -7.7389536, 0
1604, 1435240492, -0.7331738, -0.14034371, -0.656869, 0.106235676, 8.982823, -7.9560895, 3.3596125, 0
1605, 1435257159, -0.76662445, -0.10713674, -0.61937237, 0.13111012, 5.943131, -7.42712, 7.487259, 0
1606, 1435273826, -0.7960065, -0.076135114, -0.580488, 0.15366752, 2.377432, -9.251619, 10.978247, 0
1608, 1435307160, -0.8369712, -0.008016447, -0.50699574, 0.20584857, -4.975934, -10.643508, 21.067165, 0
1609, 1435323827, -0.84700716, 0.026338873, -0.4732694, 0.24063343, -8.251111, -7.9434867, 25.106602, 0
1611, 1435357161, -0.85197353, 0.092278115, -0.40819913, 0.31464693, -6.281605, 6.689468, 18.084677, 0
1612, 1435373828, -0.8516123, 0.121866725, -0.37690184, 0.34329763, -6.4313216, 10.055983, 19.098843, 0
1613, 1435390495, -0.8514861, 0.14836025, -0.34448016, 0.36646572, -7.8100686, 10.774347, 14.512028, 0
1615, 1435423829, -0.8485412, 0.19012822, -0.28338733, 0.4043809, -8.879153, 9.564393, 6.723322, 0
1616, 1435440496, -0.8440618, 0.20678926, -0.25788552, 0.4222512, -8.453095, 9.022975, 4.596183, 0
1619, 1435490497, -0.82273805, 0.2375821, -0.2001064, 0.4760434, -3.2141638, 11.616644, 1.7364054, 0
1620, 1435507164, -0.81658226, 0.24463479, -0.18407229, 0.48935437, -1.7205604, 12.367909, 0.14194393, 0
1621, 1435523831, -0.81238323, 0.2521297, -0.16955255, 0.49771395, -0.8208627, 11.950691, -2.2046905, 0
1623, 1435557165, -0.81102, 0.26636958, -0.14619823, 0.49992296, -2.0567129, 10.139897, -3.7848563, 0
1624, 1435573832, -0.8133831, 0.27155042, -0.13627198, 0.49608618, -3.1715045, 9.017953, -3.6407514, 0
1627, 1435623833, -0.8183706, 0.28352416, -0.113988675, 0.48671663, -4.9394164, 3.9726129, -3.7564516, 0
1628, 1435640500, -0.8169717, 0.28362045, -0.1092496, 0.49008587, -4.904786, 3.0167525, -3.5843167, 0
1629, 1435657167, -0.81439006, 0.28045437, -0.10527163, 0.49702626, -3.3048656, 3.084239, -4.4350777, 0
1631, 1435690501, -0.80786484, 0.27068445, -0.10144872, 0.51361036, 0.6413961, 6.29393, -3.6566877, 0
1634, 1435740502, -0.8059695, 0.26526773, -0.094610184, 0.5206709, 0.6458396, 5.8225403, -4.3109164, 0
1635, 1435757169, -0.8076497, 0.26462433, -0.093355395, 0.51861715, -0.37991253, 5.208107, -4.580459, 0
1636, 1435773836, -0.8100062, 0.26228586, -0.092939116, 0.51619905, -1.1638267, 4.6839314, -4.496118, 0
1638, 1435807170, -0.81615734, 0.25146627, -0.09498083, 0.5115014, -1.5993867, 4.872478, -3.1881113, 0
1639, 1435823837, -0.81869197, 0.24592464, -0.09659066, 0.50984126, -1.4977505, 5.0409636, -2.5940132, 0
1640, 1435840504, -0.8204948, 0.24100348, -0.09900147, 0.5088295, -0.8573093, 3.7235198, -3.3955345, 0
1643, 1435890505, -0.8271854, 0.22373658, -0.11102365, 0.5033718, -1.0349249, 3.4043245, -1.5058117, 0
1644, 1435907172, -0.83047795, 0.21818933, -0.11467481, 0.49955225, -1.5304062, 3.5126736, -0.88778687, 0
1646, 1435940506, -0.83654296, 0.21064402, -0.12041485, 0.49125174, -2.874919, 2.8153236, -2.5642686, 0
1648, 1435973840, -0.84005654, 0.20420413, -0.1288695, 0.48579985, -3.545807, 3.8115494, -2.387793, 0
1650, 1436007174, -0.84198034, 0.19636473, -0.13661236, 0.4835804, -3.949816, 6.6781044, -2.092771, 0
1651, 1436023841, -0.8431144, 0.19232863, -0.13918497, 0.48249206, -4.8827276, 8.80389, -3.263311, 0
1652, 1436040508, -0.84507704, 0.18681775, -0.14124584, 0.48062143, -5.5088015, 10.5507, -6.350596, 0
1654, 1436073842, -0.8499205, 0.17264126, -0.15563135, 0.47287652, -7.316472, 16.26474, -10.730842, 0
1655, 1436090509, -0.85235494, 0.16081941, -0.17204067, 0.46694058, -10.17772, 18.924599, -10.393765, 0
1656, 1436107176, -0.8558142, 0.14341691, -0.19463126, 0.4573133, -11.476441, 21.733746, -9.403486, 0
1659, 1436157177, -0.8618255, 0.0792895, -0.30172947, 0.39991543, -15.680832, 34.10256, -16.2706, 0
1661, 1436190511, -0.8537032, 0.08782971, -0.31926057, 0.40193605, 6.275777, -20.357872, 2.8542032, 0
1663, 1436223845, -0.8518427, 0.06694086, -0.37104487, 0.36360928, 4.447723, 3.9826925, 1.6549673, 0
1665, 1436257179, -0.8101362, 0.022827027, -0.4819205, 0.33303738, 2.2048333, -4.6329846, 1.0829668, 0
1666, 1436273846, -0.78206754, -0.015960969, -0.543795, 0.3039827, 5.617603, -8.096341, 4.72007, 0
1667, 1436290513, -0.74555147, -0.06517089, -0.61106205, 0.2578991, 7.868571, -12.861858, 12.460825, 0
1669, 1436323847, -0.65015924, -0.11916366, -0.74015933, 0.123531915, 13.762642, -53.1463, 52.410652, 0
1670, 1436340514, -0.6177804, -0.12203539, -0.7661776, 0.12817864, 8.642917, -50.783443, 62.825947, 0
1671, 1436357181, -0.58669, -0.13346767, -0.7881891, 0.12939253, 0.5808869, 26.826235, 8.269461, 0
1673, 1436390515, -0.5378241, -0.17866488, -0.821994, 0.056152865, 7.2364964, -20.230284, 11.043123, 0
1675, 1436423849, -0.48513633, -0.23034117, -0.8430153, -0.030229736, 19.448065, -32.181812, -6.221348, 0
1678, 1436473850, -0.42427203, -0.2953422, -0.8431144, -0.14807984, 11.646112, -17.991453, -26.30475, 0
1679, 1436490517, -0.41489044, -0.31223324, -0.83591723, -0.17782423, 6.369747, -14.27641, -26.87307, 0
1681, 1436523851, -0.4034469, -0.34655237, -0.81990427, -0.211877, 2.9513938, -7.803709, -24.821552, 0
1682, 1436540518, -0.40031344, -0.36078775, -0.8130011, -0.22048458, 2.4197285, -6.760213, -24.137505, 0
1683, 1436557185, -0.398647, -0.37267658, -0.80773795, -0.22305796, 2.2524755, -5.534431, -23.244934, 0
1685, 1436590519, -0.4026721, -0.38272196, -0.8031517, -0.2152428, 1.8557657, -2.234629, -20.317638, 0
1686, 1436607186, -0.4099171, -0.3797464, -0.80361754, -0.20484693, 2.0594585, -1.4650676, -19.131947, 0
1687, 1436623853, -0.42129523, -0.37121063, -0.8052318, -0.19057079, 3.0097768, -0.23063768, -17.494244, 0
1689, 1436657187, -0.45776516, -0.33903027, -0.8076465, -0.15237874, 4.991556, 1.264939, -14.829638, 0
1690, 1436673854, -0.48295274, -0.31783342, -0.8054828, -0.13014787, 6.9961176, 0.33728385, -13.9286175, 0
1693, 1436723855, -0.58925325, -0.2429606, -0.7690591, -0.04797381, 8.371308, -2.626367, -8.839689, 0
1694, 1436740522, -0.629082, -0.21662237, -0.7463062, -0.018981798, 8.451892, -4.220363, -6.0905676, 0
1696, 1436773856, -0.7052917, -0.15756786, -0.6901482, 0.03786669, 9.292102, -6.543827, -0.033093452, 0
1697, 1436790523, -0.74023134, -0.12349504, -0.6577578, 0.06452613, 7.7492414, -6.6679673, 3.791318, 0
1698, 1436807190, -0.7708827, -0.09031362, -0.62406224, 0.09017849, 5.157484, -7.636204, 6.61117, 0
1700, 1436840524, -0.81819576, -0.024047956, -0.553833, 0.15247664, 1.5701517, -12.718942, 17.600103, 0
1701, 1436857191, -0.8332881, 0.012825377, -0.5183284, 0.19184521, 0.49956933, -6.7814703, 17.10922, 0
1702, 1436873858, -0.841953, 0.05130106, -0.48684078, 0.22687481, 0.89183724, -0.97882223, 20.758184, 0
1705, 1436923859, -0.8614473, 0.13957089, -0.38141477, 0.30488336, -8.921057, 6.5431113, 19.165207, 0
1708, 1436973860, -0.8624275, 0.19791707, -0.2870493, 0.36695087, -11.1050825, 6.6737514, 7.0723896, 0
1709, 1436990527, -0.85564905, 0.21210644, -0.26390848, 0.3914468, -10.021714, 7.7587113, 5.9226, 0
1710, 1437007194, -0.84662956, 0.2226346, -0.24368744, 0.41745824, -7.365515, 9.507787, 2.839429, 0
1712, 1437040528, -0.82866925, 0.2329028, -0.21198843, 0.46273863, -3.2194467, 12.056085, -0.49932098, 0
1713, 1437057195, -0.82403433, 0.23512214, -0.19780868, 0.4759826, -2.6631913, 13.44796, -0.789135, 0
1715, 1437090529, -0.8228224, 0.2450396, -0.17387693, 0.48237783, -4.317604, 10.622469, -4.0743184, 0
1716, 1437107196, -0.8250432, 0.25001484, -0.16477953, 0.47921437, -5.2627964, 9.415737, -3.5088325, 0
1717, 1437123863, -0.8280408, 0.25443986, -0.15788375, 0.47400853, -5.0881677, 7.549154, -3.8331976, 0
1719, 1437157197, -0.83298284, 0.2584871, -0.14822862, 0.4662133, -6.27903, 3.1387002, -2.5160718, 0
1723, 1437223865, -0.8239073, 0.23983954, -0.13969636, 0.49410638, 0.32425633, 3.909879, -1.0664349, 0
1724, 1437240532, -0.8187971, 0.23859173, -0.13851123, 0.50345063, 1.4955398, 4.579135, -1.1511917, 0
1725, 1437257199, -0.81519365, 0.23913907, -0.13605611, 0.50966984, 1.9907228, 5.5566044, -1.3734283, 0
1727, 1437290533, -0.81367034, 0.24282686, -0.12860955, 0.51228684, 0.39945173, 5.502589, -2.8337955, 0
1728, 1437307200, -0.8150495, 0.24407391, -0.1248333, 0.5104325, -0.4298566, 4.4407196, -3.8802042, 0
1729, 1437323867, -0.817283, 0.24405396, -0.12240271, 0.5074509, -1.3527623, 3.9046881, -3.8989892, 0
1731, 1437357201, -0.8218083, 0.24279115, -0.120460615, 0.5011741, -2.8050141, 4.6198497, -1.6226721, 0
1732, 1437373868, -0.8232725, 0.24247207, -0.12035648, 0.4989455, -2.258486, 3.2512562, -3.0771847, 0
1733, 1437390535, -0.8246749, 0.2409368, -0.121458694, 0.49710298, -2.5174863, 2.9320278, -2.7274766, 0
1735, 1437423869, -0.8277586, 0.23418961, -0.12486275, 0.49435094, -1.8632387, 2.2151575, -1.3041391, 0
1739, 1437490537, -0.83181924, 0.22124958, -0.12865092, 0.4925212, -1.0508441, 1.9591062, -1.0521269, 0
1740, 1437507204, -0.83186764, 0.21993831, -0.12890722, 0.4929594, -1.0395992, 2.3987327, -1.5088692, 0
1742, 1437540538, -0.8319743, 0.21764332, -0.13089365, 0.4932743, -1.6181388, 3.776601, -2.7269158, 0
1743, 1437557205, -0.8322801, 0.2150719, -0.1316067, 0.4936965, -1.6606547, 4.910832, -3.2035255, 0
1744, 1437573872, -0.8321937, 0.21208926, -0.13227831, 0.4949515, -1.4595371, 5.9178953, -3.4486256, 0
1746, 1437607206, -0.8314875, 0.20363401, -0.13292459, 0.49949512, -2.4062319, 8.767899, -5.8091593, 0
1747, 1437623873, -0.8317721, 0.19983715, -0.13541639, 0.4998853, -3.085325, 12.211953, -4.8032417, 0
1748, 1437640540, -0.83328336, 0.19685376, -0.1368854, 0.49814898, -4.190922, 14.463723, -4.587774, 0
1750, 1437673874, -0.83979, 0.19283153, -0.14801824, 0.48545012, -4.7598844, 15.507697, -5.949833, 0
1752, 1437707208, -0.85022116, 0.18340437, -0.17414233, 0.46169657, -7.2015786, 12.946909, -5.3069286, 0
1755, 1437757209, -0.8517873, 0.13677952, -0.2935082, 0.4118314, -63.957672, 49.9779, -39.97414, 0
1756, 1437773876, -0.8481786, 0.11393078, -0.31332645, 0.41163296, 13.206879, 49.097202, 75.509384, 0
1758, 1437807210, -0.85118264, 0.09406038, -0.34459403, 0.38457537, -7.4134455, -2.0128114, 2.988038, 0
1759, 1437823877, -0.8480079, 0.084497415, -0.3702554, 0.36967057, 6.3472896, 3.0147321, 2.0300503, 0
1760, 1437840544, -0.8353827, 0.06841386, -0.41151732, 0.35792667, 2.4561756, -1.8448335, 0.2824583, 0
1762, 1437873878, -0.7838381, 0.0052774684, -0.53301215, 0.31854466, 5.863825, -6.28852, 5.407035, 0
1763, 1437890545, -0.7481475, -0.045787722, -0.5983341, 0.28315696, 7.75978, -8.590422, 8.566019, 0
1764, 1437907212, -0.6989387, -0.09761935, -0.66793984, 0.23625009, 9.023441, -16.332493, 15.649132, 0
1767, 1437957213, -0.5682199, -0.17693515, -0.78363067, 0.17817388, 15.803298, -19.73042, 27.436852, 0
1769, 1437990547, -0.5392995, -0.20434873, -0.8112868, 0.09599054, 16.731533, -21.62431, 17.90062, 0
1770, 1438007214, -0.536549, -0.23600449, -0.8085298, 0.05195498, 14.600367, -13.713324, 5.7144346, 0
1771, 1438023881, -0.5349076, -0.2654789, -0.80212003, -0.0010367357, 12.390985, -25.172237, 1.6744375, 0
1773, 1438057215, -0.51828945, -0.33221227, -0.7842453, -0.07728549, 2.030492, -29.094767, -16.564123, 0
1774, 1438073882, -0.5028895, -0.35728878, -0.7807098, -0.09970804, 0.43456787, -23.41859, -23.605492, 0
1775, 1438090549, -0.4870698, -0.371491, -0.78193504, -0.11548889, 0.010394917, -14.584057, -26.421207, 0
1777, 1438123883, -0.46632338, -0.37625587, -0.78921217, -0.13461347, 2.6823347, -8.969604, -24.80574, 0
1778, 1438140550, -0.4630487, -0.3733391, -0.7922792, -0.1360157, 3.5469537, -7.386093, -23.47325, 0
1779, 1438157217, -0.46466127, -0.36786297, -0.79428196, -0.13373664, 4.327498, -5.0877347, -21.960182, 0
1782, 1438207218, -0.4928051, -0.34070146, -0.79187286, -0.11834571, 5.642965, -5.5244327, -18.432652, 0
1785, 1438257219, -0.5597563, -0.29180798, -0.7724342, -0.069779396, 5.2361603, -2.6938736, -13.97734, 0
1786, 1438273886, -0.586074, -0.26952162, -0.7624418, -0.05060187, 5.0912976, -2.240043, -12.593742, 0
1787, 1438290553, -0.6131018, -0.2435165, -0.7508987, -0.030977946, 8.287976, -4.2280183, -9.600035, 0
1789, 1438323887, -0.6739175, -0.18338773, -0.71562463, 0.009386696, 13.069293, -2.8924139, -3.1199684, 0
1790, 1438340554, -0.7090617, -0.15395717, -0.68764544, 0.02598503, 10.997346, -2.1634216, 0.27019405, 0
1791, 1438357221, -0.7446797, -0.12746184, -0.65385777, 0.040968582, 8.193854, -5.139115, 3.3101969, 0
1793, 1438390555, -0.80443865, -0.06634853, -0.5848017, 0.08053633, 2.3930755, -6.024559, 5.2396765, 0
1794, 1438407222, -0.8227658, -0.027432, -0.55777633, 0.10579154, 1.4704024, -4.3834457, 8.430809, 0
1797, 1438457223, -0.85533565, 0.06465246, -0.47356847, 0.19989184, -1.3410822, -5.0718255, 20.925802, 0
1798, 1438473890, -0.86071324, 0.089787945, -0.44040197, 0.23908037, -3.1778152, -0.8985586, 19.944569, 0
1801, 1438523891, -0.86002564, 0.15858959, -0.34328574, 0.34258237, -9.997939, 5.92041, 11.792322, 0
1802, 1438540558, -0.85476875, 0.17673355, -0.31738865, 0.37067845, -9.918504, 6.563877, 7.3085823, 0
1804, 1438573892, -0.83753574, 0.20064186, -0.28052464, 0.42377502, -5.664006, 9.491977, 4.648287, 0
1805, 1438590559, -0.82780266, 0.20747495, -0.26542935, 0.4486054, -3.5836725, 12.3737, 5.937771, 0
1806, 1438607226, -0.8205814, 0.211757, -0.2495668, 0.4685338, -1.0152196, 12.990187, 1.0080118, 0
1808, 1438640560, -0.8159389, 0.22279431, -0.22274159, 0.48476297, -0.71061856, 10.957073, -2.1131673, 0
1809, 1438657227, -0.817738, 0.22704282, -0.21062222, 0.4851774, -1.0243692, 9.735741, -2.3487625, 0
1812, 1438707228, -0.8332755, 0.23807664, -0.17244548, 0.46822703, -5.315766, 5.8223233, -1.0995979, 0
1813, 1438723895, -0.83761746, 0.24136774, -0.16158213, 0.46263647, -5.9532213, 4.2029357, -2.133524, 0
1814, 1438740562, -0.8398504, 0.24309327, -0.15236573, 0.46080837, -6.0957484, 2.536805, -2.659348, 0
1817, 1438790563, -0.8372671, 0.23955715, -0.12790285, 0.474594, -4.326071, 5.1726437, -0.40819645, 0
1818, 1438807230, -0.8344675, 0.23907833, -0.11980878, 0.4818232, -3.762179, 5.1017847, -2.2849817, 0
1820, 1438840564, -0.82853055, 0.24105361, -0.10834565, 0.49365374, -2.4984667, 6.1574593, -4.48021, 0
1821, 1438857231, -0.82700706, 0.24142784, -0.10390246, 0.4969697, -2.0253866, 6.807155, -4.8754244, 0
1823, 1438890565, -0.8277237, 0.24155599, -0.096484475, 0.49720982, -3.347847, 9.1501, -4.176767, 0
1824, 1438907232, -0.8281985, 0.24371281, -0.092907116, 0.49604663, -3.6121025, 7.951393, -5.8862324, 0
1827, 1438957233, -0.8301438, 0.24239744, -0.095005594, 0.49303266, -3.4356296, 7.835752, -7.2690563, 0
1828, 1438973900, -0.83168024, 0.23871753, -0.098149315, 0.4916208, -3.5007012, 8.66862, -6.4716225, 0
1829, 1438990567, -0.83381444, 0.23424777, -0.10219569, 0.48932627, -3.590954, 9.009595, -6.230407, 0
1831, 1439023901, -0.8387737, 0.22571722, -0.113419615, 0.48233727, -4.354062, 9.516556, -7.305149, 0
1833, 1439057235, -0.8451543, 0.21469562, -0.13114318, 0.47161892, -5.356521, 12.877396, -5.833705, 0
1835, 1439090569, -0.85410374, 0.2007849, -0.15602188, 0.45370895, -7.0416913, 15.450054, -7.3887815, 0
1836, 1439107236, -0.8610834, 0.18983264, -0.17326659, 0.4387257, -8.15701, 17.16499, -9.598764, 0
1837, 1439123903, -0.8700891, 0.17418134, -0.19556217, 0.41756898, -9.8438225, 17.65115, -11.165908, 0
1839, 1439157237, -0.86302626, 0.11235995, -0.30231774, 0.3888025, -38.878616, 71.33156, 91.70383, 0
1841, 1439190571, -0.86133796, 0.092862174, -0.3452979, 0.3608949, -6.191247, 7.7243724, 13.06612, 0
1843, 1439223905, -0.8369261, 0.04080525, -0.44080353, 0.32184535, 3.8491278, -0.6195407, -0.021853447, 0
1844, 1439240572, -0.8081534, -6.27081E-4, -0.5054451, 0.3023499, 3.934639, -4.2984805, 4.0814705, 0
1845, 1439257239, -0.77370095, -0.050992332, -0.5678854, 0.2762164, 4.4336596, -5.884064, 8.014467, 0
1847, 1439290573, -0.6858044, -0.15688574, -0.6797554, 0.20735082, 8.509704, -15.50646, 12.056334, 0
1848, 1439307240, -0.63615257, -0.20009068, -0.72515446, 0.17154399, 10.748154, -37.990303, 33.41368, 0
1850, 1439340574, -0.5597492, -0.24055937, -0.76622117, 0.20425451, 4.4826202, -16.457727, 16.662022, 0
1851, 1439357241, -0.534114, -0.24757393, -0.7851911, 0.19211176, 15.786581, 6.412081, 0.533226, 0
1852, 1439373908, -0.5209208, -0.24781267, -0.8024487, 0.15267316, 16.904924, -20.490177, 7.814659, 0
1854, 1439407242, -0.52596974, -0.24860933, -0.8103786, 0.06955931, 14.065826, -15.04561, -5.8841915, 0
1856, 1439440576, -0.54866433, -0.26004335, -0.79450125, -0.010745646, 7.6889334, -16.77729, -11.703187, 0
1858, 1439473910, -0.56992763, -0.28242365, -0.7684266, -0.07030349, 3.49064, -10.760277, -16.450783, 0
1859, 1439490577, -0.577702, -0.29171565, -0.75672686, -0.09235558, 1.9340082, -11.492864, -18.278692, 0
1860, 1439507244, -0.583539, -0.29899755, -0.7477798, -0.104456335, 1.685957, -11.891271, -19.311272, 0
1863, 1439557245, -0.5984857, -0.2888852, -0.74077696, -0.098043226, 5.0759764, -6.5780396, -16.769588, 0
