sep=,
DeviceTag:,Xsens_DOT_1,,,,,,,,,,,,,,,,,
FirmwareVersion:,3.0.0,,,,,,,,,,,,,,,,,
AppVersion:,2023.6.1,,,,,,,,,,,,,,,,,
SyncStatus:,Synced,,,,,,,,,,,,,,,,,
OutputRate:,60Hz,,,,,,,,,,,,,,,,,
FilterProfile:,General,,,,,,,,,,,,,,,,,
Measurement Mode:,Sensor fusion Mode - Extended (Quaternion),,,,,,,,,,,,,,,,,
StartTime:,2025-05-05 11:30:15.488 +0200,,,,,,,,,,,,,,,,,
 2025,,,,,,,,,,,,,,,,,,,

PacketCounter,SampleTimeFine,Quat_W,Quat_X,Quat_Y,Quat_Z,FreeAcc_X,FreeAcc_Y,FreeAcc_Z,Status
1, 1408506624, 0.1368314, -0.14641494, 0.09975081, 0.9746458, -0.08466545, 0.03747731, 0.36742306, 0
2, 1408523291, 0.13686314, -0.14642416, 0.09993898, 0.97462076, -0.062215615, 0.076592416, 0.35978985, 0
3, 1408539958, 0.13685402, -0.14645457, 0.100162536, 0.97459453, -0.022812458, 0.06526187, 0.37291622, 0
4, 1408556625, 0.13683102, -0.14646779, 0.10040616, 0.97457075, -0.026271293, 0.08512301, 0.422431, 0
5, 1408573292, 0.13681957, -0.14648344, 0.10066795, 0.97454286, -0.045480862, 0.039695565, 0.34724808, 0
6, 1408589959, 0.13682702, -0.14648144, 0.100934915, 0.9745146, -0.048097752, 0.033884004, 0.3214655, 0
7, 1408606626, 0.13681775, -0.14646067, 0.10123107, 0.9744884, -0.08988179, 0.028002262, 0.3725109, 0
8, 1408623293, 0.13681534, -0.14645992, 0.10155928, 0.9744545, -0.08712834, 0.010366308, 0.42783737, 0
9, 1408639960, 0.13681367, -0.14649002, 0.1018904, 0.9744158, -0.056105327, 0.00647897, 0.43393898, 0
10, 1408656627, 0.13679305, -0.14652401, 0.10222765, 0.9743781, 0.019556712, 0.0132264905, 0.34934616, 0
11, 1408673294, 0.13676387, -0.1465402, 0.102563776, 0.9743445, 0.02747695, 0.0020425732, 0.35689068, 0
12, 1408689961, 0.1367425, -0.1465279, 0.10287972, 0.974316, -0.01731485, -0.029376978, 0.39058876, 0
13, 1408706628, 0.13676184, -0.14651108, 0.10317855, 0.9742843, -0.03426071, -0.04815285, 0.38733864, 0
14, 1408723295, 0.13671497, -0.14651267, 0.103465244, 0.97426033, 0.007512019, -0.022117613, 0.39227962, 0
15, 1408739962, 0.13671985, -0.1465171, 0.10375268, 0.97422826, 0.022153487, -0.035862096, 0.3899107, 0
16, 1408756629, 0.13673708, -0.14650883, 0.10399959, 0.97420084, 0.021993088, -0.029462583, 0.34547806, 0
17, 1408773296, 0.13676411, -0.14648515, 0.104195744, 0.9741796, 0.03242467, -0.05587008, 0.35205555, 0
18, 1408789963, 0.13680974, -0.1464764, 0.104358114, 0.97415704, 0.03514898, -0.091471784, 0.372221, 0
19, 1408806630, 0.1368334, -0.14647153, 0.10450201, 0.9741391, 0.014968942, -0.05570412, 0.4085722, 0
20, 1408823297, 0.13687956, -0.14646389, 0.10462031, 0.97412103, 0.015156777, -0.060176954, 0.39823437, 0
21, 1408839964, 0.13694334, -0.14645576, 0.10473001, 0.97410154, 0.0331539, -0.094172604, 0.3526926, 0
22, 1408856631, 0.13696414, -0.14645456, 0.104813464, 0.9740898, 0.041206654, -0.07540411, 0.36504745, 0
23, 1408873298, 0.13698325, -0.14645156, 0.10486831, 0.97408164, 0.047116864, -0.10670754, 0.3876562, 0
24, 1408889965, 0.1370148, -0.146446, 0.104897946, 0.97407484, 0.048885804, -0.09804988, 0.42341614, 0
25, 1408906632, 0.13703766, -0.14643991, 0.1049124, 0.974071, 0.0397137, -0.0830402, 0.42102432, 0
26, 1408923299, 0.13705382, -0.14645672, 0.104916, 0.9740659, 0.0145561695, -0.11096871, 0.37215614, 0
27, 1408939966, 0.13708544, -0.14647155, 0.10491021, 0.9740598, 0.022440532, -0.08920402, 0.3798132, 0
28, 1408956633, 0.13709676, -0.14646064, 0.10485474, 0.9740658, 0.054381624, -0.06308776, 0.36933994, 0
29, 1408973300, 0.13709602, -0.14644696, 0.10478379, 0.97407556, 0.063831665, -0.041350678, 0.3415165, 0
30, 1408989967, 0.13710219, -0.14643086, 0.104699396, 0.9740862, 0.02631935, -0.017824152, 0.39863682, 0
31, 1409006634, 0.13709885, -0.14641798, 0.104584396, 0.97410095, -0.012449811, -0.033463467, 0.43368435, 0
32, 1409023301, 0.13711187, -0.14643614, 0.10445736, 0.97411, -0.017507406, -0.00815107, 0.40070152, 0
33, 1409039968, 0.13712916, -0.1464362, 0.10431579, 0.97412276, -0.0013691286, -0.0111463675, 0.3692665, 0
34, 1409056635, 0.13716361, -0.1464407, 0.10416267, 0.9741336, 0.02309495, -0.029953083, 0.37862015, 0
35, 1409073302, 0.13718602, -0.14644367, 0.10398757, 0.97414875, 0.013952014, 0.01714199, 0.36400318, 0
36, 1409089969, 0.13720396, -0.146429, 0.10378133, 0.9741704, -0.0063457564, -0.0020594483, 0.3939972, 0
37, 1409106636, 0.13722152, -0.14641353, 0.10355054, 0.9741948, 0.0025352237, 0.009268411, 0.40694904, 0
38, 1409123303, 0.13722005, -0.14642069, 0.10331018, 0.9742195, -0.008059849, 8.2263944E-4, 0.42272472, 0
39, 1409139970, 0.13723397, -0.14643162, 0.1030616, 0.9742422, -0.03137521, -0.02529619, 0.36602688, 0
40, 1409156637, 0.13729468, -0.14642876, 0.10282226, 0.9742593, -0.04387498, -0.0021398014, 0.38109207, 0
41, 1409173304, 0.13729331, -0.14640754, 0.10256231, 0.97429013, -0.0054505393, 0.027017407, 0.37691593, 0
42, 1409189971, 0.13733235, -0.14638193, 0.10232593, 0.97431344, -0.0040799775, 0.01987332, 0.37424946, 0
43, 1409206638, 0.13735688, -0.14639486, 0.10209812, 0.9743319, -0.039764322, -0.012738003, 0.41341972, 0
44, 1409223305, 0.13740715, -0.1464141, 0.1018784, 0.9743449, -0.065960266, -0.048137873, 0.37502956, 0
45, 1409239972, 0.13743651, -0.1464518, 0.10166108, 0.9743578, -0.037279166, -0.027509416, 0.3612404, 0
46, 1409256639, 0.1374788, -0.14645272, 0.10141808, 0.97437704, -0.003848055, -0.03207366, 0.34443283, 0
47, 1409273306, 0.13752726, -0.14647087, 0.10119171, 0.9743909, 0.020464791, -0.035378523, 0.38782024, 0
48, 1409289973, 0.13757738, -0.14647669, 0.10096937, 0.9744061, -0.017309764, -0.033550635, 0.41935062, 0
50, 1409323307, 0.13769382, -0.1465444, 0.10057713, 0.97441995, -0.06337503, -0.09567003, 0.3970585, 0
51, 1409339974, 0.13777307, -0.14656621, 0.100402184, 0.9744236, -0.05027083, -0.10549275, 0.35830402, 0
54, 1409389975, 0.13790703, -0.14651951, 0.09984696, 0.9744687, 0.022466991, -0.051062316, 0.4760456, 0
55, 1409406642, 0.13790953, -0.1464912, 0.0996708, 0.97449064, 0.019026624, -0.062345587, 0.42766094, 0
56, 1409423309, 0.13794696, -0.14647432, 0.09946507, 0.9745089, -0.02801369, -0.07626855, 0.34720516, 0
59, 1409473310, 0.13812858, -0.14636037, 0.098731965, 0.9745749, -0.0012623733, -0.013906306, 0.40692806, 0
60, 1409489977, 0.1382106, -0.14640434, 0.09851457, 0.9745786, -0.009715578, -0.048983756, 0.3906889, 0
62, 1409523311, 0.1383478, -0.14658713, 0.09813285, 0.97457016, -0.011224457, -0.096274406, 0.34078026, 0
63, 1409539978, 0.13840431, -0.14665298, 0.097990476, 0.9745666, -0.009302414, -0.08409664, 0.3442955, 0
66, 1409589979, 0.13841528, -0.14680219, 0.09783739, 0.9745578, -0.08595316, -0.08663552, 0.40818882, 0
67, 1409606646, 0.13837585, -0.14689434, 0.09786023, 0.97454727, -0.11673341, -0.1151313, 0.41736698, 0
68, 1409623313, 0.13835591, -0.14700025, 0.09788439, 0.9745317, -0.061682284, -0.13364767, 0.44574928, 0
71, 1409673314, 0.13840178, -0.14732997, 0.097910866, 0.9744728, 0.06349017, -0.09698853, 0.40063286, 0
73, 1409706648, 0.13846317, -0.1473572, 0.09786881, 0.9744642, -0.06878075, -0.11704356, 0.37474155, 0
74, 1409723315, 0.13849384, -0.14733413, 0.0978615, 0.97446406, -0.099427305, -0.10113257, 0.3605175, 0
75, 1409739982, 0.13852778, -0.14729998, 0.09787543, 0.974463, -0.0706178, -0.058307156, 0.39261055, 0
77, 1409773316, 0.13855377, -0.14731026, 0.09798643, 0.97444654, 0.0035094328, -0.056491446, 0.4183073, 0
78, 1409789983, 0.13858306, -0.14732105, 0.09803228, 0.97443616, -0.012515524, -0.08959651, 0.33101082, 0
79, 1409806650, 0.138686, -0.14732033, 0.098063774, 0.97441846, -0.012403572, -0.071885005, 0.34740067, 0
81, 1409839984, 0.13876882, -0.1472591, 0.09809975, 0.9744123, 0.033012137, 0.0024933987, 0.39618683, 0
82, 1409856651, 0.13876262, -0.14726079, 0.098159045, 0.97440696, 5.949915E-4, -0.013807848, 0.40664864, 0
83, 1409873318, 0.138785, -0.14727502, 0.09823814, 0.9743936, -0.04504208, -0.030897537, 0.38229465, 0
86, 1409923319, 0.13878292, -0.14736491, 0.09855135, 0.9743488, 0.020953277, 0.082834125, 0.37579632, 0
87, 1409939986, 0.13876373, -0.14741918, 0.098675, 0.9743308, 0.055275228, 0.07342568, 0.41933537, 0
89, 1409973320, 0.1387701, -0.14752772, 0.09881909, 0.9742987, 0.032052126, 0.022895405, 0.33413696, 0
90, 1409989987, 0.13880223, -0.14757068, 0.0988251, 0.97428715, 0.01888598, 0.030374516, 0.34719563, 0
91, 1410006654, 0.13882786, -0.14759159, 0.09879437, 0.97428334, -0.0020583589, 0.09707123, 0.37675953, 0
93, 1410039988, 0.13886547, -0.14765808, 0.09868217, 0.97427934, 0.010976386, 0.062375538, 0.42719078, 0
94, 1410056655, 0.13888374, -0.14772317, 0.09860255, 0.97427493, -0.01938201, 0.03162295, 0.39291286, 0
95, 1410073322, 0.13891873, -0.1477989, 0.098496474, 0.97426915, 0.006619308, 0.0053231847, 0.3619213, 0
97, 1410106656, 0.13901421, -0.14784388, 0.09812793, 0.9742859, -0.03137563, -0.050462298, 0.3655672, 0
98, 1410123323, 0.13903728, -0.14782773, 0.097886994, 0.9743093, -0.023661612, -0.0089921495, 0.4283762, 0
100, 1410156657, 0.13918322, -0.14780234, 0.09737964, 0.9743432, 0.048938468, -0.05258254, 0.42627716, 0
101, 1410173324, 0.13923892, -0.14782736, 0.09711528, 0.9743578, 0.021421537, -0.099636376, 0.40049362, 0
102, 1410189991, 0.13934153, -0.1478582, 0.096858524, 0.97436404, 6.22316E-4, -0.108839184, 0.36977863, 0
104, 1410223325, 0.13952208, -0.14793967, 0.09635094, 0.9743762, -0.024106879, -0.13449389, 0.42623615, 0
105, 1410239992, 0.13956037, -0.14798275, 0.09609941, 0.9743889, -0.01469743, -0.16064066, 0.36628628, 0
106, 1410256659, 0.13963571, -0.14802667, 0.09586908, 0.97439426, 0.060045164, -0.12201237, 0.32375717, 0
108, 1410289993, 0.13967347, -0.14806741, 0.09542233, 0.9744265, 0.027497234, -0.11616181, 0.38367844, 0
109, 1410306660, 0.13973668, -0.14808154, 0.0952376, 0.9744334, -0.050156, -0.119757794, 0.33856297, 0
110, 1410323327, 0.13977376, -0.14813334, 0.09507295, 0.9744362, -0.06966941, -0.14636533, 0.37496758, 0
113, 1410373328, 0.1398122, -0.14833692, 0.09482179, 0.97442424, -0.010508082, 0.031468622, 0.44920826, 0
114, 1410389995, 0.13976571, -0.14841798, 0.09483124, 0.97441745, 0.02380385, 0.09121765, 0.4198742, 0
116, 1410423329, 0.1396099, -0.14858977, 0.09484494, 0.9744123, -0.0036776823, 0.010128378, 0.3612156, 0
118, 1410456663, 0.13959214, -0.14870645, 0.09475193, 0.97440624, -0.08941544, 0.009194876, 0.39835358, 0
120, 1410489997, 0.13955933, -0.14874849, 0.09470172, 0.97440934, -0.09705349, 0.04981668, 0.34749317, 0
121, 1410506664, 0.1395711, -0.14872487, 0.09470178, 0.9744113, -0.10153461, 0.07447172, 0.37857914, 0
122, 1410523331, 0.13957492, -0.14872961, 0.094751365, 0.97440517, -0.035716895, 0.13566923, 0.46122646, 0
124, 1410556665, 0.13961396, -0.14883825, 0.0950044, 0.9743583, -0.12303106, -0.105629206, 0.36526012, 0
127, 1410606666, 0.13992983, -0.14870158, 0.095252395, 0.97430974, 0.041208386, -0.30750683, 0.4206047, 0
128, 1410623333, 0.14004388, -0.14859891, 0.095339805, 0.9743005, -0.052875258, -0.1832129, 0.46552372, 0
131, 1410673334, 0.1399411, -0.14849709, 0.096303046, 0.974236, -0.009884553, -0.20487154, 0.29469013, 0
132, 1410690001, 0.13985461, -0.14849892, 0.09673121, 0.9742057, -0.10248614, -0.21988422, 0.25943375, 0
133, 1410706668, 0.13983175, -0.14843729, 0.09709293, 0.97418255, -0.06553492, -0.11320473, 0.29827785, 0
135, 1410740002, 0.13971013, -0.14841542, 0.097850055, 0.9741274, -0.016170297, 0.0644095, 0.35656643, 0
136, 1410756669, 0.13966951, -0.14844011, 0.09827917, 0.9740863, 0.008088962, 0.09862498, 0.32026386, 0
137, 1410773336, 0.1396634, -0.14848074, 0.09869808, 0.9740386, 0.13692783, 0.14821428, 0.26363087, 0
139, 1410806670, 0.13962546, -0.1486263, 0.099458754, 0.97394454, 0.10031577, 0.1437443, 0.37933826, 0
140, 1410823337, 0.13968733, -0.14870277, 0.09972786, 0.9738964, 0.004868224, 0.11409677, 0.46811485, 0
141, 1410840004, 0.1398153, -0.14875008, 0.09985176, 0.9738581, 0.04486721, -0.02282369, 0.41421413, 0
143, 1410873338, 0.1400275, -0.14880571, 0.09980726, 0.9738238, 0.08263003, -0.054852985, 0.41701317, 0
147, 1410940006, 0.14032865, -0.14850599, 0.098618805, 0.9739471, 0.026267437, -0.12128908, 0.4019804, 0
148, 1410956673, 0.14038938, -0.14847831, 0.09827222, 0.9739777, -0.036467705, -0.064999916, 0.4554844, 0
151, 1411006674, 0.14047053, -0.14845106, 0.09721853, 0.9740759, 0.096473865, -0.15309106, 0.37200928, 0
152, 1411023341, 0.14052019, -0.14844117, 0.096789375, 0.974113, 0.08587239, -0.11953149, 0.37621784, 0
154, 1411056675, 0.1406574, -0.14834465, 0.0959347, 0.9741924, -0.040887307, -0.0729087, 0.3268261, 0
155, 1411073342, 0.14075989, -0.14838186, 0.095568836, 0.974208, -0.10561624, -0.13819829, 0.38392448, 0
156, 1411090009, 0.14083192, -0.14847556, 0.09525804, 0.97421384, -0.05152024, -0.13763224, 0.42221928, 0
158, 1411123343, 0.14092672, -0.14862047, 0.09481263, 0.97422135, 0.06251864, -0.14583337, 0.3877058, 0
159, 1411140010, 0.14093915, -0.14865851, 0.09464876, 0.97422963, -0.03265957, -0.15454423, 0.35216236, 0
160, 1411156677, 0.1409367, -0.14864276, 0.09450744, 0.974246, -0.11837246, -0.1116008, 0.399724, 0
163, 1411206678, 0.14083013, -0.14862035, 0.09433471, 0.9742816, -0.033968017, -0.04100848, 0.40481758, 0
166, 1411256679, 0.14087299, -0.14867446, 0.09414497, 0.97428554, 0.030765971, 0.02352541, 0.40521145, 0
167, 1411273346, 0.14092356, -0.14861967, 0.0940222, 0.9742985, -0.004835256, 0.030010637, 0.44839764, 0
168, 1411290013, 0.14098781, -0.14860414, 0.09389764, 0.9743036, -0.039330233, 0.014188379, 0.41746616, 0
170, 1411323347, 0.14110965, -0.14858152, 0.09371218, 0.9743072, -0.0715387, -0.04383659, 0.33860302, 0
171, 1411340014, 0.14114341, -0.14858422, 0.09364462, 0.9743084, -0.07295318, -0.024726568, 0.3832264, 0
172, 1411356681, 0.14119187, -0.14863335, 0.093619674, 0.9742962, -0.0027435657, -0.054363158, 0.38972855, 0
174, 1411390015, 0.14128506, -0.14875455, 0.09366056, 0.97426033, 0.018249637, -0.08125411, 0.32949066, 0
175, 1411406682, 0.14136156, -0.14877835, 0.09368764, 0.97424304, 0.01832988, -0.093284585, 0.34181976, 0
177, 1411440016, 0.14145148, -0.14883995, 0.093702555, 0.97421914, 0.045125004, -0.026083626, 0.46607208, 0
179, 1411473350, 0.14158699, -0.14896095, 0.09381931, 0.9741697, -0.037877455, -0.11022497, 0.31547546, 0
181, 1411506684, 0.14171457, -0.1492426, 0.09403406, 0.97408736, -0.007286858, -0.15041281, 0.46406555, 0
183, 1411540018, 0.14177167, -0.14950499, 0.094321296, 0.97401094, 0.044176135, -0.10800336, 0.38423347, 0
185, 1411573352, 0.1416789, -0.14958744, 0.09461269, 0.97398365, -0.07002082, -0.03256299, 0.40286732, 0
186, 1411590019, 0.14164236, -0.14963467, 0.09477566, 0.97396576, -0.0902264, -0.003085708, 0.3924036, 0
189, 1411640020, 0.14160052, -0.14989875, 0.09536174, 0.9738741, 0.04191519, -0.024495678, 0.30447865, 0
190, 1411656687, 0.14161384, -0.14994508, 0.09558463, 0.9738432, 0.029894607, 0.052163117, 0.32745552, 0
191, 1411673354, 0.14163959, -0.14997728, 0.09578276, 0.97381496, -0.06633412, 0.06302797, 0.32278156, 0
193, 1411706688, 0.14169359, -0.15004808, 0.09620269, 0.9737549, -0.09012389, 0.055480164, 0.3531494, 0
195, 1411740022, 0.1417821, -0.15019885, 0.09663669, 0.9736757, 0.02063832, 0.032364007, 0.4979391, 0
197, 1411773356, 0.14187497, -0.15038191, 0.09706601, 0.9735912, 0.08295759, 0.011519746, 0.37482166, 0
198, 1411790023, 0.14184761, -0.15041514, 0.09725171, 0.9735716, -0.036159366, -0.017541632, 0.37486935, 0
199, 1411806690, 0.14184764, -0.15039653, 0.097406924, 0.9735589, -0.11745187, -0.045739356, 0.42472172, 0
201, 1411840024, 0.14194164, -0.15044446, 0.097664684, 0.97351193, -0.0123941, 0.009418389, 0.40613747, 0
202, 1411856691, 0.14201164, -0.15045822, 0.09774476, 0.97349155, -0.0026647216, 0.037666738, 0.36279964, 0
203, 1411873358, 0.14210418, -0.15046492, 0.097784445, 0.9734731, 0.05730411, 0.0033643171, 0.40332222, 0
205, 1411906692, 0.14226997, -0.15044042, 0.09781833, 0.97344923, 0.07052287, 0.01944708, 0.3494444, 0
206, 1411923359, 0.14235964, -0.15039964, 0.09781426, 0.97344285, 0.009637431, -0.020811291, 0.36700535, 0
208, 1411956693, 0.14247984, -0.15039626, 0.09777963, 0.9734293, -0.01258973, -0.057959255, 0.43825722, 0
210, 1411990027, 0.1425643, -0.15050375, 0.09777078, 0.9734012, 0.031744204, -0.15794353, 0.318285, 0
212, 1412023361, 0.14262459, -0.15052676, 0.09773356, 0.9733925, 0.022369903, -0.13017708, 0.37877655, 0
213, 1412040028, 0.14264846, -0.15055883, 0.097711645, 0.97338617, -0.0042705503, -0.12194386, 0.44081497, 0
214, 1412056695, 0.14264399, -0.1506088, 0.09769362, 0.973381, 0.011586716, -0.13791342, 0.41060257, 0
216, 1412090029, 0.14271954, -0.1508009, 0.09759745, 0.9733499, 0.07616185, -0.1442432, 0.41628838, 0
217, 1412106696, 0.14276406, -0.15086122, 0.09751058, 0.97334266, 0.082847595, -0.13959837, 0.33527756, 0
218, 1412123363, 0.14277264, -0.15087596, 0.09739573, 0.9733506, 0.059219506, -0.12817496, 0.35141754, 0
220, 1412156697, 0.1427854, -0.15078849, 0.0970861, 0.9733932, -0.028331077, -0.053401157, 0.35750294, 0
221, 1412173364, 0.14278954, -0.15077981, 0.09688826, 0.9734136, -0.003212049, -0.05788807, 0.3682928, 0
222, 1412190031, 0.14287457, -0.150824, 0.09666216, 0.9734168, -0.009979378, -0.030816402, 0.43708324, 0
225, 1412240032, 0.14316574, -0.15110287, 0.095908314, 0.97340536, 0.0054768217, -0.0063111116, 0.34993935, 0
226, 1412256699, 0.14328882, -0.15121281, 0.09561331, 0.9733992, 0.004445812, -0.05708521, 0.35161304, 0
228, 1412290033, 0.14366278, -0.15152007, 0.095050424, 0.97335136, -0.1023118, -0.05735253, 0.42451763, 0
229, 1412306700, 0.14380854, -0.15174481, 0.09492658, 0.9733069, -0.25979647, -0.16390999, 0.38617706, 0
230, 1412323367, 0.14391589, -0.15197429, 0.09485294, 0.97326255, -0.31773353, -0.1920022, 0.41122818, 0
232, 1412356701, 0.1441727, -0.15245071, 0.09484434, 0.9731508, 0.094409585, -0.15113845, 0.32778072, 0
233, 1412373368, 0.14425549, -0.15257943, 0.09489502, 0.9731134, 0.13213304, -0.10534092, 0.43918514, 0
235, 1412406702, 0.14446425, -0.1527942, 0.094801515, 0.9730578, 0.24605586, -0.1333656, 0.36681175, 0
236, 1412423369, 0.14455342, -0.15286958, 0.094732486, 0.9730395, 0.21405704, -0.011764493, 0.34181213, 0
237, 1412440036, 0.14456591, -0.15276726, 0.094664946, 0.97306025, 0.04934127, -0.05814611, 0.2649994, 0
240, 1412490037, 0.14454418, -0.15237904, 0.09475835, 0.97311527, -0.18601592, 0.095472105, 0.41482067, 0
241, 1412506704, 0.14449129, -0.1524317, 0.094896816, 0.9731013, -0.07147455, 0.19936271, 0.42314053, 0
243, 1412540038, 0.14453718, -0.15241517, 0.09504943, 0.9730823, 0.17699887, 0.29130054, 0.33094406, 0
244, 1412556705, 0.14455995, -0.15229261, 0.09503528, 0.97309947, 0.2010927, 0.4186076, 0.30775452, 0
245, 1412573372, 0.14455724, -0.15209053, 0.094934404, 0.97314143, 0.099405624, 0.4470647, 0.34968948, 0
247, 1412606706, 0.14468041, -0.1518573, 0.09451912, 0.97319996, -0.011181571, 0.21159458, 0.3233862, 0
248, 1412623373, 0.14478186, -0.15195566, 0.094324976, 0.9731883, -0.15396349, 0.21015626, 0.4719696, 0
249, 1412640040, 0.14490443, -0.15207162, 0.09416722, 0.97316724, -0.17444639, 0.015301362, 0.38869953, 0
251, 1412673374, 0.14512086, -0.152494, 0.09413296, 0.97307223, -0.32917914, -0.23377052, 0.4093666, 0
252, 1412690041, 0.14512104, -0.15271556, 0.09426369, 0.97302485, -0.07055804, -0.38325784, 0.65106773, 0
253, 1412706708, 0.14509913, -0.15296267, 0.09445249, 0.9729709, 0.31307244, -0.533359, 0.6271858, 0
255, 1412740042, 0.14548513, -0.15382001, 0.09478989, 0.97274524, 0.47116023, -0.91170716, 0.18998814, 0
256, 1412756709, 0.1457107, -0.15397578, 0.09477485, 0.97268826, 0.07756215, -0.83894706, 0.46788502, 0
257, 1412773376, 0.14579907, -0.15387529, 0.09466024, 0.9727021, -0.21103014, -0.9917144, 0.45472813, 0
259, 1412806710, 0.14568037, -0.15386723, 0.09485456, 0.97270226, -0.13909952, -0.7839473, 0.5257492, 0
260, 1412823377, 0.14559317, -0.15389895, 0.09508629, 0.9726877, 0.10468064, -0.77409035, 0.44080734, 0
262, 1412856711, 0.14535472, -0.15384683, 0.09565571, 0.9726758, 0.12823768, -0.6062113, 0.43749237, 0
263, 1412873378, 0.14520389, -0.15354365, 0.09581776, 0.9727302, 0.13909759, -0.51434386, 0.30080986, 0
264, 1412890045, 0.14501414, -0.1530217, 0.09596982, 0.9728259, -0.02487023, -0.24715358, 0.27167702, 0
267, 1412940046, 0.14417312, -0.15176165, 0.09645505, 0.97310007, 0.24355061, 0.30213788, -0.14084148, 0
268, 1412956713, 0.14405718, -0.15228786, 0.09706792, 0.9729742, 0.187974, 0.5748161, 0.36635113, 0
270, 1412990047, 0.1438371, -0.15317526, 0.09845476, 0.9727281, -0.2557301, 0.10741507, 0.20423412, 0
271, 1413006714, 0.1437509, -0.15347005, 0.09908232, 0.9726305, 0.035780456, -0.06135386, 0.32638264, 0
272, 1413023381, 0.14366841, -0.15381803, 0.09972972, 0.97252166, 0.07408354, -0.27360606, 0.30416965, 0
274, 1413056715, 0.14380425, -0.15451515, 0.10079474, 0.9722812, -0.12815772, -0.13134828, 0.4269991, 0
275, 1413073382, 0.14384237, -0.154634, 0.10121982, 0.97221243, 0.07378386, -0.097871184, 0.49020386, 0
276, 1413090049, 0.14377853, -0.1546367, 0.10163094, 0.9721787, 0.009363991, -0.19499393, 0.3905239, 0
278, 1413123383, 0.14380458, -0.1543659, 0.102306575, 0.972147, -0.04802145, 0.1498318, 0.47923183, 0
279, 1413140050, 0.14378619, -0.15402976, 0.10264495, 0.9721673, 0.12496137, 0.33591595, 0.43327618, 0
282, 1413190051, 0.14338976, -0.1535008, 0.103705615, 0.97219706, -0.115665354, 0.6208214, 0.5120573, 0
283, 1413206718, 0.14322284, -0.15351467, 0.10407707, 0.97217965, 0.08060115, 0.6597948, 0.40429974, 0
284, 1413223385, 0.14304751, -0.1535371, 0.10443045, 0.97216403, -0.014466625, 0.6393333, 0.24291039, 0
286, 1413256719, 0.14287108, -0.15366831, 0.10497451, 0.9721108, -0.06863963, 0.7527411, 0.39205837, 0
287, 1413273386, 0.14280409, -0.15363199, 0.105137594, 0.97210866, 0.012924134, 0.7793652, 0.40833187, 0
289, 1413306720, 0.14274877, -0.1536812, 0.105393976, 0.9720812, -0.17605244, 0.5915549, 0.36712742, 0
290, 1413323387, 0.14286196, -0.15378794, 0.105446965, 0.97204196, -0.1295639, 0.48898354, 0.37478638, 0
291, 1413340054, 0.14300582, -0.15382728, 0.10542701, 0.9720167, 0.04288546, 0.4366911, 0.43053627, 0
293, 1413373388, 0.14329913, -0.15377097, 0.105298035, 0.97199655, -0.04109565, 0.25872552, 0.38274765, 0
294, 1413390055, 0.14347336, -0.15364906, 0.10515544, 0.9720054, -0.012357584, 0.25166228, 0.4148941, 0
297, 1413440056, 0.14389694, -0.15327945, 0.104549706, 0.97206664, -0.05972836, 0.004772113, 0.40710354, 0
298, 1413456723, 0.1440899, -0.15319145, 0.104291536, 0.9720795, -0.039321236, -0.09255023, 0.30895615, 0
299, 1413473390, 0.14426449, -0.15308423, 0.10404183, 0.97209734, 0.030066656, -0.07415288, 0.44633675, 0
301, 1413506724, 0.14455318, -0.15288585, 0.10358099, 0.9721349, -0.010268688, -0.120217115, 0.43933296, 0
302, 1413523391, 0.1447455, -0.15285482, 0.1034108, 0.9721292, 0.039534442, -0.10965244, 0.499238, 0
303, 1413540058, 0.1449166, -0.15282845, 0.10332857, 0.9721166, 0.045323677, -0.20386069, 0.32040024, 0
305, 1413573392, 0.14503628, -0.1527647, 0.10315415, 0.9721274, -0.028483005, -0.2654437, 0.32831, 0
306, 1413590059, 0.1450639, -0.15267211, 0.10304377, 0.9721495, 0.0531853, -0.29035747, 0.41088295, 0
307, 1413606726, 0.14509407, -0.15256605, 0.10286616, 0.97218037, 0.15785444, -0.3463157, 0.37092495, 0
309, 1413640060, 0.14501143, -0.15246294, 0.102568254, 0.97224045, 0.09438826, -0.34631544, 0.40915775, 0
311, 1413673394, 0.1449104, -0.15227999, 0.10224372, 0.97231835, 0.0018087507, -0.41697302, 0.3565731, 0
313, 1413706728, 0.14476448, -0.15220504, 0.10194261, 0.97238344, 0.0171649, -0.40284556, 0.37548637, 0
314, 1413723395, 0.14471525, -0.15220617, 0.1018086, 0.9724047, 0.11350603, -0.38264942, 0.40149784, 0
316, 1413756729, 0.14455849, -0.15213045, 0.10151822, 0.9724701, 0.04084107, -0.30983138, 0.3194151, 0
317, 1413773396, 0.1444796, -0.15201949, 0.101303294, 0.97252166, -0.06372298, -0.28643587, 0.33743, 0
318, 1413790063, 0.14440015, -0.15186806, 0.10105789, 0.97258264, -0.009232426, -0.21755265, 0.35446835, 0
320, 1413823397, 0.14436632, -0.15165877, 0.10061099, 0.9726666, 0.021396365, -0.11984709, 0.4056425, 0
321, 1413840064, 0.14437047, -0.15167587, 0.100438446, 0.97268116, -0.041514404, -0.11707754, 0.41988277, 0
322, 1413856731, 0.1444017, -0.15169248, 0.10024515, 0.9726939, 0.005052231, -0.08200679, 0.40996075, 0
324, 1413890065, 0.14439571, -0.1516316, 0.099823244, 0.9727477, 0.06616294, -0.06610463, 0.32705498, 0
325, 1413906732, 0.14439562, -0.15158397, 0.09961459, 0.9727765, -0.0154956225, -0.03377929, 0.39323997, 0
326, 1413923399, 0.1444045, -0.15149978, 0.09937693, 0.97281253, -0.063827254, -0.007965219, 0.4330902, 0
328, 1413956733, 0.14435628, -0.1514755, 0.098991625, 0.9728627, -0.008782411, -0.03176555, 0.44167233, 0
329, 1413973400, 0.14434516, -0.15148987, 0.0988019, 0.97288144, -0.00844493, 0.007616082, 0.37919235, 0
330, 1413990067, 0.14438754, -0.15151927, 0.0986218, 0.97288895, 0.03734773, -0.016368302, 0.3467493, 0
332, 1414023401, 0.14441928, -0.15153009, 0.0982786, 0.97291726, -0.071498945, 0.006011269, 0.35641384, 0
333, 1414040068, 0.14443892, -0.15148424, 0.09809087, 0.9729404, -0.06351386, 0.0048780586, 0.3717413, 0
334, 1414056735, 0.14445454, -0.15132941, 0.09777498, 0.97299397, 0.14746234, 0.11662325, 0.24434566, 0
336, 1414090069, 0.1444757, -0.15097432, 0.0972558, 0.97309816, -0.263057, 0.19892608, 0.5804205, 0
338, 1414123403, 0.14478028, -0.15134272, 0.0969245, 0.9730286, -0.08249576, -0.11305375, 0.45552158, 0
340, 1414156737, 0.14531875, -0.15243214, 0.09691338, 0.9727794, 0.3258212, -0.67240465, 0.021512985, 0
341, 1414173404, 0.14574277, -0.15291408, 0.096817374, 0.97264993, 0.25289333, -0.8477263, 0.3789816, 0
343, 1414206738, 0.14636153, -0.15343921, 0.096477345, 0.9725081, 0.023902727, -0.81220484, 0.5572252, 0
344, 1414223405, 0.14643526, -0.1535613, 0.0963739, 0.9724879, -0.028108124, -0.7557611, 0.5665064, 0
345, 1414240072, 0.14648518, -0.1537315, 0.09636465, 0.9724543, 0.05380563, -0.6984664, 0.57064724, 0
347, 1414273406, 0.1463573, -0.15408297, 0.09675343, 0.97237945, -0.046018746, -0.5485152, 0.34847164, 0
348, 1414290073, 0.14619538, -0.15415737, 0.09701114, 0.97236633, -0.17163505, -0.49948916, 0.40040112, 0
349, 1414306740, 0.1459803, -0.154129, 0.09727419, 0.9723768, -0.05939435, -0.32515392, 0.40264893, 0
352, 1414356741, 0.1453194, -0.15365413, 0.097985625, 0.9724796, -0.03718951, 0.20394406, 0.38951397, 0
355, 1414406742, 0.14490739, -0.152988, 0.0984391, 0.9726002, -0.14385495, 0.5515646, 0.4640236, 0
356, 1414423409, 0.14481226, -0.15299654, 0.098673776, 0.9725893, -0.08055773, 0.65767556, 0.4485941, 0
357, 1414440076, 0.14471161, -0.15306172, 0.09891483, 0.97256947, -0.07577405, 0.63529253, 0.29285526, 0
359, 1414473410, 0.14470142, -0.15315488, 0.09935814, 0.9725112, -0.10065906, 0.6559553, 0.3679905, 0
360, 1414490077, 0.144694, -0.1531313, 0.09956077, 0.9724953, -0.099845946, 0.62226385, 0.3343649, 0
361, 1414506744, 0.14472032, -0.15313232, 0.09982117, 0.97246456, -0.18675907, 0.57013184, 0.32649994, 0
363, 1414540078, 0.14483637, -0.15315732, 0.10036368, 0.97238743, -0.14507918, 0.44635928, 0.3262539, 0
364, 1414556745, 0.14488941, -0.15313756, 0.10061042, 0.97235715, 0.0023915607, 0.42294005, 0.33204842, 0
366, 1414590079, 0.14501593, -0.15296462, 0.10096894, 0.97232836, 0.037963927, 0.38364556, 0.4385767, 0
367, 1414606746, 0.14512166, -0.15284511, 0.10109092, 0.97231865, 0.028307749, 0.29884085, 0.41150284, 0
370, 1414656747, 0.14536345, -0.15264203, 0.10137515, 0.9722849, 0.019652069, 0.10995306, 0.3935032, 0
371, 1414673414, 0.14547816, -0.1526054, 0.10147789, 0.9722626, 0.1050764, 0.04560458, 0.43086243, 0
372, 1414690081, 0.1455417, -0.15256007, 0.10157886, 0.9722498, 0.0830397, 0.037019223, 0.45805168, 0
374, 1414723415, 0.14561069, -0.15240873, 0.10163949, 0.9722569, 0.0328668, -0.0574511, 0.34031868, 0
376, 1414756749, 0.14565045, -0.1523071, 0.10169176, 0.9722614, 0.03832057, -0.061827708, 0.37424183, 0
378, 1414790083, 0.14575896, -0.15220942, 0.1015107, 0.9722794, 0.057484403, -0.06549355, 0.32965374, 0
379, 1414806750, 0.1458028, -0.15208653, 0.10135095, 0.97230864, 0.07603548, -0.041505016, 0.3464718, 0
380, 1414823417, 0.14587507, -0.15201688, 0.10118601, 0.9723259, 0.025802586, -0.057781562, 0.36215973, 0
382, 1414856751, 0.14601013, -0.15192223, 0.100816265, 0.9723588, 0.05865441, -0.046935596, 0.41447067, 0
383, 1414873418, 0.14603844, -0.1518238, 0.100545675, 0.972398, 0.08644436, -0.055415902, 0.38110447, 0
386, 1414923419, 0.14620256, -0.15170166, 0.09961458, 0.97248816, 0.03571505, -0.046950236, 0.4499035, 0
388, 1414956753, 0.14619225, -0.15160957, 0.09892745, 0.97257423, 0.0022056538, -0.038918745, 0.3568411, 0
391, 1415006754, 0.1461888, -0.15155132, 0.097829886, 0.97269475, 0.0532314, -0.015737323, 0.35639286, 0
392, 1415023421, 0.14622411, -0.15151231, 0.09743123, 0.9727356, 0.050887305, 0.004974616, 0.40844536, 0
394, 1415056755, 0.14630514, -0.15135083, 0.09654774, 0.97283673, 0.001349683, -0.065518685, 0.30669594, 0
395, 1415073422, 0.14638251, -0.1513597, 0.09613105, 0.97286487, -0.025187368, -0.07958011, 0.43017197, 0
397, 1415106756, 0.1465041, -0.15137385, 0.095231034, 0.97293293, -0.037286542, -0.117511265, 0.36873436, 0
398, 1415123423, 0.14659104, -0.15133862, 0.09477075, 0.97297025, -0.007336561, -0.119050935, 0.36394215, 0
399, 1415140090, 0.14666596, -0.151311, 0.09433524, 0.97300565, -0.010929728, -0.13864933, 0.38124943, 0
401, 1415173424, 0.14683431, -0.15123369, 0.09361017, 0.9730623, -0.07073884, -0.13513643, 0.44368172, 0
402, 1415190091, 0.14690185, -0.15119652, 0.093320996, 0.9730857, -0.058758847, -0.1517815, 0.42764854, 0
403, 1415206758, 0.14695734, -0.15117022, 0.09309227, 0.9731033, -0.082963146, -0.17372154, 0.4042349, 0
405, 1415240092, 0.14701825, -0.15115163, 0.09286468, 0.9731186, -0.08278825, -0.217556, 0.35467052, 0
406, 1415256759, 0.14705399, -0.15116848, 0.092848256, 0.97311217, -0.004500042, -0.18526246, 0.4741001, 0
407, 1415273426, 0.14709154, -0.15117769, 0.09289284, 0.9731008, 0.032372024, -0.18292914, 0.4016714, 0
409, 1415306760, 0.14715758, -0.1512338, 0.09301695, 0.9730702, 0.011179782, -0.22422642, 0.30803394, 0
410, 1415323427, 0.14719296, -0.15118362, 0.093089275, 0.97306573, 0.005509902, -0.21697487, 0.3677807, 0
411, 1415340094, 0.14724019, -0.15108998, 0.09316049, 0.97306633, -0.038482867, -0.190484, 0.4592142, 0
413, 1415373428, 0.14735389, -0.1510024, 0.09340199, 0.9730396, -0.03138337, -0.19281429, 0.39075184, 0
415, 1415406762, 0.14741588, -0.15092584, 0.093751, 0.97300863, -0.0111443, -0.15124038, 0.40341663, 0
417, 1415440096, 0.14743266, -0.15081741, 0.094155416, 0.9729837, 0.06304055, -0.12479768, 0.42775822, 0
418, 1415456763, 0.14742619, -0.15079945, 0.09442102, 0.9729618, 0.01785986, -0.121400505, 0.45587063, 0
419, 1415473430, 0.14741433, -0.15074366, 0.09468268, 0.9729469, -0.043229863, -0.12512848, 0.37500286, 0
421, 1415506764, 0.14741912, -0.15052226, 0.095167845, 0.97293305, 0.031482972, -0.025408618, 0.3478012, 0
422, 1415523431, 0.14739415, -0.15033235, 0.09539544, 0.9729439, 0.066170394, 0.03301655, 0.44385242, 0
424, 1415556765, 0.14740396, -0.15009777, 0.09585886, 0.972933, -0.024711592, 0.038827106, 0.30518627, 0
425, 1415573432, 0.14741367, -0.15008044, 0.09606741, 0.97291374, 0.031578865, 0.074515976, 0.31425953, 0
426, 1415590099, 0.14749295, -0.1500306, 0.096251816, 0.97289115, 0.06430459, 0.1324397, 0.40008926, 0
428, 1415623433, 0.14754835, -0.1498896, 0.0965222, 0.97287774, 0.011948891, 0.022809163, 0.3417387, 0
430, 1415656767, 0.14766282, -0.1498827, 0.09676832, 0.9728369, -0.029765444, 0.08859864, 0.38226318, 0
432, 1415690101, 0.14776841, -0.14996763, 0.09710276, 0.9727745, 0.0027074963, 0.07784274, 0.34329987, 0
433, 1415706768, 0.14780855, -0.14999627, 0.09727481, 0.97274673, 7.0822873E-4, 0.04399953, 0.32556534, 0
434, 1415723435, 0.14784476, -0.15010639, 0.097492814, 0.9727025, -0.0050872667, -0.0058161425, 0.36876297, 0
436, 1415756769, 0.1479452, -0.1505278, 0.09797532, 0.97257346, 0.03306849, -0.032647867, 0.48387146, 0
437, 1415773436, 0.14799076, -0.15076584, 0.09819438, 0.9725077, 0.08385284, -0.14250046, 0.37240314, 0
438, 1415790103, 0.14799389, -0.15103896, 0.098402545, 0.9724438, 0.20396303, -0.16854207, 0.39230824, 0
440, 1415823437, 0.1481165, -0.15134895, 0.09851907, 0.97236514, 0.18016331, 0.015663788, 0.5418911, 0
441, 1415840104, 0.14824384, -0.15135221, 0.09849686, 0.9723475, -0.12471512, -0.0024440023, 0.25217342, 0
444, 1415890105, 0.14834762, -0.15143634, 0.098916754, 0.9722759, 0.1135386, 0.15121043, 0.10417366, 0
446, 1415923439, 0.14836675, -0.15122361, 0.09920615, 0.9722767, 0.17159964, 0.059044078, 0.41366196, 0
448, 1415956773, 0.14838266, -0.15159607, 0.099693045, 0.9721664, -0.10871874, -0.20023207, 0.64936924, 0
449, 1415973440, 0.14826617, -0.15215793, 0.10021782, 0.9720423, 0.17196275, -0.7786796, 0.023654938, 0
451, 1416006774, 0.14833638, -0.15374407, 0.10160571, 0.97163796, 0.13809505, -0.8510397, 0.4811449, 0
452, 1416023441, 0.148619, -0.15426405, 0.10204436, 0.9714663, -0.15680426, -1.5355754, 0.56794167, 0
453, 1416040108, 0.14883602, -0.15476039, 0.10253516, 0.9713025, 0.19521624, -1.5168623, 0.47477436, 0
455, 1416073442, 0.14886555, -0.1552749, 0.103438005, 0.9711201, -0.28136727, -1.6029292, 0.53265, 0
456, 1416090109, 0.14895773, -0.1553917, 0.10365982, 0.97106373, 0.21549298, -1.1483554, 0.27133656, 0
457, 1416106776, 0.14892226, -0.15536241, 0.10387156, 0.97105116, 0.715779, -0.71937245, 0.31569386, 0
459, 1416140110, 0.14867973, -0.15493765, 0.103955686, 0.9711472, -0.18568018, -0.16834135, 0.46910954, 0
461, 1416173444, 0.14870083, -0.15411101, 0.103479505, 0.97132635, -0.0054127574, 0.31211093, 0.23304558, 0
463, 1416206778, 0.14849791, -0.15324757, 0.10272117, 0.9715745, 0.08469797, 0.865627, 0.5237627, 0
464, 1416223445, 0.14851308, -0.15301792, 0.10241177, 0.971641, 0.14496677, 1.04652, 0.5439701, 0
465, 1416240112, 0.14850259, -0.15295064, 0.102194585, 0.971676, -0.26398158, 1.2347054, 0.42009163, 0
467, 1416273446, 0.14836654, -0.15283717, 0.10172874, 0.9717636, -0.3108329, 0.914009, 0.3254137, 0
468, 1416290113, 0.1483556, -0.15260601, 0.1014635, 0.9718292, 0.15518647, 0.79600954, 0.146739, 0
469, 1416306780, 0.1482872, -0.15242547, 0.10134309, 0.9718807, 0.32203525, 0.71757436, 0.27253246, 0
471, 1416340114, 0.14830405, -0.1521229, 0.10108602, 0.9719522, -0.5355947, 0.42568904, 0.51328564, 0
472, 1416356781, 0.14834079, -0.15199646, 0.10081214, 0.9719948, -0.017515983, 0.2930209, 0.347888, 0
473, 1416373448, 0.14837071, -0.15186381, 0.10054594, 0.9720386, 0.3886596, 0.20019312, 0.045247078, 0
475, 1416406782, 0.14868137, -0.15138438, 0.099595085, 0.9721638, -0.05354893, 0.20616958, 0.48016167, 0
476, 1416423449, 0.14896262, -0.15103465, 0.09888483, 0.9722476, -0.08303836, 0.20187221, 0.5243225, 0
478, 1416456783, 0.14923733, -0.15065192, 0.09753278, 0.9724014, 0.023609618, 0.045374136, 0.57230186, 0
479, 1416473450, 0.1493738, -0.15047067, 0.09685583, 0.97247624, 0.04894819, -0.24566744, 0.5181103, 0
480, 1416490117, 0.1495435, -0.15036875, 0.096220344, 0.97252893, 0.07304068, -0.29445305, 0.46101856, 0
482, 1416523451, 0.1496895, -0.15029477, 0.095115885, 0.97262657, -0.0529372, -0.36490726, 0.3589964, 0
483, 1416540118, 0.14967725, -0.15036273, 0.09472323, 0.9726563, 0.1471292, -0.46238354, 0.45917797, 0
484, 1416556785, 0.1497364, -0.15052053, 0.094413385, 0.9726529, 0.040436093, -0.57826746, 0.2875843, 0
486, 1416590119, 0.14987588, -0.1509181, 0.09379618, 0.97262955, 0.07640721, -0.6808536, 0.305624, 0
488, 1416623453, 0.1501064, -0.15095447, 0.09293709, 0.9726709, 0.061860953, -0.6399123, 0.48290253, 0
490, 1416656787, 0.15024698, -0.15088026, 0.09189896, 0.97275925, 0.1168668, -0.33459073, 0.4182129, 0
491, 1416673454, 0.15031523, -0.15078747, 0.0913333, 0.97281635, -0.06611036, -0.15535782, 0.3788042, 0
492, 1416690121, 0.15039146, -0.15064079, 0.090717345, 0.9728848, -0.16699994, 0.059694275, 0.4531088, 0
494, 1416723455, 0.15049171, -0.15022293, 0.08946106, 0.97305036, 0.04706459, 0.09245546, 0.47973442, 0
495, 1416740122, 0.15041584, -0.15011981, 0.08887612, 0.9731315, 0.083624914, 0.11215377, 0.503212, 0
496, 1416756789, 0.15048644, -0.15003721, 0.088317916, 0.9731842, 0.076312155, 0.032285776, 0.4454832, 0
498, 1416790123, 0.15064675, -0.15000331, 0.08734345, 0.97325265, -0.11485825, -0.2873525, 0.663949, 0
499, 1416806790, 0.15068161, -0.15026443, 0.0869869, 0.97323895, -0.16575268, -0.46101984, 0.7981186, 0
500, 1416823457, 0.15101257, -0.15103377, 0.08658858, 0.97310406, 0.036328036, -0.680155, 0.9497318, 0
503, 1416873458, 0.15176138, -0.15430973, 0.089350104, 0.9722235, 0.390235, -0.68723273, 0.22265625, 0
505, 1416906792, 0.1499134, -0.15585789, 0.09208156, 0.97200835, -0.728013, -0.9315375, -0.017950058, 0
506, 1416923459, 0.14826316, -0.15601274, 0.093305394, 0.9721199, 0.5600566, -1.3101623, 0.024513245, 0
507, 1416940126, 0.14575005, -0.15593928, 0.09400028, 0.9724447, 0.34415218, -1.5347778, 0.10509586, 0
509, 1416973460, 0.1387108, -0.15523373, 0.09470786, 0.97351795, -0.09520884, -1.1828974, 0.20457554, 0
510, 1416990127, 0.13666877, -0.15363328, 0.094998434, 0.97403216, 1.46981, -1.1252514, 0.2617712, 0
511, 1417006794, 0.13430381, -0.15220934, 0.09486687, 0.97459733, 0.46095225, -0.8361207, 0.6327591, 0
513, 1417040128, 0.1328192, -0.14964522, 0.093835816, 0.97529745, -0.86506826, -2.2569864, 0.17013264, 0
514, 1417056795, 0.13332352, -0.14848492, 0.093468815, 0.97544134, -0.027421659, -1.7619812, 1.0129251, 0
515, 1417073462, 0.1337685, -0.14670041, 0.09368506, 0.9756296, -0.37398264, -1.4865003, 1.22756, 0
518, 1417123463, 0.13504493, -0.14358124, 0.095571846, 0.9757347, 0.44574136, -2.473372, -0.38117123, 0
519, 1417140130, 0.13548481, -0.14419462, 0.09636292, 0.9755055, 0.03273065, -2.1614227, 0.35842323, 0
521, 1417173464, 0.13623244, -0.14538503, 0.0980899, 0.9750525, 0.75638795, -2.4111376, 0.02101326, 0
522, 1417190131, 0.1358451, -0.14641201, 0.098833516, 0.9748778, 1.0977, -2.2900794, 0.051312447, 0
523, 1417206798, 0.13537005, -0.14742017, 0.09927796, 0.9747468, 0.12575482, -1.9396034, 0.78662777, 0
525, 1417240132, 0.1351572, -0.14906628, 0.099397965, 0.97451353, 0.3444488, -2.3883405, 0.40743256, 0
526, 1417256799, 0.13532287, -0.15018748, 0.09871754, 0.9743877, 0.1819526, -2.406411, 0.37769413, 0
527, 1417273466, 0.13558477, -0.151279, 0.09784521, 0.97427034, 0.28869814, -2.2774844, 0.8645706, 0
529, 1417306800, 0.13613564, -0.15311751, 0.097690925, 0.9739218, -0.0277733, -3.1939862, 0.0062618256, 0
530, 1417323467, 0.13636875, -0.15375128, 0.097869344, 0.97377133, 0.46781027, -3.0346282, 0.14214993, 0
533, 1417373468, 0.13645431, -0.1550161, 0.09846884, 0.97349834, 0.16487998, -3.4689202, 0.42692757, 0
534, 1417390135, 0.13655904, -0.15505892, 0.09859006, 0.9734646, 0.6274729, -3.5172892, 0.86536217, 0
536, 1417423469, 0.13735497, -0.15607676, 0.09973509, 0.97307324, 0.11670877, -3.9948726, 0.8326416, 0
537, 1417440136, 0.13790119, -0.15654391, 0.10067645, 0.972824, -0.23246753, -4.290582, 0.8985071, 0
538, 1417456803, 0.13846686, -0.15737206, 0.1020503, 0.9724668, -0.100701556, -4.6879096, 0.3405447, 0
540, 1417490137, 0.13861027, -0.1595512, 0.10418406, 0.9718648, 0.7602379, -4.3264265, 0.8822193, 0
541, 1417506804, 0.13875163, -0.16107926, 0.105342306, 0.97146773, 0.8387657, -4.91931, 0.17219448, 0
542, 1417523471, 0.1394226, -0.16231892, 0.10676194, 0.9710102, 0.07371513, -3.8179011, 0.8354206, 0
544, 1417556805, 0.14134374, -0.16425128, 0.11110355, 0.9699198, -0.8000636, -4.3017516, 0.4203148, 0
545, 1417573472, 0.14245504, -0.16449505, 0.11367296, 0.96941805, -0.36311963, -3.918051, -1.3926296, 0
546, 1417590139, 0.14266461, -0.16455868, 0.1160218, 0.9690982, -0.41370553, -3.0321107, -1.2606077, 0
548, 1417623473, 0.14120641, -0.15834695, 0.120465636, 0.96980417, 0.9918229, -4.634931, -0.9939852, 0
549, 1417640140, 0.14131376, -0.15500264, 0.12067355, 0.9703027, 1.6542114, -3.5121632, -0.4576645, 0
550, 1417656807, 0.14218315, -0.1513411, 0.11946067, 0.97090375, 0.5089946, -1.4189061, 1.379672, 0
552, 1417690141, 0.14513925, -0.14580193, 0.11642161, 0.9716827, -1.0615982, 1.3294959, 1.1230669, 0
553, 1417706808, 0.14668542, -0.14288044, 0.11462514, 0.97209805, -1.4617414, 0.58758515, 2.0932703, 0
554, 1417723475, 0.14841297, -0.14118351, 0.11357406, 0.97220725, -1.2558894, 0.96637714, 2.1594515, 0
556, 1417756809, 0.15157673, -0.1393739, 0.11377999, 0.971956, -0.42918822, 3.2620444, 1.5358067, 0
557, 1417773476, 0.15281755, -0.13839227, 0.114138566, 0.97186005, -0.04585808, 2.2231443, 1.3155346, 0
560, 1417823477, 0.1550022, -0.13687925, 0.11557707, 0.9715582, 0.45600137, 2.805848, 0.48870564, 0
561, 1417840144, 0.15514174, -0.13633688, 0.11602536, 0.9715587, 0.19685926, 1.9851853, -0.35075855, 0
563, 1417873478, 0.15483117, -0.13534746, 0.11797028, 0.97151244, -0.07799697, 2.7004545, 0.69022274, 0
564, 1417890145, 0.15422863, -0.13523537, 0.11961493, 0.97142273, 0.33145577, 2.4614305, 0.19091225, 0
567, 1417940146, 0.15135384, -0.13552423, 0.12451452, 0.971219, 1.2136075, 0.9068856, -0.75668144, 0
568, 1417956813, 0.15021008, -0.13584156, 0.12545538, 0.97123116, 0.92921585, 0.7254288, -0.6995363, 0
569, 1417973480, 0.14892843, -0.1363126, 0.12602054, 0.97128934, 1.1075011, 0.40715325, -0.24650955, 0
571, 1418006814, 0.14601117, -0.13665783, 0.12745291, 0.9714968, 0.3075081, 0.16447905, 0.9323664, 0
572, 1418023481, 0.14458865, -0.13708565, 0.12768982, 0.97161824, 0.21275674, -0.6303043, -0.10181999, 0
573, 1418040148, 0.1431272, -0.13755676, 0.12769163, 0.9717679, 0.3763982, -1.274869, -0.19694328, 0
576, 1418090149, 0.13936678, -0.13825724, 0.127247, 0.9722731, 0.56890833, -1.7776855, 0.41718197, 0
577, 1418106816, 0.13833976, -0.13836817, 0.1263804, 0.972517, 0.37628317, -1.5009501, 0.5829153, 0
579, 1418140150, 0.13660634, -0.13824296, 0.12559348, 0.9728817, 0.3269704, -2.2989967, 0.53238106, 0
580, 1418156817, 0.13571388, -0.13809368, 0.12574144, 0.97300875, 0.062017623, -2.2349718, 0.6743622, 0
581, 1418173484, 0.13468504, -0.13810505, 0.12623163, 0.97308654, -0.3439859, -3.2553818, 0.21068573, 0
583, 1418206818, 0.13254091, -0.13845234, 0.12867141, 0.9730121, 0.18717444, -2.3258204, 0.1868496, 0
584, 1418223485, 0.1314452, -0.13815372, 0.12989683, 0.9730402, 0.8343217, -2.7730908, 0.49569798, 0
586, 1418256819, 0.12930986, -0.13787387, 0.13327102, 0.9729098, 0.71607894, -2.0869427, -0.40172958, 0
587, 1418273486, 0.12859678, -0.13800803, 0.13460284, 0.972802, -0.39381686, -1.407025, 0.72469044, 0
588, 1418290153, 0.12824947, -0.13798253, 0.13537775, 0.972744, 7.3245197E-4, -0.791307, 1.5042763, 0
591, 1418340154, 0.12718943, -0.13965395, 0.13874067, 0.9721706, -0.8829539, -1.6506535, 0.6672096, 0
592, 1418356821, 0.12719771, -0.14021112, 0.13953662, 0.9719753, 0.29800126, -1.5735259, 0.6454563, 0
594, 1418390155, 0.12707943, -0.13988441, 0.14311072, 0.97151816, -0.27020082, -3.0221057, -0.38172436, 0
595, 1418406822, 0.1271736, -0.13924538, 0.14478141, 0.97135013, -0.8130749, -2.790877, 0.6258383, 0
596, 1418423489, 0.12748468, -0.139227, 0.14633676, 0.9710789, -0.42409182, -1.3366504, 1.0796213, 0
598, 1418456823, 0.12830341, -0.1391737, 0.14889894, 0.97058904, -0.4658801, -3.607377, -0.89713573, 0
599, 1418473490, 0.12879708, -0.13878809, 0.14979942, 0.97044027, -0.4263719, -2.2185977, 1.3723373, 0
600, 1418490157, 0.12948674, -0.1387636, 0.15143353, 0.97009826, -0.73326147, -1.9910458, 2.283863, 0
602, 1418523491, 0.13142112, -0.14176646, 0.15492533, 0.96885175, 0.2375878, -2.8302984, -0.76423836, 0
603, 1418540158, 0.13244432, -0.14443128, 0.1560476, 0.9681386, -0.1602463, -4.0657196, -2.577146, 0
606, 1418590159, 0.13504025, -0.15412946, 0.15458623, 0.9665176, -0.38305306, -3.81547, 2.9993944, 0
607, 1418606826, 0.13573277, -0.15915976, 0.15651396, 0.96529436, 0.13151021, -3.185685, 1.1939869, 0
608, 1418623493, 0.13586622, -0.16600932, 0.15836997, 0.96381795, -0.054869406, -3.2626767, -2.002511, 0
610, 1418656827, 0.12311646, -0.1821547, 0.15503345, 0.96315706, -1.4231253, -1.365791, 3.910799, 0
611, 1418673494, 0.11036742, -0.18822996, 0.15221375, 0.96398365, -1.4881654, -1.6921228, -0.8015976, 0
613, 1418706828, 0.087647915, -0.20206973, 0.14972803, 0.96390474, -2.8599951, 4.55759, 1.1040258, 0
614, 1418723495, 0.08316511, -0.20469394, 0.15155363, 0.9634627, -0.8868036, 5.0506043, -1.6366291, 0
615, 1418740162, 0.08317265, -0.2030713, 0.15453799, 0.96333134, 1.2631521, 5.307582, -2.6651201, 0
617, 1418773496, 0.090944916, -0.1720934, 0.15697834, 0.96825385, 1.5966284, 1.6485342, -2.6986203, 0
618, 1418790163, 0.090703785, -0.16116309, 0.15528052, 0.9704288, -3.8741102, -5.6284094, -6.2305765, 0
619, 1418806830, 0.093492925, -0.15979987, 0.1555454, 0.9703472, -5.141839, 1.203706, 13.461189, 0
621, 1418840164, 0.09855753, -0.16092482, 0.15881391, 0.9691298, -0.13530141, 5.73005, -2.0880785, 0
622, 1418856831, 0.100292444, -0.1587399, 0.15960379, 0.9691825, 0.26555705, -0.966488, -1.6714792, 0
623, 1418873498, 0.103797495, -0.15583465, 0.15924841, 0.96934336, -0.8076875, -3.4660442, 1.0503874, 0
625, 1418906832, 0.11345914, -0.15282466, 0.1573914, 0.96904314, -2.719554, 2.1299183, 1.9342613, 0
626, 1418923499, 0.11769515, -0.1511385, 0.15531816, 0.9691369, -1.6320014, 2.582399, 1.8372555, 0
627, 1418940166, 0.122113705, -0.14927365, 0.15241256, 0.96934044, 0.32484522, 1.1163023, 0.6864929, 0
629, 1418973500, 0.13054052, -0.14634909, 0.14739639, 0.96946394, -0.51323396, 1.4865232, 0.5005026, 0
630, 1418990167, 0.13329318, -0.14507063, 0.14570403, 0.9695374, -2.147128, 1.0732516, 0.82347584, 0
633, 1419040168, 0.1390518, -0.14422773, 0.14431232, 0.96906227, 2.845943, 0.70417255, -0.9038534, 0
634, 1419056835, 0.13968661, -0.14330187, 0.14435507, 0.96910197, 1.6286952, 0.025867378, -0.07523155, 0
635, 1419073502, 0.14009759, -0.14259003, 0.14401034, 0.96919906, 0.6146621, 0.2001307, 0.4608593, 0
637, 1419106836, 0.13968188, -0.1422694, 0.14188564, 0.9696195, 2.5956364, -0.11371188, -0.0121536255, 0
638, 1419123503, 0.13883704, -0.14228065, 0.14073206, 0.9699072, 2.3764257, -0.42796004, 0.079437256, 0
640, 1419156837, 0.13668048, -0.14145432, 0.13773844, 0.97076374, 0.448066, -0.56689626, 0.9695482, 0
641, 1419173504, 0.13534468, -0.14107437, 0.13631655, 0.9712068, 0.7340244, -1.1935005, 0.54560375, 0
642, 1419190171, 0.13371605, -0.14083897, 0.13511273, 0.9716346, 0.58501995, -2.1994336, -0.8852577, 0
644, 1419223505, 0.13072714, -0.14057018, 0.13375446, 0.9722681, 0.13702145, -2.1394181, 0.61753464, 0
645, 1419240172, 0.12943634, -0.14016455, 0.13304564, 0.9725964, -0.25987634, -1.2742951, 0.99275684, 0
648, 1419290173, 0.12544829, -0.1399222, 0.13157731, 0.9733534, 0.12996905, -0.83236426, 1.3350496, 0
649, 1419306840, 0.12442693, -0.13932563, 0.1309351, 0.97365665, 0.85827994, -1.5172344, 0.8327694, 0
650, 1419323507, 0.12344593, -0.13900682, 0.13009684, 0.9739394, 0.5134187, -1.8930912, 0.03739357, 0
652, 1419356841, 0.12153256, -0.13939226, 0.12857968, 0.9743264, 0.009587085, -0.56022346, 0.14253426, 0
653, 1419373508, 0.12053573, -0.13938916, 0.12776673, 0.97455764, 0.9966674, -1.9309983, 0.7947216, 0
654, 1419390175, 0.11944723, -0.13928038, 0.12737787, 0.974758, 0.8339335, -1.5451022, 0.4227314, 0
656, 1419423509, 0.117678076, -0.13940197, 0.12705983, 0.9749973, 0.048631698, -0.6766937, 0.66625595, 0
657, 1419440176, 0.11683598, -0.13977805, 0.12715384, 0.97503257, 0.35940242, -0.9520947, 0.45139122, 0
658, 1419456843, 0.11591774, -0.14031887, 0.12732047, 0.9750426, 0.16128635, -1.5672153, 0.26128006, 0
660, 1419490177, 0.11471781, -0.14099702, 0.12731169, 0.9750879, 0.77882147, -2.0238166, 0.08388138, 0
662, 1419523511, 0.11409944, -0.14183058, 0.12789145, 0.97496367, -0.30290017, -1.8952839, 0.6864176, 0
664, 1419556845, 0.11334869, -0.14219059, 0.12978536, 0.9747484, -0.081103705, -2.323759, 0.5036068, 0
665, 1419573512, 0.11327422, -0.14313975, 0.13141444, 0.9743999, 0.5529629, -1.8963109, 1.009284, 0
667, 1419606846, 0.11331925, -0.14474115, 0.13502252, 0.9736645, -0.0330112, -2.6422405, -0.17045403, 0
668, 1419623513, 0.113218635, -0.14507785, 0.13627039, 0.9734522, 0.43183, -2.2780252, 0.75623417, 0
669, 1419640180, 0.113236725, -0.1453802, 0.13722277, 0.97327137, 0.22146896, -2.5752854, 0.33317184, 0
671, 1419673514, 0.11343992, -0.14620084, 0.13814226, 0.97299457, 0.48093316, -1.3387525, 1.7700834, 0
672, 1419690181, 0.11339283, -0.14622632, 0.13774273, 0.9730528, -0.075276956, -4.265203, 0.9731436, 0
673, 1419706848, 0.11387128, -0.14749733, 0.13727207, 0.9728716, 0.17195836, -3.384294, -1.1591806, 0
675, 1419740182, 0.11410031, -0.14741006, 0.13632058, 0.9729917, -0.1394175, -3.3199823, -0.47284603, 0
677, 1419773516, 0.11365569, -0.147301, 0.13505438, 0.97323686, -0.21437706, -2.394543, 1.7182341, 0
679, 1419806850, 0.11412862, -0.14999467, 0.13324773, 0.97301924, 0.23798452, -1.4781609, -1.5009174, 0
680, 1419823517, 0.11437029, -0.15140031, 0.13256295, 0.97286665, -1.0830123, -2.2981532, 0.5333271, 0
681, 1419840184, 0.11472306, -0.15200314, 0.13221595, 0.97277826, -1.3301269, -2.5392663, 4.563488, 0
683, 1419873518, 0.11584666, -0.15272185, 0.13218737, 0.9725363, 0.082597576, -0.18009478, -1.2843542, 0
684, 1419890185, 0.11626309, -0.15364666, 0.1325528, 0.97229135, -0.33367428, 1.2073294, -4.306798, 0
685, 1419906852, 0.1177139, -0.15506372, 0.13262187, 0.9718822, -3.3633294, 2.6587822, -2.1328354, 0
687, 1419940186, 0.11734411, -0.15103126, 0.13440101, 0.97231746, 4.2739577, -2.3697848, -0.41573906, 0
688, 1419956853, 0.11663127, -0.15247203, 0.13749495, 0.97174567, -1.6807421, 3.8218632, -1.5337543, 0
689, 1419973520, 0.116030514, -0.1520471, 0.14042415, 0.97146505, -1.7097398, 2.1632347, -0.7779131, 0
691, 1420006854, 0.11640537, -0.15278754, 0.14689443, 0.97034675, -0.09135557, 1.6050429, 1.1548948, 0
692, 1420023521, 0.11547071, -0.15311103, 0.15092316, 0.9697889, -1.5443717, 0.31929195, 0.19671822, 0
694, 1420056855, 0.11534992, -0.15195732, 0.15601848, 0.9691783, 0.5219904, -1.1764942, 0.87623215, 0
695, 1420073522, 0.1157859, -0.15122901, 0.15717615, 0.96905315, 0.5802923, 1.0403818, 0.8679819, 0
696, 1420090189, 0.116242886, -0.1503848, 0.15817532, 0.9689672, -0.6335969, 0.7123724, 2.067216, 0
698, 1420123523, 0.11859837, -0.14867067, 0.1569416, 0.9691469, 0.40654138, 3.9291816, 3.6991806, 0
699, 1420140190, 0.119733095, -0.1474829, 0.15491688, 0.9695146, 1.9974899, 3.9817572, 4.0613823, 0
700, 1420156857, 0.12035, -0.14707726, 0.15294833, 0.9698123, 1.7963984, 4.44977, 1.7949963, 0
702, 1420190191, 0.12038204, -0.14662002, 0.14902397, 0.9704884, 0.008200044, 1.8085685, -2.5467873, 0
704, 1420223525, 0.11820537, -0.14688368, 0.14635375, 0.97112215, 1.2944276, 1.7987416, -2.0307689, 0
706, 1420256859, 0.11425364, -0.14642046, 0.14488223, 0.9718855, 1.6285214, 1.5625935, 1.573082, 0
707, 1420273526, 0.11231828, -0.14683226, 0.14415589, 0.9721569, 1.9044887, 1.6301906, 0.57494545, 0
708, 1420290193, 0.109954506, -0.1474002, 0.143561, 0.9724291, 2.2965677, -0.46972364, -0.47742748, 0
710, 1420323527, 0.10455632, -0.14733773, 0.14145902, 0.9733417, 0.65326893, -1.590326, -0.20474339, 0
711, 1420340194, 0.10209641, -0.14751098, 0.14062843, 0.9736968, 0.7023413, 0.32578355, 0.15330315, 0
712, 1420356861, 0.09967485, -0.1480343, 0.14007679, 0.97394776, -0.20849425, 0.1204477, 0.46555614, 0
714, 1420390195, 0.09531498, -0.14878452, 0.1400646, 0.97427154, -0.6321208, -1.5321574, 0.4314947, 0
715, 1420406862, 0.09326726, -0.14871928, 0.14098905, 0.9743463, 0.15326689, -2.7068188, 0.38395882, 0
716, 1420423529, 0.09148136, -0.14844774, 0.14223665, 0.97437584, 0.16462599, -1.9260236, -0.15143013, 0
719, 1420473530, 0.08821145, -0.14835048, 0.14631605, 0.974088, -1.2427568, 1.9172556, 1.2036276, 0
721, 1420506864, 0.087566584, -0.14775409, 0.14746921, 0.9740629, -0.12732586, -2.5850735, -0.9621458, 0
722, 1420523531, 0.08782157, -0.1486039, 0.14833798, 0.97377884, -0.42595828, 0.9126405, 0.40858555, 0
723, 1420540198, 0.08825633, -0.14860137, 0.14889619, 0.9736546, -0.4775634, -0.535203, 1.8632641, 0
725, 1420573532, 0.08950648, -0.14777493, 0.15036683, 0.9734403, -0.58282906, -1.7594912, -0.08969498, 0
726, 1420590199, 0.09042716, -0.14760125, 0.15119916, 0.97325265, -1.1407663, 0.21035497, 0.01025486, 0
727, 1420606866, 0.09148434, -0.14774202, 0.15161969, 0.9730669, -0.70408183, 1.4235818, 0.3311205, 0
729, 1420640200, 0.09362981, -0.14686917, 0.1519939, 0.97293663, 0.08522978, -2.0608473, 0.04046917, 0
730, 1420656867, 0.09534508, -0.1470105, 0.15238908, 0.97268695, -0.6489665, -1.8871552, -0.49857998, 0
731, 1420673534, 0.09701723, -0.1467652, 0.15255234, 0.972533, -1.0983686, -1.7680194, -0.7159977, 0
734, 1420723535, 0.10114473, -0.14455333, 0.15288092, 0.9723921, -0.051505264, -1.4499764, 0.7504101, 0
735, 1420740202, 0.1025632, -0.14374554, 0.15294316, 0.9723535, 0.03661351, -0.35333955, 1.2384176, 0
737, 1420773536, 0.10474041, -0.14263469, 0.15348735, 0.9721993, -0.9515531, -1.4386668, 1.2627821, 0
738, 1420790203, 0.10612926, -0.14266165, 0.15367009, 0.9720158, -0.025098043, -2.4180217, -1.0584002, 0
739, 1420806870, 0.10765514, -0.14252213, 0.15353613, 0.9718896, 0.8220218, -1.3907676, 0.5266447, 0
741, 1420840204, 0.11032286, -0.14108169, 0.15292835, 0.9718964, -0.8154403, -1.5426459, -0.14906502, 0
742, 1420856871, 0.11187151, -0.14012986, 0.15232454, 0.97195184, -0.6334242, -0.50275373, 1.2986193, 0
743, 1420873538, 0.11333755, -0.1392433, 0.15160325, 0.9720222, -0.32513753, -0.5074854, 1.5542002, 0
745, 1420906872, 0.11577839, -0.13953598, 0.15096231, 0.97179246, -0.34440988, -1.333437, 0.77251434, 0
746, 1420923539, 0.117001, -0.14013995, 0.15114176, 0.9715311, -0.595669, -2.5050523, -1.8546815, 0
749, 1420973540, 0.118350655, -0.1387854, 0.15177566, 0.9714633, 0.52733487, -0.719637, 1.2159863, 0
750, 1420990207, 0.118335605, -0.13789828, 0.15222666, 0.9715209, 0.6411735, -0.91063786, 1.7901373, 0
752, 1421023541, 0.11840555, -0.13966563, 0.15449211, 0.970902, 0.1631007, 0.35013518, 0.94614697, 0
753, 1421040208, 0.11780962, -0.13889098, 0.15524337, 0.97096586, 0.35284218, -2.3448813, 0.60998726, 0
754, 1421056875, 0.11743057, -0.13871758, 0.15688044, 0.97077334, 0.3439103, -3.1793745, -0.5101118, 0
756, 1421090209, 0.1165922, -0.13787024, 0.16017728, 0.9704567, 0.0025290307, -0.70433414, 1.2742729, 0
757, 1421106876, 0.11616507, -0.13800205, 0.16155927, 0.97026014, -0.27198592, -1.7967525, 0.086294174, 0
758, 1421123543, 0.116175294, -0.13837601, 0.16213043, 0.9701104, -0.010046608, -1.0162457, 0.20180416, 0
760, 1421156877, 0.115843326, -0.13800305, 0.1620009, 0.97022486, 0.2714043, -2.3767602, 0.7176018, 0
761, 1421173544, 0.11563265, -0.1372889, 0.1612234, 0.9704807, 0.24155152, -3.1544383, 1.6121702, 0
762, 1421190211, 0.115911335, -0.13736197, 0.16020255, 0.9706062, -0.27083442, -1.7172922, 2.3061428, 0
764, 1421223545, 0.11734381, -0.13916585, 0.15920195, 0.97034174, -1.0558032, -1.1816337, -3.3289561, 0
765, 1421240212, 0.11806336, -0.13917503, 0.15791096, 0.970464, -0.017501391, -1.9610604, -1.7876406, 0
766, 1421256879, 0.11891812, -0.13884392, 0.15587369, 0.9707364, -0.11428961, -3.1801496, 2.6131067, 0
768, 1421290213, 0.12234017, -0.14306329, 0.15225632, 0.9702725, -1.8294959, -4.324762, -0.96896935, 0
769, 1421306880, 0.124457896, -0.14580868, 0.15269534, 0.9695252, -2.1559072, 0.51860225, 0.84460926, 0
770, 1421323547, 0.12540546, -0.14573957, 0.15247549, 0.96944803, -0.48349082, -2.9191816, -0.9836674, 0
772, 1421356881, 0.12815917, -0.14928342, 0.14871916, 0.9691322, 0.5074415, -0.14334199, -2.1197438, 0
773, 1421373548, 0.12948808, -0.15129864, 0.14692959, 0.96891594, -0.15171501, -0.5867143, -2.6089296, 0
776, 1421423549, 0.1279665, -0.15130931, 0.15354264, 0.9680908, -0.4172319, 4.3798513, 1.21941, 0
777, 1421440216, 0.12541035, -0.15068531, 0.15784867, 0.96783006, 1.16982, 5.6024203, 1.2615662, 0
779, 1421473550, 0.120611966, -0.15152796, 0.1665199, 0.9668547, 1.7290117, 5.7188716, -0.021183968, 0
780, 1421490217, 0.11910534, -0.1520633, 0.16995679, 0.9663594, 0.094411954, 5.7894497, 1.8470774, 0
781, 1421506884, 0.118459076, -0.15136808, 0.17261603, 0.9660766, -0.9160569, 0.56835055, 3.6158056, 0
783, 1421540218, 0.120752394, -0.15085693, 0.1719564, 0.9659901, -1.4829807, 5.825066, 2.5630836, 0
784, 1421556885, 0.12238419, -0.14929944, 0.16929437, 0.9664969, -1.4274157, 3.4315658, 2.3841162, 0
785, 1421573552, 0.12430066, -0.14840686, 0.16648562, 0.9668776, -1.5339248, 3.1875954, -0.029837608, 0
787, 1421606886, 0.12706581, -0.14706925, 0.16282678, 0.9673455, -1.6915953, 1.6034689, -0.6746197, 0
788, 1421623553, 0.12780398, -0.146382, 0.16206506, 0.9674805, -1.8087907, 0.32286984, -0.014550209, 0
791, 1421673554, 0.12963024, -0.1456549, 0.16054974, 0.96759987, 1.3879346, -1.256639, 0.29114056, 0
792, 1421690221, 0.13035819, -0.1456247, 0.15991996, 0.96761084, 1.0288408, -0.3843046, -1.8628478, 0
793, 1421706888, 0.13087946, -0.14529769, 0.15893655, 0.96775174, 0.993882, 1.5745215, 1.4418354, 0
795, 1421740222, 0.13149172, -0.14450665, 0.1555661, 0.9683347, 0.5094957, 0.986918, 0.60333633, 0
796, 1421756889, 0.13156906, -0.14445527, 0.1543746, 0.96852237, 0.8569567, -0.9038632, -0.25046253, 0
797, 1421773556, 0.13157493, -0.14424245, 0.15305138, 0.96876323, 0.30597234, -1.5827252, -1.4164457, 0
799, 1421806890, 0.13102528, -0.1424076, 0.14961085, 0.9696463, -0.17944731, -2.3632932, 0.07860851, 0
800, 1421823557, 0.13072976, -0.14231941, 0.14833641, 0.969895, 0.022039475, 0.4115306, 1.2023649, 0
802, 1421856891, 0.12964001, -0.14193967, 0.14596483, 0.97045654, 0.5999638, -0.45805192, 0.8232155, 0
803, 1421873558, 0.12888601, -0.14149578, 0.14469841, 0.97081137, 0.28076878, -1.9895724, 0.5683775, 0
806, 1421923559, 0.1257318, -0.140743, 0.14302558, 0.97158206, 1.1735538, 0.8085123, -0.58315754, 0
807, 1421940226, 0.12440497, -0.14082126, 0.14274052, 0.9717833, 0.95286626, -0.009183141, -0.06985855, 0
808, 1421956893, 0.12296477, -0.14047334, 0.14251943, 0.9720494, 1.4728191, -0.9893991, 1.1047153, 0
810, 1421990227, 0.11988655, -0.13994594, 0.14280204, 0.9724685, -0.30228192, -1.9855492, -1.0396671, 0
811, 1422006894, 0.118774176, -0.14052424, 0.14354952, 0.9724114, -0.94690037, 1.9939278, 1.809514, 0
812, 1422023561, 0.11785081, -0.14050147, 0.14419448, 0.9724318, 0.1364258, -0.6886873, 1.8220425, 0
814, 1422056895, 0.116482526, -0.14166868, 0.14538914, 0.9722494, 0.080626704, -1.3288482, 1.0469618, 0
815, 1422073562, 0.116138995, -0.14115332, 0.14569214, 0.9723201, 0.28821453, -1.6873503, 0.053367615, 0
816, 1422090229, 0.11613172, -0.1413682, 0.14617859, 0.9722167, -1.197988, 0.29126835, 1.215435, 0
818, 1422123563, 0.11645377, -0.14114346, 0.14602923, 0.9722333, -0.6720288, 1.975902, 2.0490246, 0
820, 1422156897, 0.11706945, -0.14060497, 0.14590813, 0.97225547, -0.27013505, -1.6141838, -0.3720541, 0
822, 1422190231, 0.11806676, -0.141176, 0.14579786, 0.97206867, 0.50441253, 0.79692435, 0.46166706, 0
823, 1422206898, 0.11835772, -0.14154926, 0.14582342, 0.9719751, 0.28385743, 0.5653583, 0.59502983, 0
824, 1422223565, 0.11879197, -0.14158094, 0.14577319, 0.97192514, 0.2034433, -2.055014, -0.20791149, 0
826, 1422256899, 0.119326055, -0.14083645, 0.14592484, 0.97194517, -0.011811528, -3.3729484, 0.28143406, 0
827, 1422273566, 0.119734704, -0.14072338, 0.14639264, 0.9718409, -0.6011083, -0.8469702, 0.6115904, 0
829, 1422306900, 0.121156484, -0.1424486, 0.14800604, 0.97116876, 0.18735649, -0.52964604, -1.065731, 0
830, 1422323567, 0.12169051, -0.14327683, 0.1494402, 0.97076035, 0.15165466, -0.26551774, 0.27570915, 0
831, 1422340234, 0.12200263, -0.14311418, 0.15050372, 0.9705808, 0.4202591, -3.921644, 0.36504173, 0
833, 1422373568, 0.122921795, -0.14338261, 0.15245925, 0.97011995, -0.8390421, -1.4424515, 1.1270294, 0
834, 1422390235, 0.12319425, -0.143667, 0.15352453, 0.96987534, -0.9629602, -1.3906319, 1.2289972, 0
835, 1422406902, 0.12392977, -0.14430484, 0.15402782, 0.969607, -0.5591622, -1.9490283, 0.33128834, 0
837, 1422440236, 0.12564069, -0.14443296, 0.15315169, 0.9695066, 1.0013868, -2.9269352, -0.08485222, 0
838, 1422456903, 0.12643963, -0.14388031, 0.15260154, 0.9695717, 0.13221149, -2.3751657, 1.428299, 0
839, 1422473570, 0.12736571, -0.14373432, 0.15202785, 0.9695623, -1.7025831, -3.0010066, -0.072239876, 0
841, 1422506904, 0.12975758, -0.14383571, 0.14933868, 0.969648, 0.8275481, -4.4170136, -0.02443695, 0
842, 1422523571, 0.13119283, -0.14566341, 0.14848599, 0.9693128, 0.0710677, -1.4233594, -0.5261631, 0
843, 1422540238, 0.13184601, -0.14544475, 0.14726458, 0.96944344, -1.1914723, -3.6208107, 0.6694374, 0
845, 1422573572, 0.13341433, -0.14466116, 0.1461311, 0.96951765, 0.2894595, -4.809449, -1.3821812, 0
847, 1422606906, 0.13402826, -0.1460801, 0.14705501, 0.96908027, -0.95638436, -2.2469454, 0.74591637, 0
849, 1422640240, 0.13415626, -0.14816727, 0.14806709, 0.9685916, 0.40738702, -3.034607, 0.37907696, 0
850, 1422656907, 0.1343281, -0.15156966, 0.14979342, 0.9677757, 0.988807, 0.15608501, -1.0511408, 0
851, 1422673574, 0.13436693, -0.1538789, 0.15118723, 0.96718884, 0.37484765, 0.19984595, -0.36013317, 0
853, 1422706908, 0.13370153, -0.15388466, 0.15216964, 0.96712595, 0.5853618, -0.25735822, -1.5325689, 0
854, 1422723575, 0.13281241, -0.15343395, 0.15363947, 0.96708775, 1.0385015, 3.6412363, 0.6634674, 0
856, 1422756909, 0.12931058, -0.15204503, 0.15901318, 0.9669131, -0.8219353, 6.039755, -1.6173449, 0
857, 1422773576, 0.1275135, -0.1501995, 0.16137579, 0.96704876, -0.55590916, 5.511764, 0.7676382, 0
858, 1422790243, 0.12557259, -0.14949492, 0.16439763, 0.96690285, 1.4126782, 5.303073, 2.0712214, 0
860, 1422823577, 0.12107319, -0.14968745, 0.17139924, 0.96623087, -0.95962864, 5.697731, 2.6291971, 0
862, 1422856911, 0.12005809, -0.14872363, 0.1737256, 0.96609104, 2.3300612, 5.6341853, 2.5881166, 0
864, 1422890245, 0.120661646, -0.1476078, 0.16857225, 0.9670993, -1.4472239, 2.857402, 0.8700733, 0
865, 1422906912, 0.12095702, -0.14615703, 0.16478218, 0.96793556, -1.1063896, 1.1413338, -0.4638195, 0
866, 1422923579, 0.121203125, -0.1461303, 0.16206163, 0.9683681, -0.7382286, 2.2540445, -2.099094, 0
868, 1422956913, 0.12125376, -0.14444502, 0.15836093, 0.9692266, -0.6649414, 0.58315265, 0.06314373, 0
869, 1422973580, 0.12122774, -0.14490685, 0.15853377, 0.96913254, -0.501497, 3.2434444, 1.2295237, 0
870, 1422990247, 0.12070143, -0.14482711, 0.15863013, 0.9691944, -0.39679807, -0.036333483, 0.5223627, 0
872, 1423023581, 0.120095134, -0.14472625, 0.15907085, 0.96921253, 0.49382734, -1.144139, -3.5539398, 0
873, 1423040248, 0.11999181, -0.1456422, 0.15956771, 0.9690064, 0.13482217, 2.3381183, -2.6984124, 0
874, 1423056915, 0.11964902, -0.14412363, 0.15770736, 0.9695803, -0.3855432, -0.38421297, 1.1805353, 0
877, 1423106916, 0.12176275, -0.14200166, 0.15549468, 0.9699876, -1.129325, -1.4730508, -0.8900404, 0
878, 1423123583, 0.122621804, -0.14175293, 0.15548958, 0.96991646, -0.6134978, 2.1383805, -0.03397274, 0
880, 1423156917, 0.12397152, -0.14049646, 0.15474184, 0.97004735, -0.2853051, -0.30756694, -0.79540443, 0
881, 1423173584, 0.12440038, -0.13957988, 0.15402165, 0.9702392, -0.064301476, 1.3183918, 1.7645206, 0
883, 1423206918, 0.12516919, -0.1397747, 0.15382563, 0.9701434, -0.11392373, 1.4080169, 1.4971924, 0
884, 1423223585, 0.12580484, -0.13911906, 0.1527421, 0.97032666, 0.30740187, -1.4131398, 1.2659416, 0
885, 1423240252, 0.12635341, -0.13915548, 0.15238737, 0.970306, 0.57739174, -0.7454511, 0.14711094, 0
887, 1423273586, 0.12698027, -0.1394549, 0.15218274, 0.9702133, 0.21645299, -0.03196202, 0.5846348, 0
888, 1423290253, 0.12746611, -0.13999598, 0.15172072, 0.97014403, 0.265882, 0.2092763, 1.5437279, 0
889, 1423306920, 0.1278156, -0.1394235, 0.15127566, 0.9702499, 0.70397735, -2.8924124, -0.4357748, 0
892, 1423356921, 0.12866446, -0.13887832, 0.15128994, 0.9702136, -0.2779692, 1.1096991, 1.1936255, 0
893, 1423373588, 0.12869456, -0.13829096, 0.15121566, 0.9703052, -0.022950942, 0.4595156, 3.2990465, 0
895, 1423406922, 0.12854788, -0.13922477, 0.15245311, 0.9699974, 0.20705454, 0.3947202, 0.4221773, 0
896, 1423423589, 0.12845269, -0.13873966, 0.15334459, 0.96993905, -0.07038613, -2.8276196, 0.15387917, 0
897, 1423440256, 0.12841219, -0.13919123, 0.15461497, 0.96967804, -0.6393796, -1.376838, -0.46864986, 0
899, 1423473590, 0.12827417, -0.13947728, 0.15620145, 0.96940076, 0.25188094, -0.22949852, 2.0362215, 0
900, 1423490257, 0.1285851, -0.13880064, 0.15632023, 0.9694376, -0.37494105, -2.3769445, 0.03982067, 0
901, 1423506924, 0.12930384, -0.13891381, 0.15654111, 0.96929014, -0.421311, -1.6990917, -0.26955795, 0
903, 1423540258, 0.1307525, -0.13895231, 0.15665449, 0.96907187, -0.74185413, -0.99213624, 0.3389511, 0
904, 1423556925, 0.13146481, -0.13833913, 0.15641986, 0.9691012, -0.4678662, -0.15017414, 1.8156977, 0
905, 1423573592, 0.13243198, -0.13796328, 0.1565882, 0.9689959, 0.104172915, -1.4443172, 1.3291817, 0
907, 1423606926, 0.13439366, -0.13780832, 0.15710054, 0.9686648, -1.3890568, -1.9994695, -1.1962595, 0
908, 1423623593, 0.13559851, -0.13760988, 0.15667786, 0.9685936, -1.005353, -0.73160475, 0.13213444, 0
910, 1423656927, 0.13763067, -0.13535802, 0.15516737, 0.9688674, 0.40934172, -0.22275402, 0.2732401, 0
911, 1423673594, 0.13848889, -0.13476804, 0.15425268, 0.9689735, -0.28577033, -0.32483506, 0.5861778, 0
912, 1423690261, 0.13954306, -0.1343444, 0.1531061, 0.969063, -0.43721566, 0.33115667, 0.9008703, 0
914, 1423723595, 0.14125922, -0.13373509, 0.15069106, 0.9692769, 0.15064034, -1.3170258, -0.8026905, 0
915, 1423740262, 0.14183137, -0.13372043, 0.14956206, 0.9693704, 0.51524144, 1.7951858, 1.422101, 0
916, 1423756929, 0.14229509, -0.13307896, 0.14839007, 0.9695708, 0.29146597, -1.38328, -0.1878004, 0
919, 1423806930, 0.14328843, -0.1333808, 0.14468239, 0.9699432, 0.902557, 0.08094857, 1.3019333, 0
920, 1423823597, 0.1433286, -0.13310315, 0.1433069, 0.9701797, 0.23624536, -2.5308757, -0.029847145, 0
922, 1423856931, 0.14402378, -0.13399278, 0.14142251, 0.9702307, 0.040626317, -0.63713664, 1.8823404, 0
923, 1423873598, 0.1441361, -0.13444062, 0.1407514, 0.9702498, 0.18812011, -2.9680343, 0.8148546, 0
924, 1423890265, 0.14457196, -0.13607481, 0.1406718, 0.9699687, 0.42761794, -2.108208, 0.44378662, 0
926, 1423923599, 0.14586192, -0.13993073, 0.14027603, 0.96928394, 0.0777519, -3.771978, -1.1032467, 0
927, 1423940266, 0.14586845, -0.13991652, 0.13980086, 0.9693537, 0.19895928, -5.0337963, -1.026495, 0
928, 1423956933, 0.14559275, -0.13936412, 0.13875413, 0.969625, 0.2922685, -4.443334, 0.47353745, 0
930, 1423990267, 0.1449607, -0.14091751, 0.13669783, 0.96978736, 0.13419381, -3.2147918, 1.6199741, 0
931, 1424006934, 0.1450493, -0.14289679, 0.13597965, 0.96958536, 0.33466876, -1.9650733, 1.0408964, 0
934, 1424056935, 0.1436069, -0.14683118, 0.13452655, 0.96941495, 0.2976805, -4.5189443, -0.86547756, 0
935, 1424073602, 0.14249998, -0.14770351, 0.13469091, 0.96942294, -0.06642618, -2.3604808, -0.21098423, 0
937, 1424106936, 0.14029676, -0.14820683, 0.13564013, 0.96953505, -0.352632, -2.0829747, -0.8545809, 0
938, 1424123603, 0.13929823, -0.14849135, 0.13620491, 0.96955633, 0.8902709, 1.8299332, -0.5595274, 0
939, 1424140270, 0.13822415, -0.14893621, 0.13796267, 0.96939325, 1.2795794, 0.016730113, -3.1783834, 0
941, 1424173604, 0.13572356, -0.14772707, 0.14349625, 0.96912825, 0.21170555, 5.2184043, 3.7701063, 0
942, 1424190271, 0.13409796, -0.1476309, 0.14724466, 0.96880686, 0.39829922, 7.294498, -0.2998047, 0
943, 1424206938, 0.13236943, -0.14642149, 0.15039502, 0.9687443, 0.20848472, 7.046294, 0.3563118, 0
945, 1424240272, 0.12878096, -0.14561336, 0.15586293, 0.9684854, 1.4793992, 5.777693, 0.89995575, 0
946, 1424256939, 0.12705848, -0.1454176, 0.15852033, 0.968311, 1.8457068, 2.1356697, 1.1937542, 0
949, 1424306940, 0.121390134, -0.14681968, 0.16434272, 0.96785575, 1.6161712, 3.7508888, 2.6925192, 0
950, 1424323607, 0.11869967, -0.14712758, 0.1649081, 0.9680466, 2.1935344, 4.953609, -0.21456528, 0
951, 1424340274, 0.115419924, -0.14755744, 0.1654126, 0.9682917, 3.3556921, 3.0824819, -1.8342328, 0
953, 1424373608, 0.10885781, -0.14743198, 0.16542509, 0.9690683, 0.2902182, 2.599736, 1.1317873, 0
954, 1424390275, 0.10620278, -0.14822124, 0.1658191, 0.9691751, 0.17849004, 3.1296122, 0.5954027, 0
955, 1424406942, 0.103589475, -0.14858784, 0.16641955, 0.96929884, -0.5227917, 2.396501, 1.8341427, 0
957, 1424440276, 0.100197315, -0.1499272, 0.16691145, 0.9693645, 0.13199745, 1.354559, 0.8700352, 0
958, 1424456943, 0.09903726, -0.15030572, 0.16649742, 0.96949655, -0.7282567, -1.0405139, -2.2792392, 0
959, 1424473610, 0.09852928, -0.15035237, 0.16533309, 0.96974015, -1.5324836, 2.3276918, 0.77385426, 0
961, 1424506944, 0.09806785, -0.1491973, 0.162245, 0.97048676, -0.9198459, 1.2532729, 1.0940447, 0
964, 1424556945, 0.09707528, -0.148447, 0.1614436, 0.97083503, -0.05577597, 0.6282891, 0.43412304, 0
965, 1424573612, 0.09663862, -0.14812563, 0.16131753, 0.9709487, -0.4703756, -1.3545927, 0.6014433, 0
966, 1424590279, 0.09630999, -0.1479169, 0.16155885, 0.970973, -0.46246785, -0.032879986, 0.51516914, 0
968, 1424623613, 0.09717792, -0.14851974, 0.16161291, 0.9707855, -0.87421346, 0.66896576, -0.06533909, 0
969, 1424640280, 0.098107606, -0.14726566, 0.16036174, 0.9710905, -1.0652642, -1.495121, 1.6730747, 0
970, 1424656947, 0.09931001, -0.14692946, 0.15956594, 0.97115034, -1.1785609, -3.0354996, -2.0627847, 0
972, 1424690281, 0.102280885, -0.14475825, 0.15888056, 0.9712805, -0.5822834, -2.349771, 1.3445663, 0
973, 1424706948, 0.104038835, -0.1446279, 0.15891321, 0.9711078, -0.6016442, -0.09772389, -0.42036152, 0
974, 1424723615, 0.10523841, -0.14445287, 0.1592041, 0.97095704, 0.5158551, 0.0041023567, -0.7191696, 0
976, 1424756949, 0.10693759, -0.14297889, 0.15951914, 0.9709377, 0.42077512, -2.8422725, 0.08120537, 0
977, 1424773616, 0.1079638, -0.14291154, 0.16011477, 0.9707359, -0.1700438, -0.6965857, 0.7536936, 0
978, 1424790283, 0.1086863, -0.14255479, 0.16073193, 0.97060585, -0.644046, -0.7024299, 0.23493576, 0
980, 1424823617, 0.10998213, -0.14258856, 0.16178681, 0.9702796, -0.4075179, -0.39003646, 0.5173397, 0
981, 1424840284, 0.1109243, -0.14261034, 0.16229533, 0.9700842, -0.2848188, -0.72197384, 0.5883112, 0
982, 1424856951, 0.112010956, -0.14235538, 0.16303436, 0.96987283, -1.369749, -0.49425095, 1.3898525, 0
984, 1424890285, 0.114956975, -0.14138632, 0.16306779, 0.9696642, -1.2773937, -0.4124548, 1.2004023, 0
985, 1424906952, 0.116793334, -0.14095107, 0.1627391, 0.96956325, -1.3800429, -1.7897869, -1.0609884, 0
986, 1424923619, 0.11884493, -0.1406527, 0.16254295, 0.9693903, -0.9280115, 1.8526826, 1.6148777, 0
988, 1424956953, 0.12293282, -0.1399328, 0.1606983, 0.96929216, -0.4005508, -1.0683931, 1.2838354, 0
991, 1425006954, 0.12891805, -0.1397543, 0.15895301, 0.9688281, -0.8595938, 0.368176, -0.14016724, 0
992, 1425023621, 0.13066703, -0.13941665, 0.15812436, 0.968778, 0.54181343, 0.9113343, 2.044814, 0
993, 1425040288, 0.13200998, -0.1389573, 0.15753095, 0.96875846, 0.9234257, -0.8273487, 1.5697832, 0
995, 1425073622, 0.13463503, -0.13638811, 0.15586208, 0.9690324, -1.1239026, -1.6468949, 0.89695644, 0
996, 1425090289, 0.13640887, -0.13725187, 0.15599783, 0.9686403, -1.1023751, -0.6155725, -2.959683, 0
997, 1425106956, 0.13797623, -0.13827501, 0.15579547, 0.9683054, -0.22151648, 4.813378, 1.3356514, 0
999, 1425140290, 0.139599, -0.13657728, 0.1524544, 0.9688455, 1.5996724, -1.1578273, 2.0952997, 0
1000, 1425156957, 0.1405322, -0.13608588, 0.15100838, 0.9690061, 0.7198022, -3.0088139, -1.3086758, 0
1001, 1425173624, 0.14144021, -0.13567807, 0.14968313, 0.96913683, -0.8776896, -0.40200514, 0.7645054, 0
1003, 1425206958, 0.14213178, -0.13581723, 0.14722459, 0.96939266, 0.51782227, 0.26942554, 1.0140142, 0
1005, 1425240292, 0.14157015, -0.13671876, 0.1461496, 0.9695108, 1.7021469, -1.8517706, -0.1467495, 0
1007, 1425273626, 0.13991725, -0.13650502, 0.14506759, 0.9699432, 0.5793248, -1.937687, 0.99443054, 0
1008, 1425290293, 0.13870826, -0.1366124, 0.144747, 0.97014964, 0.3253008, 0.10484322, 2.0142994, 0
1009, 1425306960, 0.13786376, -0.13760337, 0.14468226, 0.9701396, 0.36357003, 1.1282959, 5.9773684, 0
1011, 1425340294, 0.13817045, -0.14425059, 0.14685628, 0.9688028, 0.97359574, -6.6417446, -5.1186924, 0
1012, 1425356961, 0.13895744, -0.14895546, 0.14881752, 0.96767837, 1.3497087, -2.7527728, -4.4487963, 0
1014, 1425390295, 0.13669449, -0.14546491, 0.14859137, 0.96856606, -0.0687355, -1.4948509, 3.676694, 0
1015, 1425406962, 0.13652831, -0.14646876, 0.14874028, 0.96841526, 0.15599506, -2.3272152, 4.538, 0
1016, 1425423629, 0.13635787, -0.14818323, 0.1490264, 0.9681345, 0.49002612, -4.7854457, -0.5716381, 0
1018, 1425456963, 0.1369682, -0.1510584, 0.1483433, 0.9677088, -0.68916106, -4.5967803, -2.4149704, 0
1020, 1425490297, 0.13757262, -0.14985391, 0.14512402, 0.9682984, -0.30692077, -3.744765, 1.5150671, 0
1022, 1425523631, 0.13980255, -0.14981973, 0.14309543, 0.96828616, -0.90229726, -4.1644464, -1.1176567, 0
1023, 1425540298, 0.14173463, -0.1507588, 0.1416744, 0.96806836, -1.2383342, -0.05477207, -0.87143135, 0
1024, 1425556965, 0.14198583, -0.14878702, 0.1405135, 0.9685057, -0.84780693, -1.949629, 0.45411873, 0
1026, 1425590299, 0.14226869, -0.14834738, 0.14048746, 0.96853554, -0.9918071, 2.883221, -1.2289314, 0
1027, 1425606966, 0.14186999, -0.14798555, 0.14198484, 0.968431, 1.1538355, 2.6666284, -3.0443215, 0
1028, 1425623633, 0.14035863, -0.14564799, 0.1440747, 0.96869683, 1.1420213, 6.0322633, 2.5727596, 0
1030, 1425656967, 0.13654727, -0.14246741, 0.14913632, 0.96894866, 1.8968384, 6.2112994, -0.32619762, 0
1031, 1425673634, 0.13439086, -0.14285164, 0.15164433, 0.9688041, 2.0030508, 7.297401, -3.1688113, 0
1032, 1425690301, 0.13197571, -0.14330363, 0.15412475, 0.96867806, 1.2423414, 7.018438, -1.2240582, 0
1035, 1425740302, 0.12649867, -0.14503218, 0.15851024, 0.96844363, 1.5163763, 7.9226866, 2.6021442, 0
1036, 1425756969, 0.12423596, -0.14565906, 0.15900695, 0.9685611, 1.1421324, 5.465064, -1.0126705, 0
1038, 1425790303, 0.120301425, -0.14482604, 0.15821248, 0.9693124, -0.07228641, -0.41761038, -1.9090791, 0
1039, 1425806970, 0.11897725, -0.14465857, 0.15830468, 0.9694858, 0.15783136, 2.7044914, -0.30439568, 0
1040, 1425823637, 0.11754921, -0.14469925, 0.1594933, 0.9694592, -1.1446577, 2.5340092, -0.71596336, 0
1042, 1425856971, 0.11547914, -0.1445585, 0.16127619, 0.96943396, -1.4208257, 0.46081063, 1.7481079, 0
1043, 1425873638, 0.115163505, -0.14636852, 0.16240454, 0.9690115, 0.64832854, 3.8819497, -0.27681637, 0
1045, 1425906972, 0.1140731, -0.14666797, 0.16295864, 0.96900225, 0.30464625, -1.899596, -2.303594, 0
1046, 1425923639, 0.11400971, -0.14664386, 0.16254164, 0.9690833, 0.33630586, 0.0054600863, -2.8492537, 0
1047, 1425940306, 0.11373299, -0.14585744, 0.16137578, 0.9694293, 0.035457123, 0.52497494, 0.99888897, 0
1049, 1425973640, 0.11375722, -0.14463535, 0.15871686, 0.97004837, -0.34346125, 1.4205292, 2.606266, 0
1050, 1425990307, 0.114400625, -0.14526391, 0.15809555, 0.96998024, -0.2694585, 1.3914574, -1.4043055, 0
1051, 1426006974, 0.11486155, -0.14548804, 0.15742376, 0.97000146, -1.4160742, -0.55127054, -2.1009626, 0
1053, 1426040308, 0.11611739, -0.14478445, 0.15602209, 0.97018355, -1.09839, 0.063119836, 0.9110689, 0
1054, 1426056975, 0.11698875, -0.14493477, 0.15563002, 0.9701195, -0.76549405, 3.087946, 1.9666071, 0
1055, 1426073642, 0.11767331, -0.1452363, 0.1557555, 0.9699714, -0.016801342, -0.34557903, -1.0802736, 0
1057, 1426106976, 0.11949399, -0.14406712, 0.15410508, 0.9701868, -0.32489204, -2.6825335, -1.7142115, 0
1058, 1426123643, 0.120747864, -0.14425635, 0.15339689, 0.9701158, -0.31897464, 0.7121849, 0.14693928, 0
1059, 1426140310, 0.12179068, -0.14327326, 0.15264705, 0.9702493, -0.08673117, -0.38873363, 0.12908173, 0
1062, 1426190311, 0.12375939, -0.142719, 0.15239793, 0.9701209, 0.3040866, -1.5085604, -1.0193243, 0
1063, 1426206978, 0.123981714, -0.14244358, 0.15227199, 0.97015285, 0.94819134, -0.2148667, 0.20512772, 0
1065, 1426240312, 0.12379894, -0.14168039, 0.15191895, 0.97034335, 0.70458776, -0.5191617, 0.7588177, 0
1066, 1426256979, 0.1236369, -0.14169489, 0.1518282, 0.970376, 0.6640562, 0.4111342, 0.36403847, 0
1067, 1426273646, 0.1235722, -0.14185767, 0.15204293, 0.9703269, -0.40459096, -0.05333399, 2.5356493, 0
1069, 1426306980, 0.12417978, -0.1426959, 0.15259215, 0.9700401, -1.1238542, -0.34319276, -0.09721851, 0
1070, 1426323647, 0.12436944, -0.14203605, 0.15202089, 0.9702023, -0.029683044, -1.2810812, 1.4602051, 0
1072, 1426356981, 0.12579507, -0.14320835, 0.15115234, 0.9699819, 0.30753052, -0.05728595, 0.47740936, 0
1073, 1426373648, 0.12689075, -0.14398628, 0.1506043, 0.9698093, -0.8712697, -0.27198464, 1.4497509, 0
1074, 1426390315, 0.12781984, -0.14362763, 0.14965673, 0.96988726, -1.104661, -1.9865488, 0.6988754, 0
1077, 1426440316, 0.1301845, -0.14405069, 0.148442, 0.96969664, 0.1637328, -0.35222077, 1.1269455, 0
1078, 1426456983, 0.13077042, -0.14346623, 0.14760564, 0.969832, 0.6385844, -0.7881854, 1.4995604, 0
1080, 1426490317, 0.13228652, -0.1434526, 0.14624333, 0.9698349, -0.27891472, -0.57631326, 0.103342056, 0
1081, 1426506984, 0.13289693, -0.14360604, 0.14554802, 0.9698333, -0.7869752, -0.87291753, -0.16897202, 0
1082, 1426523651, 0.13317743, -0.14302047, 0.14429975, 0.9700678, 0.052021585, 0.27023363, 1.2427359, 0
1084, 1426556985, 0.13346222, -0.14300238, 0.14291799, 0.9702359, 0.49402288, -1.5131198, -0.70408916, 0
1085, 1426573652, 0.13343132, -0.14192207, 0.14189982, 0.9705481, 0.10796937, -0.67137426, 1.9097881, 0
1086, 1426590319, 0.13347971, -0.1413055, 0.14121388, 0.9707315, 0.0839225, -1.6894174, -0.27966785, 0
1088, 1426623653, 0.13294056, -0.1418161, 0.14047723, 0.97083783, 0.017793259, 2.108834, 1.374938, 0
1089, 1426640320, 0.13255712, -0.14131378, 0.13990413, 0.97104627, 0.46364585, -1.7942191, 0.95592785, 0
1092, 1426690321, 0.13083443, -0.14089125, 0.13853365, 0.97153765, 0.4087076, -2.638613, 0.64382935, 0
1093, 1426706988, 0.13058758, -0.1421419, 0.13856861, 0.9713837, -0.09491364, -0.8109402, -0.42493153, 0
1094, 1426723655, 0.13031656, -0.14266573, 0.13854441, 0.97134674, 0.26651704, -1.5550975, 1.7821732, 0
1096, 1426756989, 0.12977293, -0.144482, 0.1397045, 0.97098494, 0.17263016, -1.8065476, 0.55823326, 0
1097, 1426773656, 0.12944114, -0.14508292, 0.14037773, 0.97084236, 0.3668964, -3.0648162, 1.3079643, 0
1099, 1426806990, 0.1290347, -0.14565802, 0.1421646, 0.9705504, -0.5548148, -2.3038073, 2.1926622, 0
1100, 1426823657, 0.12899497, -0.14667922, 0.14330158, 0.97023463, -0.6795517, -4.803013, -0.6501789, 0
1101, 1426840324, 0.12969276, -0.14863911, 0.14397527, 0.96974343, 0.4312342, -2.5601823, -2.022707, 0
1103, 1426873658, 0.13013315, -0.14916503, 0.14338785, 0.9696907, -1.0558834, -2.9078119, 0.10505104, 0
1104, 1426890325, 0.13072911, -0.14843667, 0.1417897, 0.9699573, -0.47108808, -1.2417698, 3.976696, 0
1107, 1426940326, 0.1355694, -0.15113738, 0.13776958, 0.9694549, -1.7678934, -0.0960861, -2.95507, 0
1108, 1426956993, 0.13879117, -0.15455101, 0.13624667, 0.96867585, -2.1078486, 3.3227239, 0.13764095, 0
1109, 1426973660, 0.1399357, -0.15301833, 0.13549224, 0.96886027, -2.3755066, -1.4765512, 2.9624376, 0
1111, 1427006994, 0.14159429, -0.15024087, 0.13553168, 0.9690484, 0.18205501, 1.3700825, -4.324866, 0
1112, 1427023661, 0.14150304, -0.14773226, 0.13625056, 0.9693465, -0.65274906, 3.627082, -2.8406878, 0
1113, 1427040328, 0.14096698, -0.14599264, 0.13761729, 0.9694952, 0.95228636, 8.139964, 0.40226078, 0
1115, 1427073662, 0.13640279, -0.14184988, 0.14228731, 0.97008884, 1.904279, 6.5345564, -0.20988369, 0
1116, 1427090329, 0.13399732, -0.1405725, 0.14409377, 0.97034323, 1.2468215, 4.9097, 0.72386646, 0
1117, 1427106996, 0.13257724, -0.14126216, 0.14565127, 0.97020566, 1.2110837, 5.749439, 2.6665134, 0
1119, 1427140330, 0.12928945, -0.14213848, 0.14917755, 0.9699856, 1.2182552, 2.5831203, 1.424139, 0
1120, 1427156997, 0.12751803, -0.14179856, 0.15039125, 0.9700824, 1.4455901, 3.828642, -0.68659306, 0
1121, 1427173664, 0.12562135, -0.14110208, 0.15074654, 0.97037625, 1.7087858, 2.5825858, -0.99766064, 0
1123, 1427206998, 0.1214256, -0.13977842, 0.15039383, 0.97115624, -0.5541635, 2.6821475, 2.9110155, 0
1124, 1427223665, 0.119760126, -0.14024906, 0.15086609, 0.9712218, -0.5028917, 3.8237493, -0.39544296, 0
1126, 1427256999, 0.11556074, -0.14034837, 0.15345016, 0.9713115, -0.33383486, 0.21625516, -1.8668942, 0
1127, 1427273666, 0.11335167, -0.14048329, 0.15598664, 0.9711484, -0.33891824, 1.9514831, -0.12553024, 0
1128, 1427290333, 0.111573756, -0.14141968, 0.1592297, 0.9706919, 0.44336152, 3.6921952, 1.4195223, 0
1130, 1427323667, 0.1095677, -0.14320448, 0.1625863, 0.9701021, 0.4751989, 2.3515122, 1.041111, 0
1131, 1427340334, 0.10924253, -0.14374998, 0.16265969, 0.9700458, -1.0827305, 0.5760832, -0.60361195, 0
1134, 1427390335, 0.11096883, -0.14404164, 0.16159678, 0.96998423, -1.6984181, 0.7075421, 0.3512907, 0
1135, 1427407002, 0.11192706, -0.14349897, 0.16113001, 0.97003216, -1.2863584, 0.24219942, 0.55512047, 0
1136, 1427423669, 0.11319822, -0.14417143, 0.16181882, 0.96967024, -0.9927539, 1.6082033, -1.2303324, 0
1138, 1427457003, 0.11629364, -0.14212143, 0.16108172, 0.9697292, -0.4950552, -2.8088999, -1.1578465, 0
1139, 1427473670, 0.117929816, -0.14191824, 0.16128169, 0.9695282, -0.2621463, 1.5908921, 0.99828243, 0
1140, 1427490337, 0.119320095, -0.14081639, 0.16115406, 0.96954, -0.5842873, -1.5616953, 0.6210642, 0
1142, 1427523671, 0.12248686, -0.14050494, 0.16063213, 0.9692769, 0.4688022, 0.10807723, -0.5386267, 0
1143, 1427540338, 0.12407294, -0.14017864, 0.16010042, 0.9692105, 0.08933302, 0.37516594, 2.1768074, 0
1144, 1427557005, 0.12572655, -0.1394049, 0.15948479, 0.96921027, -0.5846823, -2.5346637, 0.6960077, 0
1146, 1427590339, 0.12950146, -0.13881458, 0.15896037, 0.96888417, -0.98631114, -0.74079406, -0.8694258, 0
1148, 1427623673, 0.13264349, -0.13638729, 0.15654282, 0.9691974, 0.16334803, -0.6954484, 1.6313553, 0
1150, 1427657007, 0.1357078, -0.13515307, 0.15421054, 0.96931994, -0.43559453, -0.47591788, -0.52258396, 0
1151, 1427673674, 0.13684052, -0.13506173, 0.15334803, 0.9693103, -0.0020090363, -0.6361496, 0.15232754, 0
1153, 1427707008, 0.13822389, -0.13495779, 0.15166013, 0.969394, 0.48299804, -1.6028368, -0.23168945, 0
1154, 1427723675, 0.13881361, -0.13433889, 0.15024513, 0.96961606, 1.0920974, 0.67717195, 1.2817688, 0
1155, 1427740342, 0.13933542, -0.13417098, 0.14900887, 0.9697552, 1.0592546, -0.43290424, 1.6017933, 0
1157, 1427773676, 0.1397782, -0.13455392, 0.14749372, 0.96987, -0.13717048, -1.0082799, -0.22267437, 0
1158, 1427790343, 0.14014778, -0.13477208, 0.14665343, 0.9699138, -0.23666896, 0.021305144, 1.5830011, 0
1159, 1427807010, 0.14010084, -0.13489263, 0.14587346, 0.9700215, 0.91530085, -1.0734255, 0.3516655, 0
1161, 1427840344, 0.13920906, -0.13567436, 0.14572652, 0.970063, 0.22194213, -0.17509301, -0.486619, 0
1163, 1427873678, 0.1383425, -0.1362648, 0.14553033, 0.97013354, 0.71153283, -2.0127077, -1.964632, 0
1165, 1427907012, 0.13662896, -0.13604431, 0.14642099, 0.97027326, 0.5906416, -2.403681, -0.0404768, 0
1166, 1427923679, 0.13588604, -0.13597871, 0.14812438, 0.9701283, 0.1989857, -0.71906346, -0.38183117, 0
1167, 1427940346, 0.13506508, -0.1360596, 0.1504521, 0.96987337, 0.116647355, 0.60767174, 0.22281075, 0
1169, 1427973680, 0.13333538, -0.13479954, 0.15389729, 0.9697482, -0.88506335, 0.10987696, 1.1319857, 0
1170, 1427990347, 0.13285214, -0.13440372, 0.15549207, 0.969615, -0.6139714, -1.2338758, -1.0205345, 0
1171, 1428007014, 0.13269556, -0.1351893, 0.15761724, 0.96918386, -0.00931808, -0.786851, -1.4481106, 0
1173, 1428040348, 0.13277864, -0.13561957, 0.16044013, 0.96864915, 0.35355937, 0.68583924, 1.9887457, 0
1174, 1428057015, 0.13302508, -0.1344567, 0.15995696, 0.9688574, -1.0065658, -2.235344, -0.66016006, 0
1175, 1428073682, 0.13395292, -0.13416125, 0.15908948, 0.96891326, -1.0623729, 0.19050501, 1.1767998, 0
1178, 1428123683, 0.1372776, -0.13316359, 0.1557996, 0.96912, -1.381934, 1.5496764, 1.5375118, 0
1180, 1428157017, 0.14066747, -0.13306618, 0.1519035, 0.96926594, -0.35710064, -0.044489697, 1.4832125, 0
1181, 1428173684, 0.14226243, -0.13357429, 0.15079203, 0.96913683, -1.0654216, -1.33938, 0.74163055, 0
1182, 1428190351, 0.1439828, -0.13355872, 0.14917414, 0.96913517, -0.99619365, -2.7009852, 1.2766113, 0
1184, 1428223685, 0.14830512, -0.13476007, 0.14622188, 0.9687669, 0.4044178, -2.9957235, -1.4560547, 0
1185, 1428240352, 0.15059903, -0.13761148, 0.14554514, 0.9681139, -0.41616333, -1.5690014, -1.7805128, 0
1186, 1428257019, 0.1523425, -0.138196, 0.14370643, 0.9680326, -0.33545214, -0.8318604, 3.177925, 0
1188, 1428290353, 0.15516478, -0.13983425, 0.14093047, 0.9677571, 0.19285086, -1.3420001, 1.8118782, 0
1189, 1428307020, 0.1555726, -0.1394333, 0.13975339, 0.9679202, 0.3442066, -5.8067255, 0.020424843, 0
1190, 1428323687, 0.15623787, -0.14072528, 0.13874483, 0.9677711, 0.17948724, -3.4411142, -0.04662609, 0
1192, 1428357021, 0.15662816, -0.14410527, 0.13829009, 0.9672756, -0.74463004, -5.6742187, -2.3485484, 0
1193, 1428373688, 0.15648034, -0.14462014, 0.13860157, 0.9671781, -0.5667449, -2.9718666, 0.79202175, 0
1194, 1428390355, 0.1555269, -0.14324078, 0.13901411, 0.9674779, 0.81082803, -4.76285, 1.7275267, 0
1196, 1428423689, 0.1545474, -0.14731777, 0.14105546, 0.9667269, 0.8845619, 0.29907286, 1.6897173, 0
1197, 1428440356, 0.15422595, -0.14901392, 0.1417402, 0.966418, -0.09338276, -1.790231, -3.4676003, 0
1198, 1428457023, 0.15327093, -0.14740121, 0.14192875, 0.9667896, -2.1967337, -2.0871584, -1.1675587, 0
1200, 1428490357, 0.15209249, -0.14581127, 0.14269818, 0.9671035, 1.6757884, 6.4316907, 4.2817, 0
1201, 1428507024, 0.14943486, -0.14181784, 0.14433554, 0.9678683, 0.34797642, 0.5167206, 5.1513767, 0
1203, 1428540358, 0.1475597, -0.14268093, 0.14804417, 0.96746904, -0.3969985, 11.079199, -6.36737, 0
1205, 1428573692, 0.14416593, -0.13914461, 0.14950599, 0.96827054, 1.72222, -1.8153523, 3.9154158, 0
1207, 1428607026, 0.14297923, -0.13988349, 0.15081717, 0.9681368, 1.0526972, 8.675049, 6.017062, 0
1208, 1428623693, 0.1427002, -0.13972959, 0.15054165, 0.96824306, 0.83433753, 4.3338118, -0.5592766, 0
1209, 1428640360, 0.14203396, -0.13965368, 0.14943834, 0.9685228, 1.4499922, 6.4061656, -1.2986536, 0
1211, 1428673694, 0.140127, -0.13719322, 0.14494063, 0.9698349, -1.6612118, 2.5675957, 1.1033068, 0
1212, 1428690361, 0.13969445, -0.13684031, 0.14243162, 0.9703187, -0.83097696, 4.0855756, -0.37110138, 0
1213, 1428707028, 0.13940224, -0.13620625, 0.14079155, 0.9706893, -1.0179981, 5.485911, 2.8138304, 0
1215, 1428740362, 0.13936743, -0.13729529, 0.13906604, 0.9707895, -0.68676454, 3.777035, -0.061451912, 0
1216, 1428757029, 0.13919628, -0.13776061, 0.13866518, 0.9708055, 0.29641956, 0.92654926, -3.109281, 0
1217, 1428773696, 0.1388393, -0.1378377, 0.13820532, 0.97091126, 0.40733778, -0.8293081, -3.2069187, 0
1220, 1428823697, 0.13843709, -0.13614397, 0.13543876, 0.9715974, 1.1044608, 3.2991776, 3.2878122, 0
1221, 1428840364, 0.13845357, -0.13638444, 0.13482475, 0.9716466, 0.28222665, 1.0136359, 1.451375, 0
1223, 1428873698, 0.13802963, -0.1378017, 0.13398103, 0.9716237, 0.6848093, -2.2968822, -2.5693235, 0
1224, 1428890365, 0.13735226, -0.13713413, 0.13290854, 0.9719614, 0.55901647, -2.5910623, -1.0222635, 0
1225, 1428907032, 0.1365619, -0.13663661, 0.13244565, 0.972206, 1.1212286, -0.26470917, 1.5853529, 0
1227, 1428940366, 0.13418525, -0.13666132, 0.13242403, 0.9725363, 0.4785543, 0.034957204, -0.09361935, 0
1228, 1428957033, 0.13283387, -0.13651899, 0.13230348, 0.9727582, 0.80917066, -0.07468406, 1.800828, 0
1229, 1428973700, 0.13131392, -0.13604458, 0.13226573, 0.97303617, 1.0214165, -3.588923, -0.18834782, 0
1231, 1429007034, 0.12798402, -0.13634026, 0.13316676, 0.9733155, 0.3674778, -0.71839905, -0.6872053, 0
1232, 1429023701, 0.12667161, -0.13598114, 0.13344254, 0.97349966, 0.05172208, 1.5797626, 1.7440786, 0
1235, 1429073702, 0.124096125, -0.13532872, 0.13439116, 0.97379166, -0.640168, -1.533519, 0.33895397, 0
1236, 1429090369, 0.12422991, -0.1365957, 0.13496843, 0.97351784, -0.97324234, -0.82736886, -3.5040383, 0
1238, 1429123703, 0.12565356, -0.13754813, 0.13318804, 0.97344637, 0.2871086, 2.113842, 3.8008795, 0
1239, 1429140370, 0.12631458, -0.13579339, 0.13183627, 0.9737911, 0.07847395, -3.4427297, 2.5319462, 0
1240, 1429157037, 0.12712061, -0.1359758, 0.13177456, 0.97366893, -1.8220001, -3.350537, -1.5386152, 0
1242, 1429190371, 0.12894198, -0.13638435, 0.13285817, 0.973225, -0.31707424, -3.6477854, -6.5855026, 0
1243, 1429207038, 0.12924701, -0.13747616, 0.13384238, 0.9728959, 1.0641062, 6.491999, 2.5071201, 0
1244, 1429223705, 0.12886402, -0.13727085, 0.13392001, 0.9729651, 2.857206, -0.020332191, 1.7337322, 0
1246, 1429257039, 0.12893489, -0.13644607, 0.13409418, 0.97304785, 0.8876556, -2.18909, 0.0490942, 0
1247, 1429273706, 0.12917799, -0.13687925, 0.13437603, 0.9729158, -0.8319055, -0.63853055, -1.427393, 0
1250, 1429323707, 0.12916577, -0.13793781, 0.13262853, 0.97300774, 1.4856982, -0.245899, 0.6008835, 0
1251, 1429340374, 0.12908962, -0.13745415, 0.13184136, 0.9731933, 0.8355047, -5.611557, -3.103582, 0
1252, 1429357041, 0.12887126, -0.13673528, 0.13147666, 0.9733728, 0.055774458, -2.9918602, -1.4106226, 0
1254, 1429390375, 0.12809649, -0.13540503, 0.13018923, 0.97383386, 0.46297184, 2.759092, 3.9528522, 0
1255, 1429407042, 0.12786394, -0.13518193, 0.13032638, 0.97387713, 1.2816771, 5.3514194, 2.7736712, 0
1256, 1429423709, 0.12740308, -0.1360438, 0.13157992, 0.97364897, -0.65039915, -5.0946465, -0.076042175, 0
1258, 1429457043, 0.12755367, -0.13741292, 0.13265935, 0.9732905, 0.46918967, 1.9326571, 0.29865456, 0
1259, 1429473710, 0.1271587, -0.13758561, 0.13275489, 0.9733046, 0.97446007, 0.480941, 1.947298, 0
1261, 1429507044, 0.12725097, -0.13748077, 0.13215336, 0.97338927, 0.2623888, 0.3759984, -0.21967793, 0
1262, 1429523711, 0.12785414, -0.1388503, 0.13239613, 0.9730828, -0.081738, -0.7745942, -0.28280067, 0
1263, 1429540378, 0.12801677, -0.13863759, 0.13203885, 0.97314024, -0.89590734, -3.295409, 0.42458057, 0
1265, 1429573712, 0.12909743, -0.14094056, 0.13278434, 0.9725651, -0.39924064, -1.3672605, 0.53318596, 0
1266, 1429590379, 0.1294587, -0.14225838, 0.13348699, 0.97222894, -0.6207282, -0.6738165, 1.0352039, 0
1267, 1429607046, 0.12987459, -0.14363423, 0.13439545, 0.971846, 0.0031529018, -2.6136484, -0.48780537, 0
1269, 1429640380, 0.12993005, -0.14600487, 0.13690716, 0.9711345, 0.49943545, -3.2477932, -0.4584322, 0
1270, 1429657047, 0.13025135, -0.14815229, 0.13917746, 0.97044325, 1.1869227, -1.9177479, 1.1562405, 0
1271, 1429673714, 0.13046715, -0.15004453, 0.14075644, 0.9698956, -0.42489082, -3.6917078, -0.8333559, 0
1273, 1429707048, 0.13165286, -0.1521532, 0.14294024, 0.9690871, 1.4195237, -5.2916336, -0.8516016, 0
1274, 1429723715, 0.13217625, -0.1529606, 0.14343025, 0.9688165, 0.4607932, -4.1962395, 0.6890249, 0
1277, 1429773716, 0.13629317, -0.15641826, 0.14369278, 0.96765435, -0.537851, -4.0819383, 0.62941265, 0
1278, 1429790383, 0.14089271, -0.15679604, 0.1441624, 0.9668642, -0.038208395, -3.0750751, -0.05981922, 0
1279, 1429807050, 0.14471114, -0.1571672, 0.1464743, 0.965892, 0.06107898, -2.546719, -0.93570614, 0
1281, 1429840384, 0.14401758, -0.15260915, 0.15292658, 0.9657266, -1.4570794, 0.5635249, -0.19084549, 0
1282, 1429857051, 0.14240259, -0.14880627, 0.1565267, 0.9659827, 0.16244611, -1.8944509, -0.20470905, 0
1283, 1429873718, 0.14059976, -0.14682546, 0.1605644, 0.96588725, 2.5679147, 0.39125964, -2.7119818, 0
1285, 1429907052, 0.13574809, -0.14330158, 0.16900629, 0.96567035, -0.9946113, 3.144446, 1.9740009, 0
1286, 1429923719, 0.13473326, -0.1427058, 0.17258668, 0.9652672, -2.375088, 4.8545966, 0.47416592, 0
1288, 1429957053, 0.13318741, -0.14114487, 0.17614555, 0.96506834, -0.18576458, 4.3554807, 0.4053955, 0
1289, 1429973720, 0.13318443, -0.1404422, 0.17746215, 0.9649302, 0.34466082, 4.23161, 2.9414597, 0
1292, 1430023721, 0.1353603, -0.14015514, 0.17756315, 0.96465033, 0.29403886, 3.8037534, 0.39422512, 0
1293, 1430040388, 0.13572323, -0.13944837, 0.17503875, 0.9651632, 1.38284, 5.098919, -1.4840488, 0
1294, 1430057055, 0.13554826, -0.13810275, 0.17160207, 0.9659979, 1.5815017, 5.0089436, -0.5277176, 0
1296, 1430090389, 0.13499835, -0.13689135, 0.16635577, 0.9671644, -1.6787951, 4.679416, -1.0224514, 0
1297, 1430107056, 0.13495767, -0.13719185, 0.1648591, 0.96738374, -0.7886222, 5.226339, -0.7098484, 0
1298, 1430123723, 0.13479528, -0.1368543, 0.16307795, 0.967756, -1.1010679, 1.2891397, 0.095788956, 0
1300, 1430157057, 0.13591734, -0.13711724, 0.15923437, 0.9682017, -0.14110182, 3.1270468, 0.7450428, 0
1301, 1430173724, 0.13709962, -0.1379584, 0.15753771, 0.9681932, -1.4244809, 3.0537972, 0.12369728, 0
1302, 1430190391, 0.138619, -0.13692607, 0.15446246, 0.96861875, -1.9094551, 1.0827217, 2.3155365, 0
1304, 1430223725, 0.14257029, -0.1367711, 0.15022874, 0.968733, -0.28504616, 1.9498247, 0.79861546, 0
1306, 1430257059, 0.14697447, -0.13451919, 0.14650293, 0.96896076, -0.19627595, 1.9386021, -0.45871067, 0
1308, 1430290393, 0.1505428, -0.13352726, 0.14330253, 0.9690287, 1.078682, 1.6597192, 2.6558504, 0
1309, 1430307060, 0.15196091, -0.13313487, 0.1408475, 0.96922135, -0.10489471, -1.2058123, 0.7127991, 0
1310, 1430323727, 0.15332821, -0.13313392, 0.13844058, 0.9693529, 0.19786967, -0.31791925, -0.12500572, 0
1312, 1430357061, 0.15497082, -0.13259116, 0.13423398, 0.9697576, 0.3372971, -2.4739518, -0.275465, 0
1313, 1430373728, 0.15541452, -0.13156255, 0.1321541, 0.9701124, 0.12684296, -0.22613789, 2.2945127, 0
1315, 1430407062, 0.15616521, -0.13294941, 0.12976125, 0.9701257, -0.19469513, 1.7573297, -0.12845135, 0
1316, 1430423729, 0.15613389, -0.13304445, 0.12855302, 0.97027856, 0.42291218, -0.9231051, 0.089588165, 0
1317, 1430440396, 0.15601066, -0.13286649, 0.1273225, 0.9704851, 1.2160048, -1.6949123, 1.8856525, 0
1319, 1430473730, 0.15581551, -0.13434404, 0.12645829, 0.97042584, -0.038434204, 0.58670753, 0.25561047, 0
1321, 1430507064, 0.1553002, -0.13426548, 0.12499693, 0.9707086, 1.0234017, -1.8638563, 0.6946602, 0
1323, 1430540398, 0.1551075, -0.134998, 0.123860106, 0.9707837, 0.0125157265, -2.4850764, -1.2206364, 0
1324, 1430557065, 0.15505064, -0.1354177, 0.12330674, 0.97080463, 0.3578747, -1.097918, -0.16873455, 0
1325, 1430573732, 0.15469497, -0.1349586, 0.12240804, 0.9710392, 1.2834152, -1.7873969, 1.187664, 0
1327, 1430607066, 0.15304896, -0.13477182, 0.12241222, 0.97132516, 1.2029419, -0.9449519, 0.02508545, 0
1328, 1430623733, 0.15173367, -0.13446745, 0.12277596, 0.9715278, 0.4757788, 1.1659151, 2.7871141, 0
1329, 1430640400, 0.15036869, -0.13565558, 0.12378329, 0.97144705, 0.58725536, -1.732537, -0.9354334, 0
1331, 1430673734, 0.14513633, -0.13693203, 0.1263146, 0.97173786, 2.529101, -4.148249, -1.6591206, 0
1332, 1430690401, 0.14255995, -0.13756184, 0.12751408, 0.97187376, 2.3856483, 0.99154985, 0.5464144, 0
1333, 1430707068, 0.14042848, -0.13832617, 0.1281396, 0.9719933, 2.2873101, 0.78747535, 2.3762197, 0
1335, 1430740402, 0.13695207, -0.13684791, 0.12732325, 0.9728055, -0.79164, -1.9972332, 1.7063131, 0
1336, 1430757069, 0.13589448, -0.13754418, 0.12733953, 0.9728534, -1.8849274, -2.560872, -2.2981334, 0
1337, 1430773736, 0.13558143, -0.13963254, 0.12764217, 0.97256, -1.5893964, 4.2579865, -0.34667206, 0
1339, 1430807070, 0.13408485, -0.1396672, 0.12749262, 0.972782, 0.90705866, -2.2674644, 0.51472855, 0
1340, 1430823737, 0.13388744, -0.13934797, 0.12733158, 0.9728761, 0.1655338, -1.3609241, 0.4332962, 0
1342, 1430857071, 0.1338264, -0.13960513, 0.1282712, 0.97272426, -0.69862777, 1.653936, 0.31798744, 0
1343, 1430873738, 0.13358194, -0.13994773, 0.12897594, 0.97261536, -0.309298, 1.5536764, 0.21308231, 0
1344, 1430890405, 0.13317889, -0.13996953, 0.12938285, 0.9726136, 0.8276741, 0.36797675, -0.10323429, 0
1346, 1430923739, 0.13228765, -0.13916585, 0.13018295, 0.97274375, 1.0269558, -0.09221295, 0.84407425, 0
1348, 1430957073, 0.13099569, -0.13841659, 0.13188095, 0.9727967, -0.82822883, -0.53149515, 0.6503029, 0
1350, 1430990407, 0.1302273, -0.1387114, 0.13426058, 0.97253233, 0.0219727, 0.145904, 0.031956673, 0
1351, 1431007074, 0.12992063, -0.13947341, 0.1356558, 0.9722707, -0.09533149, -2.7157815, -2.1913142, 0
1352, 1431023741, 0.12934548, -0.13786955, 0.13539673, 0.97261214, -0.16814516, -2.4237192, 0.26718044, 0
1354, 1431057075, 0.12983358, -0.1371282, 0.13522735, 0.97267544, 0.30161133, 1.049878, 3.218853, 0
1355, 1431073742, 0.13031012, -0.13651939, 0.13503832, 0.9727236, -0.87294316, -2.0850656, 0.50055313, 0
1356, 1431090409, 0.13110787, -0.13720503, 0.13533336, 0.972479, -1.3815645, -1.6162609, -0.71614933, 0
1358, 1431123743, 0.13278255, -0.13777046, 0.1360834, 0.9720671, -0.72824866, -2.5787907, 0.98627186, 0
1359, 1431140410, 0.1339379, -0.13826162, 0.13684648, 0.97173166, -0.77961004, -3.6166842, 1.7199812, 0
1360, 1431157077, 0.13529786, -0.13960162, 0.13774046, 0.97122526, -0.8889678, -4.6412296, -0.91181755, 0
1363, 1431207078, 0.1405395, -0.14387763, 0.13860433, 0.9697328, 0.2735673, -5.665753, -0.76274586, 0
1364, 1431223745, 0.14235193, -0.1447124, 0.13857059, 0.969349, -0.40984243, -4.6001554, 0.08113861, 0
1366, 1431257079, 0.14508915, -0.14627399, 0.1400684, 0.96849316, -1.8381453, -3.5340364, 0.59566116, 0
1367, 1431273746, 0.14670351, -0.148683, 0.14194733, 0.96760905, -0.93299264, -1.3766997, 1.8082867, 0
1369, 1431307080, 0.14872727, -0.15153156, 0.14527205, 0.966364, -0.219945, -2.74517, -2.2160258, 0
1370, 1431323747, 0.14913014, -0.15148973, 0.14635874, 0.96614444, 0.23940891, -3.0460398, -1.0113955, 0
1371, 1431340414, 0.14896101, -0.14869025, 0.14678675, 0.9665404, -0.55008405, -1.6604494, 2.2376995, 0
1373, 1431373748, 0.14955133, -0.14684297, 0.14809538, 0.966532, -0.70732796, 1.8707578, -3.0444937, 0
1374, 1431390415, 0.14982563, -0.14481139, 0.14816846, 0.96678495, -1.6432259, 2.7197788, -1.409009, 0
1375, 1431407082, 0.14963475, -0.14364308, 0.14897707, 0.9668644, 1.2323055, 2.3722057, -3.4212775, 0
1378, 1431457083, 0.14780158, -0.13878024, 0.15141857, 0.9674772, 0.7661895, 5.7174644, 1.3204784, 0
1379, 1431473750, 0.1472708, -0.1380408, 0.15173699, 0.96761405, 0.74209327, 3.9852889, 4.0233593, 0
1381, 1431507084, 0.14764905, -0.1384564, 0.15192829, 0.96746695, -0.114682615, 7.0937896, 1.8256407, 0
1382, 1431523751, 0.14857605, -0.13771985, 0.15092075, 0.9675878, 0.5661201, 4.4062743, 2.19907, 0
1383, 1431540418, 0.14960763, -0.1368658, 0.149248, 0.96780944, 0.45148924, 3.9192183, 1.452014, 0
1385, 1431573752, 0.14886054, -0.13539615, 0.14542814, 0.96871245, 0.9598404, 6.3887305, -0.34264946, 0
1386, 1431590419, 0.14720047, -0.13483998, 0.14404936, 0.96924967, 1.129075, 6.9798946, -0.002111435, 0
1387, 1431607086, 0.14537212, -0.13527545, 0.14362668, 0.9695277, 0.8828151, 3.602185, -3.461924, 0
1389, 1431640420, 0.14053747, -0.13642633, 0.14545275, 0.9698069, 1.324233, 2.3904586, -0.11921406, 0
1390, 1431657087, 0.13770571, -0.13797006, 0.14726144, 0.9697219, 1.2567639, 4.3742065, 1.2407465, 0
1393, 1431707088, 0.1303905, -0.14259371, 0.15209956, 0.9693173, 1.7059027, -0.47587952, -0.31961823, 0
1394, 1431723755, 0.12883171, -0.14333466, 0.15283687, 0.9693005, -0.50400525, -1.1373365, -0.17433453, 0
1396, 1431757089, 0.12700704, -0.14390357, 0.15339144, 0.9693694, -2.0505106, 1.7904754, -0.057252884, 0
1397, 1431773756, 0.12673774, -0.14216508, 0.1529257, 0.9697348, -1.3077909, 0.8047412, 3.1477194, 0
1398, 1431790423, 0.12660989, -0.1428403, 0.15425539, 0.96944153, -0.94308543, 0.33919823, -0.3754816, 0
1400, 1431823757, 0.12687272, -0.14253189, 0.15698744, 0.9690139, -0.51298636, -1.7758493, -0.5989733, 0
1401, 1431840424, 0.12746781, -0.14285228, 0.1589223, 0.9685731, 0.15324193, 0.18415143, -0.47860527, 0
1402, 1431857091, 0.12793058, -0.14291205, 0.16011423, 0.968307, 0.1454241, -1.0271664, -1.0715799, 0
1404, 1431890425, 0.12958747, -0.14211214, 0.16237965, 0.96782696, -0.6020978, -1.3267926, 0.17990112, 0
1405, 1431907092, 0.13078359, -0.14226958, 0.16337639, 0.9674751, -1.2902613, -0.5294095, 0.39691162, 0
1406, 1431923759, 0.13209209, -0.14213564, 0.16391547, 0.9672259, -1.3609542, -1.8495893, 0.5519829, 0
1408, 1431957093, 0.13561237, -0.14183164, 0.1645565, 0.9666742, -0.75004464, -1.711783, 0.58720875, 0
1409, 1431973760, 0.13786805, -0.14099862, 0.1637539, 0.9666134, -0.8007979, -2.3496177, 1.0547972, 0
1410, 1431990427, 0.14041546, -0.14056928, 0.16279945, 0.96647054, -1.4792491, -0.40250582, 1.3327217, 0
1412, 1432023761, 0.14501268, -0.13825764, 0.16024081, 0.9665527, -1.6891804, -3.6067972, -0.4940977, 0
1413, 1432040428, 0.14708593, -0.13793118, 0.15987541, 0.9663465, -1.4236045, -2.164753, -1.2589436, 0
1414, 1432057095, 0.14894676, -0.13718502, 0.15926048, 0.96626925, -0.41699502, -1.2078913, -0.16897583, 0
1416, 1432090429, 0.15185899, -0.13541561, 0.1582939, 0.9662244, 1.390586, -0.98844546, 1.7966404, 0
1417, 1432107096, 0.15291959, -0.13404213, 0.15745147, 0.9663862, -0.18041782, -2.65137, 0.33395004, 0
1420, 1432157097, 0.15498647, -0.13293299, 0.15664934, 0.96634054, 0.041507732, -1.5156102, 0.1532116, 0
1421, 1432173764, 0.1557822, -0.13346726, 0.15655427, 0.9661544, 0.15859213, 0.30676517, 0.53624535, 0
1423, 1432207098, 0.15781239, -0.13258892, 0.1546367, 0.9662545, -0.5153958, -1.1618418, -0.33990574, 0
1424, 1432223765, 0.15897265, -0.13196394, 0.15270162, 0.9664576, -0.8222701, 0.31720343, 1.6835232, 0
1425, 1432240432, 0.16037372, -0.1319705, 0.15074691, 0.9665321, -0.92275214, -0.068727665, 0.046684265, 0
1427, 1432273766, 0.16277006, -0.1318599, 0.14691353, 0.9667369, 0.23205201, 0.48949885, 1.5775537, 0
1428, 1432290433, 0.16353798, -0.13110882, 0.14485133, 0.9670205, 0.38695446, -1.0389193, -0.14613247, 0
1429, 1432307100, 0.16407457, -0.13129799, 0.14376536, 0.96706617, 0.13045181, -0.6543917, -0.44930363, 0
1431, 1432340434, 0.16394949, -0.1313419, 0.14184164, 0.96736526, 0.6232236, 0.74739736, -0.27858734, 0
1432, 1432357101, 0.16329703, -0.13121504, 0.14127034, 0.9675766, 1.8877835, 1.0068598, 0.758132, 0
1435, 1432407102, 0.16067687, -0.13202547, 0.14099725, 0.96794474, 0.31230974, 0.9975618, 0.7237463, 0
1436, 1432423769, 0.15940332, -0.13284007, 0.14204818, 0.96789014, 0.03187346, -0.02506016, -1.1417685, 0
1437, 1432440436, 0.15829304, -0.13389213, 0.14250961, 0.9678596, -0.14784887, 1.9479645, 1.9621668, 0
1439, 1432473770, 0.15654406, -0.13507368, 0.143117, 0.96789026, 0.9207496, -0.3056192, 0.44945621, 0
1440, 1432490437, 0.15565816, -0.135016, 0.14302333, 0.96805507, -0.41489413, -1.753406, -0.3476162, 0
1441, 1432507104, 0.15530506, -0.13549984, 0.14346848, 0.96797824, -0.4617533, 1.8642832, 1.8587856, 0
1443, 1432540438, 0.15492928, -0.13483438, 0.14310937, 0.9681846, -0.53981656, -0.13796394, 0.8191452, 0
1444, 1432557105, 0.15492246, -0.13512628, 0.1430382, 0.9681554, -0.6432829, 0.062435437, -0.88201237, 0
1445, 1432573772, 0.15502664, -0.13499732, 0.14271097, 0.9682051, -0.7872457, -0.110359296, 1.0947485, 0
1447, 1432607106, 0.15586638, -0.13484037, 0.14145757, 0.968276, 0.4939335, 0.4296299, 1.5420895, 0
1450, 1432657107, 0.15666217, -0.13355061, 0.13985336, 0.96855915, 0.49795547, -0.5423556, -0.38852596, 0
1451, 1432673774, 0.15689516, -0.13260403, 0.13883367, 0.9687984, 0.52513164, -0.84486043, 1.5024309, 0
1452, 1432690441, 0.157179, -0.13273469, 0.13825518, 0.96881723, 0.9522841, -0.18691573, 1.0574703, 0
1454, 1432723775, 0.15772188, -0.1345946, 0.13792709, 0.9685191, -0.37182343, -2.3774335, -0.4708023, 0
1455, 1432740442, 0.15824288, -0.13582794, 0.13772778, 0.9682903, -0.28571922, -3.8638535, -0.19924545, 0
1456, 1432757109, 0.15880528, -0.1374471, 0.13746822, 0.9680066, 0.3943387, -3.893354, -0.64777374, 0
1458, 1432790443, 0.15929475, -0.14002033, 0.13756517, 0.9675435, -0.12543362, -3.8611474, 0.9347477, 0
1459, 1432807110, 0.15981981, -0.1419273, 0.13778158, 0.9671482, 0.15940793, -3.5040653, 0.041557312, 0
1460, 1432823777, 0.16077271, -0.14490537, 0.13828701, 0.9664762, 0.11125979, -4.7371597, -1.7414541, 0
1462, 1432857111, 0.1600247, -0.1449421, 0.13699749, 0.9667784, 0.893046, -2.9907553, 5.4585876, 0
1464, 1432890445, 0.16092432, -0.14943752, 0.1362869, 0.9660448, -0.060688376, -3.2105978, -2.454132, 0
1466, 1432923779, 0.16141745, -0.15054797, 0.13497919, 0.96597385, -1.2670186, -5.314637, -0.33641243, 0
1467, 1432940446, 0.16096458, -0.15030405, 0.1344418, 0.96616226, 0.30105424, -4.812634, -0.25965214, 0
1468, 1432957113, 0.16059712, -0.14831597, 0.13327059, 0.96669286, -1.0413179, 0.61828935, 4.1953545, 0
1470, 1432990447, 0.16102493, -0.14670654, 0.13313286, 0.96688616, -3.5304601, 2.3676746, -0.016531944, 0
1471, 1433007114, 0.16149884, -0.14659332, 0.13434952, 0.96665597, -1.2278883, 0.86543095, -4.77489, 0
1472, 1433023781, 0.16187525, -0.14635734, 0.1355265, 0.9664643, -2.0107722, 7.3034444, 0.511075, 0
1474, 1433057115, 0.16197419, -0.14302646, 0.13810459, 0.9665816, 0.76584387, 9.492329, 2.5200558, 0
1475, 1433073782, 0.16140118, -0.14197853, 0.14005095, 0.9665519, 1.000741, 6.6973968, -0.09009647, 0
1477, 1433107116, 0.15850186, -0.13954315, 0.14409906, 0.96679115, 2.067962, 2.3183913, -1.0524979, 0
1478, 1433123783, 0.15739805, -0.13934088, 0.14542899, 0.96680164, 3.1516087, 4.569777, 1.2744017, 0
1479, 1433140450, 0.15637258, -0.13869707, 0.14616746, 0.9669492, 2.649677, 4.348519, 4.9759026, 0
1481, 1433173784, 0.15446264, -0.13665093, 0.14508039, 0.967711, 1.6325172, 4.5855813, -1.1166315, 0
1482, 1433190451, 0.15359426, -0.13731301, 0.1438821, 0.96793425, 1.6184099, 4.9638104, -4.685008, 0
1483, 1433207118, 0.15253729, -0.13642763, 0.14160319, 0.9685625, -0.17287916, 2.11527, 0.7364578, 0
1485, 1433240452, 0.15186289, -0.13562338, 0.13787977, 0.9693185, -1.2686871, 2.5938938, 1.0129681, 0
1486, 1433257119, 0.15154538, -0.13613518, 0.13696943, 0.96942544, -0.82047194, 2.174968, -2.836339, 0
1487, 1433273786, 0.1513246, -0.13626038, 0.13626526, 0.96954155, -0.65371233, 1.4532492, -1.0170326, 0
1490, 1433323787, 0.15023577, -0.13662735, 0.13451059, 0.9699042, 0.42144197, -1.1761831, -0.91060925, 0
1493, 1433373788, 0.14569184, -0.13789462, 0.13475542, 0.97038394, 2.520352, -0.061155267, 0.023004532, 0
1494, 1433390455, 0.14319783, -0.13906945, 0.13566627, 0.97046053, 2.0616913, 3.0238705, 1.1527281, 0
1495, 1433407122, 0.140582, -0.14010574, 0.13705347, 0.97049904, 1.0107837, 0.7413491, 3.59552, 0
1497, 1433440456, 0.13557994, -0.1422148, 0.13951372, 0.9705534, 1.349204, -2.0528064, -3.4155898, 0
1498, 1433457123, 0.13264915, -0.14170763, 0.13986959, 0.97098136, 1.7279787, -1.6573447, -0.535903, 0
1499, 1433473790, 0.13016048, -0.14157957, 0.14040288, 0.9712597, 0.3978251, -0.47139674, 2.5406437, 0
1501, 1433507124, 0.12710845, -0.1414308, 0.1414823, 0.971529, -0.8542104, 0.040863197, 0.4323988, 0
1502, 1433523791, 0.12601507, -0.14159174, 0.14235038, 0.97152114, -0.39031985, -0.16748162, -0.17869568, 0
1504, 1433557125, 0.123698056, -0.14125942, 0.14442687, 0.97156084, -0.6953135, -2.1333334, -0.5734129, 0
1505, 1433573792, 0.12327263, -0.14181621, 0.14614041, 0.9712775, -0.6861109, 2.333524, 0.7809763, 0
1508, 1433623793, 0.122951, -0.14095068, 0.15050517, 0.9707775, -0.6363373, 0.37516895, 0.87206554, 0
1509, 1433640460, 0.12347755, -0.14094147, 0.15203293, 0.970474, -1.7213926, 0.34148788, -0.42573833, 0
1510, 1433657127, 0.12446773, -0.14059041, 0.15298696, 0.9702485, -1.7419097, 0.412333, -0.1498518, 0
1512, 1433690461, 0.12694606, -0.13934046, 0.15462366, 0.9698481, -1.3627377, -1.4121841, -1.4347734, 0
1513, 1433707128, 0.12850824, -0.13875593, 0.15509945, 0.96965027, -1.3840535, 1.5998025, 2.5335302, 0
1514, 1433723795, 0.13051611, -0.137418, 0.15507649, 0.96957636, -0.11982378, -1.1929365, 1.3885899, 0
1516, 1433757129, 0.13450548, -0.13685635, 0.15622106, 0.9689264, -1.0695623, -0.3067692, 0.83768463, 0
1517, 1433773796, 0.13661635, -0.13697378, 0.15675056, 0.968529, -1.2879279, -1.3573086, -0.22182274, 0
1518, 1433790463, 0.13848165, -0.13696733, 0.15685686, 0.9682478, -0.41881645, -0.62860835, -1.2198896, 0
1520, 1433823797, 0.14218351, -0.13615234, 0.1557329, 0.9680076, 0.580171, -0.46180168, 1.1529236, 0
1522, 1433857131, 0.14596179, -0.13599786, 0.15403573, 0.9677384, -1.2148242, -1.3547139, -0.12317371, 0
1524, 1433890465, 0.14927134, -0.13570914, 0.15224884, 0.96755683, -0.13465813, -1.0821295, -0.40625954, 0
1525, 1433907132, 0.15042588, -0.1356764, 0.15145011, 0.96750796, 0.3316292, -0.10616732, 0.6351385, 0
1526, 1433923799, 0.15126258, -0.13517156, 0.15039034, 0.9676135, 0.10333128, 0.5038344, 0.39217758, 0
1528, 1433957133, 0.15294999, -0.13472119, 0.14812225, 0.967761, 0.12948216, -1.4970981, -0.867095, 0
1529, 1433973800, 0.15364516, -0.13443235, 0.14713816, 0.96784127, -0.59959054, 1.6556658, 0.98524857, 0
1531, 1434007134, 0.15433341, -0.13485381, 0.14526743, 0.96795547, 0.43780398, 0.5568012, 0.98758984, 0
1532, 1434023801, 0.15460458, -0.13492282, 0.14437392, 0.96803653, 0.7117304, 0.692337, -0.2387867, 0
1533, 1434040468, 0.15453541, -0.13514258, 0.14375632, 0.9681088, 0.2507759, -1.047412, -0.47631836, 0
1535, 1434073802, 0.15403411, -0.13413104, 0.14220041, 0.968559, 0.24353921, -0.1586886, 1.0825071, 0
1537, 1434107136, 0.15351233, -0.1334456, 0.14117399, 0.9688866, 0.50615245, 1.7929568, 2.8162336, 0
1539, 1434140470, 0.1527592, -0.13373968, 0.14074095, 0.9690281, -0.111997455, 1.5500685, 1.9877138, 0
1541, 1434173804, 0.15191221, -0.13467433, 0.14083326, 0.96901834, 0.3391915, -0.59082484, -1.0615616, 0
1543, 1434207138, 0.15048835, -0.13480227, 0.1405353, 0.96926594, 1.1355608, 1.2464825, 2.9224157, 0
1544, 1434223805, 0.14994892, -0.13488123, 0.14036079, 0.9693639, 0.12759987, -1.9486396, 0.069898605, 0
1545, 1434240472, 0.14948916, -0.13492773, 0.14026242, 0.9694426, 0.27708665, 0.17715704, 0.32314396, 0
1547, 1434273806, 0.14843228, -0.13564412, 0.14072928, 0.9694374, -0.474778, 0.21352796, 0.67525387, 0
1548, 1434290473, 0.14795882, -0.13589212, 0.1409967, 0.96943617, 0.4707665, -1.1350622, 0.6828213, 0
1549, 1434307140, 0.14760935, -0.13581917, 0.14109093, 0.969486, 0.17860046, -0.5105218, 1.8655787, 0
1551, 1434340474, 0.14755246, -0.13626307, 0.14212845, 0.9692807, -0.5606338, -1.8950548, -0.646245, 0
1552, 1434357141, 0.14753789, -0.1370668, 0.14302912, 0.96903706, -1.1082413, -1.8243809, -1.3131142, 0
1553, 1434373808, 0.14775911, -0.1370384, 0.14355943, 0.968929, -0.20047137, -2.3484716, -0.019102097, 0
1555, 1434407142, 0.14785144, -0.13518474, 0.14493333, 0.9689708, -0.4934701, -4.093372, 0.30722237, 0
1558, 1434457143, 0.14853978, -0.13649589, 0.14972335, 0.96795285, -0.45362607, -2.2046404, 2.6022024, 0
1559, 1434473810, 0.14893904, -0.1374584, 0.15230407, 0.9673524, -0.4117478, -5.7888036, -1.7970562, 0
1560, 1434490477, 0.15025356, -0.1402754, 0.15480556, 0.9663472, -0.65879375, -3.229577, 0.87602425, 0
1562, 1434523811, 0.1521999, -0.1419573, 0.1565372, 0.96551764, 0.29970992, -3.3794105, 1.3098755, 0
1563, 1434540478, 0.15246046, -0.1413991, 0.15671639, 0.96552944, -0.63371015, -5.466454, 0.7252188, 0
1564, 1434557145, 0.15385759, -0.14418839, 0.15760547, 0.9647502, -0.06068624, -2.3414223, -2.3864431, 0
1567, 1434607146, 0.1562593, -0.14393565, 0.15681241, 0.9645312, -0.4969391, -3.3861995, 3.9057407, 0
1568, 1434623813, 0.15735346, -0.14466634, 0.15648402, 0.9642974, 0.15070285, -4.361376, 1.1118107, 0
1570, 1434657147, 0.15902698, -0.1460375, 0.1567506, 0.96377254, -1.7783026, 1.0772378, -6.857422, 0
1571, 1434673814, 0.15929908, -0.14278658, 0.15648964, 0.9642571, -3.1114948, 2.3311288, 5.3990507, 0
1572, 1434690481, 0.1602371, -0.13940604, 0.15577161, 0.96471256, -1.9540341, 0.5439925, 4.150543, 0
1574, 1434723815, 0.16110867, -0.13949026, 0.1586118, 0.96409214, -0.50285643, 7.898465, -3.6886082, 0
1575, 1434740482, 0.16032204, -0.1375458, 0.15945616, 0.96436334, -1.0251031, 6.6954823, -0.80211353, 0
1576, 1434757149, 0.15940276, -0.13663138, 0.16180484, 0.9642545, 1.4292744, 3.9299421, 0.56828403, 0
1578, 1434790483, 0.15638876, -0.13688163, 0.16672316, 0.9638746, 2.518457, 5.380201, 1.9901905, 0
1579, 1434807150, 0.15472966, -0.13708282, 0.16879341, 0.96375346, 3.5378156, 6.5521536, 2.7342014, 0
1582, 1434857151, 0.15149772, -0.1377138, 0.16875537, 0.9641837, 2.14246, 1.6166115, -2.7790656, 0
1583, 1434873818, 0.15021873, -0.1372094, 0.16644855, 0.96485615, -0.44410893, 4.3413463, 0.7329817, 0
1585, 1434907152, 0.14887735, -0.13644981, 0.16129577, 0.96604633, -0.5373245, 3.8206182, 0.29052544, 0
1586, 1434923819, 0.14825335, -0.13598455, 0.15980633, 0.96645546, 0.1849429, 2.3041804, 1.491497, 0
1587, 1434940486, 0.14759666, -0.13412312, 0.15844487, 0.96704006, -1.0711142, -1.7449293, 3.450119, 0
1589, 1434973820, 0.14757434, -0.13612977, 0.1572833, 0.9669527, -0.43126217, 6.0131445, -5.2409754, 0
1590, 1434990487, 0.14728135, -0.13587438, 0.15521021, 0.96736825, 0.62071085, 1.912675, -0.5299454, 0
1591, 1435007154, 0.147371, -0.13442364, 0.15262887, 0.9679677, 0.16675521, -1.9367005, 5.0842, 0
1593, 1435040488, 0.14809856, -0.1352886, 0.14981787, 0.9681753, 0.5518834, 4.219143, -0.70328426, 0
1594, 1435057155, 0.14802998, -0.13527784, 0.14812993, 0.96844697, -1.2446651, -0.0793823, -0.8109169, 0
1597, 1435107156, 0.14836949, -0.13447435, 0.14409082, 0.9691161, 0.65750706, 1.9163022, -0.4903698, 0
1598, 1435123823, 0.14780098, -0.13479254, 0.14363968, 0.96922565, -0.24416178, 1.745021, -0.058426857, 0
1599, 1435140490, 0.14720109, -0.13379465, 0.14250682, 0.9696225, -0.1819752, 0.122393824, 1.8697767, 0
1601, 1435173824, 0.14622438, -0.13507587, 0.14233041, 0.9696186, 0.39339393, 2.7700448, 3.1721535, 0
1602, 1435190491, 0.14558607, -0.13609989, 0.14270306, 0.9695166, -0.911762, 0.80084914, 0.660141, 0
1603, 1435207158, 0.14520717, -0.13682671, 0.14316349, 0.96940327, -0.6865993, -1.5305516, -1.2568064, 0
1605, 1435240492, 0.14461502, -0.13702051, 0.14322695, 0.9694548, 1.715146, 0.9321003, 1.7369356, 0
1606, 1435257159, 0.14460531, -0.13548788, 0.14198674, 0.9698541, 0.7014912, -1.1284275, 2.5154686, 0
1607, 1435273826, 0.14546841, -0.13591972, 0.14138797, 0.9697522, -1.1416088, 3.2376068, 2.3360367, 0
1609, 1435307160, 0.14727598, -0.13507196, 0.13971889, 0.9698397, -0.68282187, -3.006029, -1.7898817, 0
1612, 1435357161, 0.14842322, -0.13559741, 0.13934337, 0.9696455, 1.6886829, -0.07527592, 1.8096809, 0
1613, 1435373828, 0.14821616, -0.13566339, 0.13988571, 0.9695898, 0.94205165, -3.3637216, -0.53406143, 0
1614, 1435390495, 0.14782298, -0.13538395, 0.14059663, 0.969586, 0.40214196, -1.1932483, 0.37633038, 0
1616, 1435423829, 0.14737543, -0.13505007, 0.14108637, 0.9696296, 0.4110943, 8.0330553E-4, 1.2937937, 0
1617, 1435440496, 0.14701757, -0.13528223, 0.14162596, 0.9695729, 0.8742296, -0.58705443, 0.7454157, 0
1618, 1435457163, 0.14651215, -0.13508372, 0.1420152, 0.9696201, -0.22635558, -1.0829725, 0.942667, 0
1620, 1435490497, 0.14653608, -0.13609445, 0.14309493, 0.96931636, 0.4642056, -1.7277355, 0.24189854, 0
1621, 1435507164, 0.14604345, -0.13683124, 0.1439674, 0.96915776, 0.48013616, -1.9245958, -0.41773033, 0
1622, 1435523831, 0.14588666, -0.13725944, 0.14444384, 0.96905, 0.1432609, -0.4466787, 0.52322674, 0
1624, 1435557165, 0.14643893, -0.13742906, 0.14440472, 0.96894836, 0.41021588, -0.3585673, 1.8334179, 0
1625, 1435573832, 0.14670873, -0.13761772, 0.14420347, 0.9689108, -0.29988652, -1.2035295, 2.9945374E-4, 0
1626, 1435590499, 0.14697325, -0.13764337, 0.14383079, 0.9689225, -1.100193, 0.67013556, 1.6958256, 0
1628, 1435623833, 0.14747143, -0.13779446, 0.14382844, 0.9688256, 0.221346, -0.1998739, -0.024017334, 0
1629, 1435640500, 0.14769971, -0.1387079, 0.14425501, 0.96859705, 0.4009733, 1.4563491, 0.7628317, 0
1630, 1435657167, 0.1475971, -0.1383596, 0.14421509, 0.96866864, 0.6119838, 0.6226644, 1.1273193, 0
1632, 1435690501, 0.14691824, -0.13851704, 0.14420904, 0.9687501, 0.22737911, 1.0172383, 1.8713064, 0
1633, 1435707168, 0.14641303, -0.13834912, 0.14417207, 0.96885616, -0.27259815, -3.0690706, -1.5453959, 0
1634, 1435723835, 0.14601633, -0.13861065, 0.14442715, 0.9688406, 0.12077198, 1.3506111, -0.33139038, 0
1636, 1435757169, 0.14507931, -0.13833928, 0.14539388, 0.9688755, -0.39429533, -0.9537316, 1.0335207, 0
1639, 1435807170, 0.14416009, -0.13920775, 0.14742084, 0.96858203, 0.05439743, 0.6002923, -0.06813145, 0
1640, 1435823837, 0.14409891, -0.13865481, 0.14739737, 0.96867406, 0.4408153, -0.64374447, 0.4963932, 0
1641, 1435840504, 0.14425066, -0.13856012, 0.14758432, 0.9686365, 0.5853573, -0.36676285, 0.9394951, 0
1643, 1435873838, 0.14464492, -0.13740748, 0.14711104, 0.96881384, -0.7153728, 0.42439747, 2.9513845, 0
1644, 1435890505, 0.14487791, -0.13724269, 0.14724608, 0.96878195, -0.8293645, -1.5440197, -0.45300102, 0
1645, 1435907172, 0.14531508, -0.13751735, 0.14732145, 0.9686661, -0.9109559, 0.3206395, 0.95115566, 0
1647, 1435940506, 0.14619029, -0.13793321, 0.14739399, 0.96846414, 0.47824097, -1.955328, 0.16752243, 0
1648, 1435957173, 0.14688495, -0.13892657, 0.1479635, 0.9681303, -0.17335209, -0.35299602, 0.9251175, 0
1649, 1435973840, 0.14753243, -0.13932149, 0.14843051, 0.9679035, -1.0771329, -2.0135474, 1.3128262, 0
1651, 1436007174, 0.14940816, -0.14248411, 0.14997137, 0.96691716, 0.15332611, -3.5647886, -0.54669285, 0
1653, 1436040508, 0.15191358, -0.14690433, 0.15100859, 0.96570325, 0.032262, -1.7972506, 2.7078094, 0
1655, 1436073842, 0.15550184, -0.15066072, 0.14989723, 0.964726, -1.1922486, -1.9356616, 1.1273422, 0
1656, 1436090509, 0.15693939, -0.15183525, 0.1491707, 0.9644217, -0.8487755, -3.6979203, 0.004221916, 0
1657, 1436107176, 0.15936741, -0.15417168, 0.14837247, 0.96377575, -0.9916197, -2.785304, -0.7115488, 0
1659, 1436140510, 0.16366777, -0.15568583, 0.14723718, 0.9629854, -0.88441074, -4.0108113, 1.2492409, 0
1660, 1436157177, 0.16653544, -0.1587862, 0.14671135, 0.96206737, -1.2883257, -3.34088, -4.3735914, 0
1661, 1436173844, 0.17341882, -0.16138205, 0.1471699, 0.96034753, 0.7696234, -0.8654034, -1.7219839, 0
1663, 1436207178, 0.17358026, -0.15258853, 0.15198945, 0.9610052, -1.6015954, -2.526006, -2.3698287, 0
1664, 1436223845, 0.17432123, -0.15057425, 0.15243545, 0.961118, -0.89082354, 0.24405067, 1.1092758, 0
1666, 1436257179, 0.17421871, -0.14632405, 0.15413666, 0.96152174, 0.16627724, 5.080782, -0.8930321, 0
1668, 1436290513, 0.17495787, -0.1433496, 0.15682147, 0.9614014, -1.9126674, 3.3625329, -0.6400652, 0
1670, 1436323847, 0.17693767, -0.1410023, 0.15785888, 0.96121645, -1.5551428, 4.8567085, 5.9450226, 0
1671, 1436340514, 0.17798483, -0.14133811, 0.15890737, 0.9608009, -0.6829434, 5.6236773, 1.4790897, 0
1672, 1436357181, 0.17926338, -0.1410403, 0.15944164, 0.9605184, 0.5471464, 3.340677, -2.8874407, 0
1674, 1436390515, 0.18125859, -0.13836083, 0.15795265, 0.96077967, 2.3739698, 3.057208, 2.9950361, 0
1675, 1436407182, 0.1818116, -0.1382747, 0.15655315, 0.96091664, 1.3172994, 5.881944, 2.846136, 0
1676, 1436423849, 0.18155533, -0.13684268, 0.15479216, 0.9614552, -0.04174221, 7.7603545, 7.096695, 0
1678, 1436457183, 0.18114117, -0.13695998, 0.15269317, 0.9618522, 0.82215756, 3.476962, -7.3978734, 0
1679, 1436473850, 0.18021014, -0.13791288, 0.15216896, 0.961974, 1.6196554, 5.338576, -4.7561336, 0
1680, 1436490517, 0.1790469, -0.13678437, 0.15060018, 0.9625989, 0.65668666, 2.1553493, 2.7841206, 0
1683, 1436540518, 0.17643297, -0.13748728, 0.14612451, 0.9636707, 1.5970461, 1.5365729, -0.114993095, 0
1684, 1436557185, 0.17508256, -0.13725805, 0.14416553, 0.9642446, 0.62598133, 0.28239062, -1.5183773, 0
1686, 1436590519, 0.1711247, -0.1371489, 0.14153332, 0.9653599, 2.0210745, -0.10252975, 0.7805681, 0
1687, 1436607186, 0.16848385, -0.13746625, 0.14140995, 0.9657973, 1.7547601, 1.3526101, 1.6338587, 0
1688, 1436623853, 0.16549876, -0.13815609, 0.14209466, 0.96611446, 1.9101348, -1.0458395, -0.9327841, 0
1690, 1436657187, 0.15869564, -0.13932745, 0.14417091, 0.9667798, 2.5747597, -0.110452615, 0.9249344, 0
1691, 1436673854, 0.15496925, -0.13972282, 0.14504257, 0.9671968, 1.7111555, -0.06450785, 2.609355, 0
1693, 1436707188, 0.14935857, -0.14192162, 0.14832157, 0.9672622, 0.051519953, -2.2391992, -2.3437915, 0
1694, 1436723855, 0.1469439, -0.14246035, 0.1498838, 0.967312, -0.100314945, -2.0408077, -0.84502697, 0
