sep=,
DeviceTag:,Xsens_DOT_3,,,,,,,,,,,,,,,,,
FirmwareVersion:,3.0.0,,,,,,,,,,,,,,,,,
AppVersion:,2023.6.1,,,,,,,,,,,,,,,,,
SyncStatus:,Synced,,,,,,,,,,,,,,,,,
OutputRate:,60Hz,,,,,,,,,,,,,,,,,
FilterProfile:,General,,,,,,,,,,,,,,,,,
Measurement Mode:,Sensor fusion Mode - Extended (Quaternion),,,,,,,,,,,,,,,,,
StartTime:,2025-05-05 12:08:20.727 +0200,,,,,,,,,,,,,,,,,
 2025,,,,,,,,,,,,,,,,,,,

PacketCounter,SampleTimeFine,Quat_W,Quat_X,Quat_Y,Quat_Z,FreeAcc_X,FreeAcc_Y,FreeAcc_Z,Status
1, 3693702327, -0.73424774, -0.15280037, 0.5215059, -0.4069119, 0.09037344, 0.06842761, 0.053910255, 0
2, 3693718994, -0.7343321, -0.15271465, 0.5215435, -0.40674335, 0.05082193, 0.046117134, 0.035574913, 0
3, 3693735661, -0.73439205, -0.15268943, 0.52147096, -0.40673763, 0.10816239, 0.009367882, 0.033278465, 0
4, 3693752328, -0.7343636, -0.15279362, 0.5213388, -0.40691918, 0.10028177, -0.044285316, 0.10018444, 0
5, 3693768995, -0.7343573, -0.15282953, 0.5212353, -0.4070497, 0.10329562, -0.020253375, 0.1091032, 0
6, 3693785662, -0.7344259, -0.15273355, 0.52121955, -0.40698195, 0.034392387, 0.0374084, 0.057979584, 0
7, 3693802329, -0.73436856, -0.1527702, 0.5211291, -0.40718752, -0.024058934, 0.06168393, 0.02275753, 0
8, 3693818996, -0.73433095, -0.15276456, 0.52101153, -0.40740818, -0.018632933, 0.07433288, 0.013192177, 0
9, 3693835663, -0.734393, -0.15263458, 0.5209097, -0.40747505, -0.026035236, 0.06115485, 0.012659073, 0
10, 3693852330, -0.7344305, -0.15255062, 0.5208243, -0.407548, 0.052005213, 0.053846367, 0.021988869, 0
11, 3693868997, -0.73442066, -0.15248908, 0.5207684, -0.40766004, 0.03493731, 0.041888624, 0.06462383, 0
12, 3693885664, -0.73441064, -0.15238512, 0.5206943, -0.40781152, 0.012123343, 0.077971645, 0.020634651, 0
13, 3693902331, -0.7344049, -0.15221128, 0.52057743, -0.40803587, -0.027977116, 0.06358195, 0.027432442, 0
14, 3693918998, -0.73442435, -0.1520255, 0.5203782, -0.4083248, -0.050009236, 0.031236494, 0.043156624, 0
15, 3693935665, -0.7344193, -0.15193169, 0.52012354, -0.40869293, -0.076098114, -0.0053982153, 0.055430412, 0
16, 3693952332, -0.73438376, -0.15185282, 0.51991135, -0.40905568, -0.07522194, 0.06959302, 0.009752274, 0
17, 3693968999, -0.73435146, -0.15178183, 0.51977634, -0.4093116, -0.077635884, 0.13024451, -0.055912018, 0
18, 3693985666, -0.73430675, -0.15173379, 0.5196495, -0.40957052, -0.073450826, 0.1146624, -0.08246708, 0
19, 3694002333, -0.7343125, -0.15163727, 0.5195926, -0.40966833, -0.025584187, 0.09291769, -0.121896744, 0
20, 3694019000, -0.73426116, -0.15163726, 0.51953274, -0.4098364, 0.006294572, 0.088616766, -0.10671234, 0
21, 3694035667, -0.73431486, -0.15152079, 0.5194066, -0.40994287, 0.01324806, 0.085661985, 0.037156105, 0
22, 3694052334, -0.73431057, -0.15141012, 0.519314, -0.41010886, 0.016351314, 0.16423786, 0.1276474, 0
23, 3694069001, -0.7342149, -0.15133345, 0.5191967, -0.41045678, -0.051548347, 0.17134632, 0.15368748, 0
24, 3694085668, -0.7341043, -0.15118012, 0.5191542, -0.41076484, -0.021134043, 0.15064393, 0.09473038, 0
25, 3694102335, -0.73407125, -0.15086812, 0.51920164, -0.41087842, -0.032575224, 0.1303397, -0.043854713, 0
26, 3694119002, -0.7340583, -0.15057181, 0.51925296, -0.4109454, -0.026265007, 0.13254668, -0.15811825, 0
27, 3694135669, -0.7340207, -0.15044464, 0.51918536, -0.4111445, -0.029877419, 0.077656835, -0.050808907, 0
28, 3694152336, -0.7340347, -0.15030667, 0.51916164, -0.41120005, 8.694654E-4, 0.07326856, 0.04003048, 0
29, 3694169003, -0.73398757, -0.15017506, 0.51918334, -0.41130474, 0.0038573865, 0.13576168, 0.10429859, 0
30, 3694185670, -0.7339404, -0.14992031, 0.51931596, -0.41131443, -0.004970481, 0.1966045, 0.095336914, 0
31, 3694202337, -0.73395157, -0.14951943, 0.5194783, -0.41123524, 4.3048596E-4, 0.13056277, 0.01957798, 0
32, 3694219004, -0.73394984, -0.14912625, 0.5196269, -0.4111935, -0.031072771, 0.082898356, 0.0062150955, 0
33, 3694235671, -0.7338685, -0.14886865, 0.51981527, -0.41119397, -0.030393291, 0.093769915, -0.051906586, 0
34, 3694252338, -0.7338059, -0.14863795, 0.52006584, -0.41107237, -0.04787245, 0.14907435, -0.065176964, 0
35, 3694269005, -0.7337556, -0.14840676, 0.5202787, -0.41097635, -0.012351773, 0.17828856, 0.019137383, 0
36, 3694285672, -0.7336769, -0.14812231, 0.5205057, -0.41093177, -0.01400264, 0.19520514, 0.11525631, 0
37, 3694302339, -0.7335986, -0.1477023, 0.52075833, -0.41090283, -0.072845556, 0.15686975, 0.08037853, 0
38, 3694319006, -0.7336094, -0.14704229, 0.52104354, -0.4107589, -0.064758405, 0.1450499, -0.0056390762, 0
39, 3694335673, -0.73372865, -0.14626254, 0.52134275, -0.41044432, -0.07045039, 0.09829851, -0.05753708, 0
42, 3694385674, -0.7340342, -0.14492801, 0.5221315, -0.40936744, 0.034176473, 0.051823627, -0.08664799, 0
43, 3694402341, -0.7342333, -0.14451514, 0.5223858, -0.40883183, 0.01272964, 0.07967414, -0.0817976, 0
44, 3694419008, -0.7343753, -0.1440783, 0.5226353, -0.40841162, -0.003381751, 0.09413117, -7.314682E-4, 0
46, 3694452342, -0.73475695, -0.14295226, 0.52320164, -0.40739453, -0.014282031, 0.054517444, 0.12380886, 0
47, 3694469009, -0.734984, -0.14232521, 0.52347004, -0.40685928, -0.045868434, 0.036665957, 0.0863018, 0
48, 3694485676, -0.7352459, -0.14169249, 0.52372503, -0.40627867, -0.07108562, 0.0032114936, 0.013121605, 0
50, 3694519010, -0.735751, -0.14024636, 0.524505, -0.40485737, 0.0071483916, 0.25140154, -0.070466995, 0
53, 3694569011, -0.73638254, -0.1384327, 0.52562463, -0.4028761, 0.25261077, -0.064433284, 0.11123657, 0
54, 3694585678, -0.7365157, -0.1378528, 0.52590346, -0.40246737, 0.19658904, -0.21978869, 0.15522575, 0
57, 3694635679, -0.7368075, -0.13606313, 0.5266802, -0.40152586, 0.009269529, -0.02813391, 0.067445755, 0
59, 3694669013, -0.7368078, -0.13464434, 0.5275875, -0.40081146, 0.124230735, 0.086026095, -0.12530994, 0
61, 3694702347, -0.7365971, -0.13363513, 0.528354, -0.40052706, 0.3559292, -0.24729903, 0.043450356, 0
62, 3694719014, -0.73644, -0.13344838, 0.52840704, -0.40080786, 0.3348546, -0.34657085, 0.23966885, 0
65, 3694769015, -0.7358006, -0.13293754, 0.52804923, -0.40261942, 0.16482024, 0.081033766, 0.20068836, 0
66, 3694785682, -0.7355479, -0.13237742, 0.5280314, -0.4032886, 0.07066273, 0.21613836, 0.04875946, 0
67, 3694802349, -0.7351855, -0.1315938, 0.5281035, -0.4041106, 0.1218463, 0.040881366, -0.15046692, 0
69, 3694835683, -0.7347506, -0.1304256, 0.527952, -0.40547597, 0.102405146, -0.09486906, -0.21338177, 0
70, 3694852350, -0.7347482, -0.12983663, 0.52774674, -0.40593618, 0.09366713, -0.073216535, -0.13658047, 0
71, 3694869017, -0.7348672, -0.12931791, 0.5275334, -0.40616366, 0.1046443, -0.025697593, -0.027327538, 0
73, 3694902351, -0.73535055, -0.12815522, 0.52711856, -0.40619594, 0.21609455, 0.14420328, 0.16515636, 0
76, 3694952352, -0.73715085, -0.124606214, 0.5253833, -0.40628532, -0.2616402, -0.14199296, 0.10344696, 0
78, 3694985686, -0.73914653, -0.12063825, 0.52452654, -0.40496188, 0.2642473, 0.03040398, -0.05376625, 0
80, 3695019020, -0.7406561, -0.118077815, 0.5238553, -0.4038257, 0.56478995, -0.6185375, 0.021579742, 0
81, 3695035687, -0.74093425, -0.11737183, 0.52350587, -0.40397406, 0.5584623, -0.77443504, 0.06640816, 0
82, 3695052354, -0.7408223, -0.11715674, 0.5232834, -0.40452972, 0.519112, -0.56457084, 0.10403061, 0
84, 3695085688, -0.74084204, -0.116846055, 0.5230935, -0.4048289, 0.72104293, -0.09479774, 0.06929302, 0
85, 3695102355, -0.74069864, -0.11686914, 0.5228165, -0.40544236, 0.74194854, 0.033913705, 0.09972954, 0
86, 3695119022, -0.7405428, -0.117026195, 0.522317, -0.4063241, 0.7518216, -0.20057194, 0.094652176, 0
88, 3695152356, -0.7398694, -0.11824297, 0.52113724, -0.4087066, 0.55644447, -0.37116075, -0.080592155, 0
90, 3695185690, -0.73835504, -0.12102474, 0.52018964, -0.4118265, 0.09967918, -0.19495162, 0.029212952, 0
92, 3695219024, -0.7371057, -0.12326665, 0.51965237, -0.41407123, -0.04442007, 0.2628885, 0.14257908, 0
93, 3695235691, -0.73683536, -0.12362904, 0.51946145, -0.41468376, -0.004023439, 0.32495698, 0.12258053, 0
94, 3695252358, -0.73668516, -0.12364887, 0.5193351, -0.41510266, 0.0985719, 0.23785785, 0.008509636, 0
96, 3695285692, -0.7363006, -0.12369324, 0.51916844, -0.4159792, 0.21673784, -0.026753621, -0.23773289, 0
100, 3695352360, -0.73491484, -0.1261042, 0.51835537, -0.4187112, 0.23188128, 0.20197047, 0.09455013, 0
101, 3695369027, -0.73458177, -0.12671, 0.5182475, -0.41924578, 0.16097626, 0.2587085, 0.11288643, 0
103, 3695402361, -0.73408806, -0.12774661, 0.5181478, -0.41991875, 0.011498401, 0.19217797, 0.009224892, 0
104, 3695419028, -0.73391056, -0.12828095, 0.5181315, -0.4200865, 0.0024251156, 0.21473464, 0.045764923, 0
105, 3695435695, -0.73376876, -0.12871766, 0.51812077, -0.42021358, -0.00297004, 0.26553333, 0.047346115, 0
108, 3695485696, -0.73355776, -0.12910655, 0.518448, -0.42005873, 0.013089365, 0.36858281, -0.0339756, 0
109, 3695502363, -0.7336701, -0.12897131, 0.5185618, -0.41976368, -0.020274984, 0.26710626, -0.054553986, 0
112, 3695552364, -0.73426497, -0.12857147, 0.519319, -0.4179059, 0.08583702, 0.12198278, -0.07827091, 0
115, 3695602365, -0.7345804, -0.12851967, 0.52008164, -0.4164164, 0.16743177, -0.091467805, 0.2205267, 0
116, 3695619032, -0.7346992, -0.1284701, 0.5202217, -0.41604722, 0.14932811, -0.05829417, 0.18831444, 0
117, 3695635699, -0.7347589, -0.12846707, 0.5202869, -0.4158611, 0.09299301, -0.017754039, 0.09682751, 0
119, 3695669033, -0.7346132, -0.12866518, 0.52034974, -0.41597867, -0.015669152, -0.04671053, -0.017266273, 0
121, 3695702367, -0.734083, -0.12902115, 0.5207331, -0.41632444, -0.06161671, -0.039015487, -0.15021324, 0
123, 3695735701, -0.73409873, -0.12946396, 0.52095217, -0.41588497, -0.05973071, -0.021756765, -0.08248997, 0
124, 3695752368, -0.73428524, -0.12986639, 0.52085084, -0.415557, -0.044305187, -0.035258025, 0.0010280609, 0
127, 3695802369, -0.73504525, -0.13108633, 0.5206365, -0.41409647, 0.02938033, 0.14600967, 0.085204124, 0
128, 3695819036, -0.73517996, -0.13124977, 0.52047443, -0.4140093, 0.025963265, 0.09710909, 0.057831764, 0
131, 3695869037, -0.73492277, -0.13208559, 0.51969093, -0.41518277, 0.1264538, -0.11560709, 0.14642525, 0
132, 3695885704, -0.73459566, -0.13251974, 0.51948076, -0.4158857, 0.08754868, -0.060418878, 0.08012867, 0
134, 3695919038, -0.73400354, -0.13321243, 0.5190792, -0.41720876, -0.01181266, -0.1648844, -0.08947468, 0
135, 3695935705, -0.7337833, -0.13361204, 0.5188069, -0.41780686, 0.012691066, -0.22812913, -0.08350086, 0
136, 3695952372, -0.73347706, -0.13422509, 0.51855266, -0.41846323, 0.03621178, -0.21300477, -0.028736115, 0
138, 3695985706, -0.73266006, -0.1356733, 0.5182668, -0.41977963, 0.032142952, -0.15162069, -0.09280014, 0
139, 3696002373, -0.7322207, -0.13645208, 0.5181007, -0.4204981, 0.07737661, -0.18718566, -0.11809635, 0
140, 3696019040, -0.73183304, -0.13716014, 0.5178877, -0.42120427, 0.052251518, -0.31268987, -0.041700363, 0
143, 3696069041, -0.730829, -0.13944791, 0.51704746, -0.4232242, 0.048098646, -0.24091487, 0.13386822, 0
144, 3696085708, -0.73017, -0.1406391, 0.51654065, -0.42458382, -0.013029912, -0.32203084, 0.18837929, 0
146, 3696119042, -0.7289564, -0.1425718, 0.5155418, -0.42723018, -0.164489, -0.26918173, 0.07112026, 0
147, 3696135709, -0.72839797, -0.1433836, 0.51502275, -0.428535, -0.16126505, -0.1875757, 0.03993988, 0
150, 3696185710, -0.727358, -0.14503379, 0.51334596, -0.43174642, -0.019675845, -0.039531607, 0.103429794, 0
151, 3696202377, -0.7269588, -0.14555031, 0.51288843, -0.43278706, -0.057167463, -0.038748786, 0.08169079, 0
152, 3696219044, -0.7264888, -0.14584294, 0.512749, -0.43364218, -0.16879252, 0.14734317, 0.015433311, 0
154, 3696252378, -0.72572815, -0.14573066, 0.51295537, -0.43470848, -0.24717359, 0.4709493, -0.18154716, 0
155, 3696269045, -0.7256968, -0.14555784, 0.5130125, -0.43475106, -0.1589034, 0.17443521, -0.08766365, 0
157, 3696302379, -0.72606957, -0.14501849, 0.5130125, -0.4343087, 0.09318881, -0.05497116, 0.11415577, 0
158, 3696319046, -0.72596186, -0.1451909, 0.5129567, -0.43449718, 0.19844508, -0.040516384, 0.1288042, 0
159, 3696335713, -0.7257931, -0.14537981, 0.5129082, -0.43477303, 0.058616776, 0.3607385, -0.021518707, 0
161, 3696369047, -0.7252317, -0.14668353, 0.51258206, -0.43565577, 0.26853383, -0.00531986, 0.1947937, 0
162, 3696385714, -0.7246245, -0.14773758, 0.51259184, -0.43629795, 0.049572043, -0.02537974, -0.029164314, 0
163, 3696402381, -0.7240539, -0.14893277, 0.5123943, -0.43707007, 0.5589339, -0.22324704, 0.13688469, 0
165, 3696435715, -0.7223765, -0.15203673, 0.5117749, -0.4394959, 0.26258168, 0.25095376, -0.046481133, 0
166, 3696452382, -0.7215364, -0.15360148, 0.51138806, -0.44078013, 0.26804075, 0.30121085, 0.09161186, 0
167, 3696469049, -0.7206774, -0.1550977, 0.51113856, -0.44194955, 0.22788711, 0.12353799, 0.17181873, 0
169, 3696502383, -0.71918553, -0.15761748, 0.51150626, -0.44306165, 0.28241712, 0.027675472, 0.048547745, 0
171, 3696535717, -0.7189815, -0.15785392, 0.51185876, -0.44290143, -0.16027398, 0.69732773, -0.008891106, 0
173, 3696569051, -0.7195277, -0.15590842, 0.5121065, -0.4424168, -7.0406584E-4, 0.1468193, 0.48603344, 0
174, 3696585718, -0.7194587, -0.15486522, 0.5125113, -0.44242668, 0.026215388, -0.022740934, 0.22269821, 0
175, 3696602385, -0.7192423, -0.15405183, 0.5128422, -0.44267902, 0.13282935, -0.20725541, 0.06940746, 0
177, 3696635719, -0.7187232, -0.15378466, 0.51333123, -0.44304788, 0.27430806, -0.16560052, -0.16898823, 0
178, 3696652386, -0.7185041, -0.15415455, 0.5134424, -0.44314614, 0.17463917, -0.2071432, -0.16797447, 0
179, 3696669053, -0.71825063, -0.15477312, 0.51352733, -0.4432431, 0.0681339, -0.16332442, -0.14250088, 0
181, 3696702387, -0.7175503, -0.15681985, 0.51332814, -0.44388795, -0.015420158, -0.026453275, -0.03512287, 0
182, 3696719054, -0.7171289, -0.15787622, 0.51317185, -0.4443751, 0.037508156, 0.31864023, 0.09260082, 0
183, 3696735721, -0.71672, -0.15885878, 0.5129859, -0.44489902, 0.1001727, 0.38506705, 0.30545425, 0
186, 3696785722, -0.71640486, -0.16012697, 0.51298106, -0.44495726, 0.18797976, -0.09938871, -0.1319294, 0
188, 3696819056, -0.716342, -0.16113035, 0.51311547, -0.44454128, 0.19671106, 0.0027381035, -0.23989391, 0
189, 3696835723, -0.7162069, -0.16172865, 0.5130006, -0.44467437, -0.053863045, 0.055990905, 0.15998077, 0
190, 3696852390, -0.7162953, -0.16208757, 0.5130255, -0.44437224, -0.06296807, 0.44769984, -0.04117012, 0
192, 3696885724, -0.7170583, -0.16165185, 0.51324546, -0.4430446, 0.08961393, 0.026815796, 0.08506775, 0
193, 3696902391, -0.71726036, -0.16169538, 0.5134331, -0.44248393, 0.26154146, -0.34640044, 0.118434906, 0
194, 3696919058, -0.7173178, -0.16185503, 0.5137011, -0.44202125, 0.2911967, -0.14655685, 0.10655308, 0
196, 3696952392, -0.7178377, -0.16121072, 0.51400816, -0.44105452, 0.1501189, 0.40344998, 0.0075502396, 0
197, 3696969059, -0.71832114, -0.16028629, 0.5140524, -0.4405523, 0.07270787, 0.22299068, -0.023862839, 0
198, 3696985726, -0.71875346, -0.15937212, 0.5141364, -0.44008088, 0.13807781, 0.008768413, 0.018528938, 0
201, 3697035727, -0.71964383, -0.15756604, 0.5140802, -0.43934095, 0.051901944, 0.1779177, 0.040616035, 0
208, 3697152396, -0.72107375, -0.15469982, 0.5131918, -0.4390536, 0.20771824, 0.02876826, 0.07063007, 0
209, 3697169063, -0.72125775, -0.15498076, 0.5132068, -0.4386343, 0.09020446, 0.29174408, 0.07897568, 0
211, 3697202397, -0.72182524, -0.1554758, 0.51334417, -0.43736333, 0.09135958, 0.15567854, -0.066287994, 0
212, 3697219064, -0.7222862, -0.1556451, 0.51335806, -0.436525, 0.06877181, -0.019403515, -0.10592461, 0
213, 3697235731, -0.72278833, -0.15584636, 0.51338094, -0.43559408, 0.07093407, -0.04746195, -0.10062122, 0
215, 3697269065, -0.72369236, -0.15619034, 0.5132463, -0.43412605, 0.13976713, 0.061695833, 0.11587238, 0
216, 3697285732, -0.7249345, -0.1439924, 0.5052479, -0.44550407, -1.1360216, 18.057869, 25.888313, 1024
217, 3697302399, -0.7503974, -0.09294629, 0.49287292, -0.430528, -2.5515819, -43.881165, -17.6844, 0
219, 3697335733, -0.74020195, -0.11354095, 0.518739, -0.41247147, -5.7297244, 0.6405305, -7.0256047, 0
221, 3697369067, -0.7405866, -0.11635519, 0.516574, -0.4137123, -1.8620806, 1.5151227, -4.4404626, 0
223, 3697402401, -0.744937, -0.12021494, 0.4950833, -0.43072373, -0.21644793, -5.685598, -0.7452936, 0
224, 3697419068, -0.7455127, -0.13039501, 0.49263594, -0.42957067, 4.3774815, 0.6185465, 8.237583, 0
225, 3697435735, -0.7439237, -0.13553101, 0.49592707, -0.42694083, 2.7050467, 1.5688087, 7.9346275, 0
227, 3697469069, -0.741371, -0.14244506, 0.49927425, -0.425226, -0.5266414, 0.50055444, -0.7973175, 0
228, 3697485736, -0.7402999, -0.14418983, 0.4989137, -0.42692393, -0.51925683, -0.114596225, -0.5606165, 0
229, 3697502403, -0.7390563, -0.14566118, 0.49820665, -0.42939723, -0.33093283, -0.5283672, -0.22498226, 0
231, 3697535737, -0.7363182, -0.14896649, 0.49528772, -0.43628874, -0.37604827, -0.9983528, -0.45417976, 0
232, 3697552404, -0.734673, -0.15079886, 0.49402738, -0.43984705, -0.27406532, -0.48263884, -0.39161015, 0
233, 3697569071, -0.7327911, -0.152865, 0.49285442, -0.44357336, -0.09006902, -0.11941186, -0.29356384, 0
235, 3697602405, -0.72924054, -0.15669607, 0.49063516, -0.4504941, 0.13105011, 0.41926947, 0.085041046, 0
236, 3697619072, -0.7278024, -0.15833893, 0.4894789, -0.45349342, -0.08495012, 0.49297667, 0.109469414, 0
237, 3697635739, -0.72668946, -0.15967737, 0.48845512, -0.45590627, -0.27605683, 0.53485245, -0.007364273, 0
239, 3697669073, -0.72516936, -0.16163051, 0.48722157, -0.45894814, -0.5153277, 0.56070375, -0.2826233, 0
240, 3697685740, -0.7247504, -0.16212128, 0.4868654, -0.45981395, -0.46933854, 0.69200444, -0.19223309, 0
242, 3697719074, -0.72466075, -0.16220114, 0.48595414, -0.46088982, -0.18423949, 0.51990724, 0.22185421, 0
243, 3697735741, -0.7246859, -0.16225219, 0.48545146, -0.4613619, -0.10396034, 0.29991636, 0.22288322, 0
244, 3697752408, -0.7247043, -0.16227217, 0.4852325, -0.46155614, -0.19042276, 0.21548139, 0.13743019, 0
246, 3697785742, -0.72495735, -0.16194953, 0.4855121, -0.46097767, -0.40222812, 0.50676364, -0.12429047, 0
248, 3697819076, -0.72626454, -0.16060203, 0.4859106, -0.45896727, -0.21784198, 0.36748716, -0.07097435, 0
250, 3697852410, -0.7280552, -0.1591129, 0.48627108, -0.45625913, 0.023376772, 0.09473137, 0.03469658, 0
251, 3697869077, -0.7287767, -0.15850064, 0.48655665, -0.4550144, 0.05709683, 0.041332573, 0.00621891, 0
252, 3697885744, -0.72932386, -0.1580464, 0.48684713, -0.45398372, 0.0965795, -0.023871506, -0.04112053, 0
254, 3697919078, -0.73009187, -0.15750103, 0.48733443, -0.45241338, 0.24795142, -0.12399356, 0.05198288, 0
255, 3697935745, -0.7303107, -0.15745762, 0.48753965, -0.45185393, 0.32267314, -0.1294197, 0.17037392, 0
256, 3697952412, -0.7304148, -0.15749754, 0.4877623, -0.4514308, 0.35854653, -0.039827578, 0.19227982, 0
258, 3697985746, -0.73032063, -0.1578376, 0.48792848, -0.45128506, 0.332667, -0.09007955, 0.033088684, 0
259, 3698002413, -0.7301059, -0.15822186, 0.4879238, -0.45150277, 0.3635219, -0.07991139, 0.026053429, 0
260, 3698019080, -0.72986126, -0.15868562, 0.48795664, -0.45170018, 0.33425513, -0.009753114, 0.011673927, 0
263, 3698069081, -0.7295939, -0.15983538, 0.48812032, -0.4515498, 0.2642312, 0.089547046, -0.016147614, 0
265, 3698102415, -0.7298327, -0.16024283, 0.4883191, -0.45080405, 0.1570487, 0.099406965, 0.03280449, 0
266, 3698119082, -0.7300793, -0.16036665, 0.48827, -0.45041353, 0.15145998, 0.14878047, 0.06437874, 0
267, 3698135749, -0.73049694, -0.16031109, 0.48814502, -0.4498915, 0.24881284, 0.12195433, 0.058818817, 0
269, 3698169083, -0.73140305, -0.16020796, 0.48788804, -0.44873333, 0.3940757, 0.0014360428, 0.06496906, 0
270, 3698185750, -0.7318418, -0.16021232, 0.48763633, -0.44828993, 0.40194246, -0.056105524, 0.124578476, 0
271, 3698202417, -0.7321265, -0.16037259, 0.48735765, -0.4480705, 0.35318533, -0.08062221, 0.12011814, 0
273, 3698235751, -0.73255265, -0.16065347, 0.4868723, -0.44780087, 0.07392065, 0.024467517, -0.05043602, 0
274, 3698252418, -0.73264, -0.1609242, 0.4866156, -0.44783992, 0.024449956, 0.040495086, -0.10626793, 0
275, 3698269085, -0.73269325, -0.16122866, 0.48644033, -0.44783336, 0.02850997, 0.02903017, -0.06381512, 0
278, 3698319086, -0.7331323, -0.16209951, 0.48604634, -0.44722822, 0.26106134, 0.08939272, 0.097631454, 0
279, 3698335753, -0.7333207, -0.16237985, 0.4858446, -0.44703677, 0.20286438, 0.0839418, 0.10330105, 0
281, 3698369087, -0.7334761, -0.16297683, 0.48538026, -0.4470688, 0.10667513, 0.031060869, 0.119215965, 0
282, 3698385754, -0.7334522, -0.16321035, 0.48520768, -0.4472103, 0.0117567815, 0.027529309, 0.04659176, 0
283, 3698402421, -0.73338944, -0.16337357, 0.48506826, -0.447405, -0.011372786, 0.053576306, -0.11836147, 0
285, 3698435755, -0.73335975, -0.16360764, 0.48469028, -0.4477777, 0.13958474, 0.09951976, -0.06342411, 0
286, 3698452422, -0.7333354, -0.16383812, 0.48441646, -0.44802958, 0.11785883, 0.039705455, 0.1264143, 0
287, 3698469089, -0.73319185, -0.16423996, 0.4841626, -0.44839144, 0.10792055, 0.09663493, 0.17164803, 0
289, 3698502423, -0.73263866, -0.16498332, 0.48378944, -0.44942433, 0.06938289, 0.27468416, 0.079322815, 0
290, 3698519090, -0.7323163, -0.1651699, 0.48351064, -0.4501805, 0.06500025, 0.21568517, 0.09798241, 0
293, 3698569091, -0.73102385, -0.16572347, 0.48274407, -0.45289218, 0.018536823, 0.21800435, -0.009570122, 0
294, 3698585758, -0.73061186, -0.16589816, 0.48265395, -0.45358884, -0.013226155, 0.2990801, -0.058154106, 0
296, 3698619092, -0.7302635, -0.16581856, 0.48258713, -0.45424953, -0.16044922, 0.4520909, -0.17327881, 0
297, 3698635759, -0.73029566, -0.16562775, 0.48251194, -0.45434713, -0.12300052, 0.37266988, -0.14483547, 0
298, 3698652426, -0.73038185, -0.16536683, 0.4824945, -0.45432204, -0.08391883, 0.3589557, -0.09748268, 0
300, 3698685760, -0.73065794, -0.16470435, 0.482736, -0.4538622, -0.11069255, 0.26216576, -0.023233414, 0
301, 3698702427, -0.7307653, -0.16448306, 0.48289582, -0.45359948, -0.16027488, 0.1868768, -0.09183025, 0
302, 3698719094, -0.7308116, -0.16455711, 0.48289064, -0.45350337, -0.12568447, 0.16306274, -0.093746185, 0
304, 3698752428, -0.7493662, -0.09368542, 0.5072655, -0.41517252, 24.911985, 19.954147, 15.51437, 0
305, 3698769095, -0.73902446, -0.11311511, 0.51779336, -0.41587383, -9.940003, -8.989058, -28.299616, 0
306, 3698785762, -0.749318, -0.11070168, 0.5129376, -0.4039504, -2.824121, 2.6111474, -4.705635, 0
308, 3698819096, -0.74783146, -0.115774885, 0.50350404, -0.41694278, -0.92588544, 1.2579488, -0.69551945, 0
309, 3698835763, -0.74013346, -0.12697951, 0.49873245, -0.4328487, -0.052339137, -0.05799474, 0.6569071, 0
310, 3698852430, -0.73492265, -0.15276247, 0.49187434, -0.44116336, 3.755428, -0.112433724, 8.177702, 0
312, 3698885764, -0.73398393, -0.16218023, 0.4876396, -0.4440565, 0.58800536, -0.21866637, 0.58466244, 0
313, 3698902431, -0.7334751, -0.16327976, 0.48835513, -0.4437077, -0.7337935, -0.22170869, -1.2035837, 0
314, 3698919098, -0.7330831, -0.16389781, 0.48841885, -0.4440571, -0.4663904, 0.68651605, -0.7244444, 0
316, 3698952432, -0.73228693, -0.16434786, 0.4885297, -0.4450815, -0.5261535, -0.01102053, -0.536829, 0
317, 3698969099, -0.7320964, -0.16421694, 0.4885208, -0.44545317, -0.34113708, -0.14100492, -0.05902958, 0
320, 3699019100, -0.73192024, -0.1646638, 0.48875535, -0.4453203, -0.2585723, -0.21840097, -0.18309212, 0
321, 3699035767, -0.7318039, -0.16490567, 0.48873326, -0.4454463, -0.05658454, -0.19641995, 0.24871826, 0
323, 3699069101, -0.73160297, -0.1649914, 0.48878354, -0.44568902, 0.1846606, 0.07332052, 0.5061827, 0
324, 3699085768, -0.7316038, -0.16480966, 0.48883253, -0.44570118, 0.13328128, 0.025304506, 0.30932522, 0
325, 3699102435, -0.73151696, -0.16458243, 0.48895875, -0.44578928, 0.026229693, -0.023727689, 0.0072669983, 0
327, 3699135769, -0.73123395, -0.16389588, 0.4892335, -0.44620508, -0.09045614, 0.07437902, -0.27880573, 0
328, 3699152436, -0.7310774, -0.16347231, 0.48925018, -0.44659877, -0.018586444, 0.06238202, -0.18609619, 0
329, 3699169103, -0.7310777, -0.16300133, 0.48924178, -0.4467792, 0.07230644, 0.059254177, -0.06486702, 0
331, 3699202437, -0.73137933, -0.16243759, 0.4888811, -0.44688553, 0.07459387, -0.003115631, 0.012986183, 0
332, 3699219104, -0.73169047, -0.16213381, 0.4887345, -0.44664705, -0.0075708306, 0.028394835, -0.03386593, 0
335, 3699269105, -0.732462, -0.16086714, 0.488804, -0.44576353, 0.053175967, 0.14960015, -0.0140275955, 0
336, 3699285772, -0.7325843, -0.16048731, 0.48893055, -0.44556063, 0.1077024, 0.056922883, 0.06505108, 0
337, 3699302439, -0.7327056, -0.16009948, 0.48912054, -0.445292, 0.13178904, 0.042578325, 0.08813, 0
339, 3699335773, -0.7329066, -0.15948755, 0.4894977, -0.4447664, 0.1743182, 0.04602185, -4.386902E-4, 0
340, 3699352440, -0.7330567, -0.15919319, 0.48970282, -0.4443983, 0.13905784, 0.044989843, -0.029937744, 0
341, 3699369107, -0.7332714, -0.1588617, 0.4898675, -0.44398093, 0.0798357, 0.06425701, -0.07004833, 0
343, 3699402441, -0.73396707, -0.15817387, 0.49020296, -0.4427054, 0.037419196, -0.025114208, -0.06335068, 0
344, 3699419108, -0.73435855, -0.15783161, 0.49043325, -0.44192183, 0.07412673, -0.010862171, -0.02684784, 0
346, 3699452442, -0.7348453, -0.15740907, 0.49083808, -0.44081295, 0.19922514, -0.07267883, 0.17268467, 0
347, 3699469109, -0.73488694, -0.15738231, 0.49105248, -0.440514, 0.18893774, -0.15712294, 0.22056675, 0
350, 3699519110, -0.73481596, -0.15723228, 0.491586, -0.44009072, 0.014878363, -0.041406475, -0.09080696, 0
351, 3699535777, -0.7348733, -0.15709703, 0.49163273, -0.43999097, 0.008077311, -0.0025953206, -0.090592384, 0
352, 3699552444, -0.7349884, -0.15695108, 0.49170092, -0.43977487, 0.048634183, -0.06572594, -0.092793465, 0
354, 3699585778, -0.73517734, -0.15694089, 0.4917159, -0.43944588, 0.1905372, -0.11865219, 0.039850235, 0
355, 3699602445, -0.73519534, -0.15711977, 0.49158433, -0.43949872, 0.18370038, -0.08705396, 0.14494324, 0
356, 3699619112, -0.7352054, -0.15724435, 0.4914714, -0.43956357, 0.101134695, -0.10744916, 0.19464779, 0
358, 3699652446, -0.73493785, -0.15741423, 0.49155205, -0.4398601, 0.031992752, 0.015927449, -0.044365883, 0
359, 3699669113, -0.7348945, -0.157331, 0.49163672, -0.43986776, 0.025092458, -0.025851425, -0.09885788, 0
360, 3699685780, -0.734859, -0.15728217, 0.49170053, -0.43987328, 0.06120187, -0.053951472, -0.056750298, 0
362, 3699719114, -0.7347718, -0.15740103, 0.49167678, -0.44000274, 0.17901957, -0.039481692, 0.018668175, 0
364, 3699752448, -0.7346771, -0.15768348, 0.49156803, -0.4401815, 0.07740522, -0.024966983, 0.031455994, 0
366, 3699785782, -0.7347417, -0.15789412, 0.4915876, -0.4399761, 0.054306496, 0.09525779, -0.019913673, 0
367, 3699802449, -0.7348312, -0.15793513, 0.4915219, -0.4398852, 0.053666353, 0.03685666, 0.0040159225, 0
368, 3699819116, -0.73490804, -0.15791664, 0.49145165, -0.4398419, 0.08226842, -0.02617317, 0.017215729, 0
370, 3699852450, -0.7349955, -0.15794873, 0.4913121, -0.43984014, 0.08371186, 0.017869009, 0.07196045, 0
371, 3699869117, -0.7350442, -0.15796906, 0.49123737, -0.43983492, 0.10206362, 0.13296092, 0.09369755, 0
372, 3699885784, -0.73513067, -0.15793556, 0.49117398, -0.43977326, 0.07024297, 0.12947324, 0.078837395, 0
374, 3699919118, -0.7353462, -0.15771751, 0.49104565, -0.43963462, 0.09512622, 0.0146785565, -0.038101196, 0
375, 3699935785, -0.7355082, -0.15760362, 0.49092206, -0.43954253, 0.08254602, 0.032165065, -0.049880028, 0
377, 3699969119, -0.73568, -0.15765382, 0.49056438, -0.4396363, 0.0553731, 0.07609869, 0.07758045, 0
378, 3699985786, -0.7357857, -0.15762419, 0.49036914, -0.43968785, 0.05793009, 0.10243786, 0.06661224, 0
379, 3700002453, -0.73589504, -0.1575867, 0.49014112, -0.43977267, 0.06061716, 0.086800866, 0.002735138, 0
382, 3700052454, -0.73609024, -0.15775365, 0.48917502, -0.44046122, 0.14512518, 0.07824019, 0.07253075, 0
383, 3700069121, -0.73617256, -0.15786466, 0.48877937, -0.44072282, 0.11377659, 0.13981609, 0.052167892, 0
385, 3700102455, -0.7362396, -0.15809181, 0.4881676, -0.4412074, 0.022242669, 0.059472788, -0.04996109, 0
386, 3700119122, -0.7361874, -0.15825957, 0.48800796, -0.44141087, -0.0069373953, 0.09155005, -0.047589302, 0
387, 3700135789, -0.7361576, -0.15840754, 0.48794034, -0.44148195, 0.050871547, 0.16082294, 5.7029724E-4, 0
389, 3700169123, -0.73629135, -0.15839735, 0.48789412, -0.44131386, 0.086684585, 0.15184245, 0.02917099, 0
390, 3700185790, -0.73636174, -0.15836516, 0.48784795, -0.44125903, 0.13697125, 0.110282, 0.01844883, 0
393, 3700235791, -0.7366049, -0.15817446, 0.48782146, -0.44095063, 0.10242616, 0.14611264, 0.05980587, 0
394, 3700252458, -0.73673004, -0.15802324, 0.4878172, -0.4408006, 0.06821168, 0.1660487, 0.065382004, 0
395, 3700269125, -0.7433098, -0.1398491, 0.49298093, -0.4300187, -1.5500604, 26.180904, -6.956379, 1024
397, 3700302459, -0.76922023, -0.05774998, 0.49193743, -0.4037029, -1.230361, -5.9263067, -15.399729, 0
398, 3700319126, -0.7695093, -0.08272882, 0.4857143, -0.4063328, -4.2393146, 0.42454895, -1.4308796, 0
400, 3700352460, -0.76191366, -0.103156775, 0.4871946, -0.4141267, 0.36364305, -0.43584535, 1.8986712, 0
401, 3700369127, -0.75672364, -0.11931557, 0.48773143, -0.41864598, 0.24555714, -2.0398617, -0.64205074, 0
402, 3700385794, -0.7519368, -0.1387048, 0.48597065, -0.42331773, 0.055240333, 0.8223603, 0.12857437, 0
404, 3700419128, -0.7472733, -0.14713013, 0.48872614, -0.42555293, -0.17613715, 0.59734565, -0.6117239, 0
405, 3700435795, -0.7470024, -0.14860572, 0.48821542, -0.42610186, 0.0761835, -0.07261594, 0.1601963, 0
408, 3700485796, -0.7457146, -0.15126175, 0.4868511, -0.42897436, -0.08149283, 0.27820873, 0.042129517, 0
409, 3700502463, -0.7456999, -0.15158458, 0.4861467, -0.42968413, 0.062121402, 0.42538226, 0.059755325, 0
410, 3700519130, -0.7457589, -0.15175395, 0.48537856, -0.43038982, 0.0039633317, 0.3409145, -0.034539223, 0
412, 3700552464, -0.7457736, -0.15174966, 0.48406577, -0.43184173, 0.058587216, 0.2987592, -0.13004208, 0
413, 3700569131, -0.7456629, -0.15168166, 0.48332825, -0.43288177, 0.19108972, 0.28945214, 0.12010288, 0
414, 3700585798, -0.7455633, -0.15146509, 0.48252812, -0.43402004, 0.1994129, 0.31718853, 0.30051994, 0
416, 3700619132, -0.74584466, -0.15030223, 0.48117316, -0.43544304, 0.086375244, 0.44090617, 0.18529701, 0
417, 3700635799, -0.74614984, -0.14940616, 0.48054025, -0.43592718, 0.029780867, 0.47068587, -0.012196541, 0
418, 3700652466, -0.7464182, -0.14837615, 0.47988793, -0.43653786, 0.105212465, 0.43467072, -0.090786934, 0
420, 3700685800, -0.74674356, -0.14619401, 0.47862867, -0.43809718, 0.33637896, 0.36624515, 0.013895988, 0
422, 3700719134, -0.7471064, -0.1437471, 0.4774087, -0.4396171, 0.30013588, 0.4502266, 0.103860855, 0
424, 3700752468, -0.748041, -0.14073236, 0.4759222, -0.44061357, 0.2361705, 0.6075577, 0.08808899, 0
425, 3700769135, -0.7488204, -0.1387683, 0.47492135, -0.44099218, 0.27856687, 0.80537325, 0.25538445, 0
426, 3700785802, -0.7497176, -0.13561457, 0.4737533, -0.44170487, 0.03333964, 0.23891188, -0.32379436, 0
428, 3700819136, -0.7519871, -0.13016847, 0.47165853, -0.4417275, 0.37040254, 0.5302709, -0.1217947, 0
429, 3700835803, -0.752913, -0.12759933, 0.4708561, -0.44175595, 0.61015195, 0.6929151, -0.113767624, 0
431, 3700869137, -0.7548742, -0.12133855, 0.46832865, -0.4428583, 0.7053497, 0.5379794, 0.06580162, 0
432, 3700885804, -0.7560098, -0.11725977, 0.4664443, -0.44400728, 0.7649744, 0.92107505, 0.73192596, 0
433, 3700902471, -0.75712794, -0.11380176, 0.4649914, -0.44452554, 0.35624924, 0.20840524, -0.14419365, 0
435, 3700935805, -0.75969774, -0.10561964, 0.46206445, -0.44521177, 0.6163437, 0.6607029, -4.9209595E-4, 0
437, 3700969139, -0.7633667, -0.09612035, 0.45797217, -0.44531655, 1.0283482, 0.7103755, -0.08647919, 0
439, 3701002473, -0.7666916, -0.08741987, 0.45410687, -0.44535604, 1.5467272, 0.24733147, -0.3474245, 0
440, 3701019140, -0.76840496, -0.08314648, 0.4515409, -0.44583046, 1.7528411, 0.21536085, -0.10422325, 0
441, 3701035807, -0.7702491, -0.07870143, 0.44850144, -0.44652236, 1.9638116, 0.23468415, 0.054049492, 0
443, 3701069141, -0.7726425, -0.07182765, 0.44284222, -0.44918633, 1.841234, -0.08923495, 0.17410755, 0
444, 3701085808, -0.7731866, -0.06888312, 0.44031554, -0.45119065, 1.8969733, 0.20046249, 0.16112804, 0
445, 3701102475, -0.77345014, -0.06592697, 0.43804073, -0.45338956, 1.8874819, 0.5091963, -0.17870808, 0
447, 3701135809, -0.77507293, -0.060731154, 0.43229678, -0.4568444, 2.0452194, 0.9066074, -0.49832535, 0
448, 3701152476, -0.7761418, -0.05797723, 0.42875087, -0.45872512, 1.946794, 0.6971556, -0.50375843, 0
449, 3701169143, -0.7769121, -0.054101083, 0.4252864, -0.46111333, 1.9673032, 1.2458005, -0.29149723, 0
452, 3701219144, -0.77867985, -0.047135778, 0.41378486, -0.46928808, 2.3616714, -0.31833187, -0.71977997, 0
454, 3701252478, -0.77939403, -0.044095922, 0.4050516, -0.4759695, 2.1610959, -0.16992457, -0.74884605, 0
455, 3701269145, -0.7799094, -0.041821357, 0.40075123, -0.47896135, 1.9803098, 1.4149784, -0.46054173, 0
456, 3701285812, -0.78055084, -0.04061374, 0.39631948, -0.4817001, 1.9468372, -0.05315786, -1.1388826, 0
458, 3701319146, -0.78227633, -0.037566524, 0.38727337, -0.48648226, 2.325862, 0.4867577, -1.0440464, 0
459, 3701335813, -0.78339714, -0.036017627, 0.3818904, -0.48904467, 2.989181, 1.5226525, -1.0045633, 0
460, 3701352480, -0.78450966, -0.035362206, 0.37592608, -0.49192172, 2.8019047, 0.13700098, -1.5572319, 0
462, 3701385814, -0.7862967, -0.03400569, 0.36330757, -0.49860007, 2.617678, 1.0267481, -1.7414637, 0
463, 3701402481, -0.7870964, -0.034325525, 0.3576916, -0.5013691, 2.5793903, 0.6063852, -2.149869, 0
466, 3701452482, -0.79080963, -0.033476494, 0.34088448, -0.5072579, 3.0282898, 0.73854524, -2.4686742, 0
467, 3701469149, -0.79219496, -0.03364359, 0.33481684, -0.50912315, 3.710026, 1.392232, -1.8896585, 0
468, 3701485816, -0.79317504, -0.034969933, 0.3287458, -0.51145864, 3.2706907, 0.1648959, -1.8294692, 0
470, 3701519150, -0.79275894, -0.038360894, 0.3174099, -0.5189664, 3.0968196, 1.3512007, -1.6714363, 0
471, 3701535817, -0.7917245, -0.038072694, 0.31335783, -0.52301335, 3.1601405, 2.7268975, -1.139184, 0
472, 3701552484, -0.790512, -0.03809267, 0.31057456, -0.5264945, 3.6477797, 2.1745958, -0.94300175, 0
474, 3701585818, -0.78594446, -0.03596967, 0.3066057, -0.5357272, 5.319339, 3.5720613, 2.467969, 0
478, 3701652486, -0.771949, -0.029324468, 0.30002087, -0.55967444, 2.2907817, 1.0843903, 4.070466, 0
479, 3701669153, -0.76920456, -0.029324196, 0.3017799, -0.56250024, 0.30067456, 0.03766696, 3.6929293, 0
481, 3701702487, -0.7675977, -0.029386293, 0.30676696, -0.5619942, -2.86124, 0.7675369, 3.9907656, 0
483, 3701735821, -0.771258, -0.02824238, 0.30785128, -0.5564212, -1.6754681, 1.6520858, 5.6081924, 0
485, 3701769155, -0.7769053, -0.028224539, 0.30862778, -0.54807276, -1.7474401, 1.4525548, 4.5741653, 0
486, 3701785822, -0.77913636, -0.028590854, 0.30834088, -0.54503983, -1.3500254, 1.6799058, 3.763444, 0
487, 3701802489, -0.7811715, -0.030187689, 0.30696526, -0.5428127, -0.49652642, 1.0125726, 3.4151745, 0
489, 3701835823, -0.78662944, -0.034942243, 0.30529693, -0.5355375, -0.085740015, 0.06207113, 2.2628736, 0
490, 3701852490, -0.79081476, -0.039613042, 0.3051465, -0.5290953, 0.54815996, -0.26206252, 2.1136465, 0
491, 3701869157, -0.79475176, -0.044542108, 0.30570135, -0.52244186, 1.3982642, -0.49395615, 1.6786642, 0
493, 3701902491, -0.8007722, -0.055681977, 0.30613312, -0.5118195, 1.2820227, 0.21880233, -0.0058937073, 0
494, 3701919158, -0.80233496, -0.060570933, 0.30637923, -0.50865996, 1.3300223, 0.6123007, -0.8548765, 0
495, 3701935825, -0.8032511, -0.06613429, 0.30688545, -0.50620997, 1.1742325, 0.34543732, -1.485753, 0
498, 3701985826, -0.8052633, -0.08669197, 0.31472376, -0.49497247, -0.09575876, -0.02993287, -3.1513224, 0
499, 3702002493, -0.80488527, -0.094204985, 0.3187214, -0.49164537, -0.021193499, 0.16259421, -3.201643, 0
501, 3702035827, -0.80333483, -0.10902423, 0.32678232, -0.48579198, 0.400442, 0.49571994, -2.1363506, 0
502, 3702052494, -0.8026914, -0.11612642, 0.33066264, -0.48257297, 0.5678242, 0.53984165, -1.8422041, 0
503, 3702069161, -0.80207044, -0.12327142, 0.33433318, -0.47929314, 0.6465919, 0.3262475, -1.8722401, 0
505, 3702102495, -0.8008437, -0.13543308, 0.34274995, -0.47206235, 0.09398245, -0.303048, -1.7389498, 0
506, 3702119162, -0.79930973, -0.14193286, 0.34780973, -0.46904242, -0.485887, -0.019243237, -2.107489, 0
508, 3702152496, -0.79674786, -0.1541256, 0.35604516, -0.4633392, -0.64706063, -0.257626, -1.8913207, 0
509, 3702169163, -0.79555845, -0.15966804, 0.3590505, -0.46118206, -0.08053574, 0.8300036, -0.68087196, 0
510, 3702185830, -0.79395, -0.16470443, 0.36251807, -0.4594669, 0.031139378, 0.32773268, -0.54472446, 0
513, 3702235831, -0.7867571, -0.1802012, 0.37366506, -0.45708704, -0.0057105324, -0.18555687, -0.97985363, 0
514, 3702252498, -0.7846005, -0.18440428, 0.37655643, -0.45674467, 0.07285673, 0.85127264, -0.24911118, 0
516, 3702285832, -0.77846324, -0.19471562, 0.38198864, -0.4584527, -0.03418653, 0.8572274, -0.06894398, 0
517, 3702302499, -0.7758405, -0.19969207, 0.38425758, -0.4588617, -0.43837908, 0.3392017, -0.59534264, 0
518, 3702319166, -0.7721638, -0.20492402, 0.38716683, -0.46030894, -0.55338365, 0.18313299, -1.0666971, 0
520, 3702352500, -0.7679338, -0.21301813, 0.39210087, -0.45953357, -0.65297186, 0.66182524, -0.6117735, 0
521, 3702369167, -0.7644362, -0.21816337, 0.39641318, -0.45925152, -1.059448, 0.22862358, -1.0496559, 0
522, 3702385834, -0.76292926, -0.22097233, 0.39889705, -0.4582626, -0.4718985, 1.0344731, 0.48694134, 0
524, 3702419168, -0.7615827, -0.22548471, 0.40538895, -0.45257226, -0.6356695, -0.003437741, 0.35745525, 0
525, 3702435835, -0.7603699, -0.22970632, 0.4093155, -0.44893956, -0.40665165, 0.048370663, 0.439147, 0
526, 3702452502, -0.760046, -0.23407394, 0.41146454, -0.4452526, 0.3555537, 0.2800794, 1.0017872, 0
528, 3702485836, -0.7610198, -0.24258421, 0.41203833, -0.4384513, 0.6861329, -0.505934, 1.0812702, 0
529, 3702502503, -0.7629159, -0.24266328, 0.41103777, -0.43604496, 0.06311961, 0.4146219, 1.4851837, 0
530, 3702519170, -0.76475596, -0.24132296, 0.40962288, -0.43489558, -0.5560533, 0.6607995, 1.1295404, 0
532, 3702552504, -0.7683414, -0.23631804, 0.40537527, -0.43530366, -0.91832155, 1.1069686, 0.36198044, 0
533, 3702569171, -0.7694577, -0.23502888, 0.40174478, -0.43739074, -0.72095805, 0.1987333, -0.30414867, 0
536, 3702619172, -0.770968, -0.2281929, 0.38972977, -0.4490662, -1.4472307, -0.9199644, -0.69706345, 0
537, 3702635839, -0.77102375, -0.22318372, 0.38705316, -0.45377797, -1.7058952, -0.14698665, -0.8799467, 0
539, 3702669173, -0.7719202, -0.21052313, 0.37881193, -0.46511763, -1.9222622, 0.37332878, -1.4351759, 0
541, 3702702507, -0.7765109, -0.19582883, 0.36574417, -0.4742641, -1.6033926, -0.46903422, -1.7277861, 0
543, 3702735841, -0.78226113, -0.17742318, 0.34930518, -0.48434287, -0.8722231, 0.21408534, -3.295024, 0
544, 3702752508, -0.78698367, -0.16817677, 0.33770928, -0.48819962, -0.108251125, 0.0668613, -3.889854, 0
545, 3702769175, -0.79329276, -0.1597406, 0.3236113, -0.49036574, 0.3161404, 0.22523333, -4.10553, 0
547, 3702802509, -0.80624276, -0.14960879, 0.28614014, -0.49570847, 0.8170854, -0.9542128, -4.741688, 0
548, 3702819176, -0.812191, -0.14964159, 0.2652909, -0.49758136, 1.6645318, -1.0524299, -5.2359395, 0
549, 3702835843, -0.81739974, -0.15358302, 0.24370703, -0.4988889, 2.6416514, -0.62291497, -4.9990735, 0
551, 3702869177, -0.8244366, -0.15945798, 0.20453858, -0.50304556, 5.603969, 0.9737959, -1.9870896, 0
552, 3702885844, -0.8256007, -0.15902266, 0.1877913, -0.50778246, 5.3207536, 2.783625, 0.79498005, 0
553, 3702902511, -0.8239731, -0.15782867, 0.17654005, -0.51478684, 4.9674244, 4.6247387, 1.3203325, 0
556, 3702952512, -0.8136231, -0.1398403, 0.16894008, -0.5384559, 5.6096478, 9.110319, 1.5245285, 0
557, 3702969179, -0.8111216, -0.13021332, 0.1738012, -0.5430772, 7.083326, 10.003743, 2.12426, 0
559, 3703002513, -0.8053464, -0.10618416, 0.19156939, -0.55086887, 6.5915585, 7.160709, 2.6848469, 0
560, 3703019180, -0.79984975, -0.09025626, 0.20648244, -0.55630255, 4.6519904, 3.8449183, 1.8234167, 0
561, 3703035847, -0.7939294, -0.07538499, 0.22408573, -0.56017137, 3.9330015, -0.8298285, 1.2417231, 0
563, 3703069181, -0.78363603, -0.053476393, 0.24304992, -0.5692055, 3.5105865, -3.2837327, 8.0763645, 0
564, 3703085848, -0.7763411, -0.054310758, 0.24875991, -0.5766079, -2.5324643, -12.553952, 4.964463, 0
566, 3703119182, -0.7706248, -0.059250444, 0.26511016, -0.5765038, -6.1101894, 0.32598144, 1.2692862, 0
567, 3703135849, -0.7671436, -0.064388916, 0.27047154, -0.5781032, -2.237213, 13.524609, 4.1230326, 0
568, 3703152516, -0.7700261, -0.059973415, 0.27657768, -0.5718224, -0.37029725, 2.8364313, 5.027671, 0
571, 3703202517, -0.7807431, -0.06306416, 0.2789442, -0.55557775, 4.2654905, -3.5324802, 6.6506157, 0
572, 3703219184, -0.7818328, -0.06476934, 0.28311682, -0.551725, 1.8010584, -3.266253, 3.8887634, 0
574, 3703252518, -0.78239614, -0.07479442, 0.29149958, -0.5452553, -3.216372, -2.4802113, -0.6734152, 0
575, 3703269185, -0.78194374, -0.08161708, 0.29541746, -0.54281163, -2.7292743, -0.30251053, -1.398488, 0
576, 3703285852, -0.78202844, -0.08756905, 0.29895568, -0.53981656, -1.3298159, 2.1417656, -0.8549557, 0
578, 3703319186, -0.78535324, -0.09948099, 0.30269045, -0.5307689, 1.4634799, 1.3510199, -1.0948801, 0
579, 3703335853, -0.7859025, -0.1060224, 0.30365992, -0.5281292, 1.4846205, 0.11766468, -1.772048, 0
580, 3703352520, -0.7854675, -0.111723684, 0.30539614, -0.52659774, 2.348465, -0.7502844, -1.6390953, 0
582, 3703385854, -0.7839866, -0.12507883, 0.31491485, -0.5201559, 1.374891, -1.2844976, -2.1881747, 0
583, 3703402521, -0.7832746, -0.13320225, 0.32183003, -0.51495326, -0.6803338, 0.75720125, -1.8646808, 0
586, 3703452522, -0.78111583, -0.15631709, 0.3395008, -0.5001754, -0.18955664, 2.1756454, -0.8101387, 0
587, 3703469189, -0.7791078, -0.16469525, 0.3437643, -0.49770063, 0.47873458, 0.8224074, -1.1413946, 0
589, 3703502523, -0.7757548, -0.1800953, 0.35011175, -0.49315846, 1.4137671, -0.14029333, -0.25723267, 0
590, 3703519190, -0.7736976, -0.18724477, 0.3540739, -0.4908936, 1.2163922, -0.67403173, 0.0732069, 0
591, 3703535857, -0.77155596, -0.19324112, 0.3590944, -0.48828673, 0.72538537, -0.6701551, -0.7388344, 0
593, 3703569191, -0.76664263, -0.20378277, 0.3688863, -0.48442525, -0.8016192, 1.4858091, -0.23144054, 0
594, 3703585858, -0.76437193, -0.21008265, 0.37402546, -0.48137206, -1.2482843, 0.5562634, -1.4266968, 0
595, 3703602525, -0.76285595, -0.21527147, 0.37740916, -0.47883695, -0.03315323, 1.3388772, -0.28862858, 0
597, 3703635859, -0.7601447, -0.22509366, 0.38448003, -0.4729706, 0.043284625, -0.8483291, -1.4567213, 0
598, 3703652526, -0.75820905, -0.22927493, 0.38845193, -0.4708189, 0.06193611, -0.112704955, -1.3686428, 0
599, 3703669193, -0.7565802, -0.23255174, 0.39196724, -0.46891493, -0.11531413, -0.29137373, -1.2737865, 0
601, 3703702527, -0.7549836, -0.23624171, 0.39670825, -0.46564513, -0.90706295, 0.22548266, -1.3149738, 0
602, 3703719194, -0.75439334, -0.23785627, 0.39893925, -0.46387053, -2.0331967, -0.253519, -1.8859696, 0
603, 3703735861, -0.75358504, -0.23963943, 0.40153748, -0.4620211, -2.2206414, -0.580493, -1.7400074, 0
605, 3703769195, -0.7507714, -0.24443054, 0.4098339, -0.45677733, -1.4188075, -0.050840035, -1.2621794, 0
606, 3703785862, -0.74986315, -0.24563238, 0.41343272, -0.45437533, -0.8073183, 0.003273459, -0.2835951, 0
607, 3703802529, -0.7495734, -0.245266, 0.41672537, -0.4520371, -0.47424665, 0.3159758, 0.67652416, 0
609, 3703835863, -0.7507005, -0.2420264, 0.42147085, -0.44749022, -0.49588093, 0.5539694, 1.2069149, 0
610, 3703852530, -0.7513654, -0.24113628, 0.42220926, -0.44615686, -0.32255602, 0.17059849, 0.14318848, 0
613, 3703902531, -0.7509336, -0.24343958, 0.41877788, -0.4488588, 0.80218667, -1.5507298, -0.012462616, 0
614, 3703919198, -0.7506461, -0.24210389, 0.41826376, -0.4505383, 0.16854665, -0.8727208, 0.62021255, 0
615, 3703935865, -0.75060725, -0.23940551, 0.4183744, -0.45194015, -0.3849852, 0.47968572, 0.41410828, 0
617, 3703969199, -0.74881786, -0.23494014, 0.41848603, -0.45711917, -0.15863384, 0.6575683, -0.4346733, 0
618, 3703985866, -0.7473894, -0.23244128, 0.418975, -0.46027526, 0.035269897, -0.5044889, -0.62750435, 0
620, 3704019200, -0.74623096, -0.22492233, 0.4188917, -0.4659316, -1.2043388, -1.0590055, 0.6779146, 0
621, 3704035867, -0.747136, -0.21985903, 0.41728356, -0.46833462, -0.1707094, -0.5801806, 0.29420185, 0
622, 3704052534, -0.7491978, -0.21461475, 0.4143081, -0.47011194, -1.0160583, 0.83153594, -0.63308525, 0
624, 3704085868, -0.7516875, -0.21170461, 0.40334472, -0.4769419, 1.3296734, -1.8745211, 0.0827713, 0
625, 3704102535, -0.7532141, -0.20722643, 0.3967372, -0.4820153, 0.61475, -1.5522428, 1.0527496, 0
628, 3704152536, -0.76671916, -0.1803898, 0.3696819, -0.4928993, -1.871947, 0.53141594, -2.5608487, 0
629, 3704169203, -0.7722065, -0.17089958, 0.35750723, -0.49668172, 0.15568069, 2.450734, -4.1996694, 0
630, 3704185870, -0.77801466, -0.16183126, 0.34190485, -0.50161564, 1.5341117, 2.408447, -4.5817, 0
632, 3704219204, -0.7921613, -0.13978967, 0.30286974, -0.5110995, -0.082750864, -1.5532746, -4.955929, 0
633, 3704235871, -0.7986492, -0.12997083, 0.2829942, -0.51497054, 0.8798976, -1.497711, -6.836494, 0
634, 3704252538, -0.80390245, -0.12544447, 0.26206553, -0.5189793, 2.089205, -0.24425691, -6.9243097, 0
636, 3704285872, -0.8105993, -0.12513995, 0.21897085, -0.52852035, 6.2308097, 3.5039325, -0.09929943, 0
637, 3704302539, -0.8115517, -0.12177552, 0.2046367, -0.53356487, 8.119909, 3.9087267, 2.3318205, 0
638, 3704319206, -0.8098182, -0.119917475, 0.19614288, -0.5397736, 5.2256465, 5.9278083, 1.7312584, 0
640, 3704352540, -0.8035961, -0.11521359, 0.19431984, -0.5506472, 4.407743, 7.825513, 2.4580212, 0
643, 3704402541, -0.8015246, -0.10407303, 0.22145267, -0.5456182, 3.3104177, 3.6092155, 2.3917542, 0
644, 3704419208, -0.80116653, -0.09916256, 0.23195225, -0.54268837, 2.8956869, -0.1541321, 4.078617, 0
645, 3704435875, -0.80106956, -0.096979246, 0.24334355, -0.5382191, -0.15667677, -6.1195436, 5.5763855, 0
647, 3704469209, -0.8005639, -0.10232456, 0.259137, -0.53055507, -2.4713151, -9.145515, 8.463533, 0
648, 3704485876, -0.7995402, -0.10537486, 0.26501027, -0.52859664, -1.3288046, -4.730097, 9.704258, 0
651, 3704535877, -0.79918754, -0.108961955, 0.2823645, -0.51933634, -1.028926, 0.14909351, 4.57681, 0
652, 3704552544, -0.8017716, -0.1115963, 0.28230768, -0.514805, 0.49949422, -1.2377833, 3.8859377, 0
653, 3704569211, -0.80354786, -0.113866694, 0.2828706, -0.5112169, 1.4341562, -1.5254791, 3.1196995, 0
655, 3704602545, -0.80768275, -0.118668064, 0.28742802, -0.5009639, 1.6592174, -1.0287837, 0.9298487, 0
656, 3704619212, -0.8099804, -0.12168984, 0.29011467, -0.49494448, 1.6634331, -0.89911103, -0.18775654, 0
659, 3704669213, -0.8116302, -0.13597974, 0.29760563, -0.4839527, 0.25923344, -0.19201437, -2.4194112, 0
660, 3704685880, -0.81119764, -0.14038989, 0.30111724, -0.48123872, 0.14402862, 0.21044728, -2.8248644, 0
661, 3704702547, -0.81105095, -0.14417705, 0.30581567, -0.47738796, 0.0066720853, 0.38092524, -2.8010702, 0
663, 3704735881, -0.80974, -0.15463749, 0.31515056, -0.4702146, 0.06573427, 0.28634244, -2.6399307, 0
664, 3704752548, -0.8099144, -0.15932319, 0.31975576, -0.46521437, -0.29146224, 0.58977485, -2.3092632, 0
665, 3704769215, -0.8097808, -0.16444236, 0.3246882, -0.46022233, -1.0409663, 0.6643636, -2.0996895, 0
667, 3704802549, -0.81036466, -0.1740158, 0.33484372, -0.4482416, 0.26557386, 1.0466859, -2.6115155, 0
668, 3704819216, -0.811262, -0.17701516, 0.34030995, -0.44127312, -0.09797064, 1.2687496, -1.4242773, 0
670, 3704852550, -0.81168765, -0.18188441, 0.3536219, -0.4278391, -0.17740902, 0.9149834, -2.2184043, 0
671, 3704869217, -0.81208885, -0.18396911, 0.36063838, -0.42026234, 0.0947762, 1.0419418, -2.0399427, 0
672, 3704885884, -0.8121277, -0.18625464, 0.3679271, -0.4127963, 0.3774785, 1.1363821, -1.964457, 0
674, 3704919218, -0.81032324, -0.1924316, 0.38232508, -0.40023404, 0.6801508, 0.9406, -1.2407188, 0
675, 3704935885, -0.8085468, -0.19568583, 0.38981554, -0.39498895, 0.5847014, 0.68367, -1.3487492, 0
676, 3704952552, -0.80650824, -0.19892833, 0.39726686, -0.39008272, 0.4399998, 0.1640774, -1.6021357, 0
678, 3704985886, -0.8033472, -0.20217371, 0.41071033, -0.3809061, -0.033348132, -0.2217785, -1.1365309, 0
679, 3705002553, -0.80214375, -0.20229122, 0.41651616, -0.3770561, -0.45855492, -0.30916166, -0.36515236, 0
680, 3705019220, -0.8007972, -0.20237601, 0.42186648, -0.37391138, 0.023698185, -0.27635399, -0.25576591, 0
682, 3705052554, -0.7966902, -0.20478094, 0.43213755, -0.36962134, 0.44112206, -1.0293643, -0.5712805, 0
683, 3705069221, -0.7951136, -0.20478792, 0.43574983, -0.36877048, 0.5416948, 0.0019198646, 1.0542164, 0
686, 3705119222, -0.79157317, -0.2043926, 0.44455197, -0.36609071, -0.04705976, -0.2687982, 0.84502983, 0
687, 3705135889, -0.79045683, -0.20669785, 0.44537798, -0.36620444, 0.3595151, -1.1215355, 0.039606094, 0
688, 3705152556, -0.7895466, -0.20975181, 0.44390997, -0.36820912, 0.8655106, -1.0385052, 1.6191101, 0
690, 3705185890, -0.7865022, -0.21548526, 0.43951684, -0.37658823, 0.039889015, -0.70118284, 0.9193678, 0
691, 3705202557, -0.78491396, -0.21827745, 0.43545812, -0.3829552, -0.25093934, -0.29584152, 1.3757677, 0
692, 3705219224, -0.78355616, -0.22072497, 0.43134078, -0.38894594, -0.6552086, 0.035060856, 0.7985792, 0
694, 3705252558, -0.7783452, -0.2249398, 0.42776006, -0.40076876, -0.9696897, 0.50431967, -0.28973007, 0
695, 3705269225, -0.77707803, -0.2254579, 0.42678475, -0.4039637, -0.6823716, 0.66063386, 0.10517883, 0
697, 3705302559, -0.7751015, -0.22554561, 0.42804286, -0.4063737, 0.12974793, 1.3132632, -0.68871593, 0
698, 3705319226, -0.7744208, -0.22621727, 0.4284819, -0.40683496, 0.58480555, 1.2218484, -1.0997295, 0
701, 3705369227, -0.7739923, -0.22488925, 0.42960644, -0.40720063, 0.4107759, -0.24031343, -0.77204514, 0
702, 3705385894, -0.77408206, -0.22367975, 0.4298565, -0.4074324, -0.38769707, -0.16174197, -0.9591465, 0
703, 3705402561, -0.7736044, -0.22402601, 0.42944238, -0.40858433, -0.85568297, -0.80817074, 0.2897787, 0
705, 3705435895, -0.771741, -0.22871089, 0.42615467, -0.41293183, 0.7212262, -2.257132, 1.7063885, 0
706, 3705452562, -0.7707556, -0.23044404, 0.42430127, -0.4157081, 0.6105587, -1.6937673, 1.5735025, 0
707, 3705469229, -0.7700419, -0.23076215, 0.42266336, -0.41851312, -0.022369623, -0.57822126, 0.8505993, 0
709, 3705502563, -0.7699282, -0.22454026, 0.42319167, -0.42156196, -1.4742832, 1.9910574, 0.02307415, 0
710, 3705519230, -0.77007484, -0.22253063, 0.42311716, -0.42243344, -1.297132, 2.5105186, 0.2382927, 0
711, 3705535897, -0.77015185, -0.22224057, 0.42293784, -0.4226252, -1.6680915, 1.9730903, -0.6374111, 0
713, 3705569231, -0.7703486, -0.22366121, 0.42196813, -0.4224866, -0.45660457, -0.535496, -0.3102665, 0
715, 3705602565, -0.77031505, -0.22463037, 0.4198388, -0.42415154, 0.028857088, -1.4005326, -0.6534319, 0
717, 3705635899, -0.76971376, -0.22291067, 0.41893086, -0.42703846, -0.58663905, -0.52501625, -1.1333799, 0
718, 3705652566, -0.7691151, -0.22275937, 0.41851252, -0.4286034, -0.7312459, -0.27212703, -1.2607088, 0
719, 3705669233, -0.768705, -0.22248316, 0.41899332, -0.42901254, -0.40290758, -0.6399521, -1.3440418, 0
721, 3705702567, -0.76793045, -0.22097088, 0.42244434, -0.42779535, -0.3329679, -0.66398644, -0.6134777, 0
722, 3705719234, -0.767307, -0.22038583, 0.42468306, -0.42699862, -0.54010475, -0.36367777, -0.5358181, 0
724, 3705752568, -0.7665381, -0.21799481, 0.42878544, -0.4255042, -0.064815626, 0.19643827, -0.006041527, 0
725, 3705769235, -0.76637733, -0.21626842, 0.43022245, -0.42522418, 0.14941216, -0.008801772, 0.7679682, 0
726, 3705785902, -0.7664394, -0.21468854, 0.43091214, -0.42521465, 0.2852173, -0.2860032, 1.6858978, 0
728, 3705819236, -0.76574445, -0.21417242, 0.4303876, -0.4272533, 0.3521089, -1.4745437, 1.4955359, 0
730, 3705852570, -0.7633937, -0.21288002, 0.4313277, -0.43114024, -1.0970912, -0.82492864, -0.1666975, 0
732, 3705885904, -0.7602284, -0.21152397, 0.4320514, -0.43664134, -0.67820895, -0.57797223, -0.56156826, 0
733, 3705902571, -0.75934553, -0.21094301, 0.43090126, -0.43958482, -0.6202161, -0.6226836, -0.117245674, 0
734, 3705919238, -0.7586706, -0.21074265, 0.42946413, -0.4422446, -0.2127736, -0.7869303, 0.075499535, 0
736, 3705952572, -0.7572744, -0.20786625, 0.42967972, -0.44577545, -0.14410244, 0.17130022, -0.6150112, 0
737, 3705969239, -0.7560077, -0.20623595, 0.4309963, -0.44740903, -0.13157493, 0.90021616, -0.7160692, 0
738, 3705985906, -0.7546699, -0.20516632, 0.4313917, -0.4497716, 0.08038487, 0.57143116, -0.85279274, 0
741, 3706035907, -0.75158674, -0.20369208, 0.43011364, -0.45677394, -0.3855773, -1.395285, 0.09171677, 0
742, 3706052574, -0.7509015, -0.20433843, 0.4302189, -0.4575125, 0.09962464, -0.9883591, -0.3173647, 0
744, 3706085908, -0.75011396, -0.20522203, 0.43039444, -0.4582433, 0.040660135, 1.3551439, -0.30423737, 0
745, 3706102575, -0.74995947, -0.20564567, 0.43052962, -0.45817906, -0.032240402, 1.4748133, -0.2848425, 0
746, 3706119242, -0.74939525, -0.20605037, 0.4305372, -0.45891273, -0.28061694, 1.178584, -0.43533707, 0
748, 3706152576, -0.74797523, -0.2081624, 0.43112656, -0.45972243, -0.5100539, -0.450263, -2.2064123, 0
749, 3706169243, -0.74778765, -0.20969036, 0.43246254, -0.45807534, -0.16706632, -0.05698871, -2.5810208, 0
750, 3706185910, -0.74868625, -0.2128141, 0.4328537, -0.4547856, 0.4435096, -0.010269191, -2.3888812, 0
752, 3706219244, -0.7530892, -0.21713549, 0.42856875, -0.4495008, 0.1559432, 0.27656874, -3.1070232, 0
753, 3706235911, -0.7569169, -0.21590784, 0.4237051, -0.44827217, -0.25788227, 0.7179798, -3.470203, 0
755, 3706269245, -0.7662435, -0.20565057, 0.4132309, -0.44702604, -1.6678901, 1.2917777, -5.890916, 0
756, 3706285912, -0.7712786, -0.19981955, 0.40831462, -0.44552684, -0.7734656, 2.1134105, -6.548642, 0
759, 3706335913, -0.7887738, -0.19128455, 0.37790734, -0.44547233, 1.3297604, -1.1665305, -4.8809276, 0
760, 3706352580, -0.79543114, -0.18679333, 0.3691758, -0.44285434, 1.1169329, -2.9901822, -3.27696, 0
761, 3706369247, -0.80317813, -0.1809535, 0.36245382, -0.43680793, 2.6016102, -1.6221741, -2.2880588, 0
763, 3706402581, -0.82139486, -0.1765329, 0.34159473, -0.42127568, 10.021912, 4.077722, 8.625252, 0
764, 3706419248, -0.8267995, -0.17532021, 0.3315196, -0.41925374, 11.407503, 3.4932642, 11.127937, 0
765, 3706435915, -0.83184606, -0.17474239, 0.31926516, -0.419023, 10.092857, 4.5993233, 13.430201, 0
767, 3706469249, -0.83721787, -0.1792968, 0.2939489, -0.42488384, 9.968772, 3.420226, 10.153236, 0
768, 3706485916, -0.8363185, -0.18714833, 0.28385326, -0.43010193, 8.509827, 2.7461727, 8.068834, 0
769, 3706502583, -0.83576894, -0.19110909, 0.27421156, -0.43564767, 5.636066, 2.4813402, 7.4100533, 0
771, 3706535917, -0.83850306, -0.19705032, 0.26250803, -0.43495595, -4.300627, 1.5546283, 4.7585287, 0
773, 3706569251, -0.83899283, -0.1996702, 0.26495877, -0.43131542, -12.21085, 0.04898644, 3.1544123, 0
775, 3706602585, -0.8421571, -0.1921317, 0.25665596, -0.43358707, 1.4508022, -3.7786698, 2.8598585, 0
776, 3706619252, -0.84665895, -0.18606278, 0.25189647, -0.43024528, 5.539385, -1.3885559, 3.60258, 0
778, 3706652586, -0.84874505, -0.1724731, 0.25525108, -0.42981964, -0.48196903, 3.4119503, -0.6576643, 0
779, 3706669253, -0.84584653, -0.17022726, 0.25909984, -0.43410453, -0.891489, 2.6105332, -2.0798135, 0
780, 3706685920, -0.84203154, -0.16973804, 0.26209885, -0.43987426, 0.1979547, 0.40808615, -1.4919462, 0
782, 3706719254, -0.83717823, -0.16828337, 0.2651588, -0.44779152, -0.23664457, 0.95960504, -0.5628767, 0
783, 3706735921, -0.83613753, -0.16517475, 0.26770118, -0.44937813, -0.6866806, 1.6424716, -0.9231634, 0
784, 3706752588, -0.8353045, -0.161431, 0.27179223, -0.44983217, -0.7174212, 1.5959733, -1.5830212, 0
786, 3706785922, -0.8329697, -0.1594688, 0.282337, -0.4483641, -2.2328982, 0.5070227, -2.8383489, 0
788, 3706819256, -0.8307269, -0.16161492, 0.29575, -0.44307858, -1.7669915, -1.3291242, -2.7514668, 0
790, 3706852590, -0.82969517, -0.16166565, 0.30536944, -0.43844363, -0.14560997, -1.4611092, -1.3163424, 0
791, 3706869257, -0.8282583, -0.16039616, 0.31105077, -0.43763256, 0.2439065, -1.3315597, -1.1205082, 0
792, 3706885924, -0.82692426, -0.15905319, 0.31811166, -0.4355647, 1.1079822, -1.2257468, -1.8625097, 0
794, 3706919258, -0.82268834, -0.15934023, 0.33204842, -0.43307248, 0.12053383, -0.5722458, -0.72894096, 0
795, 3706935925, -0.82052433, -0.15886828, 0.33981946, -0.4313198, -1.4041338, -0.09619411, -1.2233477, 0
796, 3706952592, -0.8186521, -0.16025424, 0.34589845, -0.42952874, -0.1498851, -2.0604837, -1.6192713, 0
798, 3706985926, -0.81482464, -0.16127977, 0.3598838, -0.42490804, 0.5047048, -1.1482071, -1.4647322, 0
799, 3707002593, -0.8126375, -0.16275838, 0.36548394, -0.4237508, 0.53496104, -0.6631676, -0.6980839, 0
800, 3707019260, -0.8104126, -0.16437718, 0.3714203, -0.4222227, 0.94006824, -0.2636121, -0.5169773, 0
803, 3707069261, -0.8038599, -0.17116326, 0.38982856, -0.41540268, -0.24154463, -1.6852993, -0.46878815, 0
804, 3707085928, -0.8015148, -0.17337525, 0.39555806, -0.41359657, -0.40655106, -1.1481813, -0.002603531, 0
806, 3707119262, -0.79600906, -0.17778277, 0.40634805, -0.41189492, 0.52546465, -1.0926231, -0.065618515, 0
807, 3707135929, -0.79237735, -0.18007594, 0.41263545, -0.41165042, 0.84134364, -0.8362903, -0.33802223, 0
809, 3707169263, -0.7851343, -0.18511058, 0.4236013, -0.41215742, 0.6345468, -0.7240745, -0.14403248, 0
810, 3707185930, -0.7814216, -0.18817045, 0.42817608, -0.41309887, -0.12856309, -0.70811003, -0.13516426, 0
811, 3707202597, -0.7780011, -0.1919105, 0.43194863, -0.41390622, -0.36839136, -1.3034824, -0.18639278, 0
813, 3707235931, -0.7717758, -0.19740742, 0.44155565, -0.41283685, -0.5226075, -0.79788226, -0.74111557, 0
814, 3707252598, -0.76850873, -0.19955812, 0.44690195, -0.41214392, 0.15872817, -0.30862063, -1.2272072, 0
815, 3707269265, -0.7654897, -0.20182054, 0.45114726, -0.4120357, -0.3371798, 0.1854335, -0.6798096, 0
817, 3707302599, -0.76056015, -0.20577872, 0.45793036, -0.41172373, -0.30056816, -1.3337251, 0.23633099, 0
818, 3707319266, -0.7583031, -0.20772693, 0.4612072, -0.41125086, -0.67782784, -1.0536474, 0.1157608, 0
819, 3707335933, -0.7561704, -0.20987673, 0.4644881, -0.4103927, -0.71387583, -1.0846953, 0.21052933, 0
821, 3707369267, -0.75298584, -0.21252273, 0.47172594, -0.40661332, -0.20678078, -0.4020995, 0.24909592, 0
822, 3707385934, -0.7522719, -0.21266097, 0.47465032, -0.404454, -0.58446044, 0.066736944, 0.6328907, 0
823, 3707402601, -0.7516801, -0.21303004, 0.47691086, -0.40269685, -0.35886168, -0.5675954, 0.90003395, 0
825, 3707435935, -0.7514738, -0.21121395, 0.48241565, -0.3974475, -0.52570736, -0.07897031, 0.30652905, 0
826, 3707452602, -0.7514331, -0.21047819, 0.48502117, -0.39473408, -0.30874693, -0.53049976, -0.14933681, 0
827, 3707469269, -0.7514233, -0.21013455, 0.48702747, -0.3924591, 0.1344207, -0.9775594, -0.19863987, 0
830, 3707519270, -0.7503337, -0.20980276, 0.49158606, -0.3890227, -0.13613862, -1.2178113, 0.28280735, 0
832, 3707552604, -0.7481613, -0.21024355, 0.49638227, -0.38687247, 0.15225703, -0.22927433, 0.002565384, 0
833, 3707569271, -0.74723876, -0.21089323, 0.49798772, -0.3862378, 0.20554386, -0.4995411, 0.0034694672, 0
834, 3707585938, -0.74666196, -0.2113957, 0.49883023, -0.38599128, 0.08776996, -0.8223341, -0.09271717, 0
836, 3707619272, -0.7450234, -0.21147113, 0.50053096, -0.3869135, -0.3957753, -0.7564109, -0.46450615, 0
837, 3707635939, -0.7435887, -0.21153668, 0.50205064, -0.38766813, -0.33501643, -0.44114017, -0.50708294, 0
838, 3707652606, -0.74201703, -0.21196333, 0.5035629, -0.3884842, -0.1884688, -0.5443579, -0.25692177, 0
840, 3707685940, -0.7405295, -0.21361592, 0.5050672, -0.3884642, 0.1886807, -0.64940923, 0.5164051, 0
842, 3707719274, -0.7400077, -0.21542516, 0.5044714, -0.38923335, -0.54393667, -0.57933384, 0.81993294, 0
844, 3707752608, -0.7389991, -0.21829274, 0.5024939, -0.3920992, -0.6830042, -1.5083343, -0.110687256, 0
846, 3707785942, -0.7380844, -0.21931636, 0.50201154, -0.39386484, -0.08369264, -0.46061793, -0.6915579, 0
848, 3707819276, -0.7412604, -0.21877515, 0.4956215, -0.3962866, -0.72277695, -0.26047692, -0.047530174, 0
849, 3707835943, -0.7444202, -0.2186898, 0.48931667, -0.39824134, -1.0745519, -0.98002505, -0.073488235, 0
852, 3707885944, -0.754393, -0.22070229, 0.46610814, -0.40612578, -0.8806353, -1.3236369, -3.4169827, 0
853, 3707902611, -0.75916195, -0.21949254, 0.45724815, -0.40796277, 0.13709278, -0.5507711, -3.1124845, 0
854, 3707919278, -0.76479703, -0.21675208, 0.4466004, -0.41068894, -0.54811436, 0.5630496, -3.2189898, 0
856, 3707952612, -0.7779804, -0.21345092, 0.41906732, -0.41663063, -1.9658688, 0.34418508, -4.7348943, 0
857, 3707969279, -0.78444594, -0.21214643, 0.4046592, -0.41940784, -0.8824388, -0.047302105, -6.248945, 0
859, 3708002613, -0.7957829, -0.20055576, 0.37760285, -0.42887765, 0.34588927, 0.8423064, -8.162515, 0
860, 3708019280, -0.80067515, -0.18895608, 0.3682925, -0.43311507, -0.378764, 0.66708386, -8.932472, 0
863, 3708069281, -0.817968, -0.15215886, 0.34015745, -0.4382719, 6.57583, 4.7022357, -0.49370575, 0
864, 3708085948, -0.8253187, -0.14856815, 0.32537124, -0.4369477, 4.6794143, 4.5131783, 1.8965263, 0
865, 3708102615, -0.83244, -0.14619355, 0.31353614, -0.43287322, 7.1527147, -0.025233049, 5.6789474, 0
867, 3708135949, -0.8447327, -0.14325738, 0.29492846, -0.42300653, 11.824599, 2.3932595, 10.424799, 0
868, 3708152616, -0.8525432, -0.15038949, 0.28041136, -0.4146514, 12.376545, 1.1154357, 10.823259, 0
869, 3708169283, -0.8591171, -0.16313249, 0.26481834, -0.4064359, 12.520575, -0.9972774, 9.896502, 0
871, 3708202617, -0.85900974, -0.18628646, 0.24535622, -0.40891725, 9.066297, -1.4681454, 7.1398735, 0
872, 3708219284, -0.85497206, -0.19913864, 0.23680699, -0.416296, 3.4645855, -1.9698023, 4.2930794, 0
873, 3708235951, -0.8554717, -0.20173827, 0.23287958, -0.41623336, -3.755191, -0.22862291, 6.89023, 0
875, 3708269285, -0.86435246, -0.18068317, 0.23440658, -0.40658975, -18.303455, 13.602194, 6.839468, 0
877, 3708302619, -0.8601338, -0.20701393, 0.21407461, -0.41412613, 0.29857552, -11.791351, 2.1809378, 0
879, 3708335953, -0.86042273, -0.19624846, 0.21936288, -0.4159958, 1.9318525, 0.47077337, 1.6898756, 0
880, 3708352620, -0.86458135, -0.18933642, 0.22021993, -0.41008192, 1.0562929, 5.1928463, 3.7758188, 0
881, 3708369287, -0.8677061, -0.18655676, 0.2220037, -0.4037451, 2.1166232, 5.640611, 4.8181524, 0
883, 3708402621, -0.8712649, -0.18276802, 0.23248132, -0.3917387, -1.7610217, 2.4341867, 3.5441856, 0
884, 3708419288, -0.8707823, -0.18088281, 0.24091606, -0.38857752, -3.0991845, -1.1601319, -0.29705906, 0
886, 3708452622, -0.8747419, -0.16877097, 0.25224888, -0.37779212, -0.7572076, -1.8914082, -3.158935, 0
887, 3708469289, -0.8780666, -0.16368972, 0.25671658, -0.36920804, 1.1051791, -0.7338794, -3.2447667, 0
888, 3708485956, -0.88083285, -0.15980232, 0.26360983, -0.3593328, 1.3357493, -0.56398904, -3.0407605, 0
890, 3708519290, -0.8825403, -0.15219665, 0.28183278, -0.34429994, -0.7933264, -0.8593432, -3.356626, 0
891, 3708535957, -0.8822731, -0.14749768, 0.2905336, -0.33976758, -0.8227504, -0.6860434, -3.058528, 0
892, 3708552624, -0.8814696, -0.14244694, 0.29988432, -0.3358615, -0.43763927, -1.1450118, -2.3280182, 0
894, 3708585958, -0.880485, -0.13439819, 0.3196161, -0.3233301, 0.16977061, -1.3957589, -2.0474463, 0
895, 3708602625, -0.88001525, -0.1312241, 0.33043322, -0.31492943, 0.5683579, -1.32399, -2.4205213, 0
896, 3708619292, -0.87874043, -0.12960702, 0.3402185, -0.30867773, 0.7071791, -1.2171558, -2.2475967, 0
898, 3708652626, -0.874758, -0.12883863, 0.3571484, -0.30109358, -0.052902833, -1.4784086, -1.407053, 0
899, 3708669293, -0.8728237, -0.12984097, 0.36324474, -0.29897586, 0.14704448, -2.578496, -0.5876751, 0
900, 3708685960, -0.8709707, -0.13014343, 0.36898613, -0.29721266, 0.063647546, -2.5316222, 0.46241093, 0
902, 3708719294, -0.86707944, -0.12567277, 0.3825939, -0.2932827, 0.7528665, -1.02381, -0.29008293, 0
904, 3708752628, -0.8601896, -0.12545493, 0.39485037, -0.29739118, -0.65075415, 0.30409274, -0.6484604, 0
906, 3708785962, -0.8531852, -0.12581491, 0.40580323, -0.30262673, -0.50861645, -2.0879626, -0.87998104, 0
907, 3708802629, -0.85086536, -0.12303429, 0.4118231, -0.30216837, -0.682776, -0.56990385, -0.5047245, 0
908, 3708819296, -0.8484214, -0.12145281, 0.4178195, -0.30144697, -0.99619347, 0.5219643, 0.5193138, 0
910, 3708852630, -0.8435198, -0.12250199, 0.42866376, -0.29954684, -0.93025464, -0.10245444, 0.4126873, 0
911, 3708869297, -0.8410721, -0.12154291, 0.43502614, -0.2976418, -1.3678441, -0.7600425, -0.3740549, 0
913, 3708902631, -0.8362517, -0.11664568, 0.4488215, -0.2926596, -0.22841951, -0.5675439, -1.4139786, 0
914, 3708919298, -0.83373606, -0.115061484, 0.45424944, -0.29208887, -0.21113771, -0.28858206, -1.0748386, 0
915, 3708935965, -0.83126754, -0.1130049, 0.4593004, -0.29202867, -0.09661124, -0.17467599, -1.009345, 0
917, 3708969299, -0.82584345, -0.11254367, 0.46661714, -0.2959702, -0.86860377, -1.9358996, 0.040942192, 0
919, 3709002633, -0.8200925, -0.11405839, 0.47525257, -0.29763612, -1.4813299, -1.2124194, 0.15606403, 0
921, 3709035967, -0.81554157, -0.11207879, 0.485204, -0.29482305, -0.27597636, 0.6528962, 0.46229172, 0
922, 3709052634, -0.8131109, -0.112590104, 0.4881538, -0.296468, -0.6772344, 1.548587, 0.38905907, 0
923, 3709069301, -0.81084925, -0.11470016, 0.48960635, -0.29944336, -1.1460868, 0.17223537, 0.61022663, 0
925, 3709102635, -0.80449504, -0.11930312, 0.49316776, -0.30879354, -1.9688197, -1.5558914, 0.1848898, 0
926, 3709119302, -0.8003023, -0.11925446, 0.49822903, -0.31156993, -2.8140974, -0.13119386, -1.3768768, 0
927, 3709135969, -0.79620504, -0.11963431, 0.50236857, -0.31525275, -1.5838828, -0.739924, -0.80581284, 0
929, 3709169303, -0.7889391, -0.121313795, 0.50909615, -0.32201314, -1.7466695, -0.07864172, -0.8624096, 0
930, 3709185970, -0.7866825, -0.12404822, 0.509511, -0.32581374, -1.6912479, -0.26629236, -0.2667055, 0
931, 3709202637, -0.78501904, -0.12767902, 0.50909925, -0.32905078, -1.6930753, -0.58617043, 1.2323523, 0
934, 3709252638, -0.7791472, -0.13478112, 0.5146883, -0.3314712, -1.6794963, 1.38521, 0.48842335, 0
935, 3709269305, -0.777875, -0.13525473, 0.51644444, -0.33153427, -1.764597, 1.4636778, -0.59497356, 0
937, 3709302639, -0.7775165, -0.13528529, 0.5159928, -0.33306247, -1.8447347, -0.3255844, -0.6437187, 0
938, 3709319306, -0.7773995, -0.13580486, 0.5153977, -0.33404467, -1.4866426, -0.92972004, -0.16740227, 0
939, 3709335973, -0.7766459, -0.13667558, 0.51559085, -0.3351423, -0.9343803, -1.0532508, 0.029248238, 0
941, 3709369307, -0.7747699, -0.1376585, 0.5166892, -0.33738303, -0.8489201, 0.43158162, 0.25659275, 0
942, 3709385974, -0.77406335, -0.13795213, 0.517415, -0.3377728, -0.8419237, -0.009543093, 0.29520512, 0
944, 3709419308, -0.77436465, -0.14035842, 0.5169608, -0.3367849, -0.2768503, -1.0985864, 0.61688423, 0
945, 3709435975, -0.77472115, -0.14194418, 0.516738, -0.33563986, -0.09631084, -0.50914276, 0.636384, 0
946, 3709452642, -0.77458835, -0.14226793, 0.517153, -0.3351698, -0.35848752, 0.36723393, -0.16096973, 0
949, 3709502643, -0.77448416, -0.13981506, 0.51558894, -0.33883244, -0.7409061, -0.64083594, -0.56001663, 0
950, 3709519310, -0.7754332, -0.14132713, 0.5119352, -0.34156352, -0.68667024, -1.5529358, 0.51755524, 0
952, 3709552644, -0.77734256, -0.14749178, 0.5036486, -0.34689504, 0.016836338, -2.333359, -0.22614479, 0
953, 3709569311, -0.7783025, -0.14921257, 0.49882266, -0.35095602, 0.55208284, -1.0526255, -1.1990318, 0
954, 3709585978, -0.7805793, -0.14997718, 0.49133146, -0.35610297, 0.5319577, -0.37005246, -1.365161, 0
956, 3709619312, -0.78840196, -0.15029934, 0.46991113, -0.36746317, -0.60076123, -0.026851632, -3.7064776, 0
957, 3709635979, -0.79179853, -0.15397358, 0.4566085, -0.37532565, -1.6080447, -0.43758377, -4.434019, 0
958, 3709652646, -0.79436314, -0.15949756, 0.4430719, -0.38372958, -0.68817997, -1.5353408, -5.050033, 0
960, 3709685980, -0.79945236, -0.16227955, 0.41915947, -0.39857268, -0.3230944, -2.2572608, -7.1856117, 0
961, 3709702647, -0.8030041, -0.1582951, 0.40950385, -0.40304706, 0.4899756, -0.14886865, -8.161785, 0
962, 3709719314, -0.80620426, -0.15409705, 0.39918005, -0.40860426, 1.174795, 2.6710012, -9.818422, 0
964, 3709752648, -0.8119073, -0.15436454, 0.3704432, -0.4239851, -1.1387516, 1.9031165, -5.998249, 0
965, 3709769315, -0.814463, -0.15490201, 0.3588278, -0.4288489, -0.25220644, 0.67896026, -3.928347, 0
967, 3709802649, -0.82660866, -0.14809972, 0.3427231, -0.421116, 5.8541217, 2.95735, 5.291006, 0
968, 3709819316, -0.83359593, -0.14221008, 0.33711234, -0.4138391, 7.0404797, 7.4167967, 10.11433, 0
969, 3709835983, -0.83910084, -0.14107653, 0.33300442, -0.40636027, 9.526251, 7.69118, 12.836155, 0
971, 3709869317, -0.85573596, -0.16958934, 0.30576894, -0.38141048, 12.179666, 0.9879095, 12.635206, 0
972, 3709885984, -0.85863864, -0.18339062, 0.2962988, -0.37593585, 11.705858, -0.56530446, 9.275555, 0
973, 3709902651, -0.85872066, -0.18756883, 0.29129884, -0.37759113, 9.034492, -1.9844383, 6.3970165, 0
976, 3709952652, -0.8516679, -0.19978365, 0.29392144, -0.3851908, -11.151888, 1.9190494, 5.1163645, 0
977, 3709969319, -0.8518795, -0.19552815, 0.29731143, -0.38430366, -15.936363, 4.338572, 7.198599, 0
979, 3710002653, -0.85365474, -0.19063841, 0.290542, -0.38798082, -4.7196407, -1.7188873, 8.794012, 0
980, 3710019320, -0.8558328, -0.1933909, 0.2875171, -0.3840538, 0.067282766, -5.9909797, 6.7414684, 0
981, 3710035987, -0.85675085, -0.19470876, 0.28744975, -0.3813823, 0.81928897, -4.7487726, 0.39336967, 0
983, 3710069321, -0.85944456, -0.18583158, 0.28402454, -0.38231558, 2.9971337, 2.7457104, 0.40286922, 0
984, 3710085988, -0.8609408, -0.17841877, 0.28562415, -0.38128698, 3.0354924, 5.430807, 2.0997791, 0
985, 3710102655, -0.8607218, -0.17416874, 0.28819472, -0.38181153, 1.7832673, 5.7237725, 2.1912603, 0
987, 3710135989, -0.85718316, -0.16994084, 0.29556876, -0.3860178, -2.650219, 0.9083472, -1.3250437, 0
988, 3710152656, -0.85567033, -0.16856721, 0.3022887, -0.38477063, -3.2372558, -2.200121, -3.773837, 0
991, 3710202657, -0.8611587, -0.15174939, 0.32065812, -0.36410135, -0.94302106, -0.9985019, -2.9673362, 0
992, 3710219324, -0.86231, -0.14272073, 0.3308155, -0.35584655, -1.1967148, -0.14824824, -2.7782354, 0
993, 3710235991, -0.8624697, -0.13492116, 0.34143105, -0.34839714, -1.5291364, -0.106740676, -3.4037995, 0
995, 3710269325, -0.8632908, -0.123017505, 0.358427, -0.3333752, -2.549981, 0.0338413, -3.7869964, 0
996, 3710285992, -0.8642254, -0.116867185, 0.3649441, -0.32601446, -1.7602465, 0.5970454, -3.3517833, 0
998, 3710319326, -0.866342, -0.10844351, 0.37822974, -0.3076476, 0.81983817, -1.1122365, -2.305211, 0
999, 3710335993, -0.8672398, -0.10488386, 0.38481683, -0.29803365, 0.5229396, -1.2573972, -1.9643621, 0
1000, 3710352660, -0.8674285, -0.10229035, 0.3909742, -0.29027045, -0.38535902, -2.736492, -1.7933683, 0
1002, 3710385994, -0.86691934, -0.09677488, 0.40312824, -0.27674273, -0.8609013, -1.5495776, -1.7546387, 0
1003, 3710402661, -0.86561275, -0.09573685, 0.41005945, -0.2709495, -0.3283269, -1.9090328, -2.0214152, 0
1006, 3710452662, -0.8595051, -0.10206438, 0.42838335, -0.25948924, 0.6003719, -1.9108263, 1.386694, 0
1007, 3710469329, -0.8567694, -0.10445867, 0.43380842, -0.2585694, 0.35471728, -1.7392281, 1.5480194, 0
1008, 3710485996, -0.85417694, -0.10645684, 0.43841684, -0.2585585, 0.017445186, -1.8354247, 1.8886127, 0
1010, 3710519330, -0.85038555, -0.11094583, 0.4449426, -0.2580213, 1.2015359, -1.0256808, 1.2657881, 0
1011, 3710535997, -0.8490073, -0.113804504, 0.44627774, -0.25900716, 0.94355637, -0.69959193, 0.82035923, 0
1012, 3710552664, -0.8476189, -0.115797594, 0.44731513, -0.26087517, -0.31823283, -0.25361428, 0.2696371, 0
1014, 3710585998, -0.8444282, -0.11564232, 0.45076987, -0.26530737, -1.4279838, 0.8493571, -1.0948935, 0
1015, 3710602665, -0.84308803, -0.11349963, 0.45305932, -0.2665912, -0.7421133, 1.5762904, -1.2743292, 0
1016, 3710619332, -0.84220284, -0.11149636, 0.45539916, -0.26624766, -0.87228996, 1.4789755, -0.635046, 0
1019, 3710669333, -0.84391457, -0.11247375, 0.45387158, -0.26300526, -2.3609552, -1.0388011, -0.5573473, 0
1023, 3710736001, -0.8471425, -0.10366063, 0.45500764, -0.25413647, -0.2089341, -0.10709468, 0.33123207, 0
1025, 3710769335, -0.84717286, -0.101316705, 0.45588484, -0.2534073, -0.13759011, -0.5019611, -0.66727734, 0
1026, 3710786002, -0.846341, -0.1018704, 0.45612866, -0.2555176, -0.3881783, -1.3298286, -0.6797409, 0
1027, 3710802669, -0.8447497, -0.103133164, 0.4575314, -0.25775987, -0.50860506, -2.1081376, -0.9293518, 0
1029, 3710836003, -0.8402845, -0.107519485, 0.46209705, -0.26237577, -0.8957375, -1.6812601, -1.7322102, 0
1030, 3710852670, -0.8381237, -0.110987544, 0.46412876, -0.2642508, -1.2925097, -0.86691403, -1.586546, 0
1031, 3710869337, -0.835963, -0.11555876, 0.4657707, -0.26623824, -1.407097, -0.47537094, -1.1907368, 0
1033, 3710902671, -0.83175385, -0.12554951, 0.46841183, -0.27023387, -0.59868574, -0.13962327, -0.6440315, 0
1034, 3710919338, -0.82988465, -0.12948768, 0.46933883, -0.27250478, -0.23965774, -0.06298417, -0.33670998, 0
1035, 3710936005, -0.8280348, -0.13291617, 0.4701454, -0.27507874, -0.6676712, 0.32193667, -0.17399216, 0
1037, 3710969339, -0.82287, -0.14569683, 0.46918166, -0.28555092, -1.9051744, -0.41981104, -1.0171824, 0
1039, 3711002673, -0.8171807, -0.16161256, 0.46539062, -0.2992025, -1.9268949, -0.8529572, -1.1439734, 0
1041, 3711036007, -0.813474, -0.1721141, 0.46161625, -0.30912843, -1.7722497, -0.38494483, -1.5226612, 0
1042, 3711052674, -0.81244916, -0.17706147, 0.4598727, -0.3116182, -1.7848585, 0.66265804, -1.0567427, 0
1043, 3711069341, -0.811641, -0.18302909, 0.45783624, -0.31327063, -1.5096644, 1.1367693, -0.28671837, 0
1045, 3711102675, -0.80969125, -0.19450007, 0.45344752, -0.31775537, -2.429493, 0.056454007, 1.8156815, 0
1046, 3711119342, -0.8088455, -0.19809908, 0.45214757, -0.31953332, -1.8631315, -0.17983015, 0.6128588, 0
1048, 3711152676, -0.8062879, -0.20258889, 0.4507, -0.3251776, -1.3825481, 0.18087842, -1.8634324, 0
1049, 3711169343, -0.80519605, -0.20274793, 0.4518058, -0.32624748, -0.8925782, 0.88792646, -1.9527717, 0
1052, 3711219344, -0.80214393, -0.20418602, 0.457157, -0.32541367, -0.47495183, -0.105910555, -0.21432209, 0
1053, 3711236011, -0.80130756, -0.20542642, 0.4586951, -0.32452804, -0.6236023, -1.1797758, -0.18888092, 0
1054, 3711252678, -0.8007223, -0.20681682, 0.45964876, -0.32373884, -0.32585865, -1.6223762, 0.27548218, 0
1056, 3711286012, -0.7985329, -0.21034336, 0.46060154, -0.32551554, 0.7748586, -0.894372, 1.5975428, 0
1057, 3711302679, -0.7969421, -0.21222524, 0.4604636, -0.32837504, 0.31546664, -0.38851643, 1.913332, 0
1058, 3711319346, -0.7951048, -0.21382923, 0.46014062, -0.3322183, -0.6631442, -0.26189068, 1.5580206, 0
1060, 3711352680, -0.79059094, -0.21515617, 0.4613201, -0.34039792, -1.3700198, 0.6914969, 1.105236, 0
1061, 3711369347, -0.7877807, -0.21607834, 0.46311575, -0.34387335, -0.8715369, 1.0012454, 1.4589252, 0
1062, 3711386014, -0.7852286, -0.21742484, 0.46464193, -0.34679046, -0.089514256, 0.7751472, 1.6086702, 0
1064, 3711419348, -0.78369266, -0.21742204, 0.46475822, -0.35009497, -0.017133608, 0.3516962, 1.5153713, 0
1066, 3711452682, -0.78672135, -0.21306257, 0.459921, -0.352363, -1.7169409, 1.1916702, 0.38204956, 0
1068, 3711486016, -0.7904004, -0.20722762, 0.45509, -0.3538794, -2.2468555, -0.3248787, -1.4152985, 0
1069, 3711502683, -0.7923482, -0.2048774, 0.45268437, -0.35397685, -1.5921601, -1.4886408, -1.897481, 0
1070, 3711519350, -0.7945752, -0.2018639, 0.44941148, -0.35488588, -2.2117336, -0.9732675, -1.5883102, 0
1072, 3711552684, -0.8026027, -0.19143666, 0.43641192, -0.35880223, -2.6088285, -0.6039103, -1.793004, 0
1073, 3711569351, -0.8078078, -0.18268763, 0.42949915, -0.36002156, -3.1299393, 0.5861062, -2.4299378, 0
1075, 3711602685, -0.8173555, -0.16510928, 0.41264638, -0.36661333, 0.4475572, 2.3741257, -3.9019594, 0
1076, 3711619352, -0.82381546, -0.15278456, 0.39906102, -0.3724895, 0.3462904, 0.50446594, -4.031687, 0
1077, 3711636019, -0.8312268, -0.14170185, 0.38343576, -0.37679276, -1.20108, -1.6567132, -4.2962537, 0
1079, 3711669353, -0.84688044, -0.12525271, 0.3512955, -0.37909096, 3.0161695, 0.158822, -4.4054446, 0
1081, 3711702687, -0.8625566, -0.12774013, 0.31062624, -0.37842232, 3.0721216, 0.1637932, -4.026672, 0
1083, 3711736021, -0.8730137, -0.119466186, 0.2793608, -0.38150483, 6.3501306, -0.015892858, -0.63095474, 0
1084, 3711752688, -0.87322, -0.108597204, 0.27519426, -0.38726586, 8.491586, 2.6749554, 1.9962015, 0
1085, 3711769355, -0.870128, -0.09714748, 0.27634165, -0.39634377, 10.262088, 3.8401828, 3.2312593, 0
1087, 3711802689, -0.8669495, -0.07741232, 0.28156722, -0.4039047, 9.503415, 3.9159586, 6.0968256, 0
1088, 3711819356, -0.86512625, -0.06870482, 0.28504047, -0.40694153, 7.9559703, 1.3541737, 5.0704308, 0
1089, 3711836023, -0.86268705, -0.058997914, 0.29000452, -0.410123, 5.810247, -1.6880206, 3.1974468, 0
1091, 3711869357, -0.8578496, -0.031330414, 0.30773798, -0.41039386, -0.9125985, -5.187335, 6.4834995, 0
1092, 3711886024, -0.8542222, -0.024280649, 0.3185423, -0.4101938, -8.635416, -9.02546, 3.6198168, 0
1095, 3711936025, -0.8511459, -0.0289637, 0.33146384, -0.4060257, -3.9870331, 4.498314, 5.1736126, 0
1097, 3711969359, -0.8551028, -0.026437074, 0.33474383, -0.3950445, 0.41482037, -1.3427472, 6.8432007, 0
1099, 3712002693, -0.85991174, -0.028313395, 0.3381634, -0.38132513, -1.1555322, -1.5214247, 3.0214834, 0
1100, 3712019360, -0.8617617, -0.032200962, 0.3391669, -0.37591085, 0.27312702, -2.944556, 3.6001472, 0
1102, 3712052694, -0.8650894, -0.037527766, 0.34472132, -0.36248112, -0.6832344, -1.1254934, 1.2929316, 0
1103, 3712069361, -0.86626965, -0.03885891, 0.34740257, -0.3569197, -0.87336546, -0.75941247, 0.91600704, 0
1104, 3712086028, -0.866973, -0.0392523, 0.35068902, -0.3519199, -0.9985162, -0.46295395, 0.12331486, 0
1106, 3712119362, -0.8674046, -0.044442233, 0.35815167, -0.34259987, -1.3063009, -0.6822555, -1.3885746, 0
1107, 3712136029, -0.8671643, -0.04819695, 0.36244515, -0.3381567, -0.855741, -0.3427847, -1.7795858, 0
1108, 3712152696, -0.8672004, -0.05109203, 0.3673021, -0.33234873, -0.094667345, -0.118928336, -1.8356175, 0
1110, 3712186030, -0.8681708, -0.058428165, 0.3769488, -0.3174721, 0.6723529, -0.6091468, -1.3602848, 0
1111, 3712202697, -0.86840683, -0.06360172, 0.38118672, -0.31069994, 0.50347054, 0.734793, -1.6058083, 0
1112, 3712219364, -0.8688083, -0.07029402, 0.38360238, -0.30511218, 0.82185555, 0.90200734, -1.6149807, 0
1114, 3712252698, -0.8692963, -0.08397678, 0.38708252, -0.2957234, 0.57289994, -0.85915685, -0.5157728, 0
1115, 3712269365, -0.8673163, -0.09044416, 0.3925137, -0.29245293, -0.69723123, -1.7912632, -1.6938047, 0
1116, 3712286032, -0.86573607, -0.0944183, 0.39782298, -0.28868067, -0.04042034, -0.28653088, -1.4124699, 0
1118, 3712319366, -0.8610582, -0.10432429, 0.40961778, -0.28270468, -0.8019891, 1.4331123, -2.092163, 0
1119, 3712336033, -0.8585793, -0.10961695, 0.41448435, -0.2811436, -0.7732567, 1.342626, -1.5927563, 0
1120, 3712352700, -0.8558328, -0.11407636, 0.41920316, -0.28074682, -0.37338084, 1.002151, -0.7998285, 0
1122, 3712386034, -0.8480582, -0.12739186, 0.4293285, -0.2833, -0.007995059, 0.6036241, -0.14941978, 0
1124, 3712419368, -0.84037966, -0.138782, 0.43658015, -0.28967658, -0.08131133, -0.23594223, -0.865016, 0
1126, 3712452702, -0.8314981, -0.1499033, 0.44408622, -0.298229, -0.66540366, -0.3081804, -0.5312357, 0
1127, 3712469369, -0.8261243, -0.15524864, 0.44965506, -0.3020595, -1.624329, 6.140739E-4, -1.474577, 0
1129, 3712502703, -0.8178791, -0.16487384, 0.45935035, -0.30479676, -1.6573495, 1.7376391, -1.9113665, 0
1130, 3712519370, -0.81413656, -0.17119516, 0.46379796, -0.30459657, -1.6492051, 1.5579593, -1.7943516, 0
1131, 3712536037, -0.81138265, -0.17655978, 0.46649, -0.3047707, -1.1370978, 1.3136755, -0.753973, 0
1133, 3712569371, -0.8061117, -0.18447825, 0.47336626, -0.30346248, -1.6293471, -0.60783607, -0.6476755, 0
1134, 3712586038, -0.8047692, -0.18535215, 0.4766315, -0.30137426, -1.141227, 0.7134951, 0.71272564, 0
1135, 3712602705, -0.8031262, -0.18661551, 0.47990805, -0.2997739, -1.3274632, 0.48667794, 0.361763, 0
1137, 3712636039, -0.801969, -0.18778151, 0.4827252, -0.297613, -1.1238714, 1.2146438, 0.68988895, 0
1141, 3712702707, -0.8041522, -0.18282938, 0.48467356, -0.2915776, -1.9632537, -0.19334216, 0.75297356, 0
1142, 3712719374, -0.8055581, -0.1808837, 0.48373428, -0.29046828, -1.8365244, -0.5180904, 0.36607838, 0
1143, 3712736041, -0.80730176, -0.17876555, 0.482056, -0.2897276, -2.035501, -0.73465097, 0.076146126, 0
1145, 3712769375, -0.8111049, -0.17399937, 0.4781802, -0.28842676, -2.4700975, -0.84934723, -0.4152918, 0
1146, 3712786042, -0.8131405, -0.17117457, 0.47631317, -0.28747326, -2.4090402, -0.2550671, -0.4219141, 0
1147, 3712802709, -0.8154412, -0.1681601, 0.4737359, -0.28699413, -2.3602765, 0.10496277, -0.5981264, 0
1149, 3712836043, -0.8215228, -0.16126098, 0.4650961, -0.28774017, -1.620805, -0.09675681, -1.6317654, 0
1150, 3712852710, -0.82536453, -0.15717438, 0.4594173, -0.2881297, -1.699677, -0.6908838, -1.9439268, 0
1151, 3712869377, -0.8303467, -0.15169919, 0.45239738, -0.28785712, -0.9678815, -0.91107893, -2.4542603, 0
1153, 3712902711, -0.84280676, -0.14020151, 0.431473, -0.2895941, -2.1838446, -0.92358047, -3.5271182, 0
1156, 3712952712, -0.86309004, -0.12242259, 0.39240357, -0.29346386, 0.32205737, -0.26129144, -3.406618, 0
1157, 3712969379, -0.8707097, -0.11758644, 0.37551716, -0.29502243, -1.021524, -1.3846709, -4.0032024, 0
1158, 3712986046, -0.87770945, -0.11238135, 0.35938248, -0.2964018, -0.7705088, -1.8051864, -5.0893865, 0
1160, 3713019380, -0.89058363, -0.10545881, 0.33008632, -0.2946106, 1.2247599, 0.12647462, -4.6627874, 0
1161, 3713036047, -0.89569706, -0.10616818, 0.31753552, -0.29264256, 2.301083, 1.5224103, -2.8816261, 0
1162, 3713052714, -0.90054166, -0.10583933, 0.30438524, -0.29186592, 2.5853343, 2.0977955, -1.3948593, 0
1164, 3713086048, -0.90977955, -0.09729581, 0.2883985, -0.28226665, 6.3389187, -0.11139584, 1.6116304, 0
1165, 3713102715, -0.9127531, -0.08949601, 0.28567722, -0.2779823, 9.09005, -1.0337625, 2.6065226, 0
1166, 3713119382, -0.9143507, -0.08227142, 0.28408968, -0.2765875, 10.792702, 1.8075665, 4.703884, 0
1168, 3713152716, -0.9139931, -0.073769815, 0.28364447, -0.28059506, 11.262118, 3.1292155, 5.537133, 0
1170, 3713186050, -0.9112086, -0.05223953, 0.29135427, -0.28652427, 7.3850665, 2.124087, 3.1163158, 0
1172, 3713219384, -0.9079818, -0.025719136, 0.30251294, -0.28880224, 3.4449522, -2.756018, 3.0778656, 0
1173, 3713236051, -0.9057706, -0.010620937, 0.3098748, -0.28889075, -0.41190755, -4.716355, 5.6848774, 0
1174, 3713252718, -0.9023176, -0.0029480532, 0.32142627, -0.28725034, -8.316472, -5.497316, 0.93891144, 0
1176, 3713286052, -0.8995726, -0.0011489764, 0.32591954, -0.2907874, -6.3049326, -5.215218, 5.9887924, 0
1177, 3713302719, -0.8986707, -0.0015408993, 0.32918203, -0.2898981, -0.6073205, 3.4208748, 7.162964, 0
1178, 3713319386, -0.8972754, -0.0011131689, 0.33321154, -0.28961867, 1.681459, 5.8469796, 7.5625, 0
1180, 3713352720, -0.90025496, 0.0051848516, 0.33505094, -0.27797216, -1.4827206, -2.5596235, 3.0705366, 0
1181, 3713369387, -0.9015001, 0.004009895, 0.33431062, -0.27482957, -1.2098101, -4.0301566, 3.8320694, 0
1182, 3713386054, -0.9011929, 0.0023932457, 0.3375356, -0.27189836, -3.163159, -3.6851115, 3.4820032, 0
1184, 3713419388, -0.8998522, -0.0040006787, 0.34600052, -0.26560643, -0.3022378, 0.15147758, 1.0261793, 0
1185, 3713436055, -0.89957786, -0.0067936033, 0.34889248, -0.26268017, -1.6422484, 0.7899974, 0.4499569, 0
1187, 3713469389, -0.8993581, -0.013420433, 0.3542225, -0.25595808, -0.3264733, -0.83918834, 0.18152237, 0
1188, 3713486056, -0.8987342, -0.017618261, 0.35794136, -0.25270075, -0.11650725, -0.8528725, -0.48018265, 0
1189, 3713502723, -0.8978306, -0.021516532, 0.36195904, -0.24987265, -0.22075212, -0.30209982, -1.2811327, 0
1191, 3713536057, -0.8951921, -0.03102918, 0.37233925, -0.24299179, 0.7310926, 0.2443028, -1.9885111, 0
1192, 3713552724, -0.8937689, -0.036739875, 0.37798232, -0.23868407, 0.58103466, -0.07781989, -1.9748654, 0
1193, 3713569391, -0.89187, -0.043970052, 0.3838067, -0.23524494, 0.13531028, 0.039571095, -1.8011074, 0
1195, 3713602725, -0.88786644, -0.056643113, 0.39521745, -0.22869502, 0.1952864, -0.28664997, -1.6317759, 0
1197, 3713636059, -0.88236576, -0.068145394, 0.40767357, -0.22494988, 0.70776004, 0.36002997, -1.5648823, 0
1199, 3713669393, -0.8753728, -0.07547249, 0.42315227, -0.22131784, -0.08341771, 0.73788154, -1.90201, 0
1200, 3713686060, -0.87214816, -0.07801119, 0.43060195, -0.21878538, -0.23179455, 1.3786815, -1.9300199, 0
1201, 3713702727, -0.8682627, -0.08291622, 0.43808058, -0.21758555, -0.8220107, 0.6345965, -2.611763, 0
1203, 3713736061, -0.86262524, -0.089449495, 0.44956282, -0.21396968, -0.5640734, 0.09162116, -2.0533729, 0
1204, 3713752728, -0.85962176, -0.092264235, 0.4556873, -0.21189699, -0.8275395, -0.10438963, -2.5915747, 0
1205, 3713769395, -0.8569417, -0.09490393, 0.46115437, -0.20974764, -0.6326221, 0.08897831, -2.2992616, 0
1207, 3713802729, -0.85178375, -0.09860999, 0.47192037, -0.205049, -1.4577314, 0.61997867, -1.7189856, 0
1208, 3713819396, -0.84833425, -0.0997326, 0.47860768, -0.20329905, -1.9469581, 1.0132722, -2.3348303, 0
1210, 3713852730, -0.8446208, -0.101262026, 0.48729378, -0.19728106, -1.488219, 0.7449677, -1.4523897, 0
1212, 3713886064, -0.8384206, -0.10727891, 0.49865124, -0.19209965, -2.225099, -0.22917463, 0.38238144, 0
1214, 3713919398, -0.83096194, -0.1125783, 0.5103601, -0.19072053, -0.0719439, -0.063811034, 0.48561573, 0
1215, 3713936065, -0.82830596, -0.11486475, 0.5136366, -0.19211012, -0.1206978, -0.6503986, 1.6401453, 0
1216, 3713952732, -0.82582533, -0.11674548, 0.5169166, -0.19285627, 0.1962998, -0.45644888, 2.2034445, 0
1218, 3713986066, -0.8208344, -0.1216047, 0.52260953, -0.19579546, -0.08507797, 0.5211162, 0.6040678, 0
1219, 3714002733, -0.8185305, -0.124283865, 0.5246315, -0.19833407, 0.3218421, 0.8370131, 0.0439291, 0
1220, 3714019400, -0.8164412, -0.12724921, 0.5263377, -0.20053278, 0.3075127, 0.7800188, -0.23332596, 0
1222, 3714052734, -0.81409985, -0.13339663, 0.526739, -0.20495415, -0.47729358, 0.48819482, 0.18211842, 0
1223, 3714069401, -0.81394035, -0.1351781, 0.52594846, -0.20644459, -0.69373953, 0.6820988, 0.62410164, 0
1224, 3714086068, -0.8131304, -0.13800682, 0.5255693, -0.20871775, -1.5320262, 0.44885084, -0.17511654, 0
1227, 3714136069, -0.81143665, -0.14584455, 0.52296966, -0.21636993, -1.5993054, -0.39015535, -1.3600845, 0
1230, 3714186070, -0.81132555, -0.15164113, 0.51839525, -0.2236855, -1.1357856, 0.15106596, 0.55809116, 0
1231, 3714202737, -0.81137663, -0.15248756, 0.51710373, -0.22590393, -1.1649886, 0.46979693, 1.1531067, 0
1232, 3714219404, -0.8113788, -0.15327807, 0.5157126, -0.22852586, -1.1367275, 0.36574498, 1.0691757, 0
1234, 3714252738, -0.81179106, -0.15298468, 0.51305395, -0.23319477, -1.3804544, 0.35978988, 0.7969036, 0
1235, 3714269405, -0.81261116, -0.15123203, 0.5114918, -0.2349072, -1.7615577, 0.668134, 0.9067097, 0
1237, 3714302739, -0.8155861, -0.14631991, 0.5069974, -0.23743771, -2.0688572, 0.8314482, 0.6614027, 0
1238, 3714319406, -0.8174985, -0.14435476, 0.5036739, -0.23913105, -2.237575, 0.29473835, 0.33647156, 0
1239, 3714336073, -0.8197757, -0.14103304, 0.49986774, -0.24129428, -2.545733, -0.047941208, 0.13614655, 0
1241, 3714369407, -0.82625955, -0.12731463, 0.4917438, -0.24349043, -1.9859151, 0.7370757, -1.8967218, 0
1243, 3714402741, -0.83591956, -0.11262346, 0.4782194, -0.24469163, -2.5464597, 1.1329601, -2.6543841, 0
1245, 3714436075, -0.84943306, -0.09642292, 0.4590154, -0.24183552, -3.3853636, -0.2604796, -3.63276, 0
1246, 3714452742, -0.8573733, -0.08746691, 0.44645423, -0.24073356, -3.0160842, -0.42251894, -4.718227, 0
1247, 3714469409, -0.86574376, -0.07844531, 0.43252048, -0.23931858, -1.7859836, 0.45365775, -5.831629, 0
1249, 3714502743, -0.884208, -0.06988655, 0.39370167, -0.24146312, -0.32332915, -1.2573957, -2.9600735, 0
1250, 3714519410, -0.89267486, -0.069426864, 0.37270552, -0.24375251, -0.17115326, -2.5507517, -2.6916356, 0
1251, 3714536077, -0.9001764, -0.06976144, 0.35401908, -0.2439255, 0.8963883, -2.9718938, -4.6648135, 0
1253, 3714569411, -0.9123261, -0.07518901, 0.32148576, -0.24221422, 3.6394224, -1.1408638, -2.5226936, 0
1254, 3714586078, -0.9162354, -0.08213168, 0.3069719, -0.24402554, 3.2801466, -0.57038635, -0.5826521, 0
1255, 3714602745, -0.91999775, -0.08817166, 0.29206645, -0.24604917, 4.277164, -1.7494247, 2.0492754, 0
1257, 3714636079, -0.9215203, -0.083418965, 0.28192842, -0.25371486, 7.8097625, -2.104021, 1.8070545, 0
1258, 3714652746, -0.9198417, -0.07313411, 0.28440744, -0.2601315, 9.748672, 2.1608386, 3.2730408, 0
1259, 3714669413, -0.9177986, -0.06426739, 0.28764704, -0.2660602, 10.136947, 6.316464, 2.8698854, 0
1261, 3714702747, -0.91631657, -0.05197423, 0.2975698, -0.26292196, 11.58295, 1.6661108, 4.247181, 0
1264, 3714752748, -0.9108339, -0.021786477, 0.31925237, -0.2607645, 4.578506, -2.7686617, 2.6128473, 0
1265, 3714769415, -0.90892327, -0.0063846335, 0.3289336, -0.2561907, 2.6691134, -3.1815739, 6.0021048, 0
1266, 3714786082, -0.9072578, 0.005153343, 0.33951998, -0.24818587, -6.3486648, -3.412223, 4.5733643, 0
1268, 3714819416, -0.90587366, 0.009856194, 0.350101, -0.23819807, -9.782554, -3.64211, 5.6590405, 0
1269, 3714836083, -0.90499586, 0.011093199, 0.35164577, -0.23920275, -5.5153513, -0.23464893, 6.4930916, 0
1272, 3714886084, -0.9041055, 0.015866578, 0.35699308, -0.23433028, -3.8069003, -0.83903944, 2.9985275, 0
1273, 3714902751, -0.90555316, 0.014341943, 0.35641843, -0.229667, -1.5178175, -1.6962672, 2.5472345, 0
1274, 3714919418, -0.9072832, 0.0099218935, 0.35540855, -0.22458139, -0.09775585, -2.6502705, 2.480959, 0
1276, 3714952752, -0.9087153, 0.0019402951, 0.35757676, -0.21537133, -0.9042427, -1.1081145, 0.4727049, 0
1277, 3714969419, -0.9092084, -4.888326E-4, 0.3587077, -0.21138133, -0.29422486, -0.72554755, -0.10171032, 0
1278, 3714986086, -0.9093115, -0.0052807927, 0.3593827, -0.20971946, -0.013707155, -0.83233124, -0.8084202, 0
1280, 3715019420, -0.9093017, -0.019689314, 0.35952827, -0.20865133, -0.13689096, -0.9823513, -1.3643932, 0
1281, 3715036087, -0.90827763, -0.027672574, 0.3616024, -0.20862144, -0.13728526, -1.1121347, -1.4902754, 0
1282, 3715052754, -0.90670264, -0.034424275, 0.36518672, -0.20822355, -0.30418682, -0.10067247, -1.5745068, 0
1284, 3715086088, -0.90397453, -0.04965902, 0.371663, -0.20553303, 0.29193652, 0.47910795, -2.291634, 0
1286, 3715119422, -0.90278083, -0.063584566, 0.3767439, -0.19753872, 1.4441042, 0.6357542, -1.9359078, 0
1288, 3715152756, -0.90035063, -0.07152327, 0.38409656, -0.19166742, 0.76271117, 0.5851523, -2.1197267, 0
1289, 3715169423, -0.8983699, -0.07382738, 0.3895947, -0.18897155, 0.010735327, 1.7673624, -2.5303802, 0
1291, 3715202757, -0.8938127, -0.07895034, 0.4027578, -0.18073523, -0.6411686, 2.394889, -2.4616528, 0
1292, 3715219424, -0.8916365, -0.08231124, 0.4096744, -0.17432497, -1.0797815, 1.149436, -2.5691772, 0
1293, 3715236091, -0.88971585, -0.085875645, 0.4157052, -0.16802908, -1.1069262, -0.17658243, -2.2680001, 0
1295, 3715269425, -0.8874386, -0.09168078, 0.4245696, -0.15427738, -0.26073033, 0.060275603, 0.3343296, 0
1296, 3715286092, -0.8864713, -0.093260095, 0.42827788, -0.1485345, 0.14205724, -0.26838034, 0.24504757, 0
1297, 3715302759, -0.88551456, -0.094528034, 0.4311669, -0.14504026, 0.05452271, -0.6213517, -0.23774433, 0
1299, 3715336093, -0.88279533, -0.09540054, 0.43732244, -0.14259546, -0.8643677, 0.27483353, -1.6586924, 0
1301, 3715369427, -0.8812272, -0.093895316, 0.44194755, -0.13899, -0.5234246, 0.20243713, -1.5293303, 0
1303, 3715402761, -0.88064355, -0.091294385, 0.4448234, -0.13519588, -0.64833957, -0.09920455, -0.5993366, 0
1304, 3715419428, -0.8803782, -0.09049793, 0.44610947, -0.1332066, -0.9315888, -0.30765972, 0.5117855, 0
1305, 3715436095, -0.8802893, -0.08987329, 0.44693348, -0.13144368, -0.37834084, -0.8640408, 0.6117983, 0
1307, 3715469429, -0.8807619, -0.09052368, 0.446652, -0.12876001, -0.2401155, -0.3574929, 0.7260475, 0
1308, 3715486096, -0.88156706, -0.090953015, 0.44519347, -0.12799664, -0.9892067, -0.025778644, 0.86227226, 0
1309, 3715502763, -0.88285136, -0.09149049, 0.44288012, -0.12678222, -1.2091541, -0.25924638, 0.6167364, 0
1311, 3715536097, -0.88347006, -0.091723576, 0.44119886, -0.12815736, -1.7831714, -0.76964605, -0.546298, 0
1312, 3715552764, -0.8839234, -0.09071894, 0.44041616, -0.12843943, -0.7550616, -0.8095351, 1.1131582, 0
1313, 3715569431, -0.8837932, -0.09023629, 0.44053274, -0.1292721, -1.4915371, -1.0038575, 0.6585274, 0
1316, 3715619432, -0.88270634, -0.08874816, 0.4418394, -0.13320763, -2.4998016, -0.115991265, -0.7011843, 0
1318, 3715652766, -0.88089097, -0.07821681, 0.44735497, -0.13341713, -2.1067576, 1.3874766, 0.15898132, 0
1319, 3715669433, -0.8804197, -0.07180436, 0.44984508, -0.13175038, -2.116923, 2.5339434, 0.33263206, 0
1320, 3715686100, -0.8798755, -0.06759342, 0.45196, -0.13036789, -2.9630861, 2.281192, -0.54387474, 0
1322, 3715719434, -0.87919474, -0.062019017, 0.45453414, -0.12877189, -3.3575819, 0.22283298, -2.2902412, 0
1323, 3715736101, -0.87909776, -0.061603807, 0.45480815, -0.12866607, -3.248277, -1.6038098, -2.0435114, 0
1324, 3715752768, -0.87881035, -0.061556634, 0.4554791, -0.1282787, -2.6878157, -2.4881356, -1.4343948, 0
1326, 3715786102, -0.8782585, -0.059245802, 0.45714918, -0.12719938, -1.8021414, -1.7289559, 0.14737225, 0
1327, 3715802769, -0.87857, -0.05762752, 0.456659, -0.12755218, -1.5111338, -0.68965244, 0.87444687, 0
1328, 3715819436, -0.8788764, -0.056392502, 0.4553513, -0.13063237, -0.94531274, 0.100388445, 1.5320759, 0
1330, 3715852770, -0.8780869, -0.056348864, 0.45287058, -0.1439077, -0.37523472, -0.12144926, 1.7317934, 0
1331, 3715869437, -0.8777972, -0.05649632, 0.45116046, -0.1508234, -0.628408, -0.27418518, 1.097744, 0
1332, 3715886104, -0.8775812, -0.055651683, 0.44991568, -0.15602297, -0.76435685, -0.351467, 0.11232185, 0
1334, 3715919438, -0.87768865, -0.053871498, 0.44827303, -0.16070195, -1.237243, 0.8490518, -0.5501566, 0
1335, 3715936105, -0.8780515, -0.053886242, 0.44711262, -0.16194381, -1.4321944, 1.0911324, -0.92433834, 0
1336, 3715952772, -0.87840354, -0.054515358, 0.4457586, -0.1635476, -1.8763747, 0.6056825, -1.2000351, 0
1338, 3715986106, -0.87780607, -0.05582256, 0.4453248, -0.16745007, -1.7212799, -0.68720067, -2.3688688, 0
1339, 3716002773, -0.8778358, -0.055814445, 0.44441628, -0.16969578, -0.8700434, -0.8103404, -3.2325983, 0
1340, 3716019440, -0.87831604, -0.055734772, 0.4424624, -0.17232178, -0.81035715, -0.53561485, -3.9378295, 0
1343, 3716069441, -0.88295627, -0.05696272, 0.43044958, -0.1785213, 0.12768613, 0.24838886, -6.1707573, 0
1345, 3716102775, -0.8882769, -0.062483996, 0.4156202, -0.18529159, -0.5471332, -0.038209923, -8.728289, 0
1346, 3716119442, -0.8907351, -0.06620288, 0.40768328, -0.18977807, -0.34257337, -0.46731782, -8.934812, 0
1347, 3716136109, -0.89273703, -0.071875036, 0.3996755, -0.19526193, 0.44693634, -1.3375416, -8.423071, 0
1349, 3716169443, -0.896346, -0.08658495, 0.38264108, -0.20655806, 1.6106876, -2.0431817, -5.6183686, 0
1350, 3716186110, -0.89877564, -0.090110995, 0.37363616, -0.21093056, -1.3414086, -0.031975694, -2.862667, 0
1351, 3716202777, -0.9025812, -0.084829666, 0.36655387, -0.20929098, -0.80235964, 2.0116367, -0.17092705, 0
1353, 3716236111, -0.9110043, -0.07667048, 0.3535519, -0.19800773, 10.419565, 5.9578195, 6.2638664, 0
1354, 3716252778, -0.9154295, -0.08576364, 0.34505093, -0.18864371, 12.450425, 2.550901, 9.626017, 0
1355, 3716269445, -0.91969734, -0.09880331, 0.33579195, -0.17790934, 14.262466, -2.3118901, 12.409296, 0
1358, 3716319446, -0.9243187, -0.11470637, 0.32200164, -0.16972181, 10.431149, -0.67966795, 9.332327, 0
1359, 3716336113, -0.9242582, -0.11836131, 0.32112387, -0.16920461, 7.737652, 0.3830852, 7.787798, 0
1361, 3716369447, -0.92301315, -0.1277417, 0.3192274, -0.1727311, 4.5870233, 1.8491734, 6.9446526, 0
1362, 3716386114, -0.9227349, -0.13174137, 0.31774727, -0.17393813, -0.46986938, 3.5118315, 7.0349026, 0
1363, 3716402781, -0.9214871, -0.13434625, 0.320112, -0.17422447, -5.8613505, 6.0488524, 6.3395042, 0
1365, 3716436115, -0.9201811, -0.13387772, 0.32205614, -0.1778672, -9.252075, -0.3161184, 0.17069149, 0
1366, 3716452782, -0.9217082, -0.13299456, 0.3166414, -0.18032755, -3.0678918, -4.2549334, 1.9443607, 0
1367, 3716469449, -0.9230298, -0.13295844, 0.31156984, -0.1824165, 0.7445927, -2.6467216, 4.061429, 0
1369, 3716502783, -0.92301935, -0.12871414, 0.3081357, -0.19113772, 0.7834219, 2.8623338, 2.3734598, 0
1370, 3716519450, -0.92213905, -0.12826866, 0.3096344, -0.19325274, -0.057402372, 2.7739885, 1.3833923, 0
1373, 3716569451, -0.91846853, -0.1279061, 0.3175433, -0.19807905, -1.6642611, 0.4882702, -1.1702709, 0
1374, 3716586118, -0.9170063, -0.12393774, 0.3230185, -0.19852287, -1.9634782, 1.3213296, -1.6914358, 0
1376, 3716619452, -0.9135785, -0.11534438, 0.33652616, -0.19706213, -0.8903214, 0.5855676, -2.502242, 0
1377, 3716636119, -0.91202724, -0.112248726, 0.34227338, -0.19613484, -0.8447338, 0.18003438, -2.194634, 0
1378, 3716652786, -0.9106188, -0.10947675, 0.3477688, -0.19457254, -0.38464725, 0.28105262, -1.8293996, 0
1380, 3716686120, -0.90775144, -0.103252225, 0.3593414, -0.19029835, -0.30175388, 0.22597094, -2.0281606, 0
1381, 3716702787, -0.9065824, -0.098834224, 0.36479825, -0.18781848, -0.7321415, 0.084001295, -2.5847716, 0
1382, 3716719454, -0.90573734, -0.09326065, 0.36995283, -0.18463643, -0.7172592, 0.046096306, -2.884519, 0
1384, 3716752788, -0.9049143, -0.081699155, 0.379051, -0.17546761, -0.82678974, -0.14273901, -2.9546561, 0
1385, 3716769455, -0.9044562, -0.07804343, 0.38341835, -0.16991717, -0.70782393, 0.09419296, -2.4184375, 0
1388, 3716819456, -0.90231097, -0.071016885, 0.39648825, -0.1536291, -0.7745041, -0.77863115, -1.705719, 0
1389, 3716836123, -0.9014529, -0.06891051, 0.4005604, -0.14899239, -0.95463187, -1.484764, -1.6284456, 0
1390, 3716852790, -0.90032554, -0.06646119, 0.40505716, -0.14470361, -0.9073064, -1.9517319, -1.690444, 0
1392, 3716886124, -0.89807206, -0.06467828, 0.41266567, -0.1378532, -1.1369798, -2.1812425, -0.6217947, 0
1393, 3716902791, -0.89672434, -0.065899685, 0.41564864, -0.13708371, -1.6223024, -2.4222949, -0.9076185, 0
1394, 3716919458, -0.8954067, -0.06628902, 0.41851354, -0.13679206, -2.036539, -1.9306403, -1.2155972, 0
1396, 3716952792, -0.8926023, -0.06518108, 0.42547923, -0.1341384, -1.0192281, -0.67520106, -1.2533855, 0
1397, 3716969459, -0.89108825, -0.0662563, 0.42909136, -0.13215865, -0.18521021, -0.2818606, -0.98068905, 0
1399, 3717002793, -0.88870645, -0.073825434, 0.4330208, -0.13136616, -0.4545165, -1.3239064, -0.0915308, 0
1400, 3717019460, -0.8874633, -0.0781571, 0.43411472, -0.13363528, -1.3584166, -1.5944496, 0.01129055, 0
1401, 3717036127, -0.885855, -0.082502544, 0.4352947, -0.13779035, -1.7178347, -2.3087502, -0.55744743, 0
1403, 3717069461, -0.88222474, -0.0902103, 0.43845546, -0.14598542, -0.6910607, -1.6549194, -1.1916265, 0
1404, 3717086128, -0.8814771, -0.09535182, 0.437478, -0.15010792, -0.60218525, -0.6700534, -0.5273924, 0
1405, 3717102795, -0.88178444, -0.10300419, 0.43388388, -0.153637, -1.0662129, 0.09916409, -0.21234417, 0
1407, 3717136129, -0.8831472, -0.12736353, 0.42000154, -0.16565475, -1.9970534, -0.7413885, -2.829945, 0
1408, 3717152796, -0.88379484, -0.13778678, 0.41201138, -0.17372873, -1.6319847, -1.4168743, -5.3482323, 0
1409, 3717169463, -0.88409203, -0.14558223, 0.40437236, -0.18353015, -1.247122, -1.5145932, -7.578816, 0
1411, 3717202797, -0.88509923, -0.15005347, 0.39175725, -0.20155135, -2.6166852, 1.0086569, -6.878891, 0
1412, 3717219464, -0.88571817, -0.14837202, 0.38752908, -0.2081429, -2.8119364, 1.8397411, -5.588404, 0
1415, 3717269465, -0.89439267, -0.13492438, 0.374191, -0.20457591, 4.1100583, 6.437847, 4.8677616, 0
1417, 3717302799, -0.9019315, -0.12597005, 0.36292014, -0.19736545, 3.9737864, 2.2869084, 1.2347383, 0
1419, 3717336133, -0.90931726, -0.12432847, 0.35007653, -0.18746784, 6.8153176, -1.8571239, 3.1746655, 0
1420, 3717352800, -0.91221243, -0.12060902, 0.34504578, -0.18514521, 7.7177253, -0.36520162, 4.314533, 0
1421, 3717369467, -0.91468704, -0.11843519, 0.340232, -0.18323793, 7.530736, 1.0620658, 4.179782, 0
1423, 3717402801, -0.9202426, -0.11806067, 0.33064717, -0.17291918, 8.304873, -0.1529297, 4.264247, 0
1424, 3717419468, -0.9224806, -0.1184835, 0.3272175, -0.16713326, 8.975882, -0.9536197, 4.314788, 0
1426, 3717452802, -0.9262179, -0.12036343, 0.32190755, -0.1549893, 9.312677, -1.677868, 3.109705, 0
1427, 3717469469, -0.92793167, -0.12086247, 0.3193285, -0.14959165, 8.311637, -0.943013, 2.1042767, 0
1428, 3717486136, -0.92976344, -0.11769848, 0.31688336, -0.14589503, 6.132974, 0.7493747, 1.3490219, 0
1431, 3717536137, -0.93022615, -0.11919189, 0.31227207, -0.15156533, -4.5549974, 4.1406813, 5.6914682, 0
1432, 3717552804, -0.92687696, -0.11899465, 0.32189938, -0.15209685, -13.043154, 7.816222, 1.6529703, 0
1434, 3717586138, -0.92403424, -0.13031751, 0.32097676, -0.16175655, -11.116226, -4.3882813, 0.22566605, 0
1435, 3717602805, -0.9255984, -0.13166311, 0.3151125, -0.16324802, -0.5395433, -8.84775, 7.0575504, 0
1436, 3717619472, -0.9264471, -0.12489423, 0.3132008, -0.16737959, 3.3383045, -0.3742535, 9.076843, 0
1438, 3717652806, -0.92409414, -0.11417825, 0.31848326, -0.17775008, 2.104506, 6.7281766, 5.2709455, 0
1439, 3717669473, -0.92276555, -0.115529, 0.3199231, -0.18116076, 0.9431581, 4.956494, 5.526453, 0
1440, 3717686140, -0.9217904, -0.117398605, 0.32136914, -0.18236025, -0.34955862, 1.9475173, 4.4896746, 0
1442, 3717719474, -0.9171946, -0.120011576, 0.33192006, -0.18491594, -2.2324274, -3.0260153, 0.15587616, 0
1443, 3717736141, -0.91583836, -0.11853475, 0.33525637, -0.18656461, -2.5273817, -2.2050605, -1.0426044, 0
1446, 3717786142, -0.9107175, -0.110215634, 0.3492617, -0.19098558, 0.7523515, 0.57450217, -0.41387463, 0
1447, 3717802809, -0.9084516, -0.10904874, 0.35357213, -0.19448426, 1.5443145, -0.31196174, -0.081944466, 0
1448, 3717819476, -0.9058056, -0.10728163, 0.3583461, -0.19901812, 1.3580439, -0.09825563, -0.0019979477, 0
1450, 3717852810, -0.8999763, -0.10469537, 0.36972353, -0.20591111, -0.022196177, -0.8623953, -2.333619, 0
1451, 3717869477, -0.8972016, -0.10280539, 0.3751372, -0.20915505, 0.1639796, 0.1511283, -2.037044, 0
1453, 3717902811, -0.891018, -0.10188167, 0.3852372, -0.21751457, 0.12425778, -0.15400508, -1.2764902, 0
1454, 3717919478, -0.8879807, -0.10045189, 0.3902599, -0.22160827, -0.3845804, -0.29995534, -1.877295, 0
1455, 3717936145, -0.8852287, -0.097833455, 0.3956568, -0.22420536, -0.8610311, -0.40492293, -2.483827, 0
1457, 3717969479, -0.8796386, -0.09116695, 0.40812916, -0.2266459, 0.009110388, 0.7536437, -2.9860873, 0
1458, 3717986146, -0.876655, -0.08878297, 0.41505334, -0.22657895, -0.02408911, 1.533119, -2.3307009, 0
1461, 3718036147, -0.86751026, -0.08834466, 0.43283188, -0.22867277, -0.93940616, -0.41374052, -2.22785, 0
1462, 3718052814, -0.86530954, -0.0863126, 0.43826535, -0.22743398, -1.5942249, 0.64173144, -1.9042068, 0
1463, 3718069481, -0.8632627, -0.08320792, 0.44413808, -0.22496349, -0.63806087, -0.38226643, -2.1364403, 0
1465, 3718102815, -0.85928446, -0.07743737, 0.45516568, -0.22016211, -0.45131177, 0.825811, -1.8667636, 0
1466, 3718119482, -0.8577295, -0.07637197, 0.45951512, -0.21754684, -0.9199608, 0.41232914, -1.452281, 0
1467, 3718136149, -0.85609424, -0.07651875, 0.46341518, -0.21565592, -1.1314651, -0.43937728, -1.3594666, 0
1469, 3718169483, -0.8523127, -0.0764733, 0.4714709, -0.2131745, -1.3373352, -0.7853068, -0.87122154, 0
1470, 3718186150, -0.8500737, -0.07562876, 0.47625023, -0.21178725, -1.4963632, -0.41259864, -1.0503798, 0
1471, 3718202817, -0.8474759, -0.07499169, 0.48141187, -0.21075237, -1.2593997, 0.030375047, -1.2615843, 0
1473, 3718236151, -0.8427284, -0.07437515, 0.4906103, -0.20878685, -0.47337496, 0.05966698, -0.768939, 0
1474, 3718252818, -0.84109426, -0.07526423, 0.4933961, -0.208493, -0.80136436, -0.522588, -0.23403072, 0
1475, 3718269485, -0.83976036, -0.076428846, 0.49553728, -0.20836833, -1.2714702, -0.78845036, 0.104001045, 0
1477, 3718302819, -0.83590925, -0.077869415, 0.5020828, -0.20764965, -1.1834309, -0.35945293, -0.415349, 0
1478, 3718319486, -0.8331661, -0.07924431, 0.5062489, -0.20803781, -0.8012723, -0.33940622, -0.03883362, 0
1480, 3718352820, -0.8292324, -0.07912777, 0.5141923, -0.20428416, -0.68349814, -0.4965542, 0.6041899, 0
1481, 3718369487, -0.8281986, -0.07876229, 0.5164399, -0.20294507, -0.9644606, 0.3703996, 0.26633644, 0
1482, 3718386154, -0.8280398, -0.07890188, 0.5173171, -0.20129815, -0.9125256, 0.21999463, 0.23685074, 0
1484, 3718419488, -0.82739913, -0.078613415, 0.5195491, -0.19827421, -1.0852327, 0.12974457, 0.63281155, 0
1485, 3718436155, -0.8263262, -0.07772839, 0.5218646, -0.1970119, -0.82777977, -0.059304357, 0.69674873, 0
1488, 3718486156, -0.8233279, -0.0738102, 0.52785975, -0.19509102, -0.79034495, -0.1087723, 0.2707386, 0
1489, 3718502823, -0.82274055, -0.07472872, 0.5281121, -0.19653119, -1.5134035, -1.2420865, 0.72938347, 0
1490, 3718519490, -0.82258093, -0.07642607, 0.52741575, -0.19840792, -1.5598073, -1.2468454, 0.61447334, 0
1492, 3718552824, -0.8238494, -0.081447616, 0.5229572, -0.2028982, -1.1716279, -1.1890075, 0.15865135, 0
1493, 3718569491, -0.82695186, -0.085192844, 0.5165196, -0.20521575, -1.2757728, -0.41155797, 0.1487894, 0
1494, 3718586158, -0.8322114, -0.09067418, 0.5066973, -0.20609082, -1.5790298, -0.90945894, -0.30658245, 0
1496, 3718619492, -0.8441415, -0.107142285, 0.4825846, -0.20753534, -2.5370727, -1.4051554, -3.039658, 0
1497, 3718636159, -0.8488155, -0.11417885, 0.4714814, -0.2102238, -1.5718517, -0.54357135, -4.6475754, 0
1498, 3718652826, -0.8534894, -0.12133018, 0.4591592, -0.2145251, -1.2896667, 0.65133566, -5.332673, 0
1500, 3718686160, -0.8625831, -0.1366789, 0.4312404, -0.22652623, -1.6000886, -0.6264466, -6.1992455, 0
1502, 3718719494, -0.8706794, -0.13625138, 0.41069943, -0.23386416, -3.425225, 0.04428539, -4.6750903, 0
1504, 3718752828, -0.8784792, -0.1243946, 0.40063685, -0.2287002, -0.69451565, 5.468939, -4.405724, 0
1505, 3718769495, -0.88354856, -0.12243313, 0.39017543, -0.22831644, 0.80097765, 4.9118013, -4.408739, 0
1507, 3718802829, -0.8945774, -0.12176669, 0.36865082, -0.22139092, 4.262628, -0.36703244, -4.33042, 0
1508, 3718819496, -0.89901525, -0.12171571, 0.36115646, -0.21572208, 7.6893086, -3.371534, -2.996119, 0
1509, 3718836163, -0.9023794, -0.12112338, 0.35591966, -0.21065392, 8.437061, -4.4569626, -0.15695381, 0
1511, 3718869497, -0.9083186, -0.11493993, 0.34645206, -0.20428059, 7.785028, 0.8692806, 7.345087, 0
1512, 3718886164, -0.9110094, -0.11081644, 0.3429928, -0.20037709, 10.301478, 2.3307698, 8.659679, 0
1513, 3718902831, -0.9136553, -0.11190584, 0.3380997, -0.19599229, 12.832138, 0.2412984, 9.555695, 0
1515, 3718936165, -0.92174566, -0.11940893, 0.32198054, -0.18018943, 11.717522, -3.6008158, 8.745848, 0
1517, 3718969499, -0.9237793, -0.13313012, 0.31416443, -0.173845, 7.046795, -2.0277126, 5.608473, 0
1519, 3719002833, -0.924771, -0.13447905, 0.30803314, -0.17844555, 1.2521486, 2.62852, 9.022556, 0
1520, 3719019500, -0.9264405, -0.12610817, 0.31031603, -0.17182058, -4.6626053, 8.21646, 12.141338, 0
1521, 3719036167, -0.92483515, -0.13429283, 0.31209353, -0.17104492, -12.227303, 14.175772, 4.534851, 0
1523, 3719069501, -0.9234467, -0.14231569, 0.30869225, -0.17808664, -5.9743977, -12.8527155, -0.6027641, 0
1524, 3719086168, -0.92507076, -0.1402317, 0.3051217, -0.17746323, 2.8826945, -5.882891, 5.037223, 0
1525, 3719102835, -0.9260059, -0.13261776, 0.30428633, -0.1798569, 3.7873416, 3.3297412, 6.1308393, 0
1527, 3719136169, -0.92413455, -0.120487556, 0.31325638, -0.18259722, 0.6341749, 6.275098, 1.8207617, 0
1528, 3719152836, -0.9234476, -0.11865029, 0.31597072, -0.1825993, -0.54178476, 2.828144, 0.992013, 0
1529, 3719169503, -0.92243093, -0.11455312, 0.32062748, -0.18223624, -1.1895956, 2.1505938, -0.071847916, 0
1532, 3719219504, -0.9176694, -0.10444447, 0.33683372, -0.18311346, -1.9894462, -1.2783816, -2.3506007, 0
1534, 3719252838, -0.91632396, -0.08864472, 0.34814945, -0.17691198, -0.56943053, -0.6824217, -2.83528, 0
1535, 3719269505, -0.91533786, -0.079901464, 0.35398883, -0.17457882, -0.73861676, 0.7504768, -3.079319, 0
1536, 3719286172, -0.91375494, -0.07344874, 0.3602346, -0.1729204, -0.592953, 1.5151907, -3.3749504, 0
1538, 3719319506, -0.90887666, -0.06584063, 0.3729033, -0.17482752, -0.107499, 0.46947962, -3.4789972, 0
1539, 3719336173, -0.9064793, -0.061868187, 0.379021, -0.17556798, -0.3654419, 0.48922494, -2.851089, 0
1540, 3719352840, -0.9046691, -0.057944156, 0.38444892, -0.17443797, -0.28208834, -1.7209517, -2.4897552, 0
1542, 3719386174, -0.90113926, -0.04940054, 0.3954233, -0.17076692, -0.6098987, -1.7184438, -2.4069815, 0
1543, 3719402841, -0.89872664, -0.04764218, 0.4016041, -0.16955316, -1.0225233, -1.6994071, -2.2352114, 0
1544, 3719419508, -0.8961993, -0.047023673, 0.40770176, -0.16854727, -0.8062964, -0.45580107, -1.7094784, 0
1546, 3719452842, -0.890851, -0.044272244, 0.41966468, -0.1682828, -0.8066694, -0.41622165, -0.38900852, 0
1547, 3719469509, -0.88818, -0.04287634, 0.42565733, -0.1677104, 0.13953288, -0.7639612, -0.62624645, 0
1548, 3719486176, -0.88505566, -0.043207586, 0.43192178, -0.16812626, -0.014485874, -1.1346239, -0.77272224, 0
1550, 3719519510, -0.880077, -0.044525914, 0.4416694, -0.16859171, 0.63104415, -0.28744754, 0.47112846, 0
1551, 3719536177, -0.8779874, -0.045648925, 0.44577575, -0.16837876, -0.48467332, -0.058428746, 0.30662537, 0
1552, 3719552844, -0.8762498, -0.04628084, 0.44943044, -0.16754012, -1.2180963, 0.03854587, -0.08355808, 0
1554, 3719586178, -0.8736785, -0.046408832, 0.4564667, -0.1618123, -0.15540297, 0.3429861, -0.52917004, 0
1555, 3719602845, -0.872847, -0.045827314, 0.45988527, -0.15670596, 0.36772865, 1.0742701, -0.44958305, 0
1556, 3719619512, -0.87228006, -0.045293517, 0.46293765, -0.1509237, 0.29138893, 1.2432524, -0.24293709, 0
1559, 3719669513, -0.8726638, -0.04201877, 0.4686386, -0.13070354, -0.95378184, 0.15227857, -1.5006495, 0
1560, 3719686180, -0.87320703, -0.041428365, 0.4695354, -0.12386669, -0.6669709, -0.6700395, -1.1824236, 0
1562, 3719719514, -0.8744058, -0.04254006, 0.47072375, -0.10971488, -0.82592505, -1.2849506, 0.05387783, 0
1563, 3719736181, -0.87502205, -0.042429313, 0.47108442, -0.10309714, -1.3858031, -0.85219085, 0.17370701, 0
1565, 3719769515, -0.8756156, -0.03696879, 0.47312608, -0.089976236, -1.1585488, 0.38606372, -0.468565, 0
1566, 3719786182, -0.8757516, -0.03461668, 0.47411808, -0.08417857, -1.3003746, 0.32160586, -0.56012344, 0
1567, 3719802849, -0.8759451, -0.03331253, 0.4746753, -0.079416975, -0.95733976, -0.0660502, -0.42089462, 0
1569, 3719836183, -0.8765246, -0.035691828, 0.47397473, -0.0761033, -1.4830512, -1.250527, -0.585906, 0
1570, 3719852850, -0.8764692, -0.036903486, 0.47391728, -0.07652168, -1.5248456, -1.8753278, -0.9990597, 0
1571, 3719869517, -0.876108, -0.037530847, 0.47443074, -0.0771687, -1.2663603, -2.3367684, -1.2522125, 0
1574, 3719919518, -0.8754867, -0.038158886, 0.47558507, -0.07680574, -0.9222757, 0.96207464, -1.1505184, 0
1575, 3719936185, -0.87525386, -0.040109098, 0.4758041, -0.07710886, -1.3905239, 1.3365612, -0.85940075, 0
1577, 3719969519, -0.87328285, -0.04707586, 0.47855347, -0.078490496, -1.6650054, -0.60825765, -0.737937, 0
1578, 3719986186, -0.8719583, -0.048994213, 0.48063275, -0.07933283, -1.3399758, -0.43234092, -0.5845251, 0
1579, 3720002853, -0.87100595, -0.049964994, 0.4822354, -0.07946317, -1.0727057, 0.6717413, -0.36694622, 0
1581, 3720036187, -0.87020284, -0.057819486, 0.48253775, -0.0810833, -1.9179953, 0.33245498, -0.1632042, 0
1582, 3720052854, -0.8695249, -0.06461676, 0.48255566, -0.08309224, -1.9490238, -0.9541624, -0.0050001144, 0
1583, 3720069521, -0.8683216, -0.0686019, 0.48403767, -0.08385773, -1.5475614, -0.79368407, 0.31795406, 0
1585, 3720102855, -0.8664384, -0.06787146, 0.48755804, -0.08353758, -1.01225, 0.48636553, 0.9892292, 0
1586, 3720119522, -0.8660283, -0.06338865, 0.4895118, -0.0798033, -0.2780166, 2.984438, 1.2216263, 0
1589, 3720169523, -0.8668045, -0.061475016, 0.48926708, -0.07417558, -0.5399094, -0.1629376, 0.98073196, 0
1590, 3720186190, -0.86709416, -0.062017396, 0.48867264, -0.07425621, -0.8464071, -1.8388587, 0.11998081, 0
1592, 3720219524, -0.86764526, -0.055767313, 0.4884329, -0.07435237, 0.07115356, -0.3270029, -0.329566, 0
1593, 3720236191, -0.8673666, -0.051694714, 0.48945308, -0.07383585, 0.42067552, 0.69590455, -0.57033825, 0
1594, 3720252858, -0.8670659, -0.04763238, 0.49065015, -0.07213704, 0.08771552, 1.2336245, -0.7947502, 0
1596, 3720286192, -0.8664401, -0.04288418, 0.49305028, -0.06600882, -0.60992974, -0.5964996, -0.3505478, 0
1597, 3720302859, -0.8663682, -0.042379603, 0.4936259, -0.06290586, -0.40882754, -0.9614783, 0.064227104, 0
1598, 3720319526, -0.86656547, -0.042189404, 0.49340937, -0.062007546, -0.49073565, -1.8619711, 0.27665234, 0
1600, 3720352860, -0.8672196, -0.04376205, 0.4917206, -0.06510815, -0.73302054, -1.4462519, 0.5500889, 0
1601, 3720369527, -0.8672038, -0.04447013, 0.49120268, -0.068651736, -0.8775742, -0.5482147, 0.5844383, 0
1604, 3720419528, -0.8665344, -0.044250175, 0.4906388, -0.08029501, -0.63327837, 0.91146725, 0.5134773, 0
1605, 3720436195, -0.86684495, -0.04331138, 0.48956835, -0.08390413, -0.07503375, 1.0684853, 0.4159994, 0
1606, 3720452862, -0.8675469, -0.042050518, 0.48775554, -0.08775981, -0.18994534, 0.5858124, 0.45716763, 0
1608, 3720486196, -0.8695798, -0.035714738, 0.48308614, -0.0958994, -0.5735966, 0.050467383, -0.4655285, 0
1609, 3720502863, -0.870918, -0.029270738, 0.48054898, -0.09864645, -1.0872079, 0.41333655, -1.1208239, 0
1610, 3720519530, -0.8724215, -0.019697651, 0.4781893, -0.09920217, -1.2949116, 1.196709, -1.9289503, 0
1612, 3720552864, -0.87810695, 0.0020336136, 0.46753585, -0.1017237, -1.249777, 3.2272594, -3.7322264, 0
1613, 3720569531, -0.88238925, 0.0113886595, 0.45860863, -0.10464637, -1.9588108, 3.2500277, -4.37966, 0
1615, 3720602865, -0.8906931, 0.029894777, 0.4390267, -0.11419771, -2.6685321, 1.5877675, -5.4270177, 0
1616, 3720619532, -0.895099, 0.03614617, 0.42745358, -0.12160632, -3.4671848, -0.50377905, -5.429913, 0
1617, 3720636199, -0.90015036, 0.03900797, 0.41399673, -0.12972233, -2.6145966, -0.24581039, -5.7632546, 0
1619, 3720669533, -0.91374403, 0.026428051, 0.37681514, -0.14965564, -3.1929042, -3.653526, -2.304327, 0
1620, 3720686200, -0.9194902, 0.01631599, 0.3595602, -0.15811747, 1.0597397, -5.415151, 1.5838442, 0
1621, 3720702867, -0.925746, 0.0067177787, 0.34146637, -0.16236833, 5.0626674, -5.9712853, 6.420067, 0
1623, 3720736201, -0.9342904, -0.014111467, 0.3047258, -0.1845473, 4.3003917, -1.5189688, 0.5759506, 0
1624, 3720752868, -0.9371112, -0.021498088, 0.28838262, -0.19547169, 5.7590456, -1.3424387, 0.3288679, 0
1625, 3720769535, -0.9387031, -0.02292128, 0.27522153, -0.20634347, 7.0566535, -0.029465405, 0.9805498, 0
1627, 3720802869, -0.93836105, -0.018541675, 0.25805497, -0.22925043, 7.7954397, 1.2152624, 1.5872154, 0
1628, 3720819536, -0.93735325, -0.014214259, 0.25432596, -0.2376936, 7.8199263, 0.9342808, 1.5456066, 0
1631, 3720869537, -0.9355164, 0.0011236593, 0.25508377, -0.24444485, 7.748819, -1.5126745, 0.6135807, 0
1632, 3720886204, -0.933379, 0.0075608343, 0.26123393, -0.2460017, 6.8943725, -1.2034107, 0.82094955, 0
1633, 3720902871, -0.93021303, 0.018502481, 0.27111143, -0.24672496, 6.4046865, -0.29090017, 1.1650372, 0
1635, 3720936205, -0.9242215, 0.048604377, 0.28991047, -0.2437572, 0.5099533, 0.9935139, 2.9034424, 0
1636, 3720952872, -0.92295927, 0.06321121, 0.29420328, -0.24001743, -5.577646, -1.6655691, 3.8928604, 0
1637, 3720969539, -0.9222414, 0.06988624, 0.29787925, -0.23636404, -13.031101, -5.1777654, 4.1028166, 0
1639, 3721002873, -0.921071, 0.07154029, 0.30539787, -0.23077136, -9.855995, 1.9264052, 2.7301283, 0
1640, 3721019540, -0.92042994, 0.070639096, 0.30709025, -0.23136, 0.111688085, 10.267551, 4.9176664, 0
1642, 3721052874, -0.9223937, 0.07320004, 0.30768088, -0.22176011, -1.428645, 0.08999749, 4.982929, 0
1643, 3721069541, -0.92386776, 0.07270631, 0.30813068, -0.2150608, -3.3777025, -2.6441762, 3.8977852, 0
1646, 3721119542, -0.92529356, 0.062302396, 0.31043273, -0.20879474, -0.54230255, -2.2853768, 2.592146, 0
1647, 3721136209, -0.9247637, 0.058936417, 0.31299317, -0.20829639, -0.40541026, -0.5024171, 0.9282465, 0
1648, 3721152876, -0.9240693, 0.054574884, 0.31668824, -0.20697647, -0.142633, 0.6303823, -0.9148035, 0
1650, 3721186210, -0.92200637, 0.044198938, 0.32466388, -0.20629463, -0.5725237, 0.023558376, -1.5421696, 0
1651, 3721202877, -0.9203499, 0.037955895, 0.33004484, -0.20639515, 0.22248927, -0.19797805, -1.5748224, 0
1652, 3721219544, -0.91818357, 0.031093918, 0.33544177, -0.20848024, 1.1798887, -0.08850219, -0.7295456, 0
1654, 3721252878, -0.91393846, 0.019520476, 0.34844762, -0.207203, 1.3530178, 1.6231687, -1.7010946, 0
1655, 3721269545, -0.91283923, 0.011771701, 0.35422435, -0.20279166, 1.6473656, 0.7498938, -1.0299826, 0
1656, 3721286212, -0.911883, 0.0029444695, 0.35955796, -0.19796991, 1.6199691, -0.7425603, 0.39599705, 0
1658, 3721319546, -0.9078668, -0.011551231, 0.37215376, -0.19276722, 0.9277388, 0.048152234, -0.052354813, 0
1660, 3721352880, -0.9008848, -0.02325809, 0.38806677, -0.19308856, 0.4223312, 1.8798736, -1.5672541, 0
1662, 3721386214, -0.8933127, -0.035800777, 0.40530586, -0.19092223, 0.32025918, 2.1246574, -1.7232704, 0
1663, 3721402881, -0.8895596, -0.04170513, 0.41366944, -0.18930241, 0.33939683, 1.8717072, -1.4333086, 0
1664, 3721419548, -0.8861674, -0.047407843, 0.42095008, -0.18781444, 0.31779608, 1.3236756, -0.86738586, 0
1666, 3721452882, -0.8801503, -0.060710587, 0.43300277, -0.1848555, 0.06472712, 0.2625095, -0.49619484, 0
1667, 3721469549, -0.8766853, -0.06744472, 0.4386494, -0.18567184, -0.12689412, -0.3700143, -0.568367, 0
1669, 3721502883, -0.86913586, -0.07944824, 0.45015287, -0.18885629, -0.48620796, 0.24752101, -1.0363197, 0
1670, 3721519550, -0.8656824, -0.08484669, 0.455859, -0.18868175, -0.38584483, 0.9105528, -1.0904903, 0
1671, 3721536217, -0.86200386, -0.09049769, 0.4620649, -0.18780053, -1.1879693, 1.0300756, -1.7588415, 0
1673, 3721569551, -0.8557049, -0.09952908, 0.4731525, -0.18439907, -1.1426022, 1.5778142, -1.8661637, 0
1675, 3721602885, -0.85025567, -0.10733222, 0.48288047, -0.17995742, -1.6247246, 0.73519725, -1.971765, 0
1677, 3721636219, -0.8445812, -0.113814816, 0.49284697, -0.17562437, -1.2110323, -0.26309454, -1.5222178, 0
1678, 3721652886, -0.84199595, -0.116594136, 0.49733326, -0.1735554, -1.1712173, -0.044727568, -0.83955383, 0
1679, 3721669553, -0.8394062, -0.11845894, 0.5020804, -0.17115365, -0.7919026, -0.111263745, -1.3305292, 0
1681, 3721702887, -0.83581346, -0.1203717, 0.5095947, -0.1650851, -0.94147456, 0.68348616, -0.25570583, 0
1682, 3721719554, -0.83441675, -0.12117095, 0.5128758, -0.161363, -0.709397, 0.4892634, 0.123251915, 0
1683, 3721736221, -0.83316314, -0.121808566, 0.51589227, -0.15770346, -0.7380863, 0.5443803, 0.20466328, 0
1685, 3721769555, -0.832956, -0.12081107, 0.5182233, -0.15181261, -0.57226783, 0.49318725, -0.12701225, 0
1686, 3721786222, -0.83334696, -0.1190259, 0.518851, -0.14890528, -0.6554075, 0.8590482, -0.3192749, 0
1687, 3721802889, -0.83330196, -0.11726698, 0.520409, -0.1450668, -0.4810352, 0.3692159, -0.90507126, 0
1689, 3721836223, -0.83178025, -0.11365506, 0.525456, -0.13832468, -0.32908306, -0.28931338, -0.2939434, 0
