sep=,
DeviceTag:,Xsens_DOT_4,,,,,,,,,,,,,,,,,
FirmwareVersion:,3.0.0,,,,,,,,,,,,,,,,,
AppVersion:,2023.6.1,,,,,,,,,,,,,,,,,
SyncStatus:,Synced,,,,,,,,,,,,,,,,,
OutputRate:,60Hz,,,,,,,,,,,,,,,,,
FilterProfile:,General,,,,,,,,,,,,,,,,,
Measurement Mode:,Sensor fusion Mode - Extended (Quaternion),,,,,,,,,,,,,,,,,
StartTime:,2025-05-05 12:08:20.727 +0200,,,,,,,,,,,,,,,,,
 2025,,,,,,,,,,,,,,,,,,,

PacketCounter,SampleTimeFine,Quat_W,Quat_X,Quat_Y,Quat_Z,FreeAcc_X,FreeAcc_Y,FreeAcc_Z,Status
1, 3693702327, 0.16495486, 0.6621368, -0.11274141, 0.7222707, 0.23236267, 0.5882818, 0.09131336, 0
2, 3693718994, 0.165256, 0.6621618, -0.11245951, 0.7222228, 0.24568446, 0.6445644, 0.068935394, 0
3, 3693735661, 0.1654789, 0.66219515, -0.11215477, 0.7221884, 0.32713595, 0.5242349, 0.0147275925, 0
4, 3693752328, 0.16572836, 0.66223156, -0.11187717, 0.7221411, 0.32581186, 0.4666662, 0.047047615, 0
5, 3693768995, 0.16599171, 0.6622555, -0.11165547, 0.72209287, 0.31567016, 0.53539723, 0.06817436, 0
6, 3693785662, 0.16616654, 0.6622735, -0.111450434, 0.7220678, 0.2564574, 0.61664236, 0.084801674, 0
7, 3693802329, 0.16632053, 0.6622728, -0.11131279, 0.7220543, 0.28926033, 0.5691407, 0.09754467, 0
8, 3693818996, 0.16645251, 0.6622695, -0.11120948, 0.7220429, 0.34660903, 0.46139264, 0.062075615, 0
9, 3693835663, 0.16648667, 0.6622697, -0.11106135, 0.7220576, 0.30548936, 0.5080625, 0.08135319, 0
10, 3693852330, 0.16653903, 0.66224766, -0.11098057, 0.72207814, 0.3006292, 0.62643814, 0.09024525, 0
11, 3693868997, 0.16655761, 0.662219, -0.11095758, 0.7221038, 0.32673314, 0.60796547, 0.043636322, 0
12, 3693885664, 0.1664619, 0.66220045, -0.11091286, 0.72214955, 0.38542175, 0.55924517, 0.04361725, 0
13, 3693902331, 0.16637509, 0.66217315, -0.11095166, 0.72218865, 0.44706538, 0.5409985, 0.05761528, 0
14, 3693918998, 0.166275, 0.6621345, -0.1110283, 0.7222353, 0.42292035, 0.5537628, 0.16901588, 0
15, 3693935665, 0.16618381, 0.66207004, -0.111128226, 0.7223001, 0.3605388, 0.5693335, 0.19229889, 0
16, 3693952332, 0.16607447, 0.66199744, -0.11122179, 0.72237736, 0.32345462, 0.64546883, 0.08713055, 0
17, 3693968999, 0.16593309, 0.6619406, -0.11130649, 0.722449, 0.26830786, 0.6283712, 0.051992416, 0
18, 3693985666, 0.16577907, 0.6618833, -0.11139502, 0.7225231, 0.2721864, 0.65773594, 0.06598854, 0
19, 3694002333, 0.16560845, 0.661823, -0.11146505, 0.72260684, 0.34362045, 0.59493405, -0.006293297, 0
20, 3694019000, 0.16548677, 0.6617666, -0.11156076, 0.7226715, 0.34075317, 0.5442948, 0.050961494, 0
21, 3694035667, 0.16535427, 0.66172355, -0.111643344, 0.7227284, 0.26773217, 0.6096962, 0.11835289, 0
22, 3694052334, 0.16517547, 0.66167325, -0.11169799, 0.722807, 0.2835805, 0.672415, 0.14141369, 0
23, 3694069001, 0.16506664, 0.6615887, -0.11179884, 0.7228935, 0.27452737, 0.6133114, 0.21360493, 0
24, 3694085668, 0.16494662, 0.66152, -0.11185154, 0.7229757, 0.3282306, 0.5803396, 0.09525967, 0
25, 3694102335, 0.1648538, 0.66144115, -0.1118729, 0.7230657, 0.28678218, 0.5950198, 0.010287285, 0
26, 3694119002, 0.16477378, 0.661373, -0.11191298, 0.72314, 0.1662914, 0.6948023, 0.02643776, 0
27, 3694135669, 0.16474101, 0.6613059, -0.112004235, 0.7231947, 0.2286463, 0.6005635, 0.027107239, 0
28, 3694152336, 0.16466714, 0.6612575, -0.11202335, 0.7232529, 0.27951542, 0.52899885, 0.009322166, 0
29, 3694169003, 0.16460393, 0.66120625, -0.11201164, 0.7233159, 0.23129335, 0.5410082, 0.0753479, 0
30, 3694185670, 0.16455403, 0.66115016, -0.11202662, 0.7233763, 0.21205498, 0.6631354, 0.0918808, 0
31, 3694202337, 0.16448544, 0.6610919, -0.11205906, 0.72344, 0.25414017, 0.6095745, 0.06371403, 0
32, 3694219004, 0.16443473, 0.66102713, -0.11211038, 0.7235028, 0.28762826, 0.58035666, 0.017686844, 0
33, 3694235671, 0.16435358, 0.6609813, -0.11211932, 0.7235617, 0.24849729, 0.5836644, -0.015029907, 0
34, 3694252338, 0.1643002, 0.6609561, -0.112145975, 0.7235927, 0.2105933, 0.6184481, -0.07634926, 0
35, 3694269005, 0.16423817, 0.66092724, -0.112178, 0.72362816, 0.16266432, 0.5762279, 0.20862293, 0
36, 3694285672, 0.16419959, 0.66087246, -0.112189785, 0.7236851, 0.25272328, 0.54603374, 0.22429466, 0
37, 3694302339, 0.1641646, 0.6608035, -0.112156585, 0.72376126, 0.3194871, 0.5144621, 0.143219, 0
38, 3694319006, 0.16413213, 0.6607466, -0.11208552, 0.72383165, 0.26802436, 0.6096428, 0.090641975, 0
39, 3694335673, 0.1640609, 0.6606949, -0.11202037, 0.72390497, 0.25934687, 0.65045655, 0.09124184, 0
40, 3694352340, 0.16399169, 0.6606367, -0.111984, 0.7239795, 0.2755383, 0.5812564, 0.01612091, 0
41, 3694369007, 0.16393891, 0.6605851, -0.11197263, 0.72404027, 0.30093366, 0.51598847, -0.050434113, 0
42, 3694385674, 0.16390754, 0.660539, -0.111989275, 0.7240868, 0.25935972, 0.5712786, 0.0915184, 0
43, 3694402341, 0.16387182, 0.6604734, -0.11204107, 0.7241467, 0.25296977, 0.5940489, 0.14984798, 0
44, 3694419008, 0.16379881, 0.6603895, -0.11213121, 0.72422576, 0.32903847, 0.5353926, 0.073031425, 0
45, 3694435675, 0.16364586, 0.6603135, -0.11221139, 0.7243173, 0.3591647, 0.48892945, 0.10439682, 0
46, 3694452342, 0.16348466, 0.66021425, -0.11232887, 0.72442603, 0.32488817, 0.5531133, 0.18556595, 0
47, 3694469009, 0.16329096, 0.66010237, -0.11246283, 0.72455084, 0.32517964, 0.5583055, 0.09282303, 0
48, 3694485676, 0.16307223, 0.6599786, -0.11263244, 0.7246864, 0.30502015, 0.5137501, 0.062062263, 0
49, 3694502343, 0.16282046, 0.65985996, -0.11281362, 0.7248228, 0.24375021, 0.58469856, 0.04724312, 0
50, 3694519010, 0.16255975, 0.6597367, -0.11308274, 0.7249515, 0.19077426, 0.53319657, 0.017868996, 0
51, 3694535677, 0.16226472, 0.65960824, -0.113356486, 0.72509176, 0.18446627, 0.44302592, -0.013208389, 0
52, 3694552344, 0.16190456, 0.65950465, -0.11361082, 0.72522676, 0.22695109, 0.41805527, 0.034161568, 0
53, 3694569011, 0.16156527, 0.65939206, -0.11389576, 0.7253602, 0.25431088, 0.44259816, 0.04334736, 0
54, 3694585678, 0.16120386, 0.65926474, -0.114201054, 0.72550815, 0.28050077, 0.475745, 0.095721245, 0
55, 3694602345, 0.16077557, 0.65913785, -0.114493266, 0.7256725, 0.31889653, 0.5129864, 0.13427734, 0
56, 3694619012, 0.1603692, 0.6589988, -0.11486532, 0.72583, 0.33577615, 0.55789405, 0.10808468, 0
57, 3694635679, 0.15991138, 0.6588526, -0.11524424, 0.7260036, 0.32120115, 0.6064768, 0.09596634, 0
58, 3694652346, 0.159416, 0.65871984, -0.1156539, 0.7261679, 0.26702672, 0.64307725, 0.02084732, 0
59, 3694669013, 0.15894872, 0.6585731, -0.1160966, 0.7263328, 0.27689168, 0.6209925, 0.008850098, 0
60, 3694685680, 0.1584616, 0.65843433, -0.11652434, 0.7264966, 0.31655505, 0.6105146, 0.04372406, 0
61, 3694702347, 0.15796687, 0.6583115, -0.11686744, 0.7266604, 0.35117662, 0.62834924, 0.11012745, 0
62, 3694719014, 0.15757453, 0.6581964, -0.11717956, 0.7267995, 0.32078886, 0.71023047, 0.110569954, 0
63, 3694735681, 0.15716252, 0.65809333, -0.11736272, 0.72695243, 0.3031232, 0.78394306, 0.086236954, 0
64, 3694752348, 0.1568729, 0.65797096, -0.11765307, 0.7270788, 0.3105375, 0.771155, 0.03584385, 0
65, 3694769015, 0.15654504, 0.65784466, -0.1179228, 0.72722006, 0.28424284, 0.6042423, 0.012024879, 0
66, 3694785682, 0.15620065, 0.657751, -0.11822489, 0.7273296, 0.1926801, 0.67466474, 0.04758072, 0
67, 3694802349, 0.1558728, 0.65764666, -0.11855897, 0.72744006, 0.13764165, 0.74235666, 0.09335327, 0
68, 3694819016, 0.15557614, 0.6575329, -0.118863866, 0.7275567, 0.17299385, 0.5438999, 0.1644535, 0
69, 3694835683, 0.15533924, 0.6574218, -0.1190851, 0.7276715, 0.17251247, 0.5184169, 0.051680565, 0
70, 3694852350, 0.1551539, 0.65730584, -0.11930227, 0.72778034, 0.11743678, 0.61639327, 0.040953636, 0
71, 3694869017, 0.15494153, 0.65719426, -0.11951305, 0.7278917, 0.0498853, 0.6673549, 0.07022381, 0
72, 3694885684, 0.15475482, 0.6570837, -0.119752645, 0.7279918, 0.104685225, 0.4651384, -0.0019693375, 0
73, 3694902351, 0.15457845, 0.65700525, -0.11994055, 0.7280691, 0.14283712, 0.42398012, 0.10614967, 0
74, 3694919018, 0.15443195, 0.6569158, -0.12008451, 0.72815716, 0.07478436, 0.49795887, 0.2776308, 0
75, 3694935685, 0.15430616, 0.6567891, -0.12021607, 0.7282765, 0.088261805, 0.46032712, 0.23880959, 0
76, 3694952352, 0.15419489, 0.65666306, -0.12031388, 0.7283975, 0.006127915, 0.40133807, 0.030929565, 0
77, 3694969019, 0.15403332, 0.656556, -0.12042308, 0.72851026, -0.13601233, 0.524485, -0.10847187, 0
78, 3694985686, 0.15381864, 0.6564453, -0.12059979, 0.728626, -0.16115636, 0.48906788, -0.017551422, 0
79, 3695002353, 0.15359616, 0.65631557, -0.12089795, 0.72874033, -0.10446702, 0.61515725, -0.04409504, 0
80, 3695019020, 0.15326774, 0.65618443, -0.12122342, 0.7288736, 0.1639638, 0.3257299, -0.31833744, 0
81, 3695035687, 0.15300164, 0.6561295, -0.1214024, 0.7289492, 0.44280985, -0.29919964, -0.047263145, 0
82, 3695052354, 0.15278555, 0.6560781, -0.121543854, 0.72901726, 0.06241789, 0.5897554, 0.35032272, 0
83, 3695069021, 0.15245713, 0.65595907, -0.12185186, 0.7291417, -0.11064998, 1.0140532, 0.03701973, 0
84, 3695085688, 0.15205988, 0.6558479, -0.12217726, 0.72927004, 0.26674747, 0.20526335, -0.16897583, 0
85, 3695102355, 0.15175407, 0.65579057, -0.12231751, 0.7293619, 0.2927503, 0.052067008, 0.14279556, 0
86, 3695119022, 0.15141302, 0.6557351, -0.12240149, 0.7294685, 0.016262468, 0.8515422, 0.1773262, 0
87, 3695135689, 0.1510706, 0.6556245, -0.122600675, 0.72960544, 0.06567688, 0.7997109, -0.020554543, 0
88, 3695152356, 0.1507922, 0.65558255, -0.12269078, 0.72968554, 0.824888, -0.26084802, -1.1308823, 0
89, 3695169023, 0.15056321, 0.65570223, -0.122619, 0.72963727, 0.061997436, 0.92024773, -0.08020592, 0
90, 3695185690, 0.1502836, 0.6557462, -0.12263453, 0.7296529, -0.2250647, 1.4982297, 1.1546373, 0
91, 3695202357, 0.15003039, 0.6556976, -0.12275319, 0.7297287, 0.5842273, 0.5795667, -0.024143219, 0
92, 3695219024, 0.14992698, 0.6556989, -0.12268825, 0.72975963, 0.86096656, -0.06566213, -0.34911823, 0
93, 3695235691, 0.14992952, 0.6557691, -0.12246762, 0.7297331, 0.105522364, 0.79908466, 0.61255836, 0
94, 3695252358, 0.14989069, 0.65578485, -0.12227969, 0.7297585, -0.040517393, 1.4424113, 0.30496407, 0
95, 3695269025, 0.14990106, 0.6557792, -0.12224297, 0.72976756, 0.284, 0.6920937, -0.23717976, 0
96, 3695285692, 0.14995903, 0.6558416, -0.122058585, 0.7297305, 0.1863302, 0.29577357, 0.045535088, 0
97, 3695302359, 0.15004332, 0.65591085, -0.12175779, 0.7297012, -0.0029284388, 0.8088317, 0.28639793, 0
98, 3695319026, 0.15018106, 0.65592164, -0.12156516, 0.7296952, -0.0075646285, 0.8100252, 0.0025510788, 0
99, 3695335693, 0.15037827, 0.65597826, -0.12135896, 0.7296381, 0.14556491, 0.39297473, -0.10656834, 0
100, 3695352360, 0.1507093, 0.656059, -0.121055335, 0.7295475, 0.107631885, 0.40851083, 0.10549164, 0
101, 3695369027, 0.15106799, 0.65615624, -0.12057842, 0.7294649, -0.01711232, 0.70829713, 0.12071133, 0
102, 3695385694, 0.1514586, 0.65625125, -0.12010154, 0.7293771, -0.03584846, 0.6691875, -0.015440941, 0
103, 3695402361, 0.15190047, 0.6563529, -0.11961311, 0.729274, -0.05465103, 0.42917532, -0.002820015, 0
104, 3695419028, 0.152389, 0.6564768, -0.1190747, 0.72914857, -0.08061849, 0.39202312, 0.14039803, 0
105, 3695435695, 0.15286057, 0.65661067, -0.11844765, 0.72903156, -0.08725091, 0.4415488, 0.12375927, 0
106, 3695452362, 0.1533758, 0.6567298, -0.117797285, 0.7289214, -0.065179676, 0.4889091, 0.07363033, 0
107, 3695469029, 0.15393418, 0.6568392, -0.11715889, 0.728808, -0.07343951, 0.509932, 0.0831089, 0
108, 3695485696, 0.15453622, 0.65694565, -0.11653252, 0.7286852, 0.029332109, 0.47846144, 0.083272934, 0
109, 3695502363, 0.15507695, 0.6570567, -0.115821466, 0.7285835, 0.093856834, 0.48512527, 0.11734867, 0
110, 3695519030, 0.1556336, 0.6571637, -0.115125775, 0.7284785, 0.0969671, 0.5252101, 0.06974697, 0
111, 3695535697, 0.15616263, 0.6572633, -0.11444551, 0.7283827, 0.11644511, 0.5309556, -0.03659916, 0
112, 3695552364, 0.15673499, 0.65738994, -0.11380188, 0.72824633, 0.14293584, 0.42879608, 0.04888916, 0
113, 3695569031, 0.15726689, 0.6575123, -0.11310345, 0.7281298, 0.22764465, 0.52293265, 0.10155201, 0
114, 3695585698, 0.1578154, 0.6576162, -0.11244571, 0.72801924, 0.28581622, 0.6061236, 0.084882736, 0
115, 3695602365, 0.15834822, 0.6577147, -0.111809835, 0.72791237, 0.35123724, 0.57576513, 0.10168457, 0
116, 3695619032, 0.15885751, 0.6578095, -0.111189276, 0.727811, 0.39101964, 0.5654149, 0.11011219, 0
117, 3695635699, 0.15934396, 0.65789986, -0.11059557, 0.7277132, 0.43335104, 0.6900034, 0.0914526, 0
118, 3695652366, 0.15976644, 0.65798175, -0.11007196, 0.7276261, 0.4321263, 0.76256514, 0.08087826, 0
119, 3695669033, 0.16014719, 0.6580474, -0.10963301, 0.72754914, 0.5017296, 0.65752345, 0.10026455, 0
120, 3695685700, 0.16049354, 0.6581106, -0.109230116, 0.7274764, 0.5549125, 0.61823124, 0.12077618, 0
121, 3695702367, 0.1607872, 0.65816426, -0.108883485, 0.72741497, 0.4947771, 0.69369364, 0.10732746, 0
122, 3695719034, 0.1610704, 0.6581927, -0.1086202, 0.72736573, 0.47410205, 0.687725, 0.09565449, 0
123, 3695735701, 0.16131975, 0.65820414, -0.10844061, 0.72732717, 0.5004617, 0.62380034, 0.13326645, 0
124, 3695752368, 0.16152278, 0.6582232, -0.10827002, 0.7272902, 0.53408545, 0.60379183, 0.1624527, 0
125, 3695769035, 0.16169904, 0.65823483, -0.10810351, 0.7272653, 0.46917716, 0.62648916, 0.12787151, 0
126, 3695785702, 0.16184996, 0.658234, -0.10793443, 0.72725755, 0.41865945, 0.63597393, 0.12099743, 0
127, 3695802369, 0.16199349, 0.65823734, -0.10778566, 0.7272447, 0.38014013, 0.61550087, 0.0060663223, 0
128, 3695819036, 0.1621079, 0.6582425, -0.10766664, 0.7272321, 0.34809253, 0.5980337, 0.022565842, 0
129, 3695835703, 0.16218592, 0.65825, -0.107577294, 0.72722125, 0.32539275, 0.6421362, 0.1432457, 0
130, 3695852370, 0.16223185, 0.6582515, -0.107513845, 0.72721887, 0.37997347, 0.64867646, 0.15547657, 0
131, 3695869037, 0.16226359, 0.6582368, -0.10746215, 0.72723275, 0.43208617, 0.5494908, 0.11360359, 0
132, 3695885704, 0.16226664, 0.6582117, -0.10744327, 0.7272575, 0.48106873, 0.5517518, 0.093995094, 0
133, 3695902371, 0.1622415, 0.6582048, -0.10745892, 0.72726715, 0.4318304, 0.61453223, 0.15997696, 0
134, 3695919038, 0.1621835, 0.6581565, -0.10752438, 0.72731423, 0.42923647, 0.6848395, 0.15920544, 0
135, 3695935705, 0.16208847, 0.65809727, -0.10761945, 0.7273749, 0.4506607, 0.539923, 0.14708614, 0
136, 3695952372, 0.16196947, 0.6580244, -0.107728615, 0.72745115, 0.43683288, 0.5308576, 0.12790966, 0
137, 3695969039, 0.16183114, 0.6579593, -0.107858315, 0.72752154, 0.3434354, 0.6075853, 0.06712055, 0
138, 3695985706, 0.16165179, 0.6578788, -0.108027816, 0.72760904, 0.27652508, 0.68190014, 0.072772026, 0
139, 3696002373, 0.16146669, 0.6578065, -0.108234346, 0.7276849, 0.3394969, 0.61140734, 0.050352097, 0
140, 3696019040, 0.16127118, 0.6577388, -0.108429655, 0.7277604, 0.38421148, 0.55588025, 0.067507744, 0
141, 3696035707, 0.16107494, 0.6576644, -0.10861191, 0.7278439, 0.38699436, 0.6237789, 0.094792366, 0
142, 3696052374, 0.16089423, 0.65759337, -0.10879606, 0.72792053, 0.4198009, 0.5985857, 0.07024956, 0
143, 3696069041, 0.16073397, 0.6575423, -0.10896221, 0.72797716, 0.41453323, 0.57746476, -0.02566433, 0
144, 3696085708, 0.16056204, 0.65750825, -0.10908361, 0.7280276, 0.31819698, 0.724119, 0.10843372, 0
145, 3696102375, 0.16036522, 0.6574631, -0.10922687, 0.7280904, 0.25923303, 0.8332531, 0.16842842, 0
146, 3696119042, 0.16015694, 0.65738595, -0.10942158, 0.7281766, 0.33637306, 0.62930137, 0.15618992, 0
147, 3696135709, 0.15995882, 0.65730417, -0.109633535, 0.72826207, 0.40409908, 0.4873624, 0.07179546, 0
148, 3696152376, 0.15976737, 0.6572293, -0.10986166, 0.72833735, 0.39832184, 0.5571158, 0.07928181, 0
149, 3696169043, 0.15956247, 0.6571506, -0.11011504, 0.7284151, 0.3527092, 0.6560882, -0.0012426376, 0
150, 3696185710, 0.15936622, 0.6570744, -0.11039397, 0.72848445, 0.2881354, 0.6940136, 0.061722755, 0
151, 3696202377, 0.15911534, 0.6569983, -0.11065796, 0.72856796, 0.26846558, 0.75420064, 0.08372402, 0
152, 3696219044, 0.15888952, 0.6569164, -0.11095658, 0.7286455, 0.28197336, 0.7324102, 0.10759163, 0
153, 3696235711, 0.15862924, 0.65683675, -0.11123204, 0.72873193, 0.31205785, 0.6623555, 0.10455704, 0
154, 3696252378, 0.15841657, 0.656741, -0.11153999, 0.7288177, 0.29904157, 0.5811196, 0.13507175, 0
155, 3696269045, 0.15822844, 0.6566562, -0.111824885, 0.7288913, 0.26406783, 0.63521504, 0.16231441, 0
156, 3696285712, 0.15809186, 0.65656585, -0.11211406, 0.72895783, 0.18167871, 0.66685164, 0.09973812, 0
157, 3696302379, 0.15798314, 0.656481, -0.11236945, 0.72901845, 0.15504575, 0.6132651, -0.029838562, 0
158, 3696319046, 0.15790719, 0.65642166, -0.112574995, 0.72905666, 0.16417524, 0.56670564, -0.052804947, 0
159, 3696335713, 0.15787433, 0.65638083, -0.11274432, 0.72907436, 0.16851793, 0.56151843, 0.07400322, 0
160, 3696352380, 0.15787847, 0.656329, -0.112902835, 0.7290955, 0.19416243, 0.57699925, 0.12045288, 0
161, 3696369047, 0.15790051, 0.65628076, -0.11301763, 0.7291165, 0.16012275, 0.54392743, 0.10710716, 0
162, 3696385714, 0.15795876, 0.65623885, -0.113111466, 0.7291269, 0.22544503, 0.5246524, 0.06077671, 0
163, 3696402381, 0.15802428, 0.6562259, -0.113171026, 0.7291151, 0.2008353, 0.54700035, 0.066119194, 0
164, 3696419048, 0.15809204, 0.65619653, -0.113219455, 0.72911936, 0.22754563, 0.5391414, 0.13146496, 0
165, 3696435715, 0.15811528, 0.6561611, -0.113228664, 0.7291448, 0.1933259, 0.4706477, 0.14377308, 0
166, 3696452382, 0.15816417, 0.6561001, -0.1132932, 0.7291791, 0.15055397, 0.4390541, 0.112075806, 0
167, 3696469049, 0.15815827, 0.6560382, -0.11337036, 0.729224, 0.0740131, 0.45509887, 0.09821224, 0
168, 3696485716, 0.15812826, 0.6559753, -0.113508955, 0.7292656, 0.04473215, 0.45459947, -0.04279709, 0
169, 3696502383, 0.1580507, 0.65591866, -0.11368649, 0.7293057, 0.09389782, 0.45219666, -0.007890701, 0
170, 3696519050, 0.15795518, 0.65584946, -0.11389567, 0.7293561, 0.117148675, 0.37619108, 0.15485764, 0
171, 3696535717, 0.15783133, 0.6557616, -0.11410229, 0.7294295, 0.10279098, 0.36663267, 0.16623211, 0
172, 3696552384, 0.1577037, 0.6556719, -0.114322335, 0.7295034, -6.0317764E-4, 0.4153006, 0.079114914, 0
173, 3696569051, 0.15755399, 0.65557307, -0.11458051, 0.7295841, -0.016604666, 0.50387645, 0.049282074, 0
174, 3696585718, 0.1573511, 0.6554737, -0.11482923, 0.729678, -0.0199007, 0.4855871, 0.051445007, 0
175, 3696602385, 0.15714405, 0.655368, -0.115100965, 0.7297748, 0.058025725, 0.4389133, 0.02689743, 0
176, 3696619052, 0.156903, 0.6552647, -0.11534202, 0.72988135, 0.110976614, 0.3814802, -0.023755074, 0
177, 3696635719, 0.15668671, 0.6551806, -0.11558257, 0.72996527, 0.10120147, 0.42621222, -0.07385349, 0
178, 3696652386, 0.15651596, 0.6551185, -0.115823954, 0.73001933, 0.09570052, 0.49278945, -0.025827408, 0
179, 3696669053, 0.1563632, 0.6550744, -0.11601874, 0.7300606, 0.06633602, 0.52608764, 0.07978916, 0
180, 3696685720, 0.15626314, 0.6550253, -0.11620326, 0.7300968, 0.09103127, 0.5909525, 0.11750507, 0
181, 3696702387, 0.15630364, 0.6549468, -0.11647633, 0.73011494, 0.091435626, 0.6370709, 0.15451813, 0
182, 3696719054, 0.15624738, 0.6548867, -0.116624236, 0.7301573, 0.12444779, 0.60550976, 0.13575363, 0
183, 3696735721, 0.15617086, 0.6548453, -0.11668524, 0.730201, 0.15695234, 0.5714777, 0.048247337, 0
184, 3696752388, 0.15617211, 0.6547976, -0.116762474, 0.73023117, 0.12472945, 0.5655722, 0.01450634, 0
185, 3696769055, 0.15622346, 0.6547624, -0.11683577, 0.73024005, 0.11642259, 0.56015766, 0.07163906, 0
186, 3696785722, 0.1563017, 0.65473753, -0.116853714, 0.7302427, 0.16723561, 0.5195765, 0.026983261, 0
187, 3696802389, 0.1563787, 0.65472186, -0.11677916, 0.7302522, 0.17023203, 0.50144625, 0.008678436, 0
188, 3696819056, 0.15652125, 0.65471435, -0.11674023, 0.7302347, 0.1137869, 0.62018746, 0.09211159, 0
189, 3696835723, 0.1566751, 0.6547054, -0.116727665, 0.7302116, 0.1287953, 0.6450717, 0.08303356, 0
190, 3696852390, 0.1568546, 0.65468234, -0.116745025, 0.7301911, 0.18426049, 0.528804, 0.09418583, 0
191, 3696869057, 0.15697739, 0.65466434, -0.11667557, 0.73019195, 0.18744254, 0.4879107, 0.16850185, 0
192, 3696885724, 0.1571277, 0.6546382, -0.11661063, 0.7301934, 0.18680061, 0.5792567, 0.14644432, 0
193, 3696902391, 0.15727569, 0.6546109, -0.11654091, 0.7301971, 0.1538106, 0.5980568, 0.083135605, 0
194, 3696919058, 0.15744953, 0.65459, -0.11647202, 0.7301894, 0.21903358, 0.55982083, 0.037316322, 0
195, 3696935725, 0.15762778, 0.6545758, -0.11639206, 0.7301765, 0.23000291, 0.5787931, 0.0133600235, 0
196, 3696952392, 0.15782696, 0.6545603, -0.11635864, 0.7301526, 0.20043625, 0.5846644, 0.04894066, 0
197, 3696969059, 0.15795723, 0.654548, -0.116333455, 0.73013955, 0.24343643, 0.4836934, 0.08408451, 0
198, 3696985726, 0.15812157, 0.6545175, -0.11632949, 0.730132, 0.27565706, 0.42774156, 0.0810442, 0
199, 3697002393, 0.15828647, 0.6544922, -0.116336346, 0.7301178, 0.18268004, 0.46546328, 0.12006664, 0
200, 3697019060, 0.15840116, 0.65445054, -0.116356194, 0.73012704, 0.13123451, 0.5915663, 0.11647797, 0
201, 3697035727, 0.15849121, 0.6544026, -0.116426006, 0.73013943, 0.15614618, 0.5279454, 0.054385185, 0
202, 3697052394, 0.15850715, 0.6543656, -0.11645937, 0.7301638, 0.18852717, 0.47081542, 0.09042168, 0
203, 3697069061, 0.15852863, 0.6543212, -0.11653766, 0.73018634, 0.19100066, 0.48657435, 0.09588909, 0
204, 3697085728, 0.15856823, 0.65426695, -0.116664216, 0.73020613, 0.17514962, 0.5155025, 0.013654709, 0
205, 3697102395, 0.1585497, 0.65422446, -0.11675885, 0.73023313, 0.17715287, 0.50239027, 0.015522957, 0
206, 3697119062, 0.15858622, 0.65417504, -0.116909325, 0.7302454, 0.19299959, 0.52397233, 0.06391239, 0
207, 3697135729, 0.15857066, 0.65413666, -0.116990924, 0.73027015, 0.21634045, 0.51070213, 0.0989666, 0
208, 3697152396, 0.15858373, 0.6540956, -0.11707945, 0.73028994, 0.23444115, 0.5127419, 0.081933975, 0
209, 3697169063, 0.15862612, 0.6540562, -0.1171813, 0.7302996, 0.25955746, 0.58976626, 0.06453991, 0
210, 3697185730, 0.1586654, 0.6540265, -0.11726223, 0.7303048, 0.25284147, 0.5890615, 0.07519245, 0
211, 3697202397, 0.15874985, 0.65399194, -0.117348686, 0.7303033, 0.31687567, 0.56492597, 0.057949066, 0
212, 3697219064, 0.15884204, 0.65397537, -0.11739761, 0.7302904, 0.3262643, 0.55198723, 0.0868597, 0
213, 3697235731, 0.15876114, 0.6539781, -0.1172819, 0.73032415, 0.28055623, 0.6103997, 0.11216831, 0
214, 3697252398, 0.1588598, 0.6539546, -0.11735442, 0.730312, 0.27091244, 0.5803292, 0.12262058, 0
215, 3697269065, 0.15891066, 0.65393543, -0.117401466, 0.73031044, 0.3041114, 0.50200486, 0.12523556, 0
216, 3697285732, 0.15898971, 0.6539029, -0.11746085, 0.730313, 0.32715946, 0.52608943, 0.041395187, 0
217, 3697302399, 0.15906686, 0.65389156, -0.11751625, 0.73029745, 0.45060435, 0.58952534, -0.3248682, 0
218, 3697319066, 0.15914929, 0.65389776, -0.11758365, 0.730263, 0.1662683, 0.70734996, 0.4440155, 0
219, 3697335733, 0.15921618, 0.65387726, -0.11766276, 0.73025405, 0.2962088, 0.58451337, 0.24342632, 0
220, 3697352400, 0.15933268, 0.65381724, -0.11773722, 0.7302703, 0.32837203, 0.40977886, 0.028727531, 0
221, 3697369067, 0.15944442, 0.65378386, -0.117765814, 0.7302712, 0.12423252, 0.48191437, 0.28920555, 0
222, 3697385734, 0.15950786, 0.6537355, -0.11780156, 0.7302949, 0.07838362, 0.62560457, -0.11080742, 0
223, 3697402401, 0.15952511, 0.65367436, -0.11793424, 0.7303245, -0.18498647, 0.4460913, -0.24294186, 0
224, 3697419068, 0.15948527, 0.65366226, -0.118130684, 0.73031235, -0.48336437, 0.12545693, -0.10889912, 0
225, 3697435735, 0.15948413, 0.65367377, -0.118336454, 0.7302689, -0.59650576, -0.0134322345, 0.15276814, 0
226, 3697452402, 0.15951377, 0.6536538, -0.118413344, 0.7302679, -0.52465796, -0.085801594, 0.06625366, 0
227, 3697469069, 0.15966006, 0.65363294, -0.11842245, 0.7302531, -0.50177115, 0.022105781, -0.13962078, 0
228, 3697485736, 0.1597703, 0.6536618, -0.11828938, 0.7302247, -0.49894148, 0.2252501, -0.009221077, 0
229, 3697502403, 0.1599488, 0.653674, -0.118193895, 0.7301901, -0.37281856, 0.33498383, 0.1596632, 0
230, 3697519070, 0.16001944, 0.6536892, -0.11797568, 0.73019636, -0.09435784, 0.27176103, 0.12213421, 0
231, 3697535737, 0.16017269, 0.6536932, -0.117790446, 0.73018914, 0.012992724, 0.28839666, 0.0086603165, 0
232, 3697552404, 0.16027384, 0.65370935, -0.11759727, 0.7301836, 0.049582828, 0.44242433, 0.02210617, 0
233, 3697569071, 0.16032177, 0.6537187, -0.11748496, 0.73018277, 0.072618105, 0.58856934, -0.002981186, 0
234, 3697585738, 0.16039845, 0.6536866, -0.11759412, 0.7301771, 0.10541625, 0.5126861, 0.050427437, 0
235, 3697602405, 0.16038565, 0.6536628, -0.117737815, 0.730178, 0.23911846, 0.36754605, 0.10655975, 0
236, 3697619072, 0.16030303, 0.65362054, -0.117858365, 0.7302146, 0.25937563, 0.39303368, 0.18489361, 0
237, 3697635739, 0.16017641, 0.65355456, -0.118023366, 0.7302748, 0.19863853, 0.5802553, 0.17154789, 0
238, 3697652406, 0.1600474, 0.65348566, -0.11824374, 0.7303291, 0.24116537, 0.5714206, 0.14628506, 0
239, 3697669073, 0.15994309, 0.6534022, -0.11847335, 0.73038924, 0.23528734, 0.53918195, 0.13511753, 0
240, 3697685740, 0.15978847, 0.6533301, -0.11867893, 0.7304543, 0.17321444, 0.64068246, 0.012116432, 0
241, 3697702407, 0.15962072, 0.65326166, -0.11889878, 0.73051643, 0.14552286, 0.5478162, -0.002500534, 0
242, 3697719074, 0.15950912, 0.65321153, -0.119143665, 0.7305457, 0.18190889, 0.4160703, -0.049783707, 0
243, 3697735741, 0.15941794, 0.65318084, -0.11930823, 0.7305663, 0.17292166, 0.47905493, 0.02969265, 0
244, 3697752408, 0.159298, 0.6531382, -0.11941339, 0.73061335, 0.10818902, 0.6427511, 0.1423893, 0
245, 3697769075, 0.1592622, 0.65308195, -0.11958423, 0.7306434, 0.119428255, 0.6473481, 0.11704826, 0
246, 3697785742, 0.15920039, 0.6530498, -0.11968158, 0.7306697, 0.17668414, 0.5725523, 0.19460297, 0
247, 3697802409, 0.15924156, 0.6530107, -0.11976075, 0.7306826, 0.22603002, 0.5432686, 0.15232468, 0
248, 3697819076, 0.15932725, 0.65297425, -0.119786695, 0.73069227, 0.22028725, 0.5051731, 0.11675739, 0
249, 3697835743, 0.15947585, 0.65291417, -0.11984685, 0.73070383, 0.110049315, 0.504815, 0.10109806, 0
250, 3697852410, 0.15961808, 0.6528592, -0.119912565, 0.730711, 0.083548054, 0.48483202, 0.055304527, 0
251, 3697869077, 0.15971956, 0.65281993, -0.11995435, 0.7307172, 0.05663148, 0.44489315, 0.005142212, 0
252, 3697885744, 0.1598242, 0.6527904, -0.12001163, 0.7307112, -0.002581755, 0.39392582, 0.06634998, 0
253, 3697902411, 0.15988265, 0.65275633, -0.12005456, 0.73072183, -0.01789062, 0.36630762, 0.07537651, 0
254, 3697919078, 0.15994874, 0.6527099, -0.12011781, 0.73073846, 0.003518038, 0.23680404, 0.070939064, 0
255, 3697935745, 0.1600333, 0.6526493, -0.12024705, 0.7307529, -0.016543396, 0.20925865, -0.0011835098, 0
256, 3697952412, 0.15999773, 0.6526058, -0.12033959, 0.7307841, -0.056904864, 0.2736896, -0.02821827, 0
257, 3697969079, 0.15989892, 0.65256095, -0.120498136, 0.73081964, -0.035792302, 0.3008378, 0.013249397, 0
258, 3697985746, 0.15971072, 0.6525114, -0.120678335, 0.7308753, 0.036567558, 0.23229612, 0.050660133, 0
259, 3698002413, 0.15948023, 0.6524497, -0.12090312, 0.7309436, 0.015685804, 0.17428645, 0.031373024, 0
260, 3698019080, 0.15915392, 0.6523814, -0.121134296, 0.73103744, -0.045277998, 0.23855984, 0.08444786, 0
261, 3698035747, 0.15880258, 0.65228933, -0.121492326, 0.7311367, -0.102722116, 0.28459144, 0.020178795, 0
262, 3698052414, 0.15837203, 0.65218884, -0.12190746, 0.73125064, -0.078593075, 0.16628213, 0.022663116, 0
263, 3698069081, 0.15779379, 0.6520887, -0.12229495, 0.7314001, -0.04090874, 0.14741841, 0.045903206, 0
264, 3698085748, 0.15721236, 0.65196085, -0.12280406, 0.73155385, -0.054996587, 0.17532566, 0.004146576, 0
265, 3698102415, 0.15655322, 0.6518159, -0.12336184, 0.73173064, -0.061765205, 0.22673166, 0.10025883, 0
266, 3698119082, 0.15582173, 0.65167415, -0.12394433, 0.7319146, -0.06109235, 0.19519833, 0.13356018, 0
267, 3698135749, 0.15498532, 0.6515292, -0.12449975, 0.73212695, -0.033656638, 0.21648861, -0.0076122284, 0
268, 3698152416, 0.15418068, 0.65136725, -0.1251548, 0.7323292, -0.02385998, 0.2002685, -0.08418846, 0
269, 3698169083, 0.15333897, 0.65120363, -0.12583691, 0.7325344, -0.09111989, 0.48313352, 0.08406639, 0
270, 3698185750, 0.15247147, 0.6510157, -0.1265742, 0.73275566, -0.21890244, 0.5159848, 0.1860342, 0
271, 3698202417, 0.15155719, 0.6508173, -0.12736128, 0.73298514, 0.1662975, 0.30957717, -0.12076378, 0
272, 3698219084, 0.15065601, 0.65066856, -0.12810136, 0.7331739, 0.20542009, 0.2680373, 0.031202316, 0
273, 3698235751, 0.14972046, 0.65051544, -0.12885694, 0.73336905, 0.124042116, 0.7815975, 0.27207756, 0
274, 3698252418, 0.14876382, 0.65028524, -0.12979287, 0.73360276, 0.2761195, 0.76557076, 0.09908962, 0
275, 3698269085, 0.14775242, 0.6500524, -0.13075992, 0.7338418, 0.29945248, 0.34773955, 0.15675259, 0
276, 3698285752, 0.14675643, 0.6498079, -0.13165697, 0.7340978, 0.22959633, 0.41303936, 0.14654255, 0
277, 3698302419, 0.14578798, 0.64958006, -0.13255331, 0.73433095, 0.03513259, 0.57227886, -0.053203583, 0
278, 3698319086, 0.14483131, 0.64936584, -0.13344403, 0.7345485, -0.0045568985, 0.5634831, -0.04439068, 0
279, 3698335753, 0.1439952, 0.6491657, -0.134274, 0.7347385, 0.011194814, 0.33355072, 0.0075912476, 0
280, 3698352420, 0.14327239, 0.64901876, -0.13494366, 0.734887, -0.037180487, 0.43162352, -0.027428627, 0
281, 3698369087, 0.14259759, 0.64890325, -0.13545859, 0.73502547, -0.1206286, 0.60891914, 0.073960304, 0
282, 3698385754, 0.14201587, 0.64877874, -0.13595363, 0.7351565, -0.032161895, 0.7179752, 0.1657505, 0
283, 3698402421, 0.14149195, 0.6486734, -0.13637573, 0.73527217, 0.05265859, 0.5016773, 0.113101006, 0
284, 3698419088, 0.14101899, 0.6485819, -0.13666694, 0.73538977, 0.0836716, 0.4770641, 0.05980587, 0
285, 3698435755, 0.14058362, 0.6485, -0.13691495, 0.7354992, 0.040748592, 0.47296286, 0.0094537735, 0
286, 3698452422, 0.14012866, 0.6484447, -0.13713534, 0.73559374, 0.11468656, 0.29935303, -0.11535835, 0
287, 3698469089, 0.13975537, 0.6483993, -0.13738552, 0.73565805, 0.144898, 0.43075076, 0.141428, 0
288, 3698485756, 0.13939744, 0.6483563, -0.13761584, 0.7357208, 0.093832105, 0.78525305, 0.23868847, 0
289, 3698502423, 0.13906711, 0.6482855, -0.13789308, 0.7357937, 0.16001466, 0.81167275, 0.030773163, 0
290, 3698519090, 0.13873154, 0.64818585, -0.13818248, 0.73589057, 0.16214812, 0.5345784, 0.15581512, 0
291, 3698535757, 0.13840519, 0.64810055, -0.13844645, 0.7359775, 0.15831602, 0.47677174, 0.10808182, 0
292, 3698552424, 0.1381508, 0.64801645, -0.13871375, 0.7360491, 0.22230266, 0.39234588, 0.05269909, 0
293, 3698569091, 0.13795178, 0.64796424, -0.13890022, 0.73609734, 0.11388013, 0.582388, 0.1283598, 0
294, 3698585758, 0.1377479, 0.64791715, -0.13904017, 0.73615056, 0.115858555, 0.7412393, 0.09156132, 0
295, 3698602425, 0.1375858, 0.64785844, -0.13919891, 0.7362025, 0.10436918, 0.7867481, 0.15919495, 0
296, 3698619092, 0.13748392, 0.6478033, -0.13932478, 0.7362463, 0.089688875, 0.63467693, 0.140522, 0
297, 3698635759, 0.13747573, 0.64774275, -0.13941073, 0.7362847, 0.10021335, 0.45423314, 0.041610718, 0
298, 3698652426, 0.13755164, 0.64771295, -0.13940203, 0.7362983, -0.028451383, 0.44533268, 0.04987812, 0
299, 3698669093, 0.13767745, 0.6477152, -0.13934097, 0.7362845, -0.09572096, 0.6171109, 0.034514427, 0
300, 3698685760, 0.1377864, 0.6477397, -0.13926232, 0.73625743, 0.020934252, 0.58015597, 0.041009903, 0
301, 3698702427, 0.13791767, 0.64776427, -0.1391663, 0.7362293, 0.20705187, 0.54389226, 0.068151474, 0
302, 3698719094, 0.13807148, 0.64778244, -0.13906804, 0.7362031, 0.24024013, 0.54066217, 0.13715458, 0
303, 3698735761, 0.13822815, 0.6477787, -0.13898118, 0.73619354, 0.2404942, 0.56930953, 0.09250927, 0
304, 3698752428, 0.13846892, 0.6477584, -0.13898, 0.73616624, 0.37348223, 0.432656, -0.080750465, 0
305, 3698769095, 0.13863106, 0.64773524, -0.13896047, 0.7361598, 0.063923, 0.38051102, 0.6867523, 0
306, 3698785762, 0.13876557, 0.6476605, -0.13897784, 0.7361969, 0.15415007, 0.5193889, -0.020407677, 0
307, 3698802429, 0.13884395, 0.647579, -0.13907571, 0.7362354, -0.06198805, 0.48457554, -0.026603699, 0
308, 3698819096, 0.13886857, 0.6474903, -0.1392014, 0.73628503, -0.052247524, 0.41237208, 0.23583984, 0
309, 3698835763, 0.13886558, 0.647397, -0.13930866, 0.7363473, -0.01798536, 0.22807395, -0.059753418, 0
310, 3698852430, 0.13888831, 0.6473326, -0.13941449, 0.7363796, -0.29934072, 0.14596535, -0.10568142, 0
311, 3698869097, 0.13895003, 0.6472749, -0.13950726, 0.736401, -0.50312084, 0.09096083, 0.05956173, 0
312, 3698885764, 0.13901867, 0.6472383, -0.1395194, 0.73641795, -0.51594937, -0.010803163, -0.07307243, 0
313, 3698902431, 0.13910767, 0.6472162, -0.13945475, 0.7364329, -0.48541, 0.09726792, -0.07656765, 0
314, 3698919098, 0.1391922, 0.6472083, -0.13937461, 0.736439, -0.37012678, 0.1687236, -0.09383869, 0
315, 3698935765, 0.13921812, 0.6471991, -0.13934314, 0.73644817, -0.122435115, 0.31640482, 0.019557, 0
316, 3698952432, 0.13919948, 0.64715755, -0.13940582, 0.7364762, 0.031681314, 0.47596872, 0.24238586, 0
317, 3698969099, 0.13913816, 0.64706683, -0.1395317, 0.7365437, 0.20090224, 0.4692668, 0.14850521, 0
318, 3698985766, 0.13906999, 0.64695674, -0.13967484, 0.73662627, 0.18053658, 0.37484828, 0.0779953, 0
319, 3699002433, 0.13897544, 0.6468495, -0.13981315, 0.7367121, 0.0013846908, 0.3865686, 0.055945396, 0
320, 3699019100, 0.13885573, 0.6467641, -0.13996059, 0.73678166, -0.079653926, 0.35065222, -0.046429634, 0
321, 3699035767, 0.1387081, 0.6467012, -0.14013582, 0.7368312, 0.014910549, 0.24190617, 5.168915E-4, 0
322, 3699052434, 0.13856502, 0.6466529, -0.14027566, 0.736874, 0.21451634, 0.2074122, 0.06790924, 0
323, 3699069101, 0.138402, 0.64659613, -0.1404169, 0.7369275, 0.32155326, 0.5514094, 0.12407684, 0
324, 3699085768, 0.13819097, 0.6465095, -0.14062893, 0.73700273, 0.39320558, 0.73066306, 0.22212505, 0
325, 3699102435, 0.1379305, 0.646414, -0.1408953, 0.7370844, 0.5518707, 0.62300646, 0.13786316, 0
326, 3699119102, 0.13765429, 0.6463179, -0.14114723, 0.73717207, 0.5659249, 0.532567, 0.07690048, 0
327, 3699135769, 0.13738953, 0.64621806, -0.14138217, 0.73726404, 0.44292217, 0.6533488, 0.055309296, 0
328, 3699152436, 0.13713562, 0.64612675, -0.14162627, 0.73734456, 0.3696954, 0.7537018, 0.018080711, 0
329, 3699169103, 0.13691886, 0.6460584, -0.1418576, 0.73740023, 0.3251196, 0.6778919, 0.10155964, 0
330, 3699185770, 0.13677412, 0.6460076, -0.14200693, 0.73744273, 0.39897755, 0.5947843, 0.19232845, 0
331, 3699202437, 0.13671245, 0.6459632, -0.14206898, 0.73748124, 0.39895517, 0.65590996, 0.15037918, 0
332, 3699219104, 0.13670878, 0.6459192, -0.14211208, 0.737512, 0.3680503, 0.63181233, 0.1626234, 0
333, 3699235771, 0.13672872, 0.6458757, -0.14214459, 0.7375402, 0.36173287, 0.5855879, 0.14129257, 0
334, 3699252438, 0.13675481, 0.6458327, -0.14213017, 0.73757577, 0.341815, 0.6043165, 0.049200058, 0
335, 3699269105, 0.13679118, 0.64580387, -0.14211202, 0.7375978, 0.24694599, 0.62919533, 0.086001396, 0
336, 3699285772, 0.1368453, 0.6457734, -0.14211509, 0.7376138, 0.22888489, 0.67167234, 0.13110924, 0
337, 3699302439, 0.13690497, 0.6457257, -0.14212988, 0.7376416, 0.27428076, 0.5457853, 0.13080978, 0
338, 3699319106, 0.13696021, 0.6456869, -0.14212185, 0.73766696, 0.29638034, 0.42901674, 0.09593773, 0
339, 3699335773, 0.13699903, 0.6456541, -0.14212072, 0.73768866, 0.26613352, 0.4249503, 0.0851593, 0
340, 3699352440, 0.13703316, 0.6456092, -0.14214922, 0.7377161, 0.21261346, 0.47634304, 0.10419178, 0
341, 3699369107, 0.13705517, 0.64555967, -0.14219677, 0.7377461, 0.1930937, 0.46101373, 0.10164261, 0
342, 3699385774, 0.1370532, 0.6455108, -0.14225675, 0.7377777, 0.1775068, 0.41527987, 0.07728481, 0
343, 3699402441, 0.13702857, 0.64545614, -0.14231701, 0.7378186, 0.14112203, 0.39621773, 0.073931694, 0
344, 3699419108, 0.13702075, 0.64540625, -0.14237058, 0.7378533, 0.047069874, 0.40400895, -0.028517723, 0
345, 3699435775, 0.1370072, 0.64536387, -0.14242786, 0.7378817, 0.029386645, 0.34174684, -0.014672279, 0
346, 3699452442, 0.13700543, 0.64533675, -0.14245802, 0.73789996, 0.027456611, 0.42119893, 0.059318542, 0
347, 3699469109, 0.13698658, 0.64530784, -0.1424926, 0.7379223, 0.03510908, 0.49213597, 0.07745552, 0
348, 3699485776, 0.1369578, 0.6452739, -0.14252982, 0.73795, 0.09046857, 0.3975911, 0.09517574, 0
349, 3699502443, 0.1369406, 0.64525706, -0.14255306, 0.73796344, 0.15684175, 0.29510325, 0.1163435, 0
350, 3699519110, 0.13693719, 0.64523375, -0.14253917, 0.7379871, 0.07370968, 0.39939794, 0.12756634, 0
351, 3699535777, 0.13694692, 0.6452196, -0.14252333, 0.7380007, 0.028545696, 0.5237387, 0.06670761, 0
352, 3699552444, 0.13695459, 0.6451888, -0.14253154, 0.73802465, 0.02533712, 0.49829543, -0.025384903, 0
353, 3699569111, 0.13695881, 0.64517784, -0.14251989, 0.7380356, 0.0074451608, 0.32717034, 0.0049619675, 0
354, 3699585778, 0.13695374, 0.64517564, -0.14248657, 0.738045, -0.0019695403, 0.28705457, 0.028493881, 0
355, 3699602445, 0.13696867, 0.6451826, -0.14244233, 0.7380446, -0.007748803, 0.34209713, 0.022420883, 0
356, 3699619112, 0.1369967, 0.64518785, -0.14241107, 0.7380409, -0.0024467963, 0.47260514, 0.14825249, 0
357, 3699635779, 0.13701938, 0.645174, -0.14238635, 0.73805344, 0.04798619, 0.49595687, 0.1245594, 0
358, 3699652446, 0.13703749, 0.6451722, -0.14235109, 0.73805857, 0.105131105, 0.47674894, 0.09607315, 0
359, 3699669113, 0.1370355, 0.6451569, -0.14232393, 0.7380776, 0.11004244, 0.4223154, 0.07677555, 0
360, 3699685780, 0.13703373, 0.6451443, -0.14230937, 0.73809177, 0.08768651, 0.39144528, 0.037499428, 0
361, 3699702447, 0.1370395, 0.64512765, -0.14230226, 0.7381066, 0.114198305, 0.3717981, 0.009177208, 0
362, 3699719114, 0.13704813, 0.645121, -0.14230262, 0.7381108, 0.07665301, 0.45620245, 0.08151913, 0
363, 3699735781, 0.13704072, 0.6451188, -0.14230251, 0.73811406, 0.0808792, 0.44873762, 0.09728432, 0
364, 3699752448, 0.13702513, 0.6451008, -0.14230114, 0.7381329, 0.09301341, 0.41648665, 0.10231686, 0
365, 3699769115, 0.13701989, 0.6450809, -0.14230013, 0.73815155, 0.11837419, 0.42821166, 0.06668568, 0
366, 3699785782, 0.13702641, 0.64506984, -0.14229116, 0.73816174, 0.09251696, 0.46808597, 0.051290512, 0
367, 3699802449, 0.13703774, 0.6450579, -0.14228363, 0.73817134, 0.08756827, 0.5015528, 0.07270813, 0
368, 3699819116, 0.13705316, 0.6450437, -0.14228538, 0.73818064, 0.09767257, 0.4541029, 0.11408615, 0
369, 3699835783, 0.1370535, 0.6450338, -0.14228874, 0.7381886, 0.11591921, 0.36338285, 0.1103611, 0
370, 3699852450, 0.1370661, 0.64501965, -0.14227179, 0.73820186, 0.12908128, 0.3622966, 0.11959553, 0
371, 3699869117, 0.13709907, 0.6450116, -0.14224228, 0.7382085, 0.0621121, 0.4593762, 0.034121513, 0
372, 3699885784, 0.13712598, 0.64499974, -0.14221425, 0.73821914, 0.06181234, 0.5546554, 0.052451134, 0
373, 3699902451, 0.13716547, 0.64499795, -0.14217427, 0.7382212, 0.07361427, 0.55765635, 0.041817665, 0
374, 3699919118, 0.13720521, 0.6450022, -0.14214279, 0.73821616, 0.105749905, 0.42457005, 0.07061386, 0
375, 3699935785, 0.1372658, 0.6450002, -0.14209008, 0.7382167, 0.12402055, 0.34915468, 0.0878067, 0
376, 3699952452, 0.13733281, 0.64500463, -0.14201866, 0.73821414, 0.09749262, 0.39293337, 0.10018921, 0
377, 3699969119, 0.13739896, 0.64501584, -0.1419543, 0.7382045, 0.09160785, 0.4808707, 0.08435154, 0
378, 3699985786, 0.13747147, 0.6450226, -0.14188501, 0.7381984, 0.079876095, 0.53855395, 0.08923149, 0
379, 3700002453, 0.13755815, 0.64502084, -0.14183155, 0.7381939, 0.09344308, 0.46489626, 0.07988167, 0
380, 3700019120, 0.1376318, 0.6450202, -0.14176655, 0.7381933, 0.07239529, 0.4423332, 0.096110344, 0
381, 3700035787, 0.13770302, 0.64502585, -0.14169818, 0.73818827, 0.06544851, 0.40750977, 0.07738972, 0
382, 3700052454, 0.13777429, 0.6450436, -0.14163205, 0.7381721, 0.07073148, 0.34894893, 0.032715797, 0
383, 3700069121, 0.13785695, 0.6450608, -0.14155358, 0.7381567, 0.094176404, 0.35828885, 0.067334175, 0
384, 3700085788, 0.13793217, 0.6450724, -0.14148079, 0.7381465, 0.09493274, 0.5161533, 0.096185684, 0
385, 3700102455, 0.13799998, 0.64506906, -0.14142925, 0.73814654, 0.13726479, 0.5115142, 0.14385796, 0
386, 3700119122, 0.13806795, 0.6450674, -0.14138994, 0.73814297, 0.1849006, 0.4274437, 0.1366806, 0
387, 3700135789, 0.13813873, 0.645068, -0.14133476, 0.7381397, 0.20209773, 0.3584923, 0.06295586, 0
388, 3700152456, 0.13817981, 0.64505893, -0.14126594, 0.73815316, 0.14862399, 0.3820791, 0.09137821, 0
389, 3700169123, 0.13822682, 0.6450478, -0.1412297, 0.73816085, 0.102362625, 0.43353742, 0.08144188, 0
390, 3700185790, 0.13826919, 0.64501953, -0.14122127, 0.7381793, 0.09189638, 0.4342895, 0.08285999, 0
391, 3700202457, 0.13828427, 0.64500386, -0.14122376, 0.73818976, 0.07216429, 0.4040591, 0.001912117, 0
392, 3700219124, 0.13824955, 0.6449755, -0.14123921, 0.738218, 0.030291174, 0.37373647, 0.07015133, 0
393, 3700235791, 0.13817881, 0.6449502, -0.14130011, 0.7382418, 0.04487961, 0.30131134, 0.06401253, 0
394, 3700252458, 0.1381058, 0.6449212, -0.14136976, 0.7382675, 0.08041088, 0.30562994, 0.08899975, 0
395, 3700269125, 0.13802375, 0.64488995, -0.14143036, 0.73829854, 0.07903186, 0.37486956, 0.10984993, 0
396, 3700285792, 0.13793612, 0.6448683, -0.14150298, 0.7383199, 0.3134632, 0.4388829, -0.38608456, 0
397, 3700302459, 0.13785233, 0.64487255, -0.14158095, 0.73831683, -0.0060208524, 0.4275492, 0.42475605, 0
398, 3700319126, 0.13775457, 0.6448343, -0.14166875, 0.7383516, -0.021352444, 0.4477923, 0.3941126, 0
399, 3700335793, 0.1376475, 0.64473724, -0.14176732, 0.7384374, -0.13691351, 0.48045304, -0.039818764, 0
400, 3700352460, 0.1375242, 0.6446653, -0.14189011, 0.7384997, -0.32573023, 0.205108, 0.15536308, 0
401, 3700369127, 0.13739954, 0.6446049, -0.14199013, 0.73855627, -0.24459013, 0.19929029, -0.020503998, 0
402, 3700385794, 0.13727435, 0.6445687, -0.14206886, 0.738596, -0.31517577, 0.2173137, -0.2106762, 0
403, 3700402461, 0.13717547, 0.64456207, -0.14214197, 0.7386059, -0.4230592, 0.211438, -0.20112896, 0
404, 3700419128, 0.13706459, 0.6445629, -0.14219601, 0.7386157, -0.48881462, 0.15633692, -0.094530106, 0
405, 3700435795, 0.13698284, 0.6445786, -0.14222464, 0.7386116, -0.43682665, 0.11293439, 0.06949711, 0
406, 3700452462, 0.13691163, 0.6445782, -0.1422534, 0.73861957, -0.32462463, 0.19698589, 0.09865284, 0
407, 3700469129, 0.1368572, 0.6445789, -0.14230365, 0.7386193, -0.23558877, 0.2869172, 0.10076332, 0
408, 3700485796, 0.13674721, 0.64455104, -0.14236268, 0.7386526, -0.12882887, 0.40465534, 0.16340351, 0
409, 3700502463, 0.13660851, 0.6445063, -0.14246017, 0.7386986, -0.07787055, 0.38546693, 0.072981834, 0
410, 3700519130, 0.13645893, 0.64447147, -0.1426023, 0.73872924, -0.049891695, 0.3021322, -0.063396454, 0
411, 3700535797, 0.13630144, 0.6444507, -0.1427168, 0.7387543, -0.033850815, 0.21366553, -0.072711945, 0
412, 3700552464, 0.13617334, 0.6444439, -0.14278616, 0.7387703, -0.08362396, 0.33270797, 0.040794373, 0
413, 3700569131, 0.13607572, 0.6444377, -0.14282098, 0.73878706, -0.08181773, 0.5656319, 0.15076733, 0
414, 3700585798, 0.13602543, 0.64442354, -0.14286223, 0.73880076, -0.050019894, 0.53616756, 0.23939133, 0
415, 3700602465, 0.13598834, 0.6443779, -0.14293012, 0.73883426, 0.048069898, 0.46212164, 0.1532259, 0
416, 3700619132, 0.13591209, 0.64432925, -0.14299643, 0.7388779, 0.022959977, 0.32866797, 0.18302917, 0
417, 3700635799, 0.13584213, 0.64426947, -0.14309031, 0.73892474, -0.01945049, 0.3381766, 0.07287884, 0
418, 3700652466, 0.13576397, 0.6442236, -0.14321424, 0.7389549, -0.1078131, 0.3679597, -0.020008087, 0
419, 3700669133, 0.13571075, 0.6441838, -0.14332122, 0.7389787, -0.15354694, 0.40280795, -0.01771164, 0
420, 3700685800, 0.1356994, 0.6441494, -0.14338481, 0.7389985, -0.0946945, 0.4190464, -0.012727737, 0
421, 3700702467, 0.13570605, 0.6441095, -0.14342056, 0.7390251, -0.12173153, 0.44887593, 0.17303658, 0
422, 3700719134, 0.1357349, 0.64407706, -0.14344373, 0.7390436, -0.026035208, 0.37835842, 0.16377544, 0
423, 3700735801, 0.13576889, 0.6440422, -0.14346918, 0.7390628, 0.002108733, 0.31458643, 0.2526703, 0
424, 3700752468, 0.13583215, 0.64399016, -0.14347091, 0.73909616, 0.04409665, 0.34638608, 0.23145485, 0
425, 3700769135, 0.13591696, 0.6439268, -0.14343947, 0.7391419, 0.01977408, 0.4207737, 0.22317028, 0
426, 3700785802, 0.13603862, 0.64384747, -0.14339364, 0.73919755, -0.120855756, 0.5151697, 0.22757053, 0
427, 3700802469, 0.1361845, 0.64373595, -0.14334995, 0.7392762, -0.20336024, 0.4326892, 0.17446327, 0
428, 3700819136, 0.13632755, 0.6436415, -0.14325428, 0.7393506, -0.22497573, 0.08965451, -0.14254856, 0
429, 3700835803, 0.13647495, 0.6435791, -0.14312032, 0.7394038, -0.4406106, 0.07882263, -0.23159695, 0
430, 3700852470, 0.13657795, 0.6435301, -0.14302513, 0.7394456, -0.59771544, 0.19516626, -0.013700485, 0
431, 3700869137, 0.13667423, 0.6434581, -0.14298017, 0.73949933, -0.5608225, -0.005789321, 0.061902046, 0
432, 3700885804, 0.13674003, 0.6433808, -0.14289643, 0.73957056, -0.5905184, -0.20001158, 0.14730358, 0
433, 3700902471, 0.13677433, 0.6432513, -0.14283279, 0.7396891, -0.7627301, -0.10665256, 0.102846146, 0
434, 3700919138, 0.1367066, 0.6430857, -0.1429143, 0.73982996, -1.0624675, -0.075196244, 0.13451195, 0
435, 3700935805, 0.13651466, 0.64288235, -0.14318314, 0.7399901, -1.196482, -0.22786878, 0.07973766, 0
436, 3700952472, 0.13622013, 0.64263237, -0.14353809, 0.74019283, -1.2169114, -0.34427142, -0.02802658, 0
437, 3700969139, 0.13583831, 0.64235145, -0.14396599, 0.7404237, -1.3204395, -0.44465813, -0.22651482, 0
438, 3700985806, 0.13534819, 0.6420783, -0.14448717, 0.74064875, -1.4156712, -0.47103858, -0.49376583, 0
439, 3701002473, 0.13478506, 0.64183056, -0.14511648, 0.7408432, -1.641393, -0.41769767, -0.4604063, 0
440, 3701019140, 0.13412198, 0.64162695, -0.14581653, 0.7410023, -2.0771573, -0.31389567, -0.41982174, 0
441, 3701035807, 0.13339496, 0.6414355, -0.14650679, 0.74116313, -2.0175638, -0.73023504, -0.2779045, 0
442, 3701052474, 0.13271096, 0.6412674, -0.14704847, 0.7413242, -1.9351935, -1.0860604, -0.81233025, 0
443, 3701069141, 0.13204816, 0.6411039, -0.1476075, 0.74147284, -2.3266048, -0.61885655, -0.36961842, 0
444, 3701085808, 0.13134839, 0.6409275, -0.1483048, 0.7416103, -2.2382936, -0.3722054, 0.08221817, 0
445, 3701102475, 0.13065745, 0.6407099, -0.14896604, 0.74178785, -2.1309388, -0.75345427, 0.24049473, 0
446, 3701119142, 0.12998927, 0.64053595, -0.14946476, 0.7419553, -1.8463775, -0.52347237, -0.53836155, 0
447, 3701135809, 0.12933819, 0.64038914, -0.14992496, 0.74210274, -1.9821372, -0.45672, -0.12623215, 0
448, 3701152476, 0.12875137, 0.6401986, -0.15042488, 0.74226815, -2.0399203, -0.47376657, 0.18657875, 0
449, 3701169143, 0.12821187, 0.6400709, -0.15085721, 0.74238396, -1.9172896, -0.7033185, -0.7875757, 0
450, 3701185810, 0.12773116, 0.6400919, -0.15105653, 0.74240816, -1.7886504, -0.7660722, -1.2185345, 0
451, 3701202477, 0.12729159, 0.64017236, -0.15110719, 0.74240386, -2.0891902, -0.19686075, 0.22884369, 0
452, 3701219144, 0.12694073, 0.64021844, -0.15112168, 0.7424214, -1.257918, -0.32220185, -0.3573227, 0
453, 3701235811, 0.1266628, 0.64022005, -0.15105942, 0.74248, -0.7819358, -0.09949411, 0.3094921, 0
454, 3701252478, 0.12642553, 0.6402279, -0.15097494, 0.7425308, -1.3519324, 0.23022784, 0.62787724, 0
455, 3701269145, 0.12598464, 0.6404448, -0.15095198, 0.7424234, -2.4941385, 0.7032753, -1.8734512, 0
456, 3701285812, 0.12567782, 0.64067006, -0.15058321, 0.7423561, -1.2696874, -1.8644696, 0.7781639, 0
457, 3701302479, 0.12575017, 0.6407585, -0.1499828, 0.74238884, -2.0000098, -2.1008735, 0.88548946, 0
458, 3701319146, 0.12586313, 0.6409756, -0.14951017, 0.74227786, -2.0631557, -0.20916532, -1.3201351, 0
459, 3701335813, 0.12579241, 0.6411266, -0.14912648, 0.74223655, -2.8188808, 0.48501942, 0.15298176, 0
460, 3701352480, 0.12560646, 0.6411677, -0.14867449, 0.7423233, -3.0923233, -0.8941878, 0.1826973, 0
461, 3701369147, 0.12550572, 0.6413965, -0.14798848, 0.7422796, -2.517831, -1.8683956, -0.6977844, 0
462, 3701385814, 0.12569454, 0.6416605, -0.14715195, 0.7421858, -2.4663167, -1.1465347, -0.62161064, 0
463, 3701402481, 0.12593001, 0.6419413, -0.1463589, 0.74206, -3.200112, -0.22225185, -0.56459045, 0
464, 3701419148, 0.12610258, 0.6422888, -0.1455328, 0.7418922, -3.013764, -0.7179603, 0.18088245, 0
465, 3701435815, 0.12632214, 0.64262086, -0.144512, 0.74176705, -2.9347172, -1.1162992, -0.58391666, 0
466, 3701452482, 0.12669504, 0.642889, -0.14338738, 0.7416894, -3.4961276, -1.374658, -0.4481783, 0
467, 3701469149, 0.12717669, 0.643352, -0.14222287, 0.74142957, -4.7972856, -2.3445225, 0.3605175, 0
468, 3701485816, 0.1278507, 0.64405847, -0.14079463, 0.74097276, -3.1763918, -2.3187351, -0.9224186, 0
469, 3701502483, 0.1286608, 0.64464545, -0.13918537, 0.740626, -2.9146917, 0.3617996, -2.6464863, 0
470, 3701519150, 0.12931895, 0.6451241, -0.13779218, 0.7403551, -4.6544085, -0.67992073, 3.1696806, 0
471, 3701535817, 0.13008632, 0.64576066, -0.13621286, 0.73995787, -3.0854228, -1.8204089, -1.8606853, 0
472, 3701552484, 0.13106975, 0.64649314, -0.13427596, 0.73949856, -2.092646, -0.7918226, -2.3018236, 0
473, 3701569151, 0.13209572, 0.6472169, -0.13233657, 0.7390323, -3.7099326, -0.8372241, -1.140111, 0
474, 3701585818, 0.13317715, 0.6481021, -0.13040939, 0.73840487, -3.191262, -1.117025, -2.5573936, 0
475, 3701602485, 0.13434315, 0.6491173, -0.1283183, 0.7376679, -2.6755948, -1.4282565, -1.3499136, 0
476, 3701619152, 0.1356679, 0.6502902, -0.12598096, 0.73679465, -2.627919, -0.76180685, -1.2596006, 0
477, 3701635819, 0.1372292, 0.6515551, -0.123514324, 0.7358051, -2.0033276, 0.71294194, 0.076034546, 0
478, 3701652486, 0.13892119, 0.6527476, -0.1210362, 0.7348418, -1.1016515, 2.0419505, -0.5170784, 0
479, 3701669153, 0.14066508, 0.6538855, -0.118628025, 0.7338905, -0.6102729, 0.99866486, 1.0689764, 0
480, 3701685820, 0.14253503, 0.65504295, -0.11621733, 0.7328826, 0.1751541, -0.0462816, 0.37395573, 0
481, 3701702487, 0.14450496, 0.65602314, -0.11367023, 0.73201895, 0.91651666, -0.0046161013, 2.2874975, 0
482, 3701719154, 0.14651218, 0.65677375, -0.11103809, 0.73135066, 1.59906, 0.2663071, 2.7715168, 0
483, 3701735821, 0.14845239, 0.6573459, -0.10857828, 0.73081434, 1.8961987, 0.7866763, 0.9625969, 0
484, 3701752488, 0.15032487, 0.6576299, -0.106394306, 0.73049724, 1.5789776, 1.6515701, 1.7299528, 0
485, 3701769155, 0.15199637, 0.6577682, -0.104378074, 0.73031783, 1.1210939, 1.6204555, 0.48588943, 0
486, 3701785822, 0.15335713, 0.6580415, -0.102599636, 0.7300391, 0.4643442, 0.9159209, -0.61047745, 0
487, 3701802489, 0.15446553, 0.6583021, -0.10132304, 0.7297487, 0.43903437, 0.78581905, -1.3273335, 0
488, 3701819156, 0.15530309, 0.6585272, -0.1007151, 0.729452, -0.05419126, 0.6603882, 3.084794, 0
489, 3701835823, 0.15609664, 0.65858585, -0.100424424, 0.7292696, 2.3548975, 0.20694874, -0.23272705, 0
490, 3701852490, 0.15678984, 0.658439, -0.100493774, 0.729244, 1.5103086, 0.55779505, 0.57732964, 0
491, 3701869157, 0.15717994, 0.65806234, -0.10126822, 0.72939295, 0.6849189, 2.2727094, 0.3162918, 0
492, 3701885824, 0.1571124, 0.65750533, -0.102786124, 0.7296972, 0.4766234, 1.6126473, 1.0276699, 0
493, 3701902491, 0.15678513, 0.6570102, -0.10449086, 0.7299715, 1.2239695, 0.80409503, -0.046377182, 0
494, 3701919158, 0.15635668, 0.65656924, -0.1061776, 0.73021686, 1.404635, 0.7990942, -0.12524414, 0
495, 3701935825, 0.15600704, 0.65605617, -0.1080689, 0.7304751, 1.0367355, 1.7984488, 0.024691582, 0
496, 3701952492, 0.15568464, 0.65543723, -0.11024052, 0.7307752, 1.6806045, 1.560994, -0.19978046, 0
497, 3701969159, 0.1554921, 0.65486, -0.11216, 0.7310413, 1.6613618, 0.6924346, -0.3645439, 0
498, 3701985826, 0.1552119, 0.6543635, -0.11366573, 0.73131275, 1.4296271, 1.733702, 0.38053322, 0
499, 3702002493, 0.1548723, 0.65382326, -0.11510216, 0.73164326, 1.1688795, 1.7953596, -0.32824516, 0
500, 3702019160, 0.15461744, 0.65333, -0.116486564, 0.73191875, 1.2602407, 0.12476907, 0.7189865, 0
501, 3702035827, 0.1545473, 0.65303594, -0.117460236, 0.7320404, 1.1061318, -0.64379406, -0.6392021, 0
502, 3702052494, 0.15466608, 0.65281, -0.11804785, 0.7321223, 0.25183886, 0.89632654, -0.7183666, 0
503, 3702069161, 0.15471517, 0.65247965, -0.118757084, 0.7322917, -0.6967256, 1.3555887, 1.3826733, 0
504, 3702085828, 0.15467918, 0.6521631, -0.119504064, 0.73245966, 0.32551193, -0.12391715, -3.1661987E-4, 0
505, 3702102495, 0.1546368, 0.6520082, -0.119835705, 0.73255235, -0.16644146, -1.4573202, -0.18516922, 0
506, 3702119162, 0.15453237, 0.65194815, -0.1199439, 0.7326101, -0.24762587, -0.281855, -1.5792398, 0
507, 3702135829, 0.15432574, 0.6517086, -0.1202174, 0.73282194, -0.6311608, 0.18385796, 0.85651493, 0
508, 3702152496, 0.153936, 0.65149313, -0.12061949, 0.73302937, -0.59202296, -0.43268576, 0.17332077, 0
509, 3702169163, 0.15347104, 0.6512881, -0.12107524, 0.7332339, 0.08441484, -0.3782727, -0.30960083, 0
510, 3702185830, 0.15290314, 0.6511199, -0.12147337, 0.7334361, -0.68337184, -0.25820798, 1.0959864, 0
511, 3702202497, 0.15229689, 0.6509694, -0.121864796, 0.7336309, -0.3220323, 0.44887385, -0.916626, 0
512, 3702219164, 0.15174128, 0.65080243, -0.122203484, 0.73383796, -0.64858073, -0.14630632, 0.17061043, 0
513, 3702235831, 0.15126151, 0.650736, -0.122391805, 0.73396456, -0.2369432, -0.02376951, -0.38741207, 0
514, 3702252498, 0.1507364, 0.6506407, -0.12255567, 0.7341295, -0.8890109, 0.28114444, 0.60241413, 0
515, 3702269165, 0.15014844, 0.65052575, -0.12288606, 0.7342965, -0.48170584, 0.5968018, -0.610363, 0
516, 3702285832, 0.14963563, 0.6504178, -0.12327376, 0.734432, -0.82374775, -0.3275912, -0.20912361, 0
517, 3702302499, 0.1491452, 0.6504031, -0.12345597, 0.7345141, -0.7892759, -0.06266443, -0.023647308, 0
518, 3702319166, 0.148709, 0.6503227, -0.12357901, 0.73465306, -0.2656865, 0.413716, 0.34630585, 0
519, 3702335833, 0.14832291, 0.6501622, -0.12376431, 0.734842, -0.6370757, -0.43248957, -0.13655281, 0
520, 3702352500, 0.14793126, 0.65007055, -0.12398678, 0.7349645, -0.80917007, 0.04719532, -0.3171854, 0
521, 3702369167, 0.14745389, 0.64998925, -0.12422863, 0.73509145, -1.05775, -0.1950317, 0.55241394, 0
522, 3702385834, 0.14680687, 0.6500469, -0.124523655, 0.73511994, -1.0706825, -0.0830078, -0.039826393, 0
523, 3702402501, 0.14592832, 0.6501794, -0.124969885, 0.73510194, -1.134893, -0.24374445, -0.6295433, 0
524, 3702419168, 0.14482504, 0.65026486, -0.1255929, 0.73513865, -1.0919567, -1.1667104, 0.58121586, 0
525, 3702435835, 0.14366414, 0.6502728, -0.12618247, 0.73525816, -0.7814177, -1.4411943, -0.0071868896, 0
526, 3702452502, 0.14251347, 0.6502754, -0.12656802, 0.73541343, -0.6635232, -1.1652548, -0.11221218, 0
527, 3702469169, 0.14139847, 0.6501032, -0.12698437, 0.7357092, -0.103479385, -0.43527895, 0.2602358, 0
528, 3702485836, 0.1402858, 0.649831, -0.12765424, 0.7360467, -0.6836746, -0.55357283, 0.44389153, 0
529, 3702502503, 0.13910615, 0.6495647, -0.12823384, 0.7364047, 0.23886846, 0.36099756, 0.087729454, 0
530, 3702519170, 0.13782173, 0.6491587, -0.1286223, 0.73693645, -0.51880777, 0.19012883, 0.6296396, 0
531, 3702535837, 0.13646309, 0.64895993, -0.12895815, 0.7373056, -1.6172248, 0.20497468, -0.26685905, 0
532, 3702552504, 0.13502729, 0.6489773, -0.12930956, 0.737493, -1.3442198, 0.20509727, -1.5818644, 0
533, 3702569171, 0.1336663, 0.64904356, -0.1295215, 0.7376454, -1.5634121, -1.6141715, -0.2425232, 0
534, 3702585838, 0.13255271, 0.6490565, -0.12929718, 0.73787427, -1.2737077, -1.2389071, 0.8394804, 0
535, 3702602505, 0.13172854, 0.649007, -0.1285791, 0.7381907, -1.2296419, -0.9531203, -1.3007717, 0
536, 3702619172, 0.13116014, 0.64907455, -0.12763311, 0.73839694, -2.822605, -0.84722024, 0.2664032, 0
537, 3702635839, 0.13059461, 0.649293, -0.12672931, 0.73846066, -3.3074749, -0.73191106, -1.3937588, 0
538, 3702652506, 0.12989661, 0.64969474, -0.12578379, 0.7383921, -3.401035, -1.6268198, -0.7806988, 0
539, 3702669173, 0.12907149, 0.6502313, -0.12471782, 0.73824507, -2.8759959, -2.057038, -0.13667679, 0
540, 3702685840, 0.12830934, 0.650679, -0.123458266, 0.7381955, -2.5913987, -2.3364959, 0.60348225, 0
541, 3702702507, 0.12777102, 0.650975, -0.12199922, 0.73827034, -2.5445983, -1.7791426, -0.13534164, 0
542, 3702719174, 0.12743226, 0.6512288, -0.1205951, 0.7383357, -3.402, -0.8719188, -1.2253733, 0
543, 3702735841, 0.12707086, 0.65137833, -0.11939664, 0.7384609, -4.0470405, -0.5760819, 0.48269272, 0
544, 3702752508, 0.12661234, 0.65151334, -0.118229955, 0.7386084, -4.2499523, -1.5130202, 1.0733662, 0
545, 3702769175, 0.12625033, 0.6516386, -0.11699882, 0.7387557, -3.6305447, -1.5963889, -0.67028904, 0
546, 3702785842, 0.12607712, 0.6517981, -0.11585173, 0.7388253, -4.6004395, -1.5488183, -0.4898386, 0
547, 3702802509, 0.12618026, 0.6520572, -0.11483, 0.73873883, -4.742062, -0.883794, -1.2355909, 0
548, 3702819176, 0.12648092, 0.6520555, -0.11385313, 0.73884, -4.7373743, -0.19889781, -1.1258726, 0
549, 3702835843, 0.12689224, 0.65205574, -0.1129913, 0.7389016, -4.769604, -1.0260112, -3.5766253, 0
550, 3702852510, 0.12738658, 0.65200615, -0.11230208, 0.7389654, -4.047721, -0.35024804, -2.946692, 0
551, 3702869177, 0.12790231, 0.6518247, -0.11182581, 0.73910844, -4.601963, -1.175882, 3.4090462, 0
552, 3702885844, 0.1285824, 0.6521337, -0.11147395, 0.73877096, -4.522212, -3.483179, 4.3499384, 0
553, 3702902511, 0.1295352, 0.6524413, -0.11116043, 0.7383801, -0.3432342, 1.1318659, -3.2119155, 0
554, 3702919178, 0.13055073, 0.6521436, -0.11139046, 0.7384296, -1.5159265, 2.273432, 0.2385006, 0
555, 3702935845, 0.13169697, 0.65190727, -0.1119903, 0.73834425, -1.6346132, 2.7516, 0.19107723, 0
556, 3702952512, 0.13302355, 0.65171874, -0.1123043, 0.7382248, 1.7178546, 2.556087, -3.2950287, 0
557, 3702969179, 0.13468356, 0.65148723, -0.112103865, 0.7381587, 2.0596821, 2.8779073, -1.6925745, 0
558, 3702985846, 0.13659528, 0.6514213, -0.11163142, 0.7379371, 1.403571, 2.4271111, 1.0603695, 0
559, 3703002513, 0.13871363, 0.6518141, -0.1109388, 0.7372993, 2.5975118, 1.8435485, -2.768588, 0
560, 3703019180, 0.14105192, 0.6526185, -0.109920844, 0.7362959, 1.2281444, 2.2852118, -0.006723404, 0
561, 3703035847, 0.14337316, 0.653967, -0.1083622, 0.73488075, -0.0016943958, 1.7263849, 0.8047075, 0
562, 3703052514, 0.14602226, 0.65559304, -0.1058985, 0.73326784, 2.2984717, 1.7264078, -1.8082676, 0
563, 3703069181, 0.14913113, 0.6570685, -0.10273872, 0.73176944, 0.9675481, 0.49369988, 1.1792736, 0
564, 3703085848, 0.15241727, 0.65852207, -0.10013457, 0.73014486, 1.082529, 0.98187065, 2.9304523, 0
565, 3703102515, 0.15533541, 0.659486, -0.09864563, 0.7288613, 3.3351634, 0.8235441, 3.3498144, 0
566, 3703119182, 0.15752131, 0.65969354, -0.09759089, 0.72834635, 3.2329671, 0.4379306, 4.796834, 0
567, 3703135849, 0.15870386, 0.65965056, -0.09670201, 0.728247, 1.7130643, 1.5484928, 2.8761663, 0
568, 3703152516, 0.15921453, 0.6595043, -0.09668821, 0.72826993, 0.9673272, 1.310233, -2.0390449, 0
569, 3703169183, 0.15950845, 0.65943325, -0.097752914, 0.7281277, -0.4099167, 0.51163864, -1.3627195, 0
570, 3703185850, 0.15963069, 0.65963316, -0.0992322, 0.7277196, -0.729396, -0.3033406, -1.6874151, 0
571, 3703202517, 0.15973787, 0.65970385, -0.100485176, 0.7274602, 0.8267031, 0.5666154, -2.69212, 0
572, 3703219184, 0.15976267, 0.659203, -0.10164909, 0.72774696, 0.5824544, 2.09697, 0.6068382, 0
573, 3703235851, 0.15972927, 0.65847796, -0.10314971, 0.7281993, 0.66729313, 0.9433438, 3.5076208, 0
574, 3703252518, 0.15975805, 0.65766746, -0.104783624, 0.728692, 3.3515756, -0.1137135, 1.404357, 0
575, 3703269185, 0.15979147, 0.656779, -0.1059975, 0.7293102, 3.3340173, 0.6067252, 0.9141817, 0
576, 3703285852, 0.15955703, 0.6559622, -0.10715249, 0.7299275, 1.5910618, 1.7427788, 2.4825573, 0
577, 3703302519, 0.15912497, 0.6556034, -0.10824375, 0.7301832, 1.327758, 0.81584126, -2.0316467, 0
578, 3703319186, 0.1585972, 0.65555483, -0.1090309, 0.73022455, 1.3458554, 1.146932, -2.1062331, 0
579, 3703335853, 0.1581409, 0.6556364, -0.1096005, 0.730165, 0.5364188, 0.47622627, -0.18885612, 0
580, 3703352520, 0.15774843, 0.65583247, -0.10995686, 0.7300202, 1.434519, 0.49048886, 0.300704, 0
581, 3703369187, 0.15747227, 0.65587044, -0.11017157, 0.7300134, 1.6207268, 0.21412748, 0.05906868, 0
582, 3703385854, 0.1572296, 0.65581256, -0.11038907, 0.73008496, 0.38707498, -0.34541184, 0.874177, 0
583, 3703402521, 0.15698065, 0.6556772, -0.11042714, 0.7302542, 0.32969326, -0.04287621, -0.88469887, 0
584, 3703419188, 0.15673102, 0.6554557, -0.11039215, 0.7305119, 0.19394748, 0.17723036, 0.24636078, 0
585, 3703435855, 0.15645975, 0.6552555, -0.11045377, 0.73074013, -0.5187862, 0.28752282, 1.5338106, 0
586, 3703452522, 0.15607974, 0.65513295, -0.11043736, 0.7309339, -0.058150124, -0.34399146, -0.31052876, 0
587, 3703469189, 0.15572777, 0.6551613, -0.11033195, 0.73099923, -0.23267822, 0.4903344, -0.41092873, 0
588, 3703485856, 0.15524435, 0.6551591, -0.1104659, 0.731084, -1.0526772, 1.1422741, 0.6144695, 0
589, 3703502523, 0.15477388, 0.6551055, -0.11069867, 0.7311966, 0.32461458, 0.43275294, -0.54580784, 0
590, 3703519190, 0.15451516, 0.65483737, -0.11078498, 0.73147833, 0.38906908, 0.23470627, 0.0056705475, 0
591, 3703535857, 0.15429905, 0.6545664, -0.11082187, 0.73176074, -0.37604427, 0.9300025, 1.6510029, 0
592, 3703552524, 0.15401351, 0.65433246, -0.11127457, 0.7319614, 0.12618433, 0.8360666, -0.101986885, 0
593, 3703569191, 0.1537707, 0.653941, -0.11188866, 0.7322687, 1.4271615, 0.112264074, -0.25518513, 0
594, 3703585858, 0.15351418, 0.653435, -0.11218144, 0.7327292, 0.19005682, 0.5388202, 0.49069118, 0
595, 3703602525, 0.15326703, 0.6530896, -0.11232592, 0.7330668, -0.6479581, 0.9073985, -0.60665226, 0
596, 3703619192, 0.15303846, 0.6530502, -0.11249016, 0.73312455, -1.5065423, -0.014064777, -0.09089279, 0
597, 3703635859, 0.15292208, 0.65330386, -0.11269298, 0.73289144, -1.4244692, -0.40873083, -1.2323723, 0
598, 3703652526, 0.15292808, 0.6536614, -0.11268343, 0.73257285, -0.7435455, -0.554188, -0.33151817, 0
599, 3703669193, 0.1529588, 0.6540726, -0.11211814, 0.732286, -0.5764079, -0.8107748, 0.26406765, 0
600, 3703685860, 0.1530785, 0.654385, -0.11143258, 0.73208666, -0.4047596, -0.2764642, -1.2814989, 0
601, 3703702527, 0.15325217, 0.6545003, -0.110833034, 0.73203826, -0.76568073, 0.16518378, 0.249403, 0
602, 3703719194, 0.15342103, 0.6544184, -0.11017494, 0.73217535, -1.7214382, -0.39337778, 1.8032951, 0
603, 3703735861, 0.15364856, 0.6544796, -0.10919717, 0.73221946, -0.8662593, -1.0329962, -1.6852007, 0
604, 3703752528, 0.15399505, 0.6546815, -0.10796103, 0.73214936, -1.9476621, -0.97480124, 0.33899212, 0
605, 3703769195, 0.15441616, 0.6549728, -0.106873944, 0.7319599, -1.8587608, -0.49814668, 0.5582924, 0
606, 3703785862, 0.15477808, 0.6553004, -0.1059539, 0.73172385, -0.6817486, -0.38953173, -1.6960869, 0
607, 3703802529, 0.15504181, 0.6557844, -0.10485417, 0.7313926, -0.87819123, -0.29269892, 0.77528286, 0
608, 3703819196, 0.1553391, 0.65613353, -0.103585094, 0.73119724, -0.24317354, 0.8679241, -0.583231, 0
609, 3703835863, 0.15567733, 0.65621036, -0.102616176, 0.73119295, -1.0494769, 1.085148, 0.380867, 0
610, 3703852530, 0.1559489, 0.6562683, -0.102050334, 0.7311623, -2.084077, 0.11823958, -1.3887434, 0
611, 3703869197, 0.1562031, 0.6562994, -0.10167971, 0.73113185, -1.4753354, -0.16807023, -0.99814796, 0
612, 3703885864, 0.15656695, 0.6562169, -0.10140325, 0.73116654, -1.3400506, -0.11822232, 1.9407911, 0
613, 3703902531, 0.15719387, 0.65609485, -0.10144557, 0.7311357, -0.76428044, 0.15749729, 1.345478, 0
614, 3703919198, 0.15799984, 0.6558893, -0.101916626, 0.7310808, -0.26977763, 0.8852737, -0.9141264, 0
615, 3703935865, 0.15855041, 0.6557339, -0.10289374, 0.7309641, -1.8771548, 1.4640319, 1.1321936, 0
616, 3703952532, 0.15858856, 0.6556407, -0.10446848, 0.7308161, -2.3210618, 1.6779901, -1.9384804, 0
617, 3703969199, 0.15825035, 0.65546364, -0.10644044, 0.7307637, -1.834999, 1.0209126, 0.06357002, 0
618, 3703985866, 0.15794621, 0.65515935, -0.108223826, 0.73084044, -0.40959147, -0.5661455, -0.4517126, 0
619, 3704002533, 0.15796667, 0.6548523, -0.109645024, 0.73089933, 0.20881186, -0.5915103, 0.9152937, 0
620, 3704019200, 0.15831053, 0.65445125, -0.11077848, 0.73101324, -0.042632807, 0.19606613, 1.1872778, 0
621, 3704035867, 0.15875545, 0.65394294, -0.111777395, 0.73121953, -0.702023, 1.1883047, 0.16096401, 0
622, 3704052534, 0.1587648, 0.6536066, -0.11300483, 0.73132956, -4.1119037, 0.87531835, -1.0803661, 0
623, 3704069201, 0.15831229, 0.65343, -0.11445257, 0.73136026, -3.8617103, -0.78345084, -2.4035668, 0
624, 3704085868, 0.15777719, 0.6533739, -0.11565155, 0.7313375, -2.333052, -2.6328769, -0.41097927, 0
625, 3704102535, 0.15762813, 0.65345055, -0.116074696, 0.731234, -1.175963, -2.96712, 1.4332342, 0
626, 3704119202, 0.15803163, 0.6533704, -0.11595553, 0.73123753, -0.061220672, -1.885908, 0.80999374, 0
627, 3704135869, 0.15885837, 0.65301454, -0.11574127, 0.73141015, -1.5634389, -0.45763886, 3.0000277, 0
628, 3704152536, 0.15936123, 0.6525502, -0.115833774, 0.7317005, -3.8522668, 0.78176236, -2.109861, 0
629, 3704169203, 0.15905301, 0.65226376, -0.116372794, 0.7319372, -5.172, 0.55556446, -4.146941, 0
630, 3704185870, 0.15831135, 0.652095, -0.116831645, 0.73217535, -4.842214, -2.1238568, -1.5547142, 0
631, 3704202537, 0.15773226, 0.6522883, -0.11681062, 0.73213154, -4.1203594, -3.1586592, 2.6878176, 0
632, 3704219204, 0.15775794, 0.6525218, -0.11639394, 0.73198426, -0.78396887, -1.4145743, -0.8104086, 0
633, 3704235871, 0.15836433, 0.6522715, -0.11595747, 0.7321457, -0.060392138, 0.9148289, 1.2435131, 0
634, 3704252538, 0.15919133, 0.6519854, -0.115327746, 0.7323206, -1.3769288, -0.497321, 0.77737427, 0
635, 3704269205, 0.15968932, 0.65204656, -0.11476891, 0.73224545, -2.0652702, 0.49222112, -5.591939, 0
636, 3704285872, 0.1598009, 0.65209424, -0.11470269, 0.732189, -3.7334101, -1.4273628, -0.00554657, 0
637, 3704302539, 0.15988673, 0.6522882, -0.114800334, 0.73198223, -1.5780845, -1.4404824, -0.99124336, 0
638, 3704319206, 0.16026154, 0.6524361, -0.11496115, 0.7317432, 1.5080162, 1.9940321, 1.605483, 0
639, 3704335873, 0.1610098, 0.652675, -0.11525124, 0.7313202, 0.8343418, 3.7953873, -0.98751545, 0
640, 3704352540, 0.16198766, 0.6533531, -0.11536114, 0.7304808, 3.0426502, 4.3215175, -1.0026083, 0
641, 3704369207, 0.16352583, 0.65424687, -0.1150727, 0.7293828, 1.3981014, 2.2151465, -0.7578459, 0
642, 3704385874, 0.16538283, 0.65530384, -0.11466041, 0.72807914, 1.5071213, 4.3043437, -2.116612, 0
643, 3704402541, 0.16727622, 0.65628034, -0.11414331, 0.72684723, 0.5712374, 2.650719, 0.7287626, 0
644, 3704419208, 0.16926754, 0.6574398, -0.11370967, 0.7254049, 1.0832484, 1.0628369, 2.602954, 0
645, 3704435875, 0.17141551, 0.65831834, -0.11325802, 0.72417325, 1.9032819, 0.9740167, 2.4460793, 0
646, 3704452542, 0.17369157, 0.65886956, -0.11252463, 0.7232435, 1.0551533, 1.0774413, 3.8986044, 0
647, 3704469209, 0.17602178, 0.65924495, -0.11167239, 0.72246975, 1.3138521, 1.0277622, 0.90780926, 0
648, 3704485876, 0.17800584, 0.6593926, -0.1107502, 0.7219907, 0.8491438, 1.6702492, 0.8065033, 0
649, 3704502543, 0.17931458, 0.6594405, -0.11061618, 0.7216434, -0.33167586, 1.8150207, 0.7851286, 0
650, 3704519210, 0.18007472, 0.65914303, -0.11157441, 0.7215785, 2.6116235, 1.5221244, -1.750226, 0
651, 3704535877, 0.18048677, 0.6583305, -0.11334208, 0.7219419, 1.9147841, 1.3442868, 1.5560284, 0
652, 3704552544, 0.18060765, 0.65747315, -0.115921214, 0.72228307, 1.5344555, 1.6864187, 0.9281254, 0
653, 3704569211, 0.18061057, 0.6565002, -0.1190965, 0.72265077, 2.147046, 2.152354, -0.2904749, 0
654, 3704585878, 0.1805666, 0.65541655, -0.12269759, 0.72304285, 1.4332844, 2.7741358, -0.053442955, 0
655, 3704602545, 0.18024856, 0.65429014, -0.12656197, 0.7234762, 1.6713157, 3.0757887, 0.3710394, 0
656, 3704619212, 0.17984316, 0.65308696, -0.13035226, 0.723991, 2.8445764, 2.0654542, 0.19681358, 0
657, 3704635879, 0.179503, 0.6519464, -0.13376747, 0.7244804, 2.6415236, 1.2167146, 1.8640594, 0
658, 3704652546, 0.17934299, 0.6510057, -0.13687532, 0.7247852, 2.555066, 1.2107768, 0.9212265, 0
659, 3704669213, 0.17922446, 0.65025455, -0.13977017, 0.72493637, 2.1717768, 1.0540346, -0.75950813, 0
660, 3704685880, 0.17901397, 0.6494532, -0.14253803, 0.72516775, 1.6721579, 1.2857643, 1.4807873, 0
661, 3704702547, 0.17859547, 0.6488629, -0.1450648, 0.7252982, 0.96304065, -0.5585375, -1.0688038, 0
662, 3704719214, 0.17803118, 0.6483949, -0.1472366, 0.7254179, 1.7691708, -0.26939493, -2.1224952, 0
663, 3704735881, 0.1773898, 0.64788896, -0.14923346, 0.72561896, -0.19411506, -0.30269477, 1.3422079, 0
664, 3704752548, 0.17666137, 0.6476344, -0.151068, 0.72564435, -0.1197937, -1.0853838, 0.7330818, 0
665, 3704769215, 0.1760574, 0.6473926, -0.1523799, 0.7257327, 0.25431755, -0.9271939, -1.6809568, 0
666, 3704785882, 0.17541635, 0.64707357, -0.15325749, 0.7259875, -0.44325078, -0.13418622, -0.32160854, 0
667, 3704802549, 0.1747272, 0.64669293, -0.15401942, 0.72633153, -0.8744565, -0.71147144, 2.05836, 0
668, 3704819216, 0.17397124, 0.6464981, -0.15441343, 0.7266028, -1.2423177, -1.6422131, -0.46119022, 0
669, 3704835883, 0.17326881, 0.6465179, -0.15443474, 0.72674835, -0.25216985, -0.79821473, -1.7854824, 0
670, 3704852550, 0.17254978, 0.6466296, -0.15433806, 0.72684073, -1.9967673, -0.6033128, 0.7679634, 0
671, 3704869217, 0.17172207, 0.6468419, -0.15396605, 0.7269267, -0.03276184, -0.8017136, -1.158144, 0
672, 3704885884, 0.17095202, 0.6470288, -0.15339127, 0.7270633, -0.584705, -0.5776715, 0.90273094, 0
673, 3704902551, 0.17025329, 0.64722824, -0.15276064, 0.72718245, -0.10724909, -0.89106405, -0.2714653, 0
674, 3704919218, 0.16970026, 0.6473401, -0.15187156, 0.72739846, 0.7379766, -0.91162133, -1.9855895, 0
675, 3704935885, 0.16931455, 0.6473969, -0.15074372, 0.7276724, -0.8185733, -0.51733404, 0.2679186, 0
676, 3704952552, 0.16887231, 0.6476117, -0.14976391, 0.72778624, -1.4915912, 0.4777704, -0.07446098, 0
677, 3704969219, 0.16830276, 0.64785486, -0.14899245, 0.72786, -0.7792412, -0.13042066, -1.0693712, 0
678, 3704985886, 0.16765045, 0.64817184, -0.14827546, 0.7278748, -1.0201372, -0.906655, 2.5368643, 0
679, 3705002553, 0.16695032, 0.6484856, -0.14764273, 0.7278849, -1.4347264, -0.47140044, 1.3913126, 0
680, 3705019220, 0.16625421, 0.6488019, -0.14697851, 0.7278968, 0.4411764, -0.26151165, -1.5215893, 0
681, 3705035887, 0.16541122, 0.648992, -0.14691783, 0.7279316, -5.0730376, 1.8409888, 1.7970314, 0
682, 3705052554, 0.16459732, 0.64920807, -0.14761165, 0.727783, -0.2899875, -3.4370139, -3.1635947, 0
683, 3705069221, 0.16455455, 0.649627, -0.1457915, 0.7277858, 2.508426, -5.5991907, 0.886817, 0
684, 3705085888, 0.16446799, 0.6501038, -0.1428625, 0.7279605, -0.7977566, 3.6524956, 3.895526, 0
685, 3705102555, 0.16426158, 0.64985055, -0.1429604, 0.7282139, -0.43713933, 6.125271, -4.0448203, 0
686, 3705119222, 0.1637268, 0.6499669, -0.14335026, 0.7281539, 1.0174865, -3.020429, -0.7038393, 0
687, 3705135889, 0.16319056, 0.6503669, -0.14223802, 0.7281352, 0.34016386, -1.3455172, 1.3928099, 0
688, 3705152556, 0.1626702, 0.65067905, -0.14093809, 0.7282256, 0.51338214, 1.3236567, -1.0136099, 0
689, 3705169223, 0.16223438, 0.6505086, -0.14039642, 0.7285797, 1.3936248, 1.5676063, 1.4162331, 0
690, 3705185890, 0.16216354, 0.6500914, -0.14040935, 0.7289653, 1.494818, -1.4899355, 2.1608505, 0
691, 3705202557, 0.16206205, 0.649978, -0.13955376, 0.729253, 1.2109436, -1.1810539, -0.97863483, 0
692, 3705219224, 0.16165015, 0.6501335, -0.1380711, 0.72948796, 0.44439393, 1.7711484, -0.15562248, 0
693, 3705235891, 0.16102126, 0.65022266, -0.13738415, 0.7296774, -0.5783599, 1.1777434, 0.9666023, 0
694, 3705252558, 0.16044363, 0.6503837, -0.13702784, 0.729728, 1.2208669, -2.0125744, -1.085578, 0
695, 3705269225, 0.16014177, 0.65085584, -0.1357493, 0.7296124, 0.19731888, -1.5377485, 0.4195938, 0
696, 3705285892, 0.15977575, 0.6516606, -0.13388287, 0.72931904, -0.72589016, 1.8796903, -0.10121155, 0
697, 3705302559, 0.15948386, 0.6523261, -0.13237607, 0.72906303, -1.3661387, 1.1460639, -2.738205, 0
698, 3705319226, 0.15967816, 0.6526408, -0.13072391, 0.72903687, 2.016758, -1.3918273, -0.8479128, 0
699, 3705335893, 0.16017683, 0.65249366, -0.12805682, 0.72953236, 1.7132053, -1.474565, 2.9251595, 0
700, 3705352560, 0.16055742, 0.6523771, -0.1252376, 0.7300423, 0.2281509, 0.5078392, -0.021481514, 0
701, 3705369227, 0.16083348, 0.6523771, -0.12312524, 0.7303407, -0.587533, 0.92834455, -2.081726, 0
702, 3705385894, 0.16093561, 0.65281504, -0.12200454, 0.73011506, -1.4960111, 1.3239149, 0.550869, 0
703, 3705402561, 0.1609743, 0.65337825, -0.121206984, 0.72973543, 0.7509604, 0.6184922, -1.6255999, 0
704, 3705419228, 0.16101909, 0.6539255, -0.1200528, 0.7294261, 0.90732133, 0.6931598, 2.565256, 0
705, 3705435895, 0.16134843, 0.6539221, -0.11894451, 0.7295379, 1.8428195, 0.8044892, 1.0281134, 0
706, 3705452562, 0.16210517, 0.653529, -0.118264556, 0.72983295, 1.4503382, 1.6133643, -0.24154091, 0
707, 3705469229, 0.16293018, 0.6530573, -0.11802372, 0.73011017, -0.75651634, 1.4039435, 1.6125765, 0
708, 3705485896, 0.16350004, 0.652785, -0.11798601, 0.7302326, -0.70048505, 0.9772051, -0.77668667, 0
709, 3705502563, 0.16364902, 0.65271455, -0.11855103, 0.7301707, -1.1397705, 1.9839118, -0.05038929, 0
710, 3705519230, 0.16354597, 0.6525756, -0.11972849, 0.7301257, -0.75321776, 1.4404906, 0.31907082, 0
711, 3705535897, 0.16352245, 0.65237045, -0.12097506, 0.730109, -0.006798119, 0.41039494, 0.31734657, 0
712, 3705552564, 0.16371289, 0.6520919, -0.12182893, 0.7301732, 0.22829889, 0.350961, -0.52847576, 0
713, 3705569231, 0.16393343, 0.65169054, -0.12245993, 0.73037636, -0.45766425, 1.1803489, 1.0541258, 0
714, 3705585898, 0.16430631, 0.65114397, -0.12331283, 0.7306366, -0.88026714, 0.4394153, -1.3975039, 0
715, 3705602565, 0.16474794, 0.6506673, -0.12447305, 0.73076504, -1.2912285, 0.49331728, -0.046168327, 0
716, 3705619232, 0.16507874, 0.6501505, -0.12587568, 0.7309103, -1.7019545, 0.786987, -0.3427391, 0
717, 3705635899, 0.16515921, 0.6496751, -0.12743859, 0.73104376, -1.5666652, 0.36345318, -0.9014511, 0
718, 3705652566, 0.16524638, 0.64942783, -0.12911905, 0.73094875, -1.5639948, -0.06443465, -0.8734474, 0
719, 3705669233, 0.16550562, 0.6493754, -0.13094619, 0.7306116, -2.957807, 0.38447335, 0.09905815, 0
720, 3705685900, 0.1657726, 0.6494481, -0.132796, 0.7301524, -1.2309569, 1.1262101, -0.76319695, 0
721, 3705702567, 0.16604276, 0.64920276, -0.13443092, 0.7300101, -1.0293727, 0.15869486, 2.3580208, 0
722, 3705719234, 0.16622585, 0.6487801, -0.13591632, 0.7300693, -0.47150403, 0.46230644, 1.4415979, 0
723, 3705735901, 0.16621552, 0.6483473, -0.13747172, 0.7301647, -0.9547334, 0.27965444, -1.7098341, 0
724, 3705752568, 0.1658932, 0.64809054, -0.13960597, 0.730061, -1.6340019, 0.10704538, -1.7008886, 0
725, 3705769235, 0.16529618, 0.64798695, -0.14174548, 0.72987616, -1.2791762, -2.2032077, -0.17133713, 0
726, 3705785902, 0.16474847, 0.6481137, -0.14312464, 0.7296183, -0.43287745, -2.7145863, 0.5048065, 0
727, 3705802569, 0.16420051, 0.64807117, -0.14419082, 0.72956955, -1.5264881, 0.4442563, 0.7003031, 0
728, 3705819236, 0.16357169, 0.6479014, -0.14551932, 0.7295978, -0.84773624, 0.665844, -0.7655821, 0
729, 3705835903, 0.16304865, 0.6476116, -0.14669009, 0.72973764, -0.343227, -0.68714917, 1.1747484, 0
730, 3705852570, 0.16263418, 0.64737624, -0.14745161, 0.7298856, -0.7587665, 0.67934734, 0.017142296, 0
731, 3705869237, 0.16226281, 0.6473211, -0.14789484, 0.72992766, -0.85737646, 0.5866331, -1.6814709, 0
732, 3705885904, 0.16207407, 0.6475529, -0.14803846, 0.72973466, -0.36961922, -1.7487786, 1.0558949, 0
733, 3705902571, 0.16218865, 0.64796823, -0.14754805, 0.72943974, 0.61710745, -2.1045537, -0.17007446, 0
734, 3705919238, 0.16239281, 0.6483562, -0.14647883, 0.72926515, 1.404969, -0.1469967, -1.1769428, 0
735, 3705935905, 0.1627039, 0.64865017, -0.14528033, 0.72917426, 0.05623192, 0.7942023, 2.320033, 0
736, 3705952572, 0.16315041, 0.6491579, -0.14394827, 0.7288867, -0.73029184, 0.42801106, 0.0978775, 0
737, 3705969239, 0.16354875, 0.64988685, -0.14248326, 0.7284354, 0.085788175, 1.1088198, -1.7117615, 0
738, 3705985906, 0.16370964, 0.6505117, -0.14102024, 0.7281262, 0.30252257, 0.72058177, -0.06910801, 0
739, 3706002573, 0.16391286, 0.65107197, -0.13939951, 0.7278917, 1.5371642, -0.93246084, 0.029732704, 0
740, 3706019240, 0.16458805, 0.65162927, -0.13741367, 0.72761834, -0.17636237, -1.7710558, 2.6520777, 0
741, 3706035907, 0.16585483, 0.6522518, -0.13515085, 0.72719663, -0.0986379, 0.20970148, 0.40065002, 0
742, 3706052574, 0.16745435, 0.65293896, -0.13296527, 0.72661614, -1.0985975, 1.4186382, 0.18105602, 0
743, 3706069241, 0.16905922, 0.6537409, -0.13061866, 0.72594845, -1.3513317, 2.0227475, -0.24948311, 0
744, 3706085908, 0.17064093, 0.65435606, -0.12856147, 0.72539127, 0.69677716, 3.3757348, -0.38120842, 0
745, 3706102575, 0.17241003, 0.65451366, -0.12712318, 0.72508407, 0.4529577, 2.425443, -0.1616478, 0
746, 3706119242, 0.17431438, 0.6545872, -0.12589322, 0.72477704, 1.0431998, 1.5024681, 0.46764374, 0
747, 3706135909, 0.17639941, 0.6547123, -0.12478702, 0.7243506, 0.3699923, 1.592136, 0.642457, 0
748, 3706152576, 0.1784946, 0.6548951, -0.12409061, 0.7237916, -1.2187641, 2.4632256, 1.5076523, 0
749, 3706169243, 0.18052258, 0.65488756, -0.12404932, 0.7233024, -1.0536426, 2.4585342, -0.45439816, 0
750, 3706185910, 0.18262738, 0.6546895, -0.1248254, 0.72281975, -1.0473386, 2.0086267, 0.82533836, 0
751, 3706202577, 0.18467708, 0.65437746, -0.1260561, 0.7223678, -1.9016777, 1.8965311, -0.4319334, 0
752, 3706219244, 0.18659124, 0.65412587, -0.12782271, 0.72179294, -0.5202129, 2.2630143, -2.8299398, 0
753, 3706235911, 0.18847346, 0.6536334, -0.13016789, 0.7213308, -1.4366742, 2.3269086, 1.8003931, 0
754, 3706252578, 0.19020034, 0.65289706, -0.13299845, 0.7210281, -1.8131294, 2.4578893, -0.22477913, 0
755, 3706269245, 0.19164333, 0.6521061, -0.13611338, 0.72078043, -2.0154583, 0.29192686, -1.1730261, 0
756, 3706285912, 0.19300897, 0.65144444, -0.13895148, 0.72047275, -3.0734386, -2.4959538, -1.9061165, 0
757, 3706302579, 0.19402769, 0.65121526, -0.1418468, 0.71984184, -5.026917, 0.24043311, -1.5218687, 0
758, 3706319246, 0.19451384, 0.65080446, -0.14524806, 0.7194036, -3.3686948, 1.0906483, 1.4478741, 0
759, 3706335913, 0.19468573, 0.6501905, -0.14841093, 0.7192669, -1.7133875, -1.3031402, 1.1715984, 0
760, 3706352580, 0.1946769, 0.64977294, -0.15067714, 0.7191753, -0.42602465, -2.3355381, 1.1447182, 0
761, 3706369247, 0.19477761, 0.6495013, -0.15201318, 0.71911216, -0.8290991, -3.071255, 2.3553333, 0
762, 3706385914, 0.19498862, 0.649461, -0.15261921, 0.71896315, -1.2570815, -2.6448696, -2.7045126, 0
763, 3706402581, 0.19506928, 0.6496776, -0.15271236, 0.7187257, -1.5205834, -2.1375203, -1.9312177, 0
764, 3706419248, 0.19478345, 0.65049654, -0.1524581, 0.7181163, -2.945082, -3.0945945, 0.41928196, 0
765, 3706435915, 0.19380459, 0.6516469, -0.15205225, 0.71742374, 1.7889948, -1.8596226, -3.8967247, 0
766, 3706452582, 0.19256538, 0.652073, -0.15173624, 0.7174372, 2.3468726, -1.6075271, -1.8203025, 0
767, 3706469249, 0.19074033, 0.65211165, -0.15221408, 0.71778834, 0.410236, -2.2828276, -1.3869276, 0
768, 3706485916, 0.18824062, 0.6521288, -0.15335728, 0.7181892, -2.2308083, -2.9192739, -0.75311184, 0
769, 3706502583, 0.18506467, 0.6526532, -0.15443626, 0.7183071, -5.718122, -6.622298, 1.1657381, 0
770, 3706519250, 0.18176958, 0.65372556, -0.15487775, 0.7180783, -2.9928765, -5.6100526, 2.07065, 0
771, 3706535917, 0.1786923, 0.6544009, -0.15534174, 0.71813536, -2.499751, -1.6071806, 2.4984035, 0
772, 3706552584, 0.17584586, 0.65472656, -0.15589365, 0.71842134, -1.3086301, 0.5838672, 3.3950968, 0
773, 3706569251, 0.17357185, 0.6552417, -0.15517826, 0.7186595, 0.45333737, -0.19271074, 1.6826105, 0
774, 3706585918, 0.17178789, 0.6562054, -0.15244141, 0.71879464, 4.196956, 0.28745645, 1.4363136, 0
775, 3706602585, 0.17033727, 0.6572364, -0.14884451, 0.71895176, 5.561698, 0.9947784, 1.9044409, 0
776, 3706619252, 0.16914374, 0.6579342, -0.1458043, 0.71921813, 7.471529, 0.9401039, 0.60443306, 0
777, 3706635919, 0.16816011, 0.6582805, -0.14287284, 0.7197201, 7.7976966, -0.32516295, 0.9326973, 0
778, 3706652586, 0.16755816, 0.65892726, -0.13949618, 0.719931, 6.480842, 0.51168466, -0.50354195, 0
779, 3706669253, 0.1673303, 0.6598027, -0.1356284, 0.71992123, 5.5928254, 4.345638, 1.1987267, 0
780, 3706685920, 0.16740364, 0.66038567, -0.13215002, 0.7200166, 4.098377, 5.186808, 0.18935299, 0
781, 3706702587, 0.16801457, 0.6607829, -0.12926295, 0.72003424, 4.102809, 4.1549706, 0.7315426, 0
782, 3706719254, 0.16888472, 0.6611013, -0.12625876, 0.7200714, 3.0427864, 2.6315544, -1.4705906, 0
783, 3706735921, 0.16989751, 0.66181695, -0.12365498, 0.7196273, 1.1686491, 2.9652467, -0.6897564, 0
784, 3706752588, 0.17096329, 0.6626894, -0.12221132, 0.7188182, -0.19839357, 3.557355, -0.8603611, 0
785, 3706769255, 0.17214373, 0.6634858, -0.1213889, 0.71794057, 1.3232269, 2.8142354, -0.3336439, 0
786, 3706785922, 0.1736229, 0.6639032, -0.12047359, 0.7173524, 2.5802531, 1.7535582, 0.5149393, 0
787, 3706802589, 0.17529966, 0.6640916, -0.119513676, 0.7169306, 1.6349556, 1.5551133, 0.5060425, 0
788, 3706819256, 0.17706287, 0.6642844, -0.11898458, 0.71640664, 0.19191295, 1.6837175, 0.26872635, 0
789, 3706835923, 0.17870128, 0.66433007, -0.11912596, 0.7159339, -0.614554, 1.6478466, 0.8424187, 0
790, 3706852590, 0.17999303, 0.66447186, -0.11984028, 0.7153591, -1.5137413, 1.5912031, 0.9658518, 0
791, 3706869257, 0.18097332, 0.6645146, -0.12083426, 0.7149047, -0.641084, 1.8204395, -0.6950846, 0
792, 3706885924, 0.18185398, 0.66409063, -0.12224619, 0.71483535, 0.54123586, 1.4118563, -1.3452082, 0
793, 3706902591, 0.18282735, 0.6633687, -0.12407458, 0.7149422, -0.31030777, 0.39410883, 0.19352722, 0
794, 3706919258, 0.18374681, 0.66278744, -0.12590116, 0.7149263, -0.5428331, -0.031080203, 0.12574768, 0
795, 3706935925, 0.1845803, 0.66218734, -0.1274589, 0.7149918, -0.18023713, 0.9405945, 0.38428783, 0
796, 3706952592, 0.18520638, 0.661797, -0.12914063, 0.7148894, -1.4156523, 1.3227698, 1.4510317, 0
797, 3706969259, 0.18574025, 0.6614022, -0.13122119, 0.71473724, -0.40922332, 1.4224418, -1.3838949, 0
798, 3706985926, 0.1863034, 0.66089004, -0.13343783, 0.71465397, -6.988691E-4, 0.43299606, 0.39423084, 0
799, 3707002593, 0.18688047, 0.660362, -0.13519883, 0.7146606, 0.018082999, 0.3681067, -1.200901, 0
800, 3707019260, 0.18742831, 0.659982, -0.1367384, 0.71457523, 0.10980127, 1.3797219, 0.676157, 0
801, 3707035927, 0.18802641, 0.65970975, -0.1386003, 0.7143107, -0.8991021, 0.6513883, -0.27362442, 0
802, 3707052594, 0.1887759, 0.6594221, -0.14036201, 0.7140346, 0.9109921, 0.23067202, -0.116910934, 0
803, 3707069261, 0.18962419, 0.6589238, -0.14163226, 0.7140191, 1.0353224, 0.3315005, 1.280858, 0
804, 3707085928, 0.1903849, 0.65852964, -0.1424875, 0.7140101, 0.176935, 0.5733454, 1.5105133, 0
805, 3707102595, 0.19109732, 0.65819544, -0.14331743, 0.71396184, 0.15021147, 0.8236857, 0.105075836, 0
806, 3707119262, 0.19169608, 0.65800405, -0.14431885, 0.713776, -0.28985435, 1.0375942, -0.7437563, 0
807, 3707135929, 0.19222894, 0.6577509, -0.14548495, 0.71362925, -1.2013476, 0.7792175, -0.42873955, 0
808, 3707152596, 0.19263089, 0.65767914, -0.1465973, 0.71335936, -0.4193983, -0.07763471, -0.58409595, 0
809, 3707169263, 0.1931878, 0.6574357, -0.14762366, 0.7132214, -0.13160692, 0.46937096, 1.0078068, 0
810, 3707185930, 0.1938293, 0.65702355, -0.1488353, 0.7131755, -0.0015557898, 0.9370142, -0.48680592, 0
811, 3707202597, 0.19446273, 0.6565504, -0.14999242, 0.71319616, 0.6090255, 0.3462303, -0.22122192, 0
812, 3707219264, 0.19509292, 0.6563132, -0.15094373, 0.7130417, -1.5501318, -0.17144963, -0.5547848, 0
813, 3707235931, 0.19568405, 0.65630376, -0.15198177, 0.7126678, -0.66841954, 1.4038358, -1.7116203, 0
814, 3707252598, 0.19628415, 0.655996, -0.1532219, 0.71252054, -0.26119792, 1.3643955, 1.2048912, 0
815, 3707269265, 0.19678369, 0.65567476, -0.15452068, 0.71239793, -0.7579076, 0.6903343, 0.16114044, 0
816, 3707285932, 0.19723094, 0.65536726, -0.1555825, 0.71232605, -0.0446579, 0.3157143, -1.2630024, 0
817, 3707302599, 0.1977081, 0.6550572, -0.15646537, 0.71228576, -0.6853524, -0.14949888, 1.0098457, 0
818, 3707319266, 0.1982488, 0.6548077, -0.15765503, 0.71210253, -0.64632744, 0.3176976, 1.6624079, 0
819, 3707335933, 0.19885445, 0.65456694, -0.15897858, 0.7118608, -0.69924515, 0.904571, -1.1377611, 0
820, 3707352600, 0.19938034, 0.65439296, -0.15999174, 0.71164656, -0.30644464, 0.40582123, 0.70944595, 0
821, 3707369267, 0.19990021, 0.65422547, -0.16089872, 0.7114502, -0.34230214, 0.8146647, -0.84085846, 0
822, 3707385934, 0.20048575, 0.6539268, -0.16207881, 0.7112921, 0.065385416, 0.41169444, 0.61420345, 0
823, 3707402601, 0.20111817, 0.65357375, -0.16325644, 0.7111688, 0.23161145, 0.15305999, -0.31423473, 0
824, 3707419268, 0.20168728, 0.6532597, -0.16411094, 0.71109957, -0.08685897, 0.057621926, -0.369442, 0
825, 3707435935, 0.2022192, 0.65312403, -0.16466862, 0.71094406, -0.49396548, 0.33457354, 1.2068233, 0
826, 3707452602, 0.20280969, 0.65300107, -0.16527706, 0.7107477, -0.3046026, 0.63208616, -0.16839123, 0
827, 3707469269, 0.20352533, 0.6526674, -0.16597871, 0.7106858, 1.078134, 0.66018647, -1.8948898, 0
828, 3707485936, 0.2041735, 0.6523075, -0.16649391, 0.71071005, -0.3056186, -0.32511222, 3.3692093, 0
829, 3707502603, 0.20474645, 0.6522051, -0.16662273, 0.7106089, -0.5026056, -0.029959006, -1.0455732, 0
830, 3707519270, 0.2053147, 0.65237635, -0.16690639, 0.71022105, -0.2442877, 1.0578051, -0.8818512, 0
831, 3707535937, 0.20590362, 0.65245384, -0.16738541, 0.7098665, -0.32769653, 0.12891753, 1.1162977, 0
832, 3707552604, 0.20648351, 0.65249705, -0.16771862, 0.7095798, 1.199612, 0.4832624, -2.2079616, 0
833, 3707569271, 0.2070151, 0.6523976, -0.16783911, 0.70948786, 0.12134401, 0.5587076, 1.31674, 0
834, 3707585938, 0.20760158, 0.65212226, -0.16811746, 0.7095037, 0.70918936, 0.73165095, -1.3671131, 0
835, 3707602605, 0.20826314, 0.6517645, -0.16862388, 0.7095185, 0.3135026, 0.30410954, -0.039162636, 0
836, 3707619272, 0.2088844, 0.6516009, -0.16901675, 0.7093925, -1.0414305, 0.4210476, 2.120019, 0
837, 3707635939, 0.20947924, 0.6516651, -0.1692665, 0.7090984, 0.01681995, 1.0605671, 0.18126106, 0
838, 3707652606, 0.21012533, 0.6517424, -0.16957527, 0.70876235, -0.7212775, 1.0280544, 0.76894283, 0
839, 3707669273, 0.21068713, 0.6520084, -0.16996191, 0.70825815, 0.21123645, 0.38738802, -1.2657118, 0
840, 3707685940, 0.21147421, 0.6521729, -0.17013313, 0.7078309, 0.684394, -0.1475431, -1.1971722, 0
841, 3707702607, 0.21230698, 0.6523201, -0.17010051, 0.7074537, -0.11635027, 0.53902143, 2.358859, 0
842, 3707719274, 0.2132763, 0.6522392, -0.17025581, 0.70719934, 0.20467193, 1.314599, -0.13280869, 0
843, 3707735941, 0.21427256, 0.65212065, -0.17059624, 0.7069255, -0.0709303, 0.7928649, 0.06612873, 0
844, 3707752608, 0.21530196, 0.6521355, -0.17063205, 0.7065904, -1.0866019, -0.096976295, -0.2681961, 0
845, 3707769275, 0.21631691, 0.6523377, -0.17033789, 0.7061645, -1.1718364, 0.58210534, -2.1309123, 0
846, 3707785942, 0.2173534, 0.65228474, -0.17044112, 0.70587015, -1.2534188, 0.5389226, 0.19775581, 0
847, 3707802609, 0.21846992, 0.6519873, -0.17088398, 0.705693, -0.877156, -0.24961782, 0.14308548, 0
848, 3707819276, 0.21945913, 0.6517204, -0.171045, 0.70559365, -1.0987542, 0.30662787, 1.0802956, 0
849, 3707835943, 0.22028352, 0.65156066, -0.17114234, 0.70546067, -1.1384653, 0.48523778, 0.7589512, 0
850, 3707852610, 0.22119403, 0.6513067, -0.17138112, 0.7053525, -0.3004889, 0.20929189, -0.42003632, 0
851, 3707869277, 0.2221882, 0.65119463, -0.1714674, 0.70512235, -1.1482054, -0.7470099, 0.45688152, 0
852, 3707885944, 0.22316168, 0.6514461, -0.17138031, 0.7046037, -3.3343227, -0.37002212, 1.2247934, 0
853, 3707902611, 0.22400482, 0.6520136, -0.17149729, 0.7037823, -3.452421, 0.29369766, -2.3536186, 0
854, 3707919278, 0.22469667, 0.65259486, -0.17192951, 0.7029172, -2.7936182, 0.34327337, 0.87175655, 0
855, 3707935945, 0.22559185, 0.65234196, -0.17224488, 0.7027879, -1.3460842, -0.14608572, 1.3620882, 0
856, 3707952612, 0.22646499, 0.6520295, -0.17227092, 0.70279056, -0.7138389, -0.37693274, 0.30672646, 0
857, 3707969279, 0.22742918, 0.6519158, -0.17208302, 0.7026308, -4.3871813, -1.0220261, 2.911951, 0
858, 3707985946, 0.22855827, 0.65195626, -0.17184776, 0.7022845, -2.5283642, -0.19288428, -5.6037626, 0
859, 3708002613, 0.22958328, 0.65223414, -0.17147593, 0.70178276, -3.8889494, -1.4569607, -3.66677, 0
860, 3708019280, 0.23056261, 0.65281546, -0.1711815, 0.70099264, -6.646085, -1.0488435, -0.37896252, 0
861, 3708035947, 0.23161401, 0.6533838, -0.1706824, 0.7002377, -4.005535, -1.0213577, 0.17634964, 0
862, 3708052614, 0.23295444, 0.6540257, -0.16919488, 0.6995545, -1.5164137, -1.5725577, -2.3404393, 0
863, 3708069281, 0.2347131, 0.65499216, -0.16678321, 0.69864106, -4.032911, -1.247247, 5.6064844, 0
864, 3708085948, 0.23666623, 0.65620965, -0.16346034, 0.69762427, -3.0260365, -1.643792, 0.49693108, 0
865, 3708102615, 0.23878616, 0.6574327, -0.15958196, 0.6966476, -0.13815182, -2.4526234, -0.23785496, 0
866, 3708119282, 0.24059835, 0.6586787, -0.15573853, 0.6957162, -3.268664, -2.3696344, -0.6299181, 0
867, 3708135949, 0.24146408, 0.6602602, -0.15281078, 0.69456536, -2.0908492, -2.9115925, -5.782108, 0
868, 3708152616, 0.24145329, 0.6616103, -0.15076497, 0.69373107, -3.6137285, -3.724193, 0.36016464, 0
869, 3708169283, 0.24082999, 0.66285545, -0.14975005, 0.6929786, -2.5426958, -1.9396002, -3.3285441, 0
870, 3708185950, 0.24002682, 0.663781, -0.1502592, 0.6922608, -2.7574706, 1.8129662, -1.9192672, 0
871, 3708202617, 0.23934563, 0.66435176, -0.15171054, 0.69163233, -3.4942198, 2.2379215, 1.0548964, 0
872, 3708219284, 0.23889282, 0.66511756, -0.15324728, 0.69071347, -2.638489, 0.65558815, 4.7073355, 0
873, 3708235951, 0.23889692, 0.66602266, -0.1544657, 0.68956745, -0.006981511, 0.6776098, 0.11220837, 0
874, 3708252618, 0.23937975, 0.6667699, -0.15546201, 0.6884531, 1.4692769, 2.7989447, 1.7251635, 0
875, 3708269285, 0.23997495, 0.6675518, -0.15681085, 0.687181, 1.8136997, 6.9689703, 1.7200775, 0
876, 3708285952, 0.24073294, 0.66775537, -0.15904674, 0.68620366, 6.081416, 8.578957, 3.2627745, 0
877, 3708302619, 0.24194083, 0.66694164, -0.1614523, 0.6860082, 8.906441, 5.502127, 3.2762222, 0
878, 3708319286, 0.24330814, 0.66598773, -0.16391939, 0.6858663, 7.6622458, 2.0783558, 2.964694, 0
879, 3708335953, 0.24477905, 0.6653759, -0.16674553, 0.6852553, 6.6345057, 1.208593, -1.0249271, 0
880, 3708352620, 0.24655837, 0.66516054, -0.16985741, 0.68406105, 6.1550303, 3.909092, -1.3378153, 0
881, 3708369287, 0.24874803, 0.6645728, -0.17294635, 0.6830649, 6.367927, 6.35364, -1.1398401, 0
882, 3708385954, 0.25100404, 0.6634715, -0.17618215, 0.6824831, 4.7579722, 6.6958175, 1.2781038, 0
883, 3708402621, 0.25306016, 0.6620407, -0.17968616, 0.6821996, 3.624606, 4.3319325, 1.0146322, 0
884, 3708419288, 0.25492644, 0.6603912, -0.18326806, 0.68215066, 3.0350544, 1.0034424, 0.12279701, 0
885, 3708435955, 0.25672844, 0.6588178, -0.18727876, 0.6819071, 1.2975162, 0.86575645, 0.88408375, 0
886, 3708452622, 0.25816464, 0.65738565, -0.19177324, 0.68149745, 1.8873178, 2.5497305, -1.6139584, 0
887, 3708469289, 0.25937113, 0.65558445, -0.19695204, 0.6812975, 3.19733, 2.423006, -0.2610731, 0
888, 3708485956, 0.26042894, 0.65378165, -0.20218518, 0.6810936, 1.835472, 0.7713184, 0.73269844, 0
889, 3708502623, 0.26135147, 0.65244293, -0.20681107, 0.68063486, 1.6594908, -0.17097501, 1.0861416, 0
890, 3708519290, 0.26229948, 0.65126634, -0.21123934, 0.68003666, 0.5120532, 0.6996243, -0.19988823, 0
891, 3708535957, 0.26315045, 0.6498828, -0.21596953, 0.6795457, 0.3653573, 1.0891471, -0.16980553, 0
892, 3708552624, 0.26362604, 0.648411, -0.22046421, 0.6793238, 0.23960005, 0.2610941, -0.32370567, 0
893, 3708569291, 0.26365495, 0.6471496, -0.22426376, 0.67927164, 0.49025238, -0.7148516, 0.03974819, 0
894, 3708585958, 0.2635352, 0.64592606, -0.22720638, 0.6795049, 0.8192112, -0.9828801, -1.119792, 0
895, 3708602625, 0.2634904, 0.6449378, -0.22907805, 0.67983234, 1.4403177, -2.4398823, -0.7079601, 0
896, 3708619292, 0.26381853, 0.6442389, -0.23001853, 0.68005013, 0.54853237, -2.7386358, 0.755352, 0
897, 3708635959, 0.26423845, 0.6440654, -0.23039006, 0.6799258, 0.49071544, -1.2373165, 0.7096214, 0
898, 3708652626, 0.26441216, 0.64411, -0.23047403, 0.67978746, -0.05065205, -0.02742655, 0.765893, 0
899, 3708669293, 0.26425645, 0.6441152, -0.23091395, 0.6796938, -0.16681257, 0.10563362, 0.57191753, 0
900, 3708685960, 0.26378468, 0.6441343, -0.23171884, 0.6795851, -0.25214958, -0.8509916, -0.6454649, 0
901, 3708702627, 0.26322803, 0.64417416, -0.23253949, 0.6794828, 0.91957814, -1.7042351, -1.0566435, 0
902, 3708719294, 0.262763, 0.6441552, -0.23303676, 0.6795103, 0.74151134, -0.59721494, 0.007715225, 0
903, 3708735961, 0.2621388, 0.64428014, -0.23353826, 0.67946076, -0.22299765, 1.3174852, 0.8222017, 0
904, 3708752628, 0.26137877, 0.64429057, -0.23451099, 0.6794088, -0.081612885, 1.6279488, -0.30988598, 0
905, 3708769295, 0.26063082, 0.6439671, -0.23587176, 0.67953163, 0.9644735, 0.5775249, -1.1674623, 0
906, 3708785962, 0.25986102, 0.6432973, -0.23775557, 0.67980427, 1.2661328, 1.4897615, 0.05624199, 0
907, 3708802629, 0.25896627, 0.6423742, -0.24015099, 0.68017656, 1.1595031, 1.0015254, 0.7959528, 0
908, 3708819296, 0.25812188, 0.6413446, -0.24255733, 0.6806151, 1.4953638, 0.33677173, 2.0948372, 0
909, 3708835963, 0.25734833, 0.64037526, -0.24467799, 0.68106157, 0.49262363, 0.1315348, 1.0436411, 0
910, 3708852630, 0.2566327, 0.63959545, -0.24666862, 0.6813462, 0.14776157, -0.19260342, 0.16850471, 0
911, 3708869297, 0.25604695, 0.6390272, -0.24841924, 0.68146366, -0.4679518, -0.9669531, -1.4730568, 0
912, 3708885964, 0.25547776, 0.6386882, -0.2497397, 0.6815126, -0.21723203, -0.4182733, -0.40237617, 0
913, 3708902631, 0.25459582, 0.6385775, -0.25099134, 0.6814864, -1.1142753, 0.50635016, -0.09490013, 0
914, 3708919298, 0.2533574, 0.6385371, -0.25254384, 0.6814124, -0.5525407, -0.44573227, -0.72143745, 0
915, 3708935965, 0.25202036, 0.63823295, -0.25394145, 0.6816735, 1.2583491, -2.8469667, -0.60054874, 0
916, 3708952632, 0.25067043, 0.63794893, -0.25478366, 0.6821227, 0.67567235, -3.0337, 1.2658949, 0
917, 3708969299, 0.24920332, 0.6378679, -0.25533563, 0.6825297, 0.27254072, -1.1665334, 0.3191576, 0
918, 3708985966, 0.24773055, 0.6376886, -0.25613618, 0.68293333, 0.093941145, -0.68417984, -0.28987122, 0
919, 3709002633, 0.246176, 0.63738066, -0.2567002, 0.6835709, 1.5533854, -1.7718844, -0.93099594, 0
920, 3709019300, 0.24452399, 0.63712215, -0.2568175, 0.68436027, 1.2742039, -0.95421624, 1.0227613, 0
921, 3709035967, 0.24271438, 0.63704664, -0.25687, 0.6850548, 0.6319014, 0.22533448, 1.4403839, 0
922, 3709052634, 0.24094358, 0.63720226, -0.25679848, 0.68556166, 1.0704645, -1.0076865, 0.82773113, 0
923, 3709069301, 0.23950525, 0.637785, -0.2561264, 0.68577516, 1.7743095, -2.4431794, -0.016429901, 0
924, 3709085968, 0.23846151, 0.6385673, -0.25463575, 0.6859659, 3.0813568, -1.1399966, -1.9716425, 0
925, 3709102635, 0.2378332, 0.6391338, -0.2528541, 0.68631554, 2.3886864, 0.3961323, -1.0826998, 0
926, 3709119302, 0.2374339, 0.6393674, -0.25132528, 0.6867975, 1.7861809, 1.2239281, -0.8251314, 0
927, 3709135969, 0.23705563, 0.6396138, -0.24998148, 0.68718916, 0.37946033, 0.41942802, 1.0438013, 0
928, 3709152636, 0.23644975, 0.64044577, -0.24836111, 0.68721056, -1.2179152, -0.48834664, 1.5249052, 0
929, 3709169303, 0.23575686, 0.6416989, -0.24678421, 0.6868476, -0.071498655, -0.27299583, 1.0558653, 0
930, 3709185970, 0.23525777, 0.64284754, -0.24557106, 0.6863792, 0.63945526, -0.45525676, 0.39893818, 0
931, 3709202637, 0.23504075, 0.6436343, -0.24453889, 0.6860846, 2.000435, -0.83912754, 0.057219505, 0
932, 3709219304, 0.23508973, 0.64392513, -0.24341767, 0.68619376, 1.8969848, 0.45928726, -1.708169, 0
933, 3709235971, 0.23508202, 0.6438025, -0.24226843, 0.68671805, 1.1662415, 1.1566942, -0.6920576, 0
934, 3709252638, 0.23503278, 0.6434359, -0.24167767, 0.68728644, 0.22032462, 0.79005563, 0.021209717, 0
935, 3709269305, 0.23494652, 0.6432069, -0.2415314, 0.6875815, -1.1544805, 0.010655589, 0.51156807, 0
936, 3709285972, 0.23475511, 0.64354086, -0.24123985, 0.6874368, -1.0166, -0.34443265, 0.31952, 0
937, 3709302639, 0.23460618, 0.6441945, -0.24057068, 0.6871098, -0.5285067, -0.32003865, 0.17323399, 0
938, 3709319306, 0.23462042, 0.6447799, -0.23987421, 0.68679947, 0.41991794, 0.11915392, -1.0164824, 0
939, 3709335973, 0.23483294, 0.64484966, -0.2397458, 0.68670607, 0.59519047, 0.4090524, -0.64729595, 0
940, 3709352640, 0.23495619, 0.64471966, -0.2397364, 0.68678916, 0.20058955, -0.12274139, 0.744524, 0
941, 3709369307, 0.23487817, 0.64455265, -0.23950192, 0.6870544, 0.73228496, -0.3207479, 0.47167015, 0
942, 3709385974, 0.234758, 0.6443986, -0.23931977, 0.68730336, 0.9155736, -0.17604068, 1.1532717, 0
943, 3709402641, 0.23456088, 0.6443604, -0.23921898, 0.68744147, 0.52326685, -0.25237176, 0.6817055, 0
944, 3709419308, 0.23441952, 0.6443338, -0.23913367, 0.6875443, 0.94518834, -0.59362245, -1.6125946, 0
945, 3709435975, 0.23423366, 0.6444676, -0.23911208, 0.6874899, -0.6145677, -0.98980725, -0.64131165, 0
946, 3709452642, 0.23404586, 0.64481145, -0.23890066, 0.68730485, -0.61352503, -0.12359551, -1.1105251, 0
947, 3709469309, 0.23393992, 0.64502674, -0.23856422, 0.6872559, -0.045112398, 0.64097536, -0.7363243, 0
948, 3709485976, 0.23401624, 0.6448444, -0.23794188, 0.68761635, 1.4385378, -0.20670769, 0.89954853, 0
949, 3709502643, 0.23416209, 0.64455545, -0.23684174, 0.68821746, 0.7690397, -0.63191295, 1.6799688, 0
950, 3709519310, 0.23420429, 0.6446081, -0.23547256, 0.6886235, -1.0059553, -1.052848, 1.610282, 0
951, 3709535977, 0.23424752, 0.6449734, -0.23411727, 0.6887289, -1.718898, -1.2807506, 0.0018444061, 0
952, 3709552644, 0.2343542, 0.64565337, -0.2326406, 0.68855584, -1.8581355, -2.5559642, -2.3738847, 0
953, 3709569311, 0.23470953, 0.64661187, -0.23053908, 0.68824196, -1.7966704, -1.7801815, -0.5740423, 0
954, 3709585978, 0.23513368, 0.64745295, -0.2281054, 0.68811744, -1.7701361, 0.7722251, -1.3344574, 0
955, 3709602645, 0.23563877, 0.6477236, -0.22586621, 0.68842846, -0.7110243, 0.031904183, 1.5295563, 0
956, 3709619312, 0.23602933, 0.64774245, -0.22385626, 0.6889333, -1.9697517, -0.5415616, 3.3886843, 0
957, 3709635979, 0.23616298, 0.64825875, -0.22211175, 0.68896645, -4.044722, -1.5479199, 0.12305069, 0
958, 3709652646, 0.236303, 0.6492863, -0.22003862, 0.68861604, -3.4038785, -2.147032, -3.0456243, 0
959, 3709669313, 0.23671013, 0.6505292, -0.21762213, 0.6880707, -2.3227937, -1.6418991, -2.0057788, 0
960, 3709685980, 0.23750913, 0.65102744, -0.21531644, 0.68804955, -1.4440634, -0.15323712, -2.371263, 0
961, 3709702647, 0.23826079, 0.6506458, -0.21344577, 0.6887333, 0.4338793, -0.008760506, -4.3419003, 0
962, 3709719314, 0.23894082, 0.6498291, -0.21188083, 0.6897511, -1.8624301, -1.0683614, 2.1192598, 0
963, 3709735981, 0.23925398, 0.65054524, -0.21102874, 0.6892287, -10.927124, -0.5998274, 13.016832, 0
964, 3709752648, 0.2391471, 0.6524962, -0.21085529, 0.6874725, -5.213188, 2.4372976, -8.153629, 0
965, 3709769315, 0.23882458, 0.6539233, -0.21053289, 0.6863263, 1.0061837, 0.23080423, -2.1287336, 0
966, 3709785982, 0.23918611, 0.654631, -0.20864818, 0.6861013, 0.99594414, -3.8679564, 6.899208, 0
967, 3709802649, 0.24021411, 0.65557086, -0.20605367, 0.6856287, 1.8805522, -1.7263461, -4.797086, 0
968, 3709819316, 0.24171315, 0.65632874, -0.20279492, 0.68534845, 3.642664, -2.5112958, -4.0377398, 0
969, 3709835983, 0.24285024, 0.6575465, -0.19941106, 0.68477196, -2.0327122, -0.9205895, 1.395935, 0
970, 3709852650, 0.24261397, 0.659057, -0.19820645, 0.6837524, -7.060403, 3.0543005, 2.040371, 0
971, 3709869317, 0.24128814, 0.6599542, -0.19982186, 0.6828856, -1.6176369, 0.012695187, -9.090295, 0
972, 3709885984, 0.23901397, 0.66030675, -0.20281482, 0.68246174, -3.1201835, -2.41862, 0.19194317, 0
973, 3709902651, 0.23653686, 0.66080326, -0.20545731, 0.68205374, -2.6550694, -4.334574, 3.044815, 0
974, 3709919318, 0.23537545, 0.6613541, -0.20671162, 0.6815424, 0.31677356, -0.9308436, 2.9533901, 0
975, 3709935985, 0.23545021, 0.6620114, -0.20669936, 0.68088204, -0.040493533, 0.58116996, 0.7365465, 0
976, 3709952652, 0.23592749, 0.66354764, -0.20638329, 0.6793154, -3.9046614, 2.3553343, -2.3515596, 0
977, 3709969319, 0.23535609, 0.6656659, -0.20732474, 0.6771511, -3.1929984, 5.237782, -7.345222, 0
978, 3709985986, 0.23397206, 0.6669503, -0.20921963, 0.6757826, 4.797429, 2.2860446, 2.9521608, 0
979, 3710002653, 0.23324126, 0.66644317, -0.21057585, 0.67611456, 11.147588, 1.2747908, 15.103424, 0
980, 3710019320, 0.23409127, 0.6654556, -0.21016203, 0.67692167, 12.00746, -0.27179426, 12.879976, 0
981, 3710035987, 0.2369158, 0.66405755, -0.2076907, 0.67807364, 10.422248, 1.6055973, -3.8473544, 0
982, 3710052654, 0.23999742, 0.6633913, -0.2053825, 0.67834514, 4.676045, 5.065964, -8.892633, 0
983, 3710069321, 0.24190278, 0.66348666, -0.205125, 0.67765254, 3.302102, 5.2899923, -6.7221365, 0
984, 3710085988, 0.24305962, 0.66384655, -0.20640732, 0.67649573, 5.0538826, 2.6114323, -0.55055237, 0
985, 3710102655, 0.24428584, 0.66385233, -0.2076898, 0.6756553, 8.809929, 1.7290099, 4.3129616, 0
986, 3710119322, 0.2459933, 0.66307104, -0.20848048, 0.67555964, 8.514798, 3.181737, 5.6595526, 0
987, 3710135989, 0.24806361, 0.6618092, -0.20909001, 0.6758515, 5.2710447, 2.4141862, 2.0098848, 0
988, 3710152656, 0.2503006, 0.66072094, -0.20960212, 0.6759328, 1.7877108, 1.2537838, -2.4094296, 0
989, 3710169323, 0.25231165, 0.66008294, -0.21076053, 0.6754482, -0.36619228, 1.5063711, -4.9950037, 0
990, 3710185990, 0.25406265, 0.65946424, -0.2128259, 0.67474806, -0.84609383, 1.9504364, 5.531311E-4, 0
991, 3710202657, 0.25531086, 0.6588594, -0.21565938, 0.6739677, 0.2947744, 1.7681541, -0.75127697, 0
992, 3710219324, 0.256412, 0.65790415, -0.21872379, 0.673495, 1.9026837, 0.80367917, 1.0366278, 0
993, 3710235991, 0.25765184, 0.65653336, -0.22157638, 0.67342734, 1.6866822, 0.38517022, 0.03475094, 0
994, 3710252658, 0.25888482, 0.65520376, -0.22415802, 0.67339486, 0.35514885, 0.48855573, 0.45028114, 0
995, 3710269325, 0.2600644, 0.65406054, -0.22684757, 0.673151, -1.9560401, 0.9760005, -0.13602638, 0
996, 3710285992, 0.26103082, 0.6532203, -0.22976954, 0.6726016, -1.9326358, 0.6572963, -0.21724892, 0
997, 3710302659, 0.26172605, 0.6523036, -0.23290828, 0.67214143, -1.3864969, 0.672996, -0.6127176, 0
998, 3710319326, 0.26208308, 0.65114874, -0.23634046, 0.67192376, -0.52769375, 0.27023968, -0.59434223, 0
999, 3710335993, 0.26214954, 0.64990366, -0.23964036, 0.6719346, -0.3430586, -1.1344153, 0.032105446, 0
1000, 3710352660, 0.26210505, 0.64879143, -0.24274248, 0.6719131, -0.6707193, -1.38547, -0.74760914, 0
1001, 3710369327, 0.26200208, 0.64776856, -0.24575454, 0.6718453, -0.5311968, -0.8913777, 0.19426346, 0
1002, 3710385994, 0.26181808, 0.64674366, -0.24856763, 0.6718697, -0.61775595, -0.35836524, -0.35579586, 0
1003, 3710402661, 0.26129454, 0.645827, -0.25128955, 0.67194265, -0.4550165, 0.02338521, -0.8114357, 0
1004, 3710419328, 0.26052952, 0.6449137, -0.2539943, 0.6721, -1.0574816, 0.38038504, 1.5483093, 0
1005, 3710435995, 0.25946647, 0.6441547, -0.25679567, 0.6721746, -0.9722564, 0.15362594, 0.61579514, 0
1006, 3710452662, 0.25839886, 0.6434449, -0.25929922, 0.67230445, 0.34182766, -1.3291187, 0.33636093, 0
1007, 3710469329, 0.25767225, 0.64267033, -0.26109537, 0.67262906, 2.059685, -3.253274, 0.6116867, 0
1008, 3710485996, 0.25716785, 0.6417631, -0.2627104, 0.6730592, 0.21777016, -1.4829776, -1.131814, 0
1009, 3710502663, 0.25740996, 0.641, -0.26403317, 0.6731765, -0.39111972, -0.09016194, 1.0948505, 0
1010, 3710519330, 0.2559691, 0.6413402, -0.2632426, 0.67371124, 0.19463429, 1.2119714, -0.9120197, 0
1011, 3710535997, 0.2551371, 0.64085656, -0.26425424, 0.6740909, 1.7337786, 1.1817727, -0.14781189, 0
1012, 3710552664, 0.25432837, 0.6401342, -0.26581964, 0.6744671, 0.57032776, -1.6059471, 1.5949364, 0
1013, 3710569331, 0.25371572, 0.63965803, -0.26698485, 0.6746894, 1.5169922, -1.4891334, -2.0665417, 0
1014, 3710585998, 0.25325158, 0.63958305, -0.26765662, 0.6746688, -0.28472733, 0.47163448, -0.47672844, 0
1015, 3710602665, 0.25253493, 0.6404806, -0.26658094, 0.67451173, -1.9934162, -3.9350975, -2.762671, 0
1016, 3710619332, 0.25202876, 0.640463, -0.26644596, 0.67477113, 2.4037604, 6.1146493, 2.5747128, 0
1017, 3710635999, 0.2515519, 0.63955754, -0.26787412, 0.6752422, 0.9524375, -1.541619, 1.9953403, 0
1018, 3710652666, 0.25078648, 0.63894594, -0.26862216, 0.67580837, 2.268088, -3.205275, -1.721282, 0
1019, 3710669333, 0.24990979, 0.638673, -0.26877642, 0.67632973, 0.94929314, -1.8172445, 1.3022213, 0
1020, 3710686000, 0.24907884, 0.63878787, -0.26844373, 0.6766598, 1.3469073, -0.23044452, -0.13461876, 0
1021, 3710702667, 0.2482942, 0.63881254, -0.26842096, 0.6769339, 0.8288977, 1.790256, 0.15680218, 0
1022, 3710719334, 0.24747497, 0.6389967, -0.268688, 0.6769541, 1.5206944, -0.8258528, 0.24436474, 0
1023, 3710736001, 0.24659526, 0.63935256, -0.26814732, 0.6771536, 2.9283524, -2.0644479, -0.74065685, 0
1024, 3710752668, 0.24567515, 0.6396702, -0.2671127, 0.6775967, 2.9812596, -1.9183459, 0.59521294, 0
1025, 3710769335, 0.24503025, 0.6396256, -0.26606607, 0.67828363, 2.6149738, -0.9385622, 0.033447266, 0
1026, 3710786002, 0.24443607, 0.6396213, -0.26516253, 0.67885584, 1.0782146, -0.59847146, -0.39830112, 0
1027, 3710802669, 0.24388649, 0.63985354, -0.26421908, 0.6792023, 0.41349325, 0.045389224, -0.8828964, 0
1028, 3710819336, 0.24323331, 0.6408044, -0.2625842, 0.6791742, -1.6098752, -1.0462897, -1.1722527, 0
1029, 3710836003, 0.2421841, 0.6409451, -0.2618004, 0.6797189, -0.27604988, 1.630111, 2.0175867, 0
1030, 3710852670, 0.24131423, 0.64108056, -0.2611067, 0.6801671, 1.3818371, -2.997386, 0.44310665, 0
1031, 3710869337, 0.24077135, 0.6413694, -0.25945935, 0.68071735, 0.66707915, -4.063324, -0.5099411, 0
1032, 3710886004, 0.24038836, 0.642239, -0.25750396, 0.6807753, -1.8772216, -0.41335168, 0.33183384, 0
1033, 3710902671, 0.23987082, 0.642806, -0.25602865, 0.68097913, -1.0841869, 2.2682083, -1.7967491, 0
1034, 3710919338, 0.23916787, 0.64316475, -0.25501487, 0.68126786, -1.610675, -0.06972213, -0.35845947, 0
1035, 3710936005, 0.23841764, 0.64357406, -0.2538768, 0.6815694, -1.5352081, -1.8848186, 0.414567, 0
1036, 3710952672, 0.23778713, 0.64418674, -0.2523957, 0.68176085, -1.6063801, -1.8458657, -0.20577621, 0
1037, 3710969339, 0.23728147, 0.6448991, -0.2510165, 0.6817728, -0.5596242, -0.060032785, 0.12493801, 0
1038, 3710986006, 0.23685947, 0.6454157, -0.24972641, 0.68190444, -0.67319846, -0.4769602, 0.6739111, 0
1039, 3711002673, 0.23649868, 0.6460535, -0.24804337, 0.68204004, 0.62010956, -1.0161759, -0.5681715, 0
1040, 3711019340, 0.23621385, 0.64675856, -0.24592055, 0.6822392, -0.06841611, -1.6178718, 0.45292473, 0
1041, 3711036007, 0.23600867, 0.6476275, -0.24398018, 0.6821826, 0.074407436, -0.05186864, -0.22971821, 0
1042, 3711052674, 0.23570874, 0.6484429, -0.24276035, 0.68194664, 1.3906025, 0.58627546, -2.720508, 0
1043, 3711069341, 0.23541284, 0.6490396, -0.24182427, 0.6818137, 2.6426237, 0.6564776, 1.4469357, 0
1044, 3711086008, 0.2350949, 0.6493871, -0.24078614, 0.6819601, 1.6235257, -0.35622716, 2.7762203, 0
1045, 3711102675, 0.23483515, 0.6498491, -0.23973554, 0.6819797, 1.7916691, -1.1061608, -0.09783268, 0
1046, 3711119342, 0.23469178, 0.65034837, -0.23872462, 0.68190765, 1.7762783, -0.53261095, -0.22663403, 0
1047, 3711136009, 0.2345386, 0.6508422, -0.23775782, 0.681827, 1.6798903, 0.64288455, 0.7429428, 0
1048, 3711152676, 0.23430103, 0.6513015, -0.23703015, 0.6817237, 1.4690908, 1.6533886, 1.2142477, 0
1049, 3711169343, 0.23400505, 0.65169346, -0.23655716, 0.6816149, 0.79474187, 2.217024, -0.7191572, 0
1050, 3711186010, 0.23365496, 0.65207905, -0.23646925, 0.68139666, 1.5954432, 0.930285, -2.547876, 0
1051, 3711202677, 0.23369402, 0.652574, -0.23594958, 0.6810895, 1.2947706, -2.327545, -0.8516426, 0
1052, 3711219344, 0.23391223, 0.6533793, -0.23449454, 0.68074495, 1.6912639, -0.9259887, 0.683918, 0
1053, 3711236011, 0.2343026, 0.65396947, -0.23338205, 0.6804262, 0.84441924, 1.4876753, 0.3699646, 0
1054, 3711252678, 0.23477231, 0.65423137, -0.23329157, 0.6800433, 0.62327105, 1.5793229, -0.33587742, 0
1055, 3711269345, 0.23509157, 0.6544431, -0.23334791, 0.67971003, 0.2321772, 0.069412366, 0.35928822, 0
1056, 3711286012, 0.23525715, 0.65467894, -0.23313007, 0.67950034, 1.3174882, 0.54005057, -0.40610695, 0
1057, 3711302679, 0.23534024, 0.65481806, -0.23297453, 0.67939085, 1.8525927, 0.79987043, -0.3260975, 0
1058, 3711319346, 0.23560454, 0.6548208, -0.23347826, 0.6791235, 2.2878208, 0.38765723, 0.95794296, 0
1059, 3711336013, 0.23620404, 0.65461504, -0.23447922, 0.6787688, 2.484061, 0.5369565, 0.21569347, 0
1060, 3711352680, 0.23672576, 0.65444136, -0.23523767, 0.6784921, 1.9742519, 1.6040131, 0.85193825, 0
1061, 3711369347, 0.23713475, 0.65426165, -0.23595586, 0.6782732, 0.57148427, 1.9754788, -0.13490582, 0
1062, 3711386014, 0.23752877, 0.6541941, -0.2367784, 0.67791355, 0.6247797, 0.9662982, -0.26093006, 0
1063, 3711402681, 0.23816791, 0.6540356, -0.23752709, 0.6775802, 0.2135272, -0.6859307, 1.2953129, 0
1064, 3711419348, 0.23897827, 0.6540019, -0.2382456, 0.677075, 0.93595725, 0.024180079, -1.0380688, 0
1065, 3711436015, 0.23972587, 0.65371346, -0.23912455, 0.67677945, 1.3353208, 1.2980752, -0.14835835, 0
1066, 3711452682, 0.24024303, 0.6533162, -0.24024458, 0.67658305, 0.45541576, 0.6229879, 1.5702353, 0
1067, 3711469349, 0.24057095, 0.6530541, -0.24114494, 0.67639923, -0.71179444, -0.5315564, -0.8634939, 0
1068, 3711486016, 0.24102445, 0.65275216, -0.24190864, 0.6762565, -1.0942962, -0.13672751, -0.54086876, 0
1069, 3711502683, 0.24163696, 0.6522505, -0.24290842, 0.67616355, -1.7811078, 0.05840466, 0.29178524, 0
1070, 3711519350, 0.24232684, 0.651698, -0.24394692, 0.67607546, -1.2620374, -0.9570133, -0.21626186, 0
1071, 3711536017, 0.2430316, 0.65108484, -0.24476323, 0.6761182, -1.3297561, 0.063183896, 0.63931465, 0
1072, 3711552684, 0.24352983, 0.6502854, -0.24575216, 0.67634964, -1.4557534, 2.0914297, 1.0638399, 0
1073, 3711569351, 0.2439675, 0.6493213, -0.24730593, 0.67655164, -3.387959, 1.4055796, -0.5872326, 0
1074, 3711586018, 0.24425471, 0.648726, -0.24921516, 0.67631847, -5.514831, 1.2491373, -2.875658, 0
1075, 3711602685, 0.24458817, 0.6481542, -0.25104505, 0.6760694, -4.5680056, 0.95988375, -0.5859289, 0
1076, 3711619352, 0.24518588, 0.6474995, -0.252743, 0.6758477, -2.973916, 0.19847023, 0.92547894, 0
1077, 3711636019, 0.24626486, 0.6467145, -0.25436682, 0.6755976, -0.76246965, -0.2743679, 1.1440678, 0
1078, 3711652686, 0.24787837, 0.64555705, -0.25606698, 0.67547226, 0.19037715, 1.3454142, 1.972477, 0
1079, 3711669353, 0.24953736, 0.6440402, -0.25830022, 0.6754591, -0.1718469, 3.9169054, 0.27401447, 0
1080, 3711686020, 0.25082114, 0.64234334, -0.26121473, 0.67547864, -1.1330781, 4.935066, -1.7294893, 0
1081, 3711702687, 0.25188327, 0.6405624, -0.26440075, 0.67553514, -1.2930123, 2.3377943, -2.2925944, 0
1082, 3711719354, 0.25321087, 0.63900506, -0.26748642, 0.6752987, 0.20453246, 1.7518896, -0.53210545, 0
1083, 3711736021, 0.25496083, 0.63769656, -0.27062196, 0.6746278, 0.75364774, 1.5902784, 2.2881813, 0
1084, 3711752688, 0.25709084, 0.63666266, -0.27341723, 0.6736682, 3.9847786, 0.9786414, -2.9822836, 0
1085, 3711769355, 0.25954232, 0.63538986, -0.2755994, 0.67304033, 6.46487, 1.5555474, -3.649732, 0
1086, 3711786022, 0.26203027, 0.63408846, -0.2779984, 0.6723167, 3.0266533, 2.52795, 2.93151, 0
1087, 3711802689, 0.26402336, 0.6335498, -0.28064114, 0.67094535, 1.9346699, 0.7348884, -1.8076401, 0
1088, 3711819356, 0.2661466, 0.633567, -0.2823477, 0.6693723, 3.0972779, -3.1152878, -4.81331, 0
1089, 3711836023, 0.26869872, 0.6340883, -0.2832142, 0.6674905, 0.46669632, 0.9974641, -1.6061249, 0
1090, 3711852690, 0.27126694, 0.6349379, -0.28401354, 0.66530085, 1.0551364, 2.43078, -0.04074955, 0
1091, 3711869357, 0.2739861, 0.63614786, -0.2843083, 0.6629003, 0.9217119, -1.7953062, 2.3750324, 0
1092, 3711886024, 0.2766562, 0.63697875, -0.28446946, 0.6609216, 1.773669, -0.430055, 6.2247925, 0
1093, 3711902691, 0.27881658, 0.63704866, -0.28499654, 0.65971816, 3.6550708, -0.9328493, 2.3779812, 0
1094, 3711919358, 0.28020483, 0.63645697, -0.28591695, 0.6593028, 3.5586529, -1.6068172, 1.1339817, 0
1095, 3711936025, 0.28094596, 0.6356816, -0.28711998, 0.65921247, 1.881622, -1.7778288, -0.050982475, 0
1096, 3711952692, 0.28147087, 0.6348313, -0.28850526, 0.65920323, 1.6815834, -0.68947715, -0.33556366, 0
1097, 3711969359, 0.28208616, 0.6337853, -0.2901344, 0.6592317, 1.7692244, 0.4456437, 0.1177454, 0
1098, 3711986026, 0.28260276, 0.63255465, -0.2919724, 0.6593808, 2.2852352, 0.32187754, 0.046432495, 0
1099, 3712002693, 0.2828356, 0.6313037, -0.2939572, 0.6595982, 2.2264774, -0.38051584, 0.14792347, 0
1100, 3712019360, 0.2828591, 0.6301209, -0.29602775, 0.659793, 3.1334329, -1.4270555, -1.0775099, 0
1101, 3712036027, 0.28290188, 0.6288481, -0.29809037, 0.6600603, 2.6929417, -1.4748869, 0.84047127, 0
1102, 3712052694, 0.2828683, 0.6278325, -0.29974762, 0.6602909, 1.8543721, -2.080393, -0.7449026, 0
1103, 3712069361, 0.2826444, 0.6271924, -0.30098495, 0.6604323, 1.8687938, -0.10830682, -0.9618902, 0
1104, 3712086028, 0.2821268, 0.6264065, -0.30239305, 0.660756, 1.784067, 0.6929025, 0.6148329, 0
1105, 3712102695, 0.28144795, 0.6257131, -0.30368406, 0.6611106, 2.1108198, -1.8347532, 0.6322193, 0
1106, 3712119362, 0.28084856, 0.6251916, -0.3047012, 0.66139054, 2.1110477, -2.3623068, 0.6156349, 0
1107, 3712136029, 0.28028244, 0.62471086, -0.3054917, 0.6617202, 2.0182023, -0.98838836, -0.6529875, 0
1108, 3712152696, 0.27964953, 0.62416965, -0.30604932, 0.6622409, 1.6624049, -0.73747486, -0.111083984, 0
1109, 3712169363, 0.27902883, 0.62371683, -0.30637974, 0.6627764, 0.81102866, -0.75177836, 0.47331047, 0
1110, 3712186030, 0.27818814, 0.6234947, -0.30666795, 0.6632053, 0.98007107, -0.9483531, -2.2080827, 0
1111, 3712202697, 0.27733555, 0.6232291, -0.3068392, 0.6637326, 1.399674, -2.0938783, -0.6215801, 0
1112, 3712219364, 0.27654782, 0.62300456, -0.30676258, 0.6643072, 0.90830404, -1.9156486, 0.46493626, 0
1113, 3712236031, 0.27575374, 0.62292415, -0.30641824, 0.66487145, 0.9308219, -0.86959314, -0.0017995834, 0
1114, 3712252698, 0.27501732, 0.62290865, -0.30603755, 0.6653662, 0.5764383, -0.51943314, 0.1890192, 0
1115, 3712269365, 0.27435508, 0.6229675, -0.3056148, 0.66577864, 0.087641805, -0.58144057, 0.29036617, 0
1116, 3712286032, 0.2735916, 0.6232372, -0.3050422, 0.6661028, 0.08248359, -0.732846, -1.069212, 0
1117, 3712302699, 0.2728272, 0.6234878, -0.30424872, 0.66654474, 1.5716133, -0.79396296, -0.30457973, 0
1118, 3712319366, 0.27212435, 0.6236029, -0.30331895, 0.6671478, 0.030331949, -0.9566908, 2.048438, 0
1119, 3712336033, 0.27158296, 0.62399817, -0.30209547, 0.6675539, -0.11638581, -1.1428236, -0.9619856, 0
1120, 3712352700, 0.27133194, 0.6245626, -0.3004946, 0.66785043, 0.1399573, -0.14499542, 0.853508, 0
1121, 3712369367, 0.27129897, 0.62521374, -0.29894105, 0.6679518, -0.23219982, 0.33034724, 0.78477, 0
1122, 3712386034, 0.27130255, 0.6260059, -0.2973769, 0.6679066, -0.40295634, 0.5481477, -0.9970112, 0
1123, 3712402701, 0.27135316, 0.62686294, -0.2958263, 0.66777086, -0.28076318, 0.008987316, -1.2486858, 0
1124, 3712419368, 0.2714824, 0.62755805, -0.29445788, 0.6676702, -0.17155756, 0.5948144, -0.1495266, 0
1125, 3712436035, 0.27169755, 0.6280039, -0.2932505, 0.66769487, 0.20940956, -0.13368176, 0.568182, 0
1126, 3712452702, 0.27202937, 0.62828684, -0.2924019, 0.6676657, 0.08732476, -0.14407751, 0.81523037, 0
1127, 3712469369, 0.27236766, 0.6284846, -0.29200387, 0.66751593, -0.23641469, 0.5204062, -0.38606262, 0
1128, 3712486036, 0.2725759, 0.62868446, -0.29187834, 0.66729754, 0.18855119, 1.2024674, -1.7751408, 0
1129, 3712502703, 0.27279106, 0.62865365, -0.29203162, 0.66717154, 0.10527676, 0.7925155, -0.68437386, 0
1130, 3712519370, 0.27322373, 0.6284553, -0.29232198, 0.66705436, -0.16128248, -0.5513312, 0.7629242, 0
1131, 3712536037, 0.27394077, 0.62830883, -0.29238072, 0.6668726, -0.0951643, 0.057166163, 0.98832417, 0
1132, 3712552704, 0.274785, 0.6282211, -0.29242736, 0.66658705, -0.03868823, 1.9301721, -0.09172058, 0
1133, 3712569371, 0.27560282, 0.6281024, -0.29263926, 0.6662682, 0.48566645, 1.5023711, -0.5594835, 0
1134, 3712586038, 0.2765273, 0.6279655, -0.29285792, 0.66591805, 0.34372547, -0.37814727, 0.56058884, 0
1135, 3712602705, 0.27762002, 0.6279523, -0.29292545, 0.66544616, 0.28983545, -0.582596, -0.59811115, 0
1136, 3712619372, 0.27884343, 0.62802964, -0.29283935, 0.6648993, 0.48337254, -0.017916806, -1.3601837, 0
1137, 3712636039, 0.2801184, 0.6280311, -0.29288208, 0.664343, -0.30901128, 0.748717, 1.4058084, 0
1138, 3712652706, 0.28125188, 0.6277299, -0.2932814, 0.66397256, -0.06152208, 0.113292724, 1.3410597, 0
1139, 3712669373, 0.28201374, 0.6273478, -0.29382336, 0.66377074, -0.82900584, -1.3309928, -2.4285607, 0
1140, 3712686040, 0.28242734, 0.62706476, -0.2945893, 0.6635227, -1.2451329, -0.807958, 0.5993843, 0
1141, 3712702707, 0.28264636, 0.6265692, -0.2957638, 0.6633751, -1.0429235, -0.4496019, 1.5427532, 0
1142, 3712719374, 0.28279558, 0.6260938, -0.29691333, 0.66324687, -0.599482, -1.4384974, -1.6858969, 0
1143, 3712736041, 0.28299466, 0.6257647, -0.2977032, 0.66311854, -0.8651374, -0.7720798, -0.19612217, 0
1144, 3712752708, 0.28308386, 0.62536746, -0.29854578, 0.66307634, -1.1484417, 0.8435352, 1.5405025, 0
1145, 3712769375, 0.28299436, 0.62481654, -0.299562, 0.6631755, -0.7742806, 0.54374, -0.1161232, 0
1146, 3712786042, 0.2827872, 0.62433153, -0.30059263, 0.6632543, -1.5841706, -0.7073692, -0.04675579, 0
1147, 3712802709, 0.2825642, 0.62397426, -0.3014881, 0.66327906, -1.3195575, -1.000444, 0.069205284, 0
1148, 3712819376, 0.28240886, 0.6237161, -0.30214, 0.6632914, -1.4315373, -0.7894258, -1.0461206, 0
1149, 3712836043, 0.28243226, 0.62343514, -0.30251375, 0.6633755, -1.1317292, -0.4553591, -0.5680542, 0
1150, 3712852710, 0.28254464, 0.6229718, -0.3028465, 0.6636108, -2.1796014, 0.5712177, 0.30877495, 0
1151, 3712869377, 0.28251338, 0.6225047, -0.30328676, 0.66386133, -2.402091, -0.19455336, 0.23003674, 0
1152, 3712886044, 0.28242517, 0.6221466, -0.30366847, 0.6640602, -2.1640294, -0.5340984, -0.07370186, 0
1153, 3712902711, 0.2822669, 0.6219274, -0.30409124, 0.66413933, -3.5600324, 0.64112157, 0.0901556, 0
1154, 3712919378, 0.28210044, 0.6219097, -0.3045881, 0.66399896, -4.516029, 1.0198908, -1.2176409, 0
1155, 3712936045, 0.28221518, 0.62204117, -0.30484143, 0.66371065, -4.583044, -0.4663783, -1.9007101, 0
1156, 3712952712, 0.28290695, 0.6221734, -0.30458385, 0.66341054, -3.4217522, 0.18168896, -0.02275753, 0
1157, 3712969379, 0.28408694, 0.6222394, -0.30414075, 0.66304755, -3.021899, 0.92648333, 1.9746981, 0
1158, 3712986046, 0.28561696, 0.62223417, -0.3039098, 0.66250074, -1.6471314, 1.4673024, -0.5876312, 0
1159, 3713002713, 0.2872553, 0.62202114, -0.30397174, 0.66196394, -2.402075, 1.7556671, 1.5297499, 0
1160, 3713019380, 0.2887062, 0.62184674, -0.3044058, 0.6612967, -4.396739, 2.7366018, -2.7114978, 0
1161, 3713036047, 0.2900246, 0.6217892, -0.30510965, 0.6604489, -4.473092, 2.1484969, -3.5030656, 0
1162, 3713052714, 0.29160622, 0.6216283, -0.30594125, 0.6595186, -5.1477, 1.4612104, 1.7934551, 0
1163, 3713069381, 0.29356036, 0.62142754, -0.3069505, 0.65837103, -3.3781502, 1.5159192, 1.876173, 0
1164, 3713086048, 0.29606935, 0.62080693, -0.30793205, 0.6573737, -0.15490775, 2.2569284, 0.0013065338, 0
1165, 3713102715, 0.2987865, 0.6196312, -0.30911288, 0.6566991, -0.49504554, 2.6913354, 3.3349857, 0
1166, 3713119382, 0.3011021, 0.6184203, -0.31123143, 0.65578157, -0.69758016, 2.5951955, -1.6082468, 0
1167, 3713136049, 0.3031831, 0.6174875, -0.31388816, 0.65443444, 1.2747098, 0.9733689, -6.3026805, 0
1168, 3713152716, 0.30564496, 0.6165499, -0.3160076, 0.65315187, 4.1960588, 1.2158885, -1.3794508, 0
1169, 3713169383, 0.30851963, 0.61634, -0.31749618, 0.6512739, 1.5389537, 2.3808267, 3.1825104, 0
1170, 3713186050, 0.31115183, 0.61696243, -0.31878328, 0.6487989, 6.4762783, 2.9260962, -6.4380054, 0
