sep=,
DeviceTag:,Xsens_DOT_5,,,,,,,,,,,,,,,,,
FirmwareVersion:,3.0.0,,,,,,,,,,,,,,,,,
AppVersion:,2023.6.1,,,,,,,,,,,,,,,,,
SyncStatus:,Synced,,,,,,,,,,,,,,,,,
OutputRate:,60Hz,,,,,,,,,,,,,,,,,
FilterProfile:,General,,,,,,,,,,,,,,,,,
Measurement Mode:,Sensor fusion Mode - Extended (Quaternion),,,,,,,,,,,,,,,,,
StartTime:,2025-05-05 12:08:20.726 +0200,,,,,,,,,,,,,,,,,
 2025,,,,,,,,,,,,,,,,,,,

PacketCounter,SampleTimeFine,Quat_W,Quat_X,Quat_Y,Quat_Z,FreeAcc_X,FreeAcc_Y,FreeAcc_Z,Status
1, 3693735661, -0.6059922, -0.22424829, -0.30530825, 0.6994869, 0.04654814, 0.097747244, -0.07309723, 0
2, 3693752328, -0.60604477, -0.22438033, -0.30523244, 0.6994321, 0.038451605, 0.047563557, -0.085865974, 0
3, 3693768995, -0.60607713, -0.22449663, -0.3051782, 0.6993904, 0.056015253, 0.059025303, -0.06416893, 0
4, 3693785662, -0.6061019, -0.2246128, -0.30513018, 0.6993525, 0.03793775, 0.07122341, -0.08161354, 0
5, 3693802329, -0.6061211, -0.22471549, -0.30508152, 0.69932413, 0.040014185, 0.06939921, -0.079128265, 0
6, 3693818996, -0.6061771, -0.22483644, -0.30501726, 0.69926476, -0.0028019585, 0.053979944, -0.12721634, 0
7, 3693835663, -0.606223, -0.2249925, -0.30489677, 0.69922745, 0.039023127, 0.08602533, -0.0740881, 0
8, 3693852330, -0.60630023, -0.22515593, -0.30475038, 0.6991716, 0.030326238, 0.04052614, -0.11336708, 0
9, 3693868997, -0.6063634, -0.2253222, -0.30457237, 0.6991407, 0.050363727, 0.064960465, -0.06694603, 0
10, 3693885664, -0.6064315, -0.22550938, -0.30438292, 0.69910395, 0.009029252, 0.053066112, -0.10655117, 0
11, 3693902331, -0.6064963, -0.22574139, -0.30418944, 0.699057, 0.04198959, 0.06508597, -0.085170746, 0
12, 3693918998, -0.6066061, -0.22599497, -0.30395734, 0.69898075, 0.021984287, 0.062466953, -0.0906868, 0
13, 3693935665, -0.6067031, -0.22620553, -0.30371705, 0.698933, 0.07861241, 0.06882702, -0.037158966, 0
14, 3693952332, -0.6067623, -0.22636467, -0.30351368, 0.69891846, 0.045991145, 0.07674865, -0.084549904, 0
15, 3693968999, -0.60679865, -0.2264941, -0.30338785, 0.69889945, 0.026705775, 0.052447427, -0.098026276, 0
16, 3693985666, -0.60682696, -0.22659108, -0.3032876, 0.69888693, 0.025137162, 0.07962739, -0.09661484, 0
17, 3694002333, -0.60687554, -0.22668806, -0.30320755, 0.69884795, 0.00756569, 0.064625196, -0.12093544, 0
18, 3694019000, -0.6069087, -0.22681165, -0.30310243, 0.6988248, 0.024653032, 0.06699409, -0.12577343, 0
19, 3694035667, -0.6069224, -0.22696345, -0.30300483, 0.698806, 0.044520427, 0.05910733, -0.08187008, 0
20, 3694052334, -0.60692954, -0.22710222, -0.3029684, 0.69877034, 0.03791741, 0.055503745, -0.07435417, 0
21, 3694069001, -0.60691947, -0.22718236, -0.30295134, 0.69876057, 0.06544884, 0.08671655, -0.036524773, 0
22, 3694085668, -0.6068927, -0.22720371, -0.30298582, 0.69876176, 0.020766811, 0.06263291, -0.0691185, 0
23, 3694102335, -0.6068753, -0.22724782, -0.3030283, 0.69874424, 0.007856704, 0.04023289, -0.104953766, 0
24, 3694119002, -0.6068843, -0.22733656, -0.3030549, 0.6986961, 0.038444005, 0.022522172, -0.11999607, 0
25, 3694135669, -0.60688764, -0.22748663, -0.3030418, 0.69865, 0.010194649, 0.030513095, -0.13220787, 0
26, 3694152336, -0.60694563, -0.22770476, -0.30307218, 0.69851536, -0.022746243, 0.013923852, -0.1462965, 0
27, 3694169003, -0.60696524, -0.22799067, -0.30306554, 0.6984079, 0.034149203, 0.09405548, -0.04602146, 0
28, 3694185670, -0.60698456, -0.22819912, -0.3030368, 0.69833565, 0.064591, 0.104640946, -0.0054559708, 0
29, 3694202337, -0.6069871, -0.2283161, -0.3030412, 0.69829303, 0.031509515, 0.058463503, -0.0738678, 0
32, 3694252338, -0.6070346, -0.2286143, -0.30293614, 0.6981997, 0.029446043, 0.053606678, -0.06331825, 0
34, 3694285672, -0.6070726, -0.22879846, -0.30288547, 0.69812846, 0.034262523, 0.06594079, -0.06713009, 0
35, 3694302339, -0.6070632, -0.22882363, -0.30293584, 0.69810665, 0.057175063, 0.06927672, -0.075694084, 0
36, 3694319006, -0.60703874, -0.22882876, -0.30301136, 0.69809335, 0.015329636, 0.060695056, -0.08821201, 0
39, 3694369007, -0.60701466, -0.22885796, -0.30322397, 0.6980125, 0.029253375, 0.061060388, -0.088459015, 0
40, 3694385674, -0.60700107, -0.22890382, -0.3032863, 0.6979821, 0.0066430285, 0.062075246, -0.09137535, 0
42, 3694419008, -0.60697263, -0.22890545, -0.30338842, 0.697962, 0.060343135, 0.05505247, -0.06719208, 0
43, 3694435675, -0.6069603, -0.22884543, -0.30346668, 0.69795835, 0.024701534, 0.0476457, -0.09641266, 0
47, 3694502343, -0.60685515, -0.228627, -0.30418158, 0.6978102, -0.02508307, 0.057771392, -0.11335087, 0
48, 3694519010, -0.6068214, -0.22861356, -0.30443618, 0.69773287, 0.0060610007, 0.04137381, -0.10663128, 0
50, 3694552344, -0.6067365, -0.22869399, -0.3049094, 0.69757366, 0.013036394, -0.008047919, -0.13055515, 0
52, 3694585678, -0.6066296, -0.22881489, -0.30553803, 0.69735193, 0.048866414, 0.0949083, -0.028514862, 0
54, 3694619012, -0.6064898, -0.22882704, -0.30609468, 0.69722545, 0.047964316, 0.09614499, -0.07969761, 0
55, 3694635679, -0.60644627, -0.22885132, -0.30629987, 0.69716525, 0.04216259, 0.05475531, -0.0755682, 0
56, 3694652346, -0.60642034, -0.2289094, -0.3064283, 0.6971122, 0.032429494, 0.049046118, -0.063108444, 0
59, 3694702347, -0.60643834, -0.22930452, -0.30671507, 0.69684047, 0.036247097, 0.008486228, -0.1343584, 0
61, 3694735681, -0.60652447, -0.22985676, -0.30688727, 0.6965078, -0.02242729, 0.044193763, -0.098918915, 0
62, 3694752348, -0.60657936, -0.23017552, -0.30696088, 0.6963222, 0.031850148, 0.08776773, -0.050736427, 0
63, 3694769015, -0.6066387, -0.23055191, -0.30684343, 0.6961976, 0.04218986, 0.08775007, -0.062397003, 0
66, 3694819016, -0.60685104, -0.23161393, -0.3061366, 0.6959713, 0.04672449, 0.07638611, -0.043130875, 0
67, 3694835683, -0.60688424, -0.2318061, -0.30601805, 0.69593054, 0.011701574, 0.07918271, -0.090660095, 0
69, 3694869017, -0.6069481, -0.23199643, -0.3059158, 0.69585633, 0.030771475, 0.033885457, -0.06988144, 0
70, 3694885684, -0.6069574, -0.23204894, -0.30589595, 0.6958396, 0.048224486, 0.077799164, -0.07070446, 0
73, 3694935685, -0.606964, -0.23205285, -0.30583352, 0.69585985, 0.040853474, 0.07711096, -0.08153725, 0
74, 3694952352, -0.60696626, -0.23196504, -0.30583274, 0.69588757, 0.058629237, 0.06440436, -0.058522224, 0
75, 3694969019, -0.6069016, -0.23186687, -0.30592358, 0.69593674, 0.029186098, 0.032200504, -0.08817291, 0
77, 3695002353, -0.6067752, -0.23185489, -0.30625746, 0.69590396, 0.01665775, 0.008391906, -0.097836494, 0
81, 3695069021, -0.6068458, -0.2324611, -0.30627334, 0.6956333, 0.040374264, 0.07508281, -0.08844566, 0
82, 3695085688, -0.60687387, -0.23258002, -0.306238, 0.6955844, 0.025630454, 0.06086336, -0.094343185, 0
83, 3695102355, -0.60687226, -0.23273784, -0.30622926, 0.6955368, 0.016672948, 0.030322773, -0.09075451, 0
86, 3695152356, -0.6069144, -0.23331001, -0.3062913, 0.6952811, 0.042356823, 0.05051091, -0.0784626, 0
87, 3695169023, -0.6069336, -0.23347402, -0.3062973, 0.69520664, 0.044913586, 0.051011134, -0.057148933, 0
89, 3695202357, -0.60688996, -0.23375314, -0.30637246, 0.69511765, 0.023597604, 0.052110147, -0.06634617, 0
90, 3695219024, -0.60687757, -0.23389594, -0.30638108, 0.6950768, 0.0051039183, 0.033757832, -0.06565666, 0
93, 3695269025, -0.60689366, -0.23431605, -0.3064575, 0.69488764, 0.029573, 0.053323932, -0.06659603, 0
94, 3695285692, -0.6068926, -0.2344153, -0.30648205, 0.6948442, 0.052855898, 0.07186578, -0.06852722, 0
96, 3695319026, -0.60683274, -0.23437205, -0.30656514, 0.6948744, 0.08056413, 0.09177878, -0.04105282, 0
100, 3695385694, -0.6068842, -0.234036, -0.306258, 0.69507813, 0.027458567, 9.0858014E-4, -0.11844921, 0
101, 3695402361, -0.6068794, -0.23407301, -0.30625036, 0.6950732, 0.028051546, 0.04346131, -0.08584404, 0
102, 3695419028, -0.60689676, -0.23411964, -0.30622682, 0.6950526, 0.004067936, 0.010471024, -0.09799671, 0
104, 3695452362, -0.60689837, -0.23421936, -0.30629453, 0.69498795, 0.035650764, 0.048314672, -0.06546402, 0
106, 3695485696, -0.60686886, -0.23431545, -0.30641037, 0.6949302, 0.008880617, 0.028309034, -0.10318756, 0
108, 3695519030, -0.60693187, -0.23448323, -0.30654714, 0.6947583, 0.010735327, 0.025139285, -0.097229004, 0
109, 3695535697, -0.6069431, -0.23458944, -0.30661988, 0.69468045, 0.018484522, 0.03209523, -0.094901085, 0
110, 3695552364, -0.60698175, -0.23472679, -0.30666578, 0.69458, 0.047254663, 0.024285018, -0.07931328, 0
113, 3695602365, -0.60710377, -0.23515902, -0.30693546, 0.6942081, 0.02640068, 0.010836914, -0.10804653, 0
115, 3695635699, -0.6072022, -0.23560822, -0.30709118, 0.6939007, 0.02949924, 0.06381317, -0.087825775, 0
117, 3695669033, -0.6072847, -0.23605728, -0.30724853, 0.6936061, 0.036669757, 0.054449543, -0.070542336, 0
120, 3695719034, -0.6073227, -0.23658259, -0.3075232, 0.69327205, 0.019371867, 0.0128028225, -0.11622429, 0
121, 3695735701, -0.6073456, -0.23681663, -0.30762675, 0.6931261, 0.011867197, 0.004241382, -0.10013199, 0
123, 3695769035, -0.6073872, -0.23732695, -0.30785355, 0.6928145, 0.075867675, 0.096285135, -0.057751656, 0
124, 3695785702, -0.6073762, -0.23751561, -0.307952, 0.69271564, 0.052436363, 0.061006967, -0.041485786, 0
127, 3695835703, -0.6073837, -0.23781267, -0.30814815, 0.69251984, 0.041064918, 0.058644548, -0.07985115, 0
128, 3695852370, -0.6073736, -0.23789604, -0.3081986, 0.6924775, 0.042600676, 0.05877005, -0.044573784, 0
129, 3695869037, -0.6073541, -0.23796774, -0.3082721, 0.6924374, 0.038328897, 0.06186369, -0.046933174, 0
131, 3695902371, -0.60727876, -0.23810427, -0.30844742, 0.69237846, 0.016440943, 5.629174E-4, -0.09682751, 0
133, 3695935705, -0.607193, -0.23821774, -0.3089746, 0.6921797, 0.02013874, 0.049138207, -0.0788784, 0
136, 3695985706, -0.60697955, -0.23797499, -0.3101544, 0.6919227, 0.033693682, 0.06814217, -0.08424759, 0
137, 3696002373, -0.606902, -0.23779523, -0.310558, 0.6918714, 0.03090402, 0.074896954, -0.08294296, 0
142, 3696085708, -0.6067784, -0.23687285, -0.31161004, 0.6918232, 0.07920696, 0.06155938, -0.085484505, 0
143, 3696102375, -0.6067945, -0.23681639, -0.31156167, 0.69185, 0.04907987, 0.034153227, -0.053002357, 0
144, 3696119042, -0.6068158, -0.2367552, -0.31149197, 0.6918838, 0.044851452, 0.061751712, -0.053629875, 0
147, 3696169043, -0.6068138, -0.23640722, -0.31110963, 0.6921765, 0.046479743, 0.08658836, -0.055789948, 0
148, 3696185710, -0.60679924, -0.23623893, -0.31089106, 0.69234496, 0.07155901, 0.103540815, -0.016532898, 0
150, 3696219044, -0.6067853, -0.23559721, -0.31010908, 0.6929262, 0.05557538, 0.12287681, -0.06321716, 0
151, 3696235711, -0.60679746, -0.23515983, -0.30961484, 0.69328505, 0.0061088325, 0.03902782, -0.07565594, 0
154, 3696285712, -0.60681427, -0.23417369, -0.3084081, 0.6941415, 0.024339443, -0.022256749, -0.11629963, 0
155, 3696302379, -0.60680807, -0.23394935, -0.30818945, 0.6943197, 0.0064177276, -0.0065475884, -0.10713005, 0
156, 3696319046, -0.6068073, -0.23373905, -0.3080011, 0.6944748, 0.02567091, 0.03169503, -0.10112381, 0
158, 3696352380, -0.60675126, -0.23333956, -0.30776548, 0.69476247, 0.07327761, 0.023830952, -0.07263088, 0
160, 3696385714, -0.6066134, -0.23304981, -0.3077245, 0.69499826, 0.016772412, 0.017918922, -0.09242535, 0
162, 3696419048, -0.60653627, -0.23283045, -0.30776155, 0.6951226, 0.05755481, 0.03350649, -0.07668972, 0
163, 3696435715, -0.6064513, -0.23273036, -0.30782276, 0.6952031, 0.0625092, 0.053398587, -0.0706234, 0
164, 3696452382, -0.60638326, -0.23260096, -0.30793884, 0.69525445, 0.018668026, 0.029291373, -0.07832241, 0
167, 3696502383, -0.60616714, -0.23224552, -0.30837727, 0.69536734, 0.01537702, 0.032060362, -0.114320755, 0
168, 3696519050, -0.6061609, -0.23217376, -0.3084601, 0.69536006, 0.021827605, 0.012036955, -0.11968422, 0
171, 3696569051, -0.6061307, -0.23211941, -0.30865803, 0.6953165, 0.015107017, 0.022311399, -0.064333916, 0
174, 3696619052, -0.60608643, -0.23208866, -0.30879495, 0.69530475, 0.049868647, 0.024037365, -0.053915977, 0
175, 3696635719, -0.6060519, -0.232066, -0.30882883, 0.69532734, 0.059969198, 0.034092654, -0.075982094, 0
177, 3696669053, -0.6060121, -0.23192452, -0.3089111, 0.6953728, 0.034751795, 0.023207461, -0.106962204, 0
178, 3696685720, -0.6060006, -0.23187253, -0.30894592, 0.6953845, 0.033191003, 0.035673562, -0.09593487, 0
181, 3696735721, -0.60597396, -0.23174265, -0.30909538, 0.6953847, 0.062088545, 0.046553504, -0.059235573, 0
182, 3696752388, -0.6059378, -0.23169644, -0.30918142, 0.6953933, 0.05151683, 0.036961444, -0.070939064, 0
183, 3696769055, -0.6059075, -0.23164333, -0.30925328, 0.6954055, 0.04337202, 0.04773041, -0.07425594, 0
185, 3696802389, -0.60586804, -0.23150155, -0.30938923, 0.6954266, 0.03066866, 0.031130102, -0.088027954, 0
187, 3696835723, -0.60579777, -0.23137006, -0.3094757, 0.69549304, 0.046273664, 0.037841413, -0.099113464, 0
190, 3696885724, -0.6057465, -0.2311637, -0.30949855, 0.6955962, 0.021188805, 0.03437998, -0.08725834, 0
191, 3696902391, -0.6057407, -0.23111488, -0.30951253, 0.69561124, 0.012716322, 0.03081439, -0.07777691, 0
194, 3696952392, -0.60574746, -0.23099753, -0.30957392, 0.6956169, 0.07267255, 0.062267356, -0.075110435, 0
196, 3696985726, -0.60570484, -0.23084314, -0.3096099, 0.6956894, 0.03948334, 0.017917134, -0.082844734, 0
197, 3697002393, -0.6056828, -0.23080464, -0.30962437, 0.69571495, 0.035303425, 0.0029299196, -0.080433846, 0
198, 3697019060, -0.6056634, -0.23078762, -0.3096302, 0.6957347, 0.034260288, 0.048780028, -0.09177017, 0
201, 3697069061, -0.6055871, -0.23073147, -0.30961794, 0.6958252, 0.030372504, 0.01986829, -0.08845711, 0
202, 3697085728, -0.6055762, -0.23070994, -0.30960461, 0.69584775, 0.028996112, 0.0406294, -0.087976456, 0
204, 3697119062, -0.6055712, -0.23061447, -0.30959564, 0.69588774, 0.0319856, 0.023881242, -0.09054375, 0
205, 3697135729, -0.60558367, -0.23055753, -0.30959812, 0.6958946, 0.03238658, 0.030168327, -0.07260609, 0
209, 3697202397, -0.605631, -0.23024794, -0.30948347, 0.69600695, 0.01436853, 0.02538392, -0.10088539, 0
210, 3697219064, -0.6055893, -0.23016223, -0.30958378, 0.69602716, 0.020497926, 0.06051915, -0.0665741, 0
212, 3697252398, -0.6055665, -0.22984321, -0.3098077, 0.69605273, 0.0028844348, 0.034435745, -0.108756065, 0
214, 3697285732, -0.6055535, -0.22956437, -0.3098975, 0.69611615, -0.033070754, 0.027201973, -0.08746338, 0
216, 3697319066, -0.60561466, -0.22915572, -0.30984604, 0.69622046, -0.2421041, 0.06932735, -0.22717476, 0
217, 3697335733, -0.60565406, -0.22904684, -0.30976903, 0.69625616, 0.20386684, 0.036241733, 0.0019903183, 0
218, 3697352400, -0.60567427, -0.22897026, -0.30982947, 0.6962369, 0.18202671, -0.06953466, -0.10939407, 0
221, 3697402401, -0.60598296, -0.22953309, -0.30947065, 0.69594234, 0.11626898, -0.17070411, -0.3771, 0
223, 3697435735, -0.6068765, -0.23259847, -0.3083137, 0.6946585, 0.10108619, -0.008738128, 0.01247406, 0
224, 3697452402, -0.607174, -0.23410955, -0.3082262, 0.6939295, 0.24302362, 0.13226971, 0.1094141, 0
228, 3697519070, -0.60737336, -0.23828575, -0.3081168, 0.6923803, 0.08520739, 0.14398079, 0.0051937103, 0
229, 3697535737, -0.60738057, -0.23885714, -0.30800617, 0.69222635, 0.038305428, 0.13037376, -0.024886131, 0
231, 3697569071, -0.607405, -0.23956443, -0.30758926, 0.69214576, 0.03667311, 0.112307325, -0.051160812, 0
232, 3697585738, -0.60748935, -0.23973157, -0.3072238, 0.69217616, -0.0027820657, 0.11977098, -0.061190605, 0
235, 3697635739, -0.6077185, -0.23980667, -0.30586198, 0.6925521, 0.07870718, 0.0630292, -0.03597355, 0
236, 3697652406, -0.60770726, -0.23959455, -0.30558097, 0.6927592, 0.089518726, 0.018866058, -0.071287155, 0
237, 3697669073, -0.60766214, -0.23931763, -0.30537593, 0.6929852, -0.005596541, 0.01607684, -0.0624094, 0
239, 3697702407, -0.6076074, -0.2387304, -0.30497777, 0.69341093, -0.07196715, -0.0052671945, -0.0971508, 0
241, 3697735741, -0.60758024, -0.23822364, -0.3046335, 0.6937601, 0.09896841, 0.026344802, -0.066311836, 0
243, 3697769075, -0.6074966, -0.23754603, -0.3044327, 0.69415367, 0.008586697, 0.03772396, -0.07031536, 0
244, 3697785742, -0.60743755, -0.23707321, -0.30442268, 0.69437134, 0.103199504, 0.08057184, -0.050448418, 0
245, 3697802409, -0.6073613, -0.23643447, -0.30451307, 0.69461614, 0.06718822, 0.01654577, -0.08194637, 0
248, 3697852410, -0.6072323, -0.23496711, -0.30469048, 0.6951489, 0.021985851, -0.015172283, -0.117572784, 0
249, 3697869077, -0.6071955, -0.23467368, -0.30468848, 0.695281, 0.021652147, -0.032004036, -0.09286976, 0
251, 3697902411, -0.6071218, -0.23403646, -0.30473906, 0.69553804, 0.07265512, 0.046278358, -0.04479122, 0
252, 3697919078, -0.60701865, -0.23359928, -0.3048681, 0.6957185, 0.069493756, 0.028252149, -0.07875347, 0
255, 3697969079, -0.60672945, -0.2326207, -0.30526525, 0.69612426, 0.038119018, -0.0023398453, -0.09886742, 0
256, 3697985746, -0.6066774, -0.23251471, -0.30527884, 0.696199, 0.021820676, -0.0029565175, -0.099038124, 0
258, 3698019080, -0.60655475, -0.23232281, -0.3053076, 0.69635737, 0.025608104, 0.021637954, -0.076584816, 0
262, 3698085748, -0.60644233, -0.23201396, -0.30527663, 0.6965717, -0.002569058, -0.029877871, -0.1293869, 0
263, 3698102415, -0.60646975, -0.23206103, -0.30524132, 0.69654775, 0.03615143, 0.012446319, -0.07028198, 0
264, 3698119082, -0.6064687, -0.2321446, -0.3052008, 0.6965386, 0.0433338, 0.006830444, -0.094613075, 0
266, 3698152416, -0.60647213, -0.23220593, -0.30512807, 0.69654685, 0.036344547, 0.005497301, -0.078053474, 0
268, 3698185750, -0.60651034, -0.23233342, -0.30495656, 0.69654626, 0.008815351, -0.0013938268, -0.103897095, 0
270, 3698219084, -0.6065917, -0.23254585, -0.30475965, 0.69649076, 0.047505666, 0.019263241, -0.08504391, 0
271, 3698235751, -0.6066051, -0.23262149, -0.3046962, 0.69648165, 0.020219205, -0.0026674035, -0.07713604, 0
272, 3698252418, -0.6065966, -0.23269579, -0.30463645, 0.69649017, 0.030934192, 0.024634704, -0.105709076, 0
275, 3698302419, -0.60656893, -0.2328409, -0.30460894, 0.6964779, 0.021704895, 0.020926066, -0.08588219, 0
277, 3698335753, -0.60655624, -0.23303524, -0.30459937, 0.6964282, 0.049800027, 0.01393648, -0.08121872, 0
279, 3698369087, -0.6065614, -0.23318897, -0.30462483, 0.6963611, 0.029301208, 0.012683131, -0.05888176, 0
282, 3698419088, -0.6065796, -0.233385, -0.30460945, 0.6962863, 0.035427697, 0.025440468, -0.07550621, 0
283, 3698435755, -0.6065775, -0.23343176, -0.30456546, 0.6962917, 0.08180731, 0.0032373616, -0.08243084, 0
285, 3698469089, -0.6065758, -0.23345509, -0.3045056, 0.69631153, 0.019884607, 0.005620345, -0.09331608, 0
286, 3698485756, -0.60657394, -0.2334722, -0.30447614, 0.69632024, 0.037216697, 0.03615378, -0.089990616, 0
289, 3698535757, -0.6065524, -0.2335165, -0.30444354, 0.6963384, 0.04182151, 0.010855912, -0.090696335, 0
290, 3698552424, -0.60651904, -0.23352611, -0.30446947, 0.696353, 0.06230267, 0.01738942, -0.060830116, 0
291, 3698569091, -0.60649157, -0.23352407, -0.30449286, 0.6963673, 0.030530976, 0.028974095, -0.09921074, 0
293, 3698602425, -0.6064559, -0.23354843, -0.30453378, 0.6963723, 0.025587987, 0.0080860285, -0.105511665, 0
295, 3698635759, -0.606436, -0.23354067, -0.30452877, 0.6963943, 0.048379604, 0.017543867, -0.06241131, 0
298, 3698685760, -0.60637724, -0.23326449, -0.30456176, 0.6965238, 0.023550443, -0.0034100255, -0.060486794, 0
299, 3698702427, -0.6063654, -0.23316477, -0.30461383, 0.6965445, 0.005235791, -0.004229536, -0.086211205, 0
302, 3698752428, -0.6062561, -0.23270261, -0.30503708, 0.6966092, 0.23227333, 0.049919605, 0.0121564865, 0
304, 3698785762, -0.60607696, -0.2319501, -0.30557215, 0.6967815, 0.05352286, 0.010241475, -0.04047489, 0
305, 3698802429, -0.6059704, -0.2317617, -0.3058371, 0.69682074, 0.11003699, -0.036583148, -0.08664608, 0
306, 3698819096, -0.6059077, -0.23168758, -0.30599746, 0.69682944, -0.057558388, -0.07243943, -0.23378563, 0
309, 3698869097, -0.60636175, -0.2330507, -0.30591318, 0.6960163, 0.04344399, -0.0661519, -0.11023331, 0
310, 3698885764, -0.60658234, -0.2337705, -0.30580884, 0.69562864, 0.15444008, 0.09371921, 0.015585899, 0
312, 3698919098, -0.6066959, -0.23465951, -0.30595744, 0.6951647, 0.092450544, 0.07598479, -0.018832207, 0
313, 3698935765, -0.60666245, -0.23491712, -0.30608773, 0.6950495, 0.11176788, 0.055185236, -0.027276993, 0
317, 3699002433, -0.6066664, -0.23507848, -0.30615118, 0.69496346, -0.0025440245, -0.06253736, -0.17035198, 0
318, 3699019100, -0.60669017, -0.23521106, -0.30623767, 0.6948599, 0.024254061, -0.022131918, -0.14156532, 0
320, 3699052434, -0.6067693, -0.23582509, -0.30638593, 0.6945172, -0.030298298, -0.023270382, -0.120194435, 0
322, 3699085768, -0.60681474, -0.23679054, -0.30659893, 0.69405466, 0.088203356, 0.046789084, -0.0052366257, 0
324, 3699119102, -0.60681015, -0.23727816, -0.3068388, 0.69378626, 0.061652698, 0.08144086, -0.048005104, 0
325, 3699135769, -0.60679543, -0.23733717, -0.30693826, 0.6937348, 0.057760887, 0.077580005, -0.062766075, 0
326, 3699152436, -0.60676724, -0.23733744, -0.3069821, 0.69374007, 0.060852744, 0.054507658, -0.053388596, 0
329, 3699202437, -0.6066915, -0.23709403, -0.30693915, 0.6939086, 0.099486284, 0.026461363, -0.04559803, 0
330, 3699219104, -0.6066472, -0.23689006, -0.30691817, 0.69402623, 0.03866886, 0.045861952, -0.059617043, 0
332, 3699252438, -0.60659677, -0.23627529, -0.3068747, 0.6942991, 0.019351976, -0.014315334, -0.10005474, 0
333, 3699269105, -0.6065723, -0.23599541, -0.30684903, 0.694427, 0.02535531, -0.020511337, -0.08177948, 0
336, 3699319106, -0.60643804, -0.23531331, -0.3070479, 0.69468766, 0.03638679, -0.013206263, -0.10186005, 0
337, 3699335773, -0.60641235, -0.23518877, -0.30715346, 0.6947057, 0.044914704, -0.018695965, -0.10801411, 0
339, 3699369107, -0.60637635, -0.23497489, -0.30724883, 0.69476724, 0.02689375, 9.767516E-5, -0.099951744, 0
340, 3699385774, -0.6063551, -0.23485512, -0.30727157, 0.69481623, 0.06412363, 0.020472446, -0.0864315, 0
343, 3699435775, -0.6062915, -0.2345486, -0.30745116, 0.6948959, -0.0037740162, -0.061709467, -0.10972309, 0
344, 3699452442, -0.6062918, -0.2345463, -0.3075246, 0.69486386, 0.056743905, 0.01647961, -0.09114456, 0
345, 3699469109, -0.6062882, -0.23456995, -0.30758312, 0.6948331, 0.044424765, -0.016205806, -0.08975506, 0
347, 3699502443, -0.6062862, -0.2346136, -0.30768347, 0.6947757, 0.03401018, 0.0013940503, -0.08296394, 0
351, 3699569111, -0.6062796, -0.23459116, -0.30771244, 0.69477624, 0.04381681, -7.2999333E-4, -0.08488464, 0
352, 3699585778, -0.60627556, -0.23456782, -0.30769885, 0.6947936, 0.043450024, 0.006947565, -0.080358505, 0
353, 3699602445, -0.6062785, -0.23454358, -0.30768275, 0.6948063, 0.047844514, -0.016203124, -0.07337761, 0
356, 3699652446, -0.60624, -0.23446903, -0.30761373, 0.69489574, 0.038857505, -0.020177409, -0.087161064, 0
358, 3699685780, -0.60625964, -0.2344422, -0.30755794, 0.6949122, 0.036952727, -0.017411994, -0.1102438, 0
359, 3699702447, -0.6062574, -0.23446704, -0.30753145, 0.6949175, 0.04243662, 9.2567893E-4, -0.083595276, 0
360, 3699719114, -0.60626346, -0.23448956, -0.3074976, 0.69491976, 0.05818802, 0.01856901, -0.08294773, 0
363, 3699769115, -0.60625476, -0.23447174, -0.30745023, 0.6949541, 0.02796013, 0.015753528, -0.07967758, 0
364, 3699785782, -0.60626614, -0.23447466, -0.30737782, 0.6949753, 0.029237283, 4.9798685E-4, -0.07965946, 0
366, 3699819116, -0.6062828, -0.23439081, -0.3072123, 0.6950623, 0.07455073, 0.0091191055, -0.040145874, 0
370, 3699885784, -0.60631335, -0.23403615, -0.30691952, 0.6952845, 0.050940838, -0.0015891771, -0.053811073, 0
371, 3699902451, -0.6063181, -0.23395437, -0.30681723, 0.6953529, 0.027091112, 0.008589044, -0.10133839, 0
372, 3699919118, -0.60632765, -0.23387612, -0.3067186, 0.69541436, 0.029288914, -0.016093493, -0.10280514, 0
374, 3699952452, -0.6063635, -0.23371378, -0.3066352, 0.6954746, 0.051443294, 0.026766123, -0.09349632, 0
376, 3699985786, -0.60633606, -0.23356965, -0.30652517, 0.6955955, 0.030732809, -0.009599658, -0.06911564, 0
378, 3700019120, -0.6063243, -0.2333542, -0.3064157, 0.69572616, 0.07263299, -0.0068372614, -0.059762, 0
379, 3700035787, -0.6063011, -0.2331802, -0.30636954, 0.69582516, 0.07793427, 0.0076078223, -0.05034828, 0
380, 3700052454, -0.6062776, -0.23297405, -0.3063316, 0.6959313, 0.044237908, 0.0030465934, -0.08854771, 0
383, 3700102455, -0.6061982, -0.23238397, -0.30630255, 0.69621044, 0.03190625, -0.024576703, -0.107655525, 0
385, 3700135789, -0.6061944, -0.23209494, -0.30624762, 0.6963345, 0.03701911, 9.294786E-4, -0.08964634, 0
387, 3700169123, -0.60615015, -0.23188065, -0.30623743, 0.69644886, 0.027858654, -0.025082065, -0.11510563, 0
390, 3700219124, -0.6061218, -0.23167294, -0.30617505, 0.69657004, 0.05343636, 0.010379829, -0.048430443, 0
391, 3700235791, -0.6060749, -0.23146284, -0.306148, 0.6966925, 0.0074251005, 0.034922224, -0.06673908, 0
393, 3700269125, -0.60607404, -0.23110826, -0.30609387, 0.6968347, 0.0020156398, -0.026555015, -0.16913414, 0
394, 3700285792, -0.6061351, -0.23103283, -0.30594027, 0.69687414, -0.039602026, -0.032885574, -0.3233385, 0
397, 3700335793, -0.606089, -0.23097806, -0.3058781, 0.69695956, -0.047048807, -0.076281846, -0.12246418, 0
398, 3700352460, -0.60610956, -0.23111409, -0.30582267, 0.696921, 0.0050019966, -0.0377871, -0.11523628, 0
399, 3700369127, -0.6061624, -0.23126324, -0.30577442, 0.69684666, 0.072236255, 0.023995904, 0.025904655, 0
401, 3700402461, -0.6062764, -0.23133829, -0.30569717, 0.6967564, -0.020551346, -0.025123863, -0.14530277, 0
403, 3700435795, -0.6064414, -0.2315903, -0.3055224, 0.6966059, 0.09004421, -0.0015118417, -0.08116913, 0
406, 3700485796, -0.60650015, -0.23147884, -0.30546921, 0.69661504, 0.10711456, 0.0228504, -0.02447319, 0
407, 3700502463, -0.6065155, -0.23126853, -0.30543387, 0.69668704, 0.00975947, -0.007149844, -0.10039234, 0
410, 3700552464, -0.6065802, -0.23075195, -0.30522054, 0.69689536, 0.09573842, 0.04816056, 0.020168304, 0
411, 3700569131, -0.60660833, -0.23049417, -0.30511993, 0.6970003, 0.062354974, -0.005879285, -0.07994652, 0
413, 3700602465, -0.6065858, -0.22992463, -0.30498487, 0.6972672, 0.015941838, -0.057580624, -0.11689663, 0
414, 3700619132, -0.60657537, -0.22974572, -0.30494702, 0.6973517, -0.0323573, -0.021455903, -0.15583515, 0
417, 3700669133, -0.60656565, -0.22922434, -0.30471715, 0.69763213, 0.075071745, 0.0017731283, -0.07035828, 0
418, 3700685800, -0.6065625, -0.22897601, -0.30473185, 0.69771004, 0.0273334, 0.0075469147, -0.09645939, 0
420, 3700719134, -0.6064153, -0.22827157, -0.30505055, 0.6979296, 0.030121947, -0.008936942, -0.08508873, 0
421, 3700735801, -0.6062973, -0.22783601, -0.30528405, 0.6980722, 0.053546105, 0.03160641, -0.07351208, 0
424, 3700785802, -0.60601187, -0.2261898, -0.30603245, 0.6985276, -0.0074121365, -0.0101832505, -0.09742069, 0
425, 3700802469, -0.6059165, -0.22564003, -0.3061451, 0.69873875, -0.016006209, 0.008155988, -0.1343317, 0
426, 3700819136, -0.60578763, -0.22508115, -0.3063172, 0.69895506, 0.047979068, 0.0050731855, -0.1254034, 0
428, 3700852470, -0.6054765, -0.22416407, -0.30663142, 0.6993817, 0.080877714, -0.09727172, -0.20884323, 0
430, 3700885804, -0.6051696, -0.22351736, -0.30698732, 0.69969827, 0.019493012, -0.050898258, -0.16230965, 0
432, 3700919138, -0.6048985, -0.22301194, -0.3073875, 0.6999181, -0.0028037466, -0.027324682, -0.17367458, 0
433, 3700935805, -0.60473365, -0.2228914, -0.30756727, 0.70001996, -0.045946218, -0.017324042, -0.13298607, 0
434, 3700952472, -0.604667, -0.22284874, -0.30768633, 0.7000388, 0.02946169, -0.061606765, -0.12358284, 0
437, 3701002473, -0.60451436, -0.22288463, -0.30789882, 0.70006573, 0.13764778, -0.039923325, -0.10522747, 0
440, 3701052474, -0.604296, -0.22312818, -0.30852845, 0.6998995, 0.09861101, -0.08911551, -0.18545437, 0
441, 3701069141, -0.6042484, -0.22338475, -0.30880722, 0.69973576, -0.016652387, -0.055539615, -0.14491081, 0
444, 3701119142, -0.60394305, -0.2247633, -0.31021106, 0.69893664, 0.078238025, -0.105448045, -0.1699028, 0
445, 3701135809, -0.60369635, -0.22544321, -0.31107032, 0.69854873, 0.09104465, -0.055822473, -0.08655834, 0
447, 3701169143, -0.60310125, -0.22726324, -0.31339136, 0.69743484, -0.046265617, -0.21587083, -0.27426147, 0
448, 3701185810, -0.6026365, -0.22855808, -0.3151653, 0.6966135, 0.1482615, -0.1040854, -0.036857605, 0
451, 3701235811, -0.60113686, -0.23290263, -0.3205104, 0.6940267, 0.080757916, -0.024240091, -0.0765419, 0
452, 3701252478, -0.6006032, -0.23444055, -0.3223676, 0.6931101, 0.1621173, -0.118341394, -0.122605324, 0
453, 3701269145, -0.59995854, -0.23590636, -0.3246752, 0.69209313, 0.19250992, -0.10147779, -0.053943634, 0
455, 3701302479, -0.5979186, -0.23908685, -0.33094028, 0.6897959, 0.2632435, -0.17958617, -0.057383537, 0
459, 3701369147, -0.5919349, -0.24793892, -0.34927642, 0.6827549, 0.17515391, -0.20522122, -0.06648159, 0
460, 3701385814, -0.58981395, -0.25103512, -0.35493314, 0.6805382, 0.14230399, -0.2469921, -0.08205223, 0
461, 3701402481, -0.5873639, -0.25455165, -0.36121482, 0.67804116, -0.048625913, -0.32357043, -0.08282089, 0
464, 3701452482, -0.5787037, -0.2693521, -0.38226894, 0.66815484, 0.04875801, -0.39863244, -0.07335949, 0
465, 3701469149, -0.5750858, -0.27579856, -0.39060342, 0.66381437, 0.54126436, -0.3457447, 0.020195007, 0
467, 3701502483, -0.56643635, -0.290985, -0.41020325, 0.6528551, 0.12898843, -0.6445806, -0.3274212, 0
468, 3701519150, -0.56178564, -0.30043602, -0.4211827, 0.6455612, -0.15215018, -0.5381729, -0.15932846, 0
471, 3701569151, -0.54162997, -0.34447888, -0.46477568, 0.60988826, -0.15522997, -1.6596355, -0.8006449, 0
472, 3701585818, -0.52933615, -0.36927727, -0.48611927, 0.5891812, -0.66385895, -1.700337, -0.65378, 0
474, 3701619152, -0.485495, -0.44480845, -0.53434575, 0.5300222, -0.8999061, -2.6289604, 0.51859, 0
478, 3701685820, -0.36005652, -0.6271026, -0.5926315, 0.3548213, -3.2303326, -10.716772, 10.564518, 0
479, 3701702487, -0.34223002, -0.6611011, -0.5862114, 0.31967005, -6.1279354, -13.651993, 6.199417, 0
480, 3701719154, -0.33207393, -0.68432957, -0.57870215, 0.29416385, -7.1175537, -17.09941, 8.146236, 0
482, 3701752488, -0.2887751, -0.7234931, -0.5741958, 0.25194174, -23.79235, -29.348736, 15.629679, 0
484, 3701785822, -0.21206027, -0.75908804, -0.56088823, 0.25343436, -1.3616749, -17.037155, -3.2125354, 0
486, 3701819156, -0.1671092, -0.77037305, -0.5640391, 0.24590345, -1.620671, -16.055334, -8.830363, 0
487, 3701835823, -0.15570977, -0.77287513, -0.5646178, 0.244201, -2.7612147, -12.9650545, -9.359734, 0
488, 3701852490, -0.14931, -0.7736337, -0.5645147, 0.24602668, -3.1919096, -10.167573, -9.232059, 0
491, 3701902491, -0.1475414, -0.75926614, -0.5653027, 0.28668433, 2.7569134, -4.943132, -7.153137, 0
492, 3701919158, -0.15526599, -0.750834, -0.56546384, 0.30397412, 5.238857, -5.0832353, -6.4964647, 0
495, 3701969159, -0.22063057, -0.72398376, -0.53838545, 0.3705664, 3.8112838, -7.090239, -0.7243967, 0
498, 3702019160, -0.30283454, -0.6786728, -0.49502486, 0.45017046, 0.5011983, -0.44459364, 0.37085533, 0
499, 3702035827, -0.32205272, -0.66233945, -0.4823203, 0.47430408, 0.55271155, -0.3286161, 0.017879486, 0
501, 3702069161, -0.35346407, -0.62910914, -0.46062738, 0.5168327, -0.8298368, -1.3317264, 2.0180187, 0
502, 3702085828, -0.36722445, -0.6102499, -0.45074445, 0.538126, -0.00933636, -1.560026, 3.0352697, 0
505, 3702135829, -0.41172308, -0.547167, -0.42480516, 0.59215015, 1.8703048, 0.27322736, 2.1128807, 0
506, 3702152496, -0.42669526, -0.52710384, -0.41637036, 0.60558826, -0.38685688, 1.5928191, 2.0431824, 0
507, 3702169163, -0.43841413, -0.50967294, -0.40653414, 0.61868024, -2.0244472, 1.9267812, 2.0571299, 0
509, 3702202497, -0.45259836, -0.4741976, -0.38848653, 0.64759403, -1.375635, 0.75493467, 4.4686537, 0
511, 3702235831, -0.46391273, -0.43363833, -0.37047917, 0.6778619, -0.8785762, 2.467208, 2.6193953, 0
513, 3702269165, -0.47084117, -0.3954968, -0.35534033, 0.7040121, -0.12922916, 3.172892, 2.8813753, 0
514, 3702285832, -0.47219855, -0.3768537, -0.35037756, 0.7157193, 1.0249124, 3.464624, 3.7882986, 0
515, 3702302499, -0.4723105, -0.35714743, -0.34740746, 0.72710747, 2.2877858, 3.9791903, 4.709937, 0
518, 3702352500, -0.47412634, -0.292388, -0.3325443, 0.7610103, 4.985178, 6.5743985, 1.2629652, 0
520, 3702385834, -0.48274678, -0.25493422, -0.3226466, 0.77322185, 5.167475, 7.5213833, -2.526577, 0
521, 3702402501, -0.4865834, -0.24026313, -0.32203755, 0.77576464, 4.5713863, 8.632387, -2.8414555, 0
522, 3702419168, -0.48924565, -0.22848882, -0.32249504, 0.7774555, 3.827165, 10.394879, -2.7998543, 0
525, 3702469169, -0.49334753, -0.21326722, -0.3175695, 0.7812067, 3.9093852, 11.97739, -6.190754, 0
526, 3702485836, -0.49369967, -0.21442002, -0.31807524, 0.7804626, 4.1362157, 11.894671, -6.5666018, 0
529, 3702535837, -0.49055082, -0.23962528, -0.3305879, 0.76984423, 3.4529736, 11.012242, -5.3867154, 0
532, 3702585838, -0.492464, -0.27254012, -0.35906303, 0.7445023, 1.5508419, 9.398182, -2.0324836, 0
533, 3702602505, -0.494125, -0.28069267, -0.3712114, 0.7343452, 0.66714334, 8.797432, -2.1776052, 0
534, 3702619172, -0.49567574, -0.28861693, -0.3833966, 0.72389334, -0.0438861, 8.540261, -1.7850666, 0
536, 3702652506, -0.50144863, -0.304311, -0.40436095, 0.70174444, 0.28166556, 9.45719, -1.4490852, 0
538, 3702685840, -0.5027403, -0.332324, -0.42022312, 0.6784057, -5.322872, 12.975779, -1.8280091, 0
540, 3702719174, -0.47957346, -0.37347567, -0.44181108, 0.6598008, -6.8042984, 15.953568, 7.06674, 0
541, 3702735841, -0.4810182, -0.38673738, -0.4149928, 0.668465, 8.540134, -3.4165828, 22.826149, 0
542, 3702752508, -0.48563588, -0.38355017, -0.4075071, 0.6715608, 2.4587948, 0.8668331, 2.3573523, 0
545, 3702802509, -0.4886013, -0.3698931, -0.39094937, 0.6867424, -3.1879356, -12.585704, 0.053367615, 0
548, 3702852510, -0.4874317, -0.3755767, -0.38887486, 0.6856658, 1.5071398, -1.1043084, -0.86744404, 0
549, 3702869177, -0.48391706, -0.37913302, -0.3963969, 0.68188035, 0.84974974, -1.0523523, -0.5769329, 0
552, 3702919178, -0.46614903, -0.41041535, -0.43396097, 0.65264934, -0.9111338, -0.18228488, -0.22407055, 0
553, 3702935845, -0.4580488, -0.42766413, -0.448423, 0.6373542, -1.0065535, 0.045675095, -0.14001846, 0
555, 3702969179, -0.43489093, -0.47313082, -0.47980657, 0.5973371, 0.58137864, -0.37922883, -0.24323177, 0
556, 3702985846, -0.4180489, -0.49774942, -0.4974604, 0.574476, 0.71558833, -1.192149, 0.4937954, 0
559, 3703035847, -0.3200951, -0.62749314, -0.5442866, 0.4555794, -0.9082176, -9.429113, 7.071432, 0
560, 3703052514, -0.26936084, -0.68580174, -0.5488261, 0.39486662, -3.3308885, -14.188268, 20.89893, 0
561, 3703069181, -0.23419671, -0.7163233, -0.55898035, 0.34580737, -6.649008, -15.181825, 35.00677, 0
563, 3703102515, -0.19098361, -0.7490835, -0.5510122, 0.3143149, -20.621742, -17.71562, 29.619534, 0
567, 3703169183, -0.1082468, -0.79091185, -0.57381666, 0.1829873, -6.469579, -24.239338, -36.46174, 0
568, 3703185850, -0.10565473, -0.7884988, -0.5772054, 0.18425329, -1.2155752, -20.202156, -32.410652, 0
569, 3703202517, -0.11224131, -0.7842455, -0.5778699, 0.19605151, 1.6882738, -14.570317, -23.325953, 0
572, 3703252518, -0.14380167, -0.77010095, -0.572208, 0.24259548, 0.8702334, -7.2373023, 4.505698, 0
573, 3703269185, -0.14784542, -0.76618725, -0.5719418, 0.2529632, 1.7811965, -6.735453, 3.4965487, 0
575, 3703302519, -0.15351163, -0.7604772, -0.56726694, 0.2762715, 1.4712405, -8.712757, -1.0445528, 0
576, 3703319186, -0.15883836, -0.75714463, -0.5622388, 0.2922306, 0.7156697, -6.7547817, -2.0705333, 0
579, 3703369187, -0.19656378, -0.74597186, -0.53474563, 0.34488365, 2.9618487, -3.2299871, -0.5525875, 0
580, 3703385854, -0.22036701, -0.7406375, -0.5226651, 0.3601732, 1.6871952, -0.93535554, -0.24701023, 0
582, 3703419188, -0.26413262, -0.72648025, -0.49894062, 0.39182627, -1.3299628, 1.2541276, -3.3961554, 0
586, 3703485856, -0.31996968, -0.6724354, -0.46203873, 0.4816421, 2.8016198, -1.1210458, 2.0189323, 0
587, 3703502523, -0.33963773, -0.6575449, -0.44717693, 0.50231737, 2.2351155, 0.3043672, 1.3869286, 0
588, 3703519190, -0.36057723, -0.64170396, -0.43257013, 0.5206652, -0.22020184, 1.0686566, 1.527482, 0
590, 3703552524, -0.3929845, -0.6073874, -0.40400806, 0.5598484, -2.3046021, -0.2196806, 2.4455004, 0
592, 3703585858, -0.41949913, -0.5649902, -0.38124785, 0.5995546, -0.2318596, -1.0567731, 1.7743626, 0
594, 3703619192, -0.4475858, -0.51952004, -0.3608272, 0.6321222, -0.58284044, -0.37627935, 3.2649717, 0
595, 3703635859, -0.46090546, -0.49614546, -0.35150173, 0.6464219, -2.0303612, 0.21636412, 4.323488, 0
596, 3703652526, -0.47133964, -0.4719901, -0.34297672, 0.6613926, -2.420967, 0.4970099, 4.8434267, 0
599, 3703702527, -0.48666996, -0.39755726, -0.32077163, 0.70867145, 1.7195202, 1.064345, 4.1764164, 0
601, 3703735861, -0.4910356, -0.35327673, -0.306423, 0.73497856, 2.5168672, 3.2484322, 4.441742, 0
602, 3703752528, -0.49418083, -0.3324862, -0.29771346, 0.7460657, 3.4068513, 4.866145, 6.5346775, 0
603, 3703769195, -0.49897453, -0.30983382, -0.28841078, 0.75621134, 4.067721, 6.3214307, 5.1727304, 0
606, 3703819196, -0.51524115, -0.24798827, -0.26599827, 0.77606845, 2.533233, 9.436527, 0.20807838, 0
607, 3703835863, -0.51923746, -0.23196982, -0.2608039, 0.78011084, 2.7916093, 10.213736, -1.2525778, 0
609, 3703869197, -0.52438337, -0.20383567, -0.25721326, 0.78569937, 3.5225494, 12.341509, -3.2586493, 0
610, 3703885864, -0.5267124, -0.191381, -0.25529668, 0.7878959, 3.9191597, 12.332637, -4.9539533, 0
614, 3703952532, -0.54118276, -0.18210022, -0.2497419, 0.7820478, 2.4884787, 10.396175, -8.652238, 0
615, 3703969199, -0.54415244, -0.18751754, -0.25515115, 0.77694404, 0.9219612, 9.216112, -7.9256344, 0
617, 3704002533, -0.54174614, -0.20512712, -0.27013853, 0.7690697, -2.8099477, 8.23617, -2.3531876, 0
621, 3704069201, -0.50740975, -0.2432768, -0.3014012, 0.76975185, 2.457421, 7.078278, -1.4365072, 0
622, 3704085868, -0.50007033, -0.24516684, -0.31878692, 0.76694643, 4.2329164, 9.420699, -1.7882214, 0
623, 3704102535, -0.49650592, -0.2449772, -0.3380205, 0.7610645, 3.631746, 11.803952, -0.17472744, 0
626, 3704152536, -0.5118521, -0.25908765, -0.37957937, 0.72581637, 0.002289611, 18.946196, -5.0668383, 0
627, 3704169203, -0.51622075, -0.27277607, -0.39904034, 0.7070255, -4.5322495, 21.596973, -2.9414554, 0
629, 3704202537, -0.5102869, -0.314118, -0.43686008, 0.6708945, -10.062462, 15.371362, 14.057667, 0
630, 3704219204, -0.523228, -0.34269485, -0.4142358, 0.66121894, 27.632782, 1.6069384, 16.037867, 0
633, 3704269205, -0.54407436, -0.34732413, -0.4161333, 0.6404616, 2.623287, -1.8949202, -0.24807262, 0
634, 3704285872, -0.541123, -0.35070512, -0.42518035, 0.6351556, 0.16418323, -0.8048431, -0.49372005, 0
636, 3704319206, -0.5315278, -0.3695994, -0.45357287, 0.6124992, 0.1511893, -3.070244, -0.48085308, 0
640, 3704385874, -0.44931668, -0.51405776, -0.53634137, 0.49619192, -0.50996405, -5.998169, 1.8049088, 0
641, 3704402541, -0.40767264, -0.5731724, -0.5595073, 0.43844846, -0.3344773, -9.585859, 7.5493927, 0
642, 3704419208, -0.36333382, -0.6339801, -0.5693644, 0.37668425, -2.6251032, -16.540306, 20.986229, 0
644, 3704452542, -0.33480638, -0.691067, -0.5463605, 0.33441034, -33.117477, -17.759119, 30.252178, 0
646, 3704485876, -0.2396695, -0.7229519, -0.566553, 0.31452498, -0.06809099, -15.2145195, 8.191286, 0
648, 3704519210, -0.17617038, -0.7405162, -0.59578645, 0.2562178, -1.0082794, -32.99202, -2.5755749, 0
649, 3704535877, -0.15176237, -0.7497262, -0.60171807, 0.2298331, -0.900649, -28.17744, -10.486337, 0
650, 3704552544, -0.13085158, -0.76061004, -0.60222745, 0.20416015, 0.69870776, -26.198187, -15.483536, 0
653, 3704602545, -0.14227873, -0.7773783, -0.59392655, 0.15066577, -0.596924, -12.938832, -19.914362, 0
655, 3704635879, -0.17396814, -0.7873645, -0.57171416, 0.15147325, -1.5887495, -9.015322, -17.716671, 0
657, 3704669213, -0.20609678, -0.7924957, -0.542042, 0.18887639, -3.7217493, -9.404984, -15.610677, 0
660, 3704719214, -0.26902783, -0.7762536, -0.48842213, 0.294121, -2.6451998, -7.913584, -8.77121, 0
661, 3704735881, -0.29705623, -0.7624852, -0.4686069, 0.33285227, -3.3446395, -8.011049, -4.6764274, 0
663, 3704769215, -0.34798327, -0.7262483, -0.42528367, 0.41305456, -7.57557, -4.295411, 1.5425043, 0
664, 3704785882, -0.3637471, -0.7035342, -0.40492824, 0.45691344, -8.437112, 0.3547266, 3.1965961, 0
667, 3704835883, -0.37446836, -0.6274264, -0.351935, 0.5850304, -8.060104, 9.511481, 8.407642, 0
668, 3704852550, -0.36571097, -0.60403585, -0.33251888, 0.62516916, -7.9038625, 12.158576, 7.31909, 0
669, 3704869217, -0.35110128, -0.57861215, -0.31955564, 0.66319627, -2.614714, 10.717715, 6.8257103, 0
671, 3704902551, -0.32299507, -0.5206671, -0.31132612, 0.72640556, 2.1894107, 11.945902, 5.2047234, 0
673, 3704935885, -0.29067868, -0.471846, -0.29656827, 0.7777683, 7.314462, 13.422935, 3.9743862, 0
676, 3704985886, -0.25769505, -0.4222951, -0.28490958, 0.8210333, 10.157136, 7.877473, 0.40219116, 0
677, 3705002553, -0.25784767, -0.41003633, -0.28467312, 0.82725763, 7.918222, 5.1093564, -0.9687481, 0
680, 3705052554, -0.261527, -0.40919176, -0.30086613, 0.8207644, 23.397146, 20.929537, 0.07055473, 0
682, 3705085888, -0.25878587, -0.40902576, -0.31864133, 0.8149875, -1.6065425, 7.308841, -3.786211, 0
683, 3705102555, -0.24518895, -0.41954118, -0.32679585, 0.8106054, -2.7093537, 7.5487514, -4.5539393, 0
684, 3705119222, -0.2410916, -0.42522824, -0.30922472, 0.8157482, 2.345232, -15.613972, 9.233, 0
687, 3705169223, -0.25021148, -0.42203367, -0.29912114, 0.81842375, -0.9746897, -1.9183941, 0.6157694, 0
688, 3705185890, -0.25876874, -0.41938928, -0.3044772, 0.8151405, 0.28901288, -1.0489482, 1.7506618, 0
690, 3705219224, -0.28208232, -0.41081163, -0.32444823, 0.80399364, 1.308747, -2.602563, 1.5499926, 0
691, 3705235891, -0.292293, -0.4033323, -0.33947608, 0.7979054, -1.9960091, 0.016969327, 3.1347666, 0
694, 3705285892, -0.2830117, -0.38621733, -0.36031836, 0.8005749, 0.673135, -5.9630165, -3.375177, 0
695, 3705302559, -0.27867252, -0.3847537, -0.3563823, 0.804554, 2.9158397, -3.581784, -3.5223365, 0
696, 3705319226, -0.27965084, -0.38765478, -0.3541972, 0.80378646, 10.522018, 3.2685695, -5.338427, 0
698, 3705352560, -0.28587723, -0.3994168, -0.3460765, 0.79936266, 0.17506996, 1.1887205, -6.2396135, 0
700, 3705385894, -0.28641257, -0.42958435, -0.32056218, 0.79415, 5.843779, -2.313357, 4.817214, 0
702, 3705419228, -0.2898671, -0.43488652, -0.31830502, 0.79091185, 2.2493863, -2.9472163, 2.9603987, 0
703, 3705435895, -0.2895019, -0.43667746, -0.31966662, 0.7895085, 0.86674064, 2.1302223, 3.16086, 0
704, 3705452562, -0.28915966, -0.43958685, -0.3215139, 0.78726625, 0.2181377, 1.1802325, 0.28669834, 0
707, 3705502563, -0.28659338, -0.45189628, -0.32600835, 0.7793468, -1.2997016, -0.6776696, -0.8870516, 0
710, 3705552564, -0.28108928, -0.4589408, -0.3303547, 0.77539474, 0.21360607, -0.010802381, 0.13797188, 0
711, 3705569231, -0.27986175, -0.46187496, -0.33159208, 0.7735662, 0.22332665, 0.35939252, 0.26902485, 0
714, 3705619232, -0.27758294, -0.46666503, -0.33212206, 0.7712817, -0.61251444, -0.38653404, 0.56776524, 0
715, 3705635899, -0.27719197, -0.4661427, -0.3308968, 0.77226406, -1.2383888, -0.77399075, -0.90531254, 0
717, 3705669233, -0.27572936, -0.46405995, -0.32853767, 0.7750443, -0.4981763, -1.4343868, -0.25015926, 0
718, 3705685900, -0.27510026, -0.46089652, -0.32617658, 0.7781465, -1.1447829, -2.1058729, 0.12119198, 0
721, 3705735901, -0.2747243, -0.44019806, -0.32023638, 0.79259694, 0.2000631, -0.042956956, 1.1170454, 0
722, 3705752568, -0.2742069, -0.42997628, -0.3199265, 0.7984906, -0.44863018, -2.2992861, -2.265977, 0
723, 3705769235, -0.2719354, -0.4198653, -0.3214375, 0.8040218, -0.61677504, -3.108034, -1.7735252, 0
725, 3705802569, -0.27052683, -0.4055302, -0.32146767, 0.8118055, 0.6841355, -1.4311693, 0.6778641, 0
729, 3705869237, -0.276853, -0.382298, -0.31377372, 0.8238665, -0.9255619, -1.0381149, -0.27002048, 0
730, 3705885904, -0.27819943, -0.37743643, -0.31297734, 0.8259546, -0.099925265, -2.1253328, -1.3409271, 0
731, 3705902571, -0.2798625, -0.3733724, -0.31089264, 0.82802474, 1.605378, -1.1374902, 0.63949966, 0
734, 3705952572, -0.28856617, -0.367963, -0.3004782, 0.83129704, -0.4917379, 0.89732575, 1.9535542, 0
736, 3705985906, -0.2999516, -0.36657456, -0.28766948, 0.83241063, -1.4859254, -0.070316896, -1.111764, 0
737, 3706002573, -0.30494273, -0.36767188, -0.28309673, 0.83168054, 0.49448475, 0.14810394, -0.40732956, 0
738, 3706019240, -0.30890596, -0.37008935, -0.27988747, 0.83023065, 3.2274184, -0.22497529, 0.43952847, 0
741, 3706069241, -0.3215149, -0.37857443, -0.26319265, 0.8270719, -2.0174167, 0.3326542, -0.0048570633, 0
742, 3706085908, -0.32783374, -0.3815589, -0.25584507, 0.8255241, -2.6613414, 1.0206856, -0.6718445, 0
744, 3706119242, -0.34378484, -0.38723862, -0.24629346, 0.8192721, -0.61470675, 0.2776706, -0.91822815, 0
748, 3706185910, -0.376988, -0.40227795, -0.2535803, 0.7948324, -1.5678147, 0.24558206, 0.10243225, 0
749, 3706202577, -0.38172477, -0.40381303, -0.25530386, 0.7912333, -0.81145453, 0.73716193, 0.5840235, 0
750, 3706219244, -0.3863162, -0.40265965, -0.2572515, 0.7889586, -1.5998013, -1.1113979, -1.6588097, 0
752, 3706252578, -0.3872488, -0.399424, -0.25983664, 0.78929895, -1.2411706, 1.0085466, 1.635354, 0
754, 3706285912, -0.37892663, -0.3859136, -0.26053828, 0.7997587, -1.3662013, -1.290957, -1.8991466, 0
756, 3706319246, -0.37756842, -0.37354583, -0.25098664, 0.8092716, -3.712123, -2.935073, -0.33895206, 0
757, 3706335913, -0.37763843, -0.3656817, -0.24523082, 0.8145776, -2.3483312, -1.6607654, 2.4449453, 0
758, 3706352580, -0.3777538, -0.3602943, -0.24187273, 0.81792223, -0.01856074, -5.1210413, 0.16245747, 0
761, 3706402581, -0.37259534, -0.3612595, -0.25376207, 0.8162586, 0.38540003, -4.9166746, -5.0535474, 0
763, 3706435915, -0.37518573, -0.35659137, -0.25558284, 0.8165566, 1.533469, -2.3343806, -0.5000105, 0
765, 3706469249, -0.38168564, -0.34341764, -0.25220868, 0.82023174, 3.580395, 1.5597053, -1.3613205, 0
768, 3706519250, -0.38093835, -0.31726584, -0.25511235, 0.8301537, 1.1143737, -9.937499, 1.2416153, 0
769, 3706535917, -0.38080496, -0.31148347, -0.2573221, 0.83172107, 1.7418007, -4.4272103, 3.22892, 0
771, 3706569251, -0.38124317, -0.3024622, -0.25806242, 0.83461535, -0.9368277, 0.19110224, 3.5724812, 0
772, 3706585918, -0.3834393, -0.29908848, -0.2566757, 0.83525264, 0.640673, 0.5684373, 1.2044172, 0
775, 3706635919, -0.39469308, -0.29132354, -0.25287834, 0.833912, 5.7126293, 6.437971, -0.6142559, 0
776, 3706652586, -0.39764202, -0.28959432, -0.2523026, 0.83328766, 5.415303, 4.3960357, -0.54247665, 0
777, 3706669253, -0.40105134, -0.28925902, -0.2509416, 0.8321805, 3.5887191, 4.437658, -1.0911331, 0
779, 3706702587, -0.4081373, -0.29133105, -0.24545509, 0.8296453, -0.3176769, 5.933729, -0.3891554, 0
781, 3706735921, -0.41459447, -0.29388142, -0.23666103, 0.8280975, -0.67247516, 3.1193209, -1.4900331, 0
783, 3706769255, -0.41895145, -0.29417902, -0.22907075, 0.8279336, -2.112982, 0.9591963, -0.46671104, 0
784, 3706785922, -0.41960624, -0.29473254, -0.2272552, 0.8279053, 0.4533623, 2.3021424, -0.1290741, 0
785, 3706802589, -0.41986918, -0.29541314, -0.2263912, 0.8277661, 1.6211642, 2.9224894, 0.20877743, 0
788, 3706852590, -0.41921502, -0.29752126, -0.22256191, 0.828381, -1.5520967, 0.5313531, 0.9838562, 0
789, 3706869257, -0.41858637, -0.29765934, -0.22094892, 0.8290807, -2.5389915, -0.61492574, 0.63731956, 0
791, 3706902591, -0.41584405, -0.29842398, -0.22051577, 0.8303004, -0.018383047, 0.70935047, -0.6604538, 0
792, 3706919258, -0.41371349, -0.29850072, -0.2207074, 0.8312855, 0.013760799, -1.2301425, 0.32886314, 0
795, 3706969259, -0.40879017, -0.29835674, -0.21980685, 0.834007, -2.054507, -1.0984738, 0.6415005, 0
796, 3706985926, -0.40704536, -0.29890975, -0.2191004, 0.83484787, -0.96940863, 0.35123417, -1.1702328, 0
799, 3707035927, -0.40296906, -0.30005035, -0.21752991, 0.83682466, -0.78462124, 0.020262567, 0.3885765, 0
802, 3707085928, -0.3977227, -0.30072725, -0.21886697, 0.8387408, 0.41150132, 0.74926215, 1.4611769, 0
803, 3707102595, -0.39674687, -0.30140185, -0.21905081, 0.8389126, -0.47741193, 0.36836746, 0.75921917, 0
804, 3707119262, -0.39599758, -0.30254766, -0.21888012, 0.83889884, -1.0446895, -0.15705787, -0.47198963, 0
806, 3707152596, -0.39431602, -0.3048163, -0.21883334, 0.83888197, -0.82145715, -1.1403141, -0.47317123, 0
808, 3707185930, -0.3923657, -0.3062669, -0.21887784, 0.83925635, -0.1831606, 0.046896707, 0.5456352, 0
810, 3707219264, -0.38926256, -0.3087775, -0.22127132, 0.83915377, 0.16692975, -0.07051867, -0.19176674, 0
811, 3707235931, -0.38813806, -0.3103305, -0.22204775, 0.8388967, -1.5882486, -2.0750043, -1.4940443, 0
812, 3707252598, -0.3868012, -0.3127418, -0.2231583, 0.8383238, -1.128611, 0.6302692, -0.34284592, 0
815, 3707302599, -0.38368818, -0.31799433, -0.22350065, 0.837687, 0.37282062, -0.5012693, -0.47219276, 0
818, 3707352600, -0.3798262, -0.321007, -0.22476381, 0.83795977, -0.69850713, -0.8839748, -0.67721176, 0
819, 3707369267, -0.37847117, -0.32204518, -0.2257961, 0.837897, -0.29274362, 0.12732583, 0.68581104, 0
822, 3707419268, -0.37363708, -0.32566583, -0.22957113, 0.83764154, -0.072856285, -0.32272556, -0.365736, 0
823, 3707435935, -0.37234807, -0.32760093, -0.23081124, 0.8371198, -0.35383284, -1.0396023, -0.9704361, 0
825, 3707469269, -0.37048095, -0.33019745, -0.23186184, 0.8366376, -0.66954905, -0.42169434, -1.4120722, 0
826, 3707485936, -0.3690336, -0.33274537, -0.23332006, 0.83586216, 0.7989245, 0.8838842, -0.75560284, 0
829, 3707535937, -0.36718854, -0.33495322, -0.23431517, 0.8355145, -0.73235595, 0.0023416334, 0.07739258, 0
830, 3707552604, -0.36665317, -0.33605173, -0.23442343, 0.83527803, -0.2770291, -0.17245612, 0.17989159, 0
831, 3707569271, -0.36614951, -0.33864534, -0.23540549, 0.8341745, 0.49670133, 0.6594097, -1.572772, 0
833, 3707602605, -0.36471033, -0.34171566, -0.23673835, 0.83317506, 0.010383741, -0.03324543, -1.4971685, 0
837, 3707669273, -0.3641188, -0.3429032, -0.23401603, 0.83371496, -0.91609746, -0.61986315, -0.17998695, 0
838, 3707685940, -0.36398047, -0.34361783, -0.23340711, 0.8336516, 0.102123514, -0.4792967, -1.1233215, 0
839, 3707702607, -0.36383146, -0.34542438, -0.23336995, 0.83298033, 0.7437523, -0.09416679, -0.72787285, 0
842, 3707752608, -0.3626477, -0.3482434, -0.23196514, 0.8327149, -0.6724929, -0.3516261, 0.5006161, 0
844, 3707785942, -0.36217812, -0.3534723, -0.2333916, 0.8303142, -1.1113582, -1.0825862, -1.5435238, 0
845, 3707802609, -0.36147043, -0.3550674, -0.23426701, 0.8296952, -0.3223, 0.24033767, 0.86613464, 0
846, 3707819276, -0.36110818, -0.35496473, -0.23392162, 0.82999426, -0.35112745, -0.5505136, 0.2482996, 0
849, 3707869277, -0.361234, -0.35814488, -0.23428878, 0.82846856, -0.6497534, -2.5255625, -0.72486687, 0
850, 3707885944, -0.36104673, -0.36389825, -0.23751725, 0.82511675, -0.36407712, -2.7129636, 0.8400154, 0
852, 3707919278, -0.3595639, -0.37607604, -0.24406269, 0.81836593, -2.945354, -3.6912951, -1.3680601, 0
856, 3707985946, -0.35497683, -0.4063816, -0.26145256, 0.80031055, -2.238332, -4.7181687, -0.13501167, 0
857, 3708002613, -0.35474482, -0.4175048, -0.27045068, 0.79165107, -2.4077334, -5.7059817, -4.751852, 0
858, 3708019280, -0.35494626, -0.4267674, -0.27715164, 0.7842696, -0.19430831, -1.6353414, -1.306139, 0
860, 3708052614, -0.3586459, -0.42373598, -0.27712756, 0.7842387, -0.81645495, -2.781696, 1.4405279, 0
862, 3708085948, -0.37127095, -0.4173149, -0.27473783, 0.7826457, -0.9891919, -3.0188322, 4.0478983, 0
864, 3708119282, -0.39751652, -0.4066207, -0.27949515, 0.7736482, 1.5293269, -1.623637, -0.8402672, 0
865, 3708135949, -0.41164905, -0.3994777, -0.28033465, 0.76966494, -0.19837467, -4.023632, -2.4501548, 0
866, 3708152616, -0.4210372, -0.3919142, -0.2783412, 0.76919836, 1.6472859, -2.5368197, -4.1047053, 0
869, 3708202617, -0.43733957, -0.35719335, -0.24714804, 0.7874478, -2.7090492, -1.607809, -0.5204773, 0
870, 3708219284, -0.44081306, -0.34502444, -0.23497033, 0.7946317, -2.0572948, -2.0121682, 2.9663534, 0
872, 3708252618, -0.44472474, -0.32540795, -0.21508859, 0.80627245, -0.38956743, -1.0057677, 0.24048519, 0
876, 3708319286, -0.43992543, -0.31089684, -0.19898441, 0.81867146, 2.5342267, 9.4787245, 2.1960182, 0
877, 3708335953, -0.43728074, -0.30982915, -0.19755106, 0.82083744, 3.314908, 5.7015605, 1.0790997, 0
879, 3708369287, -0.43123424, -0.30765298, -0.19509217, 0.82543004, 0.7007331, 7.2916574, -2.5251884, 0
880, 3708385954, -0.42777446, -0.306801, -0.19378014, 0.82785285, -1.4846721, 9.446019, -0.61631393, 0
883, 3708435955, -0.41643322, -0.304331, -0.19084847, 0.8351956, 1.2313209, 2.6467636, -0.29842663, 0
884, 3708452622, -0.41246837, -0.3018927, -0.1901979, 0.83819103, -0.4660357, 1.0953455, 0.32871056, 0
885, 3708469289, -0.40765968, -0.29934525, -0.19114138, 0.84123707, -0.4852592, 3.0711834, -1.8884125, 0
887, 3708502623, -0.3964309, -0.29505315, -0.19644651, 0.8468789, 0.8960849, 0.20592551, 0.08720875, 0
891, 3708569291, -0.37732992, -0.29121625, -0.2039279, 0.85512435, -0.8148226, 0.104884684, 0.09130192, 0
892, 3708585958, -0.37430388, -0.29022178, -0.20523974, 0.8564775, 0.3089385, 0.6066545, -0.45696354, 0
893, 3708602625, -0.37204707, -0.2896343, -0.20655502, 0.85734296, 1.6676325, -0.23397794, -1.4505777, 0
896, 3708652626, -0.36959898, -0.28995448, -0.20639625, 0.85833126, 0.5344206, -0.52655315, 0.5816288, 0
898, 3708685960, -0.36887875, -0.28961417, -0.20655906, 0.8587167, -0.013704026, -0.50969696, 0.38462353, 0
899, 3708702627, -0.368011, -0.2891201, -0.20747672, 0.8590343, 0.71518445, -1.2638754, -1.039834, 0
900, 3708719294, -0.36736488, -0.28864476, -0.20816758, 0.8593034, 1.9056938, 0.012595737, -1.2129421, 0
903, 3708769295, -0.3666402, -0.2885917, -0.20656978, 0.8600161, -0.93090117, 1.0313808, -0.7811594, 0
904, 3708785962, -0.3656541, -0.28837994, -0.20677885, 0.86045665, -0.094222, 1.4390148, -0.5791416, 0
906, 3708819296, -0.36182803, -0.28718218, -0.20930775, 0.8618619, 0.6159697, 1.4658432, 1.3295994, 0
910, 3708885964, -0.35359418, -0.28691286, -0.21851721, 0.86308247, 0.18725446, -1.5406148, -1.3033867, 0
911, 3708902631, -0.35264653, -0.2866269, -0.21939293, 0.863343, -0.424183, 0.15563385, -0.21159077, 0
912, 3708919298, -0.3519032, -0.28541163, -0.21981099, 0.86394244, -1.5921215, -0.840243, 0.20080662, 0
914, 3708952632, -0.35006085, -0.28296608, -0.22227027, 0.8648656, 3.5220697, -0.4575469, 0.2664814, 0
916, 3708985966, -0.34891644, -0.27968252, -0.22673403, 0.86523736, 0.9501701, -0.8380813, 0.4931717, 0
918, 3709019300, -0.3477494, -0.27717644, -0.23133783, 0.8652948, 2.3536448, 0.6372172, -0.24173832, 0
919, 3709035967, -0.34824616, -0.27583548, -0.23222809, 0.8652851, 0.6390035, 0.5222054, 0.3918562, 0
920, 3709052634, -0.3489648, -0.27451944, -0.23252559, 0.86533415, 0.24603423, 0.40552893, 1.2201862, 0
923, 3709102635, -0.3539573, -0.27271008, -0.23063807, 0.86438334, 1.9930934, 1.5433034, -2.0138516, 0
925, 3709135969, -0.35770488, -0.27466944, -0.22963122, 0.862486, -0.17388783, 1.6185843, -0.2897997, 0
927, 3709169303, -0.36180916, -0.27535126, -0.22777453, 0.86104786, -0.3389754, -1.4760454, 1.3772268, 0
930, 3709219304, -0.3664593, -0.27505192, -0.22608978, 0.8596199, 1.8731723, 1.0363855, -0.27213955, 0
931, 3709235971, -0.3674184, -0.27562946, -0.22634305, 0.8589587, 0.6611436, 1.7880095, -1.017271, 0
933, 3709269305, -0.3685043, -0.2769971, -0.22692925, 0.8578982, -0.57786703, -0.047832444, 0.06514263, 0
934, 3709285972, -0.3687403, -0.27726597, -0.22698781, 0.85769457, -0.82303417, -1.8150526, 0.5193243, 0
937, 3709335973, -0.3707617, -0.27753007, -0.22620296, 0.8569446, 0.5902614, 0.63297194, -0.483346, 0
938, 3709352640, -0.370611, -0.27758145, -0.22638696, 0.8569445, 0.24820308, 0.24188739, -0.36363888, 0
939, 3709369307, -0.3703946, -0.27724153, -0.22682212, 0.8570331, 0.38105494, 0.16319753, 0.7335949, 0
941, 3709402641, -0.37037092, -0.27662477, -0.22861302, 0.85676664, 0.41907585, 0.34794372, 0.8064871, 0
943, 3709435975, -0.37008622, -0.2770599, -0.23077051, 0.8561707, 0.65591383, -0.43872017, -1.3844709, 0
946, 3709485976, -0.37053126, -0.27746916, -0.23285504, 0.8552806, -0.054408975, 0.6741088, -0.095261574, 0
947, 3709502643, -0.37095708, -0.27845603, -0.23334612, 0.85464114, 1.354107, 1.3362571, 1.23911, 0
950, 3709552644, -0.37460446, -0.28314662, -0.2341512, 0.8512824, -0.39822644, -3.365515, -0.09405136, 0
951, 3709569311, -0.3760679, -0.28589457, -0.23508345, 0.84945977, 0.6470454, -3.8601527, -2.1119308, 0
953, 3709602645, -0.37996188, -0.29250228, -0.2367942, 0.84499043, -1.5524576, -1.0239146, -0.111231804, 0
954, 3709619312, -0.38193864, -0.29620972, -0.2383189, 0.8423751, -0.18855105, -0.23914713, 2.025879, 0
957, 3709669313, -0.38311678, -0.31293014, -0.24909395, 0.8326209, -0.4693695, -6.747696, -2.1863961, 0
958, 3709685980, -0.38206774, -0.32326725, -0.2573213, 0.82663006, 0.15270606, -3.5211618, -0.54674816, 0
960, 3709719314, -0.3780095, -0.3443346, -0.2743604, 0.81441873, 0.38773686, 0.60359323, -3.0159788, 0
961, 3709735981, -0.37725663, -0.35019955, -0.27764454, 0.81114745, -0.1991411, 1.9033778, 3.210557, 0
964, 3709785982, -0.38533378, -0.34643477, -0.27080584, 0.81127924, 4.071398, 0.41308054, 2.6432858, 0
965, 3709802649, -0.38729572, -0.35039926, -0.2729253, 0.8079252, 4.795778, -1.28944, 4.845911, 0
966, 3709819316, -0.38880116, -0.3570084, -0.2769966, 0.80290747, 1.5381813, -3.3766286, -5.5225954, 0
968, 3709852650, -0.3945786, -0.3637507, -0.2781673, 0.7966334, 1.196511, 4.7961965, 0.6007376, 0
970, 3709885984, -0.3990596, -0.3372749, -0.26425114, 0.81066483, -3.1550796, -5.8872066, -4.6468754, 0
972, 3709919318, -0.4012723, -0.31727386, -0.25716513, 0.81987375, 2.7872648, -6.7437773, 2.7436323, 0
973, 3709935985, -0.40097263, -0.31307474, -0.25617963, 0.8219404, 2.2946336, -1.5993278, 2.6301003, 0
974, 3709952652, -0.40089086, -0.3091438, -0.25418007, 0.8240862, -1.7419707, 0.5595613, 0.42926025, 0
977, 3710002653, -0.40654296, -0.2839311, -0.23201239, 0.83683044, 5.213029, 7.8960004, 8.834133, 0
980, 3710052654, -0.4061522, -0.28245303, -0.22637615, 0.83906096, 3.845987, 6.273207, -8.120427, 0
981, 3710069321, -0.40567338, -0.28347945, -0.22394514, 0.8395987, -3.2038503, 5.1075716, -9.28558, 0
984, 3710119322, -0.40254736, -0.28185317, -0.21649593, 0.8435952, 4.699642, 8.644044, 4.7134037, 0
985, 3710135989, -0.40143138, -0.28336367, -0.2152545, 0.84393865, 2.7903116, 7.859351, 4.18995, 0
987, 3710169323, -0.39796153, -0.29024294, -0.21545844, 0.8431917, -0.66087383, -0.21355964, -3.291225, 0
988, 3710185990, -0.39463758, -0.29507077, -0.2176787, 0.84250784, -1.6879654, -0.7051817, -4.452823, 0
991, 3710235991, -0.38275212, -0.3043114, -0.22469525, 0.84286195, 1.2738895, 2.449259, 0.62409496, 0
992, 3710252658, -0.37881297, -0.3077918, -0.22728126, 0.84268445, 0.6277977, 1.0285071, 0.09188557, 0
993, 3710269325, -0.37488773, -0.3116033, -0.2301919, 0.84224886, -0.8047336, -0.2859484, 0.22296906, 0
995, 3710302659, -0.36615974, -0.31918684, -0.23635945, 0.84154016, -1.8386563, -0.70944, -0.1212883, 0
999, 3710369327, -0.3466515, -0.32608944, -0.25256532, 0.8424476, 0.23768513, -2.3290675, -0.47392845, 0
1000, 3710385994, -0.3411401, -0.32746148, -0.25806075, 0.84249985, 0.5055777, -0.94373375, 0.1458292, 0
1001, 3710402661, -0.33581066, -0.32918936, -0.2633758, 0.8423227, -0.9065123, -1.0896491, -0.26131535, 0
1004, 3710452662, -0.32015675, -0.33640602, -0.28063682, 0.8399897, -0.6156809, -1.2889264, 0.25705624, 0
1006, 3710485996, -0.3090179, -0.34415397, -0.29401603, 0.83643854, 4.7042565, -2.700204, -0.15906811, 0
1007, 3710502663, -0.30186024, -0.347596, -0.30153763, 0.83495003, 1.1507272, 0.87166977, -0.03311348, 0
1008, 3710519330, -0.29397556, -0.3522719, -0.30884677, 0.8331298, 0.29658738, -1.7163333, 0.24043274, 0
1011, 3710569331, -0.26559773, -0.37074634, -0.334304, 0.82477564, 1.0841463, 0.36133617, 0.8082237, 0
1012, 3710585998, -0.2590473, -0.37799788, -0.3403227, 0.82109773, 0.6405803, -0.53394574, -2.1384382, 0
1014, 3710619332, -0.2451914, -0.3929059, -0.35008943, 0.814219, 3.039138, -5.9613132, -1.0043354, 0
1018, 3710686000, -0.20837046, -0.4126995, -0.36548507, 0.80789274, 1.0039024, 0.26581872, 0.6640692, 0
1019, 3710702667, -0.20209819, -0.42104167, -0.3661189, 0.8048889, -0.6745575, 0.507208, -0.7532177, 0
1020, 3710719334, -0.19549832, -0.43073085, -0.36816964, 0.80044466, -0.9619993, 0.6844792, 0.22183895, 0
1022, 3710752668, -0.18315086, -0.45045292, -0.3729132, 0.7902484, 3.6575518, 1.6017582, 0.1382227, 0
1024, 3710786002, -0.16844964, -0.46951962, -0.37443033, 0.7816567, 2.1601548, 1.4319918, -0.22038937, 0
1026, 3710819336, -0.15812482, -0.48824972, -0.37965387, 0.7697276, -1.0736076, -4.812387, -2.7661953, 0
1027, 3710836003, -0.15536126, -0.50014323, -0.38099778, 0.761951, -0.334109, 1.9011132, 2.141263, 0
1028, 3710852670, -0.1472497, -0.5110497, -0.37997723, 0.756817, 0.47895327, 3.802605, 0.69550705, 0
1031, 3710902671, -0.1298404, -0.5322599, -0.37905866, 0.74576426, -1.1169299, -1.2651856, -8.010864E-4, 0
1032, 3710919338, -0.12653902, -0.5360374, -0.38019544, 0.7430425, -2.2727194, 0.15862547, -1.2675428, 0
1035, 3710969339, -0.1273826, -0.5340858, -0.38872865, 0.7398818, 0.55447453, -3.565425, 1.0441618, 0
1038, 3711019340, -0.121642776, -0.5197921, -0.40708825, 0.7411528, 2.4383435, -0.29722485, 0.4348898, 0
1039, 3711036007, -0.11748279, -0.51420933, -0.41167003, 0.7431846, 1.0968896, -0.35826635, -0.31441402, 0
1041, 3711069341, -0.10939688, -0.50850075, -0.41828322, 0.7446527, -0.82005906, 0.3682642, -2.468635, 0
1042, 3711086008, -0.10449796, -0.5102472, -0.42002884, 0.74317753, 1.679378, 4.228287, 2.2852688, 0
1045, 3711136009, -0.08369066, -0.518171, -0.410116, 0.74586105, 4.123731, -4.55347, 5.7066402, 0
1046, 3711152676, -0.07772961, -0.5128951, -0.40744257, 0.75159585, 2.7441418, -2.581632, 4.77812, 0
1047, 3711169343, -0.07311816, -0.5029861, -0.40185976, 0.7616931, 2.4488096, 0.0046954486, 1.6045103, 0
1049, 3711202677, -0.103098154, -0.4870024, -0.38244438, 0.77842444, 10.908275, -6.1089406, 1.4322739, 0
1051, 3711236011, -0.1885423, -0.47782198, -0.3392388, 0.78807616, 7.722596, -6.301348, -5.5708337, 0
1053, 3711269345, -0.28539637, -0.48253682, -0.31474563, 0.7659315, -4.180622, 1.7246771, -6.8259735, 0
1054, 3711286012, -0.31884438, -0.4889838, -0.3036664, 0.7530132, -9.733844, 2.5930037, -2.909874, 0
1055, 3711302679, -0.3360725, -0.48755378, -0.301271, 0.74738973, -11.205594, 1.7833128, 0.5064144, 0
1058, 3711352680, -0.35080117, -0.4519778, -0.294275, 0.7655494, -2.2426746, -0.08661015, 0.18718529, 0
1060, 3711386014, -0.36178786, -0.41911763, -0.28465182, 0.7825806, 0.28948975, 1.5719335, -2.0926604, 0
1061, 3711402681, -0.3661731, -0.40411457, -0.28418043, 0.78858024, 0.03462858, 3.3495193, -1.8554468, 0
1062, 3711419348, -0.3663151, -0.39027873, -0.2866027, 0.794584, -0.990135, 5.9423385, 2.2531214, 0
1065, 3711469349, -0.36246675, -0.33867908, -0.2812336, 0.82148105, 7.0575724, 12.067227, -2.733015, 0
1066, 3711486016, -0.37059546, -0.3238827, -0.28373447, 0.8229596, 9.249121, 12.928838, -6.625483, 0
1069, 3711536017, -0.38540256, -0.29100597, -0.3403468, 0.8068169, 3.2262287, 23.157028, -1.1518393, 0
1072, 3711586018, -0.4065631, -0.29976597, -0.3619009, 0.7835071, 16.766632, 18.870161, -8.989997, 0
1073, 3711602685, -0.42857885, -0.30881503, -0.3811448, 0.75874305, 8.141275, 23.699657, 2.2424946, 0
1074, 3711619352, -0.45006788, -0.3266786, -0.3901668, 0.73382485, 6.06652, 24.34021, 3.0967388, 0
1076, 3711652686, -0.47283724, -0.37254956, -0.395125, 0.6939143, 13.657877, -12.680654, 2.7975807, 0
1078, 3711686020, -0.47603542, -0.3693428, -0.38803273, 0.69743514, 2.0290432, 1.7179872, 1.0594311, 0
1080, 3711719354, -0.47477546, -0.3665428, -0.39115536, 0.6980265, -1.7271181, -2.007571, 0.27356815, 0
1081, 3711736021, -0.47434255, -0.37179232, -0.3958222, 0.6928948, -0.66049016, -3.0561285, -0.012742043, 0
1082, 3711752688, -0.47321224, -0.38249272, -0.4022181, 0.6841046, -1.3208038, -1.8732682, -0.09067631, 0
1085, 3711802689, -0.45682973, -0.4405442, -0.43554208, 0.6383883, -1.4560832, -2.1588676, -0.4774685, 0
1088, 3711852690, -0.36001796, -0.6559444, -0.4472546, 0.48999625, -8.02153, -14.385598, 26.47337, 0
1089, 3711869357, -0.3562526, -0.7055152, -0.4185532, 0.4473864, -20.104153, -17.426237, 36.442535, 0
1092, 3711919358, -0.30879974, -0.78429997, -0.3793822, 0.38156858, -18.177765, 0.48497885, 11.596081, 0
1093, 3711936025, -0.26129034, -0.81179833, -0.38924894, 0.3481452, -19.939558, -23.775026, 15.235535, 0
1095, 3711969359, -0.18472366, -0.8473364, -0.41398567, 0.27662778, -12.629841, -31.937294, -1.6272612, 0
1096, 3711986026, -0.1584313, -0.8600707, -0.4224199, 0.23821896, -9.67632, -30.2635, -9.218476, 0
1099, 3712036027, -0.13479187, -0.8876276, -0.4198162, 0.13308617, -2.447119, -15.898726, -20.732738, 0
1100, 3712052694, -0.1355427, -0.89463085, -0.41071454, 0.11218997, -3.36511, -11.92165, -21.897438, 0
1101, 3712069361, -0.13570873, -0.90066373, -0.39942524, 0.10419441, -4.0427966, -8.5971155, -22.28852, 0
1103, 3712102695, -0.132336, -0.90887827, -0.37708315, 0.11935297, -4.044705, -2.8422399, -20.978407, 0
1107, 3712169363, -0.15312722, -0.89476305, -0.33759782, 0.24897374, -3.1619263, -7.9997916, -13.969273, 0
1108, 3712186030, -0.17687534, -0.8796512, -0.32831687, 0.29520518, -6.456046, -7.9617505, -10.002364, 0
1109, 3712202697, -0.20090383, -0.85939425, -0.31807888, 0.3462865, -9.84383, -7.1221023, -5.494172, 0
1112, 3712252698, -0.25546443, -0.7662736, -0.29172358, 0.51231736, -1.6445885, -6.138113, 8.005688, 0
1114, 3712286032, -0.30823523, -0.6817137, -0.28407845, 0.5996384, -2.9725313, 2.9219146, 12.370935, 0
1115, 3712302699, -0.3242933, -0.6418656, -0.27296618, 0.6390156, -4.7064424, 8.158082, 13.223164, 0
1116, 3712319366, -0.32690048, -0.6054616, -0.2617539, 0.67679113, -1.001325, 5.9562984, 13.496538, 0
1119, 3712369367, -0.332406, -0.47941083, -0.26799303, 0.76672053, 6.964313, 11.442199, 12.263649, 0
1120, 3712386034, -0.33358085, -0.44531026, -0.26145664, 0.7887154, 6.795667, 12.236633, 8.405426, 0
1122, 3712419368, -0.324329, -0.38895667, -0.2522885, 0.8245502, 9.383236, 8.096884, 4.2526226, 0
1126, 3712486036, -0.2939759, -0.30089357, -0.2424001, 0.87423825, 13.613514, 8.376216, -1.6473494, 0
1127, 3712502703, -0.2949775, -0.282108, -0.23848976, 0.88121223, 11.893272, 8.39156, -4.8829265, 0
1128, 3712519370, -0.30000353, -0.26724187, -0.23468229, 0.8851628, 10.573936, 8.486626, -6.105915, 0
1130, 3712552704, -0.3114162, -0.247366, -0.2322036, 0.88764894, 7.0929503, 8.737648, -7.793954, 0
1132, 3712586038, -0.3150989, -0.24660149, -0.23647529, 0.8854314, 3.419781, 7.744649, -6.4517007, 0
1134, 3712619372, -0.31205764, -0.2594987, -0.2346881, 0.88329554, 3.4428275, 6.243658, -3.179153, 0
1135, 3712636039, -0.3093506, -0.26526108, -0.23369539, 0.88279915, 4.2694016, 5.650321, -2.415182, 0
1136, 3712652706, -0.30698496, -0.2697723, -0.2329794, 0.88244724, 4.317478, 5.7833076, -2.0712423, 0
1139, 3712702707, -0.30151072, -0.28893083, -0.23116119, 0.87873995, 1.5416721, 6.2987294, -3.448412, 0
1141, 3712736041, -0.2879239, -0.30315003, -0.23837379, 0.87657666, 4.0937505, 6.7737403, 0.31100368, 0
1142, 3712752708, -0.28366882, -0.30818176, -0.23926912, 0.8759655, 4.6913013, 5.9594994, -1.1472416, 0
1143, 3712769375, -0.28245008, -0.31267488, -0.24305925, 0.87372065, 5.8485966, 4.6013637, -2.1289883, 0
1146, 3712819376, -0.28294596, -0.33136177, -0.26880836, 0.85900646, 2.1166883, 5.425543, -0.5491886, 0
1147, 3712836043, -0.28123915, -0.34113935, -0.27135313, 0.85492986, 2.2907782, 5.4639897, 1.0631638, 0
1149, 3712869377, -0.27495575, -0.3553508, -0.2822445, 0.84762764, 5.0505347, 4.21451, -1.2780228, 0
1153, 3712936045, -0.2552246, -0.42136937, -0.31416726, 0.81155187, 12.623417, 16.550552, 3.7003622, 0
1154, 3712952712, -0.25908542, -0.44364208, -0.29176283, 0.8068087, 13.376816, -0.34582862, 18.235617, 0
1155, 3712969379, -0.26069918, -0.45115292, -0.28914508, 0.80305743, 8.476972, -3.2301764, 1.1889372, 0
1157, 3713002713, -0.2513939, -0.47741908, -0.28269988, 0.7930714, -1.943231, -6.9650354, 0.96602535, 0
1161, 3713069381, -0.24064061, -0.5030737, -0.29125112, 0.7772973, 0.12703057, -1.8878052, -0.16830635, 0
1162, 3713086048, -0.23918833, -0.51464796, -0.29982135, 0.7668395, 0.95495397, -1.1603956, 0.14355373, 0
1163, 3713102715, -0.23646292, -0.5282375, -0.31040367, 0.7541281, -0.31209224, -0.8381756, -0.056632996, 0
1166, 3713152716, -0.21475884, -0.5887114, -0.3453664, 0.69859076, -0.87140775, -1.7051845, 0.27604866, 0
1167, 3713169383, -0.20119284, -0.6154823, -0.3568668, 0.673319, -1.0852704, -1.7887586, 0.28696632, 0
1169, 3713202717, -0.14610268, -0.7056264, -0.3522058, 0.59724844, 0.71154743, -2.4886014, 4.5324554, 0
1170, 3713219384, -0.10722865, -0.76223403, -0.33896196, 0.5409394, -11.055497, -12.637286, 12.638336, 0
1173, 3713269385, -0.056619424, -0.8088801, -0.35367233, 0.46629658, -16.676653, 24.614914, 26.380592, 0
1174, 3713286052, -0.0118981, -0.82739383, -0.3506564, 0.43855166, -16.081573, -11.710897, 15.868559, 0
1176, 3713319386, 0.012015726, -0.8533995, -0.35875493, 0.3779805, -12.273994, -27.469881, -2.7179785, 0
1180, 3713386054, -0.022443598, -0.89710456, -0.3492721, 0.26966277, -15.2683935, -10.980571, -12.890889, 0
1181, 3713402721, -0.02431024, -0.904285, -0.3442151, 0.25140196, -13.760647, -9.289603, -15.410868, 0
1182, 3713419388, -0.025221772, -0.90885854, -0.33914718, 0.24151231, -11.007966, -8.631096, -16.772001, 0
1184, 3713452722, -0.032433208, -0.91194975, -0.32464078, 0.24882352, -7.972515, -7.0920644, -16.52638, 0
1186, 3713486056, -0.04943442, -0.9062159, -0.30393502, 0.28976163, -6.0747356, -4.8916802, -14.208624, 0
1188, 3713519390, -0.075140305, -0.8891071, -0.28082585, 0.35353738, -8.7460575, -5.68174, -9.360648, 0
1189, 3713536057, -0.0925919, -0.87297946, -0.27273947, 0.3936447, -7.915318, -6.3282194, -6.2453446, 0
1190, 3713552724, -0.1144688, -0.8511358, -0.26658764, 0.43749863, -7.0143595, -6.616392, -2.6011066, 0
1193, 3713602725, -0.17365421, -0.7631404, -0.24411178, 0.572608, -1.6390456, 0.059894096, 2.853138, 0
1195, 3713636059, -0.19647256, -0.69400936, -0.23343258, 0.6521259, -0.66887134, -0.5401805, 10.646954, 0
1197, 3713669393, -0.21591239, -0.61890185, -0.223367, 0.72142833, 4.711381, 1.9076556, 8.578386, 0
1200, 3713719394, -0.23568809, -0.5096677, -0.22284183, 0.79689443, 5.3009586, -0.9570921, 8.117041, 0
1201, 3713736061, -0.2416759, -0.47384256, -0.21992566, 0.8177458, 5.751366, 1.5562351, 8.680273, 0
1203, 3713769395, -0.25036368, -0.4026114, -0.20284379, 0.8567881, 6.110747, 4.476285, 7.975321, 0
1204, 3713786062, -0.25209543, -0.36733586, -0.19201002, 0.87444466, 7.018886, 4.213124, 4.9296846, 0
1207, 3713836063, -0.2485643, -0.2746619, -0.16332543, 0.91439104, 8.78019, 6.8386593, 3.4250374, 0
1208, 3713852730, -0.24757779, -0.24882147, -0.15325493, 0.92375076, 10.192518, 8.298486, 2.6073923, 0
1209, 3713869397, -0.24846894, -0.22439088, -0.14480132, 0.9311035, 10.908149, 7.724588, -0.94745064, 0
1211, 3713902731, -0.25275606, -0.18537161, -0.13781439, 0.93955743, 8.890867, 8.346525, -3.8283458, 0
1213, 3713936065, -0.25553402, -0.16350314, -0.13207923, 0.9436808, 7.285083, 7.4169035, -5.0434265, 0
1216, 3713986066, -0.252764, -0.15385813, -0.1260703, 0.9468652, 6.999132, 4.0398364, -5.47016, 0
1217, 3714002733, -0.25185305, -0.15429926, -0.12740536, 0.9468573, 6.7437615, 3.5161395, -6.1240764, 0
1220, 3714052734, -0.25306702, -0.16993389, -0.13878138, 0.94224644, 6.0039153, 3.0594525, -5.682426, 0
1222, 3714086068, -0.25661284, -0.18642798, -0.15389024, 0.9358, 5.7953687, 4.834071, -4.2349544, 0
1223, 3714102735, -0.25946543, -0.19477166, -0.16080216, 0.9321446, 5.30795, 5.4127135, -3.9672132, 0
1224, 3714119402, -0.26207843, -0.2037879, -0.16630362, 0.9285137, 4.65855, 5.5148134, -4.0466304, 0
1227, 3714169403, -0.2643438, -0.24248481, -0.1787476, 0.9161779, 3.4133337, 3.578396, -3.0034647, 0
1228, 3714186070, -0.263054, -0.25829026, -0.18591243, 0.91078794, 3.5786068, 4.129491, -1.0841331, 0
1230, 3714219404, -0.26490507, -0.28836474, -0.19459218, 0.89934087, 3.3477852, 2.8587346, 1.8542318, 0
1231, 3714236071, -0.2681046, -0.29971135, -0.19782573, 0.89396155, 3.4613967, 1.0101773, 0.60484695, 0
1234, 3714286072, -0.2818816, -0.33034855, -0.22024468, 0.87344944, 2.6520166, 2.5856233, 1.5917082, 0
1235, 3714302739, -0.28828463, -0.3386531, -0.22739825, 0.8663171, 2.4401524, 3.6526344, 1.737401, 0
1236, 3714319406, -0.29506108, -0.34525472, -0.23495078, 0.8593868, 2.6334388, 4.554567, 2.9650908, 0
1238, 3714352740, -0.30507487, -0.35040975, -0.25203398, 0.8488996, 0.68275875, 3.9770157, -1.3469181, 0
1240, 3714386074, -0.30887365, -0.35801673, -0.27209294, 0.83809054, 2.3619647, 3.7980394, 1.9065542, 0
1242, 3714419408, -0.31530473, -0.36249483, -0.29056954, 0.8275017, 3.988642, 6.843936, -6.1029005, 0
1243, 3714436075, -0.31565964, -0.37302753, -0.30407614, 0.81777525, 3.844834, 11.127386, -6.3252044, 0
1244, 3714452742, -0.32518578, -0.39218304, -0.30354294, 0.8051817, 17.493856, 14.168995, 16.446077, 0
1247, 3714502743, -0.342093, -0.40146062, -0.2857738, 0.8000903, 0.6203778, -1.5438125, 1.3541155, 0
1250, 3714552744, -0.3327177, -0.4009936, -0.29109824, 0.8023554, -0.22921298, 0.90351826, 0.155797, 0
1251, 3714569411, -0.32987747, -0.39891788, -0.29281524, 0.8039364, -1.1328169, 0.9453531, -0.22926807, 0
1254, 3714619412, -0.32631558, -0.41768163, -0.30684423, 0.79051626, -0.05205561, -2.7244983, -0.7162523, 0
1255, 3714636079, -0.3240315, -0.4329982, -0.31876224, 0.7784061, 0.3324022, -0.57226634, -0.4153614, 0
1257, 3714669413, -0.32067126, -0.46628428, -0.34843853, 0.7472272, -0.36378992, -0.27352187, 0.0672245, 0
1258, 3714686080, -0.3168223, -0.48886168, -0.36280593, 0.7273368, -1.4714829, 0.0129914675, -0.3835373, 0
1261, 3714736081, -0.25313085, -0.6380199, -0.39105722, 0.61313856, 0.16732582, 0.53389174, 1.009201, 0
1262, 3714752748, -0.21288675, -0.7109524, -0.38189438, 0.5508101, -4.294201, -7.7850413, 9.269358, 0
1263, 3714769415, -0.17499399, -0.7782398, -0.35529387, 0.4873351, -11.73511, -10.833301, 18.46976, 0
1265, 3714802749, -0.16524562, -0.81868917, -0.3082071, 0.45547715, -28.472933, -8.964074, 22.33038, 0
1269, 3714869417, -0.12437514, -0.87206006, -0.28906655, 0.37482253, -18.411127, -20.442795, -1.6453466, 0
1270, 3714886084, -0.11670782, -0.8800839, -0.28971165, 0.35764247, -19.10271, -19.37408, -4.3834395, 0
1271, 3714902751, -0.10845013, -0.8854195, -0.28837687, 0.34802127, -17.333876, -18.501247, -7.6857023, 0
1274, 3714952752, -0.10222315, -0.8880516, -0.27943105, 0.35048875, -9.270227, -12.082059, -12.902594, 0
1276, 3714986086, -0.11147045, -0.87919897, -0.25472444, 0.38692135, -9.6432295, -7.7675776, -9.582081, 0
1277, 3715002753, -0.11726216, -0.8694115, -0.23798631, 0.4168272, -8.742966, -5.2422624, -8.528017, 0
1278, 3715019420, -0.12505428, -0.8549005, -0.22163215, 0.45210078, -8.097954, -4.369125, -6.9269094, 0
1281, 3715069421, -0.17412864, -0.7769536, -0.17611805, 0.5788037, -0.6783632, 1.7844855, -1.2965155, 0
1282, 3715086088, -0.18930696, -0.7442931, -0.16626462, 0.6185111, -0.83836746, 6.6217155, 1.0862484, 0
1284, 3715119422, -0.17932542, -0.67833585, -0.16336119, 0.6935595, 4.046429, 7.654109, 4.546669, 0
1288, 3715186090, -0.1456208, -0.5820691, -0.12874496, 0.7895722, 16.751364, 0.7360469, 17.568266, 0
1289, 3715202757, -0.1348837, -0.5578227, -0.1308313, 0.8084135, 11.3747015, 20.447208, -6.5201664, 0
1290, 3715219424, -0.10575011, -0.5484104, -0.13162416, 0.8189916, 8.910964, 20.182074, -2.1885123, 0
1292, 3715252758, -0.04960186, -0.5315705, -0.14180371, 0.8335906, 7.8433332, -0.17837653, -2.5260096, 0
1294, 3715286092, -0.03474827, -0.5104919, -0.14615573, 0.846663, 2.1720405, 1.9133992, -2.028885, 0
1296, 3715319426, -0.02215802, -0.48725528, -0.14520778, 0.86082226, 2.5845783, 5.162676, -2.3647275, 0
1297, 3715336093, -0.008308038, -0.47591484, -0.1489116, 0.86675864, 3.0921912, 3.6704438, -1.4487686, 0
1298, 3715352760, 0.0044937357, -0.46426603, -0.15170018, 0.87260145, 3.8046372, -0.56148887, -2.0558844, 0
1301, 3715402761, 0.013891421, -0.48771974, -0.18169904, 0.85377455, 21.160467, 5.559506, 6.4470177, 0
1303, 3715436095, 0.006652795, -0.48958424, -0.17315723, 0.8545693, -1.4483889, -1.329293, -4.8967032, 0
1305, 3715469429, 0.005053617, -0.48627794, -0.1639167, 0.8582824, 1.1924157, 1.850664, 5.2460136, 0
1308, 3715519430, -0.021858275, -0.4730551, -0.12763236, 0.8714701, 1.0616113, 0.35221115, 0.5157118, 0
1309, 3715536097, -0.026432224, -0.47274438, -0.118892334, 0.8727472, 2.8670251, -2.4482133, 0.98462677, 0
1311, 3715569431, -0.027412996, -0.47729266, -0.1085706, 0.87158585, 1.115998, -0.091026716, 0.8682728, 0
1312, 3715586098, -0.02639176, -0.48138884, -0.107380345, 0.8695096, -0.26119953, 0.17647862, 0.40817165, 0
1315, 3715636099, -0.022907645, -0.50428593, -0.108252555, 0.8564236, 0.381916, -0.13842906, -0.03170204, 0
1316, 3715652766, -0.022002496, -0.5115374, -0.10937867, 0.8519922, -1.1764958, 1.4888562, 0.19478226, 0
1317, 3715669433, -0.020272367, -0.51667, -0.10996437, 0.848857, -2.8758745, 0.26200545, -0.7828789, 0
1319, 3715702767, -0.018621713, -0.52372336, -0.109122336, 0.84467065, -0.54411453, -1.576723, 1.1143036, 0
1321, 3715736101, -0.018176585, -0.52450144, -0.10638136, 0.8445474, -2.8768237, -2.5398974, -0.84209347, 0
1323, 3715769435, -0.017230466, -0.5225276, -0.102514215, 0.8462672, -2.1384192, -2.5592296, 0.21703053, 0
1324, 3715786102, -0.016356014, -0.5181096, -0.10170787, 0.8490933, -2.346216, -0.26928043, 1.4233885, 0
1325, 3715802769, -0.015514024, -0.5121566, -0.10124671, 0.85276806, -2.8651888, -0.8605377, -1.1842432, 0
1328, 3715852770, -0.019426145, -0.50236857, -0.09143489, 0.8595914, -2.4616864, 0.8993764, 0.044621468, 0
1329, 3715869437, -0.021004848, -0.50249636, -0.08837909, 0.8597991, -0.9195903, -1.0085742, 0.5476866, 0
1331, 3715902771, -0.0227433, -0.5036182, -0.08377386, 0.85955954, 2.0368469, -1.6530277, -0.010430336, 0
1332, 3715919438, -0.022332668, -0.5029239, -0.08294284, 0.86005735, 0.08223598, -1.3533678, 0.10842323, 0
1335, 3715969439, -0.021143265, -0.5042142, -0.0824738, 0.8593767, -1.4579395, -1.2612398, -0.009498596, 0
1336, 3715986106, -0.021137789, -0.50669044, -0.0824233, 0.85792387, -1.920051, -0.84803945, 0.042419434, 0
1339, 3716036107, -0.0276699, -0.52289224, -0.08040924, 0.84815186, -2.3676465, -1.3832197, -2.6779213, 0
1342, 3716086108, -0.04797343, -0.502729, -0.088200584, 0.8585988, -0.37756273, -1.2260296, -2.7763052, 0
1343, 3716102775, -0.059192613, -0.4907341, -0.09903387, 0.8636423, 2.421066, -0.44758144, 2.7673054, 0
1344, 3716119442, -0.07305741, -0.47553575, -0.11394593, 0.86922604, -0.53194964, -1.7765846, -0.4075203, 0
1346, 3716152776, -0.104199156, -0.44646168, -0.14305621, 0.87713087, -0.84573656, -1.8024211, -1.7163534, 0
1348, 3716186110, -0.12864198, -0.4142952, -0.16094741, 0.8865188, -2.504067, -2.7866273, -0.98339176, 0
1350, 3716219444, -0.16082004, -0.39434063, -0.17714742, 0.88727695, -0.88599706, -1.1561058, 2.1925879, 0
1351, 3716236111, -0.1809527, -0.38764858, -0.18847124, 0.8840094, -1.9356399, -0.97496843, -2.329064, 0
1352, 3716252778, -0.20027077, -0.3825773, -0.197908, 0.87998164, -0.07041767, 1.1750199, -1.4799948, 0
1355, 3716302779, -0.2291238, -0.35183376, -0.19909555, 0.8854861, 1.9131469, -2.8777933, -3.201325, 0
1358, 3716352780, -0.2354238, -0.33731693, -0.19388044, 0.89062464, -1.3242347, -2.7580216, -0.58233356, 0
1359, 3716369447, -0.23641598, -0.3333986, -0.19549975, 0.89148295, -2.9685256, -5.827839, -1.7422285, 0
1362, 3716419448, -0.243453, -0.32385436, -0.19092852, 0.89409417, 1.6823843, 2.2987394, 4.7733936, 0
1363, 3716436115, -0.24664639, -0.3226887, -0.18758191, 0.8943486, 3.616728, 2.0841796, 5.143285, 0
1365, 3716469449, -0.25204602, -0.32357728, -0.18226297, 0.8936218, 3.4847732, 0.81273794, 0.30154324, 0
1366, 3716486116, -0.25347114, -0.32312065, -0.18026645, 0.893789, 2.4268014, 0.4801465, -1.9692402, 0
1369, 3716536117, -0.25632852, -0.319246, -0.17658335, 0.89510065, 2.1735806, 4.0269732, 2.1201468, 0
1370, 3716552784, -0.25659677, -0.31799218, -0.17525858, 0.89573026, 3.5452325, 5.0458755, -0.049304962, 0
1371, 3716569451, -0.25666627, -0.31703776, -0.17328493, 0.8964324, 3.4476104, 4.567347, -1.0821753, 0
1373, 3716602785, -0.25758553, -0.3155444, -0.1673775, 0.8978169, 1.5195342, 3.401848, -0.51680946, 0
1377, 3716669453, -0.25785226, -0.31476077, -0.15520468, 0.90019923, 2.0381944, 2.3196247, 0.0710125, 0
1378, 3716686120, -0.25701776, -0.31490454, -0.15285292, 0.9007898, 0.5119482, 1.4193234, -0.2067604, 0
1379, 3716702787, -0.25575054, -0.31551015, -0.15121147, 0.9012154, -0.06314889, 0.49438372, -1.120862, 0
1382, 3716752788, -0.25022903, -0.31722042, -0.14765492, 0.90275353, -0.7462091, 0.6768922, -0.765254, 0
1384, 3716786122, -0.24538222, -0.3181095, -0.14609547, 0.9040239, -1.221931, -0.008097036, -0.17731476, 0
1385, 3716802789, -0.2428454, -0.31861675, -0.1454626, 0.90463215, -1.3427534, -0.6939408, -0.17928886, 0
1386, 3716819456, -0.24026698, -0.3191394, -0.14468294, 0.90526116, -0.9823741, -0.7736557, 0.20122051, 0
1389, 3716869457, -0.23243694, -0.32205573, -0.14296205, 0.9065452, -1.418522, -0.14316759, -0.5865135, 0
1390, 3716886124, -0.23028515, -0.32255706, -0.14223342, 0.9070307, -1.3879573, -0.7794881, 0.65758705, 0
1392, 3716919458, -0.22620574, -0.32427707, -0.14126581, 0.907595, 0.9630297, -1.1920176, 0.44959545, 0
1396, 3716986126, -0.21907264, -0.33033332, -0.14183965, 0.907071, -0.6622447, -0.19732852, -0.074326515, 0
1397, 3717002793, -0.21753219, -0.33159196, -0.14240128, 0.9068944, 0.75006527, -1.8633753, -0.7054863, 0
1398, 3717019460, -0.2162199, -0.33341947, -0.14290053, 0.9064597, 2.0867486, -1.7003006, 1.6498089, 0
1400, 3717052794, -0.21271363, -0.34420744, -0.14620213, 0.90272266, -3.6909826, -0.30711105, -0.710309, 0
1402, 3717086128, -0.21020263, -0.35029393, -0.14835134, 0.90061647, -1.2655368, -0.31318864, 0.5085869, 0
1404, 3717119462, -0.20877212, -0.344157, -0.14734219, 0.90347636, -1.6648544, -1.9070344, 1.6784515, 0
1405, 3717136129, -0.20775434, -0.34535143, -0.14742759, 0.9032413, -1.0624043, -1.8452809, 1.8388243, 0
1406, 3717152796, -0.2063343, -0.35123488, -0.14881057, 0.9010688, -0.85590816, -2.1869488, 0.75368595, 0
1409, 3717202797, -0.2033339, -0.3856464, -0.16586405, 0.884551, -0.6517145, -3.5562842, -2.4874897, 0
1410, 3717219464, -0.2017627, -0.39139932, -0.1747204, 0.88067037, 0.30305004, -1.3403785, 0.034399033, 0
1412, 3717252798, -0.1968042, -0.3915889, -0.18804076, 0.8789631, -1.2909235, 0.065652795, 3.4365768, 0
1413, 3717269465, -0.19584095, -0.39272118, -0.19288272, 0.8776227, -2.0153184, -2.04519, -0.9930477, 0
1416, 3717319466, -0.19950604, -0.39466706, -0.20748623, 0.87257874, 0.12346073, -1.9110756, -3.195674, 0
1417, 3717336133, -0.20140997, -0.39365247, -0.21090375, 0.87178, 1.3044302, -1.1089436, -1.6313753, 0
1419, 3717369467, -0.20270836, -0.38956827, -0.21496038, 0.8723228, 0.16778514, -0.5158506, 0.78460217, 0
1420, 3717386134, -0.20193863, -0.38743877, -0.2174305, 0.8728375, -0.36610854, -1.7404431, 1.2963428, 0
1423, 3717436135, -0.20082116, -0.39057928, -0.22795568, 0.86900175, -2.690971, -3.837029, -1.9104357, 0
1424, 3717452802, -0.20097338, -0.39457798, -0.23153679, 0.8662089, -2.8887484, -2.4581056, -0.9177122, 0
1425, 3717469469, -0.20196295, -0.39875025, -0.23371027, 0.86348015, -3.9293623, -2.0137026, -1.7116184, 0
1429, 3717536137, -0.21121565, -0.3725105, -0.2368927, 0.87207496, -6.1127725, -4.973384, -2.8278203, 0
1431, 3717569471, -0.21712945, -0.3502268, -0.23620704, 0.8800065, -1.7661972, -3.6459098, 7.3925457, 0
1432, 3717586138, -0.2196958, -0.34424472, -0.23645687, 0.8816613, 3.133177, -1.4841954, 6.478245, 0
1433, 3717602805, -0.22138636, -0.34103626, -0.2373268, 0.8822512, 3.3176994, 0.21532065, 5.1950817, 0
1436, 3717652806, -0.22586718, -0.33417478, -0.23725209, 0.88376015, 2.7907197, 0.16702877, -4.4814386, 0
1438, 3717686140, -0.22897375, -0.32766876, -0.2358446, 0.8857712, 4.9739203, 3.1809626, 2.4746056, 0
1439, 3717702807, -0.22966197, -0.32509324, -0.23594546, 0.886515, 4.367636, 2.6670089, 2.578495, 0
1440, 3717719474, -0.23068354, -0.32287616, -0.23597226, 0.88705254, 3.1366024, 1.1581938, -0.09072399, 0
1443, 3717769475, -0.23568028, -0.31505758, -0.23288544, 0.8893632, 2.9363277, 1.517862, -0.5709915, 0
1444, 3717786142, -0.23671558, -0.3120287, -0.23247114, 0.89026415, 4.111383, -0.13146585, -0.9035158, 0
1447, 3717836143, -0.23886701, -0.3066569, -0.23279566, 0.8914702, 1.2646815, 1.1379551, 0.5848808, 0
1450, 3717886144, -0.24426237, -0.30257, -0.22864704, 0.89247787, 1.266216, 1.7510126, 0.7421541, 0
1451, 3717902811, -0.24617422, -0.30040503, -0.22622748, 0.89330024, 1.7133512, 0.6524533, 2.0627117, 0
1452, 3717919478, -0.24806055, -0.29861107, -0.22397503, 0.89394724, 3.8906627, 0.91852456, 0.019548416, 0
1454, 3717952812, -0.25231165, -0.29685462, -0.2191673, 0.894534, 0.21316448, 1.4948113, -1.5006075, 0
1456, 3717986146, -0.25488412, -0.29647616, -0.21622483, 0.8946461, 1.3108901, 0.2230285, -1.1380844, 0
1458, 3718019480, -0.25806022, -0.2950975, -0.21073343, 0.8955016, 1.4160284, 0.42823952, 0.5294409, 0
1459, 3718036147, -0.25942189, -0.29440764, -0.20800912, 0.8959721, 1.3562024, 1.2192996, -0.3055725, 0
1460, 3718052814, -0.2604914, -0.2942472, -0.20556654, 0.896278, 1.271461, 1.644959, -0.5088453, 0
1463, 3718102815, -0.26176363, -0.2947738, -0.20125353, 0.89671314, -0.26004693, -0.01805951, -0.24459839, 0
1466, 3718152816, -0.26128343, -0.29503122, -0.19870819, 0.89733577, -0.18412913, -0.6184326, 0.53567314, 0
1467, 3718169483, -0.2616934, -0.2955017, -0.19678138, 0.8974863, -0.3042488, -0.008621453, -0.40950298, 0
1470, 3718219484, -0.26196933, -0.29667008, -0.19222458, 0.8980078, -0.6629783, -0.82225835, -0.55583954, 0
1471, 3718236151, -0.26180887, -0.2967194, -0.19099227, 0.89830124, -0.7322949, 0.27837878, 0.30410862, 0
1473, 3718269485, -0.26134825, -0.29658967, -0.18875611, 0.89895046, 0.2342864, 0.012165866, -0.31510067, 0
1474, 3718286152, -0.2610763, -0.29658344, -0.18750966, 0.8992924, 0.94831777, 0.27840227, 0.47341442, 0
1477, 3718336153, -0.26019138, -0.2982914, -0.18360648, 0.89978915, 0.2886532, 0.89016235, 0.35795784, 0
1478, 3718352820, -0.2594794, -0.2987693, -0.18297967, 0.89996386, -0.3302576, 1.1226989, 0.06078911, 0
1479, 3718369487, -0.2584991, -0.29919875, -0.1826465, 0.900171, 0.7536713, 0.062186893, -0.50167656, 0
1481, 3718402821, -0.25706163, -0.30059862, -0.18184721, 0.9002781, 1.2536515, 0.86102283, -0.3485918, 0
1485, 3718469489, -0.25545037, -0.306439, -0.17877707, 0.8993821, 0.9633635, 0.73971, 0.046361923, 0
1486, 3718486156, -0.2552455, -0.3081153, -0.17767467, 0.8990861, -0.07106365, 0.7375375, 0.0045671463, 0
1487, 3718502823, -0.25501972, -0.3101336, -0.17675866, 0.8986365, 0.09651787, 0.20187199, 0.35529804, 0
1490, 3718552824, -0.25611183, -0.32121637, -0.17731482, 0.8943128, -2.1390424, -1.0377272, -0.2671404, 0
1491, 3718569491, -0.25728747, -0.32676783, -0.17978588, 0.89146626, -1.3880236, -1.6060807, 0.83981895, 0
1493, 3718602825, -0.25615004, -0.3480415, -0.19063058, 0.88143265, -2.2836618, -3.4322762, -0.026982307, 0
1494, 3718619492, -0.2541871, -0.36234027, -0.1977873, 0.8746358, -2.3494935, -5.3489265, 0.0021429062, 0
1497, 3718669493, -0.24374539, -0.40270582, -0.21868671, 0.8547523, -5.1848693, -1.5907607, 1.870758, 0
1498, 3718686160, -0.24057582, -0.41255233, -0.2247688, 0.8493598, -5.7212915, -2.6760206, -1.4444084, 0
1500, 3718719494, -0.23616558, -0.427578, -0.2331375, 0.840868, -4.5811133, -3.130341, 1.0199728, 0
1501, 3718736161, -0.23431605, -0.43045187, -0.23485462, 0.8394401, -5.2824955, -3.5225778, 1.7253189, 0
1504, 3718786162, -0.23208097, -0.43062547, -0.2382421, 0.8390173, -1.7079096, -3.4837282, 0.93187237, 0
1505, 3718802829, -0.23137206, -0.42706782, -0.23953474, 0.8406619, -1.2758259, -3.2013435, -2.887505, 0
1506, 3718819496, -0.23026451, -0.4225102, -0.24060664, 0.8429597, 0.017667135, -1.1951015, 0.37408352, 0
1508, 3718852830, -0.23035264, -0.41340876, -0.24178614, 0.84710073, 0.5183509, -0.3714448, -1.2782469, 0
1510, 3718886164, -0.23505676, -0.40474647, -0.23566195, 0.8517049, 1.7065681, -0.030265443, -2.948729, 0
1512, 3718919498, -0.2388494, -0.39266053, -0.22803432, 0.85835785, 0.8139295, 2.0233166, 0.9248142, 0
1513, 3718936165, -0.24002603, -0.3863975, -0.22508033, 0.8616452, -0.08508675, 1.6638974, 1.9095469, 0
1514, 3718952832, -0.24036407, -0.38326892, -0.2241888, 0.8631794, -1.3461432, -0.8457824, -4.5870934, 0
1519, 3719036167, -0.24268559, -0.3344993, -0.21081366, 0.88587856, 1.440078, 2.421975, 4.8989143, 0
1520, 3719052834, -0.24264216, -0.3289234, -0.20923607, 0.88834894, 3.820804, 2.5285895, 6.2229996, 0
1521, 3719069501, -0.24198881, -0.32823205, -0.20925827, 0.8887773, 5.829073, 2.6814563, 4.549636, 0
1524, 3719119502, -0.23794872, -0.33103696, -0.21187665, 0.8882074, 2.4988391, 1.0478531, -2.7559223, 0
1525, 3719136169, -0.23605254, -0.33148244, -0.21425356, 0.88797706, 2.4418678, 2.7473106, -0.5952215, 0
1527, 3719169503, -0.23288184, -0.3333118, -0.21884182, 0.88701004, 3.5756721, 1.3072509, 0.2299614, 0
1528, 3719186170, -0.23231551, -0.33575755, -0.22048725, 0.8858278, 2.5955684, 1.7332646, 0.2893076, 0
1531, 3719236171, -0.23225024, -0.34177652, -0.22352207, 0.8827772, 1.9349691, -0.42822367, -2.6794133, 0
1532, 3719252838, -0.23157427, -0.34381017, -0.22516759, 0.8817464, 3.1050832, 0.8963917, -0.48620605, 0
1533, 3719269505, -0.23077275, -0.34504128, -0.22689298, 0.88103306, 1.2921892, 0.3018129, 0.4670229, 0
1537, 3719336173, -0.2319913, -0.35861737, -0.23143196, 0.8740836, 0.23404868, 0.5789606, -0.48025227, 0
1539, 3719369507, -0.23433113, -0.36500216, -0.23024327, 0.8711254, -0.0868772, 0.27001655, -0.7927704, 0
1540, 3719386174, -0.23521093, -0.36980164, -0.23084943, 0.8687003, 0.63521165, 0.007992488, -1.6036158, 0
1541, 3719402841, -0.23600225, -0.37331694, -0.23126782, 0.86686915, 0.6924673, -0.32461882, 1.6105003, 0
1544, 3719452842, -0.23688933, -0.38769132, -0.23471804, 0.85935754, -0.70434666, -0.25261167, 1.5340405, 0
1546, 3719486176, -0.23758686, -0.4013126, -0.23726137, 0.85218364, -0.6801576, -0.37507492, -0.35010338, 0
1547, 3719502843, -0.2384255, -0.40799415, -0.23765112, 0.8486609, -0.69265103, -0.05382639, 0.8972893, 0
1548, 3719519510, -0.23883334, -0.41592374, -0.23817198, 0.84454083, -2.0015388, -0.7044576, -0.61859226, 0
1551, 3719569511, -0.23549476, -0.44536948, -0.24084866, 0.8295718, 1.4658296, -1.2480812, 0.29933167, 0
1552, 3719586178, -0.23380116, -0.45707262, -0.24172166, 0.82340854, 0.44249028, -0.9690728, 0.24438763, 0
1555, 3719636179, -0.22245246, -0.49715063, -0.24819478, 0.80110216, 0.5686322, -0.0900888, -0.78598976, 0
1558, 3719686180, -0.20389007, -0.5346438, -0.2513029, 0.7806668, -0.96884686, 0.9355801, -0.28027153, 0
1559, 3719702847, -0.19506735, -0.5459809, -0.25360563, 0.7743042, -2.1168563, 0.25606492, 1.8670092, 0
1560, 3719719514, -0.18464765, -0.55664015, -0.2525312, 0.7696066, -0.056697413, 1.8851463, 0.35493946, 0
1562, 3719752848, -0.15087931, -0.57741994, -0.23663494, 0.7667039, 0.7288133, -1.4969571, -0.054327965, 0
1564, 3719786182, -0.1155956, -0.5911242, -0.21724711, 0.76812935, -0.40434086, -0.43084514, -0.8837881, 0
1566, 3719819516, -0.08976893, -0.6007728, -0.2013871, 0.7684179, -1.9893489, 0.32143554, -0.50382423, 0
1567, 3719836183, -0.08176065, -0.6071059, -0.1970931, 0.7654417, 0.34647992, 1.0616577, 1.0692797, 0
1568, 3719852850, -0.07680933, -0.6141964, -0.19414364, 0.76103914, -0.15357877, -0.8597574, 0.33921432, 0
1571, 3719902851, -0.06642019, -0.6322249, -0.19738735, 0.7462757, 0.84638405, -1.3093066, -0.66804695, 0
1574, 3719952852, -0.055437095, -0.6348264, -0.2007095, 0.74407464, -0.4705386, 1.301597, 0.9884634, 0
1575, 3719969519, -0.054982297, -0.63465095, -0.20023069, 0.74438703, 0.9652101, -0.30780667, 0.47635555, 0
1578, 3720019520, -0.056473292, -0.6267052, -0.19339648, 0.75276715, -0.8805816, -0.43878308, -1.0468941, 0
1579, 3720036187, -0.05582481, -0.62588525, -0.19189501, 0.75388116, -1.0890057, -1.2499347, -0.7116995, 0
1581, 3720069521, -0.05085797, -0.6283995, -0.19577926, 0.7511373, 0.88802224, -1.2420087, 0.35660362, 0
1582, 3720086188, -0.04675342, -0.6269471, -0.20106442, 0.7512215, 1.5179731, -1.149184, 1.71984, 0
1585, 3720136189, -0.020467982, -0.6122737, -0.21314967, 0.7611036, 0.8726444, 1.5007864, 0.18959618, 0
1586, 3720152856, -0.015756689, -0.61129457, -0.2104462, 0.76275307, -1.3186911, 3.3920815, 0.1203661, 0
1587, 3720169523, -0.012411334, -0.6127428, -0.20765844, 0.76241684, 0.42110053, 2.7033765, 2.8275518, 0
1589, 3720202857, -0.0058502406, -0.611109, -0.19887781, 0.76613855, 2.4430213, 0.32787344, 1.5825262, 0
1591, 3720236191, 0.009581447, -0.590557, -0.1784408, 0.78696793, 4.464509, -3.0980992, 3.2113895, 0
1593, 3720269525, 0.028021082, -0.5464254, -0.16029733, 0.8215522, 7.5883284, -1.7254523, 2.8584166, 0
1594, 3720286192, 0.026981503, -0.5250016, -0.14701335, 0.8378794, 7.1716294, -4.1366673, -1.4156895, 0
1595, 3720302859, 0.016055673, -0.5113217, -0.13553461, 0.8484879, 7.2506247, -7.0022974, -7.1038556, 0
1598, 3720352860, -0.053347193, -0.5092046, -0.12002088, 0.8505697, 2.1754549, 0.27584192, -0.37844753, 0
1600, 3720386194, -0.08802806, -0.51608354, -0.10817489, 0.8451131, -1.6353041, 1.812046, -3.1651058, 0
1601, 3720402861, -0.09825295, -0.5200782, -0.10410206, 0.8420434, -3.8307009, 1.3390757, -5.159545, 0
1602, 3720419528, -0.10474313, -0.5229359, -0.10353857, 0.839557, -4.5039945, -1.2337232, -4.9202547, 0
1605, 3720469529, -0.13307545, -0.5103787, -0.13102758, 0.8394316, -0.52307457, -3.5703058, -4.12402, 0
1608, 3720519530, -0.18529764, -0.4851893, -0.17052144, 0.83736956, 7.2447104, 0.13151681, 5.91693, 0
1609, 3720536197, -0.21149072, -0.46731037, -0.18182215, 0.83895326, 9.911227, 0.49118245, 4.4746323, 0
1612, 3720586198, -0.30802837, -0.41543972, -0.24245295, 0.8208252, 10.548309, 12.39678, -3.8806467, 0
1613, 3720602865, -0.3344704, -0.40476644, -0.26463234, 0.8088713, 8.824058, 17.929865, 0.03605938, 0
1616, 3720652866, -0.35739195, -0.4017936, -0.30255005, 0.78695965, 10.745015, 16.383532, 2.6128273, 0
1618, 3720686200, -0.35867098, -0.3782647, -0.2993687, 0.79916114, 0.22223815, -1.367664, -1.2449856, 0
1620, 3720719534, -0.35514715, -0.39238232, -0.31052458, 0.78961414, -0.81825256, -3.1674168, 0.026169777, 0
1621, 3720736201, -0.35208303, -0.40802482, -0.31866628, 0.77975273, -0.5968796, -1.3972758, -0.019694328, 0
1622, 3720752868, -0.34848318, -0.4260927, -0.32731706, 0.76803464, -0.49815038, -0.6658455, -0.32758427, 0
1625, 3720802869, -0.3423233, -0.4746918, -0.34338647, 0.7345592, -0.20705983, 1.8435479, 0.57807255, 0
1628, 3720852870, -0.34497598, -0.5106176, -0.3441063, 0.7084217, -0.82592696, -2.3536763, -0.47873974, 0
1629, 3720869537, -0.34073496, -0.5333842, -0.34729287, 0.6919522, -1.9591599, -2.0715716, -0.73988914, 0
1633, 3720936205, -0.27962586, -0.7481706, -0.32355225, 0.50731975, -16.415524, -5.533205, 29.751461, 0
1635, 3720969539, -0.3296653, -0.75861174, -0.27704954, 0.48895985, -7.7579503, 43.197937, 10.765192, 0
1636, 3720986206, -0.29325482, -0.7979578, -0.2639323, 0.4556471, -26.591494, 21.10424, 19.306648, 0
1639, 3721036207, -0.157672, -0.8957461, -0.26206583, 0.3226594, -24.061686, -28.768139, 3.8084335, 0
1640, 3721052874, -0.137524, -0.91124934, -0.2736525, 0.27538258, -24.609068, -30.791824, -4.6881733, 0
1641, 3721069541, -0.1273217, -0.92304814, -0.2810001, 0.22982503, -21.686747, -27.79427, -14.542167, 0
1643, 3721102875, -0.12255925, -0.9376422, -0.28019923, 0.16523845, -15.014595, -16.815187, -22.596294, 0
1645, 3721136209, -0.12052258, -0.94230074, -0.27635556, 0.14553604, -5.5785713, -6.7356443, -22.055689, 0
1648, 3721186210, -0.1049844, -0.9392595, -0.2537715, 0.20586158, -4.020531, -3.8193383, -17.509832, 0
1649, 3721202877, -0.10119298, -0.9325683, -0.24343349, 0.24662907, -3.4152784, -4.7868447, -14.999718, 0
1652, 3721252878, -0.12264848, -0.88119394, -0.23376036, 0.3921991, -4.331241, -6.996576, -1.9516726, 0
1654, 3721286212, -0.1549396, -0.82192105, -0.23358881, 0.495868, 0.070104614, -6.488657, 3.6746006, 0
1655, 3721302879, -0.17414927, -0.7866306, -0.23317401, 0.5445398, 0.352091, -4.06736, 5.6641264, 0
1656, 3721319546, -0.18965787, -0.74945545, -0.23248816, 0.5901735, 1.1790568, -1.2970473, 6.36491, 0
1659, 3721369547, -0.21469134, -0.63704044, -0.22671534, 0.7047671, 10.647142, 3.803705, 12.216345, 0
1660, 3721386214, -0.2214967, -0.60372937, -0.22358868, 0.73243946, 9.120825, 6.8500123, 9.675219, 0
1662, 3721419548, -0.22335386, -0.5491315, -0.21036537, 0.7773822, 5.0785027, 4.993359, 7.486841, 0
1663, 3721436215, -0.21756685, -0.5224614, -0.2082015, 0.79772186, 4.9231954, 3.3557956, 8.022194, 0
1667, 3721502883, -0.20043227, -0.42121676, -0.20568556, 0.8602944, 6.858976, 2.092009, 2.0889292, 0
1668, 3721519550, -0.2001746, -0.40143418, -0.2031566, 0.87035465, 6.0505943, 1.7623498, 1.1448393, 0
1670, 3721552884, -0.19953203, -0.36607704, -0.20308205, 0.8859692, 5.3564363, 3.9176652, 1.6390457, 0
1672, 3721586218, -0.19371939, -0.3362507, -0.19355686, 0.9010845, 4.8480988, 4.407079, -0.8263979, 0
1674, 3721619552, -0.18574433, -0.31564888, -0.17921881, 0.9131018, 3.7747133, 3.8223205, -1.9637184, 0
1675, 3721636219, -0.18168084, -0.30787104, -0.17452228, 0.9174741, 4.135792, 2.969458, -2.205843, 0
1676, 3721652886, -0.17776331, -0.30075312, -0.17342559, 0.9208044, 4.4712625, 2.0680082, -2.4278765, 0
1679, 3721702887, -0.1715439, -0.2850293, -0.16703868, 0.928137, 1.6581264, 1.2027491, -0.68213844, 0
1681, 3721736221, -0.16990334, -0.2720108, -0.163084, 0.93303585, 0.98190135, 1.2435207, 1.036561, 0
1682, 3721752888, -0.166718, -0.26229796, -0.16351251, 0.93631077, 1.4121258, 1.7837629, 0.43773746, 0
1683, 3721769555, -0.16177556, -0.2514449, -0.16311145, 0.940217, 1.693387, 2.975333, -0.30997086, 0
1686, 3721819556, -0.14833742, -0.22701815, -0.15128249, 0.95056903, 1.0540538, 0.99427605, -1.3866262, 0
1687, 3721836223, -0.14581591, -0.2200371, -0.15033676, 0.9527483, 2.269077, 0.6813788, -0.62013054, 0
1689, 3721869557, -0.1410635, -0.20662534, -0.15414357, 0.9558536, 2.787834, 1.4590132, -1.9964585, 0
1690, 3721886224, -0.13901596, -0.20247412, -0.15583608, 0.95676714, 3.2283347, 0.9150469, -2.3654623, 0
1693, 3721936225, -0.13992456, -0.19286309, -0.16270195, 0.95747715, 4.7627335, 0.56378293, -2.3181925, 0
1694, 3721952892, -0.14106825, -0.1912453, -0.1651325, 0.9572176, 4.6272054, 2.6270165, -2.4879012, 0
1695, 3721969559, -0.14201157, -0.19028735, -0.1649419, 0.95730186, 5.3529196, 2.5457828, -2.9491472, 0
1697, 3722002893, -0.1431363, -0.19308457, -0.16537978, 0.9564984, 3.863962, 2.858633, -4.9093523, 0
1701, 3722069561, -0.13960266, -0.22062357, -0.16311152, 0.95144105, 4.5632973, 5.1144648, -3.5540547, 0
1702, 3722086228, -0.1358162, -0.23204307, -0.16223484, 0.94942033, 4.6922393, 4.048908, -3.2667313, 0
1703, 3722102895, -0.13292465, -0.24547422, -0.1619556, 0.9464951, 3.7546604, 3.9625628, -2.0292497, 0
1706, 3722152896, -0.12601176, -0.28739494, -0.16840327, 0.93443817, 4.7340155, 3.1010103, -0.43322754, 0
1708, 3722186230, -0.12298111, -0.31769508, -0.1789942, 0.92299277, 4.4914503, 4.050533, -0.77679443, 0
1709, 3722202897, -0.12120525, -0.3357265, -0.18259637, 0.916114, 2.2389665, 4.355188, -1.5037575, 0
1710, 3722219564, -0.11683882, -0.3556674, -0.1861212, 0.90841484, 1.0946391, 3.351936, -0.7191591, 0
1713, 3722269565, -0.08594862, -0.40667173, -0.19757421, 0.8878088, 4.457376, 0.66481346, -0.4250021, 0
1714, 3722286232, -0.07704672, -0.42102945, -0.19574006, 0.88232255, 6.0342464, -0.32529527, -1.5087328, 0
1716, 3722319566, -0.061975203, -0.45026377, -0.19173658, 0.8698666, 5.7292194, 3.3099546, -0.6796999, 0
1720, 3722386234, -0.02494312, -0.49823287, -0.20534593, 0.84201187, 9.539569, 1.1218748, -2.6968112, 0
1721, 3722402901, -0.020435505, -0.5134322, -0.20763242, 0.8323868, 10.461766, 2.470214, -3.5646958, 0
1722, 3722419568, -0.025543816, -0.52819604, -0.19227403, 0.82667804, 4.3586345, -3.1107183, 15.543661, 0
1724, 3722452902, -0.033000097, -0.5291842, -0.14850676, 0.8347634, -0.22493517, -16.140825, 12.392832, 0
1726, 3722486236, -0.04249888, -0.5179348, -0.14610401, 0.84178406, -1.1045655, -2.769846, 1.3546534, 0
1728, 3722519570, -0.04270996, -0.5150929, -0.14655204, 0.8434375, -1.0860837, -2.0390933, -0.16147041, 0
1730, 3722552904, -0.041006446, -0.53254914, -0.14703523, 0.8325261, -3.0793655, -0.4589601, -0.20491886, 0
1733, 3722602905, -0.035769895, -0.59640396, -0.14984506, 0.787768, 0.49004367, -0.13684687, 0.058258057, 0
1735, 3722636239, -0.024241209, -0.64521724, -0.14747506, 0.74924463, 1.3505085, 0.9051156, -0.16166592, 0
1736, 3722652906, -0.020075694, -0.6652704, -0.14295465, 0.7325199, 1.7606539, 1.664664, -0.019865036, 0
1740, 3722719574, -0.02679415, -0.72596526, -0.12842235, 0.67510974, -1.2603644, -1.1357634, -0.049686432, 0
1741, 3722736241, -0.02752325, -0.7458302, -0.12918735, 0.65291613, -1.0651267, -1.3645929, 0.2522192, 0
1744, 3722786242, 0.0089833215, -0.846286, -0.107543714, 0.5216923, -13.083298, -9.565057, 9.769821, 0
1747, 3722836243, 0.027031094, -0.8801055, -0.16071966, 0.44593957, 22.81979, 13.377844, 26.374615, 0
1748, 3722852910, 0.012430847, -0.89448154, -0.17673719, 0.4105139, -9.395242, 10.257784, 15.812222, 0
1749, 3722869577, 0.00650106, -0.9101439, -0.18279655, 0.37173945, -19.527876, -2.1781514, 10.277201, 0
1751, 3722902911, 0.0044237506, -0.932612, -0.20265107, 0.29859176, -23.73487, -10.321383, -2.549954, 0
1753, 3722936245, 0.0019232798, -0.95097566, -0.20821553, 0.22868532, -16.57915, -13.8526325, -14.160662, 0
1755, 3722969579, -0.004923433, -0.96593976, -0.19722688, 0.16747178, -11.44309, -6.7276344, -20.126102, 0
1756, 3722986246, -0.009603846, -0.970736, -0.19100636, 0.1452764, -7.5660367, -5.7959833, -20.30368, 0
1760, 3723052914, -0.0067471126, -0.97688174, -0.16782442, 0.13228986, -2.9268696, -1.77864, -16.81606, 0
1762, 3723086248, -0.001629319, -0.97410226, -0.15216552, 0.16726284, -2.207042, -3.9347901, -14.588985, 0
1763, 3723102915, -0.007655699, -0.97048736, -0.14732504, 0.19078834, -3.576726, -3.6158965, -12.835479, 0
1764, 3723119582, -0.01538166, -0.9648909, -0.14376009, 0.21929702, -5.9454603, -3.5859294, -11.125053, 0
1767, 3723169583, -0.03347886, -0.92900574, -0.13176739, 0.34420082, -9.395796, -4.4477463, -2.732112, 0
1768, 3723186250, -0.03665761, -0.90987635, -0.12822843, 0.39287153, -7.0603, -5.0580773, -0.8127842, 0
1770, 3723219584, -0.053283, -0.8630251, -0.12298491, 0.48706505, -4.313061, -6.845667, 5.1522408, 0
1771, 3723236251, -0.06822762, -0.8372209, -0.117470376, 0.5297323, -2.4008255, -6.7098265, 6.1355333, 0
1774, 3723286252, -0.12123222, -0.7491195, -0.11559831, 0.64091253, -2.8732738, -0.82367295, 8.37961, 0
1775, 3723302919, -0.1315301, -0.71626335, -0.11824473, 0.67505133, -0.33260572, 0.097283565, 8.990856, 0
1776, 3723319586, -0.13710776, -0.68362105, -0.12202046, 0.70638776, 2.025542, 2.3205693, 9.217903, 0
1778, 3723352920, -0.13783878, -0.6242303, -0.12985504, 0.757947, 6.602939, -2.0423853, 6.8106823, 0
1780, 3723386254, -0.14579993, -0.56986177, -0.13406122, 0.7975191, 4.631968, -2.310112, 7.011511, 0
1782, 3723419588, -0.15506186, -0.5124133, -0.13801928, 0.83327574, 4.747842, 1.1233337, 4.9637737, 0
1783, 3723436255, -0.15655577, -0.4840042, -0.1402515, 0.84945214, 4.9573483, 1.1143731, 3.97686, 0
1784, 3723452922, -0.15624425, -0.45607764, -0.14281654, 0.86440355, 5.347697, 0.52512544, 3.5191307, 0
1787, 3723502923, -0.15275976, -0.37598562, -0.1475761, 0.9019588, 6.900431, 1.1290083, 5.4304924, 0
1789, 3723536257, -0.15486172, -0.31924936, -0.14822106, 0.9231128, 7.869173, 1.004818, 1.4899254, 0
1790, 3723552924, -0.15661961, -0.29378724, -0.14868309, 0.93116164, 7.488497, 2.3910747, 0.52527523, 0
1794, 3723619592, -0.16413371, -0.2210377, -0.14360406, 0.95057327, 7.506171, 6.641964, 0.42565632, 0
1795, 3723636259, -0.16239078, -0.204249, -0.14392701, 0.9545709, 7.591443, 6.2142572, -1.1923189, 0
1797, 3723669593, -0.15295017, -0.17908582, -0.14388491, 0.9611664, 10.061602, 4.1335077, -4.800264, 0
1798, 3723686260, -0.14860725, -0.17084354, -0.146241, 0.9629908, 11.247381, 4.118009, -6.803812, 0
1801, 3723736261, -0.13978331, -0.17659327, -0.15964697, 0.96114385, 10.779515, 8.811808, -10.807696, 0
1802, 3723752928, -0.13299194, -0.19227375, -0.16124335, 0.95882934, 10.602976, 10.157185, -12.042379, 0
1803, 3723769595, -0.12246079, -0.21551922, -0.158675, 0.9557124, 12.706482, 10.423985, -10.438063, 0
1805, 3723802929, -0.10181974, -0.2650744, -0.15193644, 0.9467272, 17.102196, 3.9997258, -5.839054, 0
1807, 3723836263, -0.09861483, -0.31455925, -0.16122432, 0.9302385, 14.810325, 3.4015167, -6.8818746, 0
1809, 3723869597, -0.10207951, -0.37236997, -0.17589152, 0.905534, 13.41241, 5.358547, -1.9476833, 0
1811, 3723902931, -0.10698939, -0.42866313, -0.1843639, 0.87796384, 10.929519, 5.202234, 1.5635767, 0
1814, 3723952932, -0.108520314, -0.510072, -0.2042135, 0.828466, 5.4326496, 13.297806, 4.9764442, 0
1816, 3723986266, -0.10218968, -0.49028113, -0.17957981, 0.8467243, -10.722642, -13.843686, 4.634802, 0
1817, 3724002933, -0.10290534, -0.4772277, -0.1738663, 0.85524505, -10.9023905, -3.0490968, -0.47186947, 0
1818, 3724019600, -0.10554977, -0.4713496, -0.17065068, 0.85882264, -4.7984343, -2.426021, 1.9208908, 0
1821, 3724069601, -0.103762075, -0.48087162, -0.16962291, 0.85395163, -0.91775924, -1.312362, -0.531209, 0
1822, 3724086268, -0.10059074, -0.49222565, -0.17249548, 0.84726024, -1.7772089, -0.22099403, -1.0916567, 0
1824, 3724119602, -0.09824993, -0.5279563, -0.17382771, 0.82547086, 0.8429084, -0.349719, 0.011468887, 0
1825, 3724136269, -0.09640546, -0.54540604, -0.17563483, 0.8138795, 1.4022145, 0.014010463, -0.100234985, 0
1828, 3724186270, -0.09335643, -0.6101263, -0.18596202, 0.7644983, -0.48743793, -0.3466814, -0.112101555, 0
1830, 3724219604, -0.0879175, -0.6646987, -0.1898503, 0.7172254, 0.43090844, -0.5653798, 0.2923422, 0
1832, 3724252938, -0.078366034, -0.71301264, -0.19207703, 0.6697668, -0.62198085, -0.68920445, 0.3047552, 0
1834, 3724286272, -0.048153378, -0.7835742, -0.17487356, 0.59423995, 2.943818, 0.38518602, 2.4672728, 0
1836, 3724319606, 0.014454385, -0.88366467, -0.15162846, 0.4426576, -48.35115, -19.4143, 44.0307, 0
1837, 3724336273, 0.02056624, -0.86662924, -0.18443677, 0.46316618, -25.522287, -4.0278234, 48.78702, 0
1838, 3724352940, 0.019915208, -0.8653308, -0.19709457, 0.46040073, 11.334392, 18.06944, 22.497776, 0
1841, 3724402941, 0.07115199, -0.91584164, -0.21321085, 0.33274892, -30.599428, -20.140505, -4.4633875, 0
1843, 3724436275, 0.086555846, -0.93355274, -0.21263573, 0.27528653, -26.133183, -19.905432, -30.832531, 0
1844, 3724452942, 0.08335674, -0.9384643, -0.19845192, 0.27011618, -18.276045, -14.113586, -29.231451, 0
1845, 3724469609, 0.07174721, -0.94172955, -0.18309124, 0.2729183, -14.219697, -8.340232, -24.5237, 0
1849, 3724536277, 0.023106974, -0.9237183, -0.13260433, 0.35865864, -9.237415, -3.6367843, -12.899231, 0
1851, 3724569611, -0.017830241, -0.89117, -0.111481786, 0.43940783, -8.577207, -2.061324, -6.513793, 0
1852, 3724586278, -0.038847487, -0.8674612, -0.10620149, 0.48449183, -3.881179, -1.1891227, -1.6704464, 0
1855, 3724636279, -0.060979106, -0.78534776, -0.11379195, 0.60545117, 4.617486, 8.305802, 14.417965, 0
1856, 3724652946, -0.044461004, -0.75746423, -0.11354288, 0.6413956, 11.18378, 1.5646701, 14.953991, 0
1857, 3724669613, -0.03780628, -0.72895694, -0.116435215, 0.67353135, 17.461243, -4.3806815, 15.876852, 0
1859, 3724702947, -0.060971044, -0.6810661, -0.11903443, 0.71991086, 22.144732, 6.583309, 8.245707, 0
1861, 3724736281, -0.08167453, -0.6551791, -0.11956706, 0.7414733, 13.563815, 3.2502446, 1.1409674, 0
1863, 3724769615, -0.10161103, -0.6322104, -0.12549017, 0.75779074, 7.413624, 0.2741298, -3.3592558, 0
1864, 3724786282, -0.112914816, -0.61998236, -0.12687656, 0.76601815, 6.107452, 2.2319489, -2.380085, 0
1865, 3724802949, -0.12104059, -0.60746807, -0.12773551, 0.77461267, 5.5785394, 4.1863823, -1.8657966, 0
1868, 3724852950, -0.12048961, -0.57841736, -0.13844444, 0.7948321, 4.244265, 1.5574074, -1.4786005, 0
1870, 3724886284, -0.10911783, -0.5637344, -0.14282128, 0.80616885, 0.46860984, -1.5093912, -1.2678671, 0
1871, 3724902951, -0.10388864, -0.5557325, -0.14080286, 0.81274384, -1.1433254, -1.7034514, -2.0272927, 0
1872, 3724919618, -0.10007397, -0.54667705, -0.13836457, 0.81975245, -2.0183427, -1.627042, -2.78752, 0
1875, 3724969619, -0.07111136, -0.5133387, -0.14781724, 0.8423692, -2.9544737, 2.9951036, -1.357338, 0
1876, 3724986286, -0.05533869, -0.49936718, -0.15052244, 0.8514237, -1.3624768, 1.0433706, -1.2163401, 0
1878, 3725019620, -0.030756764, -0.46672708, -0.15276814, 0.8705694, 1.7617483, 0.119249634, -0.9505186, 0
1879, 3725036287, -0.022226356, -0.45099136, -0.15010275, 0.8795405, 3.3416913, 3.0193014, -1.4363432, 0
1883, 3725102955, 0.0063137636, -0.45749053, -0.16933614, 0.87292457, 3.4204566, 5.818433, -1.9495173, 0
1884, 3725119622, 0.014314793, -0.45693204, -0.17137897, 0.8727239, -0.1383474, 0.834001, -6.4670334, 0
1886, 3725152956, 0.023027651, -0.4501634, -0.16503227, 0.8772664, -2.473829, -2.1362662, 5.061043, 0
1888, 3725186290, 0.013598293, -0.44279218, -0.14582226, 0.88458776, -0.26438275, 3.9515307, 1.2661238, 0
1890, 3725219624, -5.546436E-4, -0.4428074, -0.13039526, 0.88708955, -0.6962422, -0.27888724, -0.14732647, 0
1891, 3725236291, -0.007355541, -0.44659826, -0.12744504, 0.88558626, -1.5872728, 1.8784207, 0.945055, 0
1892, 3725252958, -0.011014573, -0.4531593, -0.122299954, 0.8829369, -0.2784806, -2.8721259, 0.6700516, 0
1895, 3725302959, -0.0076975226, -0.45061326, -0.1278792, 0.8834844, 1.0107305, -2.6213484, -1.0126734, 0
1897, 3725336293, 0.0037494004, -0.44555566, -0.1383621, 0.8844949, 1.9402789, 2.7000852, -2.1748118, 0
1898, 3725352960, 0.008111313, -0.43962064, -0.1385348, 0.8874037, 2.2751842, 2.3200555, -1.9872427, 0
1902, 3725419628, 0.003507495, -0.44614252, -0.10661048, 0.8885878, 1.4735509, -1.1929588, 0.34020424, 0
1903, 3725436295, 0.0048902184, -0.4507556, -0.103255704, 0.88664716, 2.820763, -0.64076304, 1.6812496, 0
1905, 3725469629, 0.01082468, -0.45930913, -0.1079268, 0.88163424, 2.3331506, -1.3278078, 1.5691824, 0
1906, 3725486296, 0.013756119, -0.46462488, -0.11083106, 0.8784421, 2.2510297, -0.98853934, 1.4232607, 0
1909, 3725536297, 0.018317722, -0.4824642, -0.11599278, 0.8680137, -1.3520131, 0.048738565, -0.9657707, 0
1910, 3725552964, 0.019442797, -0.48571193, -0.11736116, 0.86599165, -1.516868, -0.8536032, -0.27394295, 0
1911, 3725569631, 0.02026628, -0.4857964, -0.11788327, 0.86585456, -0.05688071, -1.163348, 0.7844429, 0
1913, 3725602965, 0.020473316, -0.48067224, -0.11638658, 0.86890644, -2.0671952, -1.6277382, 1.3218641, 0
1915, 3725636299, 0.019493558, -0.4717251, -0.1144211, 0.8740783, -2.9603245, -1.8414893, -0.20422935, 0
1917, 3725669633, 0.01721467, -0.4623601, -0.111068666, 0.87954533, -1.3551426, -1.0441929, 0.4698944, 0
1919, 3725702967, 0.01209157, -0.45696703, -0.10509531, 0.8831758, -1.7224442, -0.83403736, 0.42029285, 0
1922, 3725752968, 0.004326105, -0.44207928, -0.09472007, 0.8919555, -1.7536439, -0.19245088, 0.51001453, 0
1924, 3725786302, -0.004395202, -0.43305779, -0.08795497, 0.897059, -0.6434622, -0.78837794, 1.8336363, 0
1925, 3725802969, -0.012458719, -0.43145046, -0.08811565, 0.89774173, 0.0057486137, -2.5858445, 0.12647438, 0
1926, 3725819636, -0.025446393, -0.43388298, -0.09197292, 0.8959066, -0.15572979, -0.65518385, -0.440691, 0
1929, 3725869637, -0.058827102, -0.43378022, -0.10751009, 0.89265066, 0.84960526, -2.3840058, -0.2737608, 0
1930, 3725886304, -0.06997047, -0.428249, -0.11487028, 0.89360017, -0.05415744, -2.0021036, -0.08886528, 0
1932, 3725919638, -0.09217147, -0.4209798, -0.1326359, 0.89257914, -1.0854903, -0.6754094, -0.22464943, 0
1933, 3725936305, -0.099882685, -0.41825396, -0.13901384, 0.89206034, -1.073453, -2.1608634, -1.5276012, 0
1936, 3725986306, -0.11055692, -0.40078288, -0.14834152, 0.89730394, -0.56466407, -1.9914352, 0.4136839, 0
1938, 3726019640, -0.117429525, -0.38823125, -0.15334977, 0.9010993, -2.3619444, -2.7997608, -3.2670927, 0
1940, 3726052974, -0.124628045, -0.37340918, -0.15269342, 0.9064918, -3.4368806, -2.726165, 1.0786648, 0
1942, 3726086308, -0.13079101, -0.3620881, -0.15038295, 0.91059345, -1.7386156, -5.2019377, 1.2295666, 0
1944, 3726119642, -0.1342949, -0.35787478, -0.15217637, 0.91145056, -3.8245223, -3.059921, -2.7611537, 0
1945, 3726136309, -0.1353745, -0.3548351, -0.15222722, 0.91247034, -4.5104656, -1.8370888, -4.5649247, 0
1946, 3726152976, -0.13658531, -0.35012487, -0.15127592, 0.9142659, -7.8680243, -2.2086804, -4.854624, 0
1949, 3726202977, -0.14203191, -0.34541905, -0.14353424, 0.9164714, 4.2314854, 5.965491, 6.935032, 0
1950, 3726219644, -0.14355075, -0.3459728, -0.13969474, 0.91661936, 4.598775, 6.556656, 3.712142, 0
1952, 3726252978, -0.14477952, -0.34692916, -0.13228351, 0.9171639, 2.1280122, 1.4811034, -2.4226475, 0
1953, 3726269645, -0.1445736, -0.34705445, -0.12934186, 0.91756845, 3.9096398, 0.8687161, -1.6669741, 0
1956, 3726319646, -0.140571, -0.34725383, -0.1238258, 0.918875, 3.9813612, 4.4499326, 1.5507469, 0
1957, 3726336313, -0.13854092, -0.34695375, -0.122514725, 0.91947216, 2.550324, 2.4394667, -1.6382008, 0
1959, 3726369647, -0.1340417, -0.34503105, -0.11982628, 0.9212153, 0.6449514, 2.5461438, -0.88454247, 0
1960, 3726386314, -0.13120802, -0.34335232, -0.118997216, 0.9223572, 1.7443391, 2.4670749, 1.2238884, 0
1963, 3726436315, -0.12302268, -0.34068203, -0.11826706, 0.92456675, 2.3866837, 0.005008925, -1.5685406, 0
1964, 3726452982, -0.11986428, -0.33996516, -0.118430234, 0.9252242, 0.27394596, 0.8838673, -1.2260036, 0
1965, 3726469649, -0.11654809, -0.3389954, -0.11912748, 0.925914, -0.86406857, 0.766212, -0.6713829, 0
1967, 3726502983, -0.109798126, -0.33706412, -0.12184784, 0.9270893, 0.32099435, -0.18610638, 0.42961788, 0
1969, 3726536317, -0.10338633, -0.33486146, -0.12352005, 0.92840254, 1.0192809, -1.3962559, -0.6671629, 0
1972, 3726586318, -0.09380905, -0.33195984, -0.12701705, 0.92998856, -0.50812835, -0.076330066, 0.031050682, 0
1973, 3726602985, -0.09012625, -0.3312292, -0.12911469, 0.9303243, -0.51325655, -0.97587645, 0.044125557, 0
1976, 3726652986, -0.08036652, -0.32970345, -0.1378005, 0.9305145, -1.9482931, -0.59806156, 0.10064983, 0
1978, 3726686320, -0.075497255, -0.32865223, -0.14329466, 0.9304644, -0.3884661, -0.8532988, -0.12999439, 0
1979, 3726702987, -0.07375315, -0.32764623, -0.14622572, 0.93050313, -0.8445379, -1.8683578, -0.054049492, 0
1980, 3726719654, -0.072550446, -0.32616293, -0.14913777, 0.9306565, -0.021486552, -2.2096167, -0.0050783157, 0
1983, 3726769655, -0.07422615, -0.32100615, -0.15001267, 0.9321755, 0.25743735, 0.08453791, -0.4582882, 0
1984, 3726786322, -0.07707806, -0.32066748, -0.14652976, 0.93261456, 0.24396238, 0.015037673, -0.38791847, 0
1986, 3726819656, -0.08317059, -0.3217347, -0.1397208, 0.93276846, 0.37857842, 0.44992268, -0.65890026, 0
1987, 3726836323, -0.08578177, -0.32231778, -0.13658455, 0.93279517, 1.5142685, -0.24178012, -0.5785179, 0
1991, 3726902991, -0.09226729, -0.32583266, -0.1274827, 0.9322432, -0.54287535, 0.42624095, -0.7723646, 0
1992, 3726919658, -0.092799924, -0.32663143, -0.12610516, 0.93209803, -0.0710175, 0.025578711, -0.04735565, 0
1994, 3726952992, -0.09298546, -0.32753456, -0.124203235, 0.9320183, -0.35578516, -0.26998696, 0.31618404, 0
1996, 3726986326, -0.09357408, -0.32973504, -0.12156135, 0.93153155, -0.48649427, 0.9077554, -0.043652534, 0
1998, 3727019660, -0.09465337, -0.33479768, -0.11830472, 0.9300346, -0.7933747, 0.78401446, 0.3693304, 0
1999, 3727036327, -0.09571773, -0.3389028, -0.11686216, 0.9286202, -0.8505913, -0.21903881, 0.22264385, 0
2000, 3727052994, -0.09695092, -0.34383467, -0.11575803, 0.92681587, -1.3550724, -1.5288317, 0.71347237, 0
2003, 3727102995, -0.09810998, -0.37555537, -0.12218073, 0.9134626, -4.124602, -2.2855499, 1.5744162, 0
2005, 3727136329, -0.09676848, -0.40884218, -0.13101387, 0.89795804, -3.1247182, -2.2971764, -0.2561636, 0
2006, 3727152996, -0.095324144, -0.4203776, -0.13428116, 0.8922857, -2.607729, -0.90115094, 1.1232958, 0
2010, 3727219664, -0.09196702, -0.44288152, -0.14408845, 0.8801397, -4.3687873, -3.8645399, 0.3448248, 0
2011, 3727236331, -0.092340656, -0.447043, -0.14695466, 0.8775191, -3.5366964, -3.886284, 0.2177391, 0
2013, 3727269665, -0.094222315, -0.44872877, -0.15152222, 0.87567973, -1.6277801, -0.6966718, 1.732233, 0
2014, 3727286332, -0.09565514, -0.4431932, -0.15184203, 0.8782844, -4.4379845, -1.0542012, 1.1046333, 0
2017, 3727336333, -0.11039193, -0.41835675, -0.15822104, 0.8875624, 0.066940844, -4.981208, -0.805027, 0
2018, 3727353000, -0.11827986, -0.40871423, -0.1633949, 0.8900977, 1.2448308, -2.1732845, -3.946228, 0
2019, 3727369667, -0.12343836, -0.3985842, -0.16550839, 0.8935938, 2.5426025, 0.022720985, -2.108687, 0
2021, 3727403001, -0.13022453, -0.3751873, -0.16008112, 0.9036922, -4.2301097, -0.7213235, -3.1536121, 0
2023, 3727436335, -0.13534692, -0.35771915, -0.15079242, 0.9115861, -3.3279357, -5.3324986, -1.2421341, 0
2025, 3727469669, -0.13805437, -0.35109028, -0.14945695, 0.9139743, -3.3806145, -3.0252466, -0.8915987, 0
2027, 3727503003, -0.14025322, -0.34326422, -0.14916639, 0.91665554, -1.7730504, -0.6910775, -1.3946676, 0
2030, 3727553004, -0.14441457, -0.3337228, -0.14490816, 0.92020905, 4.856895, 6.7629757, 6.308878, 0
2031, 3727569671, -0.14313713, -0.33243245, -0.14356408, 0.9210859, 6.7524977, 5.8286633, 1.4638462, 0
2033, 3727603005, -0.14125094, -0.33080232, -0.13908923, 0.92264915, 2.4083085, 3.8849466, -4.0844426, 0
2034, 3727619672, -0.13985291, -0.3307206, -0.13709632, 0.92318946, 3.3602836, 5.602286, -2.0888991, 0
2037, 3727669673, -0.13318472, -0.332001, -0.1322839, 0.9244173, 2.4778693, 2.235161, 1.613658, 0
2038, 3727686340, -0.1311903, -0.33198243, -0.13053122, 0.9249584, 1.3466054, 2.0818746, -0.28717518, 0
2045, 3727803009, -0.10933615, -0.32597652, -0.1314866, 0.92978793, 2.5582097, 0.36629543, -0.27456665, 0
2046, 3727819676, -0.10639182, -0.3257556, -0.13313684, 0.9299722, 0.55181926, -0.06753919, -0.25902843, 0
2048, 3727853010, -0.1010125, -0.32605928, -0.13711797, 0.92988706, 0.8007717, -0.7307861, -1.3878508, 0
2050, 3727886344, -0.096789524, -0.32650948, -0.1404295, 0.9296839, 2.0021627, -1.4550759, 0.7724066, 0
2053, 3727936345, -0.09241189, -0.32696655, -0.14472689, 0.92930967, -0.13731061, -0.7768082, -0.595582, 0
2054, 3727953012, -0.09112163, -0.32699025, -0.14604768, 0.92922205, -0.79487866, -0.6533876, -0.52338505, 0
2057, 3728003013, -0.089642085, -0.32624173, -0.14774194, 0.9293612, 0.67403084, -0.44757694, 0.86367893, 0
2059, 3728036347, -0.090760484, -0.32532486, -0.14447787, 0.930087, 0.60533, -0.12538128, -0.1624546, 0
2060, 3728053014, -0.09194545, -0.3249958, -0.14239433, 0.93040705, -0.04910409, 0.1833697, -0.6110134, 0
2061, 3728069681, -0.093067296, -0.32474026, -0.1404095, 0.93068624, -0.48588297, 0.08881383, -0.10515785, 0
2064, 3728119682, -0.09632275, -0.32419157, -0.13526353, 0.93130827, 0.11806368, 0.069298066, -0.47125626, 0
2065, 3728136349, -0.097355366, -0.32403028, -0.13349287, 0.93151236, 0.14167671, -0.08964294, 0.18800926, 0
2068, 3728186350, -0.09957486, -0.32426107, -0.12910119, 0.93181646, -0.47906432, -0.23381758, -0.25680065, 0
2071, 3728236351, -0.0997089, -0.32553366, -0.12708686, 0.9316354, -0.08870796, -0.27770635, 0.095235825, 0
2072, 3728253018, -0.09972304, -0.32580382, -0.1263462, 0.93163997, -0.4929558, 0.3794563, 0.33857346, 0
2073, 3728269685, -0.09940701, -0.32597506, -0.12594219, 0.9316686, -1.3013953, 0.27214468, -0.03710556, 0
2075, 3728303019, -0.09844969, -0.3266472, -0.124830484, 0.9316846, -0.5032542, -0.2556658, -0.14275837, 0
2077, 3728336353, -0.09809865, -0.3286769, -0.123126455, 0.9312343, -0.11702233, 0.71949464, 0.2547493, 0
2079, 3728369687, -0.098420106, -0.333087, -0.120458335, 0.9299815, -1.607141, 0.1235469, -0.25245, 0
