sep=,
DeviceTag:,Xsens_DOT_1,,,,,,,,,,,,,,,,,
FirmwareVersion:,3.0.0,,,,,,,,,,,,,,,,,
AppVersion:,2023.6.1,,,,,,,,,,,,,,,,,
SyncStatus:,Synced,,,,,,,,,,,,,,,,,
OutputRate:,60Hz,,,,,,,,,,,,,,,,,
FilterProfile:,General,,,,,,,,,,,,,,,,,
Measurement Mode:,Sensor fusion Mode - Extended (Quaternion),,,,,,,,,,,,,,,,,
StartTime:,2025-05-05 12:08:20.727 +0200,,,,,,,,,,,,,,,,,
 2025,,,,,,,,,,,,,,,,,,,

PacketCounter,SampleTimeFine,Quat_W,Quat_X,Quat_Y,Quat_Z,FreeAcc_X,FreeAcc_Y,FreeAcc_Z,Status
1, 3693718994, 0.9182117, 0.0045194477, 0.31267577, 0.24326919, -0.084627874, 0.06005955, 0.3544407, 0
2, 3693735661, 0.91833925, 0.0048389435, 0.3121994, 0.24339366, -0.0657059, 0.06639644, 0.27386856, 0
3, 3693752328, 0.91850275, 0.0051418394, 0.31160557, 0.24353117, -0.036239013, -0.047083102, 0.24919319, 0
4, 3693768995, 0.9186791, 0.0054558367, 0.310951, 0.24369538, -0.03986207, -0.052708324, 0.30404568, 0
5, 3693785662, 0.91887397, 0.005763095, 0.31027743, 0.24381287, -0.06844584, 0.032782577, 0.30515766, 0
6, 3693802329, 0.91909003, 0.0060021207, 0.3095663, 0.24389562, -0.119201586, 0.085457765, 0.33830738, 0
7, 3693818996, 0.9193045, 0.0062138215, 0.30883414, 0.24401093, -0.059318047, 0.08269602, 0.29991627, 0
8, 3693835663, 0.9195062, 0.0064106397, 0.30812857, 0.24413767, -0.041235764, -0.025084957, 0.27851486, 0
9, 3693852330, 0.91972405, 0.006574966, 0.30739063, 0.24424264, -0.042429056, -0.0106912395, 0.32306385, 0
10, 3693868997, 0.9199885, 0.006735485, 0.30654678, 0.24430266, -0.012204104, 0.09442243, 0.34064388, 0
11, 3693885664, 0.92028534, 0.006854333, 0.30560943, 0.2443564, -0.035062302, 0.064905524, 0.27367687, 0
12, 3693902331, 0.9205732, 0.006930493, 0.30468246, 0.2444272, -0.03699572, 0.01744745, 0.26860237, 0
13, 3693918998, 0.9208113, 0.006926842, 0.30388907, 0.24451831, -0.0057261786, 0.01908559, 0.3124056, 0
14, 3693935665, 0.9209907, 0.00685706, 0.30330074, 0.24457495, -0.0034956762, 0.018764066, 0.44333935, 0
15, 3693952332, 0.9211173, 0.0067451224, 0.30289713, 0.2446017, -0.090196595, 0.08002809, 0.36907482, 0
16, 3693968999, 0.92117596, 0.0066172183, 0.3026903, 0.24464026, -0.16055495, 0.14765896, 0.2908535, 0
17, 3693985666, 0.92118907, 0.0064869337, 0.30258712, 0.24472222, -0.13996893, 0.12270888, 0.30208492, 0
18, 3694002333, 0.9212054, 0.006325543, 0.30247805, 0.24479935, -0.031173084, 0.07450321, 0.26692295, 0
19, 3694019000, 0.92121434, 0.006159898, 0.30237764, 0.24489379, -0.0332195, 0.012755172, 0.21940804, 0
20, 3694035667, 0.92120105, 0.006008953, 0.30234152, 0.24499236, -0.048336316, 0.054641947, 0.29956818, 0
21, 3694052334, 0.9211728, 0.00585147, 0.3023484, 0.2450937, -0.10866063, 0.09589582, 0.37313843, 0
22, 3694069001, 0.9211253, 0.005701892, 0.302479, 0.24511507, -0.09687793, 0.09974703, 0.41909122, 0
23, 3694085668, 0.9210613, 0.0056135505, 0.30269274, 0.24509323, -0.027454222, 0.031421676, 0.43410492, 0
24, 3694102335, 0.92095834, 0.005530007, 0.30301166, 0.24508849, -0.09046973, 0.03949199, 0.2661295, 0
25, 3694119002, 0.9208354, 0.005445622, 0.30337977, 0.24509686, -0.11780855, 0.09684386, 0.25731564, 0
26, 3694135669, 0.92073494, 0.005350042, 0.30368942, 0.24509265, -0.1657911, 0.107609, 0.29487038, 0
27, 3694152336, 0.9206415, 0.0052473284, 0.30395424, 0.24511805, -0.109245606, 0.019768044, 0.23658371, 0
28, 3694169003, 0.9205668, 0.005150497, 0.30414796, 0.24516037, -0.01603048, -0.02979091, 0.27883148, 0
29, 3694185670, 0.9205473, 0.0050651096, 0.30416307, 0.2452158, -0.03309587, 0.026965817, 0.34149933, 0
30, 3694202337, 0.92057645, 0.004986629, 0.30405742, 0.24523962, -0.085651495, 0.09553881, 0.33931065, 0
31, 3694219004, 0.92061156, 0.0048866756, 0.30393806, 0.24525765, -0.107640445, 0.049535137, 0.28955555, 0
32, 3694235671, 0.9206237, 0.004798401, 0.30388346, 0.24528107, -0.11097867, 0.06114504, 0.24508858, 0
33, 3694252338, 0.9206251, 0.004754808, 0.30384588, 0.2453239, -0.17971076, 0.07235909, 0.14557648, 0
34, 3694269005, 0.92061955, 0.0046862625, 0.30382788, 0.2453685, -0.14071484, 0.08465285, 0.287982, 0
35, 3694285672, 0.92064726, 0.0046560355, 0.30371588, 0.24540302, -0.08797169, 0.023391608, 0.5095396, 0
36, 3694302339, 0.9206515, 0.004694864, 0.30370426, 0.2454007, -0.06779533, 0.016050493, 0.43942356, 0
37, 3694319006, 0.92059636, 0.004782535, 0.3038589, 0.24541472, -0.09701576, 0.037230678, 0.36809826, 0
38, 3694335673, 0.92048675, 0.00482456, 0.30418247, 0.24542451, -0.16559748, 0.10015769, 0.33822727, 0
39, 3694352340, 0.92035246, 0.0047961175, 0.30458415, 0.24543034, -0.115761, 0.09892837, 0.31834698, 0
40, 3694369007, 0.9202258, 0.004727971, 0.3049522, 0.24544987, -0.06740146, 0.029039167, 0.2120781, 0
41, 3694385674, 0.9201222, 0.004643716, 0.305243, 0.24547818, -0.020373411, -0.027635155, 0.2402811, 0
42, 3694402341, 0.9200999, 0.004559133, 0.30531642, 0.24547184, 0.031365797, 0.01537709, 0.40858173, 0
43, 3694419008, 0.92015123, 0.004448995, 0.30519742, 0.2454295, -0.032790046, 0.065857895, 0.3592205, 0
44, 3694435675, 0.92018265, 0.0042799525, 0.30515343, 0.24536923, -0.08479918, -0.001981163, 0.28869438, 0
45, 3694452342, 0.9201415, 0.0040845647, 0.30532953, 0.24530771, -0.07867578, 0.011698794, 0.38602352, 0
46, 3694469009, 0.92002076, 0.0038598627, 0.3057615, 0.24522626, -0.09270994, 0.08618141, 0.42623806, 0
47, 3694485676, 0.91978264, 0.0035736263, 0.30653808, 0.2451545, -0.20481347, 0.07382475, 0.29433918, 0
48, 3694502343, 0.91940963, 0.0032617524, 0.3077213, 0.24507615, -0.17308486, 0.053191304, 0.2857113, 0
49, 3694519010, 0.9189892, 0.002915822, 0.30905035, 0.24498478, -0.18643925, 0.062081743, 0.28449345, 0
50, 3694535677, 0.91862637, 0.0025165826, 0.31023455, 0.24485302, -0.062315244, -0.012554457, 0.25371933, 0
51, 3694552344, 0.91837263, 0.002121579, 0.3110959, 0.24471578, 0.02625511, -0.102459356, 0.23045349, 0
53, 3694585678, 0.9182019, 0.0013278238, 0.3117778, 0.24449386, -0.012260534, -0.043330964, 0.30371475, 0
55, 3694619012, 0.91794354, 4.1909143E-4, 0.31266445, 0.24433495, -0.20135276, 0.04608759, 0.36015987, 0
56, 3694635679, 0.91757846, -8.6613E-5, 0.31382284, 0.24422184, -0.26800665, 0.0786152, 0.35661507, 0
57, 3694652346, 0.9170924, -6.0993806E-4, 0.31536508, 0.2440604, -0.16243915, 0.15582208, 0.34659195, 0
59, 3694685680, 0.9161199, -0.0015066192, 0.3183516, 0.24383111, 0.075666554, 0.15464087, 0.22513485, 0
60, 3694702347, 0.9157426, -0.0018737838, 0.3194446, 0.24381635, 0.12684229, 0.08846886, 0.28168678, 0
61, 3694719014, 0.9154083, -0.0022531003, 0.3203467, 0.24388422, 0.086144015, 0.032962058, 0.34009266, 0
63, 3694752348, 0.9146034, -0.0031231716, 0.3226917, 0.24380316, -0.18014601, 0.1871978, 0.33726406, 0
64, 3694769015, 0.9140231, -0.0035524145, 0.32441112, 0.24369168, -0.2282949, 0.26846275, 0.21364117, 0
65, 3694785682, 0.9132665, -0.0039444156, 0.32642764, 0.24382983, -0.21927431, 0.17909525, 0.21328068, 0
68, 3694835683, 0.91102886, -0.0046449006, 0.332313, 0.24423775, -0.06383174, 0.06280158, 0.3710041, 0
70, 3694869017, 0.9094422, -0.0047651716, 0.33620304, 0.24482423, -0.28024477, 0.05097491, 0.27913094, 0
71, 3694885684, 0.90862656, -0.0050196648, 0.3382157, 0.24507555, -0.30554706, 0.010097785, 0.27748013, 0
72, 3694902351, 0.90777975, -0.005222507, 0.34033346, 0.24527758, -0.31652927, -0.092307314, 0.3052721, 0
74, 3694935685, 0.90575767, -0.0050145797, 0.3452584, 0.24587338, -0.4547318, -0.228751, 0.9004164, 0
75, 3694952352, 0.9042564, -0.00515195, 0.34851778, 0.24679615, -0.6101208, -0.09475257, 0.92334175, 0
76, 3694969019, 0.90250915, -0.004554309, 0.35207486, 0.24815127, -0.6243725, 0.45274884, 0.7463722, 0
78, 3695002353, 0.8995761, -0.0014101565, 0.35688803, 0.2519345, -0.08027931, 0.09904141, 0.5174484, 0
79, 3695019020, 0.8983617, 3.2944232E-4, 0.35655883, 0.25669304, 0.42540142, -2.9031389, 0.770442, 0
80, 3695035687, 0.8972581, -6.8255514E-4, 0.3543108, 0.26357263, 0.5473096, -1.8504103, 0.7718296, 0
82, 3695069021, 0.8984772, -0.0051562414, 0.3485851, 0.26698214, 0.8646404, 1.7337711, -0.2698555, 0
83, 3695085688, 0.9001892, -0.008846074, 0.34560463, 0.26498604, 0.68041724, 0.99067056, -0.9492855, 0
84, 3695102355, 0.9016656, -0.012290381, 0.3435409, 0.26250106, 0.19961363, 0.086381726, -1.8332558, 0
86, 3695135689, 0.90292007, -0.018164095, 0.34217206, 0.25962028, -0.2590979, -1.2689322, -2.5512676, 0
87, 3695152356, 0.9021568, -0.019965153, 0.34344602, 0.2604586, -0.27474087, -1.439896, -3.4134164, 0
88, 3695169023, 0.9024275, -0.024498459, 0.34025222, 0.26330966, -0.43551207, -1.3481826, 4.70679, 0
90, 3695202357, 0.90463704, -0.026795972, 0.3305422, 0.26783377, 0.05309566, -0.5742171, 1.5486469, 0
91, 3695219024, 0.90589714, -0.027032644, 0.32557267, 0.26963162, -0.55070806, 0.28476256, 0.32478237, 0
93, 3695252358, 0.90738356, -0.026498958, 0.31966463, 0.27174738, -0.3421383, 0.28435913, 1.0298309, 0
95, 3695285692, 0.90866727, -0.026206564, 0.31557947, 0.27226034, -0.5160387, 0.2815153, -0.027228355, 0
97, 3695319026, 0.90922815, -0.02509477, 0.31259552, 0.27392998, -0.12004724, 0.2300709, 0.48453617, 0
98, 3695335693, 0.9096355, -0.024528977, 0.3108971, 0.2745613, -0.30647242, 0.0029537517, 0.12739563, 0
99, 3695352360, 0.9100146, -0.023848638, 0.30932415, 0.27514097, -0.12900084, -0.38950053, 0.22203064, 0
101, 3695385694, 0.9110142, -0.022819325, 0.30575317, 0.27591068, -0.35602528, 0.0661448, 0.40305805, 0
102, 3695402361, 0.91154695, -0.022337727, 0.30392736, 0.27620763, -0.4708673, 0.014618753, 0.23475456, 0
103, 3695419028, 0.9119765, -0.021818824, 0.30231863, 0.27659613, -0.41213587, -0.14636554, 0.35055447, 0
105, 3695452362, 0.9127213, -0.020606305, 0.29930675, 0.27750638, -0.42641708, -0.06278627, 0.38247013, 0
106, 3695469029, 0.9129798, -0.01985215, 0.29814428, 0.27796227, -0.40955165, -0.016584828, 0.38965416, 0
107, 3695485696, 0.91318035, -0.019115224, 0.29717663, 0.27839124, -0.40712118, -0.10222829, 0.36179543, 0
110, 3695535697, 0.9132524, -0.017140877, 0.2959247, 0.27961406, -0.20732653, -0.024676893, 0.28065395, 0
111, 3695552364, 0.91322094, -0.016534947, 0.29567692, 0.28001502, -0.055525027, -0.08310125, 0.246274, 0
113, 3695585698, 0.9133777, -0.015274771, 0.29442924, 0.28088862, 0.0024089282, 0.011381056, 0.3259611, 0
114, 3695602365, 0.9135079, -0.014657803, 0.2936743, 0.28128818, 0.028150134, 0.07303384, 0.30228138, 0
115, 3695619032, 0.91361517, -0.014070395, 0.29299077, 0.28168204, 0.051831145, 0.04979891, 0.36075115, 0
117, 3695652366, 0.91375726, -0.012993511, 0.29186618, 0.28243935, 0.10279917, 0.23604137, 0.2935772, 0
118, 3695669033, 0.9138234, -0.012538757, 0.29138777, 0.2827396, 0.15662423, 0.21589558, 0.26954365, 0
120, 3695702367, 0.9138607, -0.011763301, 0.29083684, 0.2832197, 0.23162776, 0.15139621, 0.3126936, 0
121, 3695719034, 0.9139277, -0.011512056, 0.29045105, 0.28340963, 0.20847794, 0.18062963, 0.31894016, 0
122, 3695735701, 0.91401243, -0.011327978, 0.2900571, 0.28354722, 0.16823569, 0.14228207, 0.31332588, 0
125, 3695785702, 0.9141087, -0.010972489, 0.28962907, 0.28368804, 0.15275155, 0.09944522, 0.3355484, 0
126, 3695802369, 0.9141329, -0.01089393, 0.28951463, 0.28372997, 0.13848542, 0.15751025, 0.3045597, 0
128, 3695835703, 0.9141993, -0.010665506, 0.28921047, 0.28383493, 0.054096434, 0.16950315, 0.31227875, 0
130, 3695869037, 0.91427296, -0.01042648, 0.28885323, 0.28397053, 0.1287829, 0.13299434, 0.3841915, 0
132, 3695902371, 0.91435415, -0.0102954805, 0.28852475, 0.28404745, 0.15812299, 0.04994816, 0.36466122, 0
133, 3695919038, 0.9143989, -0.0103518255, 0.28840223, 0.28402585, 0.13640513, 0.110179424, 0.39314556, 0
134, 3695935705, 0.914445, -0.0104690045, 0.28832397, 0.2839525, 0.12614445, 0.11091398, 0.37786865, 0
136, 3695969039, 0.9144761, -0.0108176805, 0.28843164, 0.2837302, 0.12184457, 0.046054203, 0.33140564, 0
137, 3695985706, 0.9144879, -0.010994978, 0.28854024, 0.28357494, 0.026677627, 0.15329215, 0.3162098, 0
138, 3696002373, 0.91453767, -0.011189628, 0.28855982, 0.2833864, 0.06260673, 0.15555184, 0.27355766, 0
141, 3696052374, 0.9147609, -0.011758748, 0.28835574, 0.28285068, 0.16636391, 0.050889987, 0.32544994, 0
142, 3696069041, 0.91488856, -0.012045644, 0.28809038, 0.28269607, 0.1789039, 0.06329203, 0.24923038, 0
144, 3696102375, 0.91507006, -0.012528013, 0.28766543, 0.2825202, 0.017496873, 0.3108127, 0.3704672, 0
145, 3696119042, 0.9151563, -0.012728788, 0.28749406, 0.28240615, 0.036620293, 0.30644345, 0.42346478, 0
147, 3696152376, 0.9153017, -0.0131563805, 0.28730217, 0.28211075, 0.16983898, -0.027562808, 0.3150549, 0
148, 3696169043, 0.915421, -0.013367731, 0.2870667, 0.2819528, 0.21318735, 0.016517663, 0.26339722, 0
149, 3696185710, 0.91558796, -0.013595365, 0.28666517, 0.2818084, 0.0613906, 0.18155041, 0.23290062, 0
151, 3696219044, 0.9159294, -0.014024109, 0.28578144, 0.2815752, 0.005167256, 0.3021111, 0.31680965, 0
152, 3696235711, 0.9160791, -0.014206354, 0.28541043, 0.28145579, 0.03244046, 0.21983312, 0.3230362, 0
153, 3696252378, 0.91619694, -0.0143793, 0.28514493, 0.2813324, -0.0056960564, 0.07229692, 0.34442043, 0
155, 3696285712, 0.91633904, -0.01472887, 0.28500417, 0.28099403, -0.025580687, 0.10103554, 0.37157822, 0
156, 3696302379, 0.9163997, -0.014905751, 0.28500247, 0.2807887, -0.055912036, 0.09683923, 0.3003149, 0
157, 3696319046, 0.9164788, -0.015052598, 0.28492382, 0.2806026, -0.061074644, 0.065879494, 0.15652275, 0
159, 3696352380, 0.91667366, -0.015119173, 0.28455442, 0.28033704, -0.038714804, 0.058251694, 0.35144424, 0
160, 3696369047, 0.9167656, -0.015101962, 0.28435567, 0.28023922, -0.061013088, -0.013316427, 0.3601141, 0
161, 3696385714, 0.9168488, -0.015115913, 0.28418034, 0.28014365, -0.06622801, -0.010944339, 0.34082127, 0
163, 3696419048, 0.9169604, -0.015146393, 0.28407785, 0.27988034, -0.04434013, -0.010564452, 0.33660603, 0
164, 3696435715, 0.91703236, -0.015213735, 0.2840163, 0.27970356, -0.032312974, 0.012014827, 0.41914654, 0
165, 3696452382, 0.91709715, -0.015292261, 0.28398514, 0.2795186, -0.044859275, -0.038105186, 0.36178303, 0
168, 3696502383, 0.9172545, -0.015815973, 0.284049, 0.2789077, -0.20628585, 0.01068839, 0.20018482, 0
169, 3696519050, 0.9173104, -0.016059533, 0.28404027, 0.2787188, -0.1687337, -0.02908968, 0.3253622, 0
171, 3696552384, 0.91734916, -0.016496308, 0.28428853, 0.2783119, -0.20913361, -0.09633425, 0.41533566, 0
172, 3696569051, 0.9172917, -0.016673781, 0.2846924, 0.27807802, -0.3257882, 0.013329279, 0.34040546, 0
173, 3696585718, 0.9171778, -0.016850844, 0.28524777, 0.27787367, -0.312967, 0.04909297, 0.34031963, 0
175, 3696619052, 0.9169416, -0.017191898, 0.28628415, 0.2775663, -0.06975941, -0.102780476, 0.2911396, 0
176, 3696635719, 0.9169174, -0.017356459, 0.28648642, 0.27742767, -0.011657933, -0.17860043, 0.21935177, 0
178, 3696669053, 0.91718787, -0.017727092, 0.28592148, 0.2770925, -0.08355354, -0.07033567, 0.2946272, 0
179, 3696685720, 0.9173891, -0.017916508, 0.28541023, 0.27694106, -0.14527096, 0.06556624, 0.35924053, 0
180, 3696702387, 0.9175262, -0.018117808, 0.2850616, 0.276833, -0.2165225, 0.10374745, 0.3820858, 0
183, 3696752388, 0.9174923, -0.018549815, 0.2855051, 0.27645993, -0.14574844, 0.021489765, 0.2601967, 0
184, 3696769055, 0.917443, -0.018634576, 0.28578794, 0.27632517, -0.07271068, 0.040137924, 0.30537128, 0
186, 3696802389, 0.9174712, -0.018648751, 0.2858873, 0.27612728, -0.0088076815, -0.02494508, 0.24527168, 0
187, 3696819056, 0.9175185, -0.0186208, 0.2858054, 0.27605706, -0.06333582, 0.029759437, 0.2894516, 0
188, 3696835723, 0.9175718, -0.018556334, 0.28573048, 0.27596185, -0.11838991, 0.12506452, 0.3446064, 0
190, 3696869057, 0.9176156, -0.018547032, 0.28587478, 0.2756672, -0.10769689, 0.03051104, 0.35376263, 0
191, 3696885724, 0.9175529, -0.018489473, 0.28621894, 0.275523, -0.06854599, 0.054878715, 0.43073463, 0
192, 3696902391, 0.91744846, -0.01841113, 0.2867342, 0.27533978, -0.09349617, 0.11184599, 0.36502934, 0
194, 3696935725, 0.91713256, -0.018246505, 0.28806543, 0.27501345, -0.054654896, 0.0760343, 0.25924492, 0
195, 3696952392, 0.9169615, -0.018152602, 0.28875294, 0.27486938, -0.027932564, 0.09640234, 0.26251888, 0
198, 3697002393, 0.9164862, -0.018319108, 0.29061994, 0.2744755, 0.03529014, -0.07498505, 0.34674835, 0
199, 3697019060, 0.91635907, -0.01843926, 0.29116988, 0.27430886, 7.568463E-4, 0.06468976, 0.3898859, 0
201, 3697052394, 0.91612005, -0.018758893, 0.2922531, 0.27393368, -0.14190589, 0.036522828, 0.30217838, 0
202, 3697069061, 0.9159277, -0.018949997, 0.29300675, 0.27375817, -0.06409439, 0.009770227, 0.32424736, 0
203, 3697085728, 0.915728, -0.019143637, 0.2937949, 0.2735682, -0.027069718, 0.042542815, 0.26316547, 0
205, 3697119062, 0.9154176, -0.019384343, 0.29515383, 0.2731264, 0.004731668, 0.06791805, 0.26346493, 0
206, 3697135729, 0.9153151, -0.019410416, 0.2956628, 0.27291772, 0.009108645, 0.06036794, 0.299798, 0
207, 3697152396, 0.91520655, -0.019415382, 0.29615486, 0.2727477, -0.007970817, 0.040256694, 0.31358337, 0
209, 3697185730, 0.9149191, -0.019516595, 0.29738757, 0.2723637, -0.008492225, 0.053804096, 0.27782917, 0
210, 3697202397, 0.9147967, -0.019593902, 0.2980114, 0.27208728, 0.047836475, 0.10234689, 0.28832245, 0
213, 3697252398, 0.91434526, -0.019966967, 0.30001187, 0.2713781, -0.00831493, 0.088969134, 0.34174252, 0
214, 3697269065, 0.9141676, -0.020204443, 0.3008655, 0.27101386, -0.025111431, 0.06790131, 0.3195095, 0
215, 3697285732, 0.91391885, -0.020484403, 0.3019558, 0.27061874, -0.02154486, 0.05336587, 0.3176508, 0
217, 3697319066, 0.91359466, -0.020758849, 0.30349186, 0.2699736, -0.5452582, 0.09043812, 0.18585014, 0
218, 3697335733, 0.913308, -0.021110836, 0.30484548, 0.2693904, 0.05192746, 0.123206906, 0.7694826, 0
219, 3697352400, 0.9128718, -0.021660589, 0.30658656, 0.26884913, -0.19327073, 0.081819266, 0.3508854, 0
221, 3697385734, 0.91133314, -0.022887126, 0.31201944, 0.2677148, -0.22749548, 0.012177321, 0.45680046, 0
222, 3697402401, 0.9104384, -0.023814626, 0.31522033, 0.2669268, -0.4470459, 0.10587585, 0.06486702, 0
223, 3697419068, 0.9094714, -0.024765857, 0.31867948, 0.26602834, -0.7238187, -0.11310369, -0.016346931, 0
225, 3697452402, 0.9078976, -0.026251648, 0.32415152, 0.2646467, -0.2184925, -0.5172557, 0.48439693, 0
226, 3697469069, 0.90746903, -0.026594497, 0.3254782, 0.2644543, -0.29646605, -0.4512855, 0.23553085, 0
228, 3697502403, 0.90710044, -0.026524685, 0.32610613, 0.2649517, -0.52914035, -0.18255927, 0.384614, 0
229, 3697519070, 0.9070327, -0.026332192, 0.32598382, 0.2653529, -0.44178948, -0.12809388, 0.44438076, 0
230, 3697535737, 0.90692806, -0.026111688, 0.32592005, 0.26581, -0.3060842, -0.2094602, 0.322011, 0
232, 3697569071, 0.9066988, -0.025817044, 0.32593784, 0.2665979, -0.18165895, -0.008914423, 0.24260426, 0
233, 3697585738, 0.9066866, -0.025801305, 0.32576796, 0.2668486, -0.14890833, 0.12966873, 0.23320961, 0
234, 3697602405, 0.90675014, -0.025728729, 0.32540753, 0.26707944, -0.027257385, 0.108186, 0.2539873, 0
236, 3697635739, 0.9068309, -0.025579851, 0.32486275, 0.26748222, -0.052392494, -0.071710475, 0.4352417, 0
237, 3697652406, 0.9068305, -0.025637586, 0.32489502, 0.26743895, -0.0915121, 0.05750678, 0.41042423, 0
240, 3697702407, 0.90664774, -0.026009552, 0.32570463, 0.2670375, -0.037711933, 0.15143016, 0.20318413, 0
241, 3697719074, 0.90672165, -0.026044276, 0.3256021, 0.2669084, 0.085487716, 0.020009635, 0.15629578, 0
242, 3697735741, 0.906907, -0.025907539, 0.32514793, 0.2668457, 0.13085355, 1.4849642E-4, 0.11312294, 0
244, 3697769075, 0.90747094, -0.025440685, 0.32358837, 0.26686925, -0.14707069, 0.1680533, 0.37847996, 0
245, 3697785742, 0.90770656, -0.025203664, 0.32294124, 0.26687378, -0.176952, 0.11420353, 0.38368702, 0
246, 3697802409, 0.90786296, -0.024975792, 0.32256263, 0.26682127, -0.0906752, 0.0040092636, 0.44090652, 0
248, 3697835743, 0.90799683, -0.02471603, 0.3224544, 0.26652098, -0.12304163, -0.008541268, 0.37608814, 0
249, 3697852410, 0.9079802, -0.024706934, 0.32268378, 0.2663006, -0.19775651, 0.0068021417, 0.28800488, 0
250, 3697869077, 0.90792626, -0.024710707, 0.32302853, 0.26606596, -0.18901303, 0.011230296, 0.2483921, 0
252, 3697902411, 0.9077479, -0.02466762, 0.3238252, 0.26570937, -0.22275117, -0.053801496, 0.31744576, 0
255, 3697952412, 0.90767276, -0.024565086, 0.3243136, 0.26537964, -0.18646032, -0.17863312, 0.18176174, 0
256, 3697969079, 0.9077708, -0.02457641, 0.3240559, 0.26535842, -0.23679689, -0.12056691, 0.23058033, 0
257, 3697985746, 0.90792227, -0.024627041, 0.32363078, 0.2653547, -0.2029431, -0.14445092, 0.29227638, 0
259, 3698019080, 0.9082367, -0.02488523, 0.32271832, 0.2653659, -0.27827638, -0.24429259, 0.28037357, 0
260, 3698035747, 0.90839636, -0.02509173, 0.32229894, 0.26530904, -0.26337227, -0.14188005, 0.3256235, 0
261, 3698052414, 0.90861523, -0.025342435, 0.32171485, 0.2652448, -0.26950002, -0.1400668, 0.25337315, 0
263, 3698085748, 0.90906847, -0.025896713, 0.3203469, 0.26529396, -0.32881626, -0.22522365, 0.2743225, 0
264, 3698102415, 0.9092722, -0.026270844, 0.3197439, 0.26528662, -0.33773774, -0.25131163, 0.3078146, 0
265, 3698119082, 0.90947795, -0.026766926, 0.31916922, 0.26522344, -0.28933334, -0.25166, 0.40545368, 0
267, 3698152416, 0.90990704, -0.027790863, 0.31801173, 0.26503676, -0.2828605, -0.15045817, 0.12725067, 0
269, 3698185750, 0.91038877, -0.028629845, 0.31659418, 0.26499042, -0.13296415, 0.017892268, 0.4385624, 0
271, 3698219084, 0.9112279, -0.029508935, 0.31417888, 0.2648846, -0.1802019, -0.1564253, 0.03700161, 0
272, 3698235751, 0.9114964, -0.029881433, 0.31334245, 0.26490963, -0.100773565, -0.051101014, 0.36507607, 0
273, 3698252418, 0.91181046, -0.030370146, 0.3125073, 0.26475996, 1.5391137E-4, 0.31390977, 0.50125027, 0
275, 3698285752, 0.91225487, -0.03157759, 0.31151503, 0.2642563, 0.023289323, -0.09480897, 0.41094208, 0
276, 3698302419, 0.9124206, -0.032248374, 0.31118548, 0.26399162, -0.030041901, -0.014558293, 0.27241993, 0
277, 3698319086, 0.91262895, -0.03283298, 0.31078178, 0.26367432, -0.11040513, 0.11027892, 0.12966728, 0
279, 3698352420, 0.91306096, -0.033442244, 0.30975014, 0.26331604, -0.26076037, -0.05970453, 0.22389603, 0
280, 3698369087, 0.91317004, -0.033551197, 0.3094095, 0.2633244, -0.34114116, 0.04916542, 0.26216984, 0
281, 3698385754, 0.91320384, -0.033544283, 0.3092757, 0.26336512, -0.31219864, 0.123356104, 0.39123917, 0
284, 3698435755, 0.9131679, -0.033353716, 0.3093192, 0.26346296, -0.048807938, 0.015613944, 0.298563, 0
286, 3698469089, 0.9132329, -0.03312733, 0.30895653, 0.26369184, -0.12423822, -0.23506542, 0.18455696, 0
287, 3698485756, 0.9132635, -0.033021368, 0.30880168, 0.26378047, 0.050158136, -0.01873304, 0.4618082, 0
288, 3698502423, 0.91345227, -0.03297072, 0.3082409, 0.26378933, 0.07764298, 0.33989924, 0.43342018, 0
290, 3698535757, 0.9139628, -0.032715026, 0.30655652, 0.2640149, 0.040221512, 0.07805617, 0.46082687, 0
291, 3698552424, 0.9142384, -0.032616854, 0.30562276, 0.2641558, -0.06238567, -0.121866696, 0.26893997, 0
292, 3698569091, 0.9144615, -0.0325284, 0.30487904, 0.26425368, -0.04960167, -0.109727345, 0.34395313, 0
294, 3698602425, 0.9148749, -0.032475226, 0.30360746, 0.2642931, -0.11727487, 0.33896014, 0.3854828, 0
295, 3698619092, 0.9150417, -0.03246459, 0.30310252, 0.26429668, -0.13317111, 0.27501124, 0.38766098, 0
296, 3698635759, 0.91517967, -0.032401472, 0.30270466, 0.26428285, -0.107620135, 0.08751281, 0.36418438, 0
298, 3698669093, 0.9153702, -0.03208547, 0.3021609, 0.26428342, -0.2166003, -0.02077293, 0.30276108, 0
299, 3698685760, 0.91549706, -0.031924855, 0.30178836, 0.26428923, -0.24862525, 0.16305332, 0.2799816, 0
300, 3698702427, 0.9156192, -0.031787008, 0.30141002, 0.26431468, -0.13164638, 0.12164025, 0.2896471, 0
302, 3698735761, 0.915664, -0.031516746, 0.3013851, 0.26422006, 0.056509513, 0.09006005, 0.4179983, 0
303, 3698752428, 0.91580236, -0.031450413, 0.30101657, 0.2641685, 0.21887723, 0.060257725, 0.102781296, 0
304, 3698769095, 0.9156928, -0.03142891, 0.30151877, 0.2639784, -0.30823243, -0.12820742, 0.5660906, 0
306, 3698802429, 0.9153346, -0.03140393, 0.303053, 0.26346606, -0.44043052, 0.1880146, 0.08875084, 0
307, 3698819096, 0.91496724, -0.031365626, 0.30441833, 0.26317263, -0.32837573, 0.071109526, 0.41569138, 0
309, 3698852430, 0.91411483, -0.031618394, 0.30740708, 0.26262975, -0.42949873, -0.40639886, 0.13849354, 0
311, 3698885764, 0.9134009, -0.03230773, 0.31002048, 0.26195717, -0.48190624, -0.46930513, 0.34547043, 0
313, 3698919098, 0.913088, -0.032875758, 0.3111405, 0.26164895, -0.44884443, -0.30047032, 0.22255135, 0
314, 3698935765, 0.91309565, -0.03299432, 0.3111101, 0.26164407, -0.33320323, -0.16709895, 0.18487835, 0
315, 3698952432, 0.9132269, -0.03307882, 0.31072628, 0.26163104, -0.09799019, -0.047200292, 0.34864426, 0
317, 3698985766, 0.91378653, -0.033345252, 0.30916083, 0.26149777, -0.0066981246, -0.009444177, 0.34060287, 0
318, 3699002433, 0.91404223, -0.03350547, 0.3084517, 0.26142126, -0.14495517, -0.04483586, 0.32642174, 0
319, 3699019100, 0.91430277, -0.033747263, 0.307715, 0.261347, -0.2982309, -0.070055865, 0.29159927, 0
321, 3699052434, 0.9148525, -0.034321323, 0.30606738, 0.26128268, -0.0035928397, -0.2016332, 0.23824883, 0
322, 3699069101, 0.9151577, -0.034456376, 0.3051133, 0.26131237, 0.16294703, -0.052405253, 0.2732725, 0
323, 3699085768, 0.9155101, -0.03461509, 0.30402237, 0.2613289, 0.20307373, 0.23689766, 0.39198685, 0
326, 3699135769, 0.9163742, -0.035323873, 0.30123556, 0.26143247, 0.23337643, 0.18990646, 0.25562, 0
327, 3699152436, 0.9165501, -0.0355362, 0.3006301, 0.26148388, 0.1775033, 0.27766088, 0.2173233, 0
329, 3699185770, 0.9169759, -0.03590756, 0.29923803, 0.2615371, 0.27064195, 0.19161095, 0.30502605, 0
330, 3699202437, 0.9172399, -0.036006026, 0.29840413, 0.26155028, 0.28710708, 0.11730848, 0.3986578, 0
331, 3699219104, 0.91747254, -0.036075808, 0.29772407, 0.26149994, 0.12231219, 0.1872321, 0.32751942, 0
333, 3699252438, 0.9176904, -0.036190994, 0.297112, 0.26141554, 0.07161416, 0.17742078, 0.31124878, 0
334, 3699269105, 0.9177554, -0.036233015, 0.29699722, 0.2613119, 0.07068372, 0.18812563, 0.25153542, 0
336, 3699302439, 0.91785544, -0.0363778, 0.29679686, 0.2611681, 0.041928187, 0.19740474, 0.3480997, 0
337, 3699319106, 0.9178882, -0.036490142, 0.29675427, 0.26108578, 0.06601052, 0.08303596, 0.3206606, 0
338, 3699335773, 0.9178921, -0.03660518, 0.29679346, 0.2610116, 0.0612496, -0.005473972, 0.31328106, 0
341, 3699385774, 0.91778374, -0.037181403, 0.2974659, 0.26054507, -0.041602723, 0.015200948, 0.33195305, 0
342, 3699402441, 0.9176953, -0.037503377, 0.29786697, 0.260352, -0.049147233, -0.011444618, 0.32285595, 0
344, 3699435775, 0.9176105, -0.038098272, 0.2984341, 0.25991443, -0.067796156, -0.04098117, 0.19589615, 0
345, 3699452442, 0.91764146, -0.038306348, 0.29842642, 0.25978366, -0.06952088, -0.038040396, 0.2287569, 0
346, 3699469109, 0.91772485, -0.038446646, 0.29817793, 0.25975394, -0.081963256, 0.08019407, 0.32021618, 0
348, 3699502443, 0.9178668, -0.038734265, 0.29762068, 0.25984856, -0.1534394, -0.06664452, 0.31672096, 0
349, 3699519110, 0.9178242, -0.038817137, 0.29773986, 0.25984997, -0.11881524, -0.10296894, 0.34078026, 0
350, 3699535777, 0.91774213, -0.038901195, 0.29804444, 0.25977805, -0.12796989, -0.0040941983, 0.3479414, 0
352, 3699569111, 0.91765684, -0.03902038, 0.29843763, 0.2596101, -0.069970645, 0.06839711, 0.22679901, 0
353, 3699585778, 0.9177021, -0.039028127, 0.29824924, 0.2596653, -0.051139556, -0.09174876, 0.285285, 0
356, 3699635779, 0.917961, -0.038911056, 0.2972284, 0.2599384, -0.14309575, 0.055255167, 0.401515, 0
357, 3699652446, 0.9180055, -0.03885033, 0.29706582, 0.25997633, -0.16575558, 0.10226075, 0.3571825, 0
358, 3699669113, 0.9180012, -0.03880169, 0.29702398, 0.26004642, -0.10255307, 0.059654515, 0.3310814, 0
360, 3699702447, 0.9180176, -0.03872281, 0.2968845, 0.26015928, -0.02851688, -0.06141911, 0.23622131, 0
361, 3699719114, 0.9180608, -0.03868144, 0.29673833, 0.26018012, -0.050853264, -0.016377352, 0.2495861, 0
363, 3699752448, 0.91820925, -0.038567442, 0.29627204, 0.26020458, -0.107268795, 0.029112088, 0.35133362, 0
364, 3699769115, 0.9182436, -0.03851143, 0.29610288, 0.26028413, -0.07642771, -0.005151722, 0.33714294, 0
365, 3699785782, 0.91829175, -0.03842341, 0.2959473, 0.26030406, -0.06512596, 0.010509887, 0.2867403, 0
367, 3699819116, 0.9184193, -0.03822279, 0.29552713, 0.2603615, -0.100977086, 0.07434812, 0.33957577, 0
368, 3699835783, 0.91847354, -0.038163893, 0.29532814, 0.26040423, -0.058239143, -0.0011330431, 0.3646145, 0
369, 3699852450, 0.91851705, -0.038087722, 0.29515067, 0.26046327, -0.04245958, -0.09073493, 0.33240032, 0
371, 3699885784, 0.9185973, -0.037891258, 0.29480484, 0.26060036, -0.10153382, 0.088656165, 0.2747574, 0
372, 3699902451, 0.91867566, -0.03775225, 0.29454273, 0.26064074, -0.08234551, 0.13089594, 0.30644417, 0
373, 3699919118, 0.9187892, -0.037610345, 0.29419714, 0.26065153, -0.070233524, 0.06996579, 0.26866913, 0
375, 3699952452, 0.91901517, -0.03730268, 0.29348895, 0.26069725, -0.04560786, -0.06782111, 0.32149506, 0
376, 3699969119, 0.9191175, -0.037099153, 0.2932008, 0.2606899, -0.055907894, 4.4026464E-4, 0.35319042, 0
377, 3699985786, 0.9191919, -0.03692674, 0.2929487, 0.26073548, -0.103898555, 0.09247044, 0.32668114, 0
379, 3700019120, 0.919298, -0.03663128, 0.29252324, 0.26088062, -0.090911016, 0.051472742, 0.32029057, 0
380, 3700035787, 0.91934556, -0.03650798, 0.292342, 0.26093367, -0.106822796, 0.0021741386, 0.36082554, 0
383, 3700085788, 0.91947305, -0.03599597, 0.29191157, 0.2610374, -0.05348565, 0.016461981, 0.31344604, 0
384, 3700102455, 0.91952246, -0.035819508, 0.2917777, 0.26103696, -0.0694834, 0.09389011, 0.3675604, 0
385, 3700119122, 0.9195331, -0.03571257, 0.2917103, 0.26108986, -0.035665423, 0.039040282, 0.38856602, 0
387, 3700152456, 0.91949815, -0.035506584, 0.29182786, 0.2611092, -0.008628124, -0.051582403, 0.30795383, 0
388, 3700169123, 0.9194685, -0.035445556, 0.29196584, 0.26106775, -0.014122514, -0.030131517, 0.31314182, 0
389, 3700185790, 0.9194671, -0.03539481, 0.29209158, 0.26093867, -0.03750086, 0.022430196, 0.34021282, 0
391, 3700219124, 0.91944325, -0.035319652, 0.29216647, 0.26094952, -0.08707053, 0.031987444, 0.275362, 0
392, 3700235791, 0.9194877, -0.0352899, 0.29203978, 0.26093832, -0.049232062, -0.03666966, 0.30637264, 0
394, 3700269125, 0.9195912, -0.035298645, 0.29178268, 0.2608601, -0.1388733, -0.07546337, 0.36396885, 0
395, 3700285792, 0.9196893, -0.03536579, 0.29150146, 0.2608196, 0.3785876, -0.012931147, 0.16847134, 0
398, 3700335793, 0.9196962, -0.035511777, 0.2917259, 0.2605244, -0.30308697, 0.17232463, 0.4646225, 0
399, 3700352460, 0.9194191, -0.0356097, 0.2927231, 0.2603706, -0.57900226, -0.059696764, 0.2997923, 0
400, 3700369127, 0.91909754, -0.03561376, 0.29390818, 0.2601704, -0.41196674, -0.23284988, 0.43050098, 0
402, 3700402461, 0.9185274, -0.035374008, 0.29610327, 0.2597272, -0.3534152, -0.2301906, 0.046260834, 0
403, 3700419128, 0.91846645, -0.035234526, 0.2964117, 0.25960955, -0.29303208, -0.21580195, 0.15127468, 0
404, 3700435795, 0.91856706, -0.035136186, 0.29603764, 0.259694, -0.4127931, -0.3100302, 0.34189796, 0
406, 3700469129, 0.91894835, -0.034911476, 0.29472816, 0.25986445, -0.45382655, -0.21103196, 0.3914318, 0
407, 3700485796, 0.9190667, -0.034836534, 0.29432228, 0.25991583, -0.39082924, -0.055419844, 0.44942188, 0
408, 3700502463, 0.91914946, -0.034839995, 0.2940287, 0.2599553, -0.2951212, 0.03431776, 0.4249525, 0
410, 3700535797, 0.9193477, -0.034806684, 0.2934341, 0.2599306, -0.13401665, -0.16223285, 0.13436985, 0
412, 3700569131, 0.9198248, -0.034732386, 0.29180506, 0.2600867, -0.14240922, -0.028024754, 0.3443451, 0
414, 3700602465, 0.9203705, -0.034535673, 0.29008102, 0.26011077, -0.24122502, 0.15650386, 0.4937563, 0
415, 3700619132, 0.92050517, -0.034479953, 0.2896084, 0.2601686, -0.22056712, 0.05197067, 0.43545055, 0
416, 3700635799, 0.9205761, -0.034456767, 0.2893349, 0.26022452, -0.17586774, -0.115595184, 0.42519093, 0
418, 3700669133, 0.92082626, -0.03443372, 0.28866503, 0.2600864, -0.1695613, -0.06850619, 0.29595757, 0
419, 3700685800, 0.9211119, -0.034370378, 0.2879632, 0.25986165, -0.12509705, -0.019047327, 0.25974274, 0
421, 3700719134, 0.9216972, -0.034263175, 0.28605726, 0.25990534, -0.2435667, 0.010242313, 0.44149494, 0
422, 3700735801, 0.92193836, -0.034142002, 0.28535825, 0.2598342, -0.28966242, -0.044480503, 0.43749142, 0
423, 3700752468, 0.92198867, -0.03403838, 0.2851995, 0.25984362, -0.32308882, -0.07744907, 0.47878742, 0
425, 3700785802, 0.92140895, -0.033788517, 0.2872674, 0.25965458, -0.44668838, 0.10803281, 0.49467278, 0
427, 3700819136, 0.91985446, -0.033552416, 0.2925991, 0.2592433, -0.51123714, -0.034221176, 0.3694191, 0
429, 3700852470, 0.9178839, -0.033053007, 0.2990885, 0.25888592, -0.6005133, -0.2466351, 0.23633575, 0
430, 3700869137, 0.9169777, -0.03277567, 0.30204076, 0.25870445, -0.6789569, -0.35537836, 0.44273376, 0
431, 3700885804, 0.9159813, -0.03255982, 0.30518213, 0.2585753, -0.84418845, -0.47077253, 0.50479794, 0
433, 3700919138, 0.9131689, -0.03215691, 0.31394038, 0.25808734, -1.5623729, -0.31666768, 0.735281, 0
434, 3700935805, 0.911256, -0.03184505, 0.31987736, 0.25759628, -1.6964859, -0.4214293, 0.87052727, 0
435, 3700952472, 0.90912485, -0.031209351, 0.3264916, 0.25690478, -1.5508201, -0.5346106, 1.0057735, 0
437, 3700985806, 0.90516454, -0.02660662, 0.33854124, 0.25580907, -1.4747379, 0.26905972, 1.174078, 0
438, 3701002473, 0.9041486, -0.021910816, 0.34209082, 0.25512466, -1.2992964, -0.55949485, 0.5413599, 0
439, 3701019140, 0.90379673, -0.016999077, 0.34413508, 0.25399345, -0.49161473, -0.4347346, 0.246768, 0
441, 3701052474, 0.9051873, -0.011320297, 0.34662154, 0.2458461, 3.3523788, -0.2784732, 2.6616774, 0
442, 3701069141, 0.9073851, -0.014567051, 0.34626812, 0.23794465, 2.4277737, 1.9829574, -0.17167664, 0
444, 3701102475, 0.9107873, -0.024008345, 0.35037225, 0.21727565, 1.4872807, -0.83748716, -1.1630926, 0
445, 3701119142, 0.91060716, -0.03020867, 0.35563833, 0.20852451, 0.68635833, -1.6750984, -2.6500401, 0
446, 3701135809, 0.9089417, -0.035223298, 0.36282706, 0.20253366, -0.023778206, -2.2105763, -1.024148, 0
448, 3701169143, 0.9027637, -0.040001646, 0.37858412, 0.20042673, -1.9957728, -1.7731032, -0.4944563, 0
449, 3701185810, 0.8988308, -0.04200592, 0.38681573, 0.20196915, -2.742267, -0.7169604, -1.9116855, 0
450, 3701202477, 0.8940014, -0.04358897, 0.39665994, 0.20396456, -3.3971534, -0.73440945, -3.0629897, 0
452, 3701235811, 0.88537985, -0.0410328, 0.41175675, 0.21202439, -9.5606165, -3.8764935, -0.72207355, 0
454, 3701269145, 0.88268524, -0.04378322, 0.41301835, 0.22010216, -7.698162, -1.547969, 0.3528757, 0
456, 3701302479, 0.88387793, -0.05168476, 0.41018832, 0.21889076, -0.92328566, -0.9730722, 1.5242367, 0
457, 3701319146, 0.88421184, -0.053097658, 0.40923014, 0.2189981, -2.8726125, -1.4950783, 0.90086174, 0
458, 3701335813, 0.88450193, -0.052839138, 0.40866405, 0.21894598, -3.0077522, 0.13983746, 0.4413643, 0
460, 3701369147, 0.8856456, -0.052615806, 0.4062259, 0.21891302, -4.2953024, -2.2529798, 0.567502, 0
461, 3701385814, 0.885911, -0.052620687, 0.4047771, 0.22051598, -6.218861, -3.1348953, -0.36357498, 0
462, 3701402481, 0.8861128, -0.051144823, 0.4036541, 0.22210535, -6.361551, -3.001094, -0.92850494, 0
464, 3701435815, 0.88919806, -0.047289878, 0.3986801, 0.2195994, -3.9258575, -3.123726, -0.030174255, 0
465, 3701452482, 0.8912818, -0.046798028, 0.39586237, 0.21633008, -1.0568751, -2.1306677, -0.08945751, 0
466, 3701469149, 0.89269054, -0.047576282, 0.39468774, 0.21246359, 1.9422303, -0.43316346, 0.58470535, 0
469, 3701519150, 0.88954294, -0.054742724, 0.4007858, 0.21252471, -4.239252, -0.35528374, 1.3273458, 0
471, 3701552484, 0.88394254, -0.06201475, 0.406857, 0.22214058, -4.1972466, -1.9481183, -1.6544867, 0
472, 3701569151, 0.88009953, -0.065045014, 0.41137543, 0.22813043, -1.4450154, -0.46782404, -3.0110717, 0
473, 3701585818, 0.87772626, -0.06413276, 0.4138237, 0.23305073, -1.1455739, -0.9940359, -2.7587028, 0
475, 3701619152, 0.8786586, -0.05515589, 0.4077788, 0.24230659, -1.2799624, -1.2490432, -0.4999342, 0
476, 3701635819, 0.8814192, -0.04907067, 0.3997671, 0.24689597, -2.2787974, -0.9967435, 0.3312645, 0
477, 3701652486, 0.8849218, -0.042742297, 0.39003068, 0.25108123, -1.944634, 0.22092336, 0.8632679, 0
479, 3701685820, 0.89247465, -0.032193374, 0.3692896, 0.2572098, -0.5985863, -0.6332261, 1.2749634, 0
480, 3701702487, 0.8956509, -0.02763217, 0.36036557, 0.2593487, 0.15983875, -1.115381, 1.795536, 0
481, 3701719154, 0.89835775, -0.023692563, 0.3528137, 0.260756, 1.0421319, -0.7973846, 2.772355, 0
484, 3701769155, 0.9011918, -0.0149342045, 0.34385082, 0.26358312, 0.9154227, 1.6901414, 1.4016523, 0
485, 3701785822, 0.90090907, -0.012768183, 0.3439012, 0.264596, 0.38025633, 0.91050273, -0.027187347, 0
487, 3701819156, 0.90096056, -0.0093045905, 0.34250334, 0.26637214, 1.0627514, 0.05492613, 1.0660553, 0
488, 3701835823, 0.9023147, -0.007408414, 0.33899885, 0.2663312, 1.6248918, -0.6434166, 1.9732275, 0
489, 3701852490, 0.9034159, -0.006051995, 0.3366833, 0.2655684, 1.6046999, -0.22999355, -0.04027462, 0
491, 3701885824, 0.905656, -0.0050570406, 0.3324211, 0.26331925, 0.8778822, 2.0148861, 1.2647896, 0
492, 3701902491, 0.9071067, -0.0053309314, 0.3294305, 0.26207617, 0.3833107, 1.1836509, 0.33582973, 0
493, 3701919158, 0.9082692, -0.005765464, 0.3270554, 0.26101303, 0.8012184, 0.6775572, -0.1473608, 0
495, 3701952492, 0.91085464, -0.0071410276, 0.32162753, 0.25870454, 1.55086, 0.8982312, 0.37349987, 0
496, 3701969159, 0.91241604, -0.008092523, 0.31856737, 0.25695422, 1.2494923, 1.0443852, -0.84237576, 0
499, 3702019160, 0.917164, -0.010188252, 0.30678245, 0.25430256, 0.8356336, 0.8561288, 0.00859642, 0
500, 3702035827, 0.91848475, -0.010709748, 0.30323038, 0.25377476, 0.53929883, -0.59506315, 0.029026031, 0
502, 3702069161, 0.9197299, -0.011391502, 0.30030257, 0.25271514, -0.31897405, 0.86619246, 0.46883678, 0
503, 3702085828, 0.9206503, -0.011787482, 0.29813737, 0.25190744, 0.07244757, 0.53076136, 1.4735632, 0
504, 3702102495, 0.92148775, -0.01213973, 0.29598376, 0.25136784, -0.12497425, -0.5192576, -0.082019806, 0
506, 3702135829, 0.9222121, -0.012294553, 0.29370025, 0.2513825, -0.13149051, -0.2553168, -0.025929451, 0
507, 3702152496, 0.92277455, -0.012431517, 0.29189062, 0.25141954, -0.20271477, -0.52957183, 1.0956478, 0
508, 3702169163, 0.92336696, -0.012529973, 0.29009423, 0.2513189, -0.6941277, -0.5985483, -0.32425022, 0
510, 3702202497, 0.9239911, -0.012455579, 0.28788984, 0.25156304, -0.5065431, -0.23763193, 0.5217371, 0
511, 3702219164, 0.92411417, -0.012751203, 0.2873702, 0.25169006, -0.8369508, -0.22891477, -0.03981781, 0
512, 3702235831, 0.9241506, -0.01303193, 0.28706196, 0.25189367, -1.0194166, -0.57532704, 0.09130764, 0
514, 3702269165, 0.924061, -0.013430733, 0.2868888, 0.2523981, -0.9573048, 0.100902915, 0.0703001, 0
515, 3702285832, 0.92402786, -0.013788447, 0.28691658, 0.2524687, -0.8334688, -0.20116948, -0.03253174, 0
516, 3702302499, 0.92389864, -0.0139778, 0.28717327, 0.2526393, -0.8797973, -0.83255464, 0.5330868, 0
518, 3702335833, 0.92416775, -0.015189961, 0.2862574, 0.2526248, -0.13919029, -0.5961943, 1.4414787, 0
519, 3702352500, 0.9243238, -0.015762765, 0.28597197, 0.25234145, -1.0071301, -0.9437956, -0.70360565, 0
520, 3702369167, 0.9246376, -0.016666919, 0.28528407, 0.251912, -0.8963552, -0.14800099, 0.6085224, 0
522, 3702402501, 0.92549294, -0.0183631, 0.283081, 0.25113794, -1.652427, -0.29183376, -1.1407957, 0
523, 3702419168, 0.9259431, -0.019495912, 0.28190082, 0.25072005, -1.1974409, -0.98895496, 0.9193773, 0
526, 3702469169, 0.9281806, -0.023180567, 0.27445164, 0.250398, 0.0019195852, -1.5960777, 1.3246031, 0
527, 3702485836, 0.92897475, -0.024627602, 0.27207646, 0.24990639, -0.10795573, -0.8144495, 0.9296398, 0
529, 3702519170, 0.92965364, -0.027682152, 0.27039188, 0.24888763, -0.105766274, 0.7894792, 1.5088644, 0
530, 3702535837, 0.92949533, -0.02884134, 0.27099064, 0.24869603, -1.3718859, 0.16131641, 0.4672022, 0
531, 3702552504, 0.92894936, -0.02994976, 0.2726334, 0.24880952, -2.8497791, -0.07280384, -1.2787075, 0
533, 3702585838, 0.926863, -0.031822912, 0.27892703, 0.249381, -0.69164956, -1.887394, 0.70056915, 0
534, 3702602505, 0.925798, -0.03249578, 0.28162432, 0.2502175, -1.2416084, -1.4428284, 0.04112625, 0
535, 3702619172, 0.9246445, -0.032853007, 0.28460136, 0.2510666, -1.8992826, -1.9582142, 0.5535364, 0
537, 3702652506, 0.92212784, -0.032075595, 0.2923554, 0.2515133, -4.2255044, -1.4467278, -0.93344975, 0
538, 3702669173, 0.9206533, -0.031222574, 0.29647648, 0.25219715, -3.4775932, -2.2544222, 0.28993702, 0
541, 3702719174, 0.9157118, -0.02917288, 0.3081439, 0.256412, -3.3104293, -2.4580932, -0.4427042, 0
542, 3702735841, 0.9135122, -0.029110024, 0.31398275, 0.2571812, -4.247447, -1.6109513, 0.7719412, 0
543, 3702752508, 0.9110454, -0.02961663, 0.3206875, 0.2576006, -4.5577745, -1.5793043, 1.8365164, 0
545, 3702785842, 0.9042013, -0.03219656, 0.33908048, 0.2578507, -4.3326054, -2.8728106, 0.5485134, 0
546, 3702802509, 0.90000284, -0.033914004, 0.35029882, 0.25732195, -4.863928, -2.9447494, 0.027078629, 0
547, 3702819176, 0.8958322, -0.035810567, 0.361635, 0.25593317, -4.0673957, -2.1334403, 1.0906754, 0
549, 3702852510, 0.89062166, -0.037166473, 0.37720513, 0.2514102, -3.75202, -1.180638, -2.9859838, 0
550, 3702869177, 0.8902975, -0.035848364, 0.37904948, 0.24997218, -0.77224374, -0.5622819, -0.5593405, 0
552, 3702902511, 0.89626527, -0.02953688, 0.36298302, 0.25329533, -2.6806676, -3.3674097, 1.4575825, 0
553, 3702919178, 0.8985761, -0.02673103, 0.35680816, 0.254192, -2.3114915, 0.7473026, -0.88376045, 0
556, 3702969179, 0.8994576, -0.021570675, 0.35322875, 0.25655276, -1.0086957, 3.0061557, -3.2267113, 0
557, 3702985846, 0.8973821, -0.02032224, 0.35806918, 0.25721228, 2.2426572, 3.3334608, -0.9046631, 0
558, 3703002513, 0.8962451, -0.017621938, 0.35964358, 0.2591716, 2.5965548, 1.8525068, -1.6491871, 0
560, 3703035847, 0.89730626, -0.0094938725, 0.35397965, 0.26368332, 1.561281, 1.8842634, 1.0378075, 0
561, 3703052514, 0.90043974, -0.0041973107, 0.343863, 0.26651138, -0.48954925, 0.51178485, 0.25644875, 0
562, 3703069181, 0.9028085, -6.362796E-5, 0.33655536, 0.2678557, 1.5297831, 0.29032412, -0.3153515, 0
564, 3703102515, 0.90827256, 0.0063482523, 0.32046878, 0.2690347, 1.3855329, -0.04844104, 2.5745268, 0
565, 3703119182, 0.90976477, 0.00771036, 0.31672207, 0.26839343, 3.4463823, 2.294207, 4.5613155, 0
566, 3703135849, 0.9099569, 0.008856878, 0.31630963, 0.26819283, 1.5618975, 2.478713, 4.1558084, 0
568, 3703169183, 0.90853304, 0.009550158, 0.3213222, 0.26703483, -0.19396216, 0.012111734, -2.5482688, 0
570, 3703202517, 0.9080829, 0.009895895, 0.3245512, 0.26463798, -0.88256884, -0.8503218, -1.8791642, 0
572, 3703235851, 0.90942615, 0.009611968, 0.32224995, 0.26284185, 2.2666054, 1.1332748, 2.6499863, 0
573, 3703252518, 0.9114821, 0.009093933, 0.31756452, 0.2614379, 2.2814372, -0.25730908, 2.7898207, 0
574, 3703269185, 0.9132494, 0.008237913, 0.31381908, 0.25981596, 2.716792, 0.15788843, 0.5944872, 0
576, 3703302519, 0.91599244, 0.00653575, 0.3075589, 0.25768518, 0.713579, 1.689731, -0.351161, 0
577, 3703319186, 0.91653275, 0.005938623, 0.30613917, 0.25746924, -0.78510237, 1.0167466, -3.2709212, 0
579, 3703352520, 0.91685045, 0.0053866357, 0.3046228, 0.2581482, 0.3617156, -0.09604469, 0.13740921, 0
580, 3703369187, 0.9171523, 0.0051226765, 0.30356604, 0.258326, 1.3338076, -0.09946754, 0.46429348, 0
581, 3703385854, 0.9175575, 0.0047563575, 0.30264193, 0.25797802, 1.7636299, -0.22170529, 1.1585579, 0
583, 3703419188, 0.91860944, 0.0038151927, 0.29997885, 0.25735992, -0.19452429, -0.07064308, -0.123957634, 0
584, 3703435855, 0.91912156, 0.0033125244, 0.29832894, 0.257456, 0.44769102, -0.30258855, 1.5148163, 0
585, 3703452522, 0.91973895, 0.0026340298, 0.29644093, 0.25744003, -0.43203717, 0.069057845, 1.1688318, 0
587, 3703485856, 0.91910607, 0.0019121096, 0.29805088, 0.257847, -0.75674903, 0.50726277, 0.31932926, 0
588, 3703502523, 0.91906786, 0.0014491305, 0.29812887, 0.25789648, -0.6285465, 0.020605044, 0.8337517, 0
589, 3703519190, 0.91881794, 0.001005467, 0.29908448, 0.25768232, 0.6317713, 0.108238384, -0.04544735, 0
591, 3703552524, 0.919345, -8.156896E-5, 0.2978504, 0.25723347, 0.12323599, 0.16422647, 1.3617373, 0
592, 3703569191, 0.9200554, -0.0011478588, 0.2964142, 0.25634867, 0.0820955, 0.019275073, 0.12956047, 0
593, 3703585858, 0.9201805, -0.0020254403, 0.29677695, 0.25547296, 1.0964026, 0.48381513, 0.49709988, 0
595, 3703619192, 0.92038035, -0.0033125393, 0.29677513, 0.25474048, -1.3866258, 0.07211359, -0.51956654, 0
597, 3703652526, 0.91994596, -0.0029414706, 0.29795906, 0.25493175, -1.5232073, -0.7899174, -0.965188, 0
599, 3703685860, 0.9191522, -0.0018199347, 0.29927206, 0.25626415, -0.6156093, -0.8414384, 0.5093851, 0
600, 3703702527, 0.9185509, -0.0011515059, 0.3004997, 0.25698665, -0.5916599, -0.4843823, -0.4892063, 0
601, 3703719194, 0.91822636, -6.909184E-4, 0.30097854, 0.257587, 0.18619092, -0.11198203, 2.2740984, 0
603, 3703752528, 0.9186804, 8.34316E-5, 0.29810888, 0.2593001, -1.659165, -1.6512873, -0.94759464, 0
604, 3703769195, 0.91902304, 4.9941614E-4, 0.29627886, 0.26018125, -1.1412996, -1.7114837, 1.2905645, 0
606, 3703802529, 0.9196398, 0.001365114, 0.29304445, 0.26165754, -1.7538095, -0.26395252, -0.5293293, 0
607, 3703819196, 0.91931874, 0.0022550225, 0.293122, 0.26269096, -0.7364678, 0.108042136, 0.8364935, 0
608, 3703835863, 0.9184218, 0.0033650696, 0.29523057, 0.26345417, -0.6868855, 0.5274338, 0.62882996, 0
610, 3703869197, 0.9164173, 0.005351957, 0.301433, 0.2633785, -1.904851, -0.8788758, -0.91639996, 0
612, 3703902531, 0.9165517, 0.0065854676, 0.30171913, 0.26255402, 0.579734, -1.4891802, 2.2839537, 0
614, 3703935865, 0.9177331, 0.006467622, 0.30150896, 0.2586422, -1.8162473, 0.7632488, 0.11447811, 0
615, 3703952532, 0.91805035, 0.0064493977, 0.30301258, 0.25574285, -3.0117862, 1.8278103, -0.031747818, 0
616, 3703969199, 0.91854125, 0.0062030368, 0.30376664, 0.25307798, -2.2844784, 1.5207825, -0.48804474, 0
618, 3704002533, 0.9199983, 0.0059060827, 0.30205005, 0.24982683, -0.020515088, -1.031405, 0.15518475, 0
619, 3704019200, 0.9205429, 0.0058879294, 0.30146137, 0.24852863, 0.21048413, -0.8077547, 2.1270819, 0
620, 3704035867, 0.92041534, 0.0059595145, 0.30297542, 0.24715437, -0.91479415, 0.1595044, 1.1700277, 0
622, 3704069201, 0.9192111, 0.005898472, 0.30977768, 0.24317297, -3.7661276, 0.3059711, -1.2145395, 0
623, 3704085868, 0.91996884, 0.005596079, 0.30809742, 0.24244839, -2.1822941, -1.5821488, -1.0592623, 0
624, 3704102535, 0.92147, 0.005509697, 0.3034068, 0.24266487, -0.5943142, -3.7170272, 1.1631956, 0
627, 3704152536, 0.92197937, 0.0064015947, 0.30239195, 0.24197377, -3.8292248, -0.054946665, 2.2198868, 0
628, 3704169203, 0.9198044, 0.006536901, 0.31014332, 0.24043185, -6.587455, 1.555157, -2.5338297, 0
630, 3704202537, 0.91664034, 0.0070958845, 0.31925997, 0.24056669, -2.6991262, -2.8482172, 1.0266371, 0
631, 3704219204, 0.91540784, 0.00810241, 0.32121027, 0.24262282, -3.933561, -4.0845757, 1.7495298, 0
632, 3704235871, 0.9120135, 0.008685771, 0.33048925, 0.2429241, -3.39932, -1.5518869, 1.2872887, 0
634, 3704269205, 0.9000655, 0.0029078946, 0.3652553, 0.23778474, -3.0244524, -1.8730721, -0.9892597, 0
635, 3704285872, 0.89503986, -0.0020621642, 0.38011104, 0.23344007, -0.7974895, -0.086104564, -3.4421926, 0
637, 3704319206, 0.89141583, -0.0012462288, 0.38707292, 0.235861, 2.7408717, 0.3281135, -0.65047455, 0
638, 3704335873, 0.8921839, 0.0032310858, 0.38313156, 0.23934671, 3.0363634, 1.3983065, 1.0385323, 0
639, 3704352540, 0.8943885, 0.0066888556, 0.37708154, 0.24065146, 0.1655393, 1.9306258, -2.723062, 0
642, 3704402541, 0.9036278, 0.017014109, 0.35256138, 0.24278975, -0.42687806, 3.268373, -0.56474113, 0
643, 3704419208, 0.9059997, 0.019780412, 0.34639883, 0.2426117, -0.9127838, 1.3494325, 1.6919289, 0
645, 3704452542, 0.907971, 0.024453025, 0.34175795, 0.24139464, 2.2300665, 1.4277712, 2.2866697, 0
646, 3704469209, 0.9081877, 0.026576657, 0.34126186, 0.2410565, 0.83787, 0.7550022, 3.4759283, 0
647, 3704485876, 0.9076312, 0.028459888, 0.34264123, 0.24098068, 0.60988486, 2.1684363, 0.8426447, 0
649, 3704519210, 0.90654814, 0.031593774, 0.34526366, 0.2409243, -0.0049105133, 0.8567015, -0.86756325, 0
650, 3704535877, 0.9062024, 0.03223637, 0.34684688, 0.2398635, 3.1603773, 1.0629381, -0.036403656, 0
651, 3704552544, 0.90629375, 0.032886192, 0.34768465, 0.23821141, 1.818836, 0.18733639, 1.8258505, 0
653, 3704585878, 0.90647984, 0.0331425, 0.35098374, 0.23256245, 1.4855726, 1.9717296, 0.027171135, 0
654, 3704602545, 0.90691155, 0.032877132, 0.35207543, 0.22924338, 1.5408938, 2.7455108, 0.91221046, 0
655, 3704619212, 0.9077272, 0.03205704, 0.35223392, 0.2258635, 1.7609982, 2.866579, -0.34831715, 0
657, 3704652546, 0.90934795, 0.03030812, 0.35197923, 0.21990316, 2.5491335, 1.0240518, 0.93039894, 0
658, 3704669213, 0.910246, 0.029550225, 0.35141742, 0.21717265, 1.8774288, 1.0293256, -0.047099113, 0
660, 3704702547, 0.9131301, 0.026776694, 0.3472983, 0.21198943, 1.2600176, 0.79465586, 0.54014015, 0
661, 3704719214, 0.9146429, 0.02532462, 0.3445783, 0.21007602, -0.2534135, -0.1590082, -2.1550474, 0
662, 3704735881, 0.91560477, 0.023606203, 0.34313565, 0.20844093, 1.0433252, 0.26572618, -0.31386757, 0
664, 3704769215, 0.9176463, 0.02092601, 0.33935204, 0.20592932, -0.19064629, -0.9637799, 0.15375137, 0
665, 3704785882, 0.9179562, 0.019503877, 0.33919042, 0.20495169, -0.8624107, -0.16686577, -1.0932951, 0
666, 3704802549, 0.9185453, 0.017781064, 0.3381169, 0.20424096, 0.026129583, 0.033653006, 1.1295595, 0
669, 3704852550, 0.92107105, 0.014339823, 0.33111155, 0.20461394, -0.97203046, -0.45419985, 0.36556244, 0
670, 3704869217, 0.92159694, 0.013461798, 0.32926515, 0.20528366, -1.7956868, -0.7298713, 0.34896755, 0
672, 3704902551, 0.9215454, 0.011751637, 0.3285241, 0.20680171, -0.22065891, -1.2642425, 1.383007, 0
673, 3704919218, 0.9217449, 0.0105657205, 0.32761702, 0.20741542, -0.3370896, -1.3717245, -0.74604225, 0
674, 3704935885, 0.92118824, 0.009563711, 0.3289815, 0.20777684, 0.048644453, -0.70342296, -0.60993385, 0
676, 3704969219, 0.91979563, 0.008442618, 0.33226818, 0.20876214, -1.92937, -0.28857893, -0.25750828, 0
677, 3704985886, 0.91874546, 0.007573083, 0.33511034, 0.20887713, -1.1252763, -0.35584426, -0.13114834, 0
678, 3705002553, 0.91785955, 0.006860301, 0.33727366, 0.20931461, 0.031816565, -0.59737766, 3.326849, 0
680, 3705035887, 0.91672885, 0.00477105, 0.33989865, 0.21008036, 1.0821326, -0.919361, 1.2860708, 0
681, 3705052554, 0.91738236, 0.0030653216, 0.33853632, 0.20945786, -5.7880745, -0.10693351, -0.13632965, 0
684, 3705102555, 0.9149465, 0.002590008, 0.34263426, 0.2134181, -0.93228376, 3.9863665, 0.89533806, 0
685, 3705119222, 0.914009, 0.0012434423, 0.3458323, 0.21228561, -2.3955438, 1.8098966, -3.5334606, 0
687, 3705152556, 0.91000026, -9.4391406E-5, 0.35467958, 0.21489814, -0.42528844, 0.037504204, -0.29759502, 0
688, 3705169223, 0.90776795, -9.048283E-4, 0.3595433, 0.21625076, 1.6051626, 0.34576684, 0.43380547, 0
689, 3705185890, 0.90583485, -0.0020562038, 0.3641827, 0.21658564, 2.568019, -0.75249696, 2.2450018, 0
691, 3705219224, 0.9015327, -0.003983617, 0.37375277, 0.21819957, -0.81136084, 0.69122857, -1.3670301, 0
692, 3705235891, 0.89861387, -0.0054915473, 0.3800354, 0.21935175, 0.073335245, 1.6915227, 1.1605835, 0
693, 3705252558, 0.895529, -0.0067700893, 0.38646224, 0.22069925, -0.62193096, -0.13748476, -0.7575588, 0
695, 3705285892, 0.88654363, -0.0084556565, 0.4041673, 0.2251594, -1.4097894, -0.317089, 0.42537308, 0
696, 3705302559, 0.88180435, -0.009621769, 0.41348392, 0.22680114, -0.51691407, 0.44221166, -0.13361168, 0
699, 3705352560, 0.86734426, -0.009875163, 0.43925142, 0.23399511, 1.6167389, -0.27918833, 1.7105026, 0
700, 3705369227, 0.8637726, -0.008306563, 0.4445333, 0.23727107, -0.050921306, 0.014533985, -1.1717329, 0
701, 3705385894, 0.8593431, -0.00543195, 0.45133233, 0.24057907, -2.2100937, -0.2402747, -1.7435493, 0
703, 3705419228, 0.8511775, -0.0023199022, 0.46389148, 0.24571402, -0.045022596, 0.835398, -0.0418005, 0
704, 3705435895, 0.84758455, -0.0013616234, 0.46966755, 0.2471642, 2.8657901, 0.07577519, 3.644106, 0
705, 3705452562, 0.8445085, -0.0013251826, 0.47499627, 0.2475105, 1.8186356, -0.367451, 0.0701046, 0
707, 3705485896, 0.8368918, -6.806329E-4, 0.48921898, 0.24567407, -1.608494, 0.79027957, 0.71082973, 0
708, 3705502563, 0.8318862, 5.816817E-4, 0.49817216, 0.24468085, -2.8340688, 1.4099383, -0.9556589, 0
709, 3705519230, 0.8258225, 0.0017902479, 0.5087696, 0.24340688, -1.835601, 2.0437548, 0.6785097, 0
711, 3705552564, 0.8101538, 0.00567095, 0.5333426, 0.24339992, -0.92842495, 1.407788, 1.0421429, 0
714, 3705602565, 0.7820872, 0.018564701, 0.5679156, 0.2560196, -3.512205, 2.2540197, 1.8051319, 0
715, 3705619232, 0.77430576, 0.022114865, 0.57612205, 0.26100585, -2.4837787, -0.2260686, 2.9349823, 0
716, 3705635899, 0.76867086, 0.016920127, 0.5809517, 0.2672694, -2.7027612, 0.87766385, 2.360592, 0
718, 3705669233, 0.76724976, 3.9738417E-4, 0.5881813, 0.25583088, -5.157798, 10.850292, 1.5573139, 0
719, 3705685900, 0.7752547, -0.01572033, 0.5848858, 0.23816136, -6.656683, 1.3752774, 3.2552738, 0
720, 3705702567, 0.78326195, -0.036470145, 0.5789698, 0.22370487, -5.0755143, -2.6445436, -3.152443, 0
722, 3705735901, 0.79286695, -0.06419347, 0.56863904, 0.20969026, -5.5125203, -5.0472827, -4.943925, 0
723, 3705752568, 0.79602915, -0.07103593, 0.56307673, 0.21051204, -6.0747023, -4.894387, -4.4598217, 0
724, 3705769235, 0.799977, -0.074490026, 0.5554552, 0.2145616, -6.329977, -3.2727349, -3.2146707, 0
726, 3705802569, 0.81293, -0.07379605, 0.5334124, 0.22192177, -5.3924274, -0.7378235, -2.603149, 0
727, 3705819236, 0.82108384, -0.07209345, 0.520011, 0.224258, -5.088943, -1.1260903, -1.2589731, 0
728, 3705835903, 0.8299911, -0.069852985, 0.50489545, 0.226705, -4.4063516, -1.5659277, -0.099184036, 0
730, 3705869237, 0.8479648, -0.061103575, 0.47247958, 0.23251715, -2.5429082, -2.0675783, 1.0639534, 0
731, 3705885904, 0.85682946, -0.053387005, 0.45525655, 0.23624952, -2.0568354, -2.4358528, 3.6825209, 0
732, 3705902571, 0.86598986, -0.043990348, 0.43558002, 0.24181771, -1.1072987, -2.5197089, 3.8717146, 0
734, 3705935905, 0.88084435, -0.025199194, 0.39615676, 0.25810322, 1.8063012, -0.45414245, 2.303648, 0
735, 3705952572, 0.8856629, -0.015170183, 0.37889972, 0.26811472, 3.6992154, -0.39518836, 1.5650263, 0
736, 3705969239, 0.88874197, -0.006825354, 0.36443698, 0.27812958, 5.098719, -0.10298075, 0.84017754, 0
738, 3706002573, 0.893499, 0.009766288, 0.3394241, 0.29399762, 7.2206087, 1.0623925, 4.1901207, 0
740, 3706035907, 0.89879316, 0.023459844, 0.31343046, 0.30571392, 6.4523325, 1.498871, -1.3994446, 0
742, 3706069241, 0.9007613, 0.03229795, 0.2986841, 0.31377214, 6.0461035, 1.172924, -2.944847, 0
743, 3706085908, 0.90013576, 0.03713151, 0.2971244, 0.316502, 6.1347756, 1.4524179, -2.5454164, 0
745, 3706119242, 0.8972914, 0.05288176, 0.29638752, 0.32296327, 6.7153964, 0.7204344, -0.4685974, 0
746, 3706135909, 0.8961555, 0.056905586, 0.29458115, 0.32706046, 5.876015, 0.7678242, -2.5490308, 0
747, 3706152576, 0.89509475, 0.056846917, 0.29391497, 0.3305558, 5.3778257, 1.7497736, -4.570306, 0
749, 3706185910, 0.8915199, 0.055724993, 0.30092835, 0.3340783, 4.14701, 2.5006645, -6.7277284, 0
750, 3706202577, 0.88864297, 0.056100212, 0.31004456, 0.33334365, 5.5254903, 1.4734575, -4.117381, 0
751, 3706219244, 0.88495696, 0.06046191, 0.318545, 0.33437103, 8.488417, 0.16305321, -0.12444019, 0
753, 3706252578, 0.87634325, 0.06222298, 0.33141136, 0.34408793, 14.761862, 1.3533705, -5.4746804, 0
755, 3706285912, 0.8644229, 0.050028667, 0.3621967, 0.3451998, 23.979013, 8.8926735, -10.4144945, 0
757, 3706319246, 0.84071517, 0.04389341, 0.42794183, 0.32896262, 40.428818, 1.9244957, 6.9284344, 0
758, 3706335913, 0.8446122, -0.013045505, 0.44016328, 0.3046239, 40.538948, 38.434147, 44.062366, 0
759, 3706352580, 0.8537799, -0.030749038, 0.43431023, 0.28560197, -15.179046, 14.878676, 2.0546837, 0
761, 3706385914, 0.8549293, -0.057539027, 0.4418596, 0.26575243, -0.87091196, 3.1430001, -0.7664175, 0
762, 3706402581, 0.8520268, -0.06451895, 0.4486523, 0.26206475, 1.217447, -1.6947432, 0.95283985, 0
763, 3706419248, 0.85095733, -0.07624776, 0.45317978, 0.25449026, -0.20336495, -3.1602407, 0.8698597, 0
765, 3706452582, 0.830298, -0.11116667, 0.49488965, 0.23110731, -7.168731, -1.9847763, -1.988945, 0
766, 3706469249, 0.7990312, -0.13566233, 0.5428031, 0.22042891, -4.489083, -3.1694512, -2.4460645, 0
767, 3706485916, 0.75174004, -0.16245785, 0.60489994, 0.20656647, -3.620834, -2.2154505, -2.1947994, 0
770, 3706535917, 0.5413561, -0.18360677, 0.81487477, 0.09633793, -18.212784, -10.87975, 42.35147, 0
772, 3706569251, 0.41474098, -0.16284598, 0.8936433, 0.054333143, -10.961301, -45.44999, 39.711773, 0
773, 3706585918, 0.38533196, -0.14571334, 0.90904987, 0.06320064, -8.400779, 29.5769, 23.204056, 0
774, 3706602585, 0.3583434, -0.14192669, 0.92271984, 0.010682013, -5.7282944, 0.22826128, 16.091679, 0
776, 3706635919, 0.28261963, -0.13364805, 0.94903564, -0.040928587, -24.079706, -11.633938, -5.1567106, 0
777, 3706652586, 0.24867891, -0.12661308, 0.9578771, -0.06840169, -22.307571, -0.70716417, -11.010499, 0
778, 3706669253, 0.22048467, -0.12010667, 0.9624084, -0.10397199, -18.969337, 0.31291187, -21.27929, 0
780, 3706702587, 0.1920442, -0.11432866, 0.9626031, -0.15336996, -16.741571, 8.783167, -25.729082, 0
781, 3706719254, 0.19705836, -0.114820816, 0.9575492, -0.17653024, -14.162053, 9.27356, -21.509487, 0
782, 3706735921, 0.2116107, -0.1177343, 0.949564, -0.19941695, -11.905013, 6.5450296, -17.232922, 0
785, 3706785922, 0.25202504, -0.15241909, 0.9299657, -0.22021554, -4.943459, -2.5879743, -13.710575, 0
786, 3706802589, 0.25673345, -0.16832027, 0.9282049, -0.21040699, -5.844755, -1.148277, -12.524956, 0
788, 3706835923, 0.2777055, -0.18913344, 0.92260563, -0.18970071, -6.762891, -1.0659207, -11.9189825, 0
789, 3706852590, 0.2956421, -0.19559094, 0.9180408, -0.17782187, -6.842042, -1.281773, -11.072095, 0
790, 3706869257, 0.31745392, -0.20162581, 0.9121357, -0.16327217, -4.833412, -1.4371915, -10.490417, 0
792, 3706902591, 0.36058998, -0.2187449, 0.898006, -0.12565866, -0.9185973, -0.3461167, -7.521392, 0
793, 3706919258, 0.3843599, -0.22438198, 0.8890333, -0.107792854, -2.3665009, -0.18024811, -6.041049, 0
795, 3706952592, 0.44288698, -0.22136793, 0.8659554, -0.07104775, -4.5282507, -2.2355921, -2.6574826, 0
796, 3706969259, 0.47436973, -0.21560115, 0.852296, -0.04647988, -4.6629257, -2.9978201, -1.1552019, 0
797, 3706985926, 0.5041595, -0.21186185, 0.8370993, -0.016788244, -1.8763686, -1.83886, -0.58973026, 0
799, 3707019260, 0.55581015, -0.20979212, 0.80345505, 0.040016137, -1.1724223, 0.11687694, 2.4612942, 0
800, 3707035927, 0.5806307, -0.20786697, 0.78472495, 0.06281038, -0.38313988, -0.18898702, 3.7657614, 0
801, 3707052594, 0.60414886, -0.20400578, 0.76607484, 0.08120437, 0.17525902, 0.11038701, 3.4291735, 0
803, 3707085928, 0.6504642, -0.19201146, 0.72683823, 0.10868946, -1.4370267, -1.8321708, 3.5627747, 0
804, 3707102595, 0.6726702, -0.18743469, 0.7053288, 0.12236671, -1.2489163, -3.0476966, 3.684698, 0
805, 3707119262, 0.6931602, -0.1838645, 0.68317366, 0.13811548, -0.050085466, -3.2731469, 3.867302, 0
807, 3707152596, 0.7297859, -0.16931368, 0.64107144, 0.16688934, 0.4596785, 1.0508697, 4.469455, 0
808, 3707169263, 0.7485024, -0.1563685, 0.620454, 0.17438233, 0.3436224, 2.0918708, 4.331007, 0
809, 3707185930, 0.7676597, -0.14254361, 0.59914947, 0.17742309, 0.025147453, 1.2560415, 4.471718, 0
812, 3707235931, 0.8175116, -0.10744609, 0.53326106, 0.18931915, 0.6715489, -1.903528, 4.580185, 0
813, 3707252598, 0.830227, -0.092506155, 0.51247966, 0.19902131, 2.2548568, -0.32192004, 4.3622084, 0
815, 3707285932, 0.84756535, -0.061855927, 0.4769297, 0.22455315, 2.4299972, 2.1611238, 3.6623077, 0
816, 3707302599, 0.8538502, -0.04850209, 0.46003762, 0.23881412, 1.3719039, 3.0834966, 5.1097565, 0
817, 3707319266, 0.8604873, -0.03787424, 0.44165608, 0.25128913, 1.3243042, 4.433646, 5.363204, 0
819, 3707352600, 0.87699556, -0.016360499, 0.40293917, 0.261401, 2.3778608, 5.016622, 4.674362, 0
820, 3707369267, 0.88613605, -0.0027036145, 0.38352048, 0.26028246, 2.8154128, 3.1117227, 5.1765814, 0
822, 3707402601, 0.9019323, 0.023769774, 0.34505838, 0.25878003, 3.3930564, 1.3550643, 4.0148754, 0
823, 3707419268, 0.9074934, 0.035559833, 0.3273715, 0.260957, 3.9166734, 1.9993001, 3.3483706, 0
824, 3707435935, 0.9117242, 0.045733273, 0.31126973, 0.26430666, 4.10275, 2.9179394, 2.0469818, 0
827, 3707485936, 0.9201187, 0.068168595, 0.2701859, 0.27534238, 4.791025, 3.139695, 2.289153, 0
828, 3707502603, 0.9225118, 0.07157153, 0.25646007, 0.27956563, 4.501596, 2.8533664, 0.60636044, 0
830, 3707535937, 0.92559415, 0.0779993, 0.23388702, 0.28734633, 3.8524692, 3.2334907, -1.0798969, 0
831, 3707552604, 0.9263093, 0.082734205, 0.226052, 0.28997564, 3.401726, 3.7338817, -1.5123701, 0
832, 3707569271, 0.9270569, 0.08742066, 0.218694, 0.29184783, 4.6645303, 3.3608923, 0.6091318, 0
834, 3707602605, 0.9306968, 0.08739386, 0.20109604, 0.29292545, 3.1780722, 1.9377965, -1.3594465, 0
835, 3707619272, 0.9323009, 0.08640601, 0.19379444, 0.29303932, 2.580697, 1.2599033, -1.6364651, 0
836, 3707635939, 0.9332363, 0.086703554, 0.18764718, 0.29397318, 2.2492146, 0.90172696, -1.5375748, 0
838, 3707669273, 0.933495, 0.0892467, 0.17866023, 0.2979626, 3.497988, 1.785818, -1.2920752, 0
839, 3707685940, 0.933607, 0.09128906, 0.17423755, 0.29960775, 5.2049675, 2.2002106, -0.38038635, 0
842, 3707735941, 0.9356521, 0.09767893, 0.16247115, 0.29781958, 5.2560425, 1.8303567, -4.055606, 0
843, 3707752608, 0.9355401, 0.10122023, 0.16245808, 0.2969948, 5.6614494, 1.5297537, -5.0245957, 0
844, 3707769275, 0.93471813, 0.10482781, 0.16568255, 0.2965495, 6.1753855, 1.4640677, -5.9755754, 0
846, 3707802609, 0.9310767, 0.11271694, 0.18271975, 0.29509938, 7.8737197, 2.6030402, -6.248529, 0
847, 3707819276, 0.9283101, 0.11862447, 0.1946635, 0.2938604, 8.810541, 2.9789565, -5.715963, 0
849, 3707852610, 0.9238251, 0.124907285, 0.21863323, 0.28848588, 10.565085, 1.8137518, -4.951529, 0
850, 3707869277, 0.922769, 0.12113896, 0.23063841, 0.28409114, 10.175345, 1.4909375, -5.8338223, 0
851, 3707885944, 0.92160785, 0.11397721, 0.24448991, 0.27919918, 9.883166, 1.3693722, -6.2429624, 0
853, 3707919278, 0.9158375, 0.09826072, 0.28058654, 0.27006862, 11.908972, -0.057705093, -5.7059293, 0
854, 3707935945, 0.9094379, 0.09258543, 0.30359107, 0.26881668, 13.724505, -1.374123, -6.3734303, 0
857, 3707985946, 0.8687925, 0.07333998, 0.3985042, 0.28477108, 20.894089, -1.5238999, -4.427951, 0
858, 3708002613, 0.84738624, 0.050737426, 0.4358063, 0.29918954, 26.013811, -2.2213428, 0.8844156, 0
859, 3708019280, 0.81842625, 0.013564788, 0.48242995, 0.31198585, 40.71933, 14.930839, 20.846317, 0
861, 3708052614, 0.81907684, -0.043533508, 0.4791091, 0.3126526, -19.133287, 10.041875, 1.1329145, 0
863, 3708085948, 0.80880165, -0.044272486, 0.4905063, 0.32150063, 1.2359751, -0.17476618, 1.6767111, 0
865, 3708119282, 0.7931937, -0.06038046, 0.5201533, 0.31099492, -4.893388, -2.1829565, -0.37381077, 0
866, 3708135949, 0.77211773, -0.07521456, 0.55276686, 0.30447516, -3.435266, 0.5659905, -1.3889856, 0
867, 3708152616, 0.74044454, -0.08986867, 0.59548765, 0.29856193, -2.0072014, -0.7210066, -0.91562366, 0
869, 3708185950, 0.6513652, -0.12825316, 0.6951627, 0.27586666, -3.4316769, -1.0022248, 1.0391207, 0
870, 3708202617, 0.59319025, -0.14638166, 0.7472857, 0.26142114, -5.1066394, 0.09025632, 2.2207584, 0
871, 3708219284, 0.5172697, -0.15806434, 0.80756056, 0.23531458, -11.566865, -5.6965523, 12.738403, 0
873, 3708252618, 0.41776374, -0.11945456, 0.8921968, 0.12356494, -45.20921, -48.280792, 71.84369, 0
874, 3708269285, 0.37711734, -0.0917187, 0.91047984, 0.14309326, 14.860722, -52.5788, 43.89745, 0
875, 3708285952, 0.3429142, -0.03720045, 0.9321309, 0.11062139, -15.191115, 60.953808, 13.463135, 0
877, 3708319286, 0.2949136, -0.046295688, 0.95438087, 0.01091351, -25.908234, -24.902212, -11.418564, 0
878, 3708335953, 0.25352883, -0.055377193, 0.96573305, 0.00976697, -21.4994, -5.8411307, -17.821693, 0
880, 3708369287, 0.19830132, -0.06389608, 0.9780932, -0.0026120692, -22.032202, 0.60804194, -35.94146, 0
881, 3708385954, 0.19879466, -0.07484709, 0.9771918, 0.0073650833, -19.17241, 1.537204, -28.072327, 0
882, 3708402621, 0.21425323, -0.08695333, 0.97267497, 0.022753477, -15.551909, 0.9013067, -15.457862, 0
885, 3708452622, 0.2742581, -0.12877265, 0.9515261, 0.05364447, -1.8780051, -0.019640064, -2.475658, 0
886, 3708469289, 0.28628796, -0.14457595, 0.94599724, 0.04801689, -2.527659, -4.4148035, -3.912613, 0
888, 3708502623, 0.3165403, -0.15946142, 0.93444186, 0.035667967, -4.470861, -6.802458, -3.0623364, 0
890, 3708535957, 0.36458668, -0.14670725, 0.9190578, 0.031075373, 2.3313732, -0.8429871, 4.0452566, 0
892, 3708569291, 0.3758723, -0.14147222, 0.9155019, 0.025325757, 5.888153, 6.3777394, 4.769002, 0
893, 3708585958, 0.36948022, -0.1391404, 0.91868526, 0.014861207, 1.0887803, 5.787442, 3.488185, 0
894, 3708602625, 0.36433348, -0.13718179, 0.9211464, 0.0033316463, -2.1594968, 3.6733499, 2.3607311, 0
896, 3708635959, 0.36604273, -0.13389072, 0.92073995, -0.020077296, 1.1189897, 4.572484, -1.5369568, 0
897, 3708652626, 0.37063342, -0.12760028, 0.9194164, -0.03319168, 2.07785, 3.0464156, -3.4438133, 0
898, 3708669293, 0.37407532, -0.120102644, 0.918625, -0.0430146, 2.6973155, 2.5031385, -4.5132008, 0
901, 3708719294, 0.37841856, -0.108525656, 0.9184172, -0.04013539, -1.4165624, 7.839868, -3.8163753, 0
903, 3708752628, 0.40280896, -0.11749391, 0.906788, -0.041891858, 0.32498297, 9.413235, -4.8371124, 0
904, 3708769295, 0.41942406, -0.12300789, 0.89816064, -0.04836633, 0.7560995, 5.7430954, -6.0440464, 0
905, 3708785962, 0.43538278, -0.12804613, 0.88965553, -0.05136694, 0.31418335, 2.145341, -6.323738, 0
907, 3708819296, 0.4623378, -0.14229123, 0.8745306, -0.03567379, -1.658727, 0.8132655, -4.406125, 0
908, 3708835963, 0.47825393, -0.14810386, 0.86536586, -0.023657575, -2.0216722, 2.1385713, -3.4760308, 0
909, 3708852630, 0.49684417, -0.15244158, 0.8542682, -0.014592946, -0.30085325, 2.01132, -3.8797617, 0
911, 3708885964, 0.5337421, -0.15887055, 0.8306263, -0.004335217, -1.4006144, -1.5427363, -3.782082, 0
912, 3708902631, 0.5530485, -0.15964386, 0.8177572, 0.0019302145, -2.7795923, -3.4795465, -2.379445, 0
913, 3708919298, 0.57205206, -0.15899274, 0.8046149, 0.012318701, -1.294085, -4.2643695, -3.0236735, 0
916, 3708969299, 0.62408453, -0.14860035, 0.7657057, 0.047016017, -2.4388607, 1.4609451, -0.86639595, 0
917, 3708985966, 0.6449248, -0.14224319, 0.7492824, 0.04994403, -3.1257918, 0.73270166, 0.43563175, 0
919, 3709019300, 0.6890718, -0.1330024, 0.7108819, 0.047083497, -3.2247586, -0.09911601, -0.7812624, 0
920, 3709035967, 0.7112074, -0.12705855, 0.6900562, 0.04406508, -4.2757487, -1.745776, -1.8712091, 0
921, 3709052634, 0.73311394, -0.11920061, 0.6681582, 0.044487208, -6.193806, -2.9524095, -1.4516678, 0
923, 3709085968, 0.77808154, -0.0963787, 0.6181387, 0.05730699, -6.598852, 0.36612913, 4.257906, 0
924, 3709102635, 0.8010913, -0.083159, 0.5894215, 0.06323735, -4.882495, 2.0804543, 5.888851, 0
925, 3709119302, 0.8230878, -0.07254713, 0.5593502, 0.066859104, -3.1231742, 0.6795893, 5.999921, 0
927, 3709152636, 0.8604386, -0.060612824, 0.49993744, 0.07818773, -2.9468095, -3.398409, 5.7711563, 0
928, 3709169303, 0.87626356, -0.05277956, 0.47070265, 0.088851325, -2.9057727, -2.7607415, 6.6911488, 0
931, 3709219304, 0.9136575, -0.024276897, 0.38511804, 0.12807849, 0.26142362, -1.464088, 9.278393, 0
932, 3709235971, 0.9228997, -0.014352877, 0.35789856, 0.14155556, 1.8301841, -1.1398612, 8.744944, 0
934, 3709269305, 0.9374078, 0.008086417, 0.30545253, 0.16726999, 4.591411, 0.27755508, 7.764532, 0
935, 3709285972, 0.94290936, 0.020068403, 0.28064483, 0.1784291, 5.3629885, 2.0041084, 5.6422663, 0
936, 3709302639, 0.94722, 0.03276657, 0.25776473, 0.18798229, 6.444035, 2.578358, 5.293975, 0
938, 3709335973, 0.9538153, 0.053608805, 0.21717106, 0.200695, 8.705373, 2.1506155, 3.012207, 0
939, 3709352640, 0.9561532, 0.06423797, 0.20085865, 0.20342024, 9.357089, 2.6166806, 0.35158825, 0
940, 3709369307, 0.957654, 0.07770341, 0.18781753, 0.2041199, 9.963422, 2.6507125, -1.0008106, 0
942, 3709402641, 0.95863473, 0.106453545, 0.1713241, 0.2010335, 10.912313, 1.6555198, -2.8169541, 0
943, 3709419308, 0.958419, 0.119704284, 0.16668274, 0.19849417, 11.418251, 0.9316555, -3.405775, 0
944, 3709435975, 0.9579672, 0.13090551, 0.1638988, 0.19590558, 11.57089, -0.09107947, -4.279294, 0
946, 3709469309, 0.95646507, 0.14618714, 0.16271238, 0.193411, 11.368343, -0.39850685, -6.9640036, 0
947, 3709485976, 0.95522887, 0.15078494, 0.16362527, 0.19521208, 10.843768, -0.46080363, -7.964841, 0
948, 3709502643, 0.9536557, 0.15228836, 0.1665977, 0.1991821, 10.512379, -0.15373112, -8.704412, 0
950, 3709535977, 0.949974, 0.14529654, 0.18040131, 0.20969772, 11.668874, 0.30888647, -7.849598, 0
951, 3709552644, 0.9483383, 0.13770986, 0.19014564, 0.21357459, 12.398854, 0.7342945, -7.7904253, 0
952, 3709569311, 0.9465833, 0.13009308, 0.20112152, 0.21606714, 12.768831, 1.0118768, -8.614065, 0
954, 3709602645, 0.9415867, 0.12035324, 0.22729854, 0.21758759, 13.196007, 0.9209387, -10.825747, 0
955, 3709619312, 0.9380978, 0.11557263, 0.24498592, 0.21604802, 13.124923, 0.8075029, -11.328534, 0
958, 3709669313, 0.9206282, 0.09314472, 0.32010898, 0.20341386, 18.069096, -1.4832684, -4.497908, 0
959, 3709685980, 0.9135998, 0.077726066, 0.34750602, 0.19650179, 21.539066, -4.5264645, -3.012198, 0
961, 3709719314, 0.8890154, 0.04458972, 0.4129446, 0.19292304, 31.919159, -1.480135, -7.465774, 0
962, 3709735981, 0.8617442, 0.043309696, 0.4639034, 0.20098327, 39.510395, -16.03424, -3.301158, 0
963, 3709752648, 0.8625242, 0.02156952, 0.46290225, 0.20343977, -23.794947, 66.53432, 80.84334, 0
965, 3709785982, 0.8814214, 0.011697985, 0.42060098, 0.21478714, -2.966271, -3.8813457, 0.5614643, 0
966, 3709802649, 0.88757116, 0.008789949, 0.40813527, 0.21364728, -3.5514996, -3.9771404, 1.4503345, 0
967, 3709819316, 0.88815534, 0.0014305189, 0.4106895, 0.20637706, -6.5512514, -0.9942647, 0.18588448, 0
969, 3709852650, 0.85710835, -0.018169858, 0.47746497, 0.1927219, -5.0735607, -1.1157138, -3.3029485, 0
970, 3709869317, 0.8195422, -0.03377556, 0.53992003, 0.18914358, -2.7375808, -3.0646224, -2.8522782, 0
973, 3709919318, 0.6251009, -0.07757759, 0.76077515, 0.15662363, -8.758745, 2.3978674, 9.575199, 0
974, 3709935985, 0.5411103, -0.070267536, 0.827671, 0.13153774, -20.582659, -2.7069523, 32.988686, 0
975, 3709952652, 0.49268153, -0.052028827, 0.8650805, 0.07920256, -45.462452, -5.764065, 68.79817, 0
977, 3709985986, 0.45398074, -0.07677974, 0.8859703, 0.056057595, 4.9860034, -10.374676, 28.018711, 0
978, 3710002653, 0.40414003, -0.08270915, 0.9104529, 0.031382143, -8.080624, -6.896093, 23.782104, 0
979, 3710019320, 0.35148686, -0.094221376, 0.93131596, 0.017593186, -31.289589, -6.3698153, 10.409418, 0
981, 3710052654, 0.26218843, -0.120862864, 0.95702964, -0.02868583, -38.404285, 3.8700626, -8.318181, 0
982, 3710069321, 0.22953156, -0.13280413, 0.9621559, -0.063352525, -28.353153, 1.8194374, -20.938864, 0
983, 3710085988, 0.20106752, -0.14463878, 0.96443444, -0.09271978, -17.208862, -0.9807534, -31.905567, 0
985, 3710119322, 0.17946029, -0.15925325, 0.9649415, -0.10676918, -13.785293, -0.2574952, -31.182795, 0
988, 3710169323, 0.24249315, -0.17386828, 0.9520165, -0.06863389, -7.9749556, -1.6004462, -15.733118, 0
989, 3710185990, 0.27127856, -0.18449813, 0.94331884, -0.050962992, -4.583489, -1.6623878, -14.003721, 0
990, 3710202657, 0.2990713, -0.19593261, 0.9332436, -0.036091603, -4.7252984, -0.12872611, -13.570949, 0
992, 3710235991, 0.374022, -0.19720492, 0.9060969, -0.016895115, -9.3288555, -3.108756, -9.975247, 0
993, 3710252658, 0.4201009, -0.19008756, 0.8873815, -0.0039291903, -8.35012, -5.226836, -6.7446575, 0
994, 3710269325, 0.46490487, -0.18423681, 0.8658562, 0.01710511, -5.743768, -6.534008, -4.7179704, 0
996, 3710302659, 0.5428998, -0.17942072, 0.817808, 0.06585897, -2.831931, -0.20632042, -0.4420128, 0
997, 3710319326, 0.5806411, -0.169142, 0.7923131, 0.08103255, -2.4753618, -2.2580042, 0.8192911, 0
998, 3710335993, 0.6167635, -0.15361029, 0.7662088, 0.094920196, -0.7278136, -3.7757685, 1.1708498, 0
1000, 3710369327, 0.6778434, -0.10952793, 0.7161162, 0.12565413, 1.6893263, -2.4562101, 2.764368, 0
1002, 3710402661, 0.7257778, -0.057560377, 0.6653668, 0.16522697, 7.808872, 4.1941667, 8.895958, 0
1004, 3710435995, 0.763682, -0.012690298, 0.62221426, 0.17192307, 19.808489, 10.794011, 5.59583, 0
1005, 3710452662, 0.77644724, 0.0048951134, 0.60954124, 0.16013873, 17.009596, 6.400496, 4.2053137, 0
1006, 3710469329, 0.78662837, 0.02107764, 0.5995407, 0.14629328, 11.630464, 6.3139753, 2.2159243, 0
1008, 3710502663, 0.80913466, -0.029204652, 0.5634761, 0.16438462, 7.4485264, 26.64144, -16.695751, 0
1009, 3710519330, 0.8218875, -0.017589867, 0.5487302, 0.15220444, 9.892999, 30.2453, -4.924735, 0
1011, 3710552664, 0.8424548, 0.03884457, 0.5304371, 0.086469285, 3.361478, -13.942542, -0.2165842, 0
1012, 3710569331, 0.8464532, 0.03591071, 0.5260359, 0.074785516, 0.8905657, -11.620634, 6.2266617, 0
1013, 3710585998, 0.84814644, 0.04436189, 0.5210345, 0.085335076, -0.90392345, -14.407106, 2.7096596, 0
1015, 3710619332, 0.8356267, 0.07439777, 0.5314747, 0.11750232, 19.508791, 26.612717, 16.683737, 0
1016, 3710635999, 0.83457226, 0.09813883, 0.52829915, 0.12180762, 14.080193, -2.3076167, 0.38070393, 0
1019, 3710686000, 0.8288061, 0.11451735, 0.5331528, 0.1256723, 0.62646246, -2.8115373, 1.9878054, 0
1020, 3710702667, 0.8246549, 0.119058855, 0.5387256, 0.12499281, 1.1495692, -2.087272, 1.8758335, 0
1021, 3710719334, 0.8200113, 0.1276131, 0.54504067, 0.119608626, -1.4286826, -2.5969577, 1.4372625, 0
1023, 3710752668, 0.8151348, 0.16576758, 0.5471045, 0.093978435, -7.126617, -1.3199008, -2.9013667, 0
1024, 3710769335, 0.8167785, 0.18614353, 0.540217, 0.08042599, -7.9166646, -3.0602705, -0.22399902, 0
1025, 3710786002, 0.8220661, 0.19638216, 0.52925146, 0.0749221, -6.383704, -7.762157, -0.5905266, 0
1027, 3710819336, 0.82153046, 0.20617434, 0.52531224, 0.08189162, 29.49345, 14.452871, -6.971754, 0
1028, 3710836003, 0.819713, 0.21645969, 0.5271456, 0.05841568, 10.479251, 1.8431246, 2.7062654, 0
1031, 3710886004, 0.8137157, 0.2273886, 0.5339186, 0.03422627, -7.454771, 0.86927336, 1.9800587, 0
1032, 3710902671, 0.81678087, 0.21097417, 0.5359188, 0.035062976, -2.1012518, 0.89367676, 0.76204395, 0
1033, 3710919338, 0.8232524, 0.19183165, 0.53309876, 0.036618687, 1.5629766, 3.7287228, 2.1548948, 0
1035, 3710952672, 0.83895475, 0.1608313, 0.5176763, 0.048771434, -0.49247706, 0.044178564, 0.15967083, 0
1036, 3710969339, 0.84708685, 0.14168677, 0.50865364, 0.060987055, -2.6972866, -4.6161685, -0.6451483, 0
1039, 3711019340, 0.87239903, 0.09077651, 0.4720093, 0.08925254, 1.0303452, -0.8838174, 1.1311398, 0
1040, 3711036007, 0.8813019, 0.085190445, 0.4550019, 0.095404096, 0.7616052, 2.2383769, 1.4562511, 0
1042, 3711069341, 0.8978484, 0.08094809, 0.42077518, 0.1017007, -0.29814136, -0.8316484, -0.08531666, 0
1043, 3711086008, 0.9059449, 0.07852351, 0.4041757, 0.099091955, 3.2039816, 0.38096336, 3.4270449, 0
1044, 3711102675, 0.9143915, 0.07531961, 0.38620794, 0.09559269, 0.22325806, -0.6755804, 1.5815887, 0
1047, 3711152676, 0.93149436, 0.07031875, 0.34519044, 0.09108395, 1.8110226, 2.4867086, 1.0201416, 0
1048, 3711169343, 0.93626064, 0.07042958, 0.33177647, 0.09197356, 1.449753, 2.2619877, 0.64990044, 0
1050, 3711202677, 0.9442387, 0.06983282, 0.30820966, 0.092858136, 0.14004196, -0.37664828, -1.8720083, 0
1051, 3711219344, 0.94718754, 0.069839165, 0.2989299, 0.09315779, 0.7167075, -1.9136238, -0.05578041, 0
1052, 3711236011, 0.95005065, 0.06991063, 0.289693, 0.09313129, 1.9850333, -0.3159809, 1.278574, 0
1054, 3711269345, 0.9550239, 0.07010199, 0.27321315, 0.09191736, 0.58641875, 1.825323, 0.03696537, 0
1055, 3711286012, 0.9573321, 0.07039018, 0.26448125, 0.09321652, 0.67695355, 1.4796808, 0.4760809, 0
1056, 3711302679, 0.9587863, 0.071481705, 0.2580879, 0.095336296, -0.39747533, 2.4392629, -1.142993, 0
1058, 3711336013, 0.95967114, 0.07389255, 0.2537334, 0.09627829, 2.3073506, -0.3469126, 0.79212, 0
1059, 3711352680, 0.959926, 0.07439997, 0.25309148, 0.09502928, 1.9751382, 1.3526165, 0.7114229, 0
1062, 3711402681, 0.9606395, 0.07531585, 0.25125626, 0.09191763, 1.3286785, 0.40194136, 1.4135256, 0
1063, 3711419348, 0.960895, 0.07602793, 0.25033045, 0.091183245, -0.03606816, -0.6572269, -0.17751694, 0
1065, 3711452682, 0.9608787, 0.07699782, 0.25085247, 0.08908262, 0.6988913, 1.951416, 1.0158405, 0
1066, 3711469349, 0.9607701, 0.07715406, 0.25164086, 0.087887816, -0.5340234, 0.7624182, 1.1625957, 0
1067, 3711486016, 0.960569, 0.077248335, 0.25273404, 0.08685906, -0.81984586, -0.3562616, -0.20106983, 0
1069, 3711519350, 0.9609042, 0.07695176, 0.2524972, 0.08405898, -1.5754621, -0.60516435, 0.61063385, 0
1070, 3711536017, 0.96111625, 0.0767653, 0.25218618, 0.08272876, -1.6014583, 0.19228278, 1.0075941, 0
1071, 3711552684, 0.9608633, 0.076954246, 0.25343823, 0.08165863, -1.691066, 1.6625042, 1.5922565, 0
1073, 3711586018, 0.95889544, 0.07784437, 0.26141873, 0.07873675, -5.5427384, 0.99393296, -1.7691793, 0
1074, 3711602685, 0.95830905, 0.07947101, 0.2634723, 0.07739291, -3.2286277, 0.6632884, -0.77279663, 0
1077, 3711652686, 0.96079147, 0.0843752, 0.25364557, 0.07418665, -1.8719872, 0.9296114, 2.6221552, 0
1078, 3711669353, 0.95914924, 0.08605303, 0.26007053, 0.07120416, -2.0695248, 4.6279716, 2.1404438, 0
1079, 3711686020, 0.9554757, 0.089276314, 0.27304658, 0.06797631, -3.062337, 6.4204283, -0.36828995, 0
1081, 3711719354, 0.94768155, 0.09958337, 0.29671144, 0.06343608, -0.21593955, 3.8740342, -2.385991, 0
1082, 3711736021, 0.94424564, 0.105134845, 0.30496764, 0.06648698, 2.7465434, 0.58909607, 1.3228836, 0
1083, 3711752688, 0.94239885, 0.10538242, 0.30899078, 0.073366836, 2.1634815, -2.7982547, -1.4513378, 0
1085, 3711786022, 0.9393445, 0.09012349, 0.31805217, 0.09182334, 6.2505193, 2.8083067, -2.8702593, 0
1086, 3711802689, 0.94062984, 0.086233854, 0.31464297, 0.09411836, 4.0008087, 1.1242099, 0.6345234, 0
1087, 3711819356, 0.9450453, 0.08493501, 0.3028427, 0.08967187, 1.7897217, -3.0876338, -2.2813401, 0
1089, 3711852690, 0.95644784, 0.08567931, 0.26696762, 0.081694394, -0.56148994, 2.0204544, 0.18275928, 0
1090, 3711869357, 0.96071875, 0.08573118, 0.25264105, 0.07694977, -3.0100205, 2.5161564, 0.44381142, 0
1092, 3711902691, 0.9621701, 0.08896638, 0.24741629, 0.071958676, 3.1636972, 1.6199403, 5.7505703, 0
1093, 3711919358, 0.9619451, 0.08991669, 0.24862242, 0.06959016, 4.3635445, 1.6111695, 1.8481703, 0
1094, 3711936025, 0.96173275, 0.09036301, 0.24975878, 0.06785625, 2.97955, 0.19842759, 0.45842552, 0
1096, 3711969359, 0.9609369, 0.09156717, 0.25327927, 0.0643784, 1.4842429, -0.10825512, 0.3100052, 0
1097, 3711986026, 0.9604481, 0.09204291, 0.25548694, 0.062235624, 2.0607245, 0.90522707, 0.7537651, 0
1100, 3712036027, 0.96078753, 0.08914489, 0.25735936, 0.05277987, 3.3810766, -1.1934344, -0.6049738, 0
1101, 3712052694, 0.96182126, 0.08696974, 0.25497982, 0.04899469, 2.9126008, -1.1362289, 0.09209442, 0
1102, 3712069361, 0.96287036, 0.08524576, 0.2520222, 0.04666753, 0.8919415, 0.29166433, -0.8815012, 0
1105, 3712119362, 0.96518075, 0.08068386, 0.24513198, 0.043652147, 1.9436561, -1.3480768, 1.1772728, 0
1106, 3712136029, 0.96541595, 0.07988228, 0.24460687, 0.04286492, 1.8357979, -0.7043044, 0.24429893, 0
1108, 3712169363, 0.9656129, 0.07769658, 0.2448207, 0.04119377, 1.6422863, 0.32666695, 0.7126045, 0
1109, 3712186030, 0.9657415, 0.07658455, 0.24467671, 0.0411153, -0.20992151, 0.20337053, -0.8507004, 0
1110, 3712202697, 0.9658164, 0.07529573, 0.24474376, 0.04134038, 1.0907737, -0.706462, -0.43845272, 0
1112, 3712236031, 0.9661896, 0.07304852, 0.24372442, 0.042652994, 0.83025724, -0.75141287, 0.09181404, 0
1113, 3712252698, 0.9664011, 0.07182434, 0.24314263, 0.043257087, -0.046315894, -0.19894592, 0.7199249, 0
1114, 3712269365, 0.96632195, 0.07100223, 0.24362366, 0.043672964, 0.43156895, 0.13486679, 0.8449297, 0
1116, 3712302699, 0.9661364, 0.06980004, 0.244479, 0.044917658, 0.26093915, 0.16618615, -0.2210989, 0
1117, 3712319366, 0.9659776, 0.06963358, 0.24491653, 0.046190783, 2.5422978, 0.23815823, 1.5907116, 0
1120, 3712369367, 0.9652187, 0.07040148, 0.24646458, 0.05225672, -0.30779275, 0.2893774, 1.4134331, 0
1121, 3712386034, 0.9645029, 0.071726546, 0.24844004, 0.05428017, -0.746368, 0.8541545, -0.07230759, 0
1123, 3712419368, 0.9622167, 0.07560132, 0.2550458, 0.058774702, -0.5098919, 0.6911594, -0.45824528, 0
1124, 3712436035, 0.96131325, 0.07672094, 0.25765094, 0.060713477, 0.31450105, 0.161075, 0.62882805, 0
1125, 3712452702, 0.96070474, 0.07750055, 0.25936407, 0.062044136, 0.36316592, -0.67283034, 1.5600843, 0
1127, 3712486036, 0.9595057, 0.07906255, 0.26305428, 0.06308493, -1.274456, 1.190158, -0.90124416, 0
1128, 3712502703, 0.95844066, 0.07979187, 0.26671782, 0.06297127, -0.2441836, 1.4124738, -0.94745827, 0
1129, 3712519370, 0.95757174, 0.08011177, 0.26986113, 0.062390096, 0.34321192, 0.13298392, 0.7218828, 0
1131, 3712552704, 0.956673, 0.08141291, 0.272812, 0.061656773, 0.25714746, 1.065588, 1.5252886, 0
1132, 3712569371, 0.9565325, 0.08207038, 0.2731986, 0.061252534, -0.34633917, 2.0905416, -0.39801502, 0
1135, 3712619372, 0.95506227, 0.08464245, 0.27804238, 0.05885057, -0.7169577, 0.008751677, -1.0361156, 0
1136, 3712636039, 0.9538339, 0.08573275, 0.28226426, 0.05707103, -0.10541641, 0.29273304, 0.4956751, 0
1137, 3712652706, 0.9532686, 0.08615631, 0.28446698, 0.05489833, 0.96406335, 0.8957113, 2.4389162, 0
1140, 3712702707, 0.9508829, 0.0857459, 0.2933011, 0.050229833, -0.68228203, -0.4187881, 2.2897024, 0
1141, 3712719374, 0.95002025, 0.084689915, 0.2966644, 0.048564136, -1.6488503, -0.52944475, 0.554698, 0
1143, 3712752708, 0.9472522, 0.08268345, 0.30630386, 0.046191365, -0.48096815, 0.89117926, 0.9623461, 0
1144, 3712769375, 0.9460129, 0.081892885, 0.31043136, 0.04543984, -0.45212048, 1.8581705, 1.2543745, 0
1146, 3712802709, 0.9427111, 0.08011879, 0.32084325, 0.04489489, -1.856609, -0.083880275, 0.5312128, 0
1147, 3712819376, 0.94054353, 0.079335436, 0.32736906, 0.044632614, -2.3137548, -0.6458645, 0.31172276, 0
1148, 3712836043, 0.9379373, 0.0785614, 0.33503082, 0.043990195, -1.6020061, -0.5768421, 0.15446949, 0
1151, 3712886044, 0.93007463, 0.07723434, 0.35667312, 0.043123215, -3.2131114, 0.5361618, 0.7870331, 0
1152, 3712902711, 0.9264873, 0.076988444, 0.36581802, 0.04416479, -3.7414489, 0.6148995, 0.8028898, 0
1154, 3712936045, 0.92219454, 0.078703225, 0.37585723, 0.046623096, -2.35196, -0.45158365, -1.1561975, 0
1155, 3712952712, 0.9233561, 0.0821985, 0.37206408, 0.048004925, -1.9154207, -1.3609558, -0.8957691, 0
1156, 3712969379, 0.9261367, 0.08633258, 0.36403936, 0.048703887, -1.5935503, -0.7667618, 2.3566704, 0
1158, 3713002713, 0.92909366, 0.091123804, 0.35568658, 0.045252115, -4.4264407, 2.0980437, 1.94415, 0
1159, 3713019380, 0.9282864, 0.09173164, 0.35800976, 0.04216467, -3.8027725, 2.7722728, 1.0748968, 0
1160, 3713036047, 0.9288082, 0.09242755, 0.35684204, 0.03892912, -3.5881867, 2.3800058, -3.6867213, 0
1162, 3713069381, 0.93643534, 0.0990256, 0.33486712, 0.03501679, -3.0442007, 0.86902314, 2.773961, 0
1163, 3713086048, 0.94071794, 0.10256016, 0.32172766, 0.033188954, -3.6415524, 1.0141033, 2.4430552, 0
1164, 3713102715, 0.94338137, 0.104249224, 0.31359544, 0.030010179, -0.7931382, 2.6358948, 3.1491776, 0
1166, 3713136049, 0.9465075, 0.10600406, 0.30403066, 0.023044765, -2.7397668, 2.7891476, -3.619173, 0
1167, 3713152716, 0.9467428, 0.10763872, 0.30293518, 0.020036876, 1.8291693, 2.5679533, -6.5558376, 0
1168, 3713169383, 0.9480394, 0.11124401, 0.29759523, 0.019034013, 7.494685, 1.7850354, 0.3773489, 0
1170, 3713202717, 0.95367646, 0.12023966, 0.27544957, 0.015818954, 4.906563, 3.55243, -4.499402, 0
1171, 3713219384, 0.95607454, 0.122509465, 0.2660784, 0.01393944, 6.1716967, -0.18486209, 2.7344913, 0
1174, 3713269385, 0.9607551, 0.12214893, 0.2491929, 0.0033487529, 4.7219634, -0.29148474, 1.7111073, 0
1175, 3713286052, 0.96164364, 0.1212714, 0.24619743, -7.0874393E-4, 4.86962, 0.7780419, -0.43908024, 0
1177, 3713319386, 0.9628166, 0.11995077, 0.24216482, -0.005588442, 4.3629837, 0.6649525, 1.678011, 0
1179, 3713352720, 0.96280587, 0.118659325, 0.24271657, -0.009617597, 2.1187942, -1.3176115, -2.8628407, 0
1181, 3713386054, 0.9634373, 0.11829977, 0.24028187, -0.011721656, -2.6452427, 1.501565, 5.4370604, 0
1182, 3713402721, 0.96291703, 0.11851792, 0.2421454, -0.013760194, 5.8566327, 0.535995, -4.2976775, 0
1183, 3713419388, 0.9630873, 0.11781697, 0.24172215, -0.015210435, 4.5111256, -0.425253, -2.0509295, 0
1185, 3713452722, 0.96391284, 0.11724009, 0.23863864, -0.016048536, 3.6826224, -0.84505796, 1.274437, 0
1186, 3713469389, 0.96407497, 0.11712603, 0.23801391, -0.016411364, 1.4557838, -0.92955387, -0.6266298, 0
1187, 3713486056, 0.9644206, 0.116939425, 0.23671442, -0.016238898, 1.0932826, -1.0951566, -0.23612595, 0
1189, 3713519390, 0.9648335, 0.11635247, 0.23537794, -0.015324697, 3.192153, -0.48177367, 0.34979153, 0
1190, 3713536057, 0.9650546, 0.115264475, 0.23499596, -0.015493438, 1.9906169, -1.3614042, -0.3837242, 0
1191, 3713552724, 0.9653245, 0.113947965, 0.23449908, -0.015929416, 2.1880052, -1.6196518, -1.1396532, 0
1194, 3713602725, 0.96639174, 0.10909613, 0.23226084, -0.01786448, 2.0855396, 1.1606889, 0.04981041, 0
1195, 3713619392, 0.9666764, 0.107420266, 0.23181096, -0.018452272, 1.5025672, 0.28646016, -0.2013092, 0
1197, 3713652726, 0.9671831, 0.10448788, 0.23094234, -0.019589543, 0.67047405, -0.35883373, 0.54416466, 0
1198, 3713669393, 0.9673362, 0.10348273, 0.23071651, -0.020026416, 0.2754076, 0.71255296, -0.32526398, 0
1200, 3713702727, 0.96764696, 0.10228218, 0.2299657, -0.019812852, -0.7517729, 1.0358789, -1.0169277, 0
1201, 3713719394, 0.96786416, 0.101412505, 0.22945821, -0.01955904, 0.6583102, -0.23523755, 0.7867718, 0
1202, 3713736061, 0.96789896, 0.10114389, 0.22947016, -0.019080803, 0.17134662, -1.2400538, 0.8372412, 0
1204, 3713769395, 0.9679173, 0.10097493, 0.22958015, -0.017668203, -1.1450578, 0.75152355, -0.12713909, 0
1205, 3713786062, 0.9681312, 0.10038003, 0.22895886, -0.017394438, -0.8713336, 0.10343199, 1.1423397, 0
1206, 3713802729, 0.9684155, 0.0997484, 0.22805443, -0.01708506, -0.83414644, -0.4694379, 0.7468271, 0
1209, 3713852730, 0.96895, 0.097752735, 0.22670944, -0.016204089, -4.266214, 0.48780304, -1.9579992, 0
1210, 3713869397, 0.96925676, 0.096005134, 0.22614154, -0.01623787, 4.0928516, -0.635714, 3.5761986, 0
1212, 3713902731, 0.96946704, 0.09423697, 0.22602984, -0.015582845, 1.4723485, -0.66403615, 0.014718056, 0
1213, 3713919398, 0.9692074, 0.093961254, 0.22724876, -0.015668273, -1.7164402, 3.1870425, -2.042015, 0
1214, 3713936065, 0.9691569, 0.09356888, 0.22763006, -0.0156001, -0.11594584, 2.0084994, 0.968832, 0
1216, 3713969399, 0.9686097, 0.094758324, 0.22960314, -0.013327897, 0.31815302, -1.2965214, 0.7324152, 0
1217, 3713986066, 0.9680258, 0.09581919, 0.23163706, -0.012957662, 1.0335631, -0.08153356, 0.06417847, 0
1218, 3714002733, 0.9672167, 0.097273126, 0.23438543, -0.013129294, -0.24928917, 0.580003, 0.38295746, 0
1220, 3714036067, 0.96550494, 0.10062773, 0.24007447, -0.010856479, 0.043056864, 1.2289462, 0.3397932, 0
1221, 3714052734, 0.9648086, 0.10201896, 0.24233118, -0.009567589, 0.51552474, 0.81246763, 0.0748682, 0
1224, 3714102735, 0.960943, 0.10642744, 0.2555133, -0.0073530525, 0.2930949, 0.42812598, -0.8668537, 0
1225, 3714119402, 0.9588943, 0.1077198, 0.262567, -0.007471323, -0.3468163, 1.2849854, -0.32659817, 0
1226, 3714136069, 0.95686835, 0.108736426, 0.26944095, -0.0077529103, 0.4973878, 1.2182624, 0.36415195, 0
1228, 3714169403, 0.95301896, 0.110837206, 0.28196627, -0.0066599697, -0.24670707, 0.49394006, 0.74400234, 0
1229, 3714186070, 0.95140797, 0.11091377, 0.2873225, -0.0067858845, -0.5096424, 0.099587485, 0.3667717, 0
1231, 3714219404, 0.94842577, 0.11047575, 0.29713577, -0.008550972, -0.74414885, 0.055168334, 0.5934839, 0
1232, 3714236071, 0.94724536, 0.1098212, 0.30108827, -0.009518713, -1.0829024, 0.5468458, 0.113658905, 0
1233, 3714252738, 0.9459828, 0.10913958, 0.30524692, -0.010418639, -0.64614075, 0.4660436, 0.4684906, 0
1235, 3714286072, 0.9437609, 0.107718505, 0.31246412, -0.012552947, 0.15961784, -0.05164317, 0.98848057, 0
1236, 3714302739, 0.942833, 0.10689314, 0.31548423, -0.013732135, -0.087316595, -0.13613258, 0.61628246, 0
1237, 3714319406, 0.94179827, 0.105851784, 0.31886622, -0.014657378, -0.73847085, 0.07557906, 0.4716015, 0
1239, 3714352740, 0.9395367, 0.10230735, 0.32650757, -0.016609058, -0.98925406, 0.15243296, 1.0437384, 0
1240, 3714369407, 0.9381242, 0.10023056, 0.33110857, -0.017972842, -1.2891874, 0.2956203, 0.34269714, 0
1241, 3714386074, 0.9366849, 0.09837492, 0.33561102, -0.019695863, -2.1065154, 0.9072816, 0.54166985, 0
1243, 3714419408, 0.9337028, 0.09639541, 0.34425238, -0.021820143, -3.5965388, 0.73534065, 0.19705296, 0
1244, 3714436075, 0.9323944, 0.09619191, 0.3478309, -0.021926552, -3.653135, 0.38025603, 1.4886341, 0
1245, 3714452742, 0.9310489, 0.09602179, 0.35145172, -0.022102192, -3.5994616, -0.1819453, 1.1738682, 0
1247, 3714486076, 0.92904735, 0.09578083, 0.35670796, -0.023139179, -4.324518, 0.5459874, -0.4544983, 0
1248, 3714502743, 0.9301847, 0.096482046, 0.35350332, -0.023710892, -2.947854, 0.07740511, 8.489128, 0
1251, 3714552744, 0.92676616, 0.096869536, 0.3619441, -0.02822198, -1.1053811, 2.6902802, 7.138237, 0
1252, 3714569411, 0.9259796, 0.09701883, 0.36374596, -0.030289114, -7.399245, 2.4502783, -5.98198, 0
1254, 3714602745, 0.9303419, 0.102138, 0.3506835, -0.033644736, 2.2549284, 1.4492705, 1.6821852, 0
1255, 3714619412, 0.936101, 0.10601744, 0.33384025, -0.03324361, -3.0929804, 2.107384, 1.7798462, 0
1256, 3714636079, 0.9409206, 0.10803065, 0.319431, -0.032261208, -1.245439, 0.79457957, 3.186016, 0
1258, 3714669413, 0.9461407, 0.1088918, 0.30311927, -0.034033597, 0.758963, 3.3021736, -0.80078316, 0
1259, 3714686080, 0.9471995, 0.111001216, 0.29893887, -0.034735665, 2.121608, 2.545015, -4.478854, 0
1260, 3714702747, 0.94817513, 0.113676935, 0.2947493, -0.035264358, 6.160996, 2.037967, -6.4551387, 0
1262, 3714736081, 0.95582014, 0.116987735, 0.2676012, -0.034502506, 1.8111703, -0.96865016, -0.5870657, 0
1263, 3714752748, 0.95880264, 0.11697244, 0.2562059, -0.038114488, 6.6463523, -2.9460335, -0.209239, 0
1266, 3714802749, 0.96491385, 0.11770966, 0.23080148, -0.0435358, 4.361804, 0.9724494, -0.5336275, 0
1267, 3714819416, 0.96557707, 0.11910374, 0.22726145, -0.04366429, 2.2296283, -2.1755555, 2.4661608, 0
1268, 3714836083, 0.9658257, 0.12062651, 0.22534764, -0.043903664, 4.032649, -2.7657957, 2.1101665, 0
1270, 3714869417, 0.9660307, 0.12264991, 0.22333062, -0.04409392, 7.550897, -0.9551949, 4.6357803, 0
1271, 3714886084, 0.9657896, 0.12323417, 0.22412333, -0.043725237, -0.2078694, 1.6965168, -1.2564974, 0
1272, 3714902751, 0.96578526, 0.12341605, 0.22402552, -0.043806955, 3.1721447, -0.16244228, -1.8230824, 0
1274, 3714936085, 0.96592134, 0.12360051, 0.22323962, -0.044295758, 1.8038119, -1.9389355, -0.042164803, 0
1275, 3714952752, 0.9663057, 0.122680776, 0.22194289, -0.04498014, 4.0159974, -1.1364998, 1.419671, 0
1276, 3714969419, 0.9665779, 0.12205534, 0.22100244, -0.045462385, 4.8497305, -0.5230875, 0.73329353, 0
1278, 3715002753, 0.9670494, 0.12022622, 0.22009042, -0.044725478, 1.0067192, -0.049811233, -1.1889067, 0
1281, 3715052754, 0.9668491, 0.11948231, 0.22161211, -0.043520346, 2.0268917, 0.5026547, 0.8861742, 0
1282, 3715069421, 0.96645975, 0.12007089, 0.22305329, -0.04318358, 1.8935798, 0.90860105, -0.21793461, 0
1283, 3715086088, 0.9661118, 0.12044879, 0.22440864, -0.042893693, 1.0571352, 1.0898271, -0.3184452, 0
1285, 3715119422, 0.9647983, 0.12240146, 0.22903806, -0.04246171, 0.32402837, -0.2731892, 0.3802843, 0
1286, 3715136089, 0.96384877, 0.12458758, 0.23192108, -0.042016327, -0.9994763, 1.54107, -0.63511753, 0
1287, 3715152756, 0.96289855, 0.12687619, 0.23465413, -0.041779578, 0.093631476, 1.8798146, 1.005991, 0
1289, 3715186090, 0.960054, 0.13320906, 0.24280141, -0.04096338, -0.49714634, -0.7339971, -0.46650124, 0
1290, 3715202757, 0.95923513, 0.13448948, 0.2453756, -0.040625766, -0.7636755, -3.0675166, 1.4025383, 0
1291, 3715219424, 0.9588477, 0.13463002, 0.24670103, -0.041273564, 0.5772709, -1.8258551, 1.4828587, 0
1293, 3715252758, 0.9577209, 0.13620259, 0.24989487, -0.04302767, -1.6775866, 2.9041135, -2.1848192, 0
1295, 3715286092, 0.9552638, 0.14075804, 0.25683445, -0.042111754, 1.3526653, 1.3733327, 1.1808014, 0
1297, 3715319426, 0.95242774, 0.14650339, 0.26411045, -0.041751593, 0.5399967, -1.1258627, 0.83681965, 0
1298, 3715336093, 0.95066136, 0.15027605, 0.26832467, -0.041725725, 1.4228257, -0.9445597, 0.5313492, 0
1299, 3715352760, 0.9488537, 0.15423596, 0.2724734, -0.041534454, 0.9673711, 1.6027025, -0.36998272, 0
1301, 3715386094, 0.94569135, 0.16092141, 0.27957058, -0.04113047, -2.7013628, 4.8598294, -0.07080364, 0
1302, 3715402761, 0.9437381, 0.16542596, 0.28356454, -0.040778518, 0.98173124, -1.414301, 0.1367197, 0
1303, 3715419428, 0.94189024, 0.17071216, 0.2869019, -0.038296938, 1.0124855, -5.4693646, 2.551939, 0
1305, 3715452762, 0.9379951, 0.17758247, 0.29529557, -0.038850963, 0.834157, 3.9819226, -1.0338488, 0
1306, 3715469429, 0.93586874, 0.18052006, 0.30000734, -0.040459037, -1.1756732, 1.673296, -0.8612013, 0
1308, 3715502763, 0.93209493, 0.18653116, 0.30836797, -0.037332863, 1.9292487, 0.19711155, 1.7169161, 0
1309, 3715519430, 0.92921555, 0.19066426, 0.31455356, -0.036617428, 3.0470793, 0.6552692, 0.79119205, 0
1310, 3715536097, 0.9255988, 0.19629881, 0.3217156, -0.03621988, 0.7159616, 0.8029397, -0.8368311, 0
1312, 3715569431, 0.91613203, 0.21130477, 0.33904022, -0.03439802, 2.6804187, 1.3751725, 0.9645567, 0
1313, 3715586098, 0.9103593, 0.22011182, 0.34894943, -0.033319622, 0.8540541, 1.4255186, -1.4404335, 0
1314, 3715602765, 0.9028682, 0.23036982, 0.36171502, -0.03162691, 1.405203, -0.49183002, 0.3261118, 0
1316, 3715636099, 0.88308203, 0.2503679, 0.39625537, -0.02329816, -1.2811946, 1.4729465, -0.21475697, 0
1317, 3715652766, 0.86971486, 0.26143292, 0.41831464, -0.01846461, 0.009635643, 3.422378, 2.2674294, 0
1318, 3715669433, 0.8535458, 0.27773234, 0.4407059, -0.0134779215, -2.668671, 6.0273657, 0.3860426, 0
1320, 3715702767, 0.81140965, 0.32181406, 0.48798448, -4.630834E-4, -3.5787601, 3.117077, 3.8281965, 0
1322, 3715736101, 0.7689366, 0.3520156, 0.5337024, 0.007901177, -1.3294035, 2.6651516, 7.226858, 0
1324, 3715769435, 0.75526595, 0.3260605, 0.56861347, -0.003986433, 4.8768134, 10.729201, 1.0927649, 0
1325, 3715786102, 0.75865287, 0.30841947, 0.57359535, -0.019773006, -3.3760815, 7.5694003, 0.36064053, 0
1326, 3715802769, 0.76421714, 0.28609842, 0.57706225, -0.034611806, -5.327576, 1.4356405, -5.980385, 0
1328, 3715836103, 0.7761521, 0.24039231, 0.58077693, -0.050761715, -5.8005543, -0.4692289, -7.782049, 0
1329, 3715852770, 0.7819172, 0.22013135, 0.5809494, -0.052198008, -6.181883, 0.095930085, -5.5343823, 0
1330, 3715869437, 0.79072714, 0.20592272, 0.5744515, -0.04930745, -6.743508, 0.5055862, -2.4307752, 0
1332, 3715902771, 0.8156115, 0.18531403, 0.5472552, -0.0320556, -4.27552, -0.9537721, -2.8584204, 0
1333, 3715919438, 0.8298416, 0.17274523, 0.53025883, -0.020656973, -2.614141, -2.8146875, -1.0661869, 0
1334, 3715936105, 0.8440069, 0.15810972, 0.5125126, -0.007985488, 0.39142466, -3.1873307, -1.0407419, 0
1337, 3715986106, 0.8772387, 0.13402367, 0.46055922, 0.021312281, 10.010026, -6.0640783, 1.1359901, 0
1339, 3716019440, 0.8882447, 0.1296204, 0.43884313, 0.041423127, 15.476883, -11.118163, -3.6625338, 0
1340, 3716036107, 0.88826364, 0.12891367, 0.43775266, 0.053112134, 19.677113, -10.366276, -5.760944, 0
1341, 3716052774, 0.8844492, 0.13070266, 0.44403622, 0.05981034, 21.7386, -8.569519, -6.944803, 0
1343, 3716086108, 0.8659224, 0.14834657, 0.4749516, 0.05168865, 22.785297, -8.713633, -4.6725717, 0
1344, 3716102775, 0.85110813, 0.1598381, 0.49833757, 0.042489216, 21.47764, -10.605045, -4.7727704, 0
1345, 3716119442, 0.8310247, 0.16456163, 0.5302718, 0.034760706, 20.243427, -7.8258753, -3.6175408, 0
1347, 3716152776, 0.808082, 0.12504026, 0.5744298, 0.0384432, -6.638954, 3.3593605, -17.446564, 0
1348, 3716169443, 0.8002947, 0.10324318, 0.58750194, 0.06156162, 10.270765, 5.1344852, 14.508696, 0
1349, 3716186110, 0.8165187, 0.090028144, 0.5654883, 0.07412382, 0.19270135, 2.4512289, 15.08724, 0
1352, 3716236111, 0.8364176, 0.07278714, 0.5382048, 0.07431179, -2.8934166, 2.8312538, -1.1561975, 0
1353, 3716252778, 0.8290225, 0.07185762, 0.5495898, 0.07475432, -1.4536724, -0.35068032, 0.022771835, 0
1355, 3716286112, 0.805247, 0.065797545, 0.5847149, 0.07372786, -1.6612035, 0.73716795, -0.5647259, 0
1356, 3716302779, 0.7862466, 0.063222915, 0.61015815, 0.0748689, -2.2732606, 0.72972476, -0.46981907, 0
1357, 3716319446, 0.7600285, 0.0611177, 0.64258134, 0.07609017, -3.246057, 0.52664757, -0.31911373, 0
1359, 3716352780, 0.6778861, 0.056465387, 0.729298, 0.07406554, -5.259694, 3.1326602, 1.6681137, 0
1360, 3716369447, 0.61187255, 0.06302577, 0.78513294, 0.07269882, -9.219049, 5.8523803, 7.0841064, 0
1362, 3716402781, 0.4698496, 0.13549669, 0.8719935, 0.024257708, -24.480463, 10.912786, 45.40608, 0
1363, 3716419448, 0.45194528, 0.14948663, 0.87918097, -0.022786237, -23.610153, -16.393488, 20.55481, 0
1364, 3716436115, 0.41629192, 0.15189788, 0.8963647, -0.015412964, -13.188139, -14.796986, 12.887209, 0
1367, 3716486116, 0.36222488, 0.1531726, 0.9171482, -0.06519132, -19.052895, 2.514867, -7.5532727, 0
1368, 3716502783, 0.35553926, 0.14215757, 0.9208498, -0.07414733, -12.321528, 6.2670197, -7.039668, 0
1370, 3716536117, 0.34843072, 0.12272003, 0.9245445, -0.093981415, -13.339025, 5.21155, -10.432403, 0
1371, 3716552784, 0.34900093, 0.111500815, 0.9257031, -0.09444047, -15.576459, 2.6181636, -13.031724, 0
1372, 3716569451, 0.3529747, 0.100297034, 0.9263794, -0.08514488, -15.446217, 2.4892528, -14.412048, 0
1374, 3716602785, 0.379765, 0.08105798, 0.9197865, -0.057273142, -15.430194, 5.437488, -13.71236, 0
1375, 3716619452, 0.40694585, 0.07408413, 0.9093661, -0.04515642, -15.03508, 4.5194974, -12.148161, 0
1376, 3716636119, 0.44129264, 0.067073464, 0.89421636, -0.034905285, -12.573699, 3.8191226, -10.317206, 0
1378, 3716669453, 0.5166178, 0.0558452, 0.8539492, -0.028936423, -8.746989, 3.9520824, -7.6048822, 0
1379, 3716686120, 0.5573336, 0.053121984, 0.82798046, -0.032938078, -9.685696, 2.9012241, -6.225565, 0
1380, 3716702787, 0.60082954, 0.050773352, 0.7969169, -0.037795432, -10.825344, 2.398781, -3.7574663, 0
1383, 3716752788, 0.73178494, 0.055567652, 0.67678285, -0.058711946, -4.141978, 4.8922205, 1.8853903, 0
1384, 3716769455, 0.7695935, 0.0658263, 0.6309077, -0.07367085, -3.3589547, 3.0574942, 5.7986116, 0
1386, 3716802789, 0.8341642, 0.091347866, 0.53643644, -0.090225875, -3.5751646, -0.0050433464, 9.594397, 0
1387, 3716819456, 0.8611584, 0.10985524, 0.48897094, -0.08558412, 2.2675729, 1.5205902, 11.720207, 0
1389, 3716852790, 0.8993679, 0.15939146, 0.40329802, -0.056227103, 15.151532, -0.61218184, 10.33979, 0
1390, 3716869457, 0.9108194, 0.17607465, 0.3716774, -0.036618114, 17.56151, -0.87665623, 7.3131104, 0
1391, 3716886124, 0.91957355, 0.18125282, 0.34810197, -0.020880267, 18.096294, -0.040022008, 5.8918037, 0
1393, 3716919458, 0.93478775, 0.17719695, 0.3076493, -0.014292344, 19.6004, 0.00289114, 7.473482, 0
1395, 3716952792, 0.94929135, 0.18391025, 0.25325543, -0.031043768, 16.139093, -5.29951, -4.543937, 0
1397, 3716986126, 0.95472085, 0.1890262, 0.2263965, -0.04001172, 11.276367, -6.722841, -10.404888, 0
1398, 3717002793, 0.95509285, 0.18791968, 0.22607464, -0.03812264, 11.616628, -7.80534, -4.9425077, 0
1399, 3717019460, 0.9570607, 0.18053752, 0.22451179, -0.03338407, 10.951764, -7.695367, -0.78351593, 0
1401, 3717052794, 0.9611277, 0.16069543, 0.22383896, -0.01964268, 8.936386, -1.0770448, -8.324607, 0
1402, 3717069461, 0.960403, 0.1570057, 0.22997275, -0.012922153, 8.967357, -1.5034561, -6.209985, 0
1403, 3717086128, 0.95851487, 0.15703547, 0.2379188, -0.007945344, 9.133858, -1.9888469, -4.5209413, 0
1405, 3717119462, 0.9562198, 0.1655952, 0.24137123, -0.0064129084, 9.561105, -4.3410945, -2.3067088, 0
1406, 3717136129, 0.9563866, 0.16581915, 0.2403833, -0.011112452, 10.141024, -4.7526245, -7.6432595, 0
1407, 3717152796, 0.95525295, 0.16218835, 0.24667896, -0.020379156, 11.24312, -7.9000673, -13.783332, 0
1410, 3717202797, 0.93184966, 0.1487579, 0.32708704, -0.05119157, 54.472927, -8.638763, 60.66094, 0
1411, 3717219464, 0.94474196, 0.12890145, 0.29427525, -0.06578797, 4.2136116, -11.338, -8.451558, 0
1413, 3717252798, 0.95364493, 0.11313306, 0.2667108, -0.08189306, -0.7710131, 4.193935, 2.2753582, 0
1414, 3717269465, 0.9515746, 0.1117549, 0.27465075, -0.08162688, -1.5864507, 4.1201982, 2.0233593, 0
1417, 3717319466, 0.9233189, 0.112232685, 0.35872212, -0.079269126, -0.5534296, 0.19148774, -0.4198389, 0
1418, 3717336133, 0.910898, 0.113408536, 0.3890272, -0.078362346, 1.5179378, -0.4869675, -0.7833986, 0
1420, 3717369467, 0.8890377, 0.11260668, 0.43699846, -0.07773806, 1.0290703, -2.2570727, 0.54861164, 0
1421, 3717386134, 0.87939346, 0.10948272, 0.45664003, -0.07899316, 0.57998693, -0.66228694, 0.32583046, 0
1422, 3717402801, 0.8700744, 0.10525849, 0.47484067, -0.08060175, -0.14149831, -0.3666016, 0.16291809, 0
1424, 3717436135, 0.8456166, 0.09545428, 0.5188596, -0.08176336, -1.70095, 0.17477126, -0.30846214, 0
1426, 3717469469, 0.80210376, 0.08487978, 0.58606935, -0.07763386, -3.3304546, 0.087214194, -1.7051029, 0
1428, 3717502803, 0.70896715, 0.07943473, 0.69625854, -0.079741895, -8.140369, 4.5887237, 7.5049, 0
1429, 3717519470, 0.63579065, 0.09028593, 0.7609406, -0.09309759, -6.3774424, 2.7977984, 20.408474, 0
1430, 3717536137, 0.556422, 0.12897693, 0.8080787, -0.14438695, -8.06713, -8.210393, 55.742336, 0
1432, 3717569471, 0.42763466, 0.14039369, 0.879954, -0.15224434, -21.654709, -17.778728, 33.113358, 0
1433, 3717586138, 0.37279847, 0.13586232, 0.90747344, -0.13832471, -1.1770979, 25.522642, 16.801205, 0
1434, 3717602805, 0.31799757, 0.13080855, 0.92596734, -0.15630136, -34.532078, 12.979814, -0.52288723, 0
1436, 3717636139, 0.23309462, 0.115945294, 0.9527144, -0.15696518, -20.092434, 13.405758, -14.391153, 0
1437, 3717652806, 0.18987626, 0.111834794, 0.9620309, -0.16129437, -15.750444, 10.954311, -30.54893, 0
1438, 3717669473, 0.1638371, 0.10456529, 0.9687755, -0.15419728, -17.466358, 8.500388, -36.83072, 0
1441, 3717719474, 0.20454213, 0.06987548, 0.96895444, -0.12035997, -10.305773, 3.923377, -10.513029, 0
1443, 3717752808, 0.2760287, 0.04127659, 0.95441926, -0.10614844, -6.0155287, -1.2652292, -2.3801441, 0
1444, 3717769475, 0.30840433, 0.025643378, 0.945885, -0.098029524, -1.1849911, -1.9412905, -2.663916, 0
1445, 3717786142, 0.33517015, 0.01220423, 0.93763536, -0.09182203, 1.412222, -2.1808743, -3.9652681, 0
1447, 3717819476, 0.3864103, 0.0011965185, 0.91840583, -0.08541461, -1.3734465, -2.9219737, -1.6381931, 0
1448, 3717836143, 0.41253814, 0.0028976202, 0.9073364, -0.081387185, 0.7287312, -1.7539269, -0.73931026, 0
1449, 3717852810, 0.4367981, 0.006050572, 0.8962369, -0.07751881, 1.086846, 0.1417878, -0.19458961, 0
1451, 3717886144, 0.48357517, 0.009400174, 0.8720934, -0.0748269, -1.0294985, 1.9891404, 0.61722374, 0
1452, 3717902811, 0.50887203, 0.011299148, 0.8577004, -0.07314946, -2.3933017, -0.09986983, 1.9784536, 0
1453, 3717919478, 0.53438276, 0.013157889, 0.8426552, -0.06536985, -1.3007969, -2.2671149, 2.4490957, 0
1455, 3717952812, 0.5754361, 0.01636745, 0.8169723, -0.03522423, 3.4457092, 1.4646585, -0.876112, 0
1456, 3717969479, 0.5904349, 0.01846598, 0.80653465, -0.025034174, 1.939277, 4.6139565, -2.3145103, 0
1457, 3717986146, 0.60652757, 0.0202858, 0.7945295, -0.022685163, -2.59391, 5.8669324, -1.5274239, 0
1459, 3718019480, 0.6520533, 0.020157069, 0.75750464, -0.02619031, -3.3761451, 1.4001912, -2.3360248, 0
1460, 3718036147, 0.6750957, 0.019069448, 0.7370327, -0.02727522, -1.7722553, 1.0395193, -3.0091348, 0
1461, 3718052814, 0.6966907, 0.020324022, 0.7165607, -0.02879116, -2.4941518, 1.2848294, -2.2076812, 0
1463, 3718086148, 0.7395263, 0.024185367, 0.6720109, -0.03156826, -4.2177315, -0.44892883, 0.29685688, 0
1464, 3718102815, 0.7613317, 0.02551987, 0.64714974, -0.031606197, -3.4630067, 0.025529426, 0.76450443, 0
1465, 3718119482, 0.7829766, 0.02946207, 0.62054974, -0.032812193, -2.1595151, 1.2754807, 0.21102238, 0
1468, 3718169483, 0.84254014, 0.054424495, 0.53456986, -0.038451314, -3.3280346, 0.54498416, 3.1211815, 0
1469, 3718186150, 0.86078197, 0.06218183, 0.5040339, -0.03487955, -2.09644, 0.82383734, 5.5920124, 0
1471, 3718219484, 0.89395607, 0.080477744, 0.4402732, -0.024589628, 3.2376416, -0.08726527, 6.0399103, 0
1472, 3718236151, 0.9075596, 0.088525966, 0.41010296, -0.019836873, 4.421623, -0.14864461, 5.1309614, 0
1474, 3718269485, 0.92865574, 0.10430389, 0.35589078, -0.011828437, 4.280606, -0.16485913, 5.3081846, 0
1475, 3718286152, 0.93701655, 0.110156484, 0.33151004, -0.0067522824, 4.8651776, -0.7290091, 6.7091503, 0
1476, 3718302819, 0.9449523, 0.115938425, 0.3061083, -1.5000999E-4, 6.9957113, -1.3669354, 7.487982, 0
1478, 3718336153, 0.9576576, 0.12745911, 0.25790417, 0.014515564, 9.628559, -2.0345387, 0.7856884, 0
1479, 3718352820, 0.9614408, 0.13397022, 0.23945048, 0.020646155, 10.2231245, -1.9874146, 0.33167076, 0
1480, 3718369487, 0.9642161, 0.13914435, 0.2243509, 0.025925666, 10.210985, -2.2014122, 0.019913673, 0
1483, 3718419488, 0.96880937, 0.15220359, 0.19274274, 0.03423564, 11.150277, -1.1840525, -2.9534125, 0
1484, 3718436155, 0.96918833, 0.15847354, 0.185675, 0.03411925, 10.346975, -1.5914904, -4.4156156, 0
1486, 3718469489, 0.9679949, 0.17078425, 0.18149926, 0.030914143, 9.462906, -2.2976031, -6.0551786, 0
1487, 3718486156, 0.9664404, 0.17659876, 0.18456599, 0.028641552, 8.95519, -2.2818027, -6.429579, 0
1488, 3718502823, 0.9642116, 0.1820103, 0.19115674, 0.026583865, 8.85837, -2.811005, -6.135213, 0
1490, 3718536157, 0.95796037, 0.19093505, 0.21298902, 0.023886472, 10.7582655, -4.072491, -7.689583, 0
1491, 3718552824, 0.95358336, 0.19467479, 0.228853, 0.022046477, 11.224829, -5.39867, -8.510081, 0
1492, 3718569491, 0.9481378, 0.19724478, 0.24863926, 0.019665942, 11.270063, -5.574016, -9.319167, 0
1494, 3718602825, 0.9310264, 0.20323081, 0.30273443, 0.017833933, 13.518811, -7.9545107, -9.616501, 0
1495, 3718619492, 0.9197329, 0.20263131, 0.3357234, 0.020016208, 16.01387, -9.5948305, -4.6421514, 0
1498, 3718669493, 0.8827123, 0.1773879, 0.43393722, 0.033617124, 25.482124, -7.67394, -7.702375, 0
1499, 3718686160, 0.85951394, 0.16879217, 0.48087984, 0.039732516, 12.653986, -13.12561, 29.827587, 0
1501, 3718719494, 0.87925446, 0.09053073, 0.46463063, 0.053974554, -12.414736, 20.02113, 14.573477, 0
1502, 3718736161, 0.88996667, 0.082529955, 0.44537324, 0.053571932, -6.622008, 0.43604538, 3.99201, 0
1503, 3718752828, 0.89618206, 0.07989133, 0.43321398, 0.053666256, -4.374207, 2.7084675, 0.81184673, 0
1505, 3718786162, 0.89273345, 0.076819405, 0.44081807, 0.053708643, -4.8292694, 1.9522564, -0.37809467, 0
1506, 3718802829, 0.8825839, 0.0751816, 0.46099362, 0.054383263, -2.513887, 0.3568949, -0.5919647, 0
1507, 3718819496, 0.8710388, 0.073387824, 0.48246735, 0.056655906, 2.7373188, -0.07102549, -1.3492231, 0
1509, 3718852830, 0.8639773, 0.07416333, 0.4939208, 0.06453123, 2.9634871, -1.1176811, 1.0317316, 0
1510, 3718869497, 0.8647895, 0.07373242, 0.49240077, 0.06575169, -2.4587035, -1.5843421, 0.9698992, 0
1513, 3718919498, 0.8358206, 0.06757816, 0.5409597, 0.06541303, -2.1746635, -0.03475685, -0.30900097, 0
1514, 3718936165, 0.8165521, 0.06456921, 0.56990546, 0.066034116, -2.0497782, 0.0072397804, -0.097613335, 0
1515, 3718952832, 0.7903066, 0.061250113, 0.6062208, 0.06511237, -3.0852566, 0.88579804, -0.368433, 0
1517, 3718986166, 0.69327646, 0.059706226, 0.7155635, 0.06205795, -9.769964, 4.7349877, 4.3155956, 0
1518, 3719002833, 0.6100555, 0.07745063, 0.78715354, 0.047982745, -12.444498, -0.9258281, 23.419937, 0
1519, 3719019500, 0.5324446, 0.14440802, 0.83397835, -0.014434464, -24.691355, 7.1953306, 68.15733, 0
1521, 3719052834, 0.4606101, 0.18612862, 0.86299366, -0.092280656, -18.114859, -33.815937, 17.451504, 0
1522, 3719069501, 0.408831, 0.18381663, 0.8910316, -0.072183885, -12.762159, 12.234155, 4.2704773, 0
1524, 3719102835, 0.32180852, 0.17621604, 0.928289, -0.06120552, -25.83757, 23.437605, -10.030793, 0
1525, 3719119502, 0.29652634, 0.16191933, 0.9392075, -0.061827067, -18.908266, 20.658304, -13.145756, 0
1526, 3719136169, 0.27739495, 0.14128873, 0.9483118, -0.062237162, -18.515676, 13.291886, -18.094627, 0
1528, 3719169503, 0.27102524, 0.09329519, 0.9567087, -0.051271074, -16.441202, 9.067875, -17.902447, 0
1529, 3719186170, 0.28842738, 0.072608456, 0.95341843, -0.051089577, -14.900017, 7.586384, -13.835713, 0
1530, 3719202837, 0.31694844, 0.051675722, 0.9455555, -0.053640638, -12.240546, 4.131868, -10.522216, 0
1532, 3719236171, 0.3835207, 0.015741289, 0.92168224, -0.056964144, -7.618868, -2.7190447, -8.840098, 0
1533, 3719252838, 0.41434008, -0.0010576844, 0.90874815, -0.050766572, -7.5914826, -2.2447639, -7.7109632, 0
1534, 3719269505, 0.4470325, -0.015321419, 0.89336413, -0.043666027, -7.3811703, 1.8721411, -4.8538423, 0
1536, 3719302839, 0.518319, -0.034612536, 0.8531835, -0.048005387, -1.511695, 1.285866, -1.8421836, 0
1537, 3719319506, 0.55032235, -0.041716397, 0.8321983, -0.054131, -0.8893893, -1.665706, -1.8870516, 0
1540, 3719369507, 0.63152957, -0.047908172, 0.77218056, -0.051879734, -1.5710405, -1.5026716, -0.82813644, 0
1541, 3719386174, 0.6579416, -0.046500526, 0.7498808, -0.05204256, 1.62514, -0.21641463, 2.5760412, 0
1542, 3719402841, 0.68458474, -0.04339891, 0.72534, -0.058490537, 5.3403854, -2.1296682, 5.186455, 0
1544, 3719436175, 0.72694266, -0.037854195, 0.68196994, -0.07153775, 7.4895816, -9.783619, -1.8143072, 0
1545, 3719452842, 0.7414112, -0.027049214, 0.66722846, -0.06680648, 5.2996325, -11.225128, -4.437981, 0
1546, 3719469509, 0.75336045, -0.009067558, 0.6554228, -0.05353591, 6.3496366, -8.260662, -0.042773247, 0
1548, 3719502843, 0.77669877, 0.028443478, 0.6280509, -0.039511576, 14.450284, -2.9575386, 3.507701, 0
1549, 3719519510, 0.7855455, 0.040011026, 0.6160227, -0.04373263, 14.937756, -2.5164583, 0.826169, 0
1551, 3719552844, 0.79445624, 0.062154986, 0.6008858, -0.063178435, 9.058432, -3.515228, -3.7014217, 0
1552, 3719569511, 0.7950487, 0.077833496, 0.5975239, -0.06988366, 6.111927, -5.111049, -4.719903, 0
1555, 3719619512, 0.791327, 0.120394215, 0.5951365, -0.0721007, 4.2040567, 1.5776247, 1.5666723, 0
1556, 3719636179, 0.79394823, 0.13081375, 0.58839566, -0.08002347, 4.2772646, 3.6016626, 2.1863947, 0
1557, 3719652846, 0.7987481, 0.14234844, 0.57706785, -0.093864515, 3.72496, 2.773749, 1.3528452, 0
1559, 3719686180, 0.8057487, 0.14240584, 0.5581289, -0.13806055, 12.987206, 7.379996, 4.032233, 0
1560, 3719702847, 0.8096822, 0.1472672, 0.54623413, -0.1563155, 1.3617268, -5.75863, -5.0616503, 0
1561, 3719719514, 0.8147175, 0.16288827, 0.533936, -0.15714498, 1.7159052, -3.1243927, 2.2286072, 0
1563, 3719752848, 0.81958586, 0.18734095, 0.5253997, -0.131212, -6.5584116, -3.7055044, 2.793891, 0
1564, 3719769515, 0.82610095, 0.19023715, 0.5195129, -0.10748179, -5.5330515, 0.011278352, 5.28265, 0
1565, 3719786182, 0.83430433, 0.18915021, 0.51043934, -0.08768901, 0.4895297, 3.5189345, -0.5140829, 0
1567, 3719819516, 0.8421498, 0.19831279, 0.49521777, -0.079337135, 0.095833525, 4.3591323, -3.981257, 0
1569, 3719852850, 0.8480757, 0.22751632, 0.47147673, -0.082417816, -2.3218315, 1.4098128, -0.8024378, 0
1571, 3719886184, 0.8600706, 0.24022958, 0.4448619, -0.06888834, 0.06184827, 2.5093188, 2.0426254, 0
1572, 3719902851, 0.8687586, 0.2430981, 0.4269481, -0.06289868, 6.4622684, 5.750011, 4.01849, 0
1573, 3719919518, 0.87879753, 0.23415707, 0.4112009, -0.062275767, -0.38279366, 1.8382788, 3.6301794, 0
1575, 3719952852, 0.89901936, 0.18142274, 0.39435524, -0.058421344, 7.7599254, 7.5078583, 1.5193319, 0
1576, 3719969519, 0.90641725, 0.17465118, 0.3797507, -0.061427608, 0.4547994, -1.070745, 0.6696148, 0
1577, 3719986186, 0.9123073, 0.1655416, 0.3693789, -0.06268881, 1.1987677, -4.2676606, 2.441224, 0
1579, 3720019520, 0.92387563, 0.14769769, 0.3469022, -0.06615956, 0.46156353, 1.018507, 0.17570305, 0
1580, 3720036187, 0.92898935, 0.14040181, 0.33581576, -0.067624465, -0.07601437, 1.3365657, -0.8450346, 0
1582, 3720069521, 0.93910193, 0.12839483, 0.3119243, -0.06621623, 1.3004012, 2.5334136, 0.006401062, 0
1584, 3720102855, 0.9458256, 0.12934487, 0.29085225, -0.06456049, -2.9574225, 3.3989522, -1.1473017, 0
1586, 3720136189, 0.9464237, 0.13437475, 0.28617463, -0.066399515, 1.3018934, -0.21175975, 1.3882389, 0
1587, 3720152856, 0.94604486, 0.13609958, 0.28624764, -0.06795302, 3.1854973, 0.61825687, 1.7318201, 0
1588, 3720169523, 0.94577384, 0.13714594, 0.28615624, -0.06997493, 2.8053842, 1.0396426, 1.079279, 0
1590, 3720202857, 0.94510096, 0.14086157, 0.28620243, -0.071480274, 1.4405051, 0.4910008, -0.26293182, 0
1592, 3720236191, 0.94494647, 0.14338814, 0.28515387, -0.07268138, 0.22694804, -1.1234325, -0.65932274, 0
1594, 3720269525, 0.94619983, 0.13910471, 0.28237954, -0.07547654, 2.2559438, -1.4859041, 0.52914333, 0
1595, 3720286192, 0.9479366, 0.13352421, 0.27825558, -0.07899815, 1.9289781, -1.6900144, 1.1024084, 0
1596, 3720302859, 0.9497868, 0.12730622, 0.2734176, -0.083787665, 1.6360778, -2.285533, 0.3106165, 0
1598, 3720336193, 0.9526129, 0.1191361, 0.26511914, -0.090146735, 1.4307066, 1.2134533, -0.2285099, 0
1599, 3720352860, 0.9536182, 0.115977645, 0.2621365, -0.09233147, 0.9762865, 1.7031857, -1.0294886, 0
1600, 3720369527, 0.95433974, 0.11378476, 0.2599697, -0.09372039, 1.381278, -0.24355112, 0.29383087, 0
1602, 3720402861, 0.9556867, 0.11003895, 0.25593948, -0.09554356, 1.9671103, -0.9581236, 1.046669, 0
1603, 3720419528, 0.9561902, 0.10803996, 0.2543413, -0.0970432, 1.1312995, -0.08270102, 0.25819492, 0
1605, 3720452862, 0.95650065, 0.10525806, 0.2534025, -0.099466726, -0.73695165, 0.83317, 0.59156895, 0
1606, 3720469529, 0.9567027, 0.10350949, 0.25289887, -0.10063279, -0.6268519, 0.24406737, 0.68267727, 0
1607, 3720486196, 0.95688415, 0.10148511, 0.2524139, -0.10217598, -0.83973616, -0.42599508, 0.7199459, 0
1609, 3720519530, 0.9577719, 0.09582539, 0.24961254, -0.1061278, -1.6671802, -0.34241262, -0.02366829, 0
1610, 3720536197, 0.9579865, 0.09301989, 0.24894391, -0.108237326, -1.0484444, 0.30692396, 1.2590141, 0
1613, 3720586198, 0.9578892, 0.08593485, 0.24922709, -0.114143, -2.9366016, 3.2159026, -0.05421734, 0
1614, 3720602865, 0.9580332, 0.08387936, 0.24896805, -0.11502428, -3.722436, 2.4080863, -0.392025, 0
1615, 3720619532, 0.9581292, 0.08191072, 0.24878098, -0.116043836, -2.5583382, 0.031749904, -0.8332634, 0
1617, 3720652866, 0.9579587, 0.07841891, 0.24911965, -0.11909787, -2.6516924, 1.3779762, 1.3211298, 0
1618, 3720669533, 0.9559051, 0.078426145, 0.25588787, -0.121224165, -3.3153188, 2.8369155, 1.1106758, 0
1619, 3720686200, 0.9536955, 0.07851875, 0.26267177, -0.12402567, -4.4494486, 2.5990953, -1.2520704, 0
1621, 3720719534, 0.95376956, 0.079434544, 0.26088917, -0.12660944, 0.18505365, -0.49751917, 2.6029806, 0
1622, 3720736201, 0.9553032, 0.08044511, 0.25541934, -0.12555738, -1.3287616, 0.33063605, 2.1052294, 0
1623, 3720752868, 0.95582545, 0.080530435, 0.25376928, -0.12487127, 2.1231701, -0.31662342, 1.910655, 0
1625, 3720786202, 0.95635766, 0.08048101, 0.2527238, -0.12293245, 1.3304092, -0.47751877, 0.66589165, 0
1627, 3720819536, 0.9564272, 0.07944352, 0.25231564, -0.12390174, 1.9277253, 0.81766146, -2.7490406, 0
1629, 3720852870, 0.9558145, 0.08282402, 0.2537808, -0.12342358, -1.9586936, 2.209018, -0.12838173, 0
1630, 3720869537, 0.9552661, 0.083414495, 0.25548923, -0.12374669, -0.93558925, -0.04097702, -0.56917, 0
1632, 3720902871, 0.9554819, 0.08544181, 0.2528345, -0.12612666, -1.316838, -1.0439291, -1.6079245, 0
1633, 3720919538, 0.95738524, 0.08635697, 0.24381287, -0.12880497, -2.5430932, 1.5006449, -3.844534, 0
1634, 3720936205, 0.95905715, 0.08780288, 0.23676641, -0.12853388, -0.12872441, 4.1276693, -0.20532417, 0
1636, 3720969539, 0.9613328, 0.09113558, 0.22751297, -0.12589967, 1.3671008, -1.5743068, 2.2666187, 0
1637, 3720986206, 0.9616513, 0.091932476, 0.22595723, -0.12568946, 2.2475343, -3.339941, 4.305731, 0
1638, 3721002873, 0.9619895, 0.09210814, 0.2242421, -0.12604336, 2.5488982, -2.9280088, 2.509365, 0
1640, 3721036207, 0.9625287, 0.092560984, 0.22203945, -0.12549366, 1.5845802, -0.5590464, -0.768487, 0
1642, 3721069541, 0.96304053, 0.09232962, 0.22065268, -0.12417613, 2.6432357, -1.5143187, 1.1204777, 0
1644, 3721102875, 0.96340793, 0.091965795, 0.22038227, -0.12205893, 3.0066154, -2.8762317, 0.5322857, 0
1645, 3721119542, 0.9635812, 0.09147121, 0.22057915, -0.12069939, 3.340827, -2.834644, 0.53224945, 0
1646, 3721136209, 0.9639749, 0.09037238, 0.22004321, -0.11935498, 1.4202685, -1.5229999, -0.5102978, 0
1648, 3721169543, 0.96457845, 0.08787323, 0.21994224, -0.1164958, 1.8393741, -1.5562612, -0.4187956, 0
1649, 3721186210, 0.96496725, 0.086904794, 0.21964136, -0.11455332, 0.90920985, -0.21613675, 0.36033916, 0
1650, 3721202877, 0.9651958, 0.08639268, 0.21982458, -0.112648845, 1.9466584, -0.022162147, -0.55233955, 0
1652, 3721236211, 0.96572816, 0.08621609, 0.22014318, -0.10747889, 0.970688, -1.5496997, 0.20199299, 0
1653, 3721252878, 0.9658798, 0.08685665, 0.22057803, -0.10467273, 1.9145284, -1.4338394, 0.38722992, 0
1654, 3721269545, 0.96593285, 0.087881595, 0.22112665, -0.10213944, 0.24243265, -0.40924028, -0.5689354, 0
1657, 3721319546, 0.96610785, 0.091419205, 0.22262585, -0.09378134, 0.79747677, -0.23640949, 0.42452717, 0
1659, 3721352880, 0.9659325, 0.09452666, 0.22405797, -0.0889741, 0.49670726, -0.28613138, 0.5038023, 0
1660, 3721369547, 0.9656928, 0.09699611, 0.225, -0.0865071, 1.1844087, -0.0393841, 0.1646471, 0
1661, 3721386214, 0.9654326, 0.09939036, 0.22589055, -0.08434509, 1.0986196, 0.6766965, -0.26333523, 0
1663, 3721419548, 0.9651672, 0.1031062, 0.2265286, -0.0811504, 1.297057, -0.8453605, 0.71635246, 0
1664, 3721436215, 0.9649712, 0.10526405, 0.22692277, -0.07959406, 2.0161052, -0.61254376, 1.1629353, 0
1665, 3721452882, 0.96467483, 0.10785157, 0.2275095, -0.078032464, 1.5282449, 0.65845203, 0.2587099, 0
1667, 3721486216, 0.96345603, 0.11419215, 0.23031853, -0.075796306, 1.4200106, 0.18834682, 1.0272837, 0
1668, 3721502883, 0.9629747, 0.116194084, 0.23151512, -0.075223014, 0.8293061, 0.40674943, -0.057847977, 0
1669, 3721519550, 0.9625129, 0.1177142, 0.23272672, -0.075031385, 0.94548124, -0.14670697, 0.39694786, 0
1671, 3721552884, 0.96193534, 0.11975856, 0.23388557, -0.07559803, 0.22745201, 0.104823835, 0.8213644, 0
1672, 3721569551, 0.96169543, 0.12092058, 0.23410277, -0.07612531, 1.0102901, 0.4605552, 0.48106098, 0
1673, 3721586218, 0.9614066, 0.12215303, 0.23448583, -0.07662593, -0.03321464, 1.4768748, -0.44424152, 0
1675, 3721619552, 0.9607136, 0.12406923, 0.23579924, -0.07819256, 0.5606559, 0.046926323, 0.8089762, 0
1676, 3721636219, 0.96045464, 0.12499166, 0.23598523, -0.079334706, 0.1655916, 0.0011524754, 0.0026855469, 0
1677, 3721652886, 0.96028554, 0.12577426, 0.23583642, -0.08057852, -0.5445197, 0.5345744, -0.32373714, 0
1680, 3721702887, 0.9593713, 0.12966281, 0.23610854, -0.08441818, 0.5542018, 0.97784716, 0.09685516, 0
1681, 3721719554, 0.9590327, 0.13080858, 0.23634753, -0.08581558, 1.1469578, 0.27476773, 0.8807554, 0
1683, 3721752888, 0.9583489, 0.13265343, 0.23699747, -0.088780224, 1.3499424, 0.215198, -0.50265026, 0
1686, 3721802889, 0.9566597, 0.13729191, 0.2397058, -0.09259404, 2.1365523, 0.93393546, -0.59740734, 0
1687, 3721819556, 0.9555545, 0.13961563, 0.24247491, -0.093317166, 0.9111092, 0.50998026, -1.2735062, 0
