sep=,
DeviceTag:,Xsens_DOT_5,,,,,,,,,,,,,,,,,
FirmwareVersion:,3.0.0,,,,,,,,,,,,,,,,,
AppVersion:,2023.6.1,,,,,,,,,,,,,,,,,
SyncStatus:,Synced,,,,,,,,,,,,,,,,,
OutputRate:,60Hz,,,,,,,,,,,,,,,,,
FilterProfile:,General,,,,,,,,,,,,,,,,,
Measurement Mode:,Sensor fusion Mode - Extended (Quaternion),,,,,,,,,,,,,,,,,
StartTime:,2025-05-05 11:52:51.218 +0200,,,,,,,,,,,,,,,,,
 2025,,,,,,,,,,,,,,,,,,,

PacketCounter,SampleTimeFine,Quat_W,Quat_X,Quat_Y,Quat_Z,FreeAcc_X,FreeAcc_Y,FreeAcc_Z,Status
1, 2764217071, 0.37214583, -0.51879776, 0.11453804, 0.7610748, -0.043920577, -0.013018736, -0.03471756, 0
2, 2764233738, 0.37209, -0.51882637, 0.11454279, 0.7610819, -0.033307146, -0.044254895, -0.026508331, 0
3, 2764250405, 0.37208524, -0.5188702, 0.11454373, 0.7610542, -0.025344357, -0.05972244, -0.028511047, 0
4, 2764267072, 0.37210476, -0.5189159, 0.11451421, 0.7610179, -0.009131286, -0.05277912, -0.038704872, 0
5, 2764283739, 0.37220538, -0.51893103, 0.11451532, 0.76095814, 0.016487181, -0.06816899, -0.04168129, 0
6, 2764300406, 0.37223887, -0.5189365, 0.11450867, 0.76093906, 0.010972866, 3.1962353E-4, -0.04750538, 0
7, 2764317073, 0.37222224, -0.51894015, 0.11452909, 0.7609416, -0.008499639, -0.0019307049, -0.043016434, 0
8, 2764333740, 0.37216422, -0.51898324, 0.1145729, 0.760934, -0.024243305, -0.015646353, -0.028291702, 0
9, 2764350407, 0.372114, -0.5190234, 0.11461863, 0.76092434, -0.0113539, -0.058928072, -0.046053886, 0
10, 2764367074, 0.3720999, -0.5190288, 0.114670455, 0.7609197, 0.010579064, -0.06736848, -0.04689789, 0
11, 2764383741, 0.3721099, -0.519022, 0.114681035, 0.7609178, -0.008471085, -0.039328333, -0.040083885, 0
12, 2764400408, 0.37212083, -0.51898956, 0.11467818, 0.7609352, 0.015899092, -0.059953216, -0.06058979, 0
13, 2764417075, 0.37209326, -0.518961, 0.11465024, 0.76097226, -0.008615558, -0.01822737, -0.052149773, 0
14, 2764433742, 0.37211403, -0.5189518, 0.11466714, 0.76096576, -0.03316513, -0.029341217, -0.043891907, 0
15, 2764450409, 0.37209374, -0.51898474, 0.1146761, 0.76095206, -0.01830275, -0.034709215, -0.04609871, 0
16, 2764467076, 0.37204158, -0.51905835, 0.114721745, 0.76092046, -0.025301918, -0.020629799, -0.040042877, 0
17, 2764483743, 0.37201056, -0.51912564, 0.11477711, 0.76088125, -0.03422366, -0.06484513, -0.04818821, 0
18, 2764500410, 0.37197736, -0.51916754, 0.114800215, 0.76086533, 0.019410843, -0.063705325, -0.046082497, 0
19, 2764517077, 0.37195548, -0.5191781, 0.11482508, 0.76086515, -0.004064639, -0.034214806, -0.046502113, 0
20, 2764533744, 0.37189677, -0.5191744, 0.11485441, 0.76089203, -0.0077023683, -0.02976902, -0.05787468, 0
21, 2764550411, 0.37181664, -0.51918757, 0.11489902, 0.7609155, -0.02063832, -0.05540618, -0.052764893, 0
22, 2764567078, 0.37177074, -0.5192265, 0.11492747, 0.76090693, -0.05048613, -0.0413699, -0.04775715, 0
23, 2764583745, 0.3717328, -0.5192977, 0.11492696, 0.76087695, -0.047257848, -0.04182609, -0.033569336, 0
24, 2764600412, 0.37174118, -0.5193779, 0.11492686, 0.7608182, -0.0236344, -0.034418203, -0.04033661, 0
25, 2764617079, 0.37173572, -0.51946586, 0.11494888, 0.76075745, 0.008267689, -0.044991035, -0.051564217, 0
26, 2764633746, 0.3716863, -0.5195295, 0.114966184, 0.7607355, 0.004663486, -0.029038245, -0.036221504, 0
27, 2764650413, 0.3716302, -0.5195627, 0.11497687, 0.76073873, -0.0021456126, -0.039589398, -0.045168877, 0
28, 2764667080, 0.3715432, -0.519594, 0.11497114, 0.7607607, -0.03746591, -0.026351731, -0.04730034, 0
29, 2764683747, 0.37148333, -0.5196684, 0.11500593, 0.76073384, -0.055155147, -0.039474845, -0.021136284, 0
30, 2764700414, 0.37144056, -0.5197711, 0.115005404, 0.7606846, -0.047654975, -0.058511555, -0.028974533, 0
31, 2764717081, 0.37144703, -0.5198622, 0.114998505, 0.76062024, -0.021553354, -0.07567802, -0.04899788, 0
32, 2764733748, 0.37146962, -0.5199314, 0.11500124, 0.76056147, -0.0024530827, -0.028589096, -0.05201912, 0
33, 2764750415, 0.37146172, -0.51996493, 0.11501947, 0.7605396, 0.02239759, -0.029001141, -0.057326317, 0
34, 2764767082, 0.37141332, -0.5199903, 0.115046315, 0.76054186, 0.004948521, -0.0116251325, -0.044042587, 0
35, 2764783749, 0.3713432, -0.520041, 0.115104295, 0.7605328, -0.027913695, -0.020350184, -0.037563324, 0
36, 2764800416, 0.37125418, -0.5201164, 0.11517921, 0.7605133, -0.020958474, -0.05127756, -0.039474487, 0
37, 2764817083, 0.37119436, -0.5201981, 0.115242936, 0.7604769, -0.01955185, -0.035441108, -0.04875374, 0
38, 2764833750, 0.37114, -0.5202989, 0.115310125, 0.76042426, -0.01614328, -0.05179309, -0.05172348, 0
41, 2764883751, 0.37096035, -0.5205801, 0.1154976, 0.76029104, -0.015539096, -0.068344675, -0.049757004, 0
42, 2764900418, 0.3709422, -0.5206222, 0.11555504, 0.7602623, 0.0078784125, -0.051233638, -0.07288742, 0
43, 2764917085, 0.37092948, -0.52063537, 0.11561189, 0.76025087, -0.0042277477, -0.042379063, -0.043456078, 0
45, 2764950419, 0.3708765, -0.5205888, 0.115767784, 0.76028496, -0.013007448, -0.02952338, -0.046608925, 0
46, 2764967086, 0.37080804, -0.5205911, 0.11583178, 0.760307, -0.047854405, -0.016769283, -0.02706337, 0
47, 2764983753, 0.37070996, -0.5206585, 0.115865506, 0.7603036, -0.06386372, -0.021501165, -0.028431892, 0
49, 2765017087, 0.37058607, -0.5208955, 0.11597645, 0.7601846, -0.016762242, -0.05257997, -0.05055332, 0
50, 2765033754, 0.37054414, -0.5209987, 0.116047375, 0.76012355, -0.014335758, -0.050616857, -0.035800934, 0
53, 2765083755, 0.3703279, -0.5211522, 0.116341025, 0.7600789, -0.0087581035, -0.06543521, -0.05080986, 0
54, 2765100422, 0.37024504, -0.5211669, 0.11641964, 0.76009715, -0.016062787, -0.0710902, -0.04355049, 0
57, 2765150423, 0.3700753, -0.5212464, 0.11659786, 0.7600979, -0.03707021, -0.065465495, -0.028285027, 0
58, 2765167090, 0.3700505, -0.5212804, 0.11665163, 0.76007843, -0.021167515, -0.032959107, -0.043304443, 0
59, 2765183757, 0.3700207, -0.5213239, 0.11672086, 0.76005244, -0.010839233, -0.04448981, -0.03734398, 0
61, 2765217091, 0.36988494, -0.52136594, 0.11687261, 0.7600663, -0.027133914, -0.062259085, -0.047222137, 0
62, 2765233758, 0.36988217, -0.5213849, 0.1169373, 0.7600446, -0.01935505, -0.051792644, -0.06103134, 0
64, 2765267092, 0.3698191, -0.5214508, 0.11705711, 0.76001173, 0.007774507, -0.045684148, -0.0505476, 0
65, 2765283759, 0.36976427, -0.5214911, 0.11713928, 0.75999826, -0.018239273, -0.041652646, -0.04254341, 0
68, 2765333760, 0.3695922, -0.52167, 0.11740784, 0.75991774, -0.015048987, -0.059247136, -0.050980568, 0
69, 2765350427, 0.36953726, -0.5217417, 0.11750324, 0.7598804, -0.021813886, -0.04314739, -0.03775215, 0
70, 2765367094, 0.369469, -0.5218303, 0.11758853, 0.7598396, -0.04569569, -0.042848885, -0.034296036, 0
72, 2765400428, 0.36940512, -0.5220006, 0.11779205, 0.75972205, -0.011065233, -0.019593928, -0.05557251, 0
73, 2765417095, 0.36933735, -0.522124, 0.11789852, 0.7596537, -0.027976502, -0.029125191, -0.027003288, 0
74, 2765433762, 0.36929005, -0.5222486, 0.118028626, 0.7595709, 0.012184418, -0.04695616, -0.04753971, 0
76, 2765467096, 0.36915186, -0.5224445, 0.11820982, 0.7594751, -0.010623096, -0.036670428, -0.022034645, 0
77, 2765483763, 0.36907798, -0.52249503, 0.11829353, 0.7594633, -0.018157717, -0.05635477, -0.05152607, 0
78, 2765500430, 0.36905086, -0.52252865, 0.11838436, 0.7594392, -0.012355908, -0.061699074, -0.045230865, 0
80, 2765533764, 0.3690199, -0.52247167, 0.11856601, 0.7594652, 0.009971667, -0.051837124, -0.0626955, 0
82, 2765567098, 0.3689635, -0.52234346, 0.11872081, 0.7595566, -0.033488918, -0.037523802, -0.04148388, 0
84, 2765600432, 0.36887506, -0.5222914, 0.11877873, 0.75962615, -0.057824507, -0.032353166, -0.032874107, 0
86, 2765633766, 0.3688984, -0.5224358, 0.11875489, 0.7595192, -0.008113269, -0.07084187, -0.035910606, 0
88, 2765667100, 0.3690434, -0.5224123, 0.118647374, 0.7594817, 0.005121911, -0.06335061, -0.054424286, 0
89, 2765683767, 0.3691278, -0.5223143, 0.11858975, 0.75951713, -0.012623676, -0.05542082, -0.027709961, 0
90, 2765700434, 0.36919892, -0.5222096, 0.11852087, 0.75956535, -0.04751497, -0.026117824, -0.027309418, 0
92, 2765733768, 0.36923647, -0.5223166, 0.11835925, 0.7594987, -0.054633245, -0.021840904, -0.022011757, 0
93, 2765750435, 0.36927035, -0.522463, 0.11830079, 0.75939065, -0.03363803, -0.061231486, -0.036325455, 0
95, 2765783769, 0.36948043, -0.5226, 0.11812471, 0.75922155, 0.037919644, -0.064301215, -0.04953289, 0
97, 2765817103, 0.36968264, -0.5223409, 0.11793986, 0.75933015, 0.01578809, -0.027659953, -0.04562664, 0
99, 2765850437, 0.36978906, -0.52205986, 0.11781107, 0.7594916, -0.07101778, -0.012133066, -0.028698921, 0
100, 2765867104, 0.36983293, -0.5220439, 0.11776437, 0.7594885, -0.06392138, -0.04025379, -0.008603096, 0
103, 2765917105, 0.36998954, -0.52225107, 0.11758538, 0.7592974, -0.024672339, -0.03756627, -0.036014557, 0
104, 2765933772, 0.3699863, -0.52234256, 0.11754658, 0.75924206, -0.006609837, -0.03611522, -0.03160858, 0
105, 2765950439, 0.3699585, -0.52242535, 0.117544845, 0.759199, -0.015267248, -0.018235864, -0.047997475, 0
107, 2765983773, 0.36986855, -0.5225298, 0.117498025, 0.75917816, -0.026818678, -0.058856662, -0.023293495, 0
108, 2766000440, 0.36987653, -0.5225312, 0.11746227, 0.75917876, -0.01840294, -0.05973261, -0.04004574, 0
109, 2766017107, 0.36989006, -0.5225131, 0.1174378, 0.7591884, -0.026814096, -0.034276716, -0.039208412, 0
112, 2766067108, 0.36980084, -0.5225249, 0.117396116, 0.7592303, -0.006323908, -0.04696119, -0.048880577, 0
113, 2766083775, 0.3697744, -0.52255464, 0.11740442, 0.75922143, -0.059227806, -0.042762276, -0.034314156, 0
115, 2766117109, 0.36974192, -0.52269214, 0.11733703, 0.75915295, -0.009129442, -0.052507665, -0.04279518, 0
116, 2766133776, 0.3697401, -0.5227336, 0.1172914, 0.7591324, -0.012551733, -0.04380228, -0.055146217, 0
119, 2766183777, 0.3696895, -0.5227943, 0.117309876, 0.75911224, -0.018113574, -0.067497894, -0.03713894, 0
120, 2766200444, 0.36969608, -0.5228029, 0.11731531, 0.75910234, -0.045444123, -0.04154871, -0.036349297, 0
122, 2766233778, 0.36968842, -0.5228313, 0.117321335, 0.7590856, -0.026650287, -0.031857077, -0.060627937, 0
123, 2766250445, 0.36971796, -0.52286106, 0.11732261, 0.7590506, -0.046517685, -0.05205136, -0.036338806, 0
124, 2766267112, 0.36972478, -0.5229065, 0.11731423, 0.7590172, -0.026729468, -0.047165368, -0.05473137, 0
127, 2766317113, 0.36976382, -0.52295977, 0.11735806, 0.7589547, 0.010112257, -0.04141818, -0.05518627, 0
128, 2766333780, 0.36974755, -0.52292264, 0.117390595, 0.7589832, -0.00718759, -0.023426058, -0.03785515, 0
130, 2766367114, 0.36971813, -0.52286595, 0.11743803, 0.7590292, -0.046362706, -0.07644478, -0.026713371, 0
131, 2766383781, 0.36972836, -0.52284116, 0.11742537, 0.7590433, -0.027984884, -0.055492792, -0.030420303, 0
132, 2766400448, 0.369784, -0.52281564, 0.11744269, 0.759031, -0.022215735, -0.039087612, -0.030031204, 0
135, 2766450449, 0.3697872, -0.52287084, 0.11747937, 0.75898594, -0.02045708, -0.04111577, -0.037856102, 0
136, 2766467116, 0.36978662, -0.5229149, 0.117526695, 0.75894845, -0.011282012, -0.027142184, -0.055104256, 0
138, 2766500450, 0.3697898, -0.5228669, 0.11773218, 0.758948, -0.009068061, -0.07331147, -0.044730186, 0
139, 2766517117, 0.36980247, -0.5228384, 0.11780909, 0.7589495, -0.057788353, -0.046992145, -0.04448414, 0
142, 2766567118, 0.36988065, -0.52279675, 0.11796901, 0.7589155, -0.016950551, -0.06626354, -0.049835205, 0
143, 2766583785, 0.36991453, -0.5227753, 0.117978424, 0.75891227, -0.022151839, -0.05599033, -0.03128624, 0
145, 2766617119, 0.36999056, -0.5227646, 0.11791378, 0.7588926, -0.04340359, -0.06818307, -0.01205349, 0
146, 2766633786, 0.37006634, -0.52276444, 0.11786844, 0.75886285, -0.019048026, -0.05424458, -0.018125534, 0
147, 2766650453, 0.37019563, -0.5227089, 0.11784474, 0.7588415, 0.0052354, -0.062384814, -0.044779778, 0
149, 2766683787, 0.3703215, -0.522509, 0.11777986, 0.7589279, 0.012509769, -6.1790156E-4, -0.056933403, 0
150, 2766700454, 0.37028956, -0.52241886, 0.1178111, 0.7590007, -0.018345216, -0.02864285, -0.037091255, 0
151, 2766717121, 0.37030035, -0.52231795, 0.117811345, 0.75906485, -0.052264314, -0.08987322, -0.0552063, 0
153, 2766750455, 0.37042677, -0.52218395, 0.11768741, 0.7591145, -0.029938359, -0.09732916, -0.047582626, 0
154, 2766767122, 0.37055174, -0.5220445, 0.117619105, 0.75916004, 0.034551583, -0.06305703, -0.04741478, 0
157, 2766817123, 0.37067825, -0.52129996, 0.11768699, 0.7595994, -0.014686813, 0.0022387058, -0.02812481, 0
158, 2766833790, 0.37063438, -0.52111655, 0.11775479, 0.7597362, -0.09488793, -0.04397863, -0.023822784, 0
159, 2766850457, 0.37061322, -0.52104956, 0.11780461, 0.7597846, -0.088637665, -0.013380491, -0.03045845, 0
161, 2766883791, 0.37066594, -0.5211221, 0.1178744, 0.75969833, -0.005189133, -0.07030701, -0.041347504, 0
162, 2766900458, 0.37071407, -0.5211276, 0.11792355, 0.7596635, 0.039671957, -0.027209572, -0.04405594, 0
165, 2766950459, 0.37071824, -0.52090645, 0.11813074, 0.7597809, 0.002543801, -0.05675821, -0.043744087, 0
166, 2766967126, 0.37071648, -0.5208171, 0.11819489, 0.75983304, -0.02622782, -0.056121867, -0.032464027, 0
167, 2766983793, 0.37072188, -0.5207604, 0.11822062, 0.75986534, -0.030448752, -0.038093872, -0.040765762, 0
169, 2767017127, 0.37074935, -0.52064306, 0.118241414, 0.759929, -0.024902165, -0.043526355, -0.024690628, 0
173, 2767083795, 0.3709874, -0.52074397, 0.1181507, 0.7597579, -0.117131576, -0.07336086, -0.026281357, 0
174, 2767100462, 0.37116444, -0.52096117, 0.11798804, 0.75954765, -0.045783836, -0.045269866, -0.017812729, 0
176, 2767133796, 0.37151825, -0.52128667, 0.11765647, 0.7592027, 0.010065962, -0.059537034, -0.058299065, 0
177, 2767150463, 0.3716321, -0.5213403, 0.11752566, 0.75913054, 0.01405578, -0.02104162, -0.057691574, 0
178, 2767167130, 0.3716904, -0.52130646, 0.11749025, 0.7591306, 0.028628377, -0.011283046, -0.052350998, 0
180, 2767200464, 0.3717399, -0.52109283, 0.11763855, 0.75923, -0.05123766, -0.08097897, -0.040102005, 0
182, 2767233798, 0.3719453, -0.5210413, 0.117449656, 0.759194, -0.083137795, -0.08009832, -0.02332306, 0
184, 2767267132, 0.37229168, -0.521081, 0.11712431, 0.7590473, -0.0069079474, 0.008633747, -0.051772118, 0
186, 2767300466, 0.37234277, -0.5211666, 0.11715196, 0.7589591, -0.003171984, -0.01605326, -0.061203003, 0
188, 2767333800, 0.37223038, -0.5212488, 0.11726928, 0.75893974, -0.026509, -0.058658294, -0.041028023, 0
189, 2767350467, 0.37218598, -0.52121997, 0.11733879, 0.7589706, 0.002434503, -0.06839128, -0.049194336, 0
190, 2767367134, 0.37216952, -0.5211543, 0.11741597, 0.7590119, -0.036231507, -0.046409223, -0.045238495, 0
192, 2767400468, 0.3722061, -0.52107966, 0.11744205, 0.75904113, -0.04123571, -0.057995576, -0.010268211, 0
193, 2767417135, 0.3722621, -0.52106416, 0.11738883, 0.7590325, -0.021884767, -0.07602525, -0.046696663, 0
194, 2767433802, 0.3723363, -0.52106524, 0.11730075, 0.759009, -0.022490712, -0.04088108, -0.022981644, 0
196, 2767467136, 0.37245205, -0.5209731, 0.117178306, 0.75903434, 0.0475352, -0.04654054, -0.058805466, 0
198, 2767500470, 0.37248737, -0.5206944, 0.117133476, 0.7592152, -0.056058586, -0.06701879, -0.04758072, 0
201, 2767550471, 0.37260595, -0.5204765, 0.11706356, 0.7593171, -0.018534113, -0.03896289, -0.014726639, 0
203, 2767583805, 0.3726793, -0.5202444, 0.11707255, 0.7594388, 8.454098E-4, -0.040413935, -0.018125534, 0
204, 2767600472, 0.37271655, -0.52007425, 0.11710128, 0.7595327, -0.003292793, -0.06918598, -0.062412262, 0
205, 2767617139, 0.37270626, -0.5199448, 0.117088296, 0.75962836, -0.0717794, -0.029496, -0.0471735, 0
207, 2767650473, 0.37273213, -0.5198312, 0.1172502, 0.75966847, -0.070497856, -0.0674428, -0.02644062, 0
208, 2767667140, 0.37277657, -0.5198242, 0.11731302, 0.75964165, -0.04703087, -0.06645219, -0.03093052, 0
209, 2767683807, 0.37288204, -0.51979285, 0.11733749, 0.75960755, -0.006304686, -0.09512074, -0.05352688, 0
211, 2767717141, 0.37310064, -0.5197366, 0.11736037, 0.7595352, -0.021442184, -0.037272684, -0.05403328, 0
212, 2767733808, 0.37313986, -0.51973796, 0.11731767, 0.7595216, -0.02910108, -0.056573365, -0.033633232, 0
216, 2767800476, 0.3734835, -0.5197699, 0.116890386, 0.7593967, -0.027687835, -0.065025955, -0.06688595, 0
217, 2767817143, 0.37363136, -0.51974696, 0.11674185, 0.75936264, -0.017873297, -0.012677878, -0.05723381, 0
219, 2767850477, 0.3738162, -0.51979065, 0.11648509, 0.7592809, 0.00674699, -0.022081962, -0.05417061, 0
220, 2767867144, 0.37384, -0.5198558, 0.11636715, 0.7592429, -0.021686513, -0.07405733, -0.039565086, 0
221, 2767883811, 0.37390018, -0.51988685, 0.11620497, 0.75921667, -0.04146805, -0.09467204, -0.023338318, 0
223, 2767917145, 0.37417796, -0.5198516, 0.11588676, 0.7591527, -0.003097219, -0.00312147, -0.060354233, 0
224, 2767933812, 0.37421966, -0.51983654, 0.11582155, 0.7591525, 0.010121952, 0.017058956, -0.07092285, 0
226, 2767967146, 0.3741314, -0.5200119, 0.11583733, 0.75907344, -0.086635016, -0.08076898, -0.037369728, 0
227, 2767983813, 0.3741532, -0.52025187, 0.115768544, 0.7589087, -0.09930784, -0.0800905, -0.0166893, 0
228, 2768000480, 0.37424618, -0.5205253, 0.11563941, 0.75869495, -0.02415429, -0.091695406, -0.017048836, 0
231, 2768050481, 0.37436396, -0.5209311, 0.11546879, 0.7583842, -0.014721457, -0.031400442, -0.06561375, 0
232, 2768067148, 0.37428236, -0.52100843, 0.115554966, 0.7583584, -0.033775155, -0.023462268, -0.04778385, 0
234, 2768100482, 0.37404948, -0.5214099, 0.11579635, 0.7581606, -0.041284297, -0.028939229, -0.05159664, 0
235, 2768117149, 0.37393093, -0.5217468, 0.11591019, 0.75796986, -0.058912873, -0.05694853, -0.029580116, 0
236, 2768133816, 0.37385917, -0.52206826, 0.116060175, 0.7577608, -0.035119556, -0.0539263, -0.054047585, 0
238, 2768167150, 0.37382522, -0.52248967, 0.11623478, 0.7574603, -0.016672613, -0.08812624, -0.046923637, 0
239, 2768183817, 0.37385595, -0.52263373, 0.11626857, 0.75734067, -0.024570668, -0.058974676, -0.045531273, 0
240, 2768200484, 0.3738627, -0.5227997, 0.11630674, 0.75721693, -0.03365918, -6.8126747E-4, -0.07073021, 0
242, 2768233818, 0.37360135, -0.5234921, 0.11655957, 0.75682855, -0.028632373, -0.01645726, -0.032414436, 0
246, 2768300486, 0.3728894, -0.52500695, 0.1173891, 0.7560015, -0.0021420084, -0.02824779, -0.076104164, 0
247, 2768317153, 0.3726246, -0.52525896, 0.11772481, 0.7559049, -0.0145172225, 0.011437605, -0.06250858, 0
248, 2768333820, 0.3723112, -0.52552646, 0.118028566, 0.7558261, -0.044248022, -0.12361328, -0.0330925, 0
250, 2768367154, 0.3716263, -0.5258907, 0.11880844, 0.7557876, 0.06555702, 0.05176091, -0.07616234, 0
251, 2768383821, 0.37104282, -0.5260071, 0.11955793, 0.7558752, 0.119330384, 0.024599724, -0.05846405, 0
252, 2768400488, 0.37034696, -0.52605873, 0.12031477, 0.75606024, -0.016418926, -0.10304048, -0.04257393, 0
254, 2768433822, 0.3693734, -0.52631783, 0.121289484, 0.75620043, -0.19175735, -0.12486249, -0.006295204, 0
255, 2768450489, 0.36917493, -0.5266303, 0.12151173, 0.7560442, -0.16709483, -0.11829557, 0.0025377274, 0
257, 2768483823, 0.3688431, -0.527505, 0.121961005, 0.75552386, -0.0010042158, -0.049568914, -0.046468735, 0
258, 2768500490, 0.36863658, -0.52784944, 0.1222043, 0.75534475, 0.08009888, -0.07005622, -0.05402279, 0
262, 2768567158, 0.36873445, -0.5281564, 0.12187136, 0.7551363, -0.3793513, -0.24881083, 0.052767754, 0
263, 2768583825, 0.36948833, -0.52887493, 0.12081543, 0.7544341, -0.2375132, -0.14364049, 0.030348778, 0
265, 2768617159, 0.37109536, -0.5310166, 0.11826272, 0.7525432, -0.09226573, 0.03600928, -0.016693115, 0
266, 2768633826, 0.37179217, -0.5321789, 0.1171662, 0.7515489, 0.09319281, 0.048013378, -0.059048653, 0
267, 2768650493, 0.3722158, -0.53320557, 0.11633642, 0.75073993, 0.102034084, 0.0025069213, -0.085243225, 0
269, 2768683827, 0.37253767, -0.5346234, 0.11540529, 0.74971503, 0.092562, 0.054681774, -0.08984852, 0
270, 2768700494, 0.3724625, -0.53522193, 0.11529995, 0.74934137, -0.063061945, -0.0065534, -0.011644363, 0
271, 2768717161, 0.37241971, -0.53591275, 0.115130164, 0.74889505, -0.10886484, -0.1045464, 0.0011663437, 0
273, 2768750495, 0.3728075, -0.5370581, 0.114408806, 0.7479913, 0.028422493, -0.16769215, -0.051721573, 0
275, 2768783829, 0.37373832, -0.5374123, 0.11311894, 0.7474685, -0.017959071, -0.08315665, -0.057832718, 0
278, 2768833830, 0.37434646, -0.53714, 0.11219457, 0.7474993, 0.14026405, 0.05948708, -0.06435776, 0
279, 2768850497, 0.37411717, -0.5367967, 0.11230892, 0.7478435, 0.0321705, -0.0015221232, -0.05090809, 0
282, 2768900498, 0.3740722, -0.53624916, 0.11214594, 0.748283, -0.10787375, -0.115519986, -0.0010051727, 0
284, 2768933832, 0.37462893, -0.5362251, 0.111425124, 0.7481294, -0.094762065, 0.07877491, 0.0045433044, 0
285, 2768950499, 0.3746498, -0.5366161, 0.111160055, 0.7478781, -0.10761062, 0.10245811, -0.02031231, 0
288, 2769000500, 0.3743241, -0.5374792, 0.11080377, 0.7474741, 0.19568096, -0.25988612, -0.100990295, 0
290, 2769033834, 0.3747746, -0.53618556, 0.11041036, 0.74823534, -0.09207938, 0.036814597, -0.02998066, 0
292, 2769067168, 0.3745827, -0.53635365, 0.110259436, 0.74823314, -0.25960982, 0.20271686, 0.033590317, 0
293, 2769083835, 0.3742081, -0.5372171, 0.11033811, 0.74778956, -0.12954049, 8.301271E-4, -0.009114265, 0
294, 2769100502, 0.3739382, -0.5379984, 0.11042896, 0.74734926, 0.040727217, -0.15154894, -0.049738884, 0
297, 2769150503, 0.3733392, -0.5394423, 0.11079103, 0.7465539, -0.08344099, 0.07921031, -0.06957531, 0
298, 2769167170, 0.3729436, -0.54008365, 0.1111707, 0.7462314, -0.04823644, 0.014815556, -0.042129517, 0
300, 2769200504, 0.37195227, -0.540991, 0.11237984, 0.74588776, 0.15628769, -0.07003443, -0.05202675, 0
301, 2769217171, 0.37139133, -0.5410139, 0.11318609, 0.7460287, 0.17484729, -0.114412926, -0.0733881, 0
305, 2769283839, 0.36968762, -0.53952754, 0.11637101, 0.74745995, -0.13495804, -0.073529504, 0.023869514, 0
307, 2769317173, 0.3692141, -0.53919154, 0.11741622, 0.747773, -0.073152155, -0.088141665, 0.01701641, 0
308, 2769333840, 0.36902326, -0.5391857, 0.117642246, 0.7478359, -0.08027222, -0.054936804, -0.01849556, 0
309, 2769350507, 0.3688438, -0.53931004, 0.11777109, 0.7478145, -0.11381087, -0.07485426, -0.017050743, 0
311, 2769383841, 0.36873132, -0.53955775, 0.117663994, 0.74770784, -0.0028461302, -0.05700564, -0.057387352, 0
312, 2769400508, 0.36880264, -0.53954923, 0.11747627, 0.74770844, 0.01646444, -0.13135946, -0.046582222, 0
313, 2769417175, 0.36890298, -0.53942794, 0.117229365, 0.7477852, 0.0062170965, -0.0606261, -0.033415794, 0
315, 2769450509, 0.36904302, -0.53954554, 0.116678104, 0.7477176, -0.14227533, -0.014456147, 0.0047683716, 0
316, 2769467176, 0.3690544, -0.5398197, 0.11651929, 0.74753875, -0.03174644, 0.026352402, -0.051686287, 0
317, 2769483843, 0.36895326, -0.5401474, 0.11653803, 0.74734914, -0.011692074, 0.03696502, -0.04063511, 0
320, 2769533844, 0.36856654, -0.5404492, 0.11687506, 0.7472691, -0.039728757, -0.10901934, -0.039155006, 0
321, 2769550511, 0.3685751, -0.5404799, 0.116812795, 0.7472523, -0.14485003, -0.10483942, 0.01738453, 0
323, 2769583845, 0.3686827, -0.5408811, 0.11659389, 0.7469432, -0.0074700266, 0.018625557, -0.0071058273, 0
324, 2769600512, 0.36859232, -0.5411539, 0.116579905, 0.7467923, 0.0077796755, -0.012037514, -0.04658699, 0
325, 2769617179, 0.36850336, -0.5414262, 0.11660305, 0.7466353, -0.05738642, -0.068406366, -0.053012848, 0
328, 2769667180, 0.3691562, -0.5423415, 0.11598599, 0.74574405, 0.06840784, -0.22693785, -0.056342125, 0
329, 2769683847, 0.36971602, -0.5420522, 0.11563931, 0.7457308, 0.2095505, -0.09126995, -0.092204094, 0
331, 2769717181, 0.37024638, -0.54126257, 0.11524501, 0.7461023, -0.087965146, 0.06565872, -0.022312164, 0
332, 2769733848, 0.37032285, -0.5412487, 0.114929296, 0.74612314, -0.1736851, -0.05168603, 0.011803627, 0
335, 2769783849, 0.37139496, -0.54246306, 0.112792745, 0.74503344, -0.068187095, -0.14976597, -0.037255287, 0
336, 2769800516, 0.37192792, -0.5428173, 0.11189973, 0.74464434, 0.08293571, -0.08255317, -0.086071014, 0
338, 2769833850, 0.37271613, -0.54260314, 0.11035184, 0.74463725, 0.14516929, -0.055492457, -0.10691929, 0
339, 2769850517, 0.3728878, -0.54221433, 0.109810576, 0.74491435, 0.049188748, 0.08867787, -0.08078194, 0
340, 2769867184, 0.37286717, -0.5419922, 0.10948826, 0.7451338, -0.10649191, 0.058602415, -0.0028486252, 0
342, 2769900518, 0.37270033, -0.5421758, 0.10928414, 0.74511355, -0.1279728, 0.011978953, 9.279251E-4, 0
344, 2769933852, 0.37236035, -0.54304963, 0.10958857, 0.7446024, -0.036252543, 0.022383258, -0.08103657, 0
346, 2769967186, 0.37185553, -0.5440498, 0.11044308, 0.7439981, 0.023222158, -0.118705496, -0.06898308, 0
347, 2769983853, 0.37173668, -0.5441804, 0.11081117, 0.74390715, 0.11029155, -0.2679708, -0.062465668, 0
350, 2770033854, 0.37172776, -0.5425694, 0.1116438, 0.7449631, -0.105277926, 0.03577839, -0.007481575, 0
351, 2770050521, 0.3715454, -0.5422685, 0.111849055, 0.7452423, -0.17155704, -0.009882849, 0.027276993, 0
352, 2770067188, 0.3713626, -0.5422732, 0.11193104, 0.74531764, -0.23254804, -0.045183145, 0.027287483, 0
354, 2770100522, 0.3712015, -0.54281324, 0.111751854, 0.74503154, -0.066136196, -0.09566042, -0.056471825, 0
356, 2770133856, 0.37131557, -0.5431531, 0.1114599, 0.74477077, 0.013143316, -0.07063077, -0.05020809, 0
358, 2770167190, 0.3714463, -0.54354495, 0.11112476, 0.7444698, -0.06949574, -0.036314595, -0.020578384, 0
359, 2770183857, 0.3714988, -0.5437965, 0.11102021, 0.7442756, -0.029660001, -0.046165485, -0.039809227, 0
362, 2770233858, 0.37103805, -0.544132, 0.11169478, 0.7441592, 0.09362913, -0.018609243, -0.0721302, 0
365, 2770283859, 0.37057194, -0.5442235, 0.11232808, 0.7442292, -0.28715098, -0.17833585, 0.03753662, 0
367, 2770317193, 0.37116852, -0.544902, 0.11189806, 0.74349993, 0.097049266, -0.04899292, -0.0891037, 0
369, 2770350527, 0.37120873, -0.5447297, 0.11209472, 0.74357647, 0.15888086, 0.040012844, -0.09337044, 0
370, 2770367194, 0.3709223, -0.5444453, 0.112405404, 0.7438808, -0.0123569975, -0.0033768336, -0.03613186, 0
371, 2770383861, 0.37056467, -0.5443249, 0.11268799, 0.74410427, -0.1740742, -0.065995105, 0.01666069, 0
373, 2770417195, 0.3703613, -0.5446156, 0.112746514, 0.743984, -0.12617737, -0.15310012, 8.382797E-4, 0
374, 2770433862, 0.3704894, -0.54469585, 0.11259875, 0.7438837, 0.055022884, -0.096124426, -0.048810005, 0
375, 2770450529, 0.37063807, -0.54449904, 0.11246863, 0.74397343, 0.112907656, -0.06787798, -0.0844841, 0
377, 2770483863, 0.37061578, -0.5439749, 0.11253726, 0.7443575, -0.062227767, 0.029029192, -0.02865982, 0
382, 2770567198, 0.3700387, -0.5449309, 0.11345374, 0.7438061, 0.064524755, -0.048724484, -0.06752205, 0
383, 2770583865, 0.37001583, -0.54489195, 0.11370065, 0.74380815, 0.011971018, -0.120850995, -0.04567814, 0
385, 2770617199, 0.37007055, -0.5444678, 0.1140073, 0.7440448, -0.047242787, -0.035256933, -0.0071439743, 0
386, 2770633866, 0.37005037, -0.54440194, 0.114130616, 0.744084, -0.1466554, 0.008675655, 0.013329506, 0
388, 2770667200, 0.36992127, -0.5447752, 0.11421736, 0.74386156, -0.07508342, -0.08016158, -0.016962051, 0
389, 2770683867, 0.36993158, -0.54495996, 0.11418959, 0.7437254, -0.026136097, -0.1318324, -0.05397606, 0
392, 2770733868, 0.37028867, -0.5445311, 0.113774836, 0.7439254, 0.028551433, -0.08783389, -0.04526615, 0
394, 2770767202, 0.37042388, -0.54385024, 0.11355754, 0.7443892, -0.12173083, -0.028744437, -0.014650345, 0
396, 2770800536, 0.37048644, -0.54394233, 0.113531016, 0.7442948, -0.17833643, 0.0032353501, 0.013380051, 0
397, 2770817203, 0.3705038, -0.54426634, 0.11361625, 0.74403614, -0.08465844, -0.005316032, -0.013315201, 0
398, 2770833870, 0.37047088, -0.54458296, 0.11374205, 0.7438017, 0.013799131, -0.08736071, -0.044205666, 0
400, 2770867204, 0.3703313, -0.5444902, 0.114095084, 0.743885, 0.10653795, -0.07052124, -0.07014656, 0
401, 2770883871, 0.37026283, -0.5440675, 0.11432835, 0.7441925, 0.046739437, -0.11627546, -0.042860985, 0
402, 2770900538, 0.37027308, -0.543481, 0.11455359, 0.74458116, -0.04186845, -0.111844316, -0.01564312, 0
404, 2770933872, 0.3703929, -0.54234254, 0.11490156, 0.7452979, -0.075750805, -0.06544951, -0.036891937, 0
405, 2770950539, 0.3704364, -0.5418409, 0.11508852, 0.74561226, -0.053546023, -0.0342062, -0.019190788, 0
406, 2770967206, 0.37041387, -0.5414053, 0.1154017, 0.7458914, -0.06875219, 0.029078588, -0.03415203, 0
409, 2771017207, 0.37002695, -0.53995186, 0.11714454, 0.7468647, 0.0599103, -0.12705728, -0.06723595, 0
410, 2771033874, 0.37006265, -0.5392422, 0.11747992, 0.74730664, -0.06784753, -0.19201472, -0.035495758, 0
413, 2771083875, 0.3705163, -0.53720677, 0.11756645, 0.74853337, -0.10079378, -0.058990434, -0.056752205, 0
414, 2771100542, 0.37066048, -0.53658056, 0.11764593, 0.74889845, 0.010935148, -0.048491135, -0.036610603, 0
416, 2771133876, 0.37082425, -0.5350727, 0.11799033, 0.7498414, -0.016679933, -0.029603845, -0.019012451, 0
417, 2771150543, 0.3708489, -0.53441143, 0.118164, 0.75027335, -0.14175141, -0.031144518, -0.04089737, 0
419, 2771183877, 0.37112242, -0.5332502, 0.118299626, 0.75094295, -0.047882006, -0.18921992, -0.027342796, 0
420, 2771200544, 0.37144646, -0.5324434, 0.11814108, 0.75138015, 0.014187736, -0.15573399, -0.015315056, 0
421, 2771217211, 0.37170702, -0.53149104, 0.11782987, 0.75197405, 0.092693284, -0.03489082, 0.009815216, 0
424, 2771267212, 0.37170237, -0.5279172, 0.1182806, 0.7544189, 0.11859653, -0.07472642, -0.035715103, 0
425, 2771283879, 0.37183663, -0.5256837, 0.11917695, 0.75577015, 0.3419669, -0.20388047, 0.16953564, 0
427, 2771317213, 0.37389526, -0.51632625, 0.1209062, 0.7609131, 0.8057315, -0.4860173, 0.027935982, 0
429, 2771350547, 0.37704852, -0.5008998, 0.12279495, 0.76931965, 0.4722999, -0.45861685, -0.047279358, 0
431, 2771383881, 0.3796354, -0.48506826, 0.11915391, 0.77870756, -0.5134513, -0.08572627, -0.16060734, 0
432, 2771400548, 0.38113773, -0.4779859, 0.116678506, 0.7827179, -0.47547865, -0.08818346, -0.10568142, 0
433, 2771417215, 0.382633, -0.47119895, 0.11448274, 0.78641903, -0.21564095, 0.094485074, -0.14494228, 0
435, 2771450549, 0.38492188, -0.45887592, 0.11037269, 0.79314786, -0.13581407, 0.3242196, -0.051689148, 0
436, 2771467216, 0.38583198, -0.45292836, 0.10897681, 0.79631096, -0.09639236, 0.060662534, -0.07580662, 0
439, 2771517217, 0.38783228, -0.43775713, 0.10458577, 0.804372, -0.12041096, -0.19163151, -0.0033845901, 0
440, 2771533884, 0.3887821, -0.43291488, 0.1024785, 0.8068016, -0.078545526, -0.06476422, -0.20013332, 0
441, 2771550551, 0.38956526, -0.42800042, 0.100806355, 0.8092528, 0.033607043, 0.4361405, -0.1271677, 0
443, 2771583885, 0.39068177, -0.41714793, 0.09839354, 0.81466043, 0.17946908, -0.1268759, -0.07744312, 0
446, 2771633886, 0.39291525, -0.39678967, 0.09505433, 0.824098, 0.022783207, -0.4403677, 0.017917633, 0
447, 2771650553, 0.3942727, -0.38828254, 0.09373879, 0.82764494, 0.3835166, -0.6775602, 0.040706635, 0
448, 2771667220, 0.39591035, -0.37820336, 0.092290506, 0.8316834, 0.30520937, 0.012156869, -0.23527718, 0
450, 2771700554, 0.3979622, -0.36359084, 0.08987093, 0.83746547, 0.034550298, -0.023148902, 0.3027296, 0
451, 2771717221, 0.3986975, -0.36054868, 0.08879935, 0.83854467, -0.86295885, 0.032673236, 0.25251293, 0
454, 2771767222, 0.39984167, -0.35875466, 0.0873875, 0.8389174, 0.067542545, 0.21491654, -0.13636112, 0
455, 2771783889, 0.3998845, -0.3583927, 0.08746451, 0.8390438, -0.10879194, -0.04201362, -0.1021719, 0
456, 2771800556, 0.39993045, -0.35816425, 0.08749917, 0.8391158, -0.08962104, 0.07554403, -0.18051529, 0
458, 2771833890, 0.400134, -0.35781854, 0.08741372, 0.8391752, -0.006322986, -0.0020745355, -0.14102077, 0
459, 2771850557, 0.4002145, -0.3575675, 0.08733472, 0.83925205, -0.07452919, -0.08137023, -0.108366966, 0
462, 2771900558, 0.40048087, -0.3569235, 0.08682552, 0.83945185, -0.09100523, -0.0010519638, -0.060498238, 0
463, 2771917225, 0.40054137, -0.35691684, 0.086457625, 0.83946395, -0.040147845, -0.110605165, 0.060759544, 0
464, 2771933892, 0.40064675, -0.35690895, 0.08594052, 0.8394699, -0.07995279, -0.07556504, -0.065114975, 0
466, 2771967226, 0.4008466, -0.35701415, 0.0848793, 0.8394377, -0.120994434, -0.046788525, -0.10378647, 0
469, 2772017227, 0.40114346, -0.35732457, 0.08377519, 0.839275, -0.03932062, -0.018103879, -0.10799122, 0
470, 2772033894, 0.40120846, -0.35739875, 0.08352217, 0.83923745, -0.08018088, -0.056719095, -0.0635643, 0
471, 2772050561, 0.40129244, -0.3573956, 0.08323892, 0.8392269, -0.08871883, -0.12910098, -0.037944794, 0
473, 2772083895, 0.40155873, -0.3570683, 0.08271762, 0.8392904, -0.112934254, -0.21596918, -0.03420067, 0
474, 2772100562, 0.4017832, -0.35676318, 0.082405895, 0.83934325, -0.05068877, -0.072582595, -0.09058666, 0
475, 2772117229, 0.4020303, -0.35637227, 0.08209854, 0.83942103, -0.08307859, -0.017661547, -0.112706184, 0
477, 2772150563, 0.40242562, -0.35560492, 0.08177751, 0.83958846, -0.067926005, -0.045672525, -0.14755917, 0
478, 2772167230, 0.4026008, -0.3552252, 0.08175316, 0.8396677, -0.11898201, -0.037092198, -0.06772518, 0
479, 2772183897, 0.40279183, -0.3548336, 0.08168177, 0.83974844, -0.05291767, -0.041219924, -0.08833027, 0
481, 2772217231, 0.40310243, -0.35407037, 0.0816221, 0.8399274, -0.027511623, 0.035969492, -0.16866112, 0
483, 2772250565, 0.40315634, -0.35355908, 0.0817951, 0.84009993, -0.11083569, 0.010874464, -0.1259861, 0
485, 2772283899, 0.40314817, -0.3533, 0.08198744, 0.84019417, -0.053155433, -0.10482903, -0.050787926, 0
486, 2772300566, 0.40317428, -0.35317075, 0.08197289, 0.84023744, -0.083331384, -0.02717057, -0.13345528, 0
487, 2772317233, 0.40317386, -0.35306698, 0.08198538, 0.8402798, -0.091630004, 0.02287834, -0.1743908, 0
489, 2772350567, 0.4029073, -0.35316128, 0.08238255, 0.84032923, -0.07367711, -0.0263657, -0.14112663, 0
491, 2772383901, 0.402511, -0.3531954, 0.0832497, 0.8404195, -0.11668779, 0.04714972, -0.14189816, 0
493, 2772417235, 0.40201622, -0.35347044, 0.08429957, 0.840436, -0.116158314, -0.04565576, -0.03467655, 0
494, 2772433902, 0.40182623, -0.35363492, 0.08471715, 0.84041554, -0.060132835, -0.083442636, -0.04559517, 0
495, 2772450569, 0.40164113, -0.3537871, 0.08508483, 0.8404029, -0.060058657, -0.053275876, -0.08040428, 0
498, 2772500570, 0.40127212, -0.35397115, 0.0858186, 0.8404271, -0.0645202, -0.10187944, -0.06213188, 0
500, 2772533904, 0.40120918, -0.35383812, 0.08605306, 0.84048915, -0.04805031, -0.058106888, -0.09334469, 0
501, 2772550571, 0.40119803, -0.353714, 0.08616193, 0.84053564, -0.08011652, -0.03105176, -0.0889616, 0
502, 2772567238, 0.40118873, -0.3535667, 0.08629113, 0.8405888, -0.1148585, -0.0662964, -0.096069336, 0
504, 2772600572, 0.4011854, -0.35329393, 0.08640906, 0.8406929, -0.089047395, 0.005847993, -0.10022831, 0
505, 2772617239, 0.40115944, -0.35324728, 0.086481, 0.8407175, -0.09384786, -0.011665812, -0.08591843, 0
508, 2772667240, 0.40109855, -0.35322988, 0.08660537, 0.84074104, -0.091485694, -0.048643235, -0.115348816, 0
509, 2772683907, 0.40110305, -0.35327634, 0.08660032, 0.84072, -0.067649856, -0.07993919, -0.1057539, 0
510, 2772700574, 0.40105778, -0.35335067, 0.08665369, 0.8407048, -0.07222832, 0.010836914, -0.14871311, 0
513, 2772750575, 0.400724, -0.35371637, 0.087256774, 0.8406479, -0.13320592, -0.0906706, -0.085128784, 0
514, 2772767242, 0.40059358, -0.35379347, 0.087538555, 0.8406483, -0.08229571, 0.08770067, -0.16445827, 0
516, 2772800576, 0.4001481, -0.35403818, 0.08839814, 0.8406674, -0.07657361, -0.075699925, -0.03280258, 0
517, 2772817243, 0.399953, -0.3541955, 0.08874047, 0.8406579, -0.079976454, -0.12612982, -0.0669508, 0
518, 2772833910, 0.3998102, -0.3542893, 0.08897978, 0.8406611, -0.094732024, -0.079154655, -0.0919466, 0
520, 2772867244, 0.39958957, -0.35441104, 0.08931709, 0.84067875, -0.114325784, 0.030445818, -0.11211681, 0
521, 2772883911, 0.39946252, -0.35452843, 0.08950897, 0.84066933, -0.0483955, -0.05576067, -0.09516716, 0
524, 2772933912, 0.39911488, -0.35475823, 0.09006061, 0.8406785, -0.053387746, -0.06864217, -0.068603516, 0
525, 2772950579, 0.39902964, -0.354805, 0.09023037, 0.8406811, -0.03271042, -0.02572243, -0.063056946, 0
528, 2773000580, 0.39882863, -0.35436445, 0.090736836, 0.84090775, -0.07550161, -0.07428688, -0.072672844, 0
529, 2773017247, 0.39878628, -0.35406634, 0.090823464, 0.84104407, -0.064315096, -0.06506328, -0.07901001, 0
531, 2773050581, 0.39886248, -0.35345086, 0.09077503, 0.841272, -0.073065266, -0.124310754, -0.057991028, 0
532, 2773067248, 0.39897674, -0.35303193, 0.09065085, 0.8414071, -0.07611264, -0.122595966, -0.057855606, 0
533, 2773083915, 0.39913908, -0.35253513, 0.09052766, 0.84155166, -0.044280544, -0.07006572, -0.053199768, 0
535, 2773117249, 0.39940125, -0.35181537, 0.09035421, 0.8417471, -0.08875093, 0.011624909, -0.12761402, 0
536, 2773133916, 0.39950097, -0.35163897, 0.09028339, 0.8417811, -0.061779007, 0.012719116, -0.10593319, 0
537, 2773150583, 0.3996005, -0.35157454, 0.090179, 0.841772, -0.08207851, 0.0064277854, -0.1286459, 0
540, 2773200584, 0.40000668, -0.35137635, 0.08960842, 0.8417228, -0.075529635, 0.020627787, -0.15411854, 0
543, 2773250585, 0.400002, -0.35170758, 0.08945243, 0.8416031, -0.064615026, -0.020510666, -0.093361855, 0
544, 2773267252, 0.39996, -0.35196438, 0.08941571, 0.8415197, -0.12957563, -0.10279976, -0.07641029, 0
545, 2773283919, 0.39991906, -0.35226804, 0.08929086, 0.8414255, -0.10942261, -0.08713742, -0.0878706, 0
547, 2773317253, 0.39991152, -0.35287488, 0.08885198, 0.8412211, -0.08448924, -0.047268186, -0.10014725, 0
548, 2773333920, 0.39988565, -0.35319442, 0.088619575, 0.8411239, -0.12368852, -0.046008017, -0.11227131, 0
550, 2773367254, 0.3998063, -0.3537505, 0.088493876, 0.840941, -0.07897003, -0.092338905, -0.09462929, 0
551, 2773383921, 0.39974543, -0.35402235, 0.08845171, 0.84086, -0.07052686, 0.007630509, -0.085066795, 0
552, 2773400588, 0.39966825, -0.3543397, 0.088377364, 0.8407709, -0.066279165, -0.011426876, -0.1025095, 0
554, 2773433922, 0.39944592, -0.35528448, 0.08813306, 0.8405033, -0.04243282, 0.011489572, -0.078933716, 0
555, 2773450589, 0.3993195, -0.3558231, 0.08803585, 0.8403456, -0.08016281, -0.04845593, -0.11289024, 0
558, 2773500590, 0.39913005, -0.356723, 0.08818416, 0.8400388, -0.052389957, 0.04395371, -0.07007599, 0
559, 2773517257, 0.39897317, -0.3572913, 0.08838308, 0.8398507, -0.053599663, 0.016791075, -0.047204018, 0
560, 2773533924, 0.3987455, -0.35807213, 0.08867866, 0.83959496, -0.0646134, 0.07026555, -0.05696106, 0
562, 2773567258, 0.39803654, -0.36028618, 0.089911066, 0.838853, -0.14339113, 0.04512246, -0.051532745, 0
563, 2773583925, 0.39757708, -0.36188865, 0.090842016, 0.8382806, -0.12913363, 0.12592664, -0.016748428, 0
564, 2773600592, 0.39688084, -0.36399972, 0.092131265, 0.83755547, -0.009097313, 0.18836957, 0.12765789, 0
566, 2773633926, 0.39277732, -0.36937362, 0.093692005, 0.8369637, -0.8587997, -1.4836283, 1.1292496, 0
567, 2773650593, 0.38672343, -0.3709425, 0.08761759, 0.83974254, -1.5624303, -2.5147254, 1.5333204, 0
570, 2773700594, 0.37018648, -0.37093723, 0.072387196, 0.84860194, 5.5368342, 0.20017932, -1.6729364, 0
572, 2773733928, 0.37239692, -0.37678188, 0.07054041, 0.84520847, -0.19927876, 1.4825895, 0.016493797, 0
574, 2773767262, 0.3723641, -0.37662524, 0.07218843, 0.8451538, -15.273418, -1.3479841, -0.46501255, 0
575, 2773783929, 0.36903337, -0.37446508, 0.07188834, 0.8475964, 5.874468, 1.4385394, -1.6684074, 0
576, 2773800596, 0.36792332, -0.3692811, 0.07449263, 0.85012484, -1.242715, -0.7088322, 0.65600395, 0
578, 2773833930, 0.3668866, -0.36274529, 0.07692003, 0.85316515, -0.5921125, -0.6983671, 0.7390804, 0
579, 2773850597, 0.36727607, -0.36191574, 0.07634409, 0.8534016, -0.50596756, 0.03797988, 0.52479553, 0
581, 2773883931, 0.36774486, -0.3629039, 0.07546555, 0.8528581, 0.2949487, 0.31413114, -0.073147774, 0
582, 2773900598, 0.3676429, -0.36329007, 0.07561743, 0.852724, 0.24896516, 0.22579893, -0.1665039, 0
583, 2773917265, 0.3674791, -0.36342508, 0.0759914, 0.85270387, -0.015891604, 0.026293729, -0.13395405, 0
587, 2773983933, 0.3683131, -0.36126918, 0.07552326, 0.8533016, -0.09128839, 0.078618556, -0.15222454, 0
589, 2774017267, 0.36863023, -0.3600042, 0.07530218, 0.85371894, -0.055384833, -0.031103728, -0.08109856, 0
590, 2774033934, 0.3687947, -0.35948667, 0.075340055, 0.8538625, -0.10414357, 0.0310987, -0.15945148, 0
591, 2774050601, 0.36889777, -0.35912085, 0.07540014, 0.8539667, -0.15211077, -0.07926429, -0.0011854172, 0
593, 2774083935, 0.3690769, -0.35852635, 0.075346574, 0.8541437, -0.11738395, -0.036069628, -0.09349728, 0
594, 2774100602, 0.36917603, -0.35826015, 0.07527714, 0.8542188, -0.06757054, -0.04386889, -0.10488701, 0
595, 2774117269, 0.3693552, -0.35794446, 0.07519722, 0.8542807, -0.06533253, -0.08292834, -0.04200554, 0
597, 2774150603, 0.36977947, -0.35692248, 0.07491741, 0.8545492, -0.0736148, -0.13943163, -0.014177322, 0
598, 2774167270, 0.37003413, -0.3562794, 0.074692965, 0.854727, -0.069546476, -0.10898402, -0.07626915, 0
599, 2774183937, 0.3703225, -0.35557234, 0.07443436, 0.8549191, -0.056292463, -0.05128136, -0.07667446, 0
603, 2774250605, 0.37140682, -0.35288334, 0.074012905, 0.85559905, -0.071112044, 0.038902655, -0.17132092, 0
605, 2774283939, 0.37173963, -0.3520487, 0.07390461, 0.8558079, 0.035475668, -0.052343715, -0.052196503, 0
606, 2774300606, 0.37183562, -0.3516461, 0.07381068, 0.8559397, -0.10372762, 0.05497681, -0.1350069, 0
608, 2774333940, 0.37201357, -0.3511005, 0.07364777, 0.8561003, -0.12383808, -0.051371884, -0.105386734, 0
609, 2774350607, 0.37215352, -0.35097748, 0.07342741, 0.85610884, -0.19187808, -0.11548311, -0.069060326, 0
610, 2774367274, 0.37232202, -0.35095546, 0.073152736, 0.8560682, -0.087472916, -0.00888464, -0.12519073, 0
612, 2774400608, 0.37244168, -0.35099143, 0.072810635, 0.8560305, -0.033994112, -0.009963201, -0.13311863, 0
613, 2774417275, 0.37246716, -0.3509918, 0.07276682, 0.8560231, -0.056478623, 0.034162056, -0.12580681, 0
614, 2774433942, 0.37253982, -0.35098484, 0.072714016, 0.85599875, -0.05227518, -0.05820881, -0.059851646, 0
617, 2774483943, 0.37285703, -0.35115403, 0.07210107, 0.8558431, -0.09841292, -0.020140976, -0.08834076, 0
620, 2774533944, 0.37312704, -0.35127965, 0.07132305, 0.85573906, -0.13229053, -0.07578587, -0.12525845, 0
621, 2774550611, 0.37326565, -0.35125196, 0.07105974, 0.8557118, -0.12535031, -0.075370915, -0.14770985, 0
622, 2774567278, 0.37342185, -0.3512346, 0.07083295, 0.8556697, -0.08103622, -0.033225425, -0.1529026, 0
624, 2774600612, 0.37346756, -0.35124972, 0.07065061, 0.8556585, -0.028731333, 0.053383835, -0.19734097, 0
625, 2774617279, 0.37341613, -0.3512965, 0.0708748, 0.8556432, -0.040944472, 0.0654351, -0.19143963, 0
626, 2774633946, 0.3733195, -0.3514274, 0.071246386, 0.8556008, -0.07381655, 0.036637127, -0.18156719, 0
628, 2774667280, 0.37304574, -0.35190684, 0.07209937, 0.85545176, -0.09742318, -0.013328524, -0.13866234, 0
629, 2774683947, 0.37279418, -0.35228297, 0.07247308, 0.855375, -0.07923168, 0.058887057, -0.08485508, 0
632, 2774733948, 0.3722107, -0.3535067, 0.07313872, 0.8550674, -0.05322159, -0.10269191, 9.012222E-4, 0
633, 2774750615, 0.3721011, -0.3538145, 0.0732319, 0.8549798, -0.08217205, -0.039273687, -0.086340904, 0
635, 2774783949, 0.37185422, -0.35441333, 0.07333564, 0.8548303, -0.048072774, -0.026994107, -0.12745953, 0
636, 2774800616, 0.37169152, -0.35467052, 0.073402315, 0.85478884, -0.13057482, -0.006624477, -0.048618317, 0
637, 2774817283, 0.3715512, -0.3551005, 0.07343181, 0.85466874, 0.043153618, 0.05398274, -0.16686153, 0
639, 2774850617, 0.37131372, -0.35560957, 0.07368841, 0.8545383, -0.011598255, -0.025560383, -0.054510117, 0
640, 2774867284, 0.3712084, -0.35578275, 0.073883384, 0.85449505, -0.04973736, -0.016279902, -0.10066986, 0
641, 2774883951, 0.37108552, -0.3559533, 0.07413407, 0.8544557, -0.08744855, -0.029797183, -0.0861969, 0
643, 2774917285, 0.37062368, -0.35639432, 0.074683875, 0.85442436, -0.13762489, 0.11093552, -0.16435337, 0
644, 2774933952, 0.37029076, -0.3568258, 0.075086325, 0.8543534, -0.10481975, 0.01701403, -0.081422806, 0
647, 2774983953, 0.36948472, -0.35826758, 0.07576717, 0.85403883, 0.007827759, -0.01853537, -0.09901333, 0
649, 2775017287, 0.3691509, -0.35878673, 0.07584, 0.8539587, 0.03925041, -0.01915249, -0.04875946, 0
651, 2775050621, 0.36919907, -0.35859448, 0.075434946, 0.85405445, -0.011307577, -0.32883483, 0.097429276, 0
652, 2775067288, 0.3694693, -0.3578665, 0.07489279, 0.8542907, -0.104908206, -0.35148317, -0.014917374, 0
653, 2775083955, 0.36980382, -0.3569273, 0.07446747, 0.85457605, -0.1539353, 0.009784056, -0.19958115, 0
655, 2775117289, 0.36967936, -0.3562603, 0.07455474, 0.85490036, -0.21614935, -0.059678853, -0.2580433, 0
656, 2775133956, 0.3696218, -0.35651463, 0.0746754, 0.8548088, -0.20854318, 0.05027589, -0.32205868, 0
657, 2775150623, 0.36951387, -0.35725582, 0.07493139, 0.8545236, -0.29713753, 0.034247883, -0.28974724, 0
659, 2775183957, 0.3686794, -0.3595874, 0.07648862, 0.8537678, -0.29328632, 0.2627253, -0.43299484, 0
662, 2775233958, 0.3660981, -0.36597636, 0.08156317, 0.85169154, -0.12923782, 0.14825983, 0.15175533, 0
663, 2775250625, 0.3648615, -0.36879683, 0.08305642, 0.85086083, 0.1035842, -0.22342311, 0.25562382, 0
666, 2775300626, 0.3607085, -0.37653098, 0.08647218, 0.8489016, -0.044711307, -0.12402544, -0.047872543, 0
667, 2775317293, 0.3599126, -0.37891716, 0.087566674, 0.8480651, -0.05471678, -0.15525265, -0.045218468, 0
668, 2775333960, 0.3592804, -0.38122368, 0.08850879, 0.8472012, -0.048050087, -0.139227, -0.046850204, 0
670, 2775367294, 0.35843903, -0.38474512, 0.0900657, 0.8458004, 0.20345764, -0.19457418, -0.073085785, 0
671, 2775383961, 0.35816556, -0.38545665, 0.09053591, 0.84554183, 0.21463858, -0.19633222, -0.13657475, 0
672, 2775400628, 0.35802522, -0.3854592, 0.09071565, 0.845581, 0.19238897, -0.216458, -0.15848541, 0
674, 2775433962, 0.35818478, -0.38439208, 0.09046297, 0.8460263, -0.040967606, -0.11551071, -0.10097408, 0
676, 2775467296, 0.35840285, -0.38314146, 0.0900147, 0.8465488, -0.016896406, 0.0025237966, -0.0827837, 0
678, 2775500630, 0.35843185, -0.38163188, 0.08953879, 0.8472686, -0.05284458, -0.08200154, -0.07958794, 0
679, 2775517297, 0.35843912, -0.38074914, 0.0892452, 0.84769344, -0.0902115, 0.045913137, -0.105475426, 0
682, 2775567298, 0.3583562, -0.37950987, 0.08908294, 0.84830123, -0.13656901, -0.026100054, -0.078240395, 0
683, 2775583965, 0.35824388, -0.37948394, 0.08910643, 0.8483577, -0.07545789, 0.003049052, -0.06994629, 0
684, 2775600632, 0.35814178, -0.37944803, 0.08920167, 0.8484068, -0.01917403, -0.054822586, -0.099339485, 0
686, 2775633966, 0.35803953, -0.37900668, 0.089355916, 0.84863114, -0.036261737, -0.06736524, -0.1072588, 0
687, 2775650633, 0.3580316, -0.37866244, 0.08940236, 0.84878314, -0.015824689, -0.05133489, -0.077524185, 0
689, 2775683967, 0.35794625, -0.3776927, 0.08942241, 0.84924895, 0.012928576, -0.055429425, -0.08907318, 0
691, 2775717301, 0.3579894, -0.37580642, 0.08923272, 0.85008717, 0.0628576, -0.18344882, -0.09006691, 0
693, 2775750635, 0.35848942, -0.37272578, 0.0885331, 0.85130495, -0.07876946, -0.14351834, -0.041085243, 0
694, 2775767302, 0.35888875, -0.371002, 0.08802525, 0.8519422, -0.06816787, -0.13548495, -0.09717941, 0
695, 2775783969, 0.3592818, -0.3692669, 0.08739786, 0.8525948, -0.18522102, -0.043878388, -0.17693424, 0
698, 2775833970, 0.36025485, -0.36658022, 0.085966066, 0.85348856, -0.048050422, 0.07344658, -0.067302704, 0
699, 2775850637, 0.3604639, -0.36610737, 0.08572443, 0.8536276, -0.02633033, 0.08932964, -0.08034134, 0
701, 2775883971, 0.3607287, -0.36538884, 0.08533781, 0.8538624, -0.13167593, 0.0434403, -0.12543201, 0
702, 2775900638, 0.36080238, -0.36521754, 0.085154474, 0.8539227, -0.0948722, 0.025777303, -0.11038494, 0
703, 2775917305, 0.36092326, -0.36519068, 0.084989294, 0.85389966, -0.10156244, 0.027065072, -0.10183525, 0
706, 2775967306, 0.36107138, -0.36545566, 0.0846629, 0.85375595, -0.04595622, -0.012810756, -0.07024193, 0
707, 2775983973, 0.36114544, -0.3654913, 0.08459218, 0.85371643, -0.046595074, -0.07882218, -0.08438206, 0
709, 2776017307, 0.3613465, -0.3653042, 0.08419423, 0.85375065, -0.045462284, 0.042736683, -0.11503887, 0
710, 2776033974, 0.36144516, -0.36522025, 0.084020175, 0.85376203, -0.13126597, -0.046496395, -0.1153059, 0
712, 2776067308, 0.36152294, -0.36550042, 0.0838941, 0.85362166, -0.13133954, 0.1359959, -0.11291313, 0
713, 2776083975, 0.3614574, -0.36588594, 0.083944075, 0.8534794, -0.05833065, 0.007759811, -0.08999157, 0
714, 2776100642, 0.36133203, -0.36622003, 0.08398952, 0.8533847, -0.020307101, -0.034263864, -0.116708755, 0
716, 2776133976, 0.36110854, -0.3668676, 0.08402831, 0.85319716, -0.10811, 0.04830193, -0.08179569, 0
717, 2776150643, 0.36099988, -0.36743066, 0.084093936, 0.85299444, -0.12599032, -0.11043775, -0.050232887, 0
718, 2776167310, 0.36094743, -0.36805272, 0.08415934, 0.852742, -0.06831969, -0.09879921, -0.087062836, 0
721, 2776217311, 0.36068445, -0.36937642, 0.08450767, 0.8522463, -0.042510487, -0.06968262, -0.09055138, 0
722, 2776233978, 0.36064768, -0.36961123, 0.08461593, 0.85214937, -0.06877619, -0.062271826, -0.08173275, 0
724, 2776267312, 0.36060202, -0.37015253, 0.08478853, 0.85191655, -0.10626007, 0.057931878, -0.11195278, 0
725, 2776283979, 0.36049625, -0.37068093, 0.08490195, 0.85172033, -0.09342858, 0.05770814, -0.07935238, 0
728, 2776333980, 0.36006212, -0.3724392, 0.085631214, 0.8510636, -0.020312494, -0.03404773, -0.083330154, 0
729, 2776350647, 0.35993475, -0.37284836, 0.08588482, 0.8509128, -0.06706772, -0.05579755, -0.09012222, 0
730, 2776367314, 0.35983932, -0.37319535, 0.08613553, 0.85077554, -0.08199307, -0.07940655, -0.08318615, 0
732, 2776400648, 0.3598011, -0.37360254, 0.08649667, 0.85057634, 0.001680119, -0.04977935, -0.09388161, 0
733, 2776417315, 0.359748, -0.37360165, 0.08661239, 0.8505875, 6.710697E-4, -0.04429904, -0.08532524, 0
736, 2776467316, 0.3596641, -0.37340304, 0.08703201, 0.85066724, -0.08894145, -0.04384173, -0.083257675, 0
737, 2776483983, 0.35967293, -0.37337363, 0.08711241, 0.85066825, -0.04445589, -0.056518603, -0.09864998, 0
738, 2776500650, 0.35970518, -0.37325054, 0.08713861, 0.8507059, -0.024715113, -0.03681493, -0.0990715, 0
740, 2776533984, 0.35972285, -0.3728301, 0.08720025, 0.8508764, -0.04399425, -0.004084029, -0.08347511, 0
741, 2776550651, 0.35969338, -0.3725651, 0.08726242, 0.8509987, -0.037640195, -0.020235857, -0.099295616, 0
744, 2776600652, 0.3597296, -0.37183526, 0.08743931, 0.8512843, -0.09084525, -0.018638745, -0.087441444, 0
745, 2776617319, 0.35978958, -0.37167078, 0.087483004, 0.85132635, -0.0658011, -0.057505414, -0.0857954, 0
747, 2776650653, 0.3599624, -0.37126926, 0.0874027, 0.85143673, -0.03875628, -0.05149459, -0.099432945, 0
748, 2776667320, 0.36005127, -0.37104523, 0.0873245, 0.8515048, -0.074886225, -0.0016867406, -0.089509964, 0
751, 2776717321, 0.36018896, -0.37059805, 0.08712564, 0.8516617, -0.06846683, -0.020030672, -0.060441017, 0
752, 2776733988, 0.36027145, -0.37053475, 0.087096766, 0.8516573, -0.06282399, -0.027996898, -0.09340477, 0
753, 2776750655, 0.36033857, -0.37048775, 0.087074, 0.8516516, -0.0332632, -0.022541393, -0.09746933, 0
755, 2776783989, 0.3604658, -0.37034425, 0.087037526, 0.85166395, -0.034777667, -0.038877174, -0.0866251, 0
756, 2776800656, 0.3605221, -0.37018785, 0.08696475, 0.8517156, -0.039016113, -0.04481636, -0.08311081, 0
757, 2776817323, 0.36065248, -0.36998516, 0.086877346, 0.85175735, -0.039403826, -0.055993907, -0.10069847, 0
760, 2776867324, 0.36108488, -0.3691241, 0.086591706, 0.85197675, -0.046419144, -0.041217912, -0.076992035, 0
761, 2776883991, 0.36126184, -0.36873052, 0.08649148, 0.8520824, -0.05209704, -0.057405166, -0.098633766, 0
763, 2776917325, 0.36163226, -0.36782476, 0.08625052, 0.8523411, -0.08150439, 0.045964435, -0.1268816, 0
765, 2776950659, 0.3619282, -0.36728242, 0.085976444, 0.852477, -0.066698305, -0.014134959, -0.08223057, 0
767, 2776983993, 0.3621711, -0.36696205, 0.08563804, 0.852546, -0.086342275, -0.083368994, -0.06692982, 0
768, 2777000660, 0.36227354, -0.36676264, 0.08533247, 0.8526188, -0.04035113, -0.083338484, -0.087135315, 0
770, 2777033994, 0.36256692, -0.36623162, 0.08452139, 0.85280323, -0.0363714, 0.05653559, -0.11713791, 0
771, 2777050661, 0.36271322, -0.36593857, 0.08430638, 0.852888, -0.031455033, 0.011800031, -0.10655308, 0
772, 2777067328, 0.36283603, -0.3657283, 0.08416192, 0.8529403, -0.044705134, -2.0205571E-4, -0.08811951, 0
774, 2777100662, 0.3630284, -0.3654278, 0.08385341, 0.8530175, -0.051933877, -0.036938198, -0.067456245, 0
776, 2777133996, 0.36324993, -0.36498564, 0.08347742, 0.85314953, -0.010059787, -0.055606447, -0.10523987, 0
778, 2777167330, 0.36347967, -0.3644185, 0.083232716, 0.8533179, -0.056032658, 4.0154104E-4, -0.086071014, 0
780, 2777200664, 0.36373296, -0.36400568, 0.083018154, 0.85340714, -0.037909362, -0.028516676, -0.078196526, 0
782, 2777233998, 0.3639502, -0.36352873, 0.082753874, 0.85354346, -0.05662187, -0.011525446, -0.09144211, 0
783, 2777250665, 0.36407536, -0.36326805, 0.082613625, 0.8536147, -0.069214225, -0.015957149, -0.097480774, 0
784, 2777267332, 0.36419353, -0.36302316, 0.08249804, 0.85367954, -0.0609745, -0.015703127, -0.09966278, 0
786, 2777300666, 0.36445102, -0.3625106, 0.082331136, 0.85380363, -0.021705203, -0.021002172, -0.12960339, 0
787, 2777317333, 0.36453682, -0.36217523, 0.08222478, 0.85391957, -0.004423014, -0.18792713, -0.18025589, 0
788, 2777334000, 0.36468744, -0.36203408, 0.08209933, 0.8539272, -0.3099047, 0.13718644, 0.025157928, 0
790, 2777367334, 0.3647388, -0.36205274, 0.08208633, 0.8538986, 0.058787286, 0.107233584, -0.08136463, 0
791, 2777384001, 0.36464798, -0.36190942, 0.08211359, 0.8539954, -0.06692028, -0.04546611, -0.060393333, 0
793, 2777417335, 0.36459786, -0.36139408, 0.08182495, 0.8542627, 0.036170598, -0.06927862, -0.06804848, 0
795, 2777450669, 0.36470103, -0.3606105, 0.081131004, 0.85461605, -0.21761481, 0.24187711, -0.30377388, 0
797, 2777484003, 0.36441225, -0.3620028, 0.0809955, 0.8541633, -0.12122627, -0.07657342, -0.12159634, 0
798, 2777500670, 0.36419463, -0.3629751, 0.08109358, 0.85383403, -0.072734416, -0.046429228, -0.1262188, 0
799, 2777517337, 0.3639832, -0.36400777, 0.081322886, 0.8534627, -0.0365178, -0.025424264, -0.12760258, 0
801, 2777550671, 0.36321244, -0.3671551, 0.08231026, 0.8523475, -0.17945816, 0.34204534, -0.20627785, 0
802, 2777567338, 0.3625038, -0.3697798, 0.083415076, 0.85140663, -0.18808503, 0.21117985, 0.015086174, 0
803, 2777584005, 0.36161798, -0.3729897, 0.08486259, 0.8502394, -0.28425488, -0.0817293, 0.19756317, 0
806, 2777634006, 0.357801, -0.3861094, 0.08883886, 0.8455786, -0.030857723, 0.0028629776, -0.054686546, 0
807, 2777650673, 0.35634485, -0.39080867, 0.0903826, 0.8438694, 0.119247265, 0.045832, -0.061894417, 0
810, 2777700674, 0.35173988, -0.4025873, 0.096015394, 0.8396317, 0.06549377, -0.28211257, -0.07483959, 0
811, 2777717341, 0.35077474, -0.4050175, 0.097572185, 0.8386866, 0.16809937, -0.48805606, -0.060918808, 0
813, 2777750675, 0.35023415, -0.40570164, 0.09891297, 0.8384247, 0.5229415, -0.37363264, -0.1657877, 0
814, 2777767342, 0.35043526, -0.4039473, 0.09878932, 0.839202, 0.45644867, -0.38794205, -0.11468029, 0
815, 2777784009, 0.35076404, -0.40136877, 0.09838927, 0.840348, 0.13181607, -0.005968243, -0.12889957, 0
817, 2777817343, 0.35177553, -0.395905, 0.096765235, 0.84270245, -0.23757407, 0.0013870096, -0.11803532, 0
818, 2777834010, 0.35219136, -0.393818, 0.09583089, 0.8436128, -0.24896862, 0.02363616, -0.053419113, 0
819, 2777850677, 0.3525973, -0.39207402, 0.094937965, 0.8443563, -0.17042734, 0.020748932, -0.06316185, 0
822, 2777900678, 0.35359013, -0.38814926, 0.09282411, 0.84598774, -0.25092417, -0.038114995, -0.077082634, 0
825, 2777950679, 0.35430187, -0.3871155, 0.09208652, 0.8462442, -0.15161985, 0.091966756, -0.075118065, 0
826, 2777967346, 0.35425273, -0.3874614, 0.09204049, 0.84611154, -0.12900774, 0.060277086, -0.06130886, 0
828, 2778000680, 0.3542033, -0.3883794, 0.09205545, 0.84570974, -0.012352024, -0.07730263, -0.08300209, 0
829, 2778017347, 0.35423133, -0.38858184, 0.09205528, 0.8456049, 0.08049531, -0.0131680425, -0.10519695, 0
830, 2778034014, 0.354177, -0.38852063, 0.09204462, 0.8456569, 0.10538594, -0.040464114, -0.09517479, 0
832, 2778067348, 0.35434848, -0.38716674, 0.092003025, 0.8462104, 0.10595456, -0.10465033, -0.12463474, 0
833, 2778084015, 0.35455534, -0.3859368, 0.091893524, 0.84669733, 0.02400152, -0.09743209, -0.08001995, 0
834, 2778100682, 0.3548272, -0.38448864, 0.09169506, 0.84726375, 0.023547957, -0.07837795, -0.096735954, 0
836, 2778134016, 0.35536385, -0.3808616, 0.09098279, 0.84875226, 0.100459434, -0.06420767, -0.08114529, 0
840, 2778200684, 0.35768324, -0.3706288, 0.08684696, 0.8527321, -0.22224084, -0.1947883, -0.05110264, 0
841, 2778217351, 0.3583694, -0.3678534, 0.08545083, 0.85378623, -0.057562996, 0.15863799, -0.09631443, 0
842, 2778234018, 0.35897672, -0.36553392, 0.084315136, 0.8546399, -0.16857828, 0.19798185, -0.17775536, 0
844, 2778267352, 0.35983294, -0.362862, 0.08276415, 0.8555694, -0.106884986, 0.009468903, -0.0856905, 0
845, 2778284019, 0.36020356, -0.3619748, 0.08217802, 0.85584575, -0.17548192, 0.033862438, -0.25266457, 0
846, 2778300686, 0.36046898, -0.36144245, 0.08181037, 0.8559942, -0.15357614, 0.28694627, -0.28040028, 0
848, 2778334020, 0.36060357, -0.36162484, 0.08177763, 0.8558635, -0.07281412, 0.021407401, -0.08089352, 0
849, 2778350687, 0.36063847, -0.36192262, 0.08181268, 0.8557196, -0.02747994, 0.029762315, -0.046204567, 0
851, 2778384021, 0.36080682, -0.3622155, 0.08167615, 0.8555377, -0.05065329, -0.02512185, -0.13746643, 0
852, 2778400688, 0.36078295, -0.3625777, 0.081591405, 0.85540247, -0.20313103, 0.32225707, -0.23742676, 0
856, 2778467356, 0.360261, -0.3657985, 0.08184109, 0.85422665, 0.0185884, -0.044793338, -0.05452919, 0
857, 2778484023, 0.3601875, -0.36645493, 0.081899315, 0.85397065, -0.057956547, -0.059686005, -0.08902168, 0
859, 2778517357, 0.35985345, -0.36814153, 0.08223831, 0.85335326, -0.20555942, 0.23426639, -0.18981266, 0
860, 2778534024, 0.35953635, -0.3696932, 0.08266741, 0.8527744, -0.16830489, 0.1417327, -0.109885216, 0
861, 2778550691, 0.35915554, -0.3715946, 0.08329429, 0.8520472, -0.08942477, 0.04039438, -0.03434658, 0
863, 2778584025, 0.35823303, -0.37599546, 0.084951185, 0.8503396, -0.062353577, 0.05206533, -0.004899025, 0
864, 2778600692, 0.35757792, -0.3786944, 0.08595891, 0.8493156, -0.28587943, 0.040824305, 0.017961502, 0
865, 2778617359, 0.35670817, -0.38194618, 0.08689684, 0.8481291, -0.15817755, 0.10626096, 0.003153801, 0
867, 2778650693, 0.35482383, -0.38969705, 0.08881164, 0.84519005, -0.17040773, -0.03228466, -0.048238754, 0
869, 2778684027, 0.35263586, -0.39785028, 0.0912044, 0.8420465, 0.1755183, -0.13483284, -0.12823963, 0
871, 2778717361, 0.35080776, -0.40315875, 0.09355235, 0.8400253, 0.21202078, -0.11787492, -0.20707798, 0
872, 2778734028, 0.34994167, -0.4050267, 0.094467744, 0.83938533, 0.14913027, 0.015582653, -0.14813423, 0
874, 2778767362, 0.34826627, -0.4086938, 0.09621192, 0.83810544, -0.095987976, -0.04157866, -0.04917717, 0
875, 2778784029, 0.34750843, -0.4104492, 0.09707231, 0.83746284, -0.017633663, -0.09041133, -0.063887596, 0
876, 2778800696, 0.3469193, -0.41197538, 0.09783315, 0.8368689, -0.028819257, -0.18070899, -0.08894539, 0
878, 2778834030, 0.34593818, -0.41417137, 0.0992483, 0.83602405, 0.10203607, -0.0036353264, -0.09879589, 0
879, 2778850697, 0.34536204, -0.41493884, 0.10003312, 0.835788, 0.13556622, 0.07195262, -0.09713364, 0
880, 2778867364, 0.3447727, -0.41562623, 0.101007156, 0.83557254, 0.08116476, 0.03518563, -0.07845402, 0
882, 2778900698, 0.34427282, -0.4168894, 0.10218091, 0.8350065, 0.023704024, -0.17783608, -0.100131035, 0
886, 2778967366, 0.34374183, -0.4179473, 0.10291768, 0.8346059, -0.096182935, 0.098477684, -0.03299427, 0
887, 2778984033, 0.3434243, -0.4184966, 0.10326736, 0.8344182, -0.24302533, 0.115454726, 0.054585457, 0
890, 2779034034, 0.3426904, -0.42157868, 0.104134455, 0.8330597, 0.027183674, -0.20401034, -0.11492157, 0
891, 2779050701, 0.34272358, -0.42228034, 0.104268946, 0.83267355, 0.13415496, -0.10063972, -0.07827282, 0
892, 2779067368, 0.3427994, -0.42246997, 0.10430739, 0.83254135, 0.29510814, -0.10074701, -0.05203724, 0
894, 2779100702, 0.3442193, -0.41930902, 0.1035607, 0.83364606, 0.5455027, -0.6909199, -0.13821888, 0
895, 2779117369, 0.34586787, -0.4149998, 0.102668546, 0.8352289, 0.7000872, -0.48444867, -0.22736931, 0
896, 2779134036, 0.34782466, -0.40929016, 0.10114415, 0.83741677, 0.4229926, -0.40757486, -0.16640663, 0
899, 2779184037, 0.35362297, -0.38833752, 0.094068214, 0.8457503, 0.1904624, -0.11203095, 0.06097412, 0
900, 2779200704, 0.3553327, -0.3805501, 0.09122004, 0.8488798, 0.018232148, -0.10912931, -0.052994728, 0
903, 2779250705, 0.36002606, -0.36693865, 0.081955515, 0.8538256, -0.49158746, 0.60606855, -0.13990688, 0
905, 2779284039, 0.3621722, -0.36459422, 0.078851014, 0.85421455, -0.15015642, 0.4146515, -0.080402374, 0
906, 2779300706, 0.36276168, -0.3640101, 0.07818385, 0.8542747, -0.18775742, 0.26694778, -0.16402149, 0
907, 2779317373, 0.36315712, -0.36384296, 0.07776952, 0.85421574, -0.13639747, 0.21198292, -0.25706482, 0
909, 2779350707, 0.3637671, -0.36441407, 0.07681146, 0.85379934, -5.483052E-4, -0.022994678, -0.116620064, 0
910, 2779367374, 0.36412382, -0.36497828, 0.07632719, 0.85344964, -0.07564542, 0.065689005, -0.155509, 0
911, 2779384041, 0.36439952, -0.36560807, 0.07591482, 0.85309917, -0.04446061, -0.109786324, -0.067546844, 0
914, 2779434042, 0.36504418, -0.36624846, 0.075775646, 0.85256094, -0.14584357, 0.10172611, -0.15634537, 0
915, 2779450709, 0.3651142, -0.36670098, 0.07593534, 0.8523223, -0.39937976, 0.047323614, -0.19744396, 0
917, 2779484043, 0.36555597, -0.37010407, 0.07643282, 0.850616, -0.40836513, 0.043748528, -0.107185364, 0
919, 2779517377, 0.36617208, -0.3772993, 0.07700301, 0.84713125, -0.3829639, 0.07429258, -0.015208244, 0
921, 2779550711, 0.3661673, -0.3877809, 0.07849778, 0.84224886, -0.2172766, 0.34662345, -0.05243492, 0
922, 2779567378, 0.36567488, -0.393786, 0.079663984, 0.83956283, -0.09944988, 0.28573763, -0.11229992, 0
923, 2779584045, 0.36485502, -0.4004377, 0.08116356, 0.83662444, -0.2768632, 0.3541082, -0.105196, 0
925, 2779617379, 0.36210287, -0.41651738, 0.0856156, 0.82949525, -0.29428282, 0.17085722, -0.03585434, 0
926, 2779634046, 0.3601183, -0.42588398, 0.088481046, 0.8252916, -0.24871638, 0.2972474, -0.0538311, 0
929, 2779684047, 0.35085765, -0.45849285, 0.101931244, 0.81011766, -0.21289268, 0.5239387, -0.25380325, 0
930, 2779700714, 0.34602702, -0.47171947, 0.10832676, 0.8037468, -0.51155376, 0.6161697, -0.30765152, 0
932, 2779734048, 0.33189997, -0.50448173, 0.12613945, 0.7870368, -0.7362764, 1.0363468, -0.45435333, 0
934, 2779767382, 0.3106543, -0.549645, 0.15602364, 0.75963044, -0.41105103, 1.0248626, -0.4956913, 0
937, 2779817383, 0.26320383, -0.6454716, 0.23751043, 0.67651796, -0.6223427, 2.1723738, 0.861331, 0
938, 2779834050, 0.23862343, -0.6798184, 0.27243337, 0.6377172, -1.7326204, 2.9653134, 2.871482, 0
940, 2779867384, 0.18394202, -0.7320366, 0.3459427, 0.55732304, -1.9111648, 6.768022, 6.9142284, 0
941, 2779884051, 0.15860996, -0.74722815, 0.3802707, 0.5214256, -2.7860844, 9.668265, 5.882332, 0
944, 2779934052, 0.11056365, -0.7613872, 0.45927086, 0.4439963, 11.236896, 14.230288, 7.070421, 0
945, 2779950719, 0.11757167, -0.76362807, 0.48571935, 0.40880707, -5.3125105, 39.673424, 11.721575, 0
946, 2779967386, 0.12813711, -0.7634809, 0.5070921, 0.3788572, -3.9581287, 18.39879, -1.0302467, 0
948, 2780000720, 0.12897523, -0.76703745, 0.519525, 0.3537093, -8.283544, 22.165403, -8.103718, 0
949, 2780017387, 0.12840283, -0.7667535, 0.5165003, 0.35892448, -5.2636137, 18.452507, -10.089851, 0
950, 2780034054, 0.13166067, -0.76555514, 0.5091738, 0.3705811, -4.3930664, 16.135956, -10.720071, 0
952, 2780067388, 0.15536624, -0.75697607, 0.48217633, 0.41273725, -4.1622205, 9.525597, -9.639964, 0
953, 2780084055, 0.17487545, -0.74799883, 0.4642635, 0.44087785, -5.0694666, 6.326848, -9.076029, 0
955, 2780117389, 0.2164896, -0.72362345, 0.41559696, 0.50673264, -6.2027245, 0.86101, -7.595274, 0
956, 2780134056, 0.23792006, -0.7091807, 0.38704002, 0.53912365, -6.7871103, 1.5715395, -5.185638, 0
959, 2780184057, 0.30341154, -0.6420511, 0.30126974, 0.63635355, -7.369416, -2.3114984, -0.16972446, 0
960, 2780200724, 0.31993893, -0.6150433, 0.26968998, 0.66830057, -10.355147, -4.703853, 0.95179176, 0
961, 2780217391, 0.3306477, -0.58841145, 0.23129523, 0.70067394, -9.816022, -5.665995, 3.1794596, 0
963, 2780250725, 0.35843647, -0.529087, 0.16300261, 0.7516767, 2.8860188, -9.262716, 7.4172935, 0
964, 2780267392, 0.38032582, -0.4996139, 0.13925084, 0.76573133, 6.0337024, -13.003823, 8.34507, 0
967, 2780317393, 0.41188464, -0.45060408, 0.07139264, 0.78880143, 9.641442, -19.379679, 6.8333893, 0
969, 2780350727, 0.42173603, -0.42940295, 0.025270943, 0.7981921, 16.306376, -20.12593, -0.20571613, 0
971, 2780384061, 0.41744205, -0.4125507, 0.0032923715, 0.80964863, 12.7853985, -24.619963, -11.75753, 0
973, 2780417395, 0.38730022, -0.4352757, -0.011089762, 0.81265485, 23.608267, -19.257212, -13.141796, 0
975, 2780450729, 0.38272616, -0.4234528, 0.07935263, 0.81725705, -4.0067773, -17.314049, 11.208977, 0
976, 2780467396, 0.3788199, -0.40955633, 0.0824136, 0.8258114, -24.010517, -3.0562463, 11.985327, 0
977, 2780484063, 0.3746907, -0.40929043, 0.08532461, 0.8275298, -4.7834115, -2.3293138, 3.2397575, 0
979, 2780517397, 0.36663783, -0.42071244, 0.09036548, 0.8248692, -1.1592041, -1.0188645, 0.9353657, 0
980, 2780534064, 0.36345333, -0.433708, 0.0926219, 0.8192788, -2.1816974, 0.45597795, 0.28238297, 0
981, 2780550731, 0.3599623, -0.450462, 0.09698764, 0.81123483, -0.9462508, 0.8928583, 0.038837433, 0
988, 2780667400, 0.31582442, -0.5763086, 0.15346056, 0.7379505, 0.96801317, -0.28950897, -0.16766834, 0
990, 2780700734, 0.2963235, -0.61136156, 0.17761065, 0.711956, -0.9599952, 1.6103947, 0.13071918, 0
991, 2780717401, 0.28458533, -0.6332987, 0.19618501, 0.6924253, -1.068085, 1.8414286, 0.3540163, 0
992, 2780734068, 0.27027526, -0.65835196, 0.2195625, 0.6673184, -1.4006084, 2.2489092, -0.0122385025, 0
994, 2780767402, 0.22146025, -0.72406036, 0.27393973, 0.5929979, -2.8572474, 3.9690335, 3.7322588, 0
995, 2780784069, 0.19312535, -0.75490165, 0.30299023, 0.5486533, -3.8491707, 6.291863, 8.749456, 0
996, 2780800736, 0.16649604, -0.778302, 0.3291033, 0.5081473, -5.095056, 10.295657, 10.430616, 0
998, 2780834070, 0.1484484, -0.7846696, 0.36344525, 0.47975186, 0.20251839, 13.270395, 15.482561, 0
999, 2780850737, 0.15332982, -0.78316635, 0.38220236, 0.46589637, 22.466738, -0.07770741, 9.84536, 0
1000, 2780867404, 0.16135122, -0.7927114, 0.4022264, 0.42870268, -1.5674816, 15.034465, 9.40457, 0
1004, 2780934072, 0.12716244, -0.8205156, 0.45548767, 0.32111102, -6.2417374, 15.289522, -4.8481216, 0
1006, 2780967406, 0.1034082, -0.8311774, 0.46352583, 0.2891233, -4.4828024, 13.301131, -8.472224, 0
1007, 2780984073, 0.09019483, -0.83703405, 0.46218824, 0.27860102, -3.0921745, 10.580071, -10.935131, 0
1010, 2781034074, 0.08264092, -0.8412905, 0.46060717, 0.2706279, -4.222444, 6.226607, -7.39091, 0
1011, 2781050741, 0.082355656, -0.84080446, 0.45512712, 0.28128698, -2.8084638, 3.0109391, -4.1044436, 0
1013, 2781084075, 0.081957944, -0.84043235, 0.4432733, 0.30076987, 1.1699777, -0.16488461, -0.7909031, 0
1014, 2781100742, 0.08441543, -0.8418825, 0.4377811, 0.3040606, -0.89258426, -0.5903413, -1.2722759, 0
1015, 2781117409, 0.08814755, -0.8440657, 0.43168947, 0.30565435, -2.9431632, -0.7129965, -2.5606208, 0
1018, 2781167410, 0.116941, -0.8357451, 0.42456084, 0.32802492, -6.174434, 4.3412848, -4.72861, 0
1019, 2781184077, 0.13606127, -0.8239917, 0.4281388, 0.34528178, -3.501208, 2.164904, -5.1064434, 0
1022, 2781234078, 0.18332407, -0.7878883, 0.427631, 0.403427, -5.075079, 4.5558276, -5.087549, 0
1023, 2781250745, 0.1981014, -0.7744221, 0.42127043, 0.428433, -6.0074396, 6.7220726, -4.5316877, 0
1025, 2781284079, 0.23494516, -0.73510665, 0.4067333, 0.48886055, -3.1286142, 5.6365085, -4.7089367, 0
1026, 2781300746, 0.2525956, -0.7129721, 0.39913082, 0.518226, -2.8511627, 4.645488, -5.65905, 0
1027, 2781317413, 0.26757455, -0.6937183, 0.3854638, 0.5464191, -4.59902, 6.3412514, -4.3907747, 0
1030, 2781367414, 0.3255559, -0.627442, 0.321789, 0.6299041, -5.110952, 9.191252, 3.0271425, 0
1033, 2781417415, 0.38202193, -0.5301262, 0.2261883, 0.72239995, -5.2399726, 1.0708419, 12.658026, 0
1034, 2781434082, 0.39197224, -0.49352014, 0.18689327, 0.7535676, 0.58090246, -2.9289763, 15.102552, 0
1036, 2781467416, 0.41323388, -0.42894235, 0.116792485, 0.7947348, 8.839813, -10.206824, 9.895744, 0
1037, 2781484083, 0.42583993, -0.41566336, 0.08238108, 0.7994342, 8.250188, -18.817982, 6.875082, 0
1038, 2781500750, 0.43429992, -0.41729808, 0.04230696, 0.79715335, 12.011266, -28.90349, 5.4311705, 0
1040, 2781534084, 0.4461775, -0.41220194, -0.027457897, 0.7938884, 20.665657, -34.902832, -10.046703, 0
1041, 2781550751, 0.44108936, -0.40241218, -0.032703146, 0.80151904, 15.7523775, -33.80627, -22.861044, 0
1042, 2781567418, 0.42395586, -0.4046854, -0.034283455, 0.8095141, 16.746206, -33.92393, -19.966496, 0
1044, 2781600752, 0.37719592, -0.43445638, -0.027179195, 0.8174532, 29.030186, -19.966434, -10.337343, 0
1045, 2781617419, 0.36446252, -0.4245426, 0.030595494, 0.8282464, 45.572792, -3.5333166, 24.261826, 0
1049, 2781684087, 0.35571998, -0.38034427, 0.0852696, 0.8494281, -2.7346292, -1.8727652, 1.5055046, 0
1050, 2781700754, 0.3540956, -0.38325846, 0.08500851, 0.84882295, -0.1732335, 1.2398089, 0.43237782, 0
1052, 2781734088, 0.3456211, -0.4116588, 0.09580156, 0.83779615, -1.8617532, 2.0766943, 0.005188942, 0
1054, 2781767422, 0.32867187, -0.4585627, 0.120998316, 0.81673247, -1.0548432, -0.09043949, -0.19150925, 0
1056, 2781800756, 0.3118831, -0.5011298, 0.1486442, 0.7934106, 0.6519338, 0.16356075, -0.5295372, 0
1057, 2781817423, 0.3017434, -0.521509, 0.16597927, 0.7806585, 0.5560029, 1.7686392, -0.54131603, 0
1058, 2781834090, 0.2880355, -0.54570186, 0.18946606, 0.76377034, 0.5481422, 2.0349705, -0.976696, 0
1060, 2781867424, 0.24704154, -0.61875945, 0.2550042, 0.70076925, -0.65216345, 1.8344735, 0.4657154, 0
1062, 2781900758, 0.18217868, -0.7030822, 0.3205077, 0.60807776, -4.404727, 6.8737636, 10.576439, 0
1064, 2781934092, 0.12191526, -0.74536055, 0.35349247, 0.55191916, 0.10205468, 10.822994, 18.8273, 0
1065, 2781950759, 0.11150433, -0.7472497, 0.36709407, 0.5426085, 15.490371, 13.2362795, 13.15237, 0
1067, 2781984093, 0.12184569, -0.77942765, 0.40536624, 0.46186787, -2.400942, 1.1311339, 7.0128384, 0
1068, 2782000760, 0.110736035, -0.79460865, 0.41879624, 0.4253723, -7.697443, 14.666056, 8.143904, 0
1071, 2782050761, 0.07403763, -0.8200662, 0.4538311, 0.34065315, -7.079323, 16.695448, -6.9525003, 0
1072, 2782067428, 0.06415557, -0.8255572, 0.46121526, 0.31877458, -5.907452, 13.779543, -9.151377, 0
1073, 2782084095, 0.054393727, -0.83126163, 0.4650291, 0.29965115, -4.349849, 11.663773, -10.349165, 0
1075, 2782117429, 0.038691357, -0.84127504, 0.46802068, 0.26779342, -3.4034362, 8.816622, -11.521321, 0
1077, 2782150763, 0.018260082, -0.849863, 0.4609339, 0.25482658, -3.58688, 6.374243, -12.598348, 0
1079, 2782184097, 0.0062095216, -0.8570163, 0.44523168, 0.25932756, -3.8440876, 6.2768035, -12.747092, 0
1080, 2782200764, 0.009620037, -0.8597614, 0.43590373, 0.2659004, -4.368074, 5.358245, -12.140115, 0
1081, 2782217431, 0.019682378, -0.86063015, 0.42817208, 0.27494428, -5.7046123, 4.623699, -11.187768, 0
1083, 2782250765, 0.047192592, -0.854641, 0.41852677, 0.30363515, -8.514853, 3.952622, -7.759756, 0
1084, 2782267432, 0.059863932, -0.8479346, 0.41292796, 0.32697242, -8.304063, 5.0042915, -6.234631, 0
1087, 2782317433, 0.11779114, -0.8083837, 0.4016459, 0.41390702, -4.3524566, 7.116177, -2.2618937, 0
1088, 2782334100, 0.14335468, -0.7884427, 0.3997436, 0.44498286, -4.7114363, 4.704352, -1.5525379, 0
1089, 2782350767, 0.1654002, -0.7669914, 0.39674, 0.47640488, -4.4464226, 3.9297824, -1.0813026, 0
1094, 2782434102, 0.26378232, -0.64996403, 0.3524611, 0.61946267, -1.6531293, 5.7031116, 2.5468369, 0
1095, 2782450769, 0.2816047, -0.6266602, 0.33275583, 0.6459617, -1.3289754, 5.1780105, 3.6050997, 0
1096, 2782467436, 0.29760107, -0.60238236, 0.31012264, 0.67259955, -1.9241002, 4.68073, 7.432001, 0
1098, 2782500770, 0.3308782, -0.5483914, 0.26567206, 0.7205568, 5.6614375, 0.943798, 7.500002, 0
1099, 2782517437, 0.35200682, -0.52265656, 0.24776664, 0.73588747, 4.3873777, -0.5812879, 8.571625, 0
1100, 2782534104, 0.3747961, -0.49869725, 0.22686046, 0.74790394, 2.910461, -2.2969444, 10.232832, 0
1102, 2782567438, 0.41702673, -0.4529649, 0.18340965, 0.76633507, 2.1048596, -6.475072, 8.198864, 0
1104, 2782600772, 0.45198432, -0.4121876, 0.14026417, 0.77854663, 2.5293863, -8.073713, 7.6336384, 0
1107, 2782650773, 0.48485616, -0.3435504, 0.08179138, 0.80012184, 0.9674213, -11.778138, 4.6728535, 0
1108, 2782667440, 0.48696244, -0.3207246, 0.06023975, 0.8101678, 2.4469516, -11.217562, 0.43620682, 0
1110, 2782700774, 0.4868792, -0.28485277, 0.027845306, 0.82524496, 5.905404, -10.078532, -4.1206527, 0
1111, 2782717441, 0.48722443, -0.27387488, 0.017624736, 0.8290305, 5.946345, -10.266101, -4.935518, 0
1112, 2782734108, 0.48928463, -0.26621792, 0.009700046, 0.8304408, 6.280197, -9.697468, -4.6195235, 0
1114, 2782767442, 0.4974546, -0.25365326, 0.00445914, 0.8295639, 3.1226792, -7.6181645, -6.0441103, 0
1115, 2782784109, 0.5010991, -0.25095356, 0.004764585, 0.8281887, 1.2290331, -7.3662944, -5.570304, 0
1117, 2782817443, 0.5034976, -0.25115234, 0.006399799, 0.8266616, 0.53291327, -5.978531, -4.0341287, 0
1118, 2782834110, 0.50261694, -0.25109574, 0.006716366, 0.8272118, 0.9897835, -6.238865, -3.0842457, 0
1119, 2782850777, 0.5012847, -0.25066656, 0.006067232, 0.82815486, 0.4616381, -5.830895, -4.695418, 0
1122, 2782900778, 0.49673122, -0.2538454, 0.011091094, 0.8298765, 2.8339818, -6.0381365, -4.6055613, 0
1123, 2782917445, 0.49549085, -0.25820345, 0.013938196, 0.82923037, 2.9490237, -5.5858126, -4.5688787, 0
1125, 2782950779, 0.49639675, -0.27000797, 0.016325407, 0.8248738, 3.2881083, -7.335662, -2.6733727, 0
1126, 2782967446, 0.49630132, -0.2750859, 0.018339312, 0.82320935, 2.4275498, -7.8414655, -4.2216115, 0
1127, 2782984113, 0.49347928, -0.28244293, 0.020554975, 0.8223618, 1.9749906, -9.562434, -4.5588107, 0
1129, 2783017447, 0.48018873, -0.3022974, 0.021146903, 0.8231556, 6.136144, -10.569961, -2.1222014, 0
1130, 2783034114, 0.47202808, -0.31367552, 0.023201559, 0.823563, 7.822913, -9.237993, -3.144606, 0
1131, 2783050781, 0.46447027, -0.3279096, 0.028345166, 0.82215357, 9.537041, -8.850985, -1.1961956, 0
1134, 2783100782, 0.46584147, -0.37025368, 0.0624163, 0.8012525, 10.63677, -11.460291, 0.28588867, 0
1137, 2783150783, 0.45934996, -0.35207665, 0.12771243, 0.80543566, 0.46748412, 3.2303407, 0.9264164, 0
1138, 2783167450, 0.4528429, -0.36134222, 0.13241577, 0.8042565, -1.9130079, -0.033801753, 1.0814342, 0
1139, 2783184117, 0.44782984, -0.37798572, 0.1384112, 0.79838264, -2.1970675, 0.10121695, 1.4468117, 0
1141, 2783217451, 0.43487382, -0.42583025, 0.1573303, 0.7776876, -0.7699511, 3.1336448, -0.5020561, 0
1142, 2783234118, 0.42179027, -0.45696196, 0.1764033, 0.76299274, -0.5856229, 3.948717, -0.8201895, 0
1143, 2783250785, 0.40290964, -0.49127027, 0.20402955, 0.7447728, -0.32374856, 3.127662, -0.8477621, 0
1145, 2783284119, 0.3481617, -0.57852983, 0.2717154, 0.6857512, -0.8629224, 3.1391108, 4.97151, 0
1146, 2783300786, 0.31355488, -0.62588686, 0.30381292, 0.64625394, -1.927636, 4.1192904, 7.5850544, 0
1148, 2783334120, 0.23625526, -0.70822746, 0.36825496, 0.5540606, 6.7716284, -7.535489, 22.003674, 0
1152, 2783400788, 0.14654759, -0.812987, 0.45087048, 0.33806646, -15.980926, 12.904923, -0.29137516, 0
1153, 2783417455, 0.12409091, -0.8253736, 0.46378034, 0.2970943, -10.394351, 27.103802, -5.169289, 0
1154, 2783434122, 0.113339014, -0.8324405, 0.47565353, 0.26066858, -6.5882645, 22.536482, -13.077742, 0
1156, 2783467456, 0.10201779, -0.8401672, 0.49036828, 0.2079608, -6.012869, 15.402382, -17.211658, 0
1157, 2783484123, 0.096213095, -0.84231055, 0.4928175, 0.19591902, -3.9986784, 13.187976, -16.169878, 0
1158, 2783500790, 0.09010323, -0.84398764, 0.49296013, 0.19118996, -2.195254, 10.8199005, -14.610817, 0
1160, 2783534124, 0.08268525, -0.8463563, 0.48941404, 0.19317175, -0.30543178, 8.349889, -12.152728, 0
1161, 2783550791, 0.08077928, -0.84803814, 0.48500028, 0.19768214, -1.4218796, 6.927856, -11.92111, 0
1162, 2783567458, 0.07876604, -0.8505425, 0.47777572, 0.20518519, -2.289025, 6.473071, -11.084997, 0
1164, 2783600792, 0.078640975, -0.8559864, 0.45738122, 0.22782159, -4.334611, 6.2474623, -8.766501, 0
1168, 2783667460, 0.10433571, -0.8520758, 0.41370425, 0.30319414, -8.447798, 4.7620087, -4.6331735, 0
1169, 2783684127, 0.11555746, -0.8446408, 0.40371937, 0.33201855, -7.9830756, 5.206747, -3.1950865, 0
1170, 2783700794, 0.13050622, -0.83268064, 0.3956235, 0.36481568, -5.0633364, 3.4980521, -1.8936219, 0
1172, 2783734128, 0.1640781, -0.80185354, 0.38449284, 0.4269329, -3.7931798, 0.582095, -0.088430405, 0
1173, 2783750795, 0.18054216, -0.7850311, 0.37831295, 0.4560783, -4.2791176, 0.92606527, 1.1586208, 0
1175, 2783784129, 0.20993836, -0.74647623, 0.3670752, 0.51376283, -5.9914804, 2.9953172, 1.8242064, 0
1176, 2783800796, 0.22557737, -0.7229019, 0.36058623, 0.5445206, -1.6482643, 3.7138014, 1.5526524, 0
1177, 2783817463, 0.24339268, -0.69836634, 0.35614923, 0.57113874, 0.16924167, 2.2924147, -0.9265871, 0
1179, 2783850797, 0.28119653, -0.65322775, 0.33903643, 0.615852, -1.3040975, 5.9393053, 2.5022144, 0
1181, 2783884131, 0.32151452, -0.6013888, 0.3160116, 0.65961635, 0.02750148, 5.5658407, 3.7301197, 0
1184, 2783934132, 0.37660104, -0.5166447, 0.26950517, 0.7201487, 2.4225345, 4.8153033, 6.5568714, 0
1185, 2783950799, 0.39473265, -0.49052048, 0.25006095, 0.73555595, 1.9610481, 3.5722241, 7.534355, 0
1187, 2783984133, 0.4279914, -0.4412134, 0.20536561, 0.76156175, 1.5556608, 0.4894339, 12.191963, 0
1188, 2784000800, 0.442481, -0.41502556, 0.18202898, 0.77383906, 2.1358604, -1.4982101, 11.449255, 0
1189, 2784017467, 0.45479265, -0.38935247, 0.15859422, 0.78511995, 1.9786923, -4.0271645, 9.41836, 0
1191, 2784050801, 0.47139716, -0.34285378, 0.11432325, 0.8044649, 2.1957638, -7.099183, 5.0096807, 0
1192, 2784067468, 0.47597986, -0.32314023, 0.093216546, 0.81260794, 2.7845697, -7.7872424, 3.8996725, 0
1193, 2784084135, 0.479066, -0.30397037, 0.075218365, 0.82002264, 4.1761866, -7.183829, 3.0524235, 0
1196, 2784134136, 0.4865303, -0.25398988, 0.0331844, 0.8352684, 3.2960293, -4.549774, 0.7986326, 0
1197, 2784150803, 0.4903712, -0.2402487, 0.021267125, 0.8374733, 3.1518738, -4.776469, 1.1374273, 0
1199, 2784184137, 0.49877757, -0.21413016, -0.001794557, 0.83985907, 1.6679417, -6.447684, 0.20196152, 0
1200, 2784200804, 0.50182015, -0.202327, -0.013064091, 0.84087276, 0.9324009, -6.7055235, -0.47970772, 0
1202, 2784234138, 0.504831, -0.18017541, -0.035372082, 0.84346217, 1.3487837, -7.621598, -1.3161802, 0
1203, 2784250805, 0.50481313, -0.16966423, -0.045347665, 0.8451737, 1.7756826, -7.8443446, -3.046576, 0
1204, 2784267472, 0.50406, -0.16075763, -0.054627094, 0.8468139, 2.2510195, -7.887243, -4.916097, 0
1206, 2784300806, 0.50296676, -0.14848138, -0.06912313, 0.8486443, 2.7683198, -7.754246, -7.226017, 0
1207, 2784317473, 0.5028952, -0.1447033, -0.073511876, 0.8489705, 2.1769145, -7.789186, -7.9009075, 0
1208, 2784334140, 0.50249016, -0.14282507, -0.076765455, 0.84924036, 1.723754, -8.452762, -7.7192745, 0
1211, 2784384141, 0.49638873, -0.14335954, -0.079651974, 0.8524665, 3.5462074, -7.2440467, -7.8536925, 0
1214, 2784434142, 0.49304664, -0.15983327, -0.07211949, 0.8521468, 2.30899, -6.4655285, -8.106832, 0
1215, 2784450809, 0.49222797, -0.16971922, -0.06739111, 0.851095, 3.0835626, -7.3264008, -6.9691296, 0
1216, 2784467476, 0.49123892, -0.17817281, -0.059826948, 0.85050386, 4.720676, -7.516173, -5.138507, 0
1218, 2784500810, 0.48757517, -0.19538513, -0.039173227, 0.850034, 2.6527975, -7.5771723, -5.183442, 0
1219, 2784517477, 0.485506, -0.20758872, -0.030450955, 0.8486818, 3.5572865, -7.4308586, -4.686804, 0
1220, 2784534144, 0.4833607, -0.22219935, -0.022007218, 0.84646505, 4.2749453, -7.553522, -4.270406, 0
1222, 2784567478, 0.476695, -0.26061627, -0.0025313199, 0.8395427, 6.344902, -8.153296, -3.3846922, 0
1223, 2784584145, 0.47217256, -0.28443763, 0.009300108, 0.83430165, 7.847166, -8.650862, -2.6661897, 0
1226, 2784634146, 0.45668092, -0.36672643, 0.059124444, 0.80836606, 9.087042, -10.803971, 4.4187117, 0
1227, 2784650813, 0.45172918, -0.39258614, 0.074290544, 0.797681, 10.111747, -11.381098, 8.160484, 0
1230, 2784700814, 0.44038358, -0.3915859, 0.1264605, 0.7979522, -61.045937, -15.225747, 17.966703, 0
1231, 2784717481, 0.43662724, -0.3772391, 0.124459654, 0.8071892, 12.161001, 11.934898, 3.6153078, 0
1233, 2784750815, 0.43251857, -0.37908375, 0.12472486, 0.808495, -4.1155834, 0.34906006, 1.0721617, 0
1234, 2784767482, 0.4299899, -0.39827377, 0.12733078, 0.8001692, -1.3735944, 3.571833, 0.3660345, 0
1235, 2784784149, 0.422036, -0.43040964, 0.13524279, 0.78634584, -1.3377835, 4.5517445, 0.121767044, 0
1237, 2784817483, 0.3852532, -0.509709, 0.17657848, 0.7487282, -0.05159182, 4.8036056, -1.2367477, 0
1238, 2784834150, 0.35663694, -0.55678487, 0.21510491, 0.7186987, 0.97153884, 3.8442864, 0.39937687, 0
1241, 2784884151, 0.21998134, -0.70394415, 0.3230006, 0.5930757, 12.342062, -15.803566, 29.947372, 0
1242, 2784900818, 0.16874443, -0.73862433, 0.3503116, 0.550671, 21.250668, -4.5703983, 34.572773, 0
1243, 2784917485, 0.12582105, -0.7797907, 0.3869911, 0.4757422, 20.675972, 19.102884, 49.821106, 0
1246, 2784967486, 0.07615484, -0.8439317, 0.4327765, 0.30770352, -20.622917, 22.977314, -7.734165, 0
1247, 2784984153, 0.053875167, -0.8531036, 0.44151244, 0.27271867, -11.021784, 26.509813, -15.491104, 0
1249, 2785017487, 0.043997027, -0.85955316, 0.46015236, 0.21792074, -9.635233, 13.589492, -17.744808, 0
1250, 2785034154, 0.037140552, -0.8619062, 0.4634196, 0.2024294, -7.6163406, 12.379297, -16.751854, 0
1251, 2785050821, 0.028941061, -0.86366826, 0.46458068, 0.19339427, -4.9671855, 11.632686, -15.4193945, 0
1253, 2785084155, 0.014251812, -0.8659904, 0.46448767, 0.18467793, -3.8824437, 9.754779, -14.587635, 0
1256, 2785134156, -0.004866067, -0.87166655, 0.44958377, 0.19505237, -4.5441275, 8.459351, -14.309904, 0
1257, 2785150823, -0.0051847636, -0.873215, 0.44204628, 0.20508786, -4.956325, 7.601269, -13.684465, 0
1258, 2785167490, -0.0014548692, -0.87365794, 0.43454945, 0.21882342, -5.6075573, 6.7807884, -12.322937, 0
1260, 2785200824, 0.014090716, -0.87017095, 0.42016086, 0.2570332, -6.5475926, 4.6233773, -10.291409, 0
1262, 2785234158, 0.034612846, -0.85910296, 0.40556532, 0.3102545, -6.338936, 4.8995094, -6.2659025, 0
1264, 2785267492, 0.07354396, -0.83634585, 0.39512315, 0.3728159, -5.7480903, 5.112587, -1.993618, 0
1265, 2785284159, 0.09820033, -0.82011455, 0.39155743, 0.405523, -5.084027, 3.7240567, -0.4671421, 0
1266, 2785300826, 0.12441045, -0.80101717, 0.38911322, 0.43758592, -2.509742, 4.7271442, 0.9112091, 0
1268, 2785334160, 0.18330073, -0.75679654, 0.38932928, 0.49201608, 0.03317949, 3.6610644, 1.7994328, 0
1270, 2785367494, 0.2348541, -0.7136026, 0.38096195, 0.538962, -1.997634, 3.8737664, 3.0231972, 0
1272, 2785400828, 0.27701324, -0.66682154, 0.3693626, 0.5849626, 0.75224626, 5.498376, 2.8364878, 0
1273, 2785417495, 0.2976069, -0.64220405, 0.3617976, 0.60671556, 2.2024567, 6.563462, 3.5328827, 0
1274, 2785434162, 0.31906393, -0.6177512, 0.35169563, 0.6268087, 3.495126, 6.1444607, 4.163, 0
1276, 2785467496, 0.35658222, -0.5765236, 0.31638086, 0.66360384, -0.09998092, 0.5824712, 6.9501076, 0
1277, 2785484163, 0.3701711, -0.55744386, 0.29757833, 0.6809361, 0.9231978, -0.61446995, 6.6715546, 0
1278, 2785500830, 0.38192803, -0.53759485, 0.2829631, 0.6964567, 0.59277034, -0.81876373, 5.9823675, 0
1280, 2785534164, 0.4005529, -0.49884132, 0.2551289, 0.7249974, 0.9279652, 1.1663624, 6.230795, 0
1281, 2785550831, 0.40834084, -0.4801028, 0.23825352, 0.7389124, 0.22599529, 0.9039767, 5.6781826, 0
1283, 2785584165, 0.4247894, -0.44205818, 0.20059063, 0.76413286, 1.7301483, 1.341069, 6.3630505, 0
1285, 2785617499, 0.44813842, -0.4014497, 0.16244972, 0.78205967, 0.93288374, -1.2128189, 6.5527763, 0
1287, 2785650833, 0.4699765, -0.36339915, 0.120343335, 0.7953475, 0.7661874, -4.543769, 6.6602287, 0
1288, 2785667500, 0.47955397, -0.34415984, 0.09962167, 0.8010336, 0.6671072, -6.223307, 5.539175, 0
1289, 2785684167, 0.48688895, -0.3260066, 0.07932562, 0.80645114, -0.31145853, -7.2451653, 3.4582996, 0
1292, 2785734168, 0.49198306, -0.2772627, 0.025147213, 0.8248896, 1.2233536, -8.932924, 1.043292, 0
1293, 2785750835, 0.48981893, -0.26383072, 0.009021799, 0.83089507, 2.6450014, -8.581436, -0.3213873, 0
1295, 2785784169, 0.48730677, -0.24092266, -0.016587574, 0.8391724, 3.7831244, -6.984762, -2.5153542, 0
1296, 2785800836, 0.48777986, -0.23183745, -0.02568915, 0.84122515, 3.2789557, -6.1512814, -2.572516, 0
1297, 2785817503, 0.48905647, -0.22390045, -0.033138536, 0.84237254, 2.2577517, -5.8439403, -2.3517213, 0
1300, 2785867504, 0.49228272, -0.204271, -0.049318045, 0.84468687, 0.8720703, -5.1447835, -2.021864, 0
1301, 2785884171, 0.49227503, -0.19875559, -0.054076266, 0.84571534, 1.3528674, -4.6748405, -1.6218672, 0
1303, 2785917505, 0.49421787, -0.18777792, -0.060605235, 0.8466478, 1.1155999, -3.236523, -2.9046535, 0
1304, 2785934172, 0.4967974, -0.18321577, -0.06302619, 0.8459607, 0.69765264, -3.478735, -3.018897, 0
1305, 2785950839, 0.49923357, -0.17931557, -0.064270176, 0.84526825, 0.27679536, -3.7510338, -3.443944, 0
1308, 2786000840, 0.5012714, -0.1705073, -0.06490389, 0.84583634, 0.12325024, -4.3663836, -2.2310987, 0
1310, 2786034174, 0.49806595, -0.16714261, -0.066231735, 0.8482949, 1.3171774, -3.4410777, -3.058591, 0
1311, 2786050841, 0.4959749, -0.16687237, -0.065719225, 0.8496121, 1.5317748, -3.0441716, -3.2153678, 0
1312, 2786067508, 0.49418643, -0.1677117, -0.06480295, 0.85055894, 1.5743284, -2.608888, -2.9211712, 0
1315, 2786117509, 0.49414715, -0.17005001, -0.059159473, 0.85052866, 1.6100128, -2.2498944, -2.2760062, 0
1316, 2786134176, 0.49532315, -0.17126407, -0.054739, 0.84989667, 0.9969488, -2.277981, -1.9082136, 0
1318, 2786167510, 0.4984613, -0.17712083, -0.0442995, 0.84746647, -0.49000812, -0.805097, -0.84066296, 0
1319, 2786184177, 0.50043243, -0.18050717, -0.039304975, 0.8458352, -1.1807328, -1.3090838, 1.0309372, 0
1320, 2786200844, 0.5015895, -0.18216954, -0.035713576, 0.84495205, -1.5386252, -1.2372777, 1.5992622, 0
1322, 2786234178, 0.49836394, -0.18361585, -0.03136586, 0.84671843, -0.6032877, -0.5384537, 0.5083685, 0
1324, 2786267512, 0.49208444, -0.18677753, -0.028756643, 0.8497866, 0.25670904, 1.6305454, 0.029341698, 0
1326, 2786300846, 0.48978668, -0.19094056, -0.025487585, 0.8502931, -0.8793851, 1.3479018, 0.93150806, 0
1327, 2786317513, 0.48945975, -0.19242929, -0.02461906, 0.8501713, -1.4812049, 0.93301374, 0.855402, 0
1330, 2786367514, 0.4860801, -0.19509307, -0.021553313, 0.85158527, -0.68128103, -0.61741203, -0.19560719, 0
1331, 2786384181, 0.4840862, -0.19695213, -0.020546015, 0.8523179, 0.011100142, -0.9466797, -0.741271, 0
1332, 2786400848, 0.48215377, -0.19959725, -0.019749006, 0.85281646, 1.1067721, -1.6023123, -0.4907179, 0
1334, 2786434182, 0.4779368, -0.20448162, -0.020613862, 0.8540118, 0.38069168, -2.4235554, -2.4332743, 0
1335, 2786450849, 0.47569442, -0.20810957, -0.022757629, 0.8543328, 1.091428, -3.2875843, -3.5587935, 0
1337, 2786484183, 0.47070134, -0.21806577, -0.023310078, 0.85460025, 2.568779, -5.580127, -5.6345325, 0
1338, 2786500850, 0.4685641, -0.2269619, -0.022540353, 0.8534784, 3.7694, -6.0946274, -6.7969766, 0
1341, 2786550851, 0.4700957, -0.26914367, -0.014523589, 0.8404512, 7.070701, -9.866267, -5.901697, 0
1342, 2786567518, 0.4718825, -0.28229517, -0.008984175, 0.8351964, 7.4458675, -11.995583, -5.707608, 0
1345, 2786617519, 0.45330232, -0.3388655, 0.017932186, 0.8242346, 13.352316, -18.99923, -2.736773, 0
1346, 2786634186, 0.43959463, -0.36310643, 0.03075578, 0.8209517, 19.196903, -16.733269, 1.6757002, 0
1347, 2786650853, 0.42771387, -0.38602105, 0.05118119, 0.8157368, 22.679348, -16.085064, 5.293846, 0
1349, 2786684187, 0.42273474, -0.4081132, 0.12294905, 0.79976225, -20.313156, -19.275959, 69.63159, 0
1350, 2786700854, 0.40221125, -0.39546922, 0.10255405, 0.81933516, -31.351698, 19.310781, -17.497055, 0
1351, 2786717521, 0.3935486, -0.39770734, 0.116861135, 0.8205421, -5.2819276, 0.1789809, 1.8153238, 0
1353, 2786750855, 0.3846403, -0.43225405, 0.12879428, 0.80536807, -3.3344743, 0.49679086, 0.29425812, 0
1354, 2786767522, 0.37608522, -0.46419734, 0.13283065, 0.7908441, 0.21406299, 3.9412503, 0.13459682, 0
1355, 2786784189, 0.3615054, -0.4995306, 0.14459322, 0.7738689, 0.45452416, 4.8240237, -0.50509834, 0
1357, 2786817523, 0.31626, -0.5852483, 0.20251615, 0.7186435, 0.05680744, 3.4869268, 0.49135017, 0
1359, 2786850857, 0.24676473, -0.68868285, 0.28707188, 0.61839324, -5.3415823, 7.0767817, 13.416405, 0
1361, 2786884191, 0.15220696, -0.7672603, 0.34138033, 0.52115387, 12.031942, 2.3566313, 36.417023, 0
1362, 2786900858, 0.13090113, -0.793459, 0.3693914, 0.46565545, 21.639744, 22.103172, 37.281067, 0
1364, 2786934192, 0.14494132, -0.8290007, 0.41279548, 0.3483487, -20.469172, 7.3234625, 4.8627396, 0
1365, 2786950859, 0.12700748, -0.8437555, 0.42733088, 0.29888347, -19.654045, 27.05325, -2.598422, 0
1366, 2786967526, 0.1148548, -0.85320204, 0.43983716, 0.2557253, -14.681576, 25.451063, -17.70459, 0
1368, 2787000860, 0.10078736, -0.8620789, 0.45280394, 0.20402864, -11.35642, 17.171417, -26.586948, 0
1370, 2787034194, 0.092650786, -0.863042, 0.45562172, 0.19743414, -2.6098254, 13.627997, -17.990122, 0
1372, 2787067528, 0.09623559, -0.86281586, 0.4506854, 0.20776802, -2.062439, 12.504978, -14.052945, 0
1374, 2787100862, 0.10804304, -0.86197835, 0.43325928, 0.24000785, -5.7560415, 13.461688, -12.58131, 0
1376, 2787134196, 0.13362567, -0.8544542, 0.40707526, 0.29383478, -6.190013, 9.385849, -9.077641, 0
1377, 2787150863, 0.14985773, -0.84658676, 0.39366892, 0.32535452, -7.215609, 8.090414, -7.335514, 0
1378, 2787167530, 0.16673967, -0.8362102, 0.37963715, 0.35891974, -6.79078, 6.86675, -5.433148, 0
1380, 2787200864, 0.20595728, -0.8044288, 0.35646078, 0.42826268, -8.358326, 9.094012, -0.24297333, 0
1381, 2787217531, 0.22805981, -0.78152966, 0.34497526, 0.4671075, -7.884813, 5.260901, 0.9349594, 0
1382, 2787234198, 0.2462853, -0.7567237, 0.33302566, 0.50577044, -6.4136486, 2.1748579, 1.6313572, 0
1384, 2787267532, 0.27877298, -0.70488024, 0.3021723, 0.57803005, -3.408258, 3.0115793, 5.633521, 0
1386, 2787300866, 0.3210722, -0.6453207, 0.27966747, 0.6342376, -1.3984336, 2.0787284, 7.779457, 0
1389, 2787350867, 0.38409847, -0.55099136, 0.24628703, 0.69872516, -0.14329964, -4.1376038, 8.604544, 0
1391, 2787384201, 0.4054945, -0.49939886, 0.21334122, 0.7352943, -0.23860808, -4.935637, 6.616783, 0
1392, 2787400868, 0.4107242, -0.47539788, 0.19734612, 0.75256497, 0.532564, -4.440319, 7.809517, 0
1393, 2787417535, 0.4138276, -0.45106602, 0.18108374, 0.7697351, 2.395167, -3.6833868, 8.00738, 0
1395, 2787450869, 0.41866785, -0.4005978, 0.14946873, 0.80118364, 6.238427, -2.7054281, 6.191681, 0
1396, 2787467536, 0.4226377, -0.3777788, 0.13258827, 0.81306726, 6.3831034, -3.4706912, 4.321951, 0
1397, 2787484203, 0.42807725, -0.3581653, 0.115144536, 0.8217095, 6.3567758, -4.0472555, 2.4770002, 0
1399, 2787517537, 0.44139105, -0.3259228, 0.086148135, 0.8315792, 4.746537, -6.250304, 1.708045, 0
1400, 2787534204, 0.446458, -0.31186604, 0.074073285, 0.83541924, 3.387305, -6.406461, 0.34332657, 0
1404, 2787600872, 0.4585785, -0.27221435, 0.039449345, 0.8450125, 2.8024979, -3.3442345, -1.5831337, 0
1405, 2787617539, 0.46239698, -0.26426876, 0.034725543, 0.8456609, 2.5583446, -3.6637976, 0.8611498, 0
1407, 2787650873, 0.47248182, -0.24653691, 0.02787251, 0.84569556, 1.387383, -1.3186811, 0.20468616, 0
1408, 2787667540, 0.47840205, -0.23787877, 0.024947723, 0.84493804, 0.49175745, -1.4833443, 0.5086193, 0
1409, 2787684207, 0.4842384, -0.2296296, 0.020330522, 0.8440185, -0.14944908, -1.8962835, 0.5351658, 0
1411, 2787717541, 0.4929694, -0.21264389, 0.009724738, 0.8436034, 0.3867962, -2.5091782, 0.122431755, 0
1412, 2787734208, 0.4957255, -0.20393345, 0.0033820798, 0.8441881, 0.5295187, -2.7868967, -0.52813816, 0
1413, 2787750875, 0.49750802, -0.19539472, -0.0025535086, 0.84516114, 1.198573, -2.6222644, -1.4233599, 0
1415, 2787784209, 0.49951455, -0.17860985, -0.01171295, 0.84761065, 2.232576, -2.9432662, -1.3481455, 0
1416, 2787800876, 0.500861, -0.17130506, -0.01621414, 0.8482494, 2.2226684, -2.9134445, -1.9082727, 0
1420, 2787867544, 0.504899, -0.14804095, -0.035225373, 0.8496572, 1.9450542, -3.838387, -3.2142339, 0
1422, 2787900878, 0.5040157, -0.14243504, -0.043652736, 0.8507481, 3.2247155, -3.5593753, -4.5342083, 0
1423, 2787917545, 0.504327, -0.1417128, -0.045389276, 0.8505932, 3.4802566, -3.5344496, -4.629021, 0
1424, 2787934212, 0.50564516, -0.14200728, -0.045359053, 0.84976286, 3.441924, -3.3344624, -4.0986667, 0
1426, 2787967546, 0.5099528, -0.14152266, -0.042548876, 0.84741145, 1.9430894, -3.9437382, -3.7260842, 0
1427, 2787984213, 0.5118675, -0.14205593, -0.040676363, 0.84625894, 1.5149156, -3.7872977, -4.4477935, 0
1428, 2788000880, 0.5132292, -0.14392367, -0.03846291, 0.84522164, 1.1910385, -3.9201999, -4.6583395, 0
1430, 2788034214, 0.51440465, -0.15156731, -0.03409548, 0.8433564, 1.6062907, -4.1873155, -4.0362616, 0
1431, 2788050881, 0.5145244, -0.15565804, -0.03125895, 0.8426479, 2.3223174, -4.5090375, -3.3559895, 0
1434, 2788100882, 0.51250184, -0.17224793, -0.017684508, 0.8410452, 2.4463944, -3.4440134, -3.821272, 0
1435, 2788117549, 0.5122474, -0.18104078, -0.012642576, 0.83944273, 1.705761, -3.4338124, -3.4392524, 0
1436, 2788134216, 0.5127589, -0.19111244, -0.008355584, 0.8369479, 1.7963881, -3.922135, -2.4096928, 0
1438, 2788167550, 0.5164944, -0.21006712, 0.002556899, 0.8301181, 2.670285, -4.779111, -3.1065526, 0
1439, 2788184217, 0.5183781, -0.21905963, 0.010929648, 0.82654405, 1.6524653, -5.6380787, -4.103002, 0
1440, 2788200884, 0.5191971, -0.22971502, 0.019342784, 0.8229754, 1.2546834, -6.9041443, -3.903531, 0
1442, 2788234218, 0.5156214, -0.2577806, 0.035490885, 0.8163464, 1.3671492, -7.5867987, -2.0281901, 0
1443, 2788250885, 0.5115268, -0.27347916, 0.041187376, 0.813542, 2.5870612, -8.674862, 0.945323, 0
1445, 2788284219, 0.50128824, -0.2956556, 0.052949663, 0.8114749, 7.6372123, -8.766656, 0.7021427, 0
1446, 2788300886, 0.49608994, -0.30339658, 0.06376019, 0.81103456, 9.7310915, -10.072646, -0.1699791, 0
1450, 2788367554, 0.4872368, -0.37640592, 0.11630499, 0.7793519, 11.941804, -14.409262, 2.9580898, 0
1451, 2788384221, 0.4792681, -0.37934998, 0.14759015, 0.7775669, -20.097002, -29.836084, 56.29681, 0
1453, 2788417555, 0.4517916, -0.3841227, 0.15687567, 0.78976035, -13.441755, -0.27420044, 0.7644348, 0
1454, 2788434222, 0.44494197, -0.40575898, 0.1696103, 0.78013843, -6.4681606, -1.5261619, 0.77246666, 0
1455, 2788450889, 0.437079, -0.43970758, 0.18045825, 0.7635779, -2.3753786, 1.6358815, 0.08618641, 0
1457, 2788484223, 0.4009389, -0.52337074, 0.21313383, 0.7210424, 2.9443693, 3.8675025, -1.313735, 0
1458, 2788500890, 0.3727978, -0.57084435, 0.24625419, 0.68885034, 2.0366397, 3.2977526, 1.0011225, 0
1459, 2788517557, 0.33959186, -0.62155133, 0.28955477, 0.64382184, -0.8004426, 4.544735, 5.227392, 0
1461, 2788550891, 0.23696557, -0.7250165, 0.3563892, 0.53961337, 5.7679577, -17.18298, 24.21408, 0
1463, 2788584225, 0.13027573, -0.80239534, 0.40073287, 0.4226116, 16.218597, 33.404915, 63.407864, 0
1466, 2788634226, 0.06349624, -0.855859, 0.44575638, 0.2545037, -12.438035, 41.278667, -2.8073573, 0
1467, 2788650893, 0.0532494, -0.86445963, 0.45780954, 0.20070334, -11.590471, 28.79567, -18.29218, 0
1469, 2788684227, 0.030475795, -0.8733483, 0.46820518, 0.13082565, -10.947266, 16.720245, -28.500252, 0
1470, 2788700894, 0.018121634, -0.8736509, 0.47179297, 0.117534384, -5.0524716, 13.926951, -26.801092, 0
1472, 2788734228, -0.0011635737, -0.8732659, 0.47376886, 0.11377884, -0.40741628, 9.859473, -24.606665, 0
1473, 2788750895, -0.0055532316, -0.8737869, 0.47078875, 0.121740736, -0.68722636, 10.095853, -23.773659, 0
1474, 2788767562, -0.004650705, -0.87522393, 0.46371046, 0.13759111, -1.2344725, 9.731056, -21.535, 0
1476, 2788800896, 0.008669421, -0.8793957, 0.4390392, 0.18392937, -5.642068, 6.9674234, -16.10896, 0
1478, 2788834230, 0.033508606, -0.8781853, 0.40835568, 0.24680102, -8.115481, 7.317831, -9.656926, 0
1480, 2788867564, 0.08051603, -0.8643922, 0.38313752, 0.3155095, -10.814707, 8.297385, -2.6434193, 0
1482, 2788900898, 0.13845108, -0.8336079, 0.3665119, 0.38935253, -8.107213, 3.2781348, 0.753747, 0
1484, 2788934232, 0.19570968, -0.78549516, 0.36527503, 0.45963734, -4.144751, 7.1659417, 4.0864286, 0
1485, 2788950899, 0.22788668, -0.7552305, 0.3676796, 0.49244654, -1.843683, 6.780543, 3.6543684, 0
1486, 2788967566, 0.2588605, -0.7241219, 0.36694312, 0.5234394, -2.2700524, 6.563786, 5.597106, 0
1488, 2789000900, 0.31253034, -0.6629075, 0.35168883, 0.5824008, 0.92641044, 2.1968365, 3.773283, 0
1489, 2789017567, 0.33218968, -0.63567877, 0.34116226, 0.6075919, 0.867585, 1.9367818, 4.3572073, 0
1490, 2789034234, 0.349245, -0.61052954, 0.32873586, 0.6302472, 2.8781924, 3.2990415, 5.35112, 0
1493, 2789084235, 0.38929984, -0.54855657, 0.2725016, 0.68794733, 0.3651711, -3.126923, 7.1609955, 0
1494, 2789100902, 0.3977254, -0.5290434, 0.25308478, 0.7056012, 2.920473, -5.007713, 7.329239, 0
1496, 2789134236, 0.417869, -0.49083248, 0.22599989, 0.73033565, 4.759821, -5.7989006, 5.699929, 0
1499, 2789184237, 0.453337, -0.44437754, 0.1941754, 0.74786854, 3.2888122, -5.1934514, 4.032468, 0
1500, 2789200904, 0.46538255, -0.43194482, 0.18331674, 0.7504899, 2.1107376, -5.224877, 4.039015, 0
1501, 2789217571, 0.47669327, -0.41980392, 0.17283173, 0.7527647, 0.6509632, -4.80507, 3.5731716, 0
1503, 2789250905, 0.49369287, -0.39415625, 0.15368381, 0.759794, -0.21990898, -2.7686725, 2.9467392, 0
1504, 2789267572, 0.49935022, -0.38063148, 0.14469916, 0.7647407, 0.4372976, -2.2275853, 2.8102703, 0
1505, 2789284239, 0.5038719, -0.36730245, 0.13460465, 0.7701176, 0.9766764, -2.3341012, 2.147915, 0
1508, 2789334240, 0.51665884, -0.33065394, 0.104459986, 0.78282636, 1.9932543, -2.604794, 1.1631613, 0
1509, 2789350907, 0.5211542, -0.31942886, 0.09642217, 0.7855339, 1.980766, -2.4628062, 1.1912451, 0
1511, 2789384241, 0.5301428, -0.30047783, 0.07831877, 0.7890027, 0.35262904, -2.3460674, 1.7155809, 0
1512, 2789400908, 0.5345199, -0.29092455, 0.06835308, 0.7905547, -0.6940865, -2.529209, 1.472352, 0
1513, 2789417575, 0.53847396, -0.28102124, 0.058342863, 0.792254, -0.9644688, -2.8461359, 0.90685177, 0
1515, 2789450909, 0.5415782, -0.26105374, 0.04000799, 0.79808575, -0.68945295, -3.5788858, -0.04433918, 0
1516, 2789467576, 0.540706, -0.25324842, 0.030706778, 0.80159646, -0.53192204, -3.0811577, -0.40738297, 0
1517, 2789484243, 0.5397494, -0.24626583, 0.021974651, 0.8046975, 0.26700696, -2.5226026, 0.25182438, 0
1519, 2789517577, 0.53965217, -0.22968496, 0.0046383417, 0.8099359, 0.7563098, -2.9081829, -0.035040855, 0
1520, 2789534244, 0.53994757, -0.22145133, -0.0038609165, 0.8120335, 1.2556372, -3.6803517, -0.88674545, 0
1523, 2789584245, 0.5440819, -0.20053512, -0.018979657, 0.81449234, 1.8357307, -2.8696702, -2.9676547, 0
1524, 2789600912, 0.54679036, -0.19568579, -0.020815099, 0.813813, 1.8607174, -3.3878086, -1.7407494, 0
1526, 2789634246, 0.55401057, -0.1844787, -0.024033425, 0.8114553, 1.1943096, -3.4635158, -2.3342695, 0
1528, 2789667580, 0.5607303, -0.176534, -0.024522725, 0.8085872, 0.14997543, -3.4486346, -3.0449471, 0
1530, 2789700914, 0.5655098, -0.176463, -0.023480115, 0.8052985, -0.4782472, -2.552688, -3.1006618, 0
1531, 2789717581, 0.56732625, -0.17850855, -0.022516038, 0.8035956, 0.4957287, -3.967607, -1.3228273, 0
1532, 2789734248, 0.5690063, -0.1778034, -0.021925937, 0.80257976, 1.4138821, -4.3357744, -0.5676565, 0
1534, 2789767582, 0.5706159, -0.17504047, -0.01837419, 0.80213356, -0.2562635, -3.608708, -2.7617273, 0
1535, 2789784249, 0.57039154, -0.17524217, -0.016234187, 0.8022952, 0.35892218, -3.0837598, -2.8352041, 0
1538, 2789834250, 0.56914055, -0.18332304, -0.006474127, 0.8015155, 0.78182995, -2.8318481, -0.9645939, 0
1539, 2789850917, 0.56972677, -0.18467851, -0.004324567, 0.80080205, 1.1831601, -2.6817822, -0.5629864, 0
1540, 2789867584, 0.5699734, -0.18480314, -4.915601E-4, 0.8006093, -0.11141164, -1.6533238, -1.8803997, 0
1542, 2789900918, 0.5678227, -0.18816927, 0.0052556717, 0.801336, 0.15947205, -2.2013822, -1.2918234, 0
1544, 2789934252, 0.56242555, -0.19472107, 0.008328619, 0.80354804, 0.58305806, -2.6169777, -1.9229031, 0
1546, 2789967586, 0.55557, -0.20299001, 0.009999412, 0.80624706, 1.152796, -3.2359693, -2.3890681, 0
1547, 2789984253, 0.5520584, -0.20723574, 0.011493218, 0.8075582, 1.1535, -2.5925157, -3.165259, 0
1548, 2790000920, 0.548831, -0.21207546, 0.013822201, 0.80846447, 1.3737689, -2.8351052, -2.9025497, 0
1550, 2790034254, 0.5424237, -0.2235755, 0.01886951, 0.8095875, 2.023437, -4.102299, -2.7079687, 0
1553, 2790084255, 0.53128165, -0.24725245, 0.03285009, 0.8096445, 2.7675133, -4.029098, -2.6524253, 0
1554, 2790100922, 0.5277211, -0.25741386, 0.03891699, 0.8085367, 2.7407546, -3.9329822, -1.8143258, 0
1555, 2790117589, 0.52397853, -0.2673896, 0.043667726, 0.80748993, 1.9556177, -4.7043905, -1.0366936, 0
1557, 2790150923, 0.5111497, -0.28964952, 0.046845555, 0.8078564, 2.7682185, -6.3097687, -1.7806921, 0
1558, 2790167590, 0.5017971, -0.30236927, 0.04651114, 0.8090776, 4.551886, -7.028794, -2.459897, 0
1562, 2790234258, 0.45862943, -0.3774615, 0.06565202, 0.8017912, 13.774849, -14.953303, -4.343927, 0
1563, 2790250925, 0.44875687, -0.4088925, 0.07407026, 0.7911604, 18.09298, -21.734446, -0.4754238, 0
1565, 2790284259, 0.4394419, -0.4342418, 0.14133577, 0.7735287, -25.097435, -21.261318, 61.42058, 0
1567, 2790317593, 0.42448923, -0.4372835, 0.14453539, 0.7795504, -7.2050276, -0.93619114, 3.516183, 0
1569, 2790350927, 0.4036067, -0.4790247, 0.1725342, 0.7601752, -2.373026, 2.5378308, -0.88780403, 0
1570, 2790367594, 0.38682324, -0.5115079, 0.19103217, 0.7431228, -0.9272353, 2.9386876, -0.6470213, 0
1571, 2790384261, 0.36348858, -0.55305403, 0.21583094, 0.7179288, 0.96491146, 2.8793526, -1.1505156, 0
1573, 2790417595, 0.30129552, -0.6557536, 0.2930586, 0.6271542, -2.9821503, 5.4165344, 6.9745064, 0
1574, 2790434262, 0.2620715, -0.70068705, 0.32820004, 0.5767481, -4.7378273, 7.500856, 12.499077, 0
1575, 2790450929, 0.22008657, -0.7391627, 0.35545412, 0.52806264, 0.0013178324, -0.6105806, 16.299704, 0
1578, 2790500930, 0.16923472, -0.8010055, 0.4067116, 0.40537965, -10.462759, 34.51563, 20.938705, 0
1580, 2790534264, 0.14380203, -0.83337444, 0.42908883, 0.31731382, -11.536952, 27.367527, 3.9261074, 0
1582, 2790567598, 0.12786897, -0.8519938, 0.44409585, 0.24603339, -12.53944, 19.548267, -13.5188465, 0
1584, 2790600932, 0.1088906, -0.8622859, 0.44862038, 0.20818944, -8.969841, 13.957319, -17.955708, 0
1585, 2790617599, 0.09604361, -0.8647175, 0.44932014, 0.20285033, -6.5799184, 11.307449, -17.484003, 0
1586, 2790634266, 0.082328945, -0.86602193, 0.44965684, 0.20256892, -3.8489816, 10.056177, -17.059402, 0
1588, 2790667600, 0.06079742, -0.86661655, 0.44839448, 0.21028367, -2.958666, 8.186571, -16.559298, 0
1589, 2790684267, 0.052669425, -0.8671947, 0.44436413, 0.21848872, -3.3470876, 7.5517197, -15.740063, 0
1590, 2790700934, 0.047000904, -0.86829144, 0.43717822, 0.22963768, -3.8180475, 7.322626, -14.51625, 0
1592, 2790734268, 0.04858242, -0.86936945, 0.41730243, 0.26017785, -5.122008, 6.2822523, -11.034323, 0
1593, 2790750935, 0.055500377, -0.867606, 0.40889388, 0.27745757, -4.489886, 4.3749404, -9.154947, 0
1594, 2790767602, 0.06468958, -0.8639344, 0.4035621, 0.29422337, -4.6944265, 3.5151565, -7.0650444, 0
1597, 2790817603, 0.09949524, -0.8447977, 0.39582828, 0.3460275, -2.5839028, 4.23972, -1.6593037, 0
1598, 2790834270, 0.11474219, -0.8354979, 0.39469108, 0.3646833, -2.165649, 4.3700867, 1.5893221, 0
1600, 2790867604, 0.1482908, -0.81131524, 0.39260948, 0.40697992, -0.85233873, -1.3702221, 6.874525, 0
1601, 2790884271, 0.16175097, -0.798997, 0.39108366, 0.42719018, 1.2829068, -3.9216268, 7.0121765, 0
1602, 2790900938, 0.17295687, -0.78771853, 0.39095038, 0.44355458, 3.1058009, -5.9082756, 5.4328756, 0
1604, 2790934272, 0.19541247, -0.77132064, 0.3907314, 0.46282282, 3.5309212, -3.4467063, 5.6046124, 0
1605, 2790950939, 0.20920071, -0.7649645, 0.38847047, 0.46920395, 0.5590118, -3.172811, 5.6021633, 0
1608, 2791000940, 0.24344093, -0.7425474, 0.38421386, 0.49166745, -0.8431642, -6.99317, 2.802188, 0
1609, 2791017607, 0.24804398, -0.73634464, 0.38553885, 0.49762237, 0.13698448, -4.6916814, 2.5751991, 0
1612, 2791067608, 0.27544743, -0.7166357, 0.39382944, 0.5054283, 1.7877858, -0.44283816, 1.7507353, 0
1613, 2791084275, 0.28800896, -0.7112522, 0.39525434, 0.5049182, -0.11434906, -1.6853566, 0.28816605, 0
1615, 2791117609, 0.30552834, -0.7041294, 0.39720964, 0.5030666, -2.4879386, 1.5468518, -0.8724985, 0
1616, 2791134276, 0.31182414, -0.6993761, 0.3990772, 0.50435483, -3.4440804, 3.8377147, -1.2556448, 0
1617, 2791150943, 0.31782344, -0.6920464, 0.40138343, 0.50887007, -2.756108, 6.1347184, -1.1693516, 0
1619, 2791184277, 0.3323289, -0.67065233, 0.4038921, 0.52597684, -0.89318794, 6.5566406, -3.2117758, 0
1620, 2791200944, 0.33825484, -0.66098076, 0.40258425, 0.5353612, -0.751928, 6.2384415, -4.148104, 0
1621, 2791217611, 0.34286022, -0.6534387, 0.3980194, 0.5450162, -1.0212123, 7.7377753, -3.0314698, 0
1624, 2791267612, 0.35971978, -0.62657464, 0.3684798, 0.58500075, -2.6181931, 7.771492, -1.3524656, 0
1627, 2791317613, 0.3770536, -0.5835489, 0.33118147, 0.6384493, -4.2920055, 6.045753, 0.19266891, 0
1628, 2791334280, 0.38005555, -0.5677637, 0.314999, 0.6587679, -3.54575, 6.034825, 1.819664, 0
1629, 2791350947, 0.38362253, -0.5500251, 0.29808667, 0.6792995, -2.201311, 5.7660413, 2.774067, 0
1631, 2791384281, 0.39536497, -0.50934076, 0.2619598, 0.7180759, -0.4660122, 4.7273097, 5.190341, 0
1632, 2791400948, 0.40427405, -0.4868546, 0.24363554, 0.7349655, 0.65499645, 3.8210864, 5.969468, 0
1634, 2791434282, 0.42597616, -0.4425046, 0.2044805, 0.76218057, 1.204451, 1.1061232, 7.52194, 0
1635, 2791450949, 0.4374896, -0.4215204, 0.18205392, 0.7731605, 1.3200939, -0.25149456, 8.848906, 0
1636, 2791467616, 0.44932896, -0.39959916, 0.15941438, 0.7829488, 1.3833438, -2.034114, 9.060707, 0
1638, 2791500950, 0.47153643, -0.3534511, 0.11790773, 0.7992628, 0.74491173, -6.3085513, 7.4843483, 0
1642, 2791567618, 0.50160694, -0.27103052, 0.04906652, 0.820075, 3.6814845, -8.858028, 1.6587458, 0
1643, 2791584285, 0.5078895, -0.25415865, 0.034886576, 0.8223334, 2.9116597, -9.515072, -0.44627285, 0
1644, 2791600952, 0.5126531, -0.2393541, 0.022816386, 0.82424086, 2.976034, -9.574078, -1.258893, 0
1646, 2791634286, 0.51677847, -0.21173291, 0.0018733281, 0.82951987, 3.3667567, -8.489687, -2.2122622, 0
1647, 2791650953, 0.5173696, -0.1998301, -0.0072309603, 0.8320709, 4.00165, -6.6916575, -4.1159515, 0
1648, 2791667620, 0.5185176, -0.18980876, -0.014296104, 0.8336097, 4.945976, -5.634515, -4.922446, 0
1650, 2791700954, 0.52697164, -0.1740395, -0.020216234, 0.8316248, 5.121635, -5.0113497, -5.621957, 0
1651, 2791717621, 0.53395844, -0.16874368, -0.018922715, 0.82828337, 4.156157, -5.223586, -5.6773276, 0
1652, 2791734288, 0.54209596, -0.16489045, -0.016302276, 0.82381713, 2.6244154, -5.663241, -5.0902333, 0
1654, 2791767622, 0.5582725, -0.15971468, -0.010720532, 0.81406724, -1.2007774, -5.6848764, -5.3499966, 0
1658, 2791834290, 0.5659427, -0.16534647, -0.01031323, 0.8076264, 0.35069445, -7.505803, -5.4455748, 0
1659, 2791850957, 0.5623973, -0.1665183, -0.010173587, 0.809861, 1.7449818, -6.827757, -4.9682016, 0
1661, 2791884291, 0.55304813, -0.17055893, -0.0074884268, 0.8154684, 2.6605306, -5.468385, -5.8884945, 0
1662, 2791900958, 0.5497621, -0.17519489, -0.004952464, 0.81672585, 3.1533158, -5.1604037, -6.216772, 0
1663, 2791917625, 0.54807186, -0.18163961, 1.8509605E-4, 0.8164691, 3.3072464, -5.4435854, -5.9719954, 0
1665, 2791950959, 0.5451126, -0.19684324, 0.01760536, 0.8147347, 3.0992806, -6.881549, -2.1518035, 0
1666, 2791967626, 0.54328674, -0.20435722, 0.026384851, 0.81386673, 1.682385, -5.1602864, -2.3124971, 0
1667, 2791984293, 0.54083824, -0.21359643, 0.034159195, 0.8128352, 0.50024587, -4.5328994, -2.084216, 0
1669, 2792017627, 0.5314502, -0.23473527, 0.043723617, 0.8127397, 1.3072472, -5.867551, -1.8675656, 0
1671, 2792050961, 0.51462114, -0.26264113, 0.047125153, 0.81483835, 3.8195298, -6.746708, -4.3152246, 0
1673, 2792084295, 0.49515364, -0.30194837, 0.054020043, 0.8128525, 6.25289, -8.403702, -3.2666788, 0
1674, 2792100962, 0.48476097, -0.32381797, 0.059560172, 0.81030786, 7.9141674, -9.160743, -0.23299122, 0
1675, 2792117629, 0.47509336, -0.34405577, 0.06481274, 0.8072847, 9.303163, -9.200902, 2.1525345, 0
1677, 2792150963, 0.4579662, -0.37941876, 0.07800024, 0.8001387, 12.130549, -9.426475, 3.3910742, 0
1678, 2792167630, 0.45130673, -0.3964936, 0.087519445, 0.7946401, 13.823621, -10.031501, 3.0339413, 0
1679, 2792184297, 0.44633806, -0.41689757, 0.100691, 0.78539014, 14.952735, -11.567102, 2.412589, 0
1681, 2792217631, 0.42969316, -0.39343372, 0.1285804, 0.80251986, 4.0904365, 8.300197, -2.1085334, 0
1682, 2792234298, 0.42463523, -0.3983974, 0.13276953, 0.8020812, -12.123623, 4.486189, -0.389369, 0
1683, 2792250965, 0.41955474, -0.41638145, 0.13998978, 0.7943555, -4.1546717, -1.5107108, 1.7055244, 0
1688, 2792334300, 0.32361174, -0.61994535, 0.24641484, 0.67098457, -0.47203714, 4.0504813, 3.2258444, 0
1689, 2792350967, 0.28758344, -0.6728049, 0.29402137, 0.6149617, -3.3428931, 7.165527, 10.231892, 0
1690, 2792367634, 0.24369434, -0.71808285, 0.3333689, 0.5602078, -3.3749802, 6.289296, 17.083464, 0
1692, 2792400968, 0.16933532, -0.77732927, 0.38574523, 0.46720755, 17.545263, 17.003038, 37.691418, 0
1693, 2792417635, 0.16441986, -0.80121267, 0.41243663, 0.40114576, 2.4818082, 36.57095, 43.94469, 0
1694, 2792434302, 0.15711868, -0.8170985, 0.43180153, 0.34815046, -15.327655, 2.6323276, 8.420811, 0
1696, 2792467636, 0.107947275, -0.8450137, 0.45839944, 0.2533114, -8.34618, 29.195381, -5.9117413, 0
1697, 2792484303, 0.086735934, -0.85576004, 0.4639318, 0.21193513, -13.940639, 24.888803, -16.501297, 0
1698, 2792500970, 0.06731913, -0.8630404, 0.466083, 0.18273881, -11.772068, 21.448431, -22.785206, 0
1701, 2792550971, 0.029013675, -0.87080485, 0.4648349, 0.15742634, -2.886234, 10.559769, -21.234318, 0
1704, 2792600972, 0.03345621, -0.88061184, 0.4402812, 0.1719107, -3.0841794, 6.6197805, -16.320988, 0
1705, 2792617639, 0.041558225, -0.8843074, 0.4283289, 0.18112193, -4.562187, 6.3377414, -14.665919, 0
1706, 2792634306, 0.05203764, -0.88701206, 0.41596654, 0.1935738, -6.179552, 5.6903653, -12.756337, 0
1708, 2792667640, 0.075665995, -0.8839767, 0.3978486, 0.23361066, -8.817683, 3.051369, -7.337157, 0
1709, 2792684307, 0.08629807, -0.8783938, 0.39049792, 0.261698, -7.282531, 2.902876, -4.2156234, 0
1710, 2792700974, 0.09884656, -0.8705963, 0.38347277, 0.2919548, -4.0945287, 2.9342947, -0.7774744, 0
1712, 2792734308, 0.13429576, -0.8502302, 0.3763632, 0.34266818, -1.5630916, 0.27709436, 4.0503836, 0
1713, 2792750975, 0.15223962, -0.83892715, 0.37517375, 0.36368454, -2.918733, -0.7944478, 5.923991, 0
1716, 2792800976, 0.19070204, -0.7972898, 0.38285023, 0.42589283, -0.3931646, -3.354329, 5.2075424, 0
1717, 2792817643, 0.19991405, -0.78393793, 0.38764843, 0.4418165, 2.7962427, -2.7131824, 3.3944798, 0
1720, 2792867644, 0.24500844, -0.75342566, 0.39726752, 0.46313772, -0.35751244, 1.1568633, 2.305459, 0
1721, 2792884311, 0.26362035, -0.74311113, 0.3963929, 0.4702769, -0.532623, 0.9113493, 1.3256054, 0
1723, 2792917645, 0.29702017, -0.7183414, 0.39926684, 0.4861563, -3.1323442, 1.5606428, -0.84761715, 0
1724, 2792934312, 0.3110565, -0.7039519, 0.40091062, 0.49695447, -2.0718424, 4.3679624, 0.5980425, 0
1725, 2792950979, 0.32603532, -0.6865386, 0.4031156, 0.5097657, -0.1799105, 4.490471, 0.5642681, 0
1727, 2792984313, 0.35236064, -0.6493541, 0.40153807, 0.54124457, -0.42311004, 4.868188, 0.9836035, 0
1728, 2793000980, 0.36207312, -0.63207036, 0.39406127, 0.56044906, -0.03763824, 3.9251692, -0.15175247, 0
1731, 2793050981, 0.3886704, -0.58550197, 0.3645612, 0.61091346, -0.93166214, 5.0758057, 2.0022182, 0
1732, 2793067648, 0.39942268, -0.5684304, 0.35319018, 0.62658, -1.6515095, 4.188848, 1.406807, 0
1733, 2793084315, 0.40833825, -0.55095065, 0.34145823, 0.6427418, -2.008036, 3.0685508, 1.2574072, 0
1736, 2793134316, 0.41955236, -0.50200963, 0.29256856, 0.69739753, -0.5777212, 0.92500544, 4.118367, 0
1737, 2793150983, 0.42178398, -0.48580617, 0.27525178, 0.71436995, 0.9355737, 0.3435354, 3.3741798, 0
1739, 2793184317, 0.4281616, -0.45496032, 0.24147198, 0.74254805, 0.7452769, 0.019599851, 3.022008, 0
1740, 2793200984, 0.43167397, -0.4405871, 0.22454938, 0.75439763, 1.2710865, 0.6659841, 2.6651573, 0
1742, 2793234318, 0.44466394, -0.41424564, 0.1977539, 0.76913273, 2.7407534, 0.816485, 2.8382254, 0
1743, 2793250985, 0.45550928, -0.40182012, 0.18570226, 0.7723753, 2.3651528, -0.9276087, 9.64045, 0
1746, 2793300986, 0.4988321, -0.34413186, 0.14379506, 0.78234273, 0.3597535, -4.6870875, 4.077505, 0
1747, 2793317653, 0.5106489, -0.3264803, 0.12884894, 0.7848845, 0.26450992, -5.540219, 3.7357817, 0
1748, 2793334320, 0.52011985, -0.31042856, 0.11430611, 0.78742695, -0.4683325, -6.057282, 2.2054148, 0
1750, 2793367654, 0.53010654, -0.27928656, 0.08584135, 0.7959993, -0.5721832, -8.393621, 3.559967, 0
1751, 2793384321, 0.5300309, -0.262781, 0.070918776, 0.8031074, -0.8444659, -7.304963, 0.075538635, 0
1752, 2793400988, 0.5275873, -0.24886173, 0.056100566, 0.81028986, 0.6576624, -6.751978, -1.1973448, 0
1754, 2793434322, 0.5219921, -0.22526565, 0.03292626, 0.8220055, 3.6438615, -5.1384625, -2.7465801, 0
1755, 2793450989, 0.521295, -0.2153803, 0.025807781, 0.82534474, 3.5933275, -4.371976, -3.183878, 0
1756, 2793467656, 0.52253073, -0.20683146, 0.021481214, 0.82687265, 3.6155937, -4.1693983, -2.7127542, 0
1758, 2793500990, 0.5300296, -0.18907681, 0.016651353, 0.8264616, 2.0284364, -4.020784, -3.2022743, 0
1760, 2793534324, 0.5405518, -0.17318326, 0.014557218, 0.82316273, 0.015947213, -4.778155, -3.6726952, 0
1762, 2793567658, 0.54727405, -0.16284342, 0.011959965, 0.82087, -0.09179194, -5.787498, -4.308745, 0
1763, 2793584325, 0.54765487, -0.15929994, 0.010812672, 0.82132715, 0.47273996, -5.9225435, -4.4220667, 0
1766, 2793634326, 0.5430415, -0.15268081, 0.010487641, 0.8256404, 2.0293303, -3.2640016, -5.044812, 0
1767, 2793650993, 0.5424591, -0.15290524, 0.012723151, 0.82595015, 2.2458313, -2.4490302, -4.899499, 0
1769, 2793684327, 0.5427284, -0.15583657, 0.020579612, 0.82506645, 1.9351177, -2.8238711, -2.4124641, 0
1770, 2793700994, 0.5428434, -0.15765952, 0.023778671, 0.8245583, 2.226392, -3.7589386, -1.3101788, 0
1771, 2793717661, 0.5427975, -0.15891914, 0.025353184, 0.8242999, 1.8614366, -3.3202958, -2.2113233, 0
1773, 2793750995, 0.53991485, -0.16519454, 0.02753595, 0.824889, 1.4954797, -3.6337163, -3.0449376, 0
1775, 2793784329, 0.53377134, -0.1768236, 0.026286293, 0.82651573, 2.5801816, -4.7760353, -2.679235, 0
1777, 2793817663, 0.5258701, -0.18526721, 0.029481743, 0.8296175, 3.5821157, -3.3237906, -2.4217205, 0
1778, 2793834330, 0.523298, -0.19129795, 0.030903233, 0.8298234, 2.8809106, -2.2997043, -3.1793418, 0
1779, 2793850997, 0.5227279, -0.19914371, 0.031841505, 0.8283001, 2.18065, -2.8123999, -3.1403623, 0
1782, 2793900998, 0.5196392, -0.22389713, 0.03328906, 0.8238534, 0.8107327, -7.4963613, -3.7126083, 0
1783, 2793917665, 0.51283586, -0.23294441, 0.034402374, 0.82556045, 3.1527026, -9.196731, -4.1418724, 0
1785, 2793950999, 0.4940085, -0.25842163, 0.042071562, 0.8290966, 7.6502566, -10.776809, -5.549634, 0
1786, 2793967666, 0.48577306, -0.27560383, 0.05023393, 0.82797414, 10.5004, -11.060453, -4.4269257, 0
1787, 2793984333, 0.48155904, -0.2953622, 0.060868833, 0.8228939, 11.962341, -12.058063, -1.8943872, 0
1790, 2794034334, 0.48573223, -0.36489022, 0.09841819, 0.7881819, 12.507974, -25.749155, -2.9262428, 0
1791, 2794051001, 0.48348457, -0.40365458, 0.11280791, 0.7684904, 20.092062, -27.940277, 10.070261, 0
1793, 2794084335, 0.47486132, -0.38810647, 0.1495413, 0.7755739, 17.757837, 18.207842, 6.749077, 0
1794, 2794101002, 0.46452618, -0.40037394, 0.16247202, 0.7729917, -5.132765, -3.445189, 2.917944, 0
1796, 2794134336, 0.4413592, -0.45733356, 0.19549578, 0.7468782, -3.668875, 3.9990048, -0.02575016, 0
1798, 2794167670, 0.38949275, -0.5596315, 0.25001544, 0.6874574, 0.1275946, 5.3749123, 2.8688211, 0
1800, 2794201004, 0.30245212, -0.67502195, 0.3326069, 0.5850112, 5.3274174, -22.59699, 23.045193, 0
1801, 2794217671, 0.24570777, -0.7241007, 0.3632565, 0.53230447, 14.709897, -23.464745, 46.603413, 0
1802, 2794234338, 0.19253843, -0.7623514, 0.3943216, 0.47566497, 23.174957, 8.927907, 59.856953, 0
1805, 2794284339, 0.09957709, -0.836792, 0.43864182, 0.3121771, -18.84747, 36.763287, -8.077783, 0
1806, 2794301006, 0.07170545, -0.85082227, 0.44172, 0.2753919, -13.517694, 29.076057, -23.33809, 0
1808, 2794334340, 0.054821417, -0.86286724, 0.4482633, 0.22696358, -9.601994, 18.744865, -26.639383, 0
1809, 2794351007, 0.05691443, -0.8635448, 0.45182216, 0.21657632, -6.9715548, 15.861859, -22.071514, 0
1810, 2794367674, 0.060830645, -0.86238396, 0.45534736, 0.21272042, -5.11271, 13.612974, -18.158686, 0
1812, 2794401008, 0.063309945, -0.8585545, 0.45878902, 0.2199683, -5.1766405, 9.883122, -13.561096, 0
1814, 2794434342, 0.047176376, -0.8602379, 0.4470918, 0.24056557, -4.272922, 7.1481376, -11.478231, 0
1816, 2794467676, 0.031273324, -0.8649228, 0.4293557, 0.2580346, -3.916766, 7.2491627, -11.181813, 0
1817, 2794484343, 0.03165953, -0.8654218, 0.42420405, 0.26474705, -3.9239604, 6.975899, -10.7167425, 0
1820, 2794534344, 0.057506204, -0.8554276, 0.4206075, 0.29668787, -4.421303, 5.508281, -7.2692595, 0
1821, 2794551011, 0.069347985, -0.8501444, 0.41793892, 0.31268194, -4.157098, 6.044724, -5.6955047, 0
1823, 2794584345, 0.10326851, -0.8358556, 0.40930998, 0.3509187, -2.7110298, 5.572337, 0.6291666, 0
1824, 2794601012, 0.1247434, -0.8260896, 0.4045948, 0.37190798, -2.4948573, 2.4259975, 3.3710728, 0
1825, 2794617679, 0.14463584, -0.8143955, 0.4020409, 0.39268425, -1.9191426, -0.6809183, 4.027133, 0
1827, 2794651013, 0.17514002, -0.7895914, 0.40177152, 0.42947492, -0.51716405, 0.5729466, 4.146682, 0
1828, 2794667680, 0.19089645, -0.7764311, 0.40206677, 0.44615385, -0.010915032, 3.9074566, 5.307811, 0
1829, 2794684347, 0.21155937, -0.760738, 0.4014895, 0.4640301, 0.8455218, 3.3705225, 5.4831705, 0
1831, 2794717681, 0.25214896, -0.72808844, 0.39998016, 0.49630782, 1.9955416, -2.1998131, 2.5033855, 0
1832, 2794734348, 0.26861638, -0.71401703, 0.39913344, 0.5086404, 2.8789308, -2.1160023, 0.7226343, 0
1835, 2794784349, 0.3167127, -0.67706823, 0.38812035, 0.53910273, 1.1405368, 2.537987, 3.336523, 0
1836, 2794801016, 0.33381537, -0.6618208, 0.3803209, 0.55309504, 0.9375946, -0.31179053, 2.4310312, 0
1837, 2794817683, 0.34730896, -0.647183, 0.37146991, 0.5679243, 0.27601436, -3.0583186, 0.72412395, 0
1839, 2794851017, 0.36775166, -0.6218191, 0.35530972, 0.59317136, 2.654874, 1.1855391, 2.5217028, 0
1840, 2794867684, 0.38241568, -0.6064349, 0.3484652, 0.6037915, 2.3712387, 2.344389, 3.0726128, 0
1841, 2794884351, 0.39735556, -0.59125924, 0.3391502, 0.61440665, -1.3372498, 0.21774386, 1.501154, 0
1844, 2794934352, 0.42326456, -0.5507887, 0.29711702, 0.655132, 1.7690865, -1.1955925, 2.5231628, 0
1845, 2794951019, 0.43147212, -0.53616047, 0.28508395, 0.6671494, 1.6518524, -0.914689, 2.5444527, 0
1847, 2794984353, 0.45102763, -0.5078158, 0.26093394, 0.6860087, 0.9288925, 0.14981358, 2.7803097, 0
