sep=,
DeviceTag:,Xsens_DOT_1,,,,,,,,,,,,,,,,,
FirmwareVersion:,3.0.0,,,,,,,,,,,,,,,,,
AppVersion:,2023.6.1,,,,,,,,,,,,,,,,,
SyncStatus:,Synced,,,,,,,,,,,,,,,,,
OutputRate:,60Hz,,,,,,,,,,,,,,,,,
FilterProfile:,General,,,,,,,,,,,,,,,,,
Measurement Mode:,Sensor fusion Mode - Extended (Quaternion),,,,,,,,,,,,,,,,,
StartTime:,2025-05-05 11:52:51.219 +0200,,,,,,,,,,,,,,,,,
 2025,,,,,,,,,,,,,,,,,,,

PacketCounter,SampleTimeFine,Quat_W,Quat_X,Quat_Y,Quat_Z,FreeAcc_X,FreeAcc_Y,FreeAcc_Z,Status
1, 2764217071, 0.58495224, 0.2321652, 0.08523441, -0.7724853, 0.059132587, -0.0035097497, 0.33984756, 0
2, 2764233738, 0.5849725, 0.23222102, 0.08519933, -0.7724569, 0.046121452, 0.01871029, 0.30392742, 0
3, 2764250405, 0.5849924, 0.23226444, 0.08514545, -0.7724347, 0.0034101373, -0.0014286399, 0.36554718, 0
4, 2764267072, 0.5850032, 0.23230019, 0.08506649, -0.7724245, -0.027681855, -0.042965148, 0.3641615, 0
5, 2764283739, 0.5850047, 0.23235926, 0.08498632, -0.7724144, -0.020137623, -0.09282956, 0.3722105, 0
6, 2764300406, 0.58500516, 0.2324286, 0.08492408, -0.7724001, 0.03588836, -0.11943085, 0.32547474, 0
7, 2764317073, 0.5850073, 0.23248695, 0.08487256, -0.7723868, 0.015277558, -0.13108976, 0.31976795, 0
8, 2764333740, 0.5850129, 0.23255979, 0.08482312, -0.77236587, -0.0025931974, -0.057860773, 0.3088913, 0
9, 2764350407, 0.58504313, 0.23263934, 0.084782146, -0.7723236, -0.048789304, 0.0061463313, 0.36620235, 0
10, 2764367074, 0.585067, 0.23270926, 0.08471508, -0.77229184, -0.029763209, -0.0076560904, 0.30757427, 0
11, 2764383741, 0.5850301, 0.2327664, 0.08464078, -0.77231073, 0.0068356968, -0.03658192, 0.36923027, 0
12, 2764400408, 0.58501434, 0.23281424, 0.08457354, -0.77231556, 0.010184368, -0.08359005, 0.35824585, 0
13, 2764417075, 0.58500344, 0.23286958, 0.08450874, -0.77231425, -0.015029458, -0.09236668, 0.35695362, 0
14, 2764433742, 0.58500934, 0.23294188, 0.084444806, -0.7722948, 0.013859144, -0.07920217, 0.33669853, 0
15, 2764450409, 0.58500415, 0.23302864, 0.084415406, -0.77227575, 0.013467102, -0.042074427, 0.35000896, 0
16, 2764467076, 0.5849904, 0.23311049, 0.08438831, -0.7722644, 0.009380168, -0.00608685, 0.3101883, 0
17, 2764483743, 0.58498573, 0.23316973, 0.084351294, -0.7722543, -0.037301406, 0.018810615, 0.35220814, 0
18, 2764500410, 0.5850171, 0.23321299, 0.08431251, -0.7722217, 0.006200473, -0.015672736, 0.36626625, 0
19, 2764517077, 0.58501637, 0.23323022, 0.08428192, -0.7722203, -0.0025545296, -0.02282474, 0.3552761, 0
20, 2764533744, 0.5850092, 0.23324904, 0.08426476, -0.772222, 0.023947082, -0.053932235, 0.32211208, 0
21, 2764550411, 0.5849638, 0.23327158, 0.0842425, -0.7722519, 0.019748934, -0.021017557, 0.34413338, 0
22, 2764567078, 0.5849762, 0.23329352, 0.08423155, -0.7722371, 0.042971708, -0.011209121, 0.3295622, 0
23, 2764583745, 0.58499575, 0.2333303, 0.084215626, -0.772213, 0.02581217, -0.0077789617, 0.33085632, 0
24, 2764600412, 0.58499056, 0.23336466, 0.08419169, -0.7722091, 0.009324066, 0.0055494476, 0.31333065, 0
25, 2764617079, 0.58501095, 0.23340942, 0.08415995, -0.77218366, 0.006071059, -0.031686217, 0.36021042, 0
26, 2764633746, 0.5850351, 0.23344944, 0.08413848, -0.77215546, 0.042525128, -0.058188643, 0.3736, 0
27, 2764650413, 0.5850289, 0.23350622, 0.08411693, -0.77214545, 0.027846586, -0.06813662, 0.37356567, 0
28, 2764667080, 0.58503705, 0.2335661, 0.084083185, -0.7721249, 0.022280442, -0.05660113, 0.34210587, 0
29, 2764683747, 0.5850501, 0.23364706, 0.0840519, -0.77209365, 0.03281103, -0.020610573, 0.31123543, 0
30, 2764700414, 0.585048, 0.23374815, 0.08399191, -0.77207136, 0.06281385, -0.030144082, 0.33340645, 0
31, 2764717081, 0.585061, 0.23382388, 0.08392247, -0.7720461, 0.058504514, -0.038300578, 0.3093338, 0
32, 2764733748, 0.5850524, 0.23391116, 0.08382917, -0.7720364, 0.031472858, -0.0577972, 0.31459808, 0
33, 2764750415, 0.5850514, 0.23399255, 0.08373185, -0.77202296, 0.0038602923, -0.047030337, 0.32669163, 0
34, 2764767082, 0.58506155, 0.23410134, 0.08364896, -0.77199113, 0.010447219, -0.045954976, 0.3218298, 0
35, 2764783749, 0.5850627, 0.2342248, 0.08356812, -0.77196175, 0.032061815, -0.06738278, 0.392375, 0
36, 2764800416, 0.58507216, 0.23435844, 0.08349657, -0.77192175, 0.048062436, -0.052382994, 0.35508537, 0
37, 2764817083, 0.58505976, 0.23450765, 0.08340868, -0.7718953, 0.02004196, -0.037340246, 0.3448267, 0
38, 2764833750, 0.5850892, 0.23464552, 0.08332079, -0.7718407, 0.023150802, -0.043025218, 0.3250208, 0
39, 2764850417, 0.5850961, 0.23477839, 0.08323122, -0.7718047, -0.03551442, -0.023235314, 0.34049606, 0
40, 2764867084, 0.58510464, 0.23489612, 0.08316165, -0.7717698, -0.04057945, 0.027823381, 0.35132122, 0
41, 2764883751, 0.5850977, 0.23500103, 0.08308584, -0.7717514, -0.015735758, -0.020464828, 0.33774185, 0
42, 2764900418, 0.5851022, 0.23508506, 0.083018705, -0.7717296, 0.047517065, -0.04623917, 0.30161285, 0
43, 2764917085, 0.5851028, 0.23516536, 0.08294388, -0.7717127, 0.054246146, -0.050252877, 0.31245518, 0
44, 2764933752, 0.5851071, 0.23524362, 0.08288655, -0.7716917, 0.025466654, -0.010807984, 0.33683777, 0
45, 2764950419, 0.5850537, 0.23533744, 0.08280913, -0.77171195, -0.024074133, -0.0073437453, 0.3523636, 0
46, 2764967086, 0.5851053, 0.23541334, 0.08275513, -0.77165556, -0.020034583, -0.034427036, 0.36120224, 0
47, 2764983753, 0.58513016, 0.23547567, 0.08272394, -0.7716209, -0.02848315, -0.03213119, 0.34262848, 0
48, 2765000420, 0.5851363, 0.23555249, 0.082691714, -0.77159625, 0.007776463, -0.032763366, 0.3183422, 0
50, 2765033754, 0.5852109, 0.23564881, 0.08267804, -0.77151173, -0.0042550163, -0.025736568, 0.33427238, 0
51, 2765050421, 0.585232, 0.23566882, 0.08267292, -0.7714901, -0.05115988, -0.021311311, 0.3545704, 0
53, 2765083755, 0.5852591, 0.23572166, 0.0826817, -0.7714525, -0.017321583, -0.06855933, 0.32120037, 0
54, 2765100422, 0.58525944, 0.2357488, 0.082687244, -0.7714434, 0.03590423, -0.13078983, 0.31943798, 0
55, 2765117089, 0.585253, 0.23580423, 0.08268089, -0.7714319, 0.007815577, -0.13282496, 0.32326126, 0
57, 2765150423, 0.5852862, 0.23598996, 0.08266226, -0.77135193, 0.026115477, -0.07350338, 0.37124062, 0
58, 2765167090, 0.5852907, 0.23608033, 0.08264279, -0.77132297, -0.017424176, -0.06702104, 0.35990238, 0
59, 2765183757, 0.58526933, 0.23615119, 0.08260544, -0.77132154, -0.05242921, -0.019738793, 0.3594036, 0
61, 2765217091, 0.58524513, 0.2362689, 0.0825487, -0.77131, 0.053739443, -0.094030134, 0.3291254, 0
62, 2765233758, 0.58529663, 0.23631963, 0.08254752, -0.7712555, 0.057503402, -0.08322379, 0.31281757, 0
63, 2765250425, 0.58525467, 0.23641916, 0.08251436, -0.7712603, 0.03399945, -0.08275693, 0.3731327, 0
65, 2765283759, 0.58527344, 0.23664264, 0.082454026, -0.771184, 0.021449868, 0.012748889, 0.3371086, 0
66, 2765300426, 0.58529234, 0.23672728, 0.082431905, -0.77114606, 0.018961275, 0.011555132, 0.3563099, 0
67, 2765317093, 0.58530104, 0.23677944, 0.082389586, -0.77112794, -0.01854487, 0.008935458, 0.3273449, 0
69, 2765350427, 0.5853005, 0.23693441, 0.082337976, -0.7710862, 0.039242618, -0.017717501, 0.28898144, 0
70, 2765367094, 0.5853071, 0.23703833, 0.08233761, -0.77104914, 0.084258795, -0.0047073485, 0.3360901, 0
72, 2765400428, 0.5853021, 0.2372481, 0.08233516, -0.7709889, 0.036170207, 0.05804847, 0.35254002, 0
73, 2765417095, 0.5852909, 0.23734859, 0.08230895, -0.7709693, -0.021507757, 0.039630923, 0.3173952, 0
74, 2765433762, 0.5851384, 0.2374237, 0.082243256, -0.7710689, -0.024471093, 0.011802001, 0.3855486, 0
77, 2765483763, 0.5853088, 0.23747939, 0.08229512, -0.7709169, 0.030465933, -0.05781449, 0.3274479, 0
78, 2765500430, 0.5853051, 0.23748823, 0.082309246, -0.7709155, 0.023947177, -0.034456227, 0.3064022, 0
80, 2765533764, 0.5853354, 0.23753922, 0.08238099, -0.7708691, -0.027156377, -0.05651958, 0.35735416, 0
81, 2765550431, 0.58533096, 0.23755886, 0.08240781, -0.77086353, -0.018651485, -0.08469335, 0.3081293, 0
82, 2765567098, 0.58532465, 0.23756653, 0.08244416, -0.7708621, -0.040459197, -0.06017311, 0.39307594, 0
84, 2765600432, 0.5852785, 0.23756711, 0.08246712, -0.77089435, 0.00946175, -0.072373286, 0.34978008, 0
85, 2765617099, 0.5851549, 0.23756674, 0.08242385, -0.770993, 0.058386277, -0.084473595, 0.31826782, 0
86, 2765633766, 0.5851207, 0.23757212, 0.08239358, -0.77102053, 0.009814007, -0.08330945, 0.32148457, 0
88, 2765667100, 0.58511806, 0.23759533, 0.08234291, -0.7710207, -0.0011877478, -0.15014511, 0.35246754, 0
89, 2765683767, 0.58511126, 0.237575, 0.08231577, -0.7710352, -0.052951336, -0.11079856, 0.38052654, 0
92, 2765733768, 0.5850692, 0.2375167, 0.082257204, -0.7710914, -0.0040685856, -0.10065028, 0.34091187, 0
93, 2765750435, 0.5850221, 0.23750353, 0.082248405, -0.771132, -0.004373478, -0.061437327, 0.32979965, 0
95, 2765783769, 0.58502054, 0.23747462, 0.08223287, -0.7711438, 0.04230318, -0.080839925, 0.33336353, 0
96, 2765800436, 0.5849944, 0.23739769, 0.08223274, -0.77118737, -0.013644349, -0.06720179, 0.34270668, 0
97, 2765817103, 0.5849532, 0.23730078, 0.08222559, -0.7712492, -0.10241051, -0.02542684, 0.3037424, 0
99, 2765850437, 0.58494127, 0.23715033, 0.082316816, -0.77129465, 0.013420835, -0.024542125, 0.34141922, 0
100, 2765867104, 0.584857, 0.23705763, 0.082370505, -0.7713814, 0.015518728, -0.042884845, 0.35816956, 0
101, 2765883771, 0.58482516, 0.23696183, 0.082441196, -0.77142745, 0.0010004439, -0.023460979, 0.3252926, 0
103, 2765917105, 0.5847972, 0.2368386, 0.08256689, -0.77147293, 0.018075269, -0.032623935, 0.32270813, 0
104, 2765933772, 0.58476937, 0.23677567, 0.08266147, -0.7715032, 0.052243695, 0.027005315, 0.32130623, 0
107, 2765983773, 0.5848422, 0.23660092, 0.083007246, -0.7714645, 0.026921911, 0.012540162, 0.36647892, 0
108, 2766000440, 0.5848359, 0.23653044, 0.08310151, -0.77148074, 0.013647924, -0.04453, 0.34514618, 0
109, 2766017107, 0.58481896, 0.23647179, 0.08319952, -0.771501, 0.04362973, -0.02986796, 0.31759453, 0
111, 2766050441, 0.58482003, 0.23635025, 0.08338758, -0.7715173, 0.078970924, 0.0030239767, 0.3101492, 0
112, 2766067108, 0.58480966, 0.23632318, 0.08347063, -0.77152437, 0.059335537, 0.004725366, 0.3465805, 0
113, 2766083775, 0.58478284, 0.23630261, 0.08349898, -0.7715479, 0.077453494, -0.017143313, 0.30815887, 0
115, 2766117109, 0.58489954, 0.23627216, 0.083553694, -0.77146286, 0.036659703, -0.0874995, 0.3428154, 0
116, 2766133776, 0.58504295, 0.23624127, 0.08356787, -0.77136195, -0.038223337, -0.10747724, 0.35727215, 0
117, 2766150443, 0.5850693, 0.23621602, 0.08354694, -0.77135193, -0.0395267, -0.11560138, 0.33923244, 0
119, 2766183777, 0.5850805, 0.23624867, 0.08351766, -0.7713368, 0.025521155, -0.14294828, 0.3178568, 0
122, 2766233778, 0.5850193, 0.23636127, 0.083397895, -0.7713616, -0.0712604, -0.06743444, 0.3747759, 0
123, 2766250445, 0.58517516, 0.23639648, 0.08340611, -0.7712318, -0.049431678, -0.07996166, 0.3804636, 0
124, 2766267112, 0.5850867, 0.23645747, 0.08335148, -0.771286, -0.0058430755, -0.09292804, 0.31598377, 0
126, 2766300446, 0.58503205, 0.23656198, 0.08329957, -0.77130103, 0.031149212, -0.035531472, 0.28581238, 0
127, 2766317113, 0.5851531, 0.23659801, 0.083307706, -0.77119726, 0.034966145, -0.016516963, 0.31641674, 0
128, 2766333780, 0.58514416, 0.23668031, 0.083287016, -0.77118117, 0.03925491, -1.02842154E-4, 0.3115673, 0
130, 2766367114, 0.5851424, 0.23681492, 0.0832652, -0.77114344, 0.03125605, -0.018441895, 0.36580276, 0
131, 2766383781, 0.585171, 0.23686032, 0.08324695, -0.7711099, -0.0030431289, -0.02013183, 0.34194374, 0
132, 2766400448, 0.58517754, 0.2368838, 0.083200656, -0.7711025, 0.016713405, -0.025947249, 0.3412876, 0
134, 2766433782, 0.58515453, 0.23687842, 0.08309996, -0.7711325, 0.0401921, -0.03817109, 0.32276058, 0
135, 2766450449, 0.58518445, 0.23684064, 0.08303851, -0.77112806, 0.003198247, -0.06289992, 0.30648232, 0
136, 2766467116, 0.58518517, 0.23682982, 0.08296768, -0.7711385, -0.05081746, -0.12612264, 0.31917763, 0
138, 2766500450, 0.5851561, 0.2368017, 0.0828759, -0.77117896, -0.10229339, -0.1292037, 0.3762312, 0
139, 2766517117, 0.58522487, 0.23677193, 0.0828833, -0.7711351, -0.07145084, -0.13385, 0.3648405, 0
140, 2766533784, 0.5851376, 0.23673584, 0.08284462, -0.77121663, -0.042390935, -0.13617173, 0.33686638, 0
142, 2766567118, 0.58520085, 0.236578, 0.08282765, -0.7712189, -0.0786171, -0.081599325, 0.33824158, 0
143, 2766583785, 0.5852213, 0.23650184, 0.08285528, -0.77122366, -0.09113048, -0.08236, 0.3299055, 0
144, 2766600452, 0.58525264, 0.2364133, 0.08290265, -0.771222, -0.08001876, -0.09570189, 0.3795557, 0
146, 2766633786, 0.58535504, 0.23621595, 0.08304417, -0.7711896, -0.0024481374, -0.1027294, 0.3519373, 0
148, 2766667120, 0.5853499, 0.23606703, 0.08314686, -0.771228, -0.031212466, -0.12702236, 0.33478355, 0
150, 2766700454, 0.58531314, 0.23608002, 0.08325466, -0.7712404, -0.012316681, -0.10303078, 0.35094166, 0
151, 2766717121, 0.5852079, 0.23613957, 0.083258875, -0.77130157, 0.013513146, -0.11501133, 0.3447113, 0
153, 2766750455, 0.58521533, 0.23627715, 0.08330935, -0.7712482, 0.06299668, -0.046267346, 0.3473587, 0
154, 2766767122, 0.5852878, 0.23634864, 0.08330738, -0.7711715, 0.03965388, -0.064711004, 0.3612833, 0
155, 2766783789, 0.58530116, 0.23645985, 0.08327524, -0.7711308, 0.025612125, -0.05986332, 0.3243389, 0
157, 2766817123, 0.58528954, 0.23674767, 0.08316547, -0.77106315, 0.06815625, -0.0014993494, 0.30309677, 0
158, 2766833790, 0.5852902, 0.23693384, 0.08311084, -0.7710115, 0.087138094, 0.035232443, 0.3214159, 0
159, 2766850457, 0.5852604, 0.23710416, 0.08304328, -0.7709888, 0.10536848, 0.05300236, 0.35946083, 0
161, 2766883791, 0.58520305, 0.23735844, 0.08290356, -0.7709692, 0.058023963, 0.12834184, 0.33966637, 0
163, 2766917125, 0.58522844, 0.23759764, 0.08280804, -0.77088654, 0.19151685, 0.13508084, 0.31966686, 0
165, 2766950459, 0.585265, 0.23780525, 0.08272467, -0.77080375, 0.18124084, 0.21755569, 0.3283043, 0
166, 2766967126, 0.5852816, 0.23786084, 0.0826247, -0.7707846, 0.10267671, 0.25766093, 0.32218742, 0
167, 2766983793, 0.5853469, 0.2378331, 0.08253328, -0.7707534, 0.049365517, 0.21267205, 0.38279533, 0
169, 2767017127, 0.5854162, 0.23770961, 0.082446635, -0.77074814, 0.062468294, 0.08351906, 0.40432072, 0
170, 2767033794, 0.58541495, 0.2376492, 0.08245401, -0.77076685, 0.06611826, -0.030217862, 0.36121655, 0
171, 2767050461, 0.5853946, 0.23761472, 0.08247105, -0.7707911, 0.09018479, -0.04070782, 0.36921883, 0
173, 2767083795, 0.5854805, 0.23753393, 0.08252411, -0.77074516, 0.0037183615, 0.028007392, 0.37178135, 0
174, 2767100462, 0.58551776, 0.2374417, 0.08255117, -0.7707423, -0.051492244, 0.05627921, 0.33045483, 0
175, 2767117129, 0.5854796, 0.2373539, 0.08256259, -0.7707971, -0.061412644, 0.010124082, 0.35147, 0
178, 2767167130, 0.5855422, 0.23699823, 0.082767874, -0.7708371, 0.07969332, -0.15013139, 0.30921268, 0
180, 2767200464, 0.58563316, 0.236855, 0.08296712, -0.77079064, 0.059854534, -9.6186006E-4, 0.3085127, 0
181, 2767217131, 0.5856666, 0.23678836, 0.08306031, -0.77077556, -0.03766551, 0.092649415, 0.3572998, 0
182, 2767233798, 0.58574307, 0.23674737, 0.08315908, -0.77071947, -0.08674449, 0.12680104, 0.36548233, 0
184, 2767267132, 0.58572793, 0.23660322, 0.08332682, -0.77075714, 0.15046623, -0.01804784, 0.34758186, 0
185, 2767283799, 0.5856452, 0.23653121, 0.083379306, -0.7708364, 0.19180116, 0.0039499435, 0.353364, 0
186, 2767300466, 0.5854998, 0.23651081, 0.08339138, -0.77095175, 0.11913509, 0.016754005, 0.30244064, 0
188, 2767333800, 0.58548856, 0.23649949, 0.08349609, -0.7709524, 0.015781078, 0.07517591, 0.2995882, 0
189, 2767350467, 0.5856199, 0.23651549, 0.083585404, -0.770838, 0.01161418, 0.06939952, 0.38308144, 0
190, 2767367134, 0.58560073, 0.23653412, 0.08362124, -0.7708429, 0.07391149, 0.010916432, 0.34571266, 0
193, 2767417135, 0.5857137, 0.2364232, 0.08361472, -0.77079207, 0.02118791, -0.022932757, 0.34153748, 0
194, 2767433802, 0.58572495, 0.23635797, 0.08355171, -0.77081025, -0.024512442, -0.0450739, 0.344944, 0
196, 2767467136, 0.58580554, 0.23627897, 0.0834285, -0.7707865, -0.0028582837, -0.19172911, 0.2981329, 0
197, 2767483803, 0.5858438, 0.23624916, 0.08341202, -0.77076834, -0.046002317, -0.20936993, 0.31096554, 0
198, 2767500470, 0.58587694, 0.23621967, 0.08342986, -0.7707504, -0.06876041, -0.13568571, 0.36291027, 0
200, 2767533804, 0.5858771, 0.23616493, 0.08344585, -0.7707652, -0.043652304, -0.0757993, 0.32816887, 0
201, 2767550471, 0.5858525, 0.23609182, 0.083439395, -0.770807, -0.035970163, -0.068112195, 0.32153702, 0
203, 2767583805, 0.5859041, 0.23586836, 0.08347242, -0.7708326, -0.032134682, -0.060592547, 0.36900425, 0
204, 2767600472, 0.58591425, 0.2357417, 0.08350626, -0.77085996, 0.019981835, -0.08174265, 0.3251238, 0
205, 2767617139, 0.58594275, 0.23561954, 0.08357517, -0.77086824, 0.05379197, -0.047537994, 0.29551792, 0
207, 2767650473, 0.58593297, 0.23547728, 0.08369923, -0.7709056, 0.045875363, 0.074932575, 0.34639263, 0
208, 2767667140, 0.5859277, 0.23537447, 0.08375449, -0.77093494, 0.08151227, 0.08485975, 0.3660183, 0
209, 2767683807, 0.5859114, 0.23527099, 0.08379892, -0.7709742, 0.06853153, 0.12613986, 0.36530495, 0
211, 2767717141, 0.58587617, 0.23502576, 0.08383076, -0.77107227, 0.030767675, 0.068564296, 0.37834358, 0
212, 2767733808, 0.5858327, 0.23489092, 0.08388257, -0.7711408, 0.0346507, -0.011894739, 0.36991596, 0
213, 2767750475, 0.5858557, 0.23472054, 0.08397776, -0.7711649, 0.04833289, 0.005686817, 0.37324333, 0
215, 2767783809, 0.5859747, 0.23440237, 0.0841854, -0.77114856, 0.1016566, -0.022204338, 0.32009125, 0
216, 2767800476, 0.58588254, 0.2342303, 0.08421906, -0.7712673, 0.017589351, -8.425788E-4, 0.33673573, 0
217, 2767817143, 0.5858763, 0.23404196, 0.08427808, -0.7713226, -0.036004584, 0.023641067, 0.37447643, 0
220, 2767867144, 0.5858823, 0.23360524, 0.08446066, -0.77143055, 0.11127369, -0.043907758, 0.32995796, 0
221, 2767883811, 0.585844, 0.23354174, 0.084500946, -0.7714745, 0.09569976, -0.035726905, 0.34981823, 0
223, 2767917145, 0.58567035, 0.23349844, 0.08448732, -0.7716208, 0.05891265, -0.011998864, 0.3136263, 0
224, 2767933812, 0.5855892, 0.23349406, 0.08446434, -0.7716862, 0.10238235, 0.034483835, 0.24387264, 0
227, 2767983813, 0.5856459, 0.23352394, 0.08452434, -0.7716276, 0.08864613, 0.0790809, 0.31788635, 0
228, 2768000480, 0.5855197, 0.23350571, 0.08450687, -0.77173084, 0.12444218, 0.1312579, 0.32280254, 0
230, 2768033814, 0.58546525, 0.2334023, 0.08443267, -0.7718116, 0.067253485, 0.09602746, 0.35945034, 0
231, 2768050481, 0.5855712, 0.23331808, 0.08443615, -0.7717563, 0.07546155, 0.12695822, 0.34842014, 0
232, 2768067148, 0.58556515, 0.23328686, 0.08444752, -0.7717691, 0.04950298, 0.047487758, 0.40445995, 0
234, 2768100482, 0.58567244, 0.23320332, 0.08458013, -0.77169836, 0.15326507, 0.12156547, 0.33585453, 0
236, 2768133816, 0.5858704, 0.23291036, 0.0847221, -0.771621, 0.012446689, 0.2750119, 0.339365, 0
238, 2768167150, 0.5860809, 0.23253672, 0.08486042, -0.7715585, 0.06791732, 0.100860804, 0.36523342, 0
239, 2768183817, 0.58616185, 0.23236872, 0.084932275, -0.7715397, 0.1440722, 0.03869571, 0.368495, 0
240, 2768200484, 0.58626115, 0.2322241, 0.085025765, -0.77149767, 0.18144089, 0.07455886, 0.3472271, 0
242, 2768233818, 0.58630174, 0.23196794, 0.085256, -0.7715184, 0.05365719, 0.14462766, 0.36121273, 0
243, 2768250485, 0.5862968, 0.23185164, 0.0853931, -0.77154195, 0.006675885, 0.17719279, 0.39326763, 0
244, 2768267152, 0.58638, 0.23171596, 0.085532084, -0.77150416, 0.016447201, 0.1270516, 0.37773418, 0
246, 2768300486, 0.5865309, 0.23150197, 0.08579104, -0.771425, 0.13352709, 0.021391844, 0.2881155, 0
247, 2768317153, 0.58659804, 0.23139861, 0.08589358, -0.7713934, 0.10571135, -0.036073882, 0.3319111, 0
248, 2768333820, 0.58663654, 0.2313223, 0.08598612, -0.77137667, 0.022237528, -0.10630198, 0.3901844, 0
251, 2768383821, 0.58692914, 0.23139681, 0.086212985, -0.7711064, 0.13667482, -0.063644804, 0.21593666, 0
252, 2768400488, 0.58701116, 0.23146594, 0.08630118, -0.7710135, 0.065415315, -0.1196775, 0.3915472, 0
254, 2768433822, 0.5871968, 0.23157386, 0.086391345, -0.77082956, -0.107942455, -0.08023547, 0.36545277, 0
255, 2768450489, 0.5873529, 0.23166914, 0.08640235, -0.7706808, -0.04107073, -0.1252489, 0.28625107, 0
256, 2768467156, 0.5874009, 0.2317948, 0.08637885, -0.770609, -0.0013976265, -0.1418097, 0.4411049, 0
259, 2768517157, 0.58753717, 0.2321406, 0.08627879, -0.7704122, -0.08860456, -0.2553088, 0.24817657, 0
261, 2768550491, 0.5875809, 0.23225485, 0.08610716, -0.7703636, -0.14017905, -0.21441983, 0.28931713, 0
262, 2768567158, 0.58753145, 0.23224537, 0.0859628, -0.7704203, -0.26013064, -0.32051408, 0.3070879, 0
263, 2768583825, 0.58755004, 0.23216145, 0.085812755, -0.77044815, -0.3493646, -0.38893434, 0.42996502, 0
265, 2768617159, 0.58769894, 0.23181902, 0.08566151, -0.7704546, -0.33420798, -0.5043226, 0.47351742, 0
267, 2768650493, 0.5877654, 0.23133145, 0.085820235, -0.7705327, -0.22696355, -0.57888794, 0.20581341, 0
269, 2768683827, 0.587851, 0.23090547, 0.086177, -0.77055544, -0.23699078, -0.4109099, 0.34702492, 0
270, 2768700494, 0.58795583, 0.23067221, 0.08632386, -0.7705289, -0.19937736, -0.24620318, 0.34375477, 0
271, 2768717161, 0.5879519, 0.23045859, 0.086408034, -0.7705862, -0.17797153, -0.13944963, 0.34822655, 0
273, 2768750495, 0.58788085, 0.23006392, 0.08648905, -0.7707494, -0.06785451, -0.28811035, 0.3855524, 0
274, 2768767162, 0.5878346, 0.22986789, 0.086526364, -0.7708388, 0.002577328, -0.30815092, 0.24899387, 0
275, 2768783829, 0.5877255, 0.2297692, 0.08658352, -0.7709451, 0.01317877, -0.2774688, 0.22108555, 0
277, 2768817163, 0.58767724, 0.22966637, 0.086757004, -0.7709929, 0.03508617, -0.025689047, 0.37961102, 0
278, 2768833830, 0.5876683, 0.22959213, 0.08680403, -0.77101666, 0.08525254, 0.033318687, 0.31394005, 0
281, 2768883831, 0.5877171, 0.22943266, 0.08661352, -0.77104825, 0.0026345472, -0.112537645, 0.18935966, 0
282, 2768900498, 0.5878315, 0.2293392, 0.086510584, -0.7710005, -0.14526308, -0.18148187, 0.31274796, 0
283, 2768917165, 0.5878957, 0.22922355, 0.086413525, -0.77099675, -0.29261935, -0.105091356, 0.41328526, 0
285, 2768950499, 0.58783555, 0.22929692, 0.08632972, -0.7710301, -0.0738717, -0.20772314, 0.49563313, 0
286, 2768967166, 0.587783, 0.22940704, 0.08638502, -0.7710314, 0.17292638, -0.16906922, 0.21192074, 0
288, 2769000500, 0.58770585, 0.2294999, 0.08645875, -0.7710542, 0.14576375, -0.17812313, 0.07351494, 0
289, 2769017167, 0.5877621, 0.22937122, 0.08642351, -0.7710537, -0.17368297, -0.12844957, 0.32357025, 0
290, 2769033834, 0.58782905, 0.22926453, 0.08638822, -0.77103835, -0.42810443, -0.0057019237, 0.59848595, 0
292, 2769067168, 0.5876985, 0.22925118, 0.08641271, -0.77113897, -0.0897152, -0.092034474, 0.545331, 0
293, 2769083835, 0.58758783, 0.22928436, 0.08648378, -0.77120554, 0.2132166, -0.13302043, 0.19391346, 0
296, 2769133836, 0.5874954, 0.22958758, 0.08648469, -0.77118564, 0.019258995, -0.105376005, 0.34892845, 0
297, 2769150503, 0.587536, 0.2297035, 0.08645184, -0.7711239, -0.16059473, 0.06409773, 0.5313282, 0
298, 2769167170, 0.58746886, 0.22982451, 0.086447224, -0.77113944, -0.18958056, 0.14396349, 0.48452377, 0
301, 2769217171, 0.58711433, 0.23042963, 0.08662981, -0.7712084, 0.42774612, -0.010829358, 0.27080345, 0
302, 2769233838, 0.5870162, 0.2306478, 0.08660963, -0.7712201, 0.39217204, 0.16041206, 0.27903938, 0
305, 2769283839, 0.5872298, 0.23136687, 0.08592899, -0.77091837, 0.13147368, 0.20316279, 0.37445068, 0
306, 2769300506, 0.5872899, 0.231645, 0.08558477, -0.77082723, -0.016725475, -0.018991103, 0.5131283, 0
308, 2769333840, 0.58738863, 0.23242329, 0.084905274, -0.77059287, -0.012360195, -0.21016379, 0.47925186, 0
309, 2769350507, 0.58747053, 0.23288856, 0.084625244, -0.7704208, -0.056025088, -0.23007426, 0.40189457, 0
311, 2769383841, 0.58750844, 0.23388815, 0.084083684, -0.7701483, 0.03926698, -0.12451975, 0.22996521, 0
313, 2769417175, 0.58761966, 0.2345572, 0.08357347, -0.7699154, -0.08521119, -0.17348962, 0.31979752, 0
315, 2769450509, 0.5875604, 0.23513433, 0.08304459, -0.7698419, -0.4048859, -0.09419308, 0.61103535, 0
316, 2769467176, 0.58743644, 0.23550339, 0.08280316, -0.76984954, -0.21072266, -0.16753213, 0.40497684, 0
317, 2769483843, 0.5873171, 0.23582324, 0.08266239, -0.7698579, 0.04810468, -0.15238705, 0.1811037, 0
319, 2769517177, 0.58718514, 0.23631066, 0.08256127, -0.76982003, 0.04933244, -0.08597234, 0.20462799, 0
320, 2769533844, 0.5872116, 0.23638834, 0.08246738, -0.76978606, -0.045392577, 0.0023709538, 0.30641556, 0
321, 2769550511, 0.58732677, 0.23637594, 0.08234599, -0.76971483, -0.1388496, -0.019434653, 0.44948387, 0
323, 2769583845, 0.58747447, 0.23634174, 0.08221466, -0.7696266, -0.14968774, -0.18537849, 0.52220535, 0
324, 2769600512, 0.5875318, 0.23631193, 0.08227976, -0.7695851, -0.13689141, -0.12961248, 0.338789, 0
325, 2769617179, 0.58749115, 0.2362204, 0.08236566, -0.76963496, -0.06739474, 0.035815302, 0.19181538, 0
328, 2769667180, 0.58729094, 0.23569618, 0.08246225, -0.7699382, 0.32282335, 0.06673601, 0.2632017, 0
329, 2769683847, 0.5872952, 0.23551273, 0.08239411, -0.76999843, 0.32320264, -0.058473147, 0.37254715, 0
331, 2769717181, 0.58710104, 0.23542652, 0.08197929, -0.77021706, -0.31561393, -0.16291943, 0.47039986, 0
332, 2769733848, 0.5869269, 0.2355695, 0.081748344, -0.7703305, -0.4979402, -0.20976798, 0.52292347, 0
333, 2769750515, 0.5868663, 0.2356544, 0.081660695, -0.7703601, -0.43055123, -0.26835486, 0.45482063, 0
335, 2769783849, 0.58666396, 0.23565793, 0.0817144, -0.7705074, 0.13718286, -0.23046061, 0.13789749, 0
336, 2769800516, 0.58670706, 0.23554666, 0.08181775, -0.7704978, 0.15772282, -0.19991617, 0.23793507, 0
338, 2769833850, 0.5868548, 0.23523945, 0.08194142, -0.77046585, -0.04447975, -0.10672438, 0.44268608, 0
339, 2769850517, 0.586908, 0.23506095, 0.08197052, -0.77047676, -0.105471514, -0.10243317, 0.3801794, 0
340, 2769867184, 0.58696985, 0.23492618, 0.082062505, -0.7704609, -0.0039785304, 0.044496763, 0.20006561, 0
343, 2769917185, 0.5868478, 0.23475994, 0.0825888, -0.7705482, 0.08279389, 0.147814, 0.34376335, 0
344, 2769933852, 0.5868974, 0.23471513, 0.08269741, -0.7705124, 0.30764234, 0.20922096, 0.32409286, 0
346, 2769967186, 0.5867914, 0.23477152, 0.08270784, -0.7705747, 0.28559458, 0.13819993, 0.29264355, 0
347, 2769983853, 0.5868231, 0.23483066, 0.08262562, -0.77054167, 0.13380246, 0.1829698, 0.17054558, 0
348, 2770000520, 0.58692306, 0.2348639, 0.08250107, -0.7704686, 0.08530439, 0.062770374, 0.13389015, 0
350, 2770033854, 0.58703244, 0.23480304, 0.08225785, -0.7704299, -0.09692572, -0.0944135, 0.5929289, 0
351, 2770050521, 0.58707, 0.23486175, 0.08219189, -0.77039033, -0.25357032, -0.057649445, 0.6374302, 0
352, 2770067188, 0.58711505, 0.23503724, 0.08215216, -0.7703068, -0.16927262, -0.06975595, 0.49577904, 0
354, 2770100522, 0.5871421, 0.23543939, 0.082134835, -0.77016526, 0.21620028, -0.0746599, 0.13429546, 0
355, 2770117189, 0.5871297, 0.23557247, 0.08208819, -0.770139, 0.15553574, 0.005041359, 0.15769005, 0
356, 2770133856, 0.58703125, 0.23568979, 0.08194641, -0.7701933, 0.11886175, 0.0065996796, 0.30678463, 0
358, 2770167190, 0.5868968, 0.23581642, 0.08175273, -0.77027756, 0.005055416, 0.1943188, 0.357625, 0
359, 2770183857, 0.58698803, 0.23591115, 0.08174126, -0.7701802, -0.03341854, 0.11658626, 0.45527554, 0
360, 2770200524, 0.5870014, 0.23605374, 0.08165388, -0.7701357, 0.073202506, 0.016293291, 0.45814514, 0
362, 2770233858, 0.5871058, 0.23641574, 0.081401914, -0.76997155, 0.23686317, -0.037985027, 0.23838139, 0
363, 2770250525, 0.5871873, 0.23654367, 0.08124961, -0.7698863, 0.021686792, -0.021290597, 0.24408531, 0
364, 2770267192, 0.58730036, 0.2366222, 0.08109479, -0.76979226, -0.13985139, -0.011210051, 0.33272266, 0
366, 2770300526, 0.58732426, 0.23669466, 0.08074676, -0.7697883, -0.0955044, -0.13530776, 0.3200264, 0
367, 2770317193, 0.58721817, 0.23676437, 0.08056729, -0.7698666, 0.05933129, -0.24158822, 0.28108025, 0
370, 2770367194, 0.58715117, 0.23728955, 0.08023064, -0.76979107, -0.08982494, -0.10899074, 0.47830868, 0
371, 2770383861, 0.5871347, 0.23762262, 0.0801581, -0.7697084, -0.16127309, -0.009311267, 0.4610529, 0
373, 2770417195, 0.5871735, 0.23830651, 0.0800083, -0.7694831, 0.07784442, 0.07831695, 0.15769005, 0
374, 2770433862, 0.5871773, 0.2384859, 0.079910204, -0.76943475, 0.19888362, -0.037529137, 0.14835167, 0
375, 2770450529, 0.5871351, 0.23855169, 0.07979904, -0.76945806, 0.07283639, -0.044660732, 0.2358017, 0
377, 2770483863, 0.58717775, 0.23873298, 0.07967942, -0.76938176, -0.034774594, -0.0622494, 0.49352932, 0
379, 2770517197, 0.5869849, 0.23896882, 0.07972783, -0.7694506, 5.473832E-4, 0.15929545, 0.3303089, 0
381, 2770550531, 0.5869229, 0.23891938, 0.07975005, -0.7695109, 0.05672267, 0.06457323, 0.2663269, 0
382, 2770567198, 0.5868619, 0.23875469, 0.07971675, -0.7696121, 0.11493416, -0.07022744, 0.33983517, 0
383, 2770583865, 0.58684623, 0.2385463, 0.0797001, -0.7696903, 0.023599168, -0.07320201, 0.3152895, 0
386, 2770633866, 0.58704954, 0.23812625, 0.079742074, -0.769661, -0.057803802, -0.34675217, 0.37808704, 0
387, 2770650533, 0.5870111, 0.23804721, 0.079840824, -0.7697046, -0.14565468, -0.32258308, 0.40265274, 0
389, 2770683867, 0.5869595, 0.23785235, 0.08017222, -0.7697697, -0.2869875, -0.03629496, 0.2970848, 0
390, 2770700534, 0.58679503, 0.23767619, 0.080373846, -0.7699285, -0.06859523, -0.057799786, 0.2744255, 0
391, 2770717201, 0.5867202, 0.23739424, 0.08063231, -0.7700454, 0.07766673, -0.0964304, 0.2508812, 0
393, 2770750535, 0.58655924, 0.23670551, 0.08110174, -0.77033067, 0.022491215, -0.15275463, 0.36931515, 0
394, 2770767202, 0.5864551, 0.23626094, 0.081415616, -0.7705133, -0.1836606, -0.0697093, 0.39597988, 0
396, 2770800536, 0.5862546, 0.2352687, 0.08225675, -0.77088016, -0.2584375, 0.042500474, 0.29633904, 0
397, 2770817203, 0.5861136, 0.23477706, 0.082776666, -0.77108157, 0.025660405, -0.022046616, 0.38029385, 0
398, 2770833870, 0.5859165, 0.23422927, 0.08334072, -0.7713371, 0.12329444, -0.026040593, 0.38214207, 0
401, 2770883871, 0.58546174, 0.23212014, 0.08502133, -0.77213633, 0.06049177, 0.14384346, 0.29102802, 0
402, 2770900538, 0.5853305, 0.23122394, 0.085561335, -0.77244484, 0.054268945, 0.1263819, 0.30665112, 0
404, 2770933872, 0.5850141, 0.22952898, 0.08663449, -0.7730703, 0.07467365, 0.019284105, 0.3864956, 0
405, 2770950539, 0.58491373, 0.22882904, 0.08720243, -0.77328986, 0.19833422, 0.04518661, 0.4563408, 0
406, 2770967206, 0.5847511, 0.2282106, 0.08777667, -0.7735305, 0.28389007, 0.101390265, 0.41270828, 0
408, 2771000540, 0.5844388, 0.22712961, 0.088775486, -0.7739707, 0.26740083, 0.32526168, 0.33942032, 0
409, 2771017207, 0.58439136, 0.22662814, 0.0891401, -0.77411157, 0.2694956, 0.35123175, 0.39300728, 0
410, 2771033874, 0.5842488, 0.22615793, 0.08937647, -0.77432936, 0.228966, 0.2560828, 0.3686428, 0
412, 2771067208, 0.58426803, 0.22506976, 0.08974961, -0.77458876, 0.06903242, 0.1971421, 0.32705212, 0
413, 2771083875, 0.58418274, 0.2244908, 0.08984623, -0.77480984, 0.03801933, 0.018556848, 0.4507103, 0
416, 2771133876, 0.58437324, 0.22287449, 0.09048699, -0.7750582, -0.1268483, -0.2667333, 0.30119514, 0
417, 2771150543, 0.58438647, 0.222399, 0.09073154, -0.77515614, -0.16491322, -0.27320006, 0.2768364, 0
419, 2771183877, 0.5842389, 0.22120386, 0.09138763, -0.77553236, -0.37601697, -0.12104225, 0.42836285, 0
420, 2771200544, 0.58419144, 0.22055517, 0.09175992, -0.7757087, -0.28618822, -0.19739966, 0.3493452, 0
421, 2771217211, 0.58413494, 0.22004037, 0.092174426, -0.77584845, 0.13017909, -0.2022981, -0.1326952, 0
423, 2771250545, 0.5840063, 0.21938436, 0.09326263, -0.77600086, 0.084619544, -0.21314296, 0.3493395, 0
424, 2771267212, 0.5839696, 0.21899423, 0.09378639, -0.7760756, -0.23640183, -0.008698063, 0.3084774, 0
425, 2771283879, 0.5838772, 0.21862799, 0.09419876, -0.77619845, -0.23371789, 0.107211076, 0.3687315, 0
427, 2771317213, 0.58384794, 0.21779923, 0.09508526, -0.7763453, 0.30665687, -0.3039322, 0.10050011, 0
428, 2771333880, 0.5837212, 0.21722917, 0.09564765, -0.77653134, 0.32451162, -0.2528062, 0.034870148, 0
429, 2771350547, 0.5835962, 0.21634574, 0.09620248, -0.7768032, 0.14481226, -0.036604118, 0.26909828, 0
431, 2771383881, 0.58333516, 0.2142146, 0.09725964, -0.77745783, -0.113730766, 1.1437266, 0.5759659, 0
432, 2771400548, 0.58334893, 0.21329641, 0.09772828, -0.77764136, 0.5196285, 1.5819123, 0.78525543, 0
433, 2771417215, 0.58324075, 0.21244955, 0.09829317, -0.77788305, 0.9513859, 0.46152028, 0.9805441, 0
435, 2771450549, 0.5825073, 0.21103476, 0.10011323, -0.7785853, -0.27422068, -0.014866028, 0.71114826, 0
436, 2771467216, 0.5821587, 0.2108085, 0.101101615, -0.7787797, -0.10765681, 0.3340277, 0.44927597, 0
437, 2771483883, 0.5815837, 0.21065992, 0.102047734, -0.7791261, 0.16719283, 0.5786842, 0.28932667, 0
439, 2771517217, 0.58018637, 0.21056488, 0.103792496, -0.77996254, 0.13482904, 0.65429807, 0.46570206, 0
440, 2771533884, 0.57973224, 0.21078572, 0.10449661, -0.7801465, 0.76033264, 0.22794594, 0.42373753, 0
443, 2771583885, 0.57858765, 0.21123216, 0.10690067, -0.78054965, -0.3279069, 0.26140153, 0.32203293, 0
444, 2771600552, 0.57826436, 0.21154411, 0.10785252, -0.78057396, -0.24974689, 0.07300549, 0.34597015, 0
446, 2771633886, 0.57739675, 0.21158089, 0.109997965, -0.78090674, -0.1683732, -0.1359881, 0.28713703, 0
447, 2771650553, 0.5770662, 0.21170634, 0.1110796, -0.780964, -0.34048802, 0.019080043, 0.35718822, 0
448, 2771667220, 0.5767585, 0.21217072, 0.112337366, -0.7808853, 0.11917242, -0.2579896, 0.29183006, 0
450, 2771700554, 0.576033, 0.2131849, 0.11516504, -0.7807325, 0.022465287, -0.13006778, 0.32786655, 0
451, 2771717221, 0.575811, 0.2136837, 0.11644152, -0.7805706, -0.53258264, 0.09292428, 0.7002344, 0
452, 2771733888, 0.5756283, 0.21460414, 0.11776747, -0.78025407, -0.41224626, -0.17500351, 0.80751705, 0
454, 2771767222, 0.5747093, 0.21834333, 0.12164764, -0.7792978, 0.1666868, -1.0646521, 0.45332623, 0
455, 2771783889, 0.5742055, 0.22084485, 0.124064386, -0.7785833, -0.098201536, -0.9959015, 0.19559288, 0
458, 2771833890, 0.5737637, 0.22633956, 0.12882918, -0.77655447, -0.69306403, -0.58539176, -0.079003334, 0
459, 2771850557, 0.57355094, 0.22674114, 0.12950078, -0.7764828, -0.4994446, -0.29350096, 0.116666794, 0
460, 2771867224, 0.5731659, 0.22665948, 0.13011302, -0.77668864, -0.3421304, -0.15975083, 0.31015015, 0
462, 2771900558, 0.5722369, 0.22644643, 0.13171135, -0.7771663, 0.050011024, 0.028103318, 0.30826283, 0
463, 2771917225, 0.57166237, 0.22615911, 0.13256764, -0.7775271, -0.060644206, -0.079826616, 0.33135605, 0
464, 2771933892, 0.57134783, 0.22561777, 0.13307567, -0.77782845, -0.17186515, -0.12901847, 0.26425648, 0
466, 2771967226, 0.5714904, 0.22408338, 0.13308604, -0.7781656, 0.30898565, -0.28621688, 0.43881607, 0
467, 2771983893, 0.5716656, 0.22327301, 0.13288, -0.778305, 0.2309032, -0.014085898, 0.4083147, 0
468, 2772000560, 0.5719301, 0.22268845, 0.13266502, -0.7783149, 0.008275791, 0.21131426, 0.36848354, 0
470, 2772033894, 0.5723659, 0.2213587, 0.13216804, -0.7784583, 0.18421021, 0.07467987, 0.1482439, 0
472, 2772067228, 0.5730953, 0.21841589, 0.13074878, -0.7789924, -0.012090263, 0.3357083, 0.24566174, 0
474, 2772100562, 0.574235, 0.21445477, 0.12865749, -0.77960163, 0.22180375, 0.31652415, 0.48940945, 0
475, 2772117229, 0.5746335, 0.2128246, 0.12786204, -0.7798856, 0.31602564, 0.16939013, 0.5914831, 0
477, 2772150563, 0.57515466, 0.21079499, 0.12675506, -0.7802333, 0.43806493, 0.019071747, 0.285367, 0
478, 2772167230, 0.57539475, 0.20992404, 0.12619868, -0.78038126, 0.40617868, 0.14828084, 0.23450851, 0
479, 2772183897, 0.5756639, 0.20892523, 0.12551293, -0.78056127, 0.15631022, 0.21828312, 0.2590723, 0
481, 2772217231, 0.5763563, 0.20690197, 0.124041155, -0.78082454, 0.05877653, 0.276064, 0.50387955, 0
482, 2772233898, 0.5765742, 0.20585853, 0.12339223, -0.7810424, 0.043805633, 0.10576527, 0.36120415, 0
483, 2772250565, 0.57680583, 0.20477742, 0.122720644, -0.78126127, -0.107926585, -0.006015963, 0.47283077, 0
485, 2772283899, 0.5774068, 0.2026056, 0.12136266, -0.7815956, 0.0056007877, -0.22514035, 0.21872616, 0
487, 2772317233, 0.57783103, 0.20148852, 0.120509826, -0.7817027, -0.1969889, -0.32680136, 0.51914597, 0
489, 2772350567, 0.57797873, 0.20165992, 0.120445415, -0.78155935, -0.3275444, -0.40924686, 0.10125637, 0
490, 2772367234, 0.5781509, 0.20130047, 0.1204114, -0.7815299, -0.14575727, -0.18563774, 0.030156136, 0
491, 2772383901, 0.5782661, 0.20051543, 0.120335415, -0.78165805, -0.082371674, -0.31328008, 0.46900558, 0
493, 2772417235, 0.57873243, 0.1996149, 0.11982395, -0.78162205, 0.11508191, -0.076355375, 0.3520937, 0
494, 2772433902, 0.57889473, 0.19970447, 0.11975533, -0.7814895, 0.3798654, -0.2520312, 0.61595345, 0
495, 2772450569, 0.57892644, 0.19971785, 0.11970491, -0.78147024, 0.2992472, -0.3338928, 0.56863594, 0
497, 2772483903, 0.57906044, 0.19970931, 0.119567074, -0.78139436, -0.31025967, 0.46939, 0.21137905, 0
498, 2772500570, 0.5791795, 0.1997383, 0.11946358, -0.7813145, -0.16926569, 0.3036935, 0.42316818, 0
499, 2772517237, 0.579193, 0.19976601, 0.11934869, -0.78131497, 0.06603942, -0.13186236, 0.61445427, 0
501, 2772550571, 0.57906175, 0.20011276, 0.119390845, -0.7813171, 0.19852108, 0.2014032, 0.29188156, 0
502, 2772567238, 0.57904863, 0.20048901, 0.119475044, -0.7812175, 0.026070999, 0.16995497, 0.30060482, 0
504, 2772600572, 0.57914686, 0.20122261, 0.11955799, -0.7809433, 0.0059908177, -0.029985828, 0.6065159, 0
505, 2772617239, 0.57916164, 0.20155421, 0.11954429, -0.7808489, -0.12739165, 0.014843607, 0.47469425, 0
506, 2772633906, 0.5791016, 0.20211515, 0.1196583, -0.780731, -0.009170736, 0.13782005, 0.25911713, 0
508, 2772667240, 0.5787438, 0.20332591, 0.12029684, -0.78058374, -0.17450282, -0.057080433, 0.38737202, 0
509, 2772683907, 0.5786599, 0.20374204, 0.12057784, -0.780494, -0.2300516, 0.036868908, 0.3423605, 0
510, 2772700574, 0.5786396, 0.20412397, 0.120839566, -0.78036886, -0.005812678, 0.095060036, 0.39773464, 0
512, 2772733908, 0.57824314, 0.20541133, 0.121853605, -0.7801672, 0.18366842, 0.117916465, 0.3864727, 0
514, 2772767242, 0.5777757, 0.2088692, 0.12399062, -0.77925825, 0.27907783, 0.044319544, 0.47924805, 0
516, 2772800576, 0.57659066, 0.21649069, 0.1282489, -0.77736425, 0.452869, 0.011388069, 0.7497387, 0
517, 2772817243, 0.5755506, 0.22226518, 0.13176772, -0.77591574, 0.5093894, 0.11434007, 0.8534603, 0
518, 2772833910, 0.5741539, 0.22928831, 0.13626708, -0.7741277, 0.51149464, 0.07339215, 1.1334724, 0
520, 2772867244, 0.57126355, 0.24367961, 0.14628117, -0.77003133, -0.18913622, -0.002418522, 0.62956333, 0
521, 2772883911, 0.570663, 0.24938059, 0.14968425, -0.76799476, -0.22038646, -0.026119556, 0.49922466, 0
522, 2772900578, 0.5724507, 0.252483, 0.14894272, -0.76579165, 2.600822, 3.3094056, 0.7361307, 0
524, 2772933912, 0.58198583, 0.24592713, 0.14259796, -0.7619361, 4.261968, 1.778244, -0.85908127, 0
525, 2772950579, 0.5859399, 0.23987639, 0.13800755, -0.76167977, 2.0955744, 2.6626813, -0.5392027, 0
527, 2772983913, 0.59730554, 0.22747092, 0.12848982, -0.7583151, -0.70822537, 1.3884703, -0.89415455, 0
529, 2773017247, 0.6116736, 0.21783762, 0.11977275, -0.75108254, -2.5512478, -0.6668811, -1.1180124, 0
531, 2773050581, 0.6182889, 0.20711707, 0.12144315, -0.7484257, -3.7216668, -13.652874, -0.7913151, 0
532, 2773067248, 0.6174158, 0.20204362, 0.12373061, -0.7501567, -5.1382647, -0.46458966, 1.6525326, 0
533, 2773083915, 0.61805964, 0.1998372, 0.12343902, -0.7502657, 3.586963, -1.1360382, 0.60036373, 0
535, 2773117249, 0.6173619, 0.19891065, 0.12453439, -0.7509049, 0.5143535, -1.2772498, 1.1500874, 0
536, 2773133916, 0.617489, 0.19861938, 0.12434342, -0.7509091, 0.65737516, 0.015330362, 0.24764538, 0
537, 2773150583, 0.61785924, 0.19869481, 0.123604074, -0.7507066, -0.1641573, -0.0687109, 0.63780594, 0
539, 2773183917, 0.61874485, 0.19792965, 0.120625824, -0.7506639, -0.2805016, 0.6417357, 0.44616508, 0
540, 2773200584, 0.6190026, 0.19795856, 0.11990197, -0.7505598, -0.25266775, 0.3691145, 0.56571865, 0
541, 2773217251, 0.6192174, 0.19808428, 0.119555354, -0.7504047, 0.020572802, -0.028359016, 0.27081585, 0
544, 2773267252, 0.61967325, 0.19836377, 0.11804195, -0.750194, -0.013211404, -0.01582086, 0.40687752, 0
545, 2773283919, 0.61995816, 0.19864874, 0.11731122, -0.74999785, -0.0011343282, -0.11771218, 0.6079912, 0
547, 2773317253, 0.6201161, 0.19951381, 0.11640966, -0.74977803, -0.13167922, -0.18856667, 0.19553185, 0
548, 2773333920, 0.62011623, 0.2000477, 0.116200626, -0.74966806, -0.2681306, -0.106253475, 0.14776611, 0
549, 2773350587, 0.62021375, 0.2005631, 0.11592001, -0.7494931, -0.091886625, -0.19363734, 0.31542492, 0
551, 2773383921, 0.6201959, 0.2011846, 0.11546093, -0.7494123, 0.05785074, 0.06439872, 0.13930416, 0
552, 2773400588, 0.6202041, 0.20128721, 0.115061864, -0.74943924, 0.09696327, 0.122449055, 0.10599327, 0
554, 2773433922, 0.62053347, 0.20130263, 0.11403827, -0.74931884, -0.2892566, -0.035826642, 0.6630268, 0
555, 2773450589, 0.6206496, 0.20133545, 0.11354726, -0.7492885, -0.45870045, -0.14173174, 0.71593475, 0
556, 2773467256, 0.62073433, 0.20144297, 0.113126025, -0.7492531, -0.3130167, -0.14219481, 0.42379856, 0
559, 2773517257, 0.6209631, 0.19993025, 0.11219367, -0.74960893, -0.13891174, 0.29920247, 0.23119164, 0
560, 2773533924, 0.6211238, 0.19898948, 0.11191955, -0.7497671, -0.56361854, 0.3842961, 0.8935318, 0
562, 2773567258, 0.6213051, 0.19741598, 0.11187735, -0.75003904, 0.015852433, -0.12545502, 0.3340273, 0
563, 2773583925, 0.6213355, 0.19658054, 0.11200239, -0.7502147, 0.66775054, -0.081048034, -0.5682516, 0
564, 2773600592, 0.6213724, 0.19560038, 0.11211102, -0.75042397, 0.61586523, 0.4812549, -0.61257935, 0
566, 2773633926, 0.6216687, 0.19365855, 0.11218828, -0.75067055, 0.0753375, 1.080277, 1.1650162, 0
567, 2773650593, 0.621959, 0.19308965, 0.1119577, -0.7506111, -0.1748439, 0.6875359, 2.310895, 0
568, 2773667260, 0.622216, 0.19283755, 0.11148317, -0.7505335, -0.04967106, 0.074091054, 1.957653, 0
570, 2773700594, 0.62268925, 0.19296722, 0.110633835, -0.75023335, 0.2357105, -0.42662203, 0.67424774, 0
571, 2773717261, 0.6229429, 0.19312547, 0.1103705, -0.7500208, -0.5819638, -0.6190552, 0.6137457, 0
572, 2773733928, 0.6230563, 0.19326974, 0.11051696, -0.7498679, -0.8833735, -0.5473189, 0.20036983, 0
574, 2773767262, 0.6225102, 0.19315884, 0.11223498, -0.7500948, -0.14482723, -0.15134458, -0.5779629, 0
575, 2773783929, 0.6222198, 0.19291963, 0.11332536, -0.7502335, -0.31906006, 0.35098255, 0.08891392, 0
576, 2773800596, 0.6219509, 0.19304784, 0.11440362, -0.75025964, -0.3177601, 0.40210608, 1.2417288, 0
578, 2773833930, 0.6209003, 0.19405787, 0.11716047, -0.75044394, 0.74245626, 0.38792846, 0.28541756, 0
579, 2773850597, 0.6204106, 0.19445494, 0.118418664, -0.7505485, 1.0083632, 0.68201, -0.80557823, 0
580, 2773867264, 0.62040555, 0.19458155, 0.11868385, -0.750478, 0.3806543, 0.2532719, -0.17507744, 0
582, 2773900598, 0.62082803, 0.19474563, 0.1179035, -0.75020903, -0.33780563, -0.68003786, 1.136548, 0
583, 2773917265, 0.6210766, 0.19506368, 0.117693335, -0.7499537, -0.57891935, -1.0739685, 0.7308388, 0
586, 2773967266, 0.62139875, 0.19571172, 0.117751986, -0.7495086, -0.16703078, 0.02672715, -0.637599, 0
587, 2773983933, 0.62158185, 0.1951955, 0.11745461, -0.74953794, -0.05149135, 0.35952133, -0.09166145, 0
589, 2774017267, 0.6225046, 0.19423735, 0.11631501, -0.7491989, -0.18419412, -0.08256438, 1.167223, 0
590, 2774033934, 0.62315106, 0.19390263, 0.115697354, -0.74884367, -0.07391462, -0.071441755, 0.772089, 0
591, 2774050601, 0.62394667, 0.19363095, 0.11495135, -0.7483663, -0.090930656, -0.083154894, 0.33311558, 0
593, 2774083935, 0.6266713, 0.19280119, 0.11110403, -0.7468835, -0.59244615, -0.16481937, 1.2292299, 0
594, 2774100602, 0.6287761, 0.19209924, 0.10768242, -0.7457958, -0.7505889, -0.23791127, 1.6705303, 0
595, 2774117269, 0.63101184, 0.19091234, 0.10420516, -0.7447054, -0.35357448, -0.4162756, 0.7839756, 0
597, 2774150603, 0.63408315, 0.18832956, 0.09891026, -0.7434751, 0.8037214, -0.55214584, -0.45820618, 0
598, 2774167270, 0.634948, 0.18725732, 0.0965085, -0.7433238, 0.14391507, -0.38540104, -0.13105392, 0
601, 2774217271, 0.6382427, 0.1866897, 0.09484214, -0.7408552, 0.7291644, -0.36600223, -0.31282616, 0
602, 2774233938, 0.63880193, 0.18729022, 0.09529314, -0.7401634, 0.9323242, -0.4381302, -0.06116581, 0
603, 2774250605, 0.6391485, 0.18830976, 0.0958954, -0.73952746, 0.38306108, 0.34019575, -0.33289528, 0
605, 2774283939, 0.6403514, 0.19097014, 0.09628761, -0.7377514, -0.7775564, 0.23567457, 0.80637264, 0
606, 2774300606, 0.64125264, 0.19215892, 0.09663296, -0.7366141, -0.08793379, 0.03913719, 0.19315529, 0
607, 2774317273, 0.64211595, 0.19318084, 0.097269095, -0.73551023, 0.0071943235, 0.38145718, -0.3512802, 0
609, 2774350607, 0.64305663, 0.19481494, 0.09915237, -0.73400426, 0.18236288, 0.009071022, 0.80049324, 0
610, 2774367274, 0.64351207, 0.19533788, 0.09932813, -0.7334423, 0.19783042, -0.051548794, 0.8009882, 0
612, 2774400608, 0.6441994, 0.19717893, 0.099685445, -0.7322968, 0.25748324, -0.01721265, 0.12347698, 0
613, 2774417275, 0.6441221, 0.19908975, 0.10107908, -0.7316565, 0.64656407, 0.7354265, -1.0528202, 0
616, 2774467276, 0.64035165, 0.20286503, 0.11724052, -0.73151785, 0.1900991, -2.2933877, 4.4535847, 0
617, 2774483943, 0.64004636, 0.20309727, 0.116725236, -0.73180294, 0.013543097, 0.4387544, 0.7090492, 0
618, 2774500610, 0.63965726, 0.2034615, 0.116273716, -0.73211384, -0.43087173, 0.45887437, 0.5545845, 0
620, 2774533944, 0.63881636, 0.20335506, 0.11747231, -0.732686, 0.1031034, -0.19773443, 0.05728817, 0
621, 2774550611, 0.63816833, 0.20293286, 0.11901912, -0.733118, 0.5249282, -0.6976093, 0.6142225, 0
622, 2774567278, 0.6376153, 0.20247719, 0.11996759, -0.7335704, 0.0054673506, -0.42940214, 0.545599, 0
624, 2774600612, 0.6372769, 0.20146148, 0.11970304, -0.734187, -0.54126364, 0.114739425, 0.07644558, 0
625, 2774617279, 0.6371411, 0.20082201, 0.119583815, -0.7344996, -0.27992293, -0.21359597, 0.26562214, 0
626, 2774633946, 0.63696647, 0.20008452, 0.119681895, -0.7348362, -0.1931742, -0.26378033, 0.27412415, 0
628, 2774667280, 0.63674587, 0.19899674, 0.12050584, -0.7351881, -0.23969552, -0.14180939, 0.40983582, 0
630, 2774700614, 0.63650846, 0.19833075, 0.12142153, -0.7354229, -0.14715624, 0.010133714, 0.3480358, 0
632, 2774733948, 0.63644636, 0.19787961, 0.121989906, -0.73550427, 0.052225813, 0.11151095, 0.3140192, 0
633, 2774750615, 0.6364372, 0.19767, 0.12218055, -0.73553675, 0.120075405, 0.12381358, 0.3022642, 0
635, 2774783949, 0.636324, 0.19725507, 0.12266115, -0.7356661, -0.14876598, 0.1444238, 0.35807133, 0
636, 2774800616, 0.6363167, 0.19701217, 0.122879975, -0.735701, -0.045513272, 0.09574194, -0.13002682, 0
637, 2774817283, 0.6362827, 0.19691905, 0.12324324, -0.7356946, 0.03542032, 0.08542662, 0.8047428, 0
639, 2774850617, 0.63614905, 0.1963456, 0.12383693, -0.73586375, 0.10379808, 0.24233423, 0.24313927, 0
640, 2774867284, 0.6361594, 0.19613706, 0.124023706, -0.735879, 0.28587654, 0.35675508, 0.38292217, 0
641, 2774883951, 0.63615906, 0.19592838, 0.1242408, -0.73589814, 0.2639204, 0.19284217, 0.3994522, 0
643, 2774917285, 0.6359869, 0.19555448, 0.12478216, -0.73605466, -0.012704832, 0.27472186, 0.4907694, 0
644, 2774933952, 0.63588655, 0.1955443, 0.12511976, -0.736087, 0.112935506, 0.45265442, 0.35673332, 0
645, 2774950619, 0.63573563, 0.19567917, 0.12534338, -0.7361433, 0.43235564, 0.49134195, 0.46866512, 0
647, 2774983953, 0.6354438, 0.19592358, 0.12449226, -0.7364749, 0.6165224, 0.3011444, -0.133214, 0
648, 2775000620, 0.6355122, 0.19583586, 0.123950034, -0.7365305, 0.43795878, 0.3128672, 0.08404255, 0
649, 2775017287, 0.63563013, 0.1957695, 0.12344552, -0.73653096, 0.0838368, 0.14882082, 0.6574888, 0
651, 2775050621, 0.6359118, 0.19596587, 0.12150833, -0.7365577, -0.15261309, -0.13210231, 0.19045734, 0
652, 2775067288, 0.6359998, 0.19591765, 0.12074934, -0.7366195, -0.12777543, 0.18432719, -0.23411655, 0
653, 2775083955, 0.6360501, 0.19576274, 0.12034791, -0.736683, -0.21349041, 0.065389805, 0.32177448, 0
655, 2775117289, 0.6358409, 0.19510609, 0.12086137, -0.7369537, -0.45832092, 0.046535257, 0.8070059, 0
657, 2775150623, 0.63568884, 0.19445023, 0.12262802, -0.73696625, 0.12124617, -0.0951039, 0.40579796, 0
659, 2775183957, 0.6354786, 0.19419572, 0.12470351, -0.7368664, 0.13498439, 0.3298481, 0.50957394, 0
660, 2775200624, 0.6353317, 0.19436134, 0.1255376, -0.7368078, 0.07081024, 0.5545071, 0.06820202, 0
662, 2775233958, 0.63516057, 0.19484751, 0.12664525, -0.7366374, 0.37507933, -0.08299025, 0.15149307, 0
663, 2775250625, 0.6351046, 0.19493504, 0.12700613, -0.73660046, 0.13227452, -0.2600235, 0.2696066, 0
664, 2775267292, 0.63513404, 0.19505572, 0.12730971, -0.7364907, -0.13474746, -0.13911071, 0.32174015, 0
666, 2775300626, 0.635237, 0.19553569, 0.12813064, -0.7361321, 0.023575028, -0.115551054, 0.23837471, 0
667, 2775317293, 0.63524127, 0.19566767, 0.12846297, -0.7360356, -0.070372626, -0.05491898, 0.3058033, 0
668, 2775333960, 0.635298, 0.19572185, 0.1286389, -0.7359413, -0.12070907, 0.089595445, 0.19006062, 0
670, 2775367294, 0.63551605, 0.19564278, 0.1286678, -0.735769, 0.033590198, -0.10411323, 0.3143301, 0
672, 2775400628, 0.63571656, 0.19523457, 0.12846808, -0.73573923, -0.1899916, 0.0033120709, 0.28605175, 0
674, 2775433962, 0.63595575, 0.19472994, 0.12821478, -0.7357103, 0.06143857, -0.013029744, 0.4728241, 0
675, 2775450629, 0.6360136, 0.19446, 0.12809718, -0.7357521, 0.014030802, 0.057263684, 0.38178158, 0
676, 2775467296, 0.63608706, 0.19423144, 0.12803048, -0.7357607, -0.20054118, 0.031583805, 0.37538242, 0
678, 2775500630, 0.636284, 0.19391504, 0.12803726, -0.7356726, -0.19304255, -0.3036052, 0.47787952, 0
679, 2775517297, 0.6363079, 0.19382687, 0.12815692, -0.7356544, -0.15868324, -0.27775994, 0.5160732, 0
680, 2775533964, 0.6362847, 0.19380951, 0.12832311, -0.73565006, -0.06877807, -0.18523139, 0.42246437, 0
682, 2775567298, 0.6363603, 0.19386533, 0.12842774, -0.7355517, -0.040838275, -0.097508475, 0.2620411, 0
683, 2775583965, 0.6364244, 0.1939024, 0.12840953, -0.7354895, -0.19036241, -0.22312304, 0.33367157, 0
684, 2775600632, 0.63646907, 0.1940241, 0.12834312, -0.7354303, -0.23456635, -0.43700454, 0.43986607, 0
687, 2775650633, 0.6366151, 0.19420916, 0.12801395, -0.7353125, -0.1574841, -0.26776063, 0.1685543, 0
688, 2775667300, 0.63666785, 0.19421485, 0.12791538, -0.73528254, -0.105507724, -0.14694524, 0.16418552, 0
690, 2775700634, 0.6368059, 0.1940442, 0.12764226, -0.7352555, -0.064578705, -0.11745326, 0.35703278, 0
691, 2775717301, 0.63686484, 0.19399334, 0.127434, -0.735254, -0.26453048, -0.28454158, 0.51337624, 0
693, 2775750635, 0.6369351, 0.19393283, 0.12702516, -0.7352799, -0.12156847, -0.27201214, 0.464633, 0
694, 2775767302, 0.63692695, 0.19390212, 0.12681837, -0.7353307, -0.10226478, -0.16221307, 0.39059734, 0
695, 2775783969, 0.6369066, 0.19385095, 0.12669301, -0.7353834, -0.083095185, -0.06785647, 0.2431879, 0
697, 2775817303, 0.63684446, 0.19362043, 0.12666559, -0.73550266, -0.12660064, 0.032892473, 0.4280882, 0
698, 2775833970, 0.63681424, 0.19350563, 0.12672059, -0.7355495, -0.15320718, 0.001977922, 0.475605, 0
699, 2775850637, 0.63678944, 0.19344804, 0.12677002, -0.7355778, -0.10005915, -0.10827795, 0.50326157, 0
702, 2775900638, 0.63672525, 0.19336316, 0.12658493, -0.7356876, -0.1381822, -0.17847788, 0.34996414, 0
703, 2775917305, 0.63669825, 0.19329984, 0.12660742, -0.7357237, -0.08289783, -0.051300693, 0.2319212, 0
705, 2775950639, 0.63663673, 0.19318348, 0.12678212, -0.7357775, -0.06729595, 0.06332222, 0.28057194, 0
706, 2775967306, 0.63656884, 0.19313864, 0.12695286, -0.7358185, -0.029208226, 0.044497434, 0.38354683, 0
707, 2775983973, 0.6364997, 0.19307466, 0.12712619, -0.7358651, 0.01752185, 0.014659712, 0.4566927, 0
709, 2776017307, 0.63643944, 0.19279236, 0.12740561, -0.735943, 0.22139472, 0.20913546, 0.55823517, 0
710, 2776033974, 0.6363815, 0.19255874, 0.12751624, -0.7360351, 0.2032685, 0.15188004, 0.72240067, 0
711, 2776050641, 0.6362687, 0.19259243, 0.12763028, -0.73610395, 0.09106521, 0.1725463, 0.44842052, 0
713, 2776083975, 0.6361393, 0.19242117, 0.12779635, -0.73623174, 0.101708, 0.38692245, 0.21752548, 0
714, 2776100642, 0.63606393, 0.19231506, 0.1279797, -0.73629266, 0.25652382, 0.6784223, 0.38119507, 0
715, 2776117309, 0.63588446, 0.19233182, 0.12833446, -0.73638165, 0.42213085, 0.81624055, 0.40027618, 0
717, 2776150643, 0.635373, 0.19274405, 0.12952717, -0.73650634, 0.4733961, 0.7087986, 0.4030428, 0
718, 2776167310, 0.63513327, 0.193065, 0.13007279, -0.7365329, 0.30861697, 0.39545864, 0.47763634, 0
720, 2776200644, 0.6348413, 0.19345729, 0.13043578, -0.7366176, 0.11779378, 0.18841237, 0.2643366, 0
721, 2776217311, 0.63484144, 0.19354878, 0.13035269, -0.73660815, 0.079109505, 0.2450966, 0.24035454, 0
722, 2776233978, 0.6349264, 0.19361748, 0.13023248, -0.73653805, 0.12520726, 0.19938643, 0.36463737, 0
724, 2776267312, 0.63501734, 0.19370285, 0.13023895, -0.73643607, -0.048918493, -0.02010974, 0.46151447, 0
725, 2776283979, 0.63503826, 0.19371632, 0.13037053, -0.7363912, -0.1763059, -0.03517049, 0.47977352, 0
726, 2776300646, 0.63501567, 0.19369167, 0.13053223, -0.73638856, -0.14280109, 0.018261958, 0.32079792, 0
729, 2776350647, 0.63506407, 0.19345313, 0.13085982, -0.7363515, -0.15306681, -0.18305331, 0.3050623, 0
730, 2776367314, 0.6351218, 0.19335909, 0.1309019, -0.7363189, -0.18338455, -0.2771814, 0.41846943, 0
732, 2776400648, 0.6352552, 0.19318247, 0.13091773, -0.7362473, -0.030532094, -0.14600961, 0.32969666, 0
733, 2776417315, 0.6352997, 0.19308817, 0.13092475, -0.7362324, 0.0017516711, -0.07069072, 0.21839046, 0
734, 2776433982, 0.6353637, 0.19300608, 0.13088423, -0.7362059, -0.06812004, -0.043868385, 0.21422672, 0
736, 2776467316, 0.63549304, 0.19276701, 0.13080186, -0.7361715, -0.25356138, -0.18306498, 0.47064686, 0
737, 2776483983, 0.6355517, 0.19263914, 0.13076419, -0.73616105, -0.3029564, -0.20035438, 0.41660118, 0
738, 2776500650, 0.6356179, 0.19257401, 0.13077147, -0.7361195, -0.23354243, -0.21585256, 0.4159794, 0
740, 2776533984, 0.6356776, 0.19241874, 0.1309279, -0.7360809, -0.121658996, -0.23340559, 0.2506008, 0
741, 2776550651, 0.63573176, 0.19227797, 0.13097051, -0.7360633, -0.15096423, -0.18500078, 0.22580528, 0
744, 2776600652, 0.6359199, 0.19193557, 0.13089941, -0.73600286, -0.12440284, -0.2006934, 0.40285683, 0
745, 2776617319, 0.63593495, 0.19187741, 0.13086927, -0.7360104, -0.15779434, -0.25684148, 0.4506607, 0
747, 2776650653, 0.6359743, 0.19177005, 0.13086689, -0.7360047, -0.13858317, -0.2637671, 0.42666245, 0
748, 2776667320, 0.63596666, 0.19172756, 0.13089348, -0.7360177, -0.05403381, -0.2093676, 0.35689926, 0
749, 2776683987, 0.63592416, 0.19170094, 0.13098782, -0.73604447, 0.04902913, -0.03323308, 0.29033375, 0
751, 2776717321, 0.63586336, 0.19173267, 0.131089, -0.73607063, -3.1828246E-4, 0.04029067, 0.3204956, 0
752, 2776733988, 0.63582426, 0.19178128, 0.13109446, -0.7360908, 0.0022713386, -0.08617564, 0.42079067, 0
753, 2776750655, 0.63581187, 0.19183573, 0.13106012, -0.7360934, -0.013292986, -0.16232008, 0.44153214, 0
755, 2776783989, 0.6357008, 0.19207117, 0.13058905, -0.73621196, -0.08398879, -0.18169011, 0.23113155, 0
756, 2776800656, 0.635712, 0.19211823, 0.13029581, -0.7362419, -0.04712346, -0.14944322, 0.24359798, 0
759, 2776850657, 0.63569915, 0.19212998, 0.12964624, -0.7363645, -0.06550583, 0.07998643, 0.3064375, 0
760, 2776867324, 0.6357769, 0.1921826, 0.12950292, -0.7363089, 0.066943474, 0.044563957, 0.32680225, 0
761, 2776883991, 0.63583076, 0.19222508, 0.12938549, -0.736272, 0.09325117, -0.01133451, 0.34190845, 0
763, 2776917325, 0.6359376, 0.19228168, 0.12910005, -0.7362151, -0.14784315, -0.06638389, 0.45042992, 0
764, 2776933992, 0.6359507, 0.1923338, 0.12888522, -0.7362277, -0.21429506, -0.05186663, 0.5293474, 0
765, 2776950659, 0.6359478, 0.19238889, 0.12862676, -0.736261, -0.16451493, -0.056622148, 0.38136482, 0
767, 2776983993, 0.63593364, 0.19241613, 0.12819734, -0.736341, 0.014931336, -0.008085973, 0.22774887, 0
768, 2777000660, 0.63593245, 0.19239256, 0.12807773, -0.736369, 0.05901681, 0.023013676, 0.29640675, 0
770, 2777033994, 0.6358626, 0.19233477, 0.12801014, -0.73645616, -0.05049314, 0.115458414, 0.43811512, 0
771, 2777050661, 0.6358342, 0.19237128, 0.12801823, -0.73646957, -0.10790446, 0.08503478, 0.43311024, 0
774, 2777100662, 0.63571143, 0.19240299, 0.12802687, -0.7365657, -0.038974848, 0.053640008, 0.30023956, 0
775, 2777117329, 0.6357089, 0.1923331, 0.12807561, -0.7365778, 0.04098311, 0.13334721, 0.21791744, 0
776, 2777133996, 0.63571095, 0.19221316, 0.12811513, -0.73660046, 0.08586228, 0.16840184, 0.24527645, 0
778, 2777167330, 0.6356783, 0.1920247, 0.12817541, -0.7366674, 0.053861033, 0.039701544, 0.47561073, 0
779, 2777183997, 0.6356623, 0.19204254, 0.12816411, -0.7366785, -0.010090493, -0.031278457, 0.59594727, 0
780, 2777200664, 0.63564694, 0.1920807, 0.12809253, -0.7366942, -0.08741391, -0.04794448, 0.50665, 0
782, 2777233998, 0.6355841, 0.19204564, 0.12804863, -0.73676527, -0.050741687, 0.13701078, 0.17633438, 0
783, 2777250665, 0.63548887, 0.1919201, 0.12806556, -0.73687726, 0.018851083, 0.18765351, 0.2476635, 0
784, 2777267332, 0.635486, 0.19173717, 0.12810437, -0.73692054, 0.101691246, 0.22237301, 0.32194328, 0
786, 2777300666, 0.63545585, 0.19142444, 0.12827134, -0.7369988, 0.12677029, 0.05330119, 0.425519, 0
787, 2777317333, 0.6354635, 0.19114941, 0.12829638, -0.73705935, -0.12136897, -0.110221535, 0.025375366, 0
788, 2777334000, 0.63549834, 0.19088443, 0.12819864, -0.7371149, 0.116846986, 0.13869233, -0.41226673, 0
790, 2777367334, 0.6353277, 0.19062194, 0.12833776, -0.7373055, 0.15042108, 0.24070197, 0.96278286, 0
791, 2777384001, 0.6352545, 0.1907344, 0.128133, -0.73737514, 0.5193831, 0.27870435, 0.2565775, 0
792, 2777400668, 0.63522714, 0.19093832, 0.12772924, -0.737416, 0.5734036, 0.52642894, 0.101882935, 0
794, 2777434002, 0.6351385, 0.19128276, 0.1271433, -0.7375044, 0.30548343, 0.68701535, 0.12059212, 0
795, 2777450669, 0.63499916, 0.19154549, 0.12712482, -0.7375592, 0.27424392, 0.5327753, 0.20536041, 0
796, 2777467336, 0.63483477, 0.191708, 0.12730564, -0.7376276, 0.22185472, 0.5813209, 0.5372801, 0
798, 2777500670, 0.63429475, 0.19188969, 0.1283051, -0.73787165, 0.015711173, 0.6702334, 0.43621922, 0
801, 2777550671, 0.63402104, 0.19204764, 0.12966022, -0.737829, 0.047209512, 0.2572373, 0.8840828, 0
802, 2777567338, 0.6339424, 0.19235727, 0.12994607, -0.73776555, -0.17925985, 0.18111406, 0.78223515, 0
803, 2777584005, 0.6337792, 0.19281381, 0.1307346, -0.7376472, -0.15526529, 0.16272065, 0.26278496, 0
805, 2777617339, 0.63362455, 0.19391601, 0.13273516, -0.73713374, -0.01951201, -0.53451335, -0.019996643, 0
806, 2777634006, 0.6335753, 0.19417316, 0.13339366, -0.7369894, 0.3343423, -0.59736675, 0.24612236, 0
807, 2777650673, 0.6336304, 0.19436204, 0.13397251, -0.73678726, 0.47503388, -0.41939512, -0.01231575, 0
809, 2777684007, 0.6340811, 0.19513729, 0.13522564, -0.73596525, -0.2206084, 0.0959271, 0.14750099, 0
810, 2777700674, 0.63426214, 0.19541004, 0.13561586, -0.7356649, -0.207435, 0.10146902, 0.21261787, 0
811, 2777717341, 0.6342898, 0.19543612, 0.13554624, -0.73564714, -0.2155396, -0.002509844, 0.58871174, 0
813, 2777750675, 0.6348164, 0.19469894, 0.13414432, -0.73564523, 0.111719154, -0.10774509, 0.21732903, 0
815, 2777784009, 0.63530135, 0.19358127, 0.13271394, -0.7357811, 0.16602543, 0.061367605, 0.23600388, 0
817, 2777817343, 0.6355771, 0.19288425, 0.13179418, -0.7358912, -0.17620108, 0.078878, 0.8562012, 0
818, 2777834010, 0.6356299, 0.19258904, 0.1314428, -0.73598576, -0.27901593, 0.043352965, 0.68078613, 0
819, 2777850677, 0.6356884, 0.19239376, 0.13118327, -0.7360326, -0.455582, -0.14465864, 0.57798004, 0
821, 2777884011, 0.6357577, 0.19207348, 0.1307917, -0.7361262, -0.26276785, -0.37943575, 0.30298042, 0
822, 2777900678, 0.6358124, 0.19185913, 0.13068019, -0.73615456, -0.19415542, -0.3680154, 0.13691425, 0
823, 2777917345, 0.63590693, 0.19165832, 0.13061514, -0.7361368, -0.25156426, -0.36666, 0.15400887, 0
825, 2777950679, 0.63616407, 0.19154222, 0.1306591, -0.73593694, -0.2160787, -0.37034544, 0.58646584, 0
826, 2777967346, 0.63619304, 0.19163443, 0.1308613, -0.73585206, -0.35455546, -0.29668194, 0.7786169, 0
828, 2778000680, 0.63618016, 0.19191566, 0.13129407, -0.7357128, -0.1879621, -0.008256401, 0.19014263, 0
830, 2778034014, 0.6360996, 0.19198081, 0.1314229, -0.73574245, 0.08914255, -0.15727109, 0.25502682, 0
832, 2778067348, 0.6364031, 0.19127189, 0.13069098, -0.73579496, -9.157326E-4, -0.03278583, -0.053902626, 0
833, 2778084015, 0.63649285, 0.19092792, 0.13051732, -0.7358374, -0.1230783, 0.039202888, 0.33347607, 0
834, 2778100682, 0.6364907, 0.19068258, 0.13056538, -0.7358945, -0.12313351, -0.0021122533, 0.63137436, 0
836, 2778134016, 0.636366, 0.19038492, 0.13084286, -0.7360301, -0.0075160703, -0.026212817, 0.5685797, 0
837, 2778150683, 0.6363772, 0.19025157, 0.13059887, -0.73609823, -0.030747112, -0.03398073, 0.39030838, 0
838, 2778167350, 0.6363864, 0.19011751, 0.13010383, -0.7362124, -0.003742501, 0.048887257, -0.020492554, 0
840, 2778200684, 0.63656783, 0.18957405, 0.12925595, -0.73634523, 0.043213323, -0.0273087, 0.22085571, 0
841, 2778217351, 0.6365013, 0.18926239, 0.12915093, -0.7365012, -0.019416794, -0.08545895, 0.55301666, 0
842, 2778234018, 0.63643986, 0.18901692, 0.12918432, -0.7366116, -0.031176481, -0.0053738104, 0.6993084, 0
845, 2778284019, 0.63616794, 0.18872954, 0.12960607, -0.73684597, -0.0026522048, 0.11915361, 0.42611885, 0
846, 2778300686, 0.63604534, 0.18866672, 0.13000287, -0.73689806, -0.11519969, 0.07560354, 0.38415432, 0
848, 2778334020, 0.6357193, 0.18856461, 0.13086542, -0.7370529, 0.083159335, 0.16545111, 0.48672867, 0
849, 2778350687, 0.63562757, 0.18849345, 0.13101253, -0.7371239, 0.33120897, 0.30490667, 0.09215641, 0
851, 2778384021, 0.63556826, 0.18828765, 0.13121067, -0.7371924, 0.1319835, 0.2900937, 0.39879417, 0
852, 2778400688, 0.63552105, 0.18820031, 0.13150641, -0.7372028, 0.004819386, 0.2699097, 0.53012276, 0
855, 2778450689, 0.6349925, 0.18858059, 0.13319665, -0.7372576, 0.16020022, 0.2853417, 0.20674801, 0
856, 2778467356, 0.6348281, 0.18865736, 0.13370675, -0.7372872, 0.114541, 0.3664093, 0.184865, 0
857, 2778484023, 0.6347892, 0.18866304, 0.13410488, -0.73724675, 0.1852681, 0.36513713, 0.37801266, 0
859, 2778517357, 0.6346033, 0.18870631, 0.13486908, -0.7372565, 0.26854107, 0.5690766, 0.43370152, 0
860, 2778534024, 0.6344835, 0.18895768, 0.13550971, -0.7371779, 0.2977729, 0.47067413, 0.38914394, 0
861, 2778550691, 0.6343235, 0.18927905, 0.13634877, -0.7370783, 0.21231887, 0.30388218, 0.2736454, 0
863, 2778584025, 0.63405424, 0.18960759, 0.13797635, -0.7369225, -0.031219171, 0.26341268, 0.39521694, 0
864, 2778600692, 0.63409376, 0.18967879, 0.13837792, -0.7367948, 0.04993458, 0.14331108, 0.64938736, 0
865, 2778617359, 0.6340984, 0.18978226, 0.13865899, -0.73671144, 0.107055776, 0.08391794, 0.5331106, 0
867, 2778650693, 0.6342261, 0.19049373, 0.14017758, -0.7361303, -0.18608795, 0.15527856, 0.16145897, 0
868, 2778667360, 0.6345545, 0.19109705, 0.14120944, -0.73549336, -0.07927893, 0.027970243, 0.16080952, 0
869, 2778684027, 0.6347414, 0.19141448, 0.14203212, -0.7350911, 0.3718822, -0.10378595, 0.17305279, 0
871, 2778717361, 0.6350193, 0.19096409, 0.14227366, -0.73492146, 0.16250844, 0.06404602, 9.3460083E-4, 0
873, 2778750695, 0.63561714, 0.18985516, 0.1416812, -0.7348065, -0.13917884, 0.20001616, 0.55688095, 0
875, 2778784029, 0.6356939, 0.18957363, 0.14199273, -0.7347527, 0.046864633, -0.08006044, 0.7625084, 0
876, 2778800696, 0.63569224, 0.18975043, 0.14208028, -0.73469144, 0.144654, -0.13859306, 0.49363995, 0
878, 2778834030, 0.63590014, 0.19000301, 0.14170426, -0.7345187, 0.1197265, -0.09835928, 0.15404224, 0
879, 2778850697, 0.6361029, 0.1898584, 0.14107294, -0.73450226, -0.059652254, 0.046764497, -0.020594597, 0
880, 2778867364, 0.6364379, 0.18960878, 0.14030412, -0.7344239, -0.081341505, 0.075990774, -0.052131653, 0
882, 2778900698, 0.63687027, 0.18927965, 0.139267, -0.73433125, -0.3019014, -0.070389256, 0.75114155, 0
883, 2778917365, 0.63689804, 0.18928501, 0.1390171, -0.7343532, -0.32574254, -0.03462762, 0.7428589, 0
884, 2778934032, 0.6368878, 0.18943192, 0.13873601, -0.7343774, -0.08607193, -0.12420123, 0.56797886, 0
886, 2778967366, 0.6370739, 0.18953995, 0.1381328, -0.7343016, 0.21885853, 0.04602875, 0.2101593, 0
888, 2779000700, 0.6373019, 0.18977357, 0.13780726, -0.73410463, -0.25788143, 0.1228763, 0.6473446, 0
890, 2779034034, 0.63739336, 0.19031061, 0.13723141, -0.733994, -0.35398015, -0.40265888, 0.57094383, 0
891, 2779050701, 0.63758206, 0.19031784, 0.13645151, -0.7339737, -0.0989664, -0.39261737, -0.21242428, 0
892, 2779067368, 0.6379049, 0.19003414, 0.13542348, -0.7339572, 0.032993194, -0.24450333, -0.21544266, 0
894, 2779100702, 0.6389644, 0.18931869, 0.13239065, -0.7337737, -0.11602513, -0.3351036, 0.0375185, 0
895, 2779117369, 0.63927007, 0.18937233, 0.13126622, -0.73369557, -0.26021713, -0.4128996, 0.42413902, 0
896, 2779134036, 0.6394294, 0.18958427, 0.1303811, -0.73365974, -0.057839565, -0.24328782, 0.5248203, 0
899, 2779184037, 0.6391971, 0.18969971, 0.1286154, -0.73414403, -0.29965934, -0.079124086, 0.67725754, 0
900, 2779200704, 0.6389903, 0.1897044, 0.12862659, -0.7343209, -0.5207123, -0.19914876, 0.98737335, 0
902, 2779234038, 0.63818944, 0.18963209, 0.12960628, -0.73486334, -0.13878947, 0.50052756, 0.682539, 0
904, 2779267372, 0.63717926, 0.19019815, 0.13071615, -0.735397, 0.9812784, 1.0738058, 0.31655407, 0
906, 2779300706, 0.6369257, 0.19107968, 0.13066545, -0.7353972, 0.9706597, 2.0358503, 0.7329674, 0
907, 2779317373, 0.6370758, 0.19191569, 0.13008831, -0.73515165, 0.97170883, 2.2544894, 0.8728075, 0
909, 2779350707, 0.63741446, 0.19400445, 0.12862776, -0.73456675, 1.7815044, 2.0332413, 0.10148907, 0
910, 2779367374, 0.6376568, 0.19503665, 0.12764844, -0.73425364, 2.129058, 2.3476665, -0.13508701, 0
911, 2779384041, 0.6378856, 0.19584814, 0.12666203, -0.7340098, 2.3098469, 2.785974, -0.5020752, 0
913, 2779417375, 0.6385193, 0.19704553, 0.124280766, -0.7335453, 1.3006749, 2.570158, 0.12577152, 0
914, 2779434042, 0.6387963, 0.19766171, 0.1234372, -0.7332807, 1.0459172, 2.4603386, 0.37654114, 0
915, 2779450709, 0.63907325, 0.19782935, 0.122732945, -0.7331123, 1.0981288, 2.477937, 0.6798849, 0
917, 2779484043, 0.6395216, 0.19799426, 0.12188487, -0.7328184, 1.5285593, 2.6172984, 0.28711414, 0
919, 2779517377, 0.6395129, 0.19823626, 0.12214278, -0.73271745, 1.4479495, 2.4246855, 0.16635418, 0
921, 2779550711, 0.6393244, 0.19901143, 0.12342784, -0.7324565, 1.4884489, 2.3520539, 0.4390335, 0
922, 2779567378, 0.63909405, 0.19956118, 0.124397084, -0.732344, 1.4272548, 2.3312483, 0.3172922, 0
923, 2779584045, 0.63881993, 0.2001022, 0.12533753, -0.73227537, 1.9967874, 3.1693015, -0.3356018, 0
925, 2779617379, 0.63830835, 0.20120807, 0.12721866, -0.7320936, 1.6405492, 2.7746472, 0.9309807, 0
926, 2779634046, 0.6379049, 0.20200801, 0.12839818, -0.73201936, 2.031108, 3.0693653, 0.37832165, 0
927, 2779650713, 0.63734186, 0.20299162, 0.12966585, -0.7320141, 1.8216436, 2.80914, 0.26341438, 0
930, 2779700714, 0.6363247, 0.20383179, 0.1317786, -0.7322881, 2.385698, 3.0700252, 0.2028799, 0
931, 2779717381, 0.6364701, 0.2034568, 0.13130668, -0.73235095, 2.1005747, 2.9200978, 0.8362198, 0
934, 2779767382, 0.6371739, 0.20515437, 0.13036075, -0.7314338, 1.6404989, 2.286565, -0.9707079, 0
936, 2779800716, 0.63740003, 0.20583434, 0.12926427, -0.7312402, 1.1509275, 1.5273851, -0.1309967, 0
937, 2779817383, 0.6374283, 0.20482387, 0.12805758, -0.73171145, 1.8429703, 1.4923221, -0.82871914, 0
938, 2779834050, 0.63762486, 0.20321964, 0.12627567, -0.732297, 1.3006681, 0.02142028, -0.27717113, 0
940, 2779867384, 0.63785917, 0.1989113, 0.12296131, -0.7338384, 0.27733064, 0.52962524, -0.1165514, 0
941, 2779884051, 0.63787526, 0.19658086, 0.12159495, -0.73467946, -0.62581974, 1.1200572, 0.63147926, 0
942, 2779900718, 0.63787585, 0.19472747, 0.12073876, -0.7353135, -1.9595902, 0.4800357, 2.4650688, 0
944, 2779934052, 0.63765657, 0.19240144, 0.12008205, -0.736223, -0.16525163, -1.1480812, 2.3616934, 0
945, 2779950719, 0.6374731, 0.19152004, 0.12028016, -0.7365794, -0.25211456, -0.76398706, 0.44544125, 0
946, 2779967386, 0.6377977, 0.19088218, 0.12056227, -0.73641765, -1.3557956, -0.07735241, 0.35650253, 0
949, 2780017387, 0.6394361, 0.18967627, 0.12172806, -0.73511565, -1.8730365, -1.1651853, 0.8340063, 0
952, 2780067388, 0.64200974, 0.18724349, 0.12405781, -0.7331038, -1.5564034, -0.39516425, 0.41934776, 0
953, 2780084055, 0.6427129, 0.18637285, 0.12533578, -0.7324919, -1.3576394, -0.69011503, -0.10734463, 0
954, 2780100722, 0.6436306, 0.18540825, 0.12653878, -0.7317237, -0.9530418, -0.17674334, -0.33403397, 0
956, 2780134056, 0.6460465, 0.18380028, 0.12941504, -0.7294937, -0.7637873, -0.4742077, 0.6708431, 0
957, 2780150723, 0.64708376, 0.1829964, 0.13095589, -0.72850096, -1.2402173, 0.5977176, 0.25788403, 0
959, 2780184057, 0.6495148, 0.18194693, 0.13366666, -0.72610414, 0.27838203, 1.9420009, -0.43440342, 0
960, 2780200724, 0.6510633, 0.18151248, 0.1347924, -0.7246164, 1.0146564, 1.3235648, -0.35024357, 0
961, 2780217391, 0.6527033, 0.18102409, 0.13562986, -0.7231056, 0.6306921, 1.9155624, 0.18447495, 0
963, 2780250725, 0.6561378, 0.18059106, 0.13656166, -0.719923, 0.7613955, 2.1567588, -0.3158064, 0
965, 2780284059, 0.6603867, 0.18099315, 0.13654172, -0.7159297, 1.0133862, 2.4053323, 0.2333355, 0
967, 2780317393, 0.6643996, 0.18129846, 0.13652506, -0.7121329, -0.003302404, 2.192008, 1.7712097, 0
968, 2780334060, 0.6663853, 0.18115619, 0.13653581, -0.71030915, -0.21790166, 2.6969287, 0.75120354, 0
969, 2780350727, 0.66837686, 0.18132102, 0.13676894, -0.7083484, 0.022188801, 2.2470472, 0.41321278, 0
971, 2780384061, 0.67218417, 0.18100949, 0.13686232, -0.7047986, 1.0106958, 2.257886, 0.41687202, 0
972, 2780400728, 0.67389596, 0.18099682, 0.13692176, -0.70315367, 1.1630025, 1.5648001, 1.4100342, 0
973, 2780417395, 0.67552054, 0.18144524, 0.13694271, -0.70147306, 0.9960738, 0.9411213, 2.1771145, 0
975, 2780450729, 0.677458, 0.18255244, 0.13847807, -0.6990117, 0.8102795, 2.3158395, 0.17841911, 0
976, 2780467396, 0.6780542, 0.18310939, 0.13931507, -0.6981211, 1.201489, 4.1344175, -1.685564, 0
977, 2780484063, 0.67900515, 0.18340382, 0.13937706, -0.69710636, 1.3510007, 2.6855872, -1.0795736, 0
980, 2780534064, 0.6821938, 0.188619, 0.13899568, -0.6926637, 1.405253, -1.820947, 1.8085814, 0
981, 2780550731, 0.68261474, 0.19259353, 0.14010495, -0.6909294, 2.1928375, 0.63004124, -2.4942174, 0
983, 2780584065, 0.6836835, 0.19852228, 0.1403952, -0.6881302, -0.17829807, 1.4827431, -1.9757881, 0
984, 2780600732, 0.68467754, 0.19983064, 0.13929638, -0.6869856, -0.55962145, 1.3092587, 0.8814516, 0
986, 2780634066, 0.6858822, 0.2041014, 0.1379522, -0.6847961, -0.05513372, -0.7999404, 0.5043535, 0
987, 2780650733, 0.68589234, 0.2065261, 0.13811044, -0.6840267, 0.781349, -0.040927123, -0.16152191, 0
988, 2780667400, 0.68602324, 0.20886213, 0.13772503, -0.6832633, 0.64512354, 1.4878218, 0.10713959, 0
990, 2780700734, 0.68640375, 0.21381938, 0.13575375, -0.68174064, 1.9659375, 2.0056102, -1.0827799, 0
991, 2780717401, 0.68677676, 0.21600977, 0.13375239, -0.68106985, 1.4259641, 0.38807204, -1.0816917, 0
992, 2780734068, 0.68711185, 0.21766481, 0.13131948, -0.68067807, 0.66631, 0.03479555, 0.3888197, 0
995, 2780784069, 0.6867927, 0.21732886, 0.12551287, -0.6822014, 0.062485058, 0.39616084, 0.91497993, 0
996, 2780800736, 0.68641454, 0.2163022, 0.124012694, -0.68318176, 0.87593776, 0.7981352, 0.12631607, 0
998, 2780834070, 0.6856977, 0.21473381, 0.12067041, -0.6849926, 1.0732354, 0.7960011, 0.9494047, 0
999, 2780850737, 0.68525696, 0.21460502, 0.119494006, -0.68567973, -0.30103126, -0.6427675, 3.014902, 0
1000, 2780867404, 0.6848682, 0.21524526, 0.118837275, -0.6859815, -0.9423753, -0.9474028, 3.075716, 0
1002, 2780900738, 0.6838796, 0.21665157, 0.11828861, -0.68661976, -0.5176312, -0.8128396, 0.19059563, 0
1003, 2780917405, 0.6833221, 0.21696435, 0.1182495, -0.68708265, -0.46921092, -0.090789594, -0.67727184, 0
1004, 2780934072, 0.683064, 0.21710932, 0.11800953, -0.68733484, -0.6580163, -0.39481306, -0.087210655, 0
1006, 2780967406, 0.68262583, 0.2175163, 0.11767258, -0.6876989, -0.75101113, -1.5154433, 0.6088915, 0
1007, 2780984073, 0.68225133, 0.21847418, 0.117424175, -0.68780935, -1.1148915, -1.6324857, 0.3030119, 0
1008, 2781000740, 0.6821718, 0.21994922, 0.116754815, -0.6875322, 0.29340523, -0.4915918, 0.18535519, 0
1010, 2781034074, 0.68227637, 0.2238989, 0.11432537, -0.6865611, 1.1970804, -0.5759825, 0.18083191, 0
1011, 2781050741, 0.6822343, 0.22611102, 0.1126956, -0.68614745, 0.41826114, -0.8704551, -1.035346, 0
1012, 2781067408, 0.68245006, 0.2288401, 0.11070485, -0.68535143, -0.33529088, -1.4390451, 0.08283615, 0
1014, 2781100742, 0.6828517, 0.23348223, 0.106445394, -0.6840592, -0.3290493, -1.16365, 1.2131243, 0
1015, 2781117409, 0.6825381, 0.23544762, 0.10468959, -0.6839697, 0.06340571, -1.3125293, 0.29445267, 0
1017, 2781150743, 0.68080163, 0.23756509, 0.10331699, -0.6851758, 0.7139597, -1.1790116, -0.27222347, 0
1018, 2781167410, 0.67937523, 0.2373095, 0.103484794, -0.68665314, 0.26562145, -0.75214785, 0.5516844, 0
1019, 2781184077, 0.6776483, 0.23670703, 0.10379395, -0.6885184, -1.2250032, -1.6468401, 1.2664175, 0
1022, 2781234078, 0.6724031, 0.23271058, 0.10467927, -0.6948598, -0.18068564, -1.9733585, 0.7232313, 0
1023, 2781250745, 0.6704875, 0.23092097, 0.1054842, -0.6971824, 0.14049734, -1.331647, 0.29777336, 0
1025, 2781284079, 0.66636276, 0.2252002, 0.1082613, -0.70256186, -0.37162247, -0.13220818, 0.3029766, 0
1026, 2781300746, 0.6643614, 0.22163972, 0.10919523, -0.70543915, -0.07471971, 0.26130354, 0.9773407, 0
1027, 2781317413, 0.6622859, 0.21820082, 0.11008163, -0.708319, -0.17576785, 0.8990883, -0.092105865, 0
1030, 2781367414, 0.6571477, 0.2102891, 0.11350681, -0.71492636, 1.117818, 1.6802307, 0.5083885, 0
1031, 2781384081, 0.65562445, 0.20800479, 0.114857174, -0.71677524, 0.41914693, 2.3859138, 0.03958893, 0
1033, 2781417415, 0.65330166, 0.20368788, 0.11661641, -0.71984506, 0.35965794, 2.643085, 0.01465416, 0
1034, 2781434082, 0.6524664, 0.20178244, 0.117243536, -0.72103643, 0.77137136, 2.5976238, -0.06033802, 0
1035, 2781450749, 0.6519309, 0.1996064, 0.11771397, -0.7220492, 1.276381, 2.5513704, 0.20737743, 0
1038, 2781500750, 0.6508409, 0.1929898, 0.12077823, -0.72432166, 0.1508214, 3.2468889, 0.11506176, 0
1039, 2781517417, 0.65070486, 0.19099423, 0.122216046, -0.72473156, -0.2284859, 2.9148448, 0.90644836, 0
1041, 2781550751, 0.65071267, 0.18809795, 0.124994114, -0.72500813, 1.0369468, 1.6861075, 1.3573494, 0
1042, 2781567418, 0.65098596, 0.18712224, 0.12607878, -0.72482747, 0.77743775, 1.0613664, 1.6021585, 0
1044, 2781600752, 0.65223795, 0.18731172, 0.12850721, -0.7232247, 1.523045, 1.6885282, 0.33235836, 0
1045, 2781617419, 0.65259266, 0.18848883, 0.12985323, -0.722358, 2.051393, 3.0386336, -1.5781784, 0
1046, 2781634086, 0.6533921, 0.18997645, 0.13010079, -0.7212003, 0.95606995, 4.182362, -0.1665039, 0
1049, 2781684087, 0.65822464, 0.19724661, 0.1293211, -0.71496725, 0.92124885, 1.1864588, 1.0778589, 0
1050, 2781700754, 0.65895396, 0.2007215, 0.13080794, -0.7130555, 1.6987473, 1.3609716, -1.0423079, 0
1052, 2781734088, 0.6618676, 0.2052318, 0.13040453, -0.70913625, -0.50514686, 2.4072106, -2.0808363, 0
1054, 2781767422, 0.66587234, 0.2084012, 0.12793857, -0.7048994, -0.5241511, -0.8638525, 3.1623335, 0
1056, 2781800756, 0.66826326, 0.21293616, 0.12703921, -0.7014355, 1.0422885, -0.94492, -0.8635378, 0
1057, 2781817423, 0.66897494, 0.21562424, 0.12703048, -0.6999357, 1.5757859, -0.7542702, -3.8287268, 0
1058, 2781834090, 0.67007303, 0.21718803, 0.12527159, -0.69871783, 0.8003169, 0.20015454, -0.11687374, 0
1060, 2781867424, 0.6716801, 0.22096333, 0.12057524, -0.6968148, 1.0536813, -0.6611165, -0.4448719, 0
1061, 2781884091, 0.6719333, 0.22268587, 0.11836569, -0.696401, 1.3064812, -2.1930034, 0.7559128, 0
1062, 2781900758, 0.67166746, 0.22384882, 0.11654721, -0.69659126, 1.1298772, -1.5021667, 1.5573101, 0
1064, 2781934092, 0.67069495, 0.22450249, 0.11318413, -0.69787145, 0.119823284, -1.0922252, -0.24498272, 0
1065, 2781950759, 0.67020273, 0.22477277, 0.11156292, -0.6985179, 0.7341587, 0.7233526, 0.73354816, 0
1067, 2781984093, 0.66920304, 0.22710332, 0.10887494, -0.6991465, -0.6918383, -1.6535488, 1.9403715, 0
1069, 2782017427, 0.6684232, 0.23023166, 0.10646649, -0.6992402, -0.15656702, -2.8879442, 0.89630127, 0
1071, 2782050761, 0.6668793, 0.23198843, 0.10518138, -0.70032734, -1.5712844, -0.9145726, 0.5995264, 0
1072, 2782067428, 0.66583097, 0.23233026, 0.10523018, -0.70120364, -0.75345814, -1.7625123, 0.6417303, 0
1073, 2782084095, 0.664793, 0.23222591, 0.10525816, -0.7022182, -0.41021892, -2.0217173, 0.65723705, 0
1075, 2782117429, 0.66318, 0.23258172, 0.1049645, -0.703668, -0.045679953, -1.600803, -0.18997955, 0
1076, 2782134096, 0.66251, 0.23335698, 0.104733035, -0.7040768, -0.48330832, -0.65165323, -0.32231522, 0
1077, 2782150763, 0.66196394, 0.23422794, 0.10432926, -0.7043611, -0.43487597, -0.41263318, -0.10263729, 0
1079, 2782184097, 0.6606733, 0.23569952, 0.103605576, -0.7051884, 0.401382, -0.97728693, -0.25589085, 0
1080, 2782200764, 0.65991664, 0.23573275, 0.1033285, -0.70592594, -0.021401366, -1.143275, 0.3357048, 0
1081, 2782217431, 0.659236, 0.23570748, 0.10310439, -0.706603, -0.98313916, -0.56698436, 0.43848896, 0
1083, 2782250765, 0.6580291, 0.23509063, 0.102348246, -0.70804185, -0.8264539, -0.5183634, 0.4315319, 0
1084, 2782267432, 0.6574209, 0.23504928, 0.10210839, -0.7086549, -0.030405361, -0.5099308, -0.31843185, 0
1085, 2782284099, 0.65688753, 0.23489028, 0.102065824, -0.70920813, 0.123075396, -0.49004534, 0.5385046, 0
1087, 2782317433, 0.6557625, 0.23341659, 0.1024037, -0.7106854, -0.39704508, -0.44988006, 1.1224785, 0
1088, 2782334100, 0.65505946, 0.2321594, 0.10294947, -0.7116661, -0.43325484, -0.44998255, 0.3468008, 0
1089, 2782350767, 0.65446293, 0.23066388, 0.103470355, -0.7126251, -0.13646673, -0.17242454, -0.2314024, 0
1091, 2782384101, 0.65336835, 0.22808996, 0.10471122, -0.7142749, -0.4188731, 0.5425664, -0.60543346, 0
1092, 2782400768, 0.65294504, 0.22768506, 0.10531199, -0.71470255, -0.1966599, 0.3495082, -0.051398277, 0
1094, 2782434102, 0.6524676, 0.22697258, 0.10619445, -0.7152345, 0.33681637, 0.67071533, 0.9147301, 0
1096, 2782467436, 0.652112, 0.2264229, 0.10671489, -0.7156553, 0.5837786, 0.47750086, 0.36174774, 0
1098, 2782500770, 0.65227187, 0.22590736, 0.106979854, -0.7156333, -0.04674505, 0.7725332, 0.39855194, 0
1099, 2782517437, 0.6523663, 0.22637728, 0.10682942, -0.7154211, -0.34201017, 1.1647625, 0.05021763, 0
1100, 2782534104, 0.6523298, 0.22734793, 0.10691953, -0.715133, 0.30034554, 0.7708471, 0.6149769, 0
1102, 2782567438, 0.65298176, 0.2289872, 0.10658056, -0.71406484, 0.89280504, 0.56749696, 0.7511358, 0
1103, 2782584105, 0.6532506, 0.23003507, 0.10632361, -0.7135201, 0.98770845, 0.960617, -0.24672699, 0
1104, 2782600772, 0.6533187, 0.23098186, 0.10625554, -0.7131619, 0.034872714, 0.21296325, -0.35143185, 0
1106, 2782634106, 0.65373516, 0.23255955, 0.10618176, -0.71227807, -0.74095684, 0.33439505, 1.8453436, 0
1107, 2782650773, 0.6536897, 0.23269296, 0.10651926, -0.71222585, 0.8580184, 1.2329942, -0.7739334, 0
1108, 2782667440, 0.6534457, 0.23231535, 0.106930465, -0.7125113, 0.3461773, 0.9490696, 2.524849, 0
1111, 2782717441, 0.65439373, 0.23241474, 0.10549757, -0.71182215, 1.1305181, -0.64873683, 0.7946415, 0
1112, 2782734108, 0.65444195, 0.23260033, 0.10529245, -0.7117475, -0.36864886, -0.2880642, 0.39524746, 0
1114, 2782767442, 0.65501106, 0.23414919, 0.10502145, -0.7107555, -0.14421682, 0.37770846, 0.20112133, 0
1115, 2782784109, 0.65511334, 0.23452805, 0.10494052, -0.7105482, 0.76588035, 1.1823077, -0.24956036, 0
1116, 2782800776, 0.65523505, 0.23489192, 0.10440449, -0.71039474, 0.60440385, 1.3669848, -0.2552843, 0
1118, 2782834110, 0.6558316, 0.23547272, 0.10302153, -0.70985377, 0.6229334, -0.30775243, 0.39090538, 0
1119, 2782850777, 0.6561651, 0.23568565, 0.10234579, -0.70957243, 0.01436786, -0.5748613, 1.2688723, 0
1120, 2782867444, 0.6563482, 0.2358688, 0.10179321, -0.70942175, -0.38458085, -0.016274774, 1.0421, 0
1122, 2782900778, 0.65663165, 0.23598583, 0.101180464, -0.70920837, 0.7618647, 0.8212111, -0.41921616, 0
1123, 2782917445, 0.6567085, 0.23516035, 0.101064086, -0.7094279, 0.15667742, 1.116212, 0.16212845, 0
1126, 2782967446, 0.6564656, 0.23231289, 0.10072082, -0.71063864, 1.2524186, 0.64394695, 0.53395176, 0
1127, 2782984113, 0.6562042, 0.23155315, 0.101003334, -0.7110877, 1.6440477, 0.09627142, -0.44582558, 0
1129, 2783017447, 0.6557604, 0.22883593, 0.10113766, -0.7123563, 0.3113835, 2.4058168, -0.24113655, 0
1130, 2783034114, 0.6556691, 0.22790574, 0.10098133, -0.7127608, 0.2873753, 1.5009145, -0.3962164, 0
1131, 2783050781, 0.6556173, 0.22690506, 0.10059239, -0.71318257, 1.6338583, 1.685787, 0.7925596, 0
1133, 2783084115, 0.6545642, 0.22510828, 0.10268437, -0.71441996, -0.58745706, -0.7202553, 4.235757, 0
1134, 2783100782, 0.6539129, 0.22485515, 0.10439794, -0.7148479, 0.7652232, -0.06055061, 1.4870119, 0
1135, 2783117449, 0.6532306, 0.22472902, 0.10580515, -0.71530426, 2.919749, 1.7038064, -2.6716838, 0
1137, 2783150783, 0.652583, 0.22427997, 0.10619101, -0.7159787, 0.26961428, 3.1836653, 0.5730505, 0
1138, 2783167450, 0.65279293, 0.22460426, 0.105700955, -0.7157581, -0.27789432, 1.0903866, 3.3819246, 0
1141, 2783217451, 0.6524286, 0.2254085, 0.10712669, -0.71562564, 0.7674959, -0.5134672, -4.8192415, 0
1142, 2783234118, 0.6525803, 0.22490436, 0.10742642, -0.7156009, 0.2910198, 2.07326, -1.9072571, 0
1143, 2783250785, 0.65280724, 0.22455895, 0.10738362, -0.7155089, -0.5637258, 1.4961492, -0.24776077, 0
1145, 2783284119, 0.65256095, 0.22355503, 0.107505515, -0.71602935, -1.1544389, -2.2379873, 0.6085472, 0
1146, 2783300786, 0.6522776, 0.22206225, 0.10766061, -0.7167284, -0.53644854, -1.1355399, 0.24120331, 0
1147, 2783317453, 0.65197814, 0.22085072, 0.10822792, -0.7172896, -0.7658706, -2.1860814, -0.3932562, 0
1149, 2783350787, 0.65217435, 0.21810248, 0.108198345, -0.7179562, -2.161141, -0.412882, -0.24734783, 0
1150, 2783367454, 0.6529118, 0.21754475, 0.107893676, -0.717501, -2.0778348, -0.2678516, 1.4326105, 0
1152, 2783400788, 0.6551745, 0.21805865, 0.10722106, -0.71538, -1.4622123, -0.93901634, 1.4166489, 0
1153, 2783417455, 0.65633273, 0.21867888, 0.107153244, -0.71413815, -2.1050253, -1.7602195, 0.65297604, 0
1154, 2783434122, 0.6576045, 0.2193498, 0.107003525, -0.71278363, -2.2407181, 0.39208606, 0.8247452, 0
1156, 2783467456, 0.66072464, 0.22113688, 0.10595378, -0.7094952, -0.62528443, -1.0734284, 0.936862, 0
1157, 2783484123, 0.66230154, 0.22159788, 0.105415896, -0.7079598, -0.6543288, -2.3030155, 0.7656307, 0
1158, 2783500790, 0.6641184, 0.222349, 0.104601905, -0.7061404, -0.4773879, -1.1802094, -0.83046436, 0
1160, 2783534124, 0.6678425, 0.22450227, 0.10370456, -0.7020675, -0.838094, -1.1780747, -0.077070236, 0
1161, 2783550791, 0.6694394, 0.225512, 0.103380375, -0.7002685, -0.086048685, -1.4244521, -0.09751701, 0
1162, 2783567458, 0.6706579, 0.22679503, 0.10329931, -0.69869846, -0.17350909, -1.4075907, -0.7046919, 0
1164, 2783600792, 0.6732964, 0.2298226, 0.10150983, -0.69542605, -0.31288594, 0.063680515, -0.31895733, 0
1165, 2783617459, 0.67454344, 0.23188521, 0.100559115, -0.6936689, -0.5019764, -1.0762441, -0.010169029, 0
1168, 2783667460, 0.6774399, 0.23745422, 0.09781186, -0.6893414, 0.2963717, -0.026568782, -0.04354191, 0
1169, 2783684127, 0.67804974, 0.23919341, 0.097063795, -0.68824553, 0.7647463, 0.19154467, -0.37333107, 0
1172, 2783734128, 0.6782577, 0.24295467, 0.09509145, -0.68699753, 0.72628456, -0.09849233, 0.70043945, 0
1173, 2783750795, 0.67809534, 0.24423021, 0.09449259, -0.6867879, 0.88486654, -0.7114048, 0.6327982, 0
1175, 2783784129, 0.67704606, 0.2466355, 0.093193986, -0.6871407, 1.2491271, -0.80489236, 0.77421856, 0
1176, 2783800796, 0.67631686, 0.24734773, 0.09253057, -0.6876926, 0.6903621, 0.5832646, 0.20903015, 0
1177, 2783817463, 0.67556894, 0.24805586, 0.09176332, -0.68827504, 0.20162366, 0.038938016, 0.5156832, 0
1179, 2783850797, 0.6734809, 0.24886651, 0.09045513, -0.6901993, 0.25221515, -1.0299605, 0.21541691, 0
1180, 2783867464, 0.6721983, 0.24972881, 0.0899834, -0.69119906, 0.5179439, -1.8172765, 0.4880972, 0
1181, 2783884131, 0.6709137, 0.25032896, 0.08940983, -0.6923038, 1.0255646, -1.5293314, 1.3293343, 0
1184, 2783934132, 0.6666398, 0.25163278, 0.08895915, -0.69600785, 0.48157966, -1.3328333, -0.90013313, 0
1185, 2783950799, 0.6650596, 0.25077796, 0.08936755, -0.69777334, -0.15057509, 0.14751561, 0.84044075, 0
1187, 2783984133, 0.66128373, 0.24723867, 0.09086303, -0.7024166, 0.473886, -0.50405335, -0.07127857, 0
1188, 2784000800, 0.6590899, 0.24519303, 0.091859415, -0.70506096, 0.8114128, -1.1931084, 0.73432827, 0
1189, 2784017467, 0.65705234, 0.24314602, 0.09265429, -0.7075634, 0.84861064, -0.28758296, -0.16135693, 0
1191, 2784050801, 0.6534469, 0.2396641, 0.094292566, -0.71186036, 0.087041534, 0.5275542, 0.9037285, 0
1192, 2784067468, 0.65182376, 0.23778653, 0.09491653, -0.71389234, 0.15796308, 1.1539202, 0.18909836, 0
1193, 2784084135, 0.6502527, 0.23589057, 0.095699415, -0.71584684, 0.1928329, 0.7774145, 0.441329, 0
1195, 2784117469, 0.6474124, 0.23176067, 0.09739645, -0.71953195, -0.4764, 0.81476766, 0.4690628, 0
1196, 2784134136, 0.6463793, 0.22990479, 0.098137885, -0.720954, -0.34942406, 0.81030196, 0.37695408, 0
1199, 2784184137, 0.6443238, 0.22554795, 0.100322545, -0.7238636, 0.10132357, 0.95976406, 0.5943289, 0
1200, 2784200804, 0.64413357, 0.22456963, 0.10091724, -0.72425437, -0.18812482, 1.821933, 0.106266975, 0
1202, 2784234138, 0.64431643, 0.22294171, 0.10165784, -0.7244909, 0.02567538, 1.148073, 0.5046034, 0
1203, 2784250805, 0.6445033, 0.22262928, 0.102150045, -0.7243515, 0.6435331, 0.7639963, -0.2654686, 0
1204, 2784267472, 0.64473706, 0.22296658, 0.10280017, -0.7239476, 0.39259973, 0.977739, -0.52536964, 0
1206, 2784300806, 0.64563036, 0.22431658, 0.10320347, -0.72267604, -0.21174254, 1.6737888, 0.028301239, 0
1207, 2784317473, 0.64612186, 0.22544982, 0.102886625, -0.72192895, -0.39483386, 1.4500169, 0.5726423, 0
1208, 2784334140, 0.6468618, 0.22673662, 0.10207399, -0.7209781, 0.17567404, 0.515113, 0.88918495, 0
1210, 2784367474, 0.64817035, 0.23020536, 0.100941144, -0.7188601, 0.8256546, -0.53262824, 0.62146187, 0
1211, 2784384141, 0.6484744, 0.23240797, 0.100662634, -0.71791536, 1.3307776, 0.78730714, -0.6874161, 0
1214, 2784434142, 0.6500851, 0.23702449, 0.09911078, -0.71516025, -0.43510464, 0.5971811, 0.35249043, 0
1215, 2784450809, 0.65013945, 0.23785795, 0.09892052, -0.7148603, -0.7472749, 0.6980272, 1.2399874, 0
1216, 2784467476, 0.6499817, 0.23821229, 0.09903774, -0.7148695, 0.46263024, 0.9221647, 1.0228586, 0
1218, 2784500810, 0.6490079, 0.23756559, 0.100462414, -0.71577007, 2.4952846, -0.20995258, 0.3091259, 0
1219, 2784517477, 0.6486682, 0.23607665, 0.10067692, -0.7165402, 1.7849609, 0.9547583, -0.68933773, 0
1220, 2784534144, 0.6483978, 0.23442236, 0.10084884, -0.71730334, -0.54748625, 0.5467924, 0.8629379, 0
1222, 2784567478, 0.6476684, 0.22984499, 0.10126293, -0.7193824, -0.5585732, 1.0209273, 0.9992151, 0
1223, 2784584145, 0.64703786, 0.22786075, 0.1026578, -0.72038263, 0.08651158, 0.5200592, 0.30759716, 0
1224, 2784600812, 0.64645576, 0.22565882, 0.10424549, -0.72136956, 1.4260621, 1.3995906, 0.046308517, 0
1226, 2784634146, 0.6463135, 0.22151381, 0.10569533, -0.72256976, 0.49608633, 3.2943935, -0.64195347, 0
1227, 2784650813, 0.64670753, 0.21957697, 0.10646844, -0.7226949, 0.11005219, 2.390624, 0.68547726, 0
1228, 2784667480, 0.64718974, 0.21862714, 0.10805383, -0.7223159, 0.3398539, 2.256539, 0.10518074, 0
1230, 2784700814, 0.6477489, 0.21789691, 0.11188743, -0.7214511, 1.8296833, 2.3487837, 1.4310398, 0
1231, 2784717481, 0.6478713, 0.21808283, 0.11337308, -0.72105294, 2.0405483, 2.168639, -0.48572922, 0
1233, 2784750815, 0.64998657, 0.21927129, 0.11322157, -0.7188091, -1.7387768, 2.6984344, 0.97768974, 0
1234, 2784767482, 0.6519569, 0.22061561, 0.11248769, -0.7167257, -2.9544933, 0.18676516, 1.1552906, 0
1235, 2784784149, 0.6537666, 0.2229538, 0.112233624, -0.7143897, -1.0814558, -2.4061594, -1.3714151, 0
1237, 2784817483, 0.65713, 0.22776999, 0.109841675, -0.71014357, 1.3296058, -0.35419556, -3.717255, 0
1238, 2784834150, 0.65926623, 0.22985089, 0.10731263, -0.70787615, -0.82082784, -0.7913853, -1.4390821, 0
1241, 2784884151, 0.66323435, 0.23295152, 0.10190411, -0.70394415, 0.24586783, 0.46630803, 2.699604, 0
1242, 2784900818, 0.66364264, 0.23344135, 0.100798644, -0.7035564, 1.0625615, -0.58914757, 0.96086216, 0
1243, 2784917485, 0.66394246, 0.23382412, 0.09989351, -0.7032753, 1.3871309, -2.3364954, 0.44470692, 0
1245, 2784950819, 0.6643133, 0.23493585, 0.097919084, -0.70283204, 0.6099426, 0.99273646, 1.0247297, 0
1246, 2784967486, 0.66428685, 0.23641716, 0.096829735, -0.70251137, 0.47516552, -0.60989064, 1.5145292, 0
1247, 2784984153, 0.66421175, 0.2376912, 0.095587365, -0.7023226, 0.31742215, -2.6656876, 1.4979515, 0
1249, 2785017487, 0.6639503, 0.23982765, 0.09343383, -0.70213306, -1.4403735, -2.4761553, 1.1621437, 0
1250, 2785034154, 0.6637931, 0.24082948, 0.09256343, -0.70205426, -1.8244582, -1.6477746, 0.8341923, 0
1251, 2785050821, 0.66369754, 0.24189384, 0.09155619, -0.70191056, -1.7172711, -1.8563904, 0.021834373, 0
1253, 2785084155, 0.6636007, 0.24384527, 0.0899411, -0.70153576, -0.41202533, -3.6485958, -0.23653889, 0
1255, 2785117489, 0.6629851, 0.2457923, 0.08906024, -0.7015509, -1.9890045, -2.629915, 0.35678768, 0
1257, 2785150823, 0.6622875, 0.24712813, 0.08807459, -0.70186496, -0.5445312, -1.948851, -1.282464, 0
1258, 2785167490, 0.6617409, 0.2476432, 0.087909535, -0.7022194, -0.7072806, -2.0758862, -0.6392002, 0
1260, 2785200824, 0.65986145, 0.24699503, 0.08725847, -0.70429444, 0.7974437, -0.06570924, 0.520813, 0
1261, 2785217491, 0.6588005, 0.24694978, 0.08717571, -0.70531297, -0.23935689, -2.1204443, 0.06878948, 0
1262, 2785234158, 0.6576637, 0.24621315, 0.0874305, -0.70659864, 0.6517812, -1.1241641, 1.1236305, 0
1264, 2785267492, 0.65509236, 0.2444679, 0.08838448, -0.7094685, 0.08266559, -0.22766705, 0.15185261, 0
1265, 2785284159, 0.65387, 0.24277121, 0.08884605, -0.71111923, 0.23343201, 0.3178845, 0.7212305, 0
1266, 2785300826, 0.6526219, 0.24076807, 0.08940871, -0.71287405, -0.30861488, 0.65472865, 0.45413303, 0
1268, 2785334160, 0.6507592, 0.23827392, 0.08981468, -0.71535975, -0.35559055, -0.6070544, -0.40255928, 0
1270, 2785367494, 0.64958054, 0.23709968, 0.09004057, -0.71679133, -0.540396, -0.36076102, 0.3984108, 0
1272, 2785400828, 0.6489376, 0.23729503, 0.090284824, -0.7172781, -0.3088341, 0.20567724, 0.39912987, 0
1273, 2785417495, 0.64869595, 0.23757847, 0.09035924, -0.71739346, -0.949146, -0.12861605, 0.11422348, 0
1274, 2785434162, 0.6483925, 0.23796983, 0.0903949, -0.71753347, -0.33107746, 0.054617003, 0.34483337, 0
1276, 2785467496, 0.6478859, 0.23804832, 0.09061146, -0.71793795, 0.35943967, -0.29514012, -0.105716705, 0
1277, 2785484163, 0.64768386, 0.23848844, 0.09081858, -0.7179477, 0.11173033, -0.27180055, 0.5229187, 0
1278, 2785500830, 0.6476183, 0.23844396, 0.09088175, -0.71801376, -0.11252804, 0.2191821, 1.03858, 0
1280, 2785534164, 0.6472552, 0.23847455, 0.09175664, -0.71821964, -0.4319741, -0.17523457, 0.63494873, 0
1281, 2785550831, 0.64707947, 0.23757309, 0.09240472, -0.7185936, 0.27894595, 0.56547326, 0.78413486, 0
1283, 2785584165, 0.64658, 0.23507081, 0.094163425, -0.719637, 0.29868326, 0.5745531, 0.07548332, 0
1285, 2785617499, 0.6466401, 0.23416501, 0.09512615, -0.71975183, -0.039336715, 1.0973948, 0.6103287, 0
1287, 2785650833, 0.6468843, 0.23444247, 0.09587717, -0.7193421, 0.29341283, 0.9515724, 0.31484795, 0
1288, 2785667500, 0.64706814, 0.23475793, 0.09599513, -0.71905804, -0.13523227, 0.71255887, 0.52189636, 0
1289, 2785684167, 0.6474377, 0.23486507, 0.09593555, -0.7186985, -0.17121495, 0.89639014, 0.44143105, 0
1291, 2785717501, 0.6479037, 0.23393597, 0.09693338, -0.71844757, -0.68953234, 0.23105294, 1.0616703, 0
1292, 2785734168, 0.6481745, 0.23342697, 0.0974473, -0.7182994, -0.45803258, 0.7132096, 0.15295982, 0
1293, 2785750835, 0.6485342, 0.23383282, 0.09792305, -0.7177779, 0.19602086, 0.21579748, -0.35253525, 0
1295, 2785784169, 0.6495093, 0.23428282, 0.09834299, -0.716691, -0.55832106, 0.21959761, 1.3043499, 0
1296, 2785800836, 0.65021133, 0.23480453, 0.09814816, -0.7159099, -0.05226001, 1.0095181, -0.02610588, 0
1297, 2785817503, 0.6507679, 0.23509978, 0.09837769, -0.7152755, -0.6067067, -0.18373892, 0.106285095, 0
1299, 2785850837, 0.6517339, 0.23368208, 0.099325925, -0.71472937, -0.6250399, 0.7615, 0.7804308, 0
1300, 2785867504, 0.6521158, 0.23277509, 0.10003774, -0.7145777, 0.13257648, 0.17907281, 0.22766209, 0
1301, 2785884171, 0.65261143, 0.23259209, 0.10047345, -0.7141236, 0.51890725, 0.63307697, -1.3081999, 0
1303, 2785917505, 0.65402377, 0.23205018, 0.10137982, -0.7128785, -0.8205402, 0.4795355, 1.5904627, 0
1304, 2785934172, 0.6546925, 0.23155008, 0.10194245, -0.7123468, -0.40342143, 0.89736015, -0.2661314, 0
1305, 2785950839, 0.6553235, 0.23071146, 0.10235822, -0.7119793, 0.07224028, 0.13835672, 1.248476, 0
1307, 2785984173, 0.6567217, 0.2292135, 0.10296208, -0.7110869, 0.31728983, 0.25666106, 0.29007912, 0
1308, 2786000840, 0.657419, 0.22885565, 0.10334094, -0.71050274, -0.13974969, 0.47427097, 0.6482258, 0
1310, 2786034174, 0.6587966, 0.22836246, 0.104396276, -0.70923007, -0.03850905, 0.42887586, -0.20319462, 0
1312, 2786067508, 0.66008174, 0.22669244, 0.10621072, -0.70830095, -0.26950902, 1.0477859, -0.3205433, 0
1314, 2786100842, 0.6609314, 0.22305663, 0.108430356, -0.70832646, 0.22435331, 0.72382057, -0.13847923, 0
1315, 2786117509, 0.66150784, 0.22093146, 0.10887112, -0.7083868, 0.62601596, 1.0759352, 0.3136015, 0
1316, 2786134176, 0.6619959, 0.21871947, 0.10925001, -0.70855904, 0.06666184, 0.7575535, -0.1456852, 0
1318, 2786167510, 0.66309774, 0.21532789, 0.11064526, -0.7083511, -1.9897463, -0.49547693, 0.8396864, 0
1319, 2786184177, 0.6639457, 0.2142036, 0.111185715, -0.7078127, -0.17378043, 0.24721038, 0.44097042, 0
1320, 2786200844, 0.66449994, 0.21297234, 0.11191346, -0.7075494, -0.5030747, -0.60443634, 0.585906, 0
1322, 2786234178, 0.665751, 0.21031778, 0.11264314, -0.70705146, -1.1159948, -0.3102692, 0.57612514, 0
1323, 2786250845, 0.6669506, 0.20940325, 0.11257987, -0.7062019, -0.49381074, -0.19524848, 0.14293098, 0
1324, 2786267512, 0.6680109, 0.20834449, 0.11266165, -0.70549953, -0.80094457, -1.0545055, 0.37032413, 0
1327, 2786317513, 0.6712961, 0.20725575, 0.112905756, -0.7026571, -0.99046504, -0.28612414, 0.15609074, 0
1328, 2786334180, 0.6725979, 0.20760264, 0.11276242, -0.7013316, -0.050576065, -0.20915551, 0.7835083, 0
1330, 2786367514, 0.6749022, 0.2086218, 0.11212146, -0.6989142, -0.8878547, 0.009564734, 1.5154057, 0
1331, 2786384181, 0.6763617, 0.20924398, 0.11137155, -0.6974357, 0.06276423, 0.40467736, 0.36795616, 0
1332, 2786400848, 0.6777922, 0.21028152, 0.11071026, -0.695838, -0.03291385, -0.11152774, -0.6401558, 0
1334, 2786434182, 0.6796602, 0.21095724, 0.11058233, -0.69382906, -1.1339588, 0.5976904, 0.72291565, 0
1335, 2786450849, 0.6805258, 0.21102452, 0.11083006, -0.69292015, -1.098074, 0.7860505, 0.68461895, 0
1336, 2786467516, 0.68132836, 0.21112546, 0.111156195, -0.69204795, 0.67872316, 0.0814807, 0.37683487, 0
1338, 2786500850, 0.6823472, 0.21085256, 0.11186454, -0.69101244, 0.7428623, 1.0529563, -0.47817898, 0
1339, 2786517517, 0.68286, 0.21118441, 0.112158656, -0.6903563, 0.8523869, 1.014431, 0.35760784, 0
1342, 2786567518, 0.68286705, 0.2111131, 0.11331189, -0.690183, 0.493355, 1.6969539, -0.120939255, 0
1343, 2786584185, 0.6827339, 0.21104495, 0.113561556, -0.6902946, 1.181219, 1.3323278, -0.5039263, 0
1345, 2786617519, 0.68167007, 0.20995203, 0.114562705, -0.6915126, 2.4590566, 1.8923177, 0.7776642, 0
1346, 2786634186, 0.6809814, 0.20912743, 0.1149188, -0.6923814, 1.6706046, 2.5068412, 0.9943857, 0
1347, 2786650853, 0.6802266, 0.20870091, 0.11541483, -0.69316906, 1.7778409, 2.4579551, 0.555398, 0
1349, 2786684187, 0.6782138, 0.20838605, 0.11651556, -0.6950494, 0.96840453, -0.64262635, 4.8894186, 0
1350, 2786700854, 0.67613375, 0.20972963, 0.11886915, -0.6962724, 2.5382183, 0.71177286, 3.4278784, 0
1351, 2786717521, 0.67316294, 0.21137547, 0.121514335, -0.6981937, 4.2895365, 3.0276, -3.0492373, 0
1353, 2786750855, 0.6702781, 0.21199608, 0.12216376, -0.7006633, 0.04434631, 3.761727, -0.15906715, 0
1354, 2786767522, 0.66976976, 0.21226901, 0.12094347, -0.7012785, -0.6211635, -1.756546, 0.2763319, 0
1357, 2786817523, 0.66848505, 0.21257132, 0.11762053, -0.7029756, 0.7530277, -1.7712063, -3.6768608, 0
1358, 2786834190, 0.6683401, 0.21271668, 0.1162584, -0.70329595, -0.4091201, 0.0029571601, -2.5450659, 0
1359, 2786850857, 0.66824186, 0.21264228, 0.114457324, -0.70370716, -1.0783423, 1.5211604, 0.33156967, 0
1361, 2786884191, 0.66740096, 0.21089901, 0.11274727, -0.70530415, -1.0029992, -2.0403194, 3.8608541, 0
1362, 2786900858, 0.6670461, 0.20914486, 0.112683095, -0.7061719, -0.78753257, -1.5095147, 1.7715187, 0
1363, 2786917525, 0.66701126, 0.20788856, 0.11258642, -0.7065912, -1.6531996, -0.4583572, 0.22208309, 0
1365, 2786950859, 0.6681385, 0.20605665, 0.11196844, -0.70616055, -2.4285088, 1.2722062, 2.0867367, 0
1366, 2786967526, 0.66896653, 0.20608738, 0.11189646, -0.7053788, -2.9109406, -1.6841217, -0.48673058, 0
1368, 2787000860, 0.67121893, 0.20608342, 0.11215874, -0.70319504, -1.5805862, -0.608657, 1.5221186, 0
1369, 2787017527, 0.67233944, 0.2057749, 0.11264569, -0.7021364, -2.8534288, -2.3611867, 0.5688772, 0
1370, 2787034194, 0.67350495, 0.20514539, 0.11299376, -0.70114696, -3.7228184, -2.4833605, 0.5060034, 0
1372, 2787067528, 0.67628145, 0.20436497, 0.11369034, -0.6985853, -1.6504272, -2.1479409, -0.34396267, 0
1373, 2787084195, 0.67772734, 0.20405944, 0.11417111, -0.69719326, -0.4617829, -2.1839428, -0.30837536, 0
1374, 2787100862, 0.67927355, 0.20370366, 0.11431728, -0.69576705, -1.4169966, -2.2589314, -0.08451271, 0
1376, 2787134196, 0.6826924, 0.20421648, 0.11450305, -0.69223094, -1.4198122, -1.3643271, 0.2765131, 0
1377, 2787150863, 0.6844065, 0.20496002, 0.114377186, -0.6903371, -1.089875, -0.8511928, -0.3504038, 0
1378, 2787167530, 0.68607956, 0.20600468, 0.11425011, -0.68838394, -1.1818967, -0.6690345, 0.005645752, 0
1380, 2787200864, 0.68982744, 0.2088444, 0.11357131, -0.6838799, -1.6121693, -0.21364059, 0.09441185, 0
1381, 2787217531, 0.69154704, 0.21033171, 0.11334902, -0.6817208, -0.8971991, 0.0135439355, 1.4611607, 0
1384, 2787267532, 0.6957847, 0.21351571, 0.112971306, -0.67646164, 0.35755658, 0.3911956, 0.98462486, 0
1385, 2787284199, 0.69683003, 0.21369815, 0.11300011, -0.6753223, -0.6940433, 0.79033077, 1.1429014, 0
1386, 2787300866, 0.6976909, 0.21431263, 0.1132652, -0.6741935, -0.99837154, -0.81944233, 0.59617805, 0
1388, 2787334200, 0.699059, 0.21558085, 0.11338636, -0.67234904, 1.8711964, -0.433367, -0.3276596, 0
1389, 2787350867, 0.69951624, 0.21651602, 0.11315532, -0.6716115, 2.0955467, 0.6256084, -0.55620766, 0
1391, 2787384201, 0.69947433, 0.21813144, 0.11264245, -0.6712185, -0.066965826, -0.13218816, 0.6042576, 0
1392, 2787400868, 0.6991797, 0.21872719, 0.11234376, -0.6713816, 0.17722254, -0.83503425, 0.7410259, 0
1393, 2787417535, 0.69887704, 0.21909906, 0.111899294, -0.67164946, -0.18975915, -0.47404674, 0.816741, 0
1395, 2787450869, 0.6978839, 0.22014953, 0.11080431, -0.67251986, 1.0924104, -0.6587872, 0.17787838, 0
1396, 2787467536, 0.69706976, 0.2204746, 0.11049873, -0.6733075, 0.9584003, -0.8132977, 0.28993607, 0
1399, 2787517537, 0.6945851, 0.22044131, 0.11006337, -0.6759523, 0.03836868, -1.7432152, 0.5492315, 0
1400, 2787534204, 0.6936265, 0.22013114, 0.10963313, -0.67710656, 0.15515934, -0.34360403, 0.8997736, 0
1401, 2787550871, 0.6928031, 0.22033423, 0.1093228, -0.6779333, 0.1539707, 0.3755704, 0.13746452, 0
1403, 2787584205, 0.6913501, 0.22131048, 0.10912082, -0.6791301, 0.3385144, -0.122037485, 0.49958134, 0
1404, 2787600872, 0.69056916, 0.22204839, 0.10873942, -0.6797447, -0.2305583, 1.2963157, 1.1376629, 0
1405, 2787617539, 0.6897991, 0.22320808, 0.10846489, -0.68019044, 0.5915039, 0.06863922, -0.020720482, 0
1407, 2787650873, 0.6885264, 0.225586, 0.10774072, -0.68081015, 1.0354899, -0.34071073, -0.56805515, 0
1408, 2787667540, 0.687721, 0.2269432, 0.10761083, -0.6811937, -0.2089075, -0.79948175, 0.47191143, 0
1409, 2787684207, 0.6869955, 0.22737366, 0.10716953, -0.6818514, 0.093150586, 1.0472585, 1.044138, 0
1411, 2787717541, 0.685593, 0.22793832, 0.106867194, -0.6831208, 0.54666954, 0.36280912, 0.61457825, 0
1413, 2787750875, 0.683872, 0.22791278, 0.10623732, -0.68495023, 0.24087946, 0.3654325, 0.83815575, 0
1415, 2787784209, 0.68214196, 0.22927383, 0.10574911, -0.68629515, 1.7425809, -0.39200428, 0.0686121, 0
1416, 2787800876, 0.6814068, 0.23014145, 0.10523442, -0.68681407, 1.1301292, 0.8577734, 0.4282236, 0
1418, 2787834210, 0.6799159, 0.23291595, 0.10362917, -0.68760014, 1.0108744, 0.86441094, 0.38523865, 0
1419, 2787850877, 0.679075, 0.23336636, 0.102964595, -0.6883776, 0.71527743, 0.68736464, 0.22189808, 0
1420, 2787867544, 0.6782401, 0.23358367, 0.10262689, -0.6891768, 0.26543593, 0.5374643, 0.25519943, 0
1422, 2787900878, 0.67666185, 0.2335157, 0.10164146, -0.69089544, 1.0708674, 0.45452833, 0.07175827, 0
1423, 2787917545, 0.67560923, 0.23337199, 0.10130433, -0.6920227, 1.3822712, 0.19947203, 0.55564785, 0
1424, 2787934212, 0.6745969, 0.23342875, 0.10100902, -0.69303346, 0.75674915, -0.3735025, 1.1274261, 0
1426, 2787967546, 0.6729463, 0.23441201, 0.10059176, -0.69436574, 0.44127223, 0.26865524, 0.20272255, 0
1428, 2788000880, 0.67115986, 0.23636892, 0.099782825, -0.69554716, 0.5860523, 0.8934505, 0.17914486, 0
1430, 2788034214, 0.66972196, 0.23830783, 0.098134704, -0.6965053, 1.1035436, -0.1370188, 0.82397556, 0
1431, 2788050881, 0.6689739, 0.23919909, 0.097214386, -0.6970475, 0.7068435, 0.43508184, 0.21723843, 0
1432, 2788067548, 0.66820157, 0.23990545, 0.09641324, -0.6976567, 0.036145173, -0.9790511, 0.49656582, 0
1434, 2788100882, 0.66651475, 0.24145387, 0.09534156, -0.6988822, 0.02328977, -0.97038776, 0.80053616, 0
1435, 2788117549, 0.6656392, 0.24170358, 0.09427868, -0.6997739, 0.7451237, 0.3472557, 1.2057829, 0
1436, 2788134216, 0.6648221, 0.2423218, 0.09316805, -0.70048535, 1.2297152, 0.47687232, -0.6447897, 0
1438, 2788167550, 0.66321075, 0.24408449, 0.091496274, -0.7016202, 0.047645364, -0.90335506, 0.17073059, 0
1439, 2788184217, 0.66214913, 0.24509747, 0.091551304, -0.7022621, -0.66621923, 0.0842223, 0.11841011, 0
1440, 2788200884, 0.66128916, 0.24610823, 0.091311924, -0.70275015, 0.99875915, 0.15357852, -0.9488306, 0
1442, 2788234218, 0.66004515, 0.24635085, 0.08928752, -0.7040935, 0.553336, 0.87016904, 0.69178677, 0
1443, 2788250885, 0.6593846, 0.2456883, 0.088165104, -0.7050846, -0.29044548, 0.9455301, 2.4341927, 0
1444, 2788267552, 0.658488, 0.24529833, 0.0878396, -0.70609844, -0.42583218, -0.67876565, 2.8298855, 0
1446, 2788300886, 0.6557477, 0.2437792, 0.08996763, -0.7089011, 1.84722, 0.95182925, -0.8156767, 0
1447, 2788317553, 0.65434265, 0.24295774, 0.09085751, -0.7103663, 1.8905289, 1.8175075, -2.7597275, 0
1449, 2788350887, 0.65194225, 0.23953123, 0.09158818, -0.71363574, 0.38136294, 1.5186625, 3.2647896, 0
1450, 2788367554, 0.650779, 0.2385097, 0.09249876, -0.7149209, -0.8146162, 0.26069477, 5.2663307, 0
1451, 2788384221, 0.64954674, 0.238016, 0.093822144, -0.71603274, 0.18348357, -0.17165622, 3.668806, 0
1453, 2788417555, 0.64457786, 0.24039286, 0.10082013, -0.7187727, 2.5737703, 2.3772855, -4.8388195, 0
1455, 2788450889, 0.6433518, 0.23791157, 0.10149104, -0.7206001, -1.047301, 1.4992642, 0.9768019, 0
1457, 2788484223, 0.642756, 0.23828803, 0.10214493, -0.7209149, 1.3912659, -1.6228241, -2.3596067, 0
1458, 2788500890, 0.6424811, 0.23869412, 0.102168255, -0.72102225, 1.710167, -0.24637784, -6.598881, 0
1459, 2788517557, 0.64320636, 0.23687688, 0.09956325, -0.7213392, 0.91695184, 1.3467476, -4.515395, 0
1461, 2788550891, 0.64479685, 0.23401357, 0.09442734, -0.7215445, -1.1584421, -0.43041047, 5.479454, 0
1462, 2788567558, 0.6446555, 0.23321871, 0.093317956, -0.7220722, -0.61344117, -3.4118917, 6.352295, 0
1463, 2788584225, 0.6439464, 0.2321964, 0.09285644, -0.7230933, -0.569663, -3.6995974, 3.1134853, 0
1465, 2788617559, 0.64390606, 0.23073794, 0.09225181, -0.7236733, -0.59504443, 1.8075882, -1.2680063, 0
1466, 2788634226, 0.64446187, 0.2306069, 0.091905, -0.7232642, -1.8520626, 0.922924, -0.018074036, 0
1467, 2788650893, 0.6452342, 0.23095311, 0.091248125, -0.72254795, -1.7557269, 0.47532645, 2.2521935, 0
1470, 2788700894, 0.6481285, 0.23472904, 0.09052584, -0.718822, -1.8053186, -1.0446424, 2.1854725, 0
1471, 2788717561, 0.64884055, 0.23534523, 0.0907569, -0.7179483, -3.2645364, -0.9338302, -0.25098896, 0
1473, 2788750895, 0.64946264, 0.23432077, 0.09283839, -0.7174548, -0.5046961, -3.5366604, -0.81993675, 0
1474, 2788767562, 0.649183, 0.2327737, 0.09446188, -0.7179993, 1.0972471, -4.5062485, 0.6294308, 0
1476, 2788800896, 0.64739645, 0.22910437, 0.09734741, -0.720403, -1.2526097, -2.6768067, -0.36874008, 0
1477, 2788817563, 0.6469108, 0.22741146, 0.09805382, -0.7212797, -1.7707338, -0.6557977, -0.68886185, 0
1478, 2788834230, 0.64696264, 0.22646183, 0.09832221, -0.7214952, -1.3782715, -0.41720304, -0.821229, 0
1480, 2788867564, 0.647817, 0.22665653, 0.09844068, -0.72065085, -0.59652054, -0.62526685, 0.262084, 0
1481, 2788884231, 0.6483311, 0.22679399, 0.09826398, -0.72016907, -0.18494825, -0.09669246, 0.5146122, 0
1482, 2788900898, 0.6489297, 0.22749206, 0.09800458, -0.7194447, -0.83496994, -0.3138394, 0.058156013, 0
1485, 2788950899, 0.65067875, 0.22717045, 0.097895026, -0.71798015, -0.5465607, 0.19520707, -0.39814377, 0
1486, 2788967566, 0.65155995, 0.226518, 0.09764114, -0.71742165, -0.5109768, 1.2115642, 0.46435642, 0
1488, 2789000900, 0.6535325, 0.22667208, 0.09692359, -0.71567386, -1.0998869, -0.14042301, 0.7501154, 0
1489, 2789017567, 0.6545049, 0.22781219, 0.096692875, -0.7144534, -0.012547123, -0.48062629, 0.81705093, 0
1490, 2789034234, 0.6555284, 0.22920147, 0.096430585, -0.713105, 0.11703406, -1.0482622, 0.6347561, 0
1492, 2789067568, 0.6571707, 0.23206587, 0.0956768, -0.71076447, -0.19040532, 0.19156577, -0.07283497, 0
1493, 2789084235, 0.6576243, 0.23347606, 0.095186725, -0.7099485, 0.21084704, 0.6507212, -1.0963793, 0
1494, 2789100902, 0.65789425, 0.23413748, 0.09499134, -0.70950675, -0.055864383, -0.93422, 0.79486656, 0
1496, 2789134236, 0.65772575, 0.23353341, 0.09548484, -0.70979553, -0.4102111, -1.0005361, 1.4624128, 0
1497, 2789150903, 0.65714407, 0.2329477, 0.09588992, -0.7104719, 0.85789424, -0.59852564, 0.48318005, 0
1500, 2789200904, 0.6554043, 0.23272753, 0.096594416, -0.7120538, 0.3610035, 0.44392523, -0.30171394, 0
1501, 2789217571, 0.65480983, 0.2320393, 0.09701088, -0.7127684, 0.11911475, -0.11924011, 0.99519444, 0
1503, 2789250905, 0.6529738, 0.22817768, 0.09922144, -0.71539044, -0.3757825, 0.40311915, 0.24269772, 0
1504, 2789267572, 0.65208125, 0.2266507, 0.10029288, -0.71653986, 0.09994896, -0.52135813, 0.57086754, 0
1505, 2789284239, 0.65142137, 0.22492436, 0.100823976, -0.7176085, 0.6459681, 0.8919702, 0.84586716, 0
1507, 2789317573, 0.6507841, 0.22191745, 0.1017598, -0.7189895, -0.5170975, 0.79098874, 0.44242954, 0
1508, 2789334240, 0.6508368, 0.22059847, 0.102257505, -0.71927714, -0.706277, 1.181735, -0.8325262, 0
1509, 2789350907, 0.6509581, 0.21936798, 0.102669075, -0.7194849, -1.1443785, -0.49635333, 0.51440716, 0
1511, 2789384241, 0.6513822, 0.21711826, 0.103527315, -0.7196605, 0.4135145, 0.19761702, 0.2519188, 0
1512, 2789400908, 0.6519381, 0.21589, 0.103844024, -0.719481, 0.33639404, 0.4945331, 0.25572205, 0
1513, 2789417575, 0.6526203, 0.21483776, 0.10409151, -0.7191416, -0.2994745, 1.33987, 0.25391865, 0
1515, 2789450909, 0.6538379, 0.21314251, 0.10474256, -0.7184452, -0.6148891, 0.63300335, -0.06503391, 0
1516, 2789467576, 0.6545888, 0.21233982, 0.105097875, -0.7179469, -0.39930546, -0.41238704, 0.9754896, 0
1517, 2789484243, 0.6553073, 0.21173735, 0.105551414, -0.71740264, 0.6680996, 0.27193874, 0.6389055, 0
1519, 2789517577, 0.6562122, 0.21033607, 0.106366545, -0.71686715, -0.08737233, 0.92074645, 0.10525131, 0
1520, 2789534244, 0.6567421, 0.20989047, 0.10669051, -0.71646434, -0.37525165, 1.0116055, 0.021949768, 0
1521, 2789550911, 0.6575699, 0.20913768, 0.10655451, -0.71594524, -0.34454277, 0.8373866, 0.6821985, 0
1523, 2789584245, 0.6585194, 0.20826082, 0.106738545, -0.7153003, 0.3343432, -0.418475, 0.44424057, 0
1524, 2789600912, 0.6587386, 0.20787944, 0.10699825, -0.71517074, -0.16197917, -1.027405, 0.06550789, 0
1527, 2789650913, 0.66076136, 0.20824867, 0.10727728, -0.7131526, -0.7721219, 0.52047044, 0.22753525, 0
1528, 2789667580, 0.66151124, 0.20853768, 0.10756899, -0.7123287, -1.7804273, 0.5967966, 0.49382305, 0
1530, 2789700914, 0.66317105, 0.20941634, 0.10772993, -0.7105008, 0.078307755, -0.26330012, 0.15799236, 0
1531, 2789717581, 0.6637322, 0.20912622, 0.1079054, -0.71003556, -0.096825145, 0.13720693, 0.5128546, 0
1532, 2789734248, 0.6642263, 0.20884119, 0.10822789, -0.7096083, -0.7201889, 0.5896342, 1.1334944, 0
1534, 2789767582, 0.6655969, 0.20857356, 0.108889386, -0.7083001, 0.5706022, 0.13013318, -0.16109753, 0
1535, 2789784249, 0.6660685, 0.20849395, 0.109238625, -0.7078263, 0.6074986, -0.092242904, 0.43384457, 0
1536, 2789800916, 0.6664557, 0.20820943, 0.10919177, -0.7075529, 0.112171985, 1.0069356, 0.21929646, 0
1538, 2789834250, 0.6676136, 0.20864849, 0.109148644, -0.7063374, -0.2626141, -0.42231348, 0.5389843, 0
1539, 2789850917, 0.6681621, 0.2087091, 0.10878802, -0.7058565, -0.3549692, -0.24255316, 1.3725271, 0
1542, 2789900918, 0.6691896, 0.21118437, 0.107972875, -0.7042702, 0.6916577, -0.25200748, -0.42301083, 0
1543, 2789917585, 0.66971374, 0.2128213, 0.10747927, -0.70335406, -0.17200261, 0.34666026, 0.28496456, 0
1544, 2789934252, 0.6701327, 0.21361426, 0.10720032, -0.70275694, -0.1351907, 0.9946208, 0.05150032, 0
1546, 2789967586, 0.67045, 0.21404743, 0.10674703, -0.7023915, 0.15933345, 0.5545291, 0.029398918, 0
1547, 2789984253, 0.6706271, 0.21406431, 0.10655433, -0.70224655, 0.7653857, 0.4218425, 0.20591164, 0
1548, 2790000920, 0.67059004, 0.21376656, 0.106404945, -0.7023954, 0.534724, 0.26351184, 0.11316204, 0
1550, 2790034254, 0.6703476, 0.21311273, 0.10622745, -0.7028521, -0.076457076, 0.7082882, 0.9597435, 0
1551, 2790050921, 0.6704378, 0.21299446, 0.10622044, -0.70280296, -0.0020429085, 0.59813887, 0.9700241, 0
1552, 2790067588, 0.6703407, 0.2126736, 0.1062495, -0.70298827, 0.47653565, 0.7663724, 1.3188715, 0
1554, 2790100922, 0.66966116, 0.21231411, 0.10689126, -0.7036469, 0.5987013, 0.8412808, 0.53298664, 0
1557, 2790150923, 0.6687125, 0.21028908, 0.10797595, -0.7049904, -0.5313884, 1.2404274, 0.8874569, 0
1558, 2790167590, 0.6684241, 0.20975989, 0.10877592, -0.7052985, -0.31666198, 0.44052693, 1.3817415, 0
1559, 2790184257, 0.668237, 0.20915276, 0.10952005, -0.7055409, 0.97241795, 1.7223845, 1.25387, 0
1561, 2790217591, 0.66792697, 0.20823532, 0.11058519, -0.7059399, 1.5676608, 2.4079878, -0.9113636, 0
1562, 2790234258, 0.6681502, 0.20810784, 0.11063406, -0.70575833, 0.16284283, 1.9262202, -0.16959476, 0
1563, 2790250925, 0.6686332, 0.20816289, 0.11015767, -0.705359, -0.23496822, 1.5890868, 1.9250574, 0
1565, 2790284259, 0.66867626, 0.21130323, 0.10957159, -0.7044751, 1.185106, 0.43155703, 1.563426, 0
1566, 2790300926, 0.66819704, 0.21286921, 0.11033264, -0.7043395, 3.1624246, 1.9344555, -1.5483217, 0
1567, 2790317593, 0.66808915, 0.21401085, 0.11063729, -0.7040481, 1.5063673, 1.3591993, -2.1161318, 0
1569, 2790350927, 0.6686016, 0.21411835, 0.11081751, -0.70350057, -1.4985723, -0.5793066, 0.25541496, 0
1571, 2790384261, 0.6685909, 0.21455051, 0.11114797, -0.7033267, 0.7481005, -1.2147944, -0.67122364, 0
1573, 2790417595, 0.6683617, 0.21607682, 0.109884694, -0.7032759, 1.0875416, -0.820791, -1.7281647, 0
1574, 2790434262, 0.6682954, 0.21702343, 0.10845207, -0.70326996, 0.78386843, -0.14677651, -0.5837555, 0
1575, 2790450929, 0.6680952, 0.21719767, 0.10726716, -0.7035878, 0.8782566, 0.5948648, 0.5028353, 0
1577, 2790484263, 0.66742355, 0.21691807, 0.10555643, -0.7045697, -1.2046014, -0.885506, 3.373601, 0
1578, 2790500930, 0.6672838, 0.2171657, 0.10487759, -0.7047272, -1.5373639, -2.178515, 2.8166904, 0
1579, 2790517597, 0.66723156, 0.21716987, 0.10431613, -0.7048587, -0.55732846, -0.6874974, 2.0817194, 0
1581, 2790550931, 0.6678485, 0.2173004, 0.10335243, -0.7043759, -2.2194815, -0.7591166, -0.09613705, 0
1582, 2790567598, 0.6684371, 0.21734291, 0.1031611, -0.70383227, -2.5160801, -1.2456079, 0.4698372, 0
1584, 2790600932, 0.66950107, 0.21698868, 0.103296176, -0.70291007, -1.5445832, -2.3741179, 0.24348259, 0
1585, 2790617599, 0.670086, 0.2164366, 0.10393274, -0.7024287, -2.3280268, -1.8695039, 0.7825804, 0
1586, 2790634266, 0.67059064, 0.21595794, 0.10492851, -0.70194626, -2.2561066, -2.0745268, 0.22309685, 0
1588, 2790667600, 0.67106175, 0.21382445, 0.106635176, -0.7018921, -0.46680123, -1.5053567, -0.27783298, 0
1589, 2790684267, 0.6713668, 0.21285194, 0.10711254, -0.70182306, -0.17322622, -1.9554476, -1.0703821, 0
1590, 2790700934, 0.6716686, 0.21220906, 0.10758695, -0.70165646, -0.15951538, -1.7610689, -1.8993869, 0
1592, 2790734268, 0.672408, 0.21149957, 0.10819475, -0.70106876, -1.6069696, -1.0827063, 0.39960194, 0
1593, 2790750935, 0.67321694, 0.21162102, 0.107805505, -0.7003155, -1.512071, -0.1573289, 1.4107132, 0
1594, 2790767602, 0.67419755, 0.21253712, 0.10715628, -0.6991935, -0.6740798, 0.046544828, 0.47976685, 0
1596, 2790800936, 0.67627025, 0.21576428, 0.10564703, -0.69642746, -0.011891783, 0.6961263, 0.47982788, 0
1598, 2790834270, 0.6783357, 0.21862398, 0.104779355, -0.6936524, 0.12848508, -0.081070594, 0.59170055, 0
1600, 2790867604, 0.6797809, 0.21968439, 0.10413406, -0.6919977, -0.1029371, -0.034990016, 0.4784155, 0
1601, 2790884271, 0.68035185, 0.22003171, 0.10399773, -0.6913464, 0.20473038, 0.10837617, -0.2977152, 0
1602, 2790900938, 0.6807661, 0.22002621, 0.10379155, -0.6909714, -0.08366996, -0.029073281, 0.7227669, 0
1604, 2790934272, 0.68096805, 0.2204319, 0.10326214, -0.69072247, 0.1539041, -0.8615562, 0.42956734, 0
1605, 2790950939, 0.68087876, 0.22089824, 0.10286204, -0.6907213, 1.1400208, -0.67057836, -0.5436678, 0
1606, 2790967606, 0.6807053, 0.22177766, 0.10218877, -0.6907101, -0.39767873, -2.9327838, 0.4067192, 0
1608, 2791000940, 0.679971, 0.22385192, 0.10088436, -0.69095606, 0.5720023, -1.435347, 1.2653913, 0
1609, 2791017607, 0.6795104, 0.22430818, 0.100856975, -0.6912651, 0.68528605, -1.8840964, -0.28071404, 0
1611, 2791050941, 0.6781313, 0.22406998, 0.101084694, -0.692662, -1.0338972, -0.1575193, -0.319376, 0
1613, 2791084275, 0.67659056, 0.22346658, 0.1011325, -0.69435465, -0.28349558, -2.0026524, 1.7664299, 0
1615, 2791117609, 0.67552435, 0.22314566, 0.100789085, -0.69554484, 6.146606E-4, -2.550919, 0.80184174, 0
1616, 2791134276, 0.67489505, 0.22288099, 0.10072152, -0.6962501, 0.21555544, -1.1366208, 0.21981525, 0
1617, 2791150943, 0.67427385, 0.22237764, 0.10078923, -0.6970026, -0.8620984, -0.34656116, -0.3620634, 0
1619, 2791184277, 0.67357457, 0.22076601, 0.10061179, -0.69821566, -1.1521733, 0.25485846, 0.46027565, 0
1620, 2791200944, 0.6729224, 0.21989198, 0.10091892, -0.6990757, -0.9989451, -1.2641692, 0.12294197, 0
1621, 2791217611, 0.67215383, 0.21843413, 0.10159813, -0.7001727, -0.030691458, -0.9160198, 0.23501492, 0
1623, 2791250945, 0.6711496, 0.21530508, 0.10330051, -0.701854, -0.16659337, 0.22084402, 0.80682945, 0
1624, 2791267612, 0.67056835, 0.2137119, 0.10415228, -0.70277, 0.3944245, 1.2031933, -0.5904112, 0
1625, 2791284279, 0.6701368, 0.21225302, 0.104648665, -0.7035496, 0.18507655, 1.1235387, 0.42221642, 0
1628, 2791334280, 0.66967857, 0.21041693, 0.106043875, -0.70432806, 0.5463198, -0.048068725, 0.44261074, 0
1629, 2791350947, 0.6694924, 0.2097849, 0.10639943, -0.70464, -0.57644683, 1.0750117, 1.3202972, 0
1631, 2791384281, 0.66933775, 0.20792359, 0.10663781, -0.7053025, 0.18490846, 0.8267578, 0.24968624, 0
1632, 2791400948, 0.6692718, 0.20737526, 0.10675007, -0.7055091, -0.0952078, 0.87075484, -0.44964123, 0
1634, 2791434282, 0.6697155, 0.20673925, 0.106636666, -0.705292, 0.8069039, 0.8349315, 0.16971111, 0
1635, 2791450949, 0.67012393, 0.20690653, 0.10681665, -0.70482767, 0.28436962, -0.0030805953, -0.271163, 0
1636, 2791467616, 0.6705709, 0.20697474, 0.107017525, -0.7043519, -0.20230046, 0.74320996, -0.036969185, 0
1638, 2791500950, 0.671384, 0.20676209, 0.10737822, -0.70358443, -0.7396935, 1.1977609, 0.14253712, 0
1639, 2791517617, 0.6717098, 0.20670491, 0.10768859, -0.7032428, 0.011712302, -0.26809, 0.60413647, 0
1640, 2791534284, 0.67210245, 0.20671082, 0.10808775, -0.70280445, 0.82729363, 0.4663513, -0.56723595, 0
1643, 2791584285, 0.6729282, 0.20797695, 0.10781005, -0.70168245, 0.20382527, 0.9840567, 0.69962025, 0
1644, 2791600952, 0.6731746, 0.20954889, 0.10705174, -0.70109427, 0.29304984, -0.068122335, 0.80490875, 0
1646, 2791634286, 0.6728506, 0.2098006, 0.10759319, -0.7012471, -0.45613742, -0.45843276, 0.8538408, 0
1647, 2791650953, 0.67243326, 0.20937447, 0.10802494, -0.7017084, -1.2659405, 0.06637251, 1.5627413, 0
1648, 2791667620, 0.6720211, 0.20884964, 0.108421765, -0.7021982, -0.5660363, -0.8796674, 1.4191446, 0
1650, 2791700954, 0.6715668, 0.20837742, 0.10921222, -0.7026504, 0.035672314, 0.12905045, 0.16823006, 0
1651, 2791717621, 0.67170596, 0.20853052, 0.10968534, -0.7023982, -0.63874346, 0.08470215, 0.15598774, 0
1652, 2791734288, 0.6720409, 0.20877092, 0.109935515, -0.70196724, -0.5104714, 1.5923307, 0.45798492, 0
1654, 2791767622, 0.6731965, 0.2098999, 0.11021747, -0.7004774, -0.27043882, 0.5640362, -0.39529896, 0
1655, 2791784289, 0.67381024, 0.21085104, 0.1104349, -0.69956684, 0.27419764, 0.4031547, -0.6593075, 0
1656, 2791800956, 0.67432106, 0.2116455, 0.11052946, -0.69881946, 0.054137073, -0.032824498, -0.16916752, 0
1658, 2791834290, 0.6752732, 0.2129708, 0.110400036, -0.6975167, 0.2131272, 0.8904785, 0.5216017, 0
1659, 2791850957, 0.6757122, 0.21349005, 0.110030174, -0.696991, 0.46201146, 0.5890723, 0.43675423, 0
1660, 2791867624, 0.6761789, 0.21442568, 0.1094681, -0.6963395, 1.2559094, 0.23499563, -0.21247959, 0
1662, 2791900958, 0.6770089, 0.21786168, 0.107625976, -0.6947518, -0.111104935, 0.013902059, 0.8939638, 0
1663, 2791917625, 0.67714506, 0.21993901, 0.107016355, -0.69405854, 0.32118297, -0.59178126, 1.4172344, 0
1665, 2791950959, 0.6773371, 0.22248413, 0.10627889, -0.6931725, 0.95509547, 0.9701765, 0.17062187, 0
1666, 2791967626, 0.67729884, 0.22365066, 0.10597037, -0.69288176, 0.4434915, 1.227769, 0.847559, 0
1667, 2791984293, 0.67718136, 0.22404416, 0.10507989, -0.69300514, 0.0028696829, 2.0326023, 2.0180779, 0
1670, 2792034294, 0.6760737, 0.22873665, 0.10310556, -0.69285023, 2.074537, 0.1308108, 0.3173561, 0
1671, 2792050961, 0.6757355, 0.22969593, 0.10215157, -0.69300413, 1.0414846, 0.6220154, 0.29102325, 0
1673, 2792084295, 0.67466474, 0.2301675, 0.10162759, -0.6939672, -0.3400448, 2.202945, -0.06945133, 0
1674, 2792100962, 0.67402864, 0.22988115, 0.102010995, -0.6946236, 0.90937024, 1.4380753, 0.53014183, 0
1675, 2792117629, 0.67323124, 0.22886379, 0.10218849, -0.695706, 2.2325141, 1.732877, 0.1565361, 0
1677, 2792150963, 0.6711018, 0.22729658, 0.10244047, -0.6982355, 1.7312112, 0.32769614, 1.0298805, 0
1678, 2792167630, 0.67019165, 0.2264413, 0.102789536, -0.6993354, 0.05365652, 0.11404474, 1.3039322, 0
1679, 2792184297, 0.66927814, 0.22564258, 0.10360237, -0.70034766, 0.8228347, 1.0642989, 1.4807196, 0
1681, 2792217631, 0.6669534, 0.22421916, 0.10565198, -0.7027124, 1.270261, 1.9279982, -0.29575253, 0
1682, 2792234298, 0.6660408, 0.22381529, 0.1064982, -0.70357853, 1.1994098, 1.1108856, 0.6041918, 0
1685, 2792284299, 0.6642702, 0.22476096, 0.10806495, -0.70471114, -0.35730872, -1.4642714, -2.607304, 0
