sep=,
DeviceTag:,Xsens_DOT_4,,,,,,,,,,,,,,,,,
FirmwareVersion:,3.0.0,,,,,,,,,,,,,,,,,
AppVersion:,2023.6.1,,,,,,,,,,,,,,,,,
SyncStatus:,Synced,,,,,,,,,,,,,,,,,
OutputRate:,60Hz,,,,,,,,,,,,,,,,,
FilterProfile:,General,,,,,,,,,,,,,,,,,
Measurement Mode:,Sensor fusion Mode - Extended (Quaternion),,,,,,,,,,,,,,,,,
StartTime:,2025-05-05 11:52:51.219 +0200,,,,,,,,,,,,,,,,,
 2025,,,,,,,,,,,,,,,,,,,

PacketCounter,SampleTimeFine,Quat_W,Quat_X,Quat_Y,Quat_Z,FreeAcc_X,FreeAcc_Y,FreeAcc_Z,Status
1, 2764217071, 0.7548087, 0.02820456, -0.6551948, 0.013889298, 0.06534133, 0.03502828, 0.049402237, 0
2, 2764233738, 0.7548127, 0.02826684, -0.65518904, 0.013819352, 0.067829475, 0.036605835, 0.042957306, 0
3, 2764250405, 0.7548095, 0.028339915, -0.6551914, 0.013733044, 0.028845688, 0.040441986, 0.08448601, 0
4, 2764267072, 0.75481015, 0.028421283, -0.6551892, 0.013636515, -0.06978566, 0.019937132, 0.10610008, 0
5, 2764283739, 0.7548128, 0.028513424, -0.65518415, 0.013536766, -0.056331076, -0.038135782, 0.08689594, 0
6, 2764300406, 0.75482726, 0.02859369, -0.6551662, 0.013434082, -0.0603485, -0.07225861, 0.075387955, 0
7, 2764317073, 0.75483334, 0.028666615, -0.6551577, 0.013344437, -0.024794739, -0.029584846, 0.05881214, 0
8, 2764333740, 0.75483906, 0.028743058, -0.65514976, 0.013251498, -0.019236866, 0.03418519, 0.070534706, 0
9, 2764350407, 0.7548459, 0.028824411, -0.65514046, 0.013142288, -0.029761644, 0.08245773, 0.084459305, 0
10, 2764367074, 0.7548551, 0.028894499, -0.6551292, 0.013026744, -0.031074036, 0.022445053, 0.047452927, 0
11, 2764383741, 0.75485134, 0.028966062, -0.65513223, 0.012922987, -0.010617759, 0.0016385735, 0.086398125, 0
12, 2764400408, 0.75485414, 0.02904486, -0.6551273, 0.012833133, -0.045964994, 0.012900944, 0.08304691, 0
13, 2764417075, 0.7548514, 0.029128172, -0.6551286, 0.012739673, -0.067240745, -0.014893674, 0.11468601, 0
14, 2764433742, 0.754853, 0.02920115, -0.655125, 0.012662485, -0.035334717, 0.013987217, 0.055933952, 0
15, 2764450409, 0.7548571, 0.029253818, -0.6551192, 0.012588084, -0.024839442, 0.040012956, 0.056749344, 0
16, 2764467076, 0.754847, 0.02930504, -0.65512985, 0.012530923, -0.018151933, 0.09450653, 0.06081009, 0
17, 2764483743, 0.75484735, 0.029368527, -0.65512794, 0.01245968, 0.0016888638, 0.06380613, 0.07951927, 0
18, 2764500410, 0.7548579, 0.02942007, -0.6551143, 0.012414366, 0.01621363, 0.012699895, 0.09634113, 0
19, 2764517077, 0.7548624, 0.029444546, -0.65510887, 0.012368262, -0.017144337, 0.036313366, 0.074518204, 0
20, 2764533744, 0.75487274, 0.029476635, -0.6550958, 0.012355506, -0.032647196, 0.03530823, 0.052695274, 0
21, 2764550411, 0.75487953, 0.02950012, -0.65508693, 0.012355715, 0.024353078, 0.03939673, 0.08928394, 0
22, 2764567078, 0.7548908, 0.029514194, -0.6550736, 0.012339711, 0.04226585, 0.035067618, 0.04782772, 0
23, 2764583745, 0.754887, 0.02952864, -0.65507764, 0.012328759, 0.060179934, 0.03487319, 0.06388855, 0
24, 2764600412, 0.7548881, 0.029558167, -0.65507543, 0.012296781, 0.018788053, 0.0473824, 0.061330795, 0
25, 2764617079, 0.7548906, 0.029611439, -0.6550713, 0.012245521, -0.0028323561, 2.2127782E-4, 0.11104298, 0
26, 2764633746, 0.75489044, 0.029657632, -0.65507007, 0.012201324, 0.018969992, -0.023708243, 0.09292793, 0
27, 2764650413, 0.7548926, 0.029694773, -0.65506697, 0.0121462345, -0.028826019, -0.0147713, 0.08801937, 0
28, 2764667080, 0.754896, 0.029751427, -0.65506154, 0.012090385, -0.0074908133, 0.01249795, 0.07473278, 0
29, 2764683747, 0.7548962, 0.02983334, -0.655059, 0.012007341, 0.017111259, -0.010898156, 0.06466484, 0
30, 2764700414, 0.7548969, 0.029922776, -0.655056, 0.011914119, 0.05718579, -0.062276073, 0.07029915, 0
31, 2764717081, 0.75489306, 0.030010715, -0.6550584, 0.011803508, 0.0049427655, -0.0118953595, 0.040046692, 0
32, 2764733748, 0.7548851, 0.030123644, -0.6550649, 0.011663899, -0.016753636, 0.01866959, 0.06959534, 0
33, 2764750415, 0.7548876, 0.030249685, -0.6550586, 0.011518478, -0.018910984, 0.0056422492, 0.0853138, 0
34, 2764767082, 0.7548849, 0.030367687, -0.65505874, 0.011379287, 0.0038958308, -0.016267609, 0.099817276, 0
35, 2764783749, 0.75488794, 0.030482225, -0.65505236, 0.011240289, 0.006238766, -0.018583093, 0.111234665, 0
36, 2764800416, 0.7548845, 0.030613936, -0.6550528, 0.011089966, 0.022553798, 0.014198996, 0.08437157, 0
37, 2764817083, 0.7548821, 0.030743077, -0.655052, 0.010935232, 0.016272638, 0.0046843844, 0.070319176, 0
38, 2764833750, 0.75488335, 0.030869044, -0.65504706, 0.010792419, -0.011898489, 0.014468776, 0.05444622, 0
39, 2764850417, 0.75489306, 0.03097783, -0.65503293, 0.010658979, -0.06115806, 0.04630395, 0.09070587, 0
40, 2764867084, 0.7548984, 0.03109157, -0.6550236, 0.010521382, -0.021204675, 0.07926496, 0.07876682, 0
41, 2764883751, 0.75489366, 0.03118933, -0.65502656, 0.010386631, 0.02420243, 0.02822421, 0.051008224, 0
42, 2764900418, 0.7549044, 0.031272106, -0.65501225, 0.010263562, 0.031863112, -0.01020359, 0.053777695, 0
43, 2764917085, 0.75490505, 0.03134702, -0.65500945, 0.01016286, 0.017330747, 0.033082042, 0.06880474, 0
44, 2764933752, 0.7549053, 0.031412296, -0.65500736, 0.010075793, -0.015491236, 0.06525595, 0.080599785, 0
45, 2764950419, 0.7549027, 0.03148243, -0.65500814, 0.0099930465, -0.017752293, 0.06471248, 0.11477852, 0
46, 2764967086, 0.7549112, 0.031549, -0.6549963, 0.009921432, -0.054153167, 0.050940167, 0.09866142, 0
47, 2764983753, 0.7549067, 0.031614333, -0.65499943, 0.009846091, -0.04038924, 0.044952255, 0.07937527, 0
48, 2765000420, 0.7549084, 0.03166724, -0.654996, 0.009787619, -0.034587, 0.01789773, 0.059811592, 0
49, 2765017087, 0.75490993, 0.03171152, -0.65499246, 0.009757191, 0.03776475, 0.029811375, 0.06171131, 0
50, 2765033754, 0.7549087, 0.03173306, -0.65499294, 0.009747535, 0.008030821, 0.09310276, 0.06375122, 0
51, 2765050421, 0.75491655, 0.031744696, -0.65498334, 0.009745434, -0.02643756, 0.092011005, 0.09938812, 0
52, 2765067088, 0.7549133, 0.031760916, -0.654986, 0.009755939, -0.058167458, 0.048575513, 0.06909084, 0
53, 2765083755, 0.7549143, 0.031755596, -0.6549853, 0.009762213, -0.040382087, -0.048874907, 0.0704298, 0
54, 2765100422, 0.75490624, 0.031767175, -0.65499413, 0.009749636, -0.049351215, -0.08575376, 0.05980873, 0
55, 2765117089, 0.7549114, 0.031805456, -0.6549866, 0.009733215, -0.060649347, -0.029114127, 0.080872536, 0
56, 2765133756, 0.7549146, 0.031873316, -0.65498006, 0.009703293, 0.0031466153, -0.005353694, 0.06542301, 0
57, 2765150423, 0.7549148, 0.031932175, -0.6549775, 0.009665579, 0.027568089, -0.01498755, 0.09950638, 0
58, 2765167090, 0.7549199, 0.031969137, -0.6549706, 0.009619668, -0.025615478, 0.010663356, 0.077181816, 0
59, 2765183757, 0.7549292, 0.032007605, -0.65495867, 0.009569839, -0.03376476, 0.040681258, 0.10021782, 0
60, 2765200424, 0.75493276, 0.032048337, -0.6549534, 0.009509593, -0.019296503, -0.016706033, 0.06725311, 0
61, 2765217091, 0.754947, 0.032083496, -0.654936, 0.009455979, 5.552062E-4, -0.04772348, 0.05988884, 0
62, 2765233758, 0.75494707, 0.032117613, -0.654935, 0.009401962, -0.015068796, -0.033446815, 0.073991776, 0
63, 2765250425, 0.75494194, 0.03217715, -0.65493894, 0.009345651, -0.015022753, 0.0073061916, 0.10202408, 0
64, 2765267092, 0.7549425, 0.032246366, -0.65493584, 0.00927417, 0.05019341, 0.046005446, 0.046822548, 0
65, 2765283759, 0.75493705, 0.032314174, -0.6549398, 0.009195685, 0.072913505, 0.055150926, 0.07202244, 0
66, 2765300426, 0.75494343, 0.032368764, -0.65493107, 0.009109557, 0.045806747, 0.06782847, 0.07224655, 0
67, 2765317093, 0.75493604, 0.032418236, -0.65493804, 0.009041518, 0.01193738, 0.077136554, 0.07507706, 0
68, 2765333760, 0.7549364, 0.032472946, -0.6549358, 0.008979678, -0.009778244, 0.038459204, 0.053588867, 0
69, 2765350427, 0.75493836, 0.032523617, -0.65493166, 0.008936822, 0.039895274, -0.002446908, 0.050605774, 0
70, 2765367094, 0.7549365, 0.032547824, -0.654933, 0.00889723, 0.08639536, 0.0017915681, 0.03354168, 0
71, 2765383761, 0.7549252, 0.032574847, -0.6549451, 0.00886482, 0.06831629, 0.071514085, 0.052412987, 0
72, 2765400428, 0.7549288, 0.032617792, -0.6549392, 0.008837566, 0.06493364, 0.09206912, 0.06418991, 0
73, 2765417095, 0.75491846, 0.032656334, -0.6549497, 0.008804992, 0.034955774, 0.06080517, 0.08110809, 0
74, 2765433762, 0.7549146, 0.032681294, -0.65495324, 0.0087773055, 0.023586428, 0.06515402, 0.11604118, 0
75, 2765450429, 0.75490683, 0.032697134, -0.65496176, 0.0087533, -0.018772407, 0.06760384, 0.081336975, 0
76, 2765467096, 0.75491136, 0.032702386, -0.65495634, 0.008748919, -0.007743383, 0.013060644, 0.065766335, 0
77, 2765483763, 0.75490946, 0.032699905, -0.6549582, 0.008785993, 0.011724596, 0.016633164, 0.051309586, 0
78, 2765500430, 0.7549008, 0.032674685, -0.6549687, 0.008828893, -0.0022230598, 0.018704124, 0.05059719, 0
79, 2765517097, 0.75489014, 0.032662876, -0.6549808, 0.0088927, -0.029780867, 0.028082727, 0.0716486, 0
80, 2765533764, 0.75488204, 0.03263194, -0.65499115, 0.008929521, -0.034682952, -0.018205019, 0.08864212, 0
81, 2765550431, 0.75488466, 0.03259731, -0.6549893, 0.008967817, -0.034792475, -0.007293004, 0.08466244, 0
82, 2765567098, 0.7548913, 0.032564044, -0.6549829, 0.0090034455, -0.050542537, 0.02035309, 0.15236282, 0
83, 2765583765, 0.75489527, 0.032566212, -0.65497804, 0.009014934, -0.045483544, 0.012926425, 0.079639435, 0
84, 2765600432, 0.7549065, 0.032566004, -0.6549651, 0.009014353, -0.0018426408, -0.05841813, 0.07128525, 0
85, 2765617099, 0.7549118, 0.03258743, -0.6549582, 0.008999333, -0.022801423, -0.043308735, 0.0638361, 0
86, 2765633766, 0.7549093, 0.032614224, -0.6549599, 0.008983925, -0.028804561, -0.027351057, 0.07750511, 0
87, 2765650433, 0.7549038, 0.032653935, -0.65496457, 0.00895533, -0.056858566, -0.054389644, 0.094882965, 0
88, 2765667100, 0.7549045, 0.03269068, -0.6549624, 0.008920506, -0.08501226, -0.07568059, 0.12538528, 0
89, 2765683767, 0.7549133, 0.032723144, -0.6549514, 0.008869559, -0.08664927, 0.006906662, 0.14359474, 0
90, 2765700434, 0.75491863, 0.032769427, -0.65494365, 0.008818552, -0.090268835, 0.011330654, 0.08504391, 0
91, 2765717101, 0.7549223, 0.03280954, -0.6549379, 0.008774236, -0.031225206, -0.026933422, 0.101530075, 0
92, 2765733768, 0.75494766, 0.032828607, -0.65490836, 0.008736014, -0.04714067, -0.015556949, 0.07587147, 0
93, 2765750435, 0.75495285, 0.032847375, -0.6549019, 0.008695692, -0.040543016, 0.051707488, 0.06913757, 0
94, 2765767102, 0.75496244, 0.032866344, -0.6548903, 0.00867337, 0.009065239, -0.0017444069, 0.073981285, 0
95, 2765783769, 0.7549589, 0.032872275, -0.654894, 0.008670196, -9.3696633E-4, -0.013997275, 0.05021, 0
96, 2765800436, 0.7549633, 0.032834917, -0.6548906, 0.008678272, -0.035558674, 0.060295973, 0.08069229, 0
97, 2765817103, 0.75498146, 0.03279002, -0.6548714, 0.008718088, -0.12994128, 0.09422908, 0.04550171, 0
98, 2765833770, 0.7549916, 0.032741114, -0.65486145, 0.008780703, -0.06041734, 0.048524328, 0.07320404, 0
99, 2765850437, 0.75499916, 0.032664917, -0.65485543, 0.008862719, -0.00627982, -0.007456504, 0.08849716, 0
100, 2765867104, 0.75500274, 0.032573074, -0.65485466, 0.008951411, -0.016986985, 0.02809759, 0.09364033, 0
101, 2765883771, 0.7550183, 0.03250823, -0.6548387, 0.009043843, -0.03114653, 0.051376577, 0.06915474, 0
102, 2765900438, 0.75502586, 0.032453746, -0.65483147, 0.009139657, -0.0076217917, 0.044144366, 0.09026909, 0
103, 2765917105, 0.7550326, 0.03238169, -0.65482575, 0.009248868, 0.015461733, 0.038471945, 0.0494318, 0
104, 2765933772, 0.7550351, 0.032292366, -0.65482545, 0.009368941, 0.077656, 0.05398229, 0.03766346, 0
105, 2765950439, 0.7550353, 0.032190636, -0.6548285, 0.0095003545, 0.038120136, 0.09425943, 0.020495415, 0
106, 2765967106, 0.7550359, 0.03209868, -0.6548302, 0.009635404, 0.09840828, 0.062081728, 0.10896969, 0
107, 2765983773, 0.7550338, 0.032009974, -0.6548349, 0.009769663, 0.060375318, 0.012003652, 0.08743191, 0
108, 2766000440, 0.7550377, 0.031908497, -0.6548332, 0.009906605, 0.03475135, -0.002597891, 0.07566643, 0
109, 2766017107, 0.7550431, 0.031802677, -0.6548302, 0.010038987, 0.04518225, 0.004601573, 0.08116436, 0
110, 2766033774, 0.75504273, 0.03171926, -0.6548328, 0.010165736, 0.048987076, -0.0013110483, 0.056570053, 0
111, 2766050441, 0.75504524, 0.031644784, -0.6548318, 0.010268286, 0.07611421, -0.015372327, 0.040136337, 0
112, 2766067108, 0.75504386, 0.031595446, -0.6548345, 0.010351732, 0.08005921, -0.011932239, 0.06445789, 0
113, 2766083775, 0.75503176, 0.031562775, -0.65484947, 0.010387257, 0.08506635, -0.043955386, 0.030691147, 0
114, 2766100442, 0.75502646, 0.031562567, -0.65485525, 0.0104148835, 0.07596266, -0.03259914, 0.10122681, 0
115, 2766117109, 0.75502646, 0.031576812, -0.6548541, 0.010435998, -0.015827846, -0.025270822, 0.06869316, 0
116, 2766133776, 0.7550336, 0.031587772, -0.6548452, 0.010446161, -0.057687353, -0.024934435, 0.10620499, 0
117, 2766150443, 0.7550367, 0.03161624, -0.6548403, 0.010437325, -0.12016772, -0.056194287, 0.091174126, 0
118, 2766167110, 0.75503635, 0.0316488, -0.6548395, 0.010410532, -0.045867093, -0.07303744, 0.060393333, 0
119, 2766183777, 0.7550448, 0.031695887, -0.6548282, 0.010369703, -0.038076773, -0.11385068, 0.074287415, 0
120, 2766200444, 0.7550441, 0.031737372, -0.6548279, 0.010316879, -0.024062958, -0.07006963, 0.076351166, 0
121, 2766217111, 0.75504047, 0.03178458, -0.6548307, 0.010254964, -0.06219114, 0.011347082, 0.10415554, 0
122, 2766233778, 0.7550448, 0.031827815, -0.6548247, 0.010182381, -0.062043473, 0.025506103, 0.13337517, 0
123, 2766250445, 0.7550556, 0.03187971, -0.654811, 0.010105655, -0.024389734, -0.018196637, 0.11037254, 0
124, 2766267112, 0.7550696, 0.031930603, -0.65479356, 0.010031879, -0.015596287, -0.033874728, 0.078175545, 0
125, 2766283779, 0.7550751, 0.031972565, -0.6547863, 0.009957746, -0.010856024, 0.002203279, 0.008911133, 0
126, 2766300446, 0.7550844, 0.03202781, -0.6547737, 0.009892851, 0.011096077, 0.017014924, 0.0459404, 0
127, 2766317113, 0.7550837, 0.032091357, -0.65477246, 0.00983277, 0.018670484, -0.003194, 0.024568558, 0
128, 2766333780, 0.75509083, 0.032138646, -0.6547629, 0.009767368, 0.04308704, 0.01395112, 0.0851841, 0
129, 2766350447, 0.7550967, 0.03218676, -0.6547547, 0.009707317, 0.03808929, 0.03405678, 0.08387184, 0
130, 2766367114, 0.7550933, 0.032245077, -0.65475667, 0.009643659, 0.009118882, 0.030186318, 0.08654976, 0
131, 2766383781, 0.7551019, 0.03231003, -0.6547446, 0.009569749, 0.012253874, 0.019289726, 0.04373932, 0
132, 2766400448, 0.7551071, 0.032376155, -0.65473634, 0.009495184, 0.030020472, 0.017385174, 0.067225456, 0
133, 2766417115, 0.7551111, 0.03243558, -0.65473014, 0.009417251, 0.038036987, 0.0044695884, 0.06196785, 0
134, 2766433782, 0.7551167, 0.032500707, -0.6547215, 0.009336069, 0.016961057, 0.002192215, 0.06477928, 0
135, 2766450449, 0.75511384, 0.03256256, -0.6547227, 0.009264901, -0.07783371, -0.038018726, 0.05419159, 0
136, 2766467116, 0.7551108, 0.03262665, -0.65472406, 0.009189457, -0.111209765, -0.026704881, 0.100372314, 0
137, 2766483783, 0.7551109, 0.03267295, -0.6547225, 0.009126842, -0.15828562, -0.02216969, 0.09144974, 0
138, 2766500450, 0.75511473, 0.03271251, -0.65471673, 0.009082779, -0.115125716, 0.00800724, 0.13039207, 0
139, 2766517117, 0.75511456, 0.032726273, -0.65471655, 0.009063989, -0.08489559, -0.015400713, 0.08248901, 0
140, 2766533784, 0.7551123, 0.03271264, -0.65472, 0.009048924, -0.056301124, -0.017252294, 0.089419365, 0
141, 2766550451, 0.7551124, 0.032704152, -0.6547202, 0.009061903, -0.08592062, 0.017446415, 0.097940445, 0
142, 2766567118, 0.7551143, 0.03269033, -0.65471834, 0.009081438, -0.10679583, 0.025057701, 0.078017235, 0
143, 2766583785, 0.7551141, 0.03266514, -0.6547194, 0.0091125965, -0.08651471, 0.04423165, 0.14232254, 0
144, 2766600452, 0.7551155, 0.032624222, -0.65471905, 0.00916329, -0.054977033, 0.016612154, 0.111701965, 0
145, 2766617119, 0.7551178, 0.032559536, -0.6547189, 0.009223267, -0.02959088, 0.004534631, 0.13333416, 0
146, 2766633786, 0.75511634, 0.032511503, -0.65472174, 0.009309784, -0.051437482, -0.03352862, 0.09325695, 0
147, 2766650453, 0.75511664, 0.032456234, -0.654723, 0.009387597, -0.061219208, -0.05138668, 0.0972271, 0
148, 2766667120, 0.7551185, 0.03240852, -0.6547221, 0.009457365, -0.06647007, -0.06087677, 0.07565498, 0
149, 2766683787, 0.75512743, 0.032376304, -0.65471274, 0.00950256, -0.057982836, -0.05023912, 0.082074165, 0
150, 2766700454, 0.7551362, 0.03238768, -0.65470207, 0.009518057, -0.043519314, -0.073204964, 0.09758282, 0
151, 2766717121, 0.7551403, 0.03242202, -0.65469587, 0.009505942, -0.009117988, -0.09664242, 0.08374119, 0
152, 2766733788, 0.75514287, 0.03247624, -0.6546904, 0.009479135, 0.052546553, -0.047971245, 0.04578972, 0
153, 2766750455, 0.7551457, 0.032546327, -0.6546846, 0.009412706, 0.054030232, -0.03987225, 0.06614208, 0
154, 2766767122, 0.75515246, 0.032624163, -0.6546742, 0.00932613, 0.041876048, -0.046966888, 0.102458, 0
155, 2766783789, 0.7551621, 0.032724828, -0.6546596, 0.00921382, 0.028079486, -0.05292686, 0.07814598, 0
156, 2766800456, 0.75518507, 0.032836705, -0.6546291, 0.009102151, 0.037034757, -0.017362487, 0.07097149, 0
157, 2766817123, 0.755204, 0.03295418, -0.6546031, 0.008978531, 0.06334938, -0.0122985765, 0.017233849, 0
158, 2766833790, 0.75520194, 0.033065997, -0.65460163, 0.008843645, 0.11682352, 0.001544698, 0.054079056, 0
159, 2766850457, 0.75520396, 0.033159018, -0.65459615, 0.008731857, 0.14430578, 0.048648935, 0.048125267, 0
160, 2766867124, 0.7552031, 0.03325151, -0.6545941, 0.008608267, 0.12569301, 0.13172325, 0.03791809, 0
161, 2766883791, 0.7552152, 0.03333869, -0.6545771, 0.008487657, 0.16102365, 0.104157485, 0.06986523, 0
162, 2766900458, 0.7552218, 0.03343536, -0.65456635, 0.008368269, 0.21562742, 0.077080004, 0.017333984, 0
163, 2766917125, 0.7552195, 0.0335176, -0.65456593, 0.008267403, 0.24896571, 0.066975884, 0.021718025, 0
164, 2766933792, 0.75521433, 0.03360723, -0.65456855, 0.008172765, 0.3000715, 0.12709606, 0.005662918, 0
165, 2766950459, 0.7551978, 0.0337015, -0.65458375, 0.008092836, 0.28304115, 0.19485356, -0.019999504, 0
166, 2766967126, 0.7551864, 0.033796333, -0.654593, 0.0080269575, 0.2631834, 0.21604483, 0.019639969, 0
167, 2766983793, 0.75518566, 0.0338471, -0.65459174, 0.007979408, 0.18618183, 0.16201884, 0.04956436, 0
168, 2767000460, 0.75518835, 0.03385152, -0.65458846, 0.007962689, 0.12365676, 0.11871377, 0.11212826, 0
169, 2767017127, 0.75518656, 0.033843957, -0.6545907, 0.007982209, 0.06952594, 0.059183884, 0.0974884, 0
170, 2767033794, 0.7551852, 0.03383471, -0.6545925, 0.008013412, 0.07028186, -0.02905322, 0.10155773, 0
171, 2767050461, 0.7551838, 0.033830434, -0.6545939, 0.008035392, 0.06944145, -0.025690803, 0.08151817, 0
172, 2767067128, 0.7551894, 0.033834264, -0.654587, 0.008059353, 0.033784192, 0.047228023, 0.056555748, 0
173, 2767083795, 0.75520104, 0.03384562, -0.65457255, 0.008098945, 0.05958185, 0.098197065, 0.101885796, 0
174, 2767100462, 0.75520146, 0.033828676, -0.65457255, 0.008125216, -0.025020488, 0.098530434, 0.043149948, 0
175, 2767117129, 0.7552088, 0.033804096, -0.65456474, 0.008177996, -0.0020817996, 0.047471695, 0.1304636, 0
176, 2767133796, 0.75521576, 0.033759788, -0.65455824, 0.008235127, -0.039190315, -0.035023697, 0.10593796, 0
177, 2767150463, 0.7552382, 0.033715896, -0.65453386, 0.008297011, -0.04946923, -0.09814264, 0.09650898, 0
178, 2767167130, 0.75524825, 0.033683114, -0.65452325, 0.008353546, 0.03379382, -0.107460335, 0.086520195, 0
179, 2767183797, 0.7552641, 0.03363795, -0.65450656, 0.008421943, 0.033652112, -0.07376251, 0.028608322, 0
180, 2767200464, 0.75527686, 0.03359641, -0.6544929, 0.008494511, 0.09707928, 0.072498776, 0.06530762, 0
181, 2767217131, 0.75527835, 0.033563636, -0.65449196, 0.008548394, 0.018636957, 0.16959772, 0.05672455, 0
182, 2767233798, 0.7552854, 0.03356483, -0.65448344, 0.008580595, 0.08849191, 0.1537587, 0.10470867, 0
183, 2767250465, 0.75529593, 0.033563532, -0.65447104, 0.0086082965, 0.15037237, -0.002760832, 0.051567078, 0
184, 2767267132, 0.7553084, 0.033550657, -0.6544567, 0.008655816, 0.15954381, -0.041593265, 0.063596725, 0
185, 2767283799, 0.7553235, 0.033517696, -0.6544401, 0.008720458, 0.15596779, 0.013025441, 0.029528618, 0
186, 2767300466, 0.75532585, 0.033494115, -0.6544374, 0.008808106, 0.10401667, 0.01679521, 0.026047707, 0
187, 2767317133, 0.75532883, 0.033469617, -0.6544343, 0.008872971, 0.08310077, 0.026696388, 0.024463654, 0
188, 2767333800, 0.75532967, 0.033460155, -0.6544333, 0.008912414, 0.06657781, 0.042438406, 0.057932854, 0
189, 2767350467, 0.75533223, 0.0334683, -0.65442985, 0.008916482, 0.11953026, 0.073621705, 0.113820076, 0
190, 2767367134, 0.7553379, 0.03348902, -0.6544219, 0.008937582, 0.14710774, 0.015012806, 0.03235817, 0
191, 2767383801, 0.75533736, 0.03351155, -0.6544209, 0.008972526, 0.17306608, -5.4112484E-4, 0.012960434, 0
192, 2767400468, 0.75533825, 0.03351949, -0.6544192, 0.008998096, 0.117637105, 0.021319559, 0.03769493, 0
193, 2767417135, 0.7553273, 0.03354135, -0.6544307, 0.00900133, 0.021338334, -0.0026091784, 0.09492874, 0
194, 2767433802, 0.7553237, 0.03358005, -0.65443295, 0.008994639, -0.016296329, -0.027360445, 0.07609844, 0
195, 2767450469, 0.75532466, 0.03362757, -0.6544298, 0.008968756, -0.063555464, -0.071939096, 0.067554474, 0
196, 2767467136, 0.7553178, 0.033667073, -0.6544357, 0.008955419, -0.1401681, -0.108332485, 0.06264877, 0
197, 2767483803, 0.75531054, 0.033680104, -0.65444356, 0.008953735, -0.1548834, -0.074937046, 0.118896484, 0
198, 2767500470, 0.7553072, 0.033682197, -0.65444714, 0.008965671, -0.07977848, -0.018032579, 0.11102867, 0
199, 2767517137, 0.755308, 0.033668444, -0.6544469, 0.00898248, -0.034294486, -0.03530935, 0.04869938, 0
200, 2767533804, 0.755314, 0.033638068, -0.65444106, 0.009002715, 0.023432204, -0.01733533, 0.056023598, 0
201, 2767550471, 0.75530714, 0.033614665, -0.6544496, 0.009041056, -0.079691306, -0.0071286103, 0.09402275, 0
202, 2767567138, 0.7553081, 0.033587873, -0.6544496, 0.009066969, -0.0736578, 0.034066167, 0.1270895, 0
203, 2767583805, 0.75531507, 0.033558764, -0.65444267, 0.009094492, -0.03204997, -0.03105232, 0.09689903, 0
204, 2767600472, 0.75532365, 0.03351236, -0.65443444, 0.00913994, 0.031547066, -0.028290259, 0.044338226, 0
205, 2767617139, 0.7553265, 0.0334555, -0.65443313, 0.009208396, 0.028399557, 0.048097864, 0.027433395, 0
206, 2767633806, 0.755313, 0.033397906, -0.6544506, 0.009290457, 0.10200774, 0.08577701, 0.062345505, 0
207, 2767650473, 0.75531006, 0.03335125, -0.6544551, 0.009372532, 0.15896063, 0.052570358, 0.07971382, 0
208, 2767667140, 0.7553038, 0.033300415, -0.6544637, 0.009464532, 0.1874554, 0.10511859, 0.06586552, 0
209, 2767683807, 0.7552964, 0.033255704, -0.654473, 0.0095615685, 0.11216548, 0.14173491, 0.08012867, 0
210, 2767700474, 0.75529546, 0.03320811, -0.6544752, 0.0096568465, 0.105132, 0.11490868, 0.07540989, 0
211, 2767717141, 0.7552911, 0.033160783, -0.65448046, 0.009791955, 0.08997559, 0.05028416, 0.09066582, 0
212, 2767733808, 0.75530463, 0.033070996, -0.65446734, 0.009936869, 0.06844593, 0.0010004439, 0.07246876, 0
213, 2767750475, 0.7553116, 0.032978617, -0.6544616, 0.010090277, 0.075165175, 0.036507823, 0.0877018, 0
214, 2767767142, 0.7553105, 0.032900453, -0.6544642, 0.010253474, 0.08978962, -0.017042862, 0.019910812, 0
215, 2767783809, 0.75531656, 0.032817528, -0.65445894, 0.010409564, 0.08499572, -0.043448236, 0.04534626, 0
216, 2767800476, 0.7553151, 0.03272725, -0.65446323, 0.010527536, 0.0316995, 0.03804917, 0.07752609, 0
217, 2767817143, 0.75532573, 0.03266176, -0.6544524, 0.01064001, 0.013056733, 0.055093262, 0.0965147, 0
218, 2767833810, 0.75533867, 0.032600954, -0.6544391, 0.01072973, 0.016967315, -0.03372028, 0.06413555, 0
219, 2767850477, 0.7553481, 0.032561965, -0.65442884, 0.0108139515, 0.10886958, -0.059194278, 0.08831787, 0
220, 2767867144, 0.7553503, 0.032536127, -0.65442616, 0.010892287, 0.090329185, -0.07525055, 0.061476707, 0
221, 2767883811, 0.7553523, 0.032532997, -0.65442294, 0.010951102, 0.07312673, -0.034953292, 0.08096886, 0
222, 2767900478, 0.75535774, 0.032559738, -0.6544148, 0.010984957, 0.048495825, -0.033654224, 0.02565384, 0
223, 2767917145, 0.75537014, 0.03260088, -0.6543983, 0.010993585, 0.096294746, -0.022376776, 0.038201332, 0
224, 2767933812, 0.75537556, 0.032633916, -0.65439016, 0.011011004, 0.07032165, 0.032432623, 0.002840042, 0
225, 2767950479, 0.75538385, 0.03266374, -0.65437883, 0.011025384, 0.14799777, 0.086657204, 0.15812969, 0
226, 2767967146, 0.75539035, 0.03268049, -0.65437025, 0.011036769, 0.13230224, 0.053397804, 0.048754692, 0
227, 2767983813, 0.7554006, 0.03270045, -0.6543572, 0.01105684, 0.17825158, 0.042906664, 0.04343319, 0
228, 2768000480, 0.75539994, 0.032726794, -0.6543561, 0.011083648, 0.21853264, 0.07104147, -0.008341789, 0
229, 2768017147, 0.75539285, 0.03275469, -0.65436256, 0.011106268, 0.17088147, 0.06011705, 0.013600349, 0
230, 2768033814, 0.75539005, 0.03278309, -0.6543637, 0.011142626, 0.1394609, 0.09342048, 0.09082699, 0
231, 2768050481, 0.7553837, 0.032796003, -0.65436995, 0.0111745, 0.08298142, 0.08204758, 0.09063721, 0
232, 2768067148, 0.75538117, 0.03281141, -0.654371, 0.01122649, 0.12102601, 0.03675257, 0.09061813, 0
233, 2768083815, 0.755379, 0.03281372, -0.6543721, 0.011302948, 0.19564268, 0.06208251, -0.017083168, 0
234, 2768100482, 0.75536746, 0.03278599, -0.65438527, 0.011407495, 0.25425443, 0.10635516, 0.01185894, 0
235, 2768117149, 0.75536436, 0.03274589, -0.6543885, 0.011536375, 0.2545035, 0.21411815, 0.0347414, 0
236, 2768133816, 0.75535786, 0.03271552, -0.654395, 0.011678711, 0.17178133, 0.25100583, 0.0139455795, 0
237, 2768150483, 0.75534815, 0.032692537, -0.65440494, 0.011808798, 0.14345554, 0.16213842, 0.06727219, 0
238, 2768167150, 0.7553424, 0.032657966, -0.6544106, 0.011955887, 0.14773804, 0.036471505, 0.07861805, 0
239, 2768183817, 0.7553374, 0.032610692, -0.6544155, 0.01214087, 0.15310906, 0.038043246, 0.09559631, 0
240, 2768200484, 0.7553306, 0.03255005, -0.6544219, 0.012362614, 0.1974719, 0.03585472, 0.041690826, 0
241, 2768217151, 0.75532395, 0.03246156, -0.6544296, 0.012602553, 0.17731148, 0.099504836, 0.11111355, 0
242, 2768233818, 0.7553205, 0.03235826, -0.6544339, 0.012852296, 0.14133485, 0.13263616, 0.057169914, 0
243, 2768250485, 0.7553227, 0.032272905, -0.6544306, 0.013100281, 0.1267533, 0.16240284, 0.099684715, 0
244, 2768267152, 0.75532246, 0.03221929, -0.65442866, 0.013337955, 0.0918379, 0.07718092, 0.0057964325, 0
245, 2768283819, 0.75532764, 0.032177955, -0.6544199, 0.01358293, 0.17402898, 0.039503567, 0.01334095, 0
246, 2768300486, 0.75532484, 0.032137588, -0.6544201, 0.013822094, 0.15121411, -0.06995755, -0.007425308, 0
247, 2768317153, 0.75532514, 0.032103024, -0.6544166, 0.014044091, 0.073842905, -0.10057099, 0.1057291, 0
248, 2768333820, 0.75532925, 0.032091573, -0.6544083, 0.01423268, -0.014332545, -0.09515796, 0.12770271, 0
249, 2768350487, 0.7553438, 0.032132603, -0.6543863, 0.014377028, -0.035654787, -0.07567333, 0.10833168, 0
250, 2768367154, 0.75536126, 0.032189883, -0.65436065, 0.014497697, -0.01417385, -0.12734427, -0.0029964447, 0
251, 2768383821, 0.755355, 0.032230914, -0.6543633, 0.01461868, 0.08388441, -0.12335764, 0.051291466, 0
252, 2768400488, 0.7553509, 0.03225685, -0.65436405, 0.014739677, 0.032092884, -0.109373495, 0.10440731, 0
253, 2768417155, 0.75533587, 0.032318316, -0.6543763, 0.014827386, -0.044084802, 0.046045233, 0.0995636, 0
254, 2768433822, 0.7553354, 0.03244894, -0.65436953, 0.014868274, -0.0852474, -0.04528931, 0.07853222, 0
255, 2768450489, 0.7553427, 0.032607622, -0.65435296, 0.0148810595, -0.048162572, -0.12119498, 0.11746216, 0
256, 2768467156, 0.75534505, 0.032742806, -0.65434366, 0.014869973, -0.023396442, -0.14562377, 0.1417532, 0
257, 2768483823, 0.7553475, 0.032856718, -0.6543353, 0.01485616, -0.09818656, -0.13033107, 0.076758385, 0
258, 2768500490, 0.75534666, 0.032980144, -0.6543304, 0.01484631, -0.15262315, -0.122025445, 0.03943634, 0
259, 2768517157, 0.75534064, 0.033117175, -0.6543304, 0.014840841, -0.19793254, -0.122062825, 0.06372738, 0
260, 2768533824, 0.7553405, 0.03325972, -0.65432346, 0.014833391, -0.20520143, -0.1553168, 0.04052925, 0
261, 2768550491, 0.75531626, 0.033396512, -0.6543451, 0.014810115, -0.2222729, -0.111519665, 0.08845997, 0
262, 2768567158, 0.7552967, 0.03351772, -0.6543622, 0.014786258, -0.3538313, -0.08126115, 0.100954056, 0
263, 2768583825, 0.75529766, 0.03364227, -0.65435475, 0.0147767365, -0.45341346, -0.10993563, 0.30608463, 0
264, 2768600492, 0.75529826, 0.033721536, -0.65434986, 0.014782086, -0.52892596, -0.20487623, 0.30447674, 0
265, 2768617159, 0.7553098, 0.033722833, -0.6543356, 0.014823616, -0.5170717, -0.25843737, 0.29997444, 0
266, 2768633826, 0.75531864, 0.033651277, -0.6543272, 0.01490356, -0.5719848, -0.31023073, 0.13433838, 0
267, 2768650493, 0.7553222, 0.033535756, -0.65432566, 0.015048459, -0.5179908, -0.29781023, 0.056612015, 0
268, 2768667160, 0.75533086, 0.033409543, -0.6543181, 0.015223369, -0.40351644, -0.181863, 0.13772678, 0
269, 2768683827, 0.75534534, 0.033299915, -0.654303, 0.015396684, -0.27111226, -0.13205637, 0.14112091, 0
270, 2768700494, 0.75536484, 0.033207677, -0.6542818, 0.015540153, -0.16786002, -0.07922484, 0.110339165, 0
271, 2768717161, 0.75538075, 0.033118665, -0.6542651, 0.015658215, -0.12379014, -0.10741768, 0.09513569, 0
272, 2768733828, 0.7553904, 0.033025533, -0.65425646, 0.015751824, -0.13871348, -0.16975367, 0.11773777, 0
273, 2768750495, 0.7554127, 0.032942742, -0.6542329, 0.01583451, -0.15198433, -0.2227772, 0.14346695, 0
274, 2768767162, 0.7554276, 0.032871157, -0.65421766, 0.015895233, -0.1847862, -0.23099774, -0.013455391, 0
275, 2768783829, 0.75542897, 0.03279897, -0.65421796, 0.015971243, -0.10618474, -0.18773277, 0.050383568, 0
276, 2768800496, 0.7554307, 0.032724276, -0.6542179, 0.016042262, 0.023338776, -0.062165212, 0.10874748, 0
277, 2768817163, 0.7554268, 0.032656856, -0.6542244, 0.016100392, 0.10361479, -0.022127783, 0.057351112, 0
278, 2768833830, 0.75542766, 0.03261161, -0.65422493, 0.016132459, 0.19736865, -0.009584236, 0.046405792, 0
279, 2768850497, 0.75543463, 0.032585256, -0.65421826, 0.016127005, 0.14552079, -0.012759013, 0.09928131, 0
280, 2768867164, 0.75541836, 0.032601446, -0.654237, 0.016097814, 0.018968651, -0.06403523, -0.033589363, 0
281, 2768883831, 0.7554132, 0.032641664, -0.6542417, 0.016062856, -0.10800057, -0.10484255, -0.01083374, 0
282, 2768900498, 0.7554031, 0.03269525, -0.6542517, 0.016024113, -0.21288134, -0.007214663, 0.14425659, 0
283, 2768917165, 0.75539035, 0.03278064, -0.6542635, 0.015974104, -0.25953966, 0.06968083, 0.26914883, 0
284, 2768933832, 0.75539505, 0.03288626, -0.65425444, 0.015902981, -0.17524733, -0.10614619, 0.40467167, 0
285, 2768950499, 0.75542593, 0.03296288, -0.65421695, 0.015819281, -0.058757532, -0.21235262, 0.098371506, 0
286, 2768967166, 0.7554411, 0.032992937, -0.6541994, 0.015754178, 0.06413168, -0.21837562, -0.109908104, 0
287, 2768983833, 0.75542265, 0.032986715, -0.65422153, 0.01573819, 0.032145634, -0.21383719, -0.3560686, 0
288, 2769000500, 0.7553854, 0.032971255, -0.6542646, 0.015766516, -0.01119487, -0.04291907, -0.03141308, 0
289, 2769017167, 0.7553494, 0.03298308, -0.6543045, 0.015809923, -0.22985134, 0.11969454, 0.167737, 0
290, 2769033834, 0.7553452, 0.03302083, -0.6543075, 0.015807047, -0.21955946, 0.22001587, 0.44150066, 0
291, 2769050501, 0.75536746, 0.033064373, -0.6542808, 0.015764326, -0.10527371, 0.007834688, 0.40358925, 0
292, 2769067168, 0.75541604, 0.033082373, -0.6542252, 0.015700132, 0.046796907, -0.17274193, 0.16622925, 0
293, 2769083835, 0.7554376, 0.033078864, -0.6542019, 0.015641749, 0.09007528, -0.22526586, -0.2025299, 0
294, 2769100502, 0.75542337, 0.033096455, -0.65421844, 0.015597895, 0.10072388, -0.17019963, -0.09137344, 0
295, 2769117169, 0.7554156, 0.033139728, -0.6542259, 0.015570775, 0.042391915, -0.137841, -0.036380768, 0
296, 2769133836, 0.75541425, 0.033178978, -0.65422577, 0.015555367, 0.0062003243, 0.020747462, 0.18365383, 0
297, 2769150503, 0.75542617, 0.03319423, -0.65421206, 0.015520662, -0.016343268, 0.11752177, 0.279459, 0
298, 2769167170, 0.7554528, 0.03319139, -0.65418255, 0.015475363, -0.008114414, 0.102060266, 0.12156391, 0
299, 2769183837, 0.7554746, 0.033158265, -0.6541603, 0.015420049, 0.12482439, -0.011930339, -0.11464977, 0
300, 2769200504, 0.7554742, 0.033120237, -0.6541639, 0.01536949, 0.3828424, -0.11443651, 0.023610115, 0
301, 2769217171, 0.7554694, 0.033086494, -0.6541719, 0.01533851, 0.4394229, -0.13898131, -0.10024738, 0
302, 2769233838, 0.7554646, 0.03313653, -0.6541764, 0.015269071, 0.5194133, 0.11226061, -0.033678055, 0
303, 2769250505, 0.7554489, 0.033312954, -0.6541898, 0.015092626, 0.5002287, 0.13594314, -0.13570118, 0
304, 2769267172, 0.75541687, 0.03357233, -0.6542201, 0.014803454, 0.42074168, 0.03593384, 0.012169838, 0
305, 2769283839, 0.7553742, 0.03386499, -0.65426254, 0.0144394785, 0.25247085, -0.01039827, 0.15171719, 0
306, 2769300506, 0.7553623, 0.03419868, -0.65426815, 0.014012426, 0.013607021, -0.030796956, 0.20011902, 0
307, 2769317173, 0.75535727, 0.03459855, -0.6542625, 0.013565481, -0.021815758, -0.08084497, 0.21381283, 0
308, 2769333840, 0.755364, 0.035001345, -0.65424186, 0.013145879, -0.10143688, -0.14413914, 0.192132, 0
309, 2769350507, 0.7553966, 0.035359442, -0.6541929, 0.012733892, -0.10487269, -0.07832061, 0.13252735, 0
310, 2769367174, 0.7554154, 0.03572017, -0.6541594, 0.012330711, -0.01925296, -0.031354286, 0.072618484, 0
311, 2769383841, 0.75541985, 0.036070414, -0.6541423, 0.011937842, -0.029129103, -0.1589513, -0.15167618, 0
312, 2769400508, 0.75538707, 0.036382698, -0.6541696, 0.011561796, -0.05412098, -0.18529777, -0.13185215, 0
313, 2769417175, 0.75535065, 0.03667534, -0.6542015, 0.0112050325, -0.17537676, -0.025033452, 0.18683338, 0
314, 2769433842, 0.75534356, 0.03700091, -0.6541975, 0.010840267, -0.25502917, 0.19431601, 0.3584957, 0
315, 2769450509, 0.7553601, 0.03732685, -0.65416574, 0.010478571, -0.23385535, 0.08409049, 0.2681942, 0
316, 2769467176, 0.7553926, 0.037582964, -0.65411836, 0.010169908, -0.18538836, -0.074054204, 0.11454201, 0
317, 2769483843, 0.75541455, 0.037756644, -0.6540869, 0.009928584, -0.080148615, -0.12665284, -0.075265884, 0
318, 2769500510, 0.7554131, 0.037893437, -0.6540832, 0.009758368, 0.06359704, -0.034802195, -0.019134521, 0
319, 2769517177, 0.75538903, 0.03800123, -0.6541065, 0.0096346885, 0.06576198, -0.0016695301, -0.09576702, 0
320, 2769533844, 0.75537264, 0.03810353, -0.65412104, 0.009530589, 0.022193495, 0.10314933, 0.14420223, 0
321, 2769550511, 0.7553619, 0.038179412, -0.6541306, 0.009420708, -0.08236584, 0.04720489, 0.19608688, 0
322, 2769567178, 0.7553671, 0.038222395, -0.65412295, 0.009363934, -0.13400897, -0.028120054, 0.3333311, 0
323, 2769583845, 0.75539327, 0.03819722, -0.65409446, 0.009347573, -0.17901644, -0.062095474, 0.18622875, 0
324, 2769600512, 0.75542927, 0.03812185, -0.6540569, 0.009375513, -0.1394457, 0.014270408, 0.04071808, 0
325, 2769617179, 0.7554472, 0.038018554, -0.65404135, 0.009431332, 0.023910075, 0.019011788, -0.07507992, 0
326, 2769633846, 0.75544655, 0.037897043, -0.6540482, 0.009497404, 0.14081271, 0.013078861, -0.12018204, 0
327, 2769650513, 0.7554325, 0.037790544, -0.65406996, 0.009550914, 0.31210455, 0.022423714, -0.036678314, 0
328, 2769667180, 0.75539625, 0.03770543, -0.65411603, 0.009585589, 0.3406847, -0.122625686, -0.06246662, 0
329, 2769683847, 0.75536126, 0.037627034, -0.6541604, 0.009625062, 0.20432615, -0.13034795, 0.15771103, 0
330, 2769700514, 0.75533116, 0.037592128, -0.6541963, 0.009677276, -0.10922184, -0.03350716, 0.14500237, 0
331, 2769717181, 0.75531614, 0.03761547, -0.65421194, 0.009699911, -0.35738918, 0.09240651, 0.29655266, 0
332, 2769733848, 0.75532174, 0.03764964, -0.65420383, 0.009685144, -0.46784392, -0.020497143, 0.26089382, 0
333, 2769750515, 0.75535125, 0.03766156, -0.6541698, 0.009646416, -0.3912429, -0.12057362, 0.21575832, 0
334, 2769767182, 0.7553791, 0.037674785, -0.6541372, 0.009609625, -0.16326821, -0.2017879, 0.012212753, 0
335, 2769783849, 0.7553729, 0.037688255, -0.65414405, 0.009587899, -0.009044228, -0.24826723, -0.06044674, 0
336, 2769800516, 0.755366, 0.03768722, -0.65415215, 0.009577543, 0.07981379, -0.18295681, 0.037659645, 0
337, 2769817183, 0.75535667, 0.037661843, -0.6541645, 0.009576291, 0.057064198, -0.060623083, 0.15866566, 0
338, 2769833850, 0.7553614, 0.03764449, -0.65415984, 0.00958617, -0.065494664, 0.032770686, 0.16843033, 0
339, 2769850517, 0.7553758, 0.03762254, -0.6541442, 0.009606332, -0.08974582, 0.030901337, 0.05798626, 0
340, 2769867184, 0.7553821, 0.03756413, -0.6541397, 0.009641796, -0.046660118, -0.003780163, -0.022603989, 0
341, 2769883851, 0.7553784, 0.037469484, -0.65414876, 0.009685084, 0.08845659, 0.03732387, 0.101940155, 0
342, 2769900518, 0.75539, 0.037371702, -0.6541405, 0.009725198, 0.17798114, 0.10635752, 0.021940231, 0
343, 2769917185, 0.75540316, 0.03732921, -0.65412724, 0.009747013, 0.3163817, 0.09982368, 0.014274597, 0
344, 2769933852, 0.75540876, 0.037297115, -0.6541224, 0.009760395, 0.48442766, -0.012945646, 0.048689842, 0
345, 2769950519, 0.7554063, 0.037241317, -0.65412813, 0.009774968, 0.4715332, -0.04432217, 0.07164574, 0
346, 2769967186, 0.7554203, 0.03721498, -0.65411353, 0.00978823, 0.29241517, 0.09991267, -0.08852768, 0
347, 2769983853, 0.75541115, 0.037257656, -0.6541221, 0.009751871, 0.1811863, 0.09035679, -0.12801361, 0
348, 2770000520, 0.755394, 0.037316658, -0.65413916, 0.009707257, 0.1216809, -0.09474915, -0.0680151, 0
349, 2770017187, 0.755372, 0.03735122, -0.6541635, 0.0096432865, 0.04637402, -0.16006166, 0.22624302, 0
350, 2770033854, 0.75536907, 0.03738433, -0.65416664, 0.009538084, -0.1255906, -5.4525986E-4, 0.34601307, 0
351, 2770050521, 0.75538826, 0.03752029, -0.6541388, 0.009383023, -0.1734778, 0.07430275, 0.377347, 0
352, 2770067188, 0.7554238, 0.03772738, -0.65408915, 0.009161174, -0.07316652, -0.11836911, 0.092375755, 0
353, 2770083855, 0.7554461, 0.037915513, -0.6540558, 0.008923262, 0.12685835, -0.20500949, -0.05975914, 0
354, 2770100522, 0.75545126, 0.038106762, -0.6540417, 0.008698553, 0.12985834, -0.07976585, -0.16950989, 0
355, 2770117189, 0.75544125, 0.03830287, -0.6540447, 0.008487716, 0.10309848, 0.027954318, -0.050851822, 0
356, 2770133856, 0.75543123, 0.03850148, -0.65404695, 0.008294806, 0.15426417, -0.025288144, 0.04570675, 0
357, 2770150523, 0.7554252, 0.038638793, -0.65404814, 0.008126244, 0.1446388, 0.068528175, 0.049530983, 0
358, 2770167190, 0.7554025, 0.03874421, -0.6540701, 0.007956862, 0.14930888, 0.17323449, 0.12206173, 0
359, 2770183857, 0.75539386, 0.03887984, -0.6540741, 0.0077807456, 0.10765949, 0.14860582, 0.20837879, 0
360, 2770200524, 0.7554091, 0.03904967, -0.65404844, 0.007601738, 0.17586938, -0.021275192, 0.10818386, 0
361, 2770217191, 0.7554161, 0.039213955, -0.65403247, 0.007430494, 0.25790176, -0.1669715, -6.23703E-4, 0
362, 2770233858, 0.75541395, 0.039360628, -0.65402776, 0.0072915405, 0.15366784, -0.08339772, -0.031852722, 0
363, 2770250525, 0.7554124, 0.039493345, -0.65402335, 0.007125199, -0.0065672575, 0.01431634, 0.0018053055, 0
364, 2770267192, 0.75541115, 0.039623477, -0.654019, 0.0069411844, -0.06267348, 0.032535553, 0.12488651, 0
365, 2770283859, 0.7554197, 0.039738096, -0.65400404, 0.006759733, -0.1655252, -0.03873401, 0.11633301, 0
366, 2770300526, 0.7554238, 0.039834104, -0.6539952, 0.0065722615, -0.09198631, -0.12823643, 0.079470634, 0
367, 2770317193, 0.75541025, 0.039929673, -0.65400684, 0.0064053833, -0.1017118, -0.23073035, 0.055295944, 0
368, 2770333860, 0.755394, 0.040048435, -0.65401983, 0.006249577, -0.13085969, -0.19667944, 0.104917526, 0
369, 2770350527, 0.75539094, 0.0401721, -0.6540172, 0.006082922, -0.114233, -0.09161495, 0.2324524, 0
370, 2770367194, 0.7554061, 0.040315516, -0.65399265, 0.0058944225, -0.070791915, -0.0066842665, 0.22514439, 0
371, 2770383861, 0.7554462, 0.040494576, -0.65393716, 0.0056925565, -0.044135794, 0.1527102, 0.18489265, 0
372, 2770400528, 0.75547963, 0.040708646, -0.6538872, 0.0054554045, 0.03911387, 0.14127862, 0.0074100494, 0
373, 2770417195, 0.7554837, 0.04091744, -0.65387166, 0.005213648, 0.14920965, -0.078981765, -0.14041805, 0
374, 2770433862, 0.7554715, 0.041072026, -0.6538773, 0.0050245225, 0.12328528, -0.11967733, -0.09663963, 0
375, 2770450529, 0.7554549, 0.04119631, -0.6538897, 0.0048829466, -0.014921725, 0.06454093, 0.054410934, 0
376, 2770467196, 0.75544655, 0.04130791, -0.6538932, 0.004778251, -0.06308698, 0.08419833, 0.22114563, 0
377, 2770483863, 0.75546235, 0.041368507, -0.6538716, 0.0047092587, 0.059989985, -0.01583511, 0.15437794, 0
378, 2770500530, 0.7554662, 0.041348986, -0.6538684, 0.0046941787, 0.12564647, 0.063698955, 0.03660488, 0
379, 2770517197, 0.7554655, 0.041306376, -0.6538718, 0.004716158, 0.12480472, 0.1972105, 0.019839287, 0
380, 2770533864, 0.7554584, 0.0412658, -0.65388244, 0.004739687, 0.09956295, 0.11850053, -0.08002663, 0
381, 2770550531, 0.7554438, 0.041193828, -0.6539035, 0.004789546, 0.1732373, -0.03285998, 0.05769539, 0
382, 2770567198, 0.755426, 0.041087642, -0.6539302, 0.0048668534, 0.05682459, -0.07683414, 0.016740799, 0
383, 2770583865, 0.75541157, 0.04097815, -0.6539529, 0.0049708933, -0.034165032, 0.04073983, 0.10137749, 0
384, 2770600532, 0.755398, 0.04089217, -0.6539731, 0.00508596, -0.21420766, 0.0064959573, 0.20373726, 0
385, 2770617199, 0.7554026, 0.04079041, -0.6539731, 0.0052164495, -0.25936934, -0.16584069, 0.18859673, 0
386, 2770633866, 0.7554163, 0.04064376, -0.6539651, 0.005387187, -0.25022766, -0.22519153, 0.19207096, 0
387, 2770650533, 0.75542384, 0.040504575, -0.6539633, 0.005581647, -0.3072181, -0.07371468, 0.1757927, 0
388, 2770667200, 0.7554422, 0.040374815, -0.65394837, 0.005780548, -0.30666918, 0.065499686, 0.11334324, 0
389, 2770683867, 0.7554524, 0.040182963, -0.65394664, 0.0059853345, -0.12810063, 0.0014205365, 0.02266121, 0
390, 2770700534, 0.7554622, 0.039898477, -0.6539501, 0.006240934, -0.01406567, -0.066550426, 0.016906738, 0
391, 2770717201, 0.75545514, 0.039566085, -0.6539754, 0.0065608323, 0.029531425, 0.008085693, 0.022385597, 0
392, 2770733868, 0.7554533, 0.039223, -0.6539942, 0.0069666505, 0.015184577, -0.059358895, 0.085746765, 0
393, 2770750535, 0.7554526, 0.038809232, -0.6540143, 0.0074471235, -0.027322223, -0.05231209, 0.1538372, 0
394, 2770767202, 0.7554618, 0.038292542, -0.6540278, 0.007990822, -0.19352736, 0.13008465, 0.106842995, 0
395, 2770783869, 0.7554713, 0.037749447, -0.6540411, 0.008563444, -0.24559827, 0.26352647, 0.07971954, 0
396, 2770800536, 0.75548536, 0.03718449, -0.6540487, 0.009195268, -0.12726109, 0.096799105, 0.067165375, 0
397, 2770817203, 0.75549567, 0.036534518, -0.654063, 0.009908542, 0.113586605, -0.05123878, 0.13927364, 0
398, 2770833870, 0.7555135, 0.03579478, -0.65407073, 0.010701224, 0.16114166, 0.03602459, 0.06439686, 0
399, 2770850537, 0.75552046, 0.035024934, -0.6540898, 0.011557415, 0.17874779, 0.15621175, -0.008759499, 0
400, 2770867204, 0.75553197, 0.034233384, -0.6541019, 0.012463212, 0.20857246, 0.13072546, -0.0014266968, 0
401, 2770883871, 0.7555405, 0.033399023, -0.6541169, 0.013383254, 0.19612993, 0.053216424, -0.02180767, 0
402, 2770900538, 0.75554574, 0.032514513, -0.6541358, 0.014311388, 0.15687838, 0.051272865, 0.01898861, 0
403, 2770917205, 0.7555379, 0.031627953, -0.65416694, 0.015251562, 0.07633146, 0.038456857, -0.0065259933, 0
404, 2770933872, 0.7555341, 0.030776992, -0.6541892, 0.016202241, 0.13832457, -0.0090992125, 0.20822525, 0
405, 2770950539, 0.75552434, 0.029950753, -0.6542155, 0.017118052, 0.2971493, -0.119652964, 0.10526657, 0
406, 2770967206, 0.7555163, 0.029127963, -0.65423816, 0.018003643, 0.38842708, -0.066462584, 0.08045578, 0
407, 2770983873, 0.75551367, 0.028388567, -0.6542509, 0.018811956, 0.4642279, 0.06669179, 0.0049591064, 0
408, 2771000540, 0.7555135, 0.027769841, -0.65425664, 0.019537285, 0.4940073, 0.15786555, -0.010594368, 0
409, 2771017207, 0.75551945, 0.027253427, -0.6542515, 0.020184383, 0.5094146, 0.105817735, 0.024279594, 0
410, 2771033874, 0.7555143, 0.02677764, -0.6542582, 0.020789087, 0.42615205, 0.043612182, -0.019125938, 0
411, 2771050541, 0.75550085, 0.0263535, -0.6542733, 0.021335647, 0.28475192, 0.08936484, -0.03635502, 0
412, 2771067208, 0.7554797, 0.025975145, -0.65429616, 0.021845967, 0.18172409, 0.11117702, 0.10169697, 0
413, 2771083875, 0.7554696, 0.02561061, -0.6543055, 0.022342756, 0.07978116, -0.10457143, 0.13844585, 0
414, 2771100542, 0.7554563, 0.025185399, -0.65431994, 0.02284582, -0.015233749, -0.16764528, 0.1979866, 0
415, 2771117209, 0.7554575, 0.024728999, -0.65431637, 0.023398012, -0.22807172, -0.0777301, 0.08648014, 0
416, 2771133876, 0.75545156, 0.024268739, -0.6543189, 0.023993015, -0.25288257, -0.087624565, 0.085850716, 0
417, 2771150543, 0.7554533, 0.02376835, -0.6543114, 0.024634972, -0.26935324, -0.13441712, 0.037840843, 0
418, 2771167210, 0.7554548, 0.023235962, -0.6543038, 0.025293663, -0.27532774, 0.030874962, 0.17190361, 0
419, 2771183877, 0.75545496, 0.02267813, -0.6542968, 0.025963232, -0.32005358, 0.081159905, 0.19067383, 0
420, 2771200544, 0.7554787, 0.022135831, -0.65426105, 0.026637137, -0.32150105, -0.10754192, 0.054966927, 0
421, 2771217211, 0.75545824, 0.021594733, -0.65427357, 0.027341291, -0.20471843, -0.2531049, -0.395092, 0
422, 2771233878, 0.75541186, 0.021016829, -0.65431416, 0.028095096, 0.030832272, -0.24478324, 0.18083096, 0
423, 2771250545, 0.7553664, 0.020407759, -0.65435135, 0.028885335, -0.047015056, -0.092004694, -0.018616676, 0
424, 2771267212, 0.7553403, 0.019840643, -0.65436536, 0.029636502, -0.07959475, 0.20391545, 0.10985947, 0
425, 2771283879, 0.75530756, 0.019383214, -0.65438724, 0.030282766, -0.06705701, 0.06055156, 0.13648319, 0
426, 2771300546, 0.75528353, 0.018986784, -0.6543992, 0.030866832, 0.01581667, -0.3019502, 0.029622078, 0
427, 2771317213, 0.75524247, 0.01849664, -0.65443116, 0.03148745, 0.085967556, -0.5007766, -0.34922886, 0
428, 2771333880, 0.7551621, 0.017851911, -0.65450555, 0.03222905, 0.12609707, -0.19803248, -0.0016336441, 0
429, 2771350547, 0.7550864, 0.017074004, -0.6545722, 0.03306362, 0.16642462, 0.031850036, -0.11521053, 0
430, 2771367214, 0.75508827, 0.016296, -0.6545438, 0.033965066, 0.32142416, 0.7904149, 0.08599377, 0
431, 2771383881, 0.7551247, 0.015696548, -0.654472, 0.034808964, 0.96396935, 1.1255767, 0.15267563, 0
432, 2771400548, 0.7550593, 0.01521159, -0.6545178, 0.03557384, 1.2874846, 0.46029326, 0.5322952, 0
433, 2771417215, 0.7549629, 0.014512934, -0.65459836, 0.036419332, 0.74876994, -0.69795805, 0.55834484, 0
434, 2771433882, 0.7549385, 0.013560839, -0.6545895, 0.03743714, -0.013068356, -0.06474511, 0.54152584, 0
435, 2771450549, 0.7550044, 0.012707479, -0.65446883, 0.038500726, -0.17146349, 0.56676704, 0.24566174, 0
436, 2771467216, 0.7550995, 0.011922404, -0.654311, 0.039554268, 0.338142, 0.16349944, 0.04401779, 0
437, 2771483883, 0.7551679, 0.010975614, -0.6541856, 0.04058361, 0.61453056, 0.011400111, -0.088983536, 0
438, 2771500550, 0.75523674, 0.010035187, -0.6540631, 0.04151033, 0.38655135, 0.5495236, 0.09329128, 0
439, 2771517217, 0.75533265, 0.009417117, -0.6539109, 0.04229887, 0.57741624, 0.30886245, 0.0891943, 0
440, 2771533884, 0.7554173, 0.0089792535, -0.6537726, 0.043016404, 1.0483929, -0.5429653, -0.13555717, 0
441, 2771550551, 0.7554632, 0.008410834, -0.6536757, 0.043792322, 0.89504915, -0.3334429, -0.2123766, 0
442, 2771567218, 0.75547594, 0.0077759326, -0.65361834, 0.04453689, 0.21569134, 0.46636152, 0.034796715, 0
443, 2771583885, 0.75551116, 0.0072118044, -0.65353227, 0.045290798, -0.22609408, 0.40591115, 0.040003777, 0
444, 2771600552, 0.75555336, 0.0066034645, -0.65343356, 0.04610151, -0.03223012, -0.14145179, 0.050144196, 0
445, 2771617219, 0.7555678, 0.0057978183, -0.65335965, 0.04700935, -0.06013881, -0.3260928, -0.14759922, 0
446, 2771633886, 0.7555825, 0.00497324, -0.6532833, 0.047918722, -0.26327547, 0.26621008, 0.1766491, 0
447, 2771650553, 0.75560516, 0.004319228, -0.65319717, 0.048791453, -0.3131546, 0.05746423, 0.1095171, 0
448, 2771667220, 0.7556236, 0.0036952943, -0.65311265, 0.04968162, -0.109423004, -0.4035033, -0.009613991, 0
449, 2771683887, 0.7555895, 0.0029087886, -0.6530845, 0.050614536, 0.24466532, -0.43563396, -0.18753052, 0
450, 2771700554, 0.7555556, 0.0021018311, -0.6530537, 0.051547647, -0.059976127, 0.24167702, 0.18103504, 0
451, 2771717221, 0.7555613, 0.0015334561, -0.6529834, 0.052368402, -0.32519034, 0.3328237, 0.5341368, 0
452, 2771733888, 0.75560343, 0.0011428669, -0.65288186, 0.053031683, -0.45382473, -0.44981524, 0.44866848, 0
453, 2771750555, 0.75568295, 7.105097E-4, -0.652745, 0.05358754, -0.51032525, -0.944129, 0.34877872, 0
454, 2771767222, 0.7557663, 2.1564215E-4, -0.6526043, 0.05412723, -0.6576623, -0.8125109, 0.17187119, 0
455, 2771783889, 0.75584555, -2.3454428E-4, -0.65246534, 0.054693, -0.71595895, -0.34197986, -0.06018257, 0
456, 2771800556, 0.7558878, -6.592944E-4, -0.65236413, 0.055312842, -0.53619057, -0.24102095, -0.11466694, 0
457, 2771817223, 0.75589705, -0.0011676624, -0.6522991, 0.05593829, -0.5269515, -0.2647916, -0.1001606, 0
458, 2771833890, 0.75589705, -0.0017334148, -0.65224755, 0.05652289, -0.46311116, -0.3853684, -0.01636982, 0
459, 2771850557, 0.75587964, -0.0022285879, -0.6522195, 0.05705823, -0.32895565, -0.28070801, 0.09884262, 0
460, 2771867224, 0.7558719, -0.0025841445, -0.65218675, 0.057521015, -0.22155274, -0.19582613, 0.14296246, 0
461, 2771883891, 0.75586486, -0.0028829053, -0.6521595, 0.05790393, -0.107765876, -0.25931588, 0.114349365, 0
462, 2771900558, 0.7558177, -0.0032537654, -0.65218186, 0.05824858, 0.14334825, -0.28677064, 0.03832817, 0
463, 2771917225, 0.7557756, -0.0035986602, -0.65220076, 0.05856289, 0.10934522, 0.099159904, 0.080028534, 0
464, 2771933892, 0.75576395, -0.003779091, -0.65218925, 0.05882798, 0.09175296, 0.1437874, 0.05078411, 0
465, 2771950559, 0.7557593, -0.003917545, -0.6521718, 0.05907163, 0.23126572, -0.27340513, 0.111107826, 0
466, 2771967226, 0.75576246, -0.0041675046, -0.65214264, 0.05933559, 0.2525178, -0.30988637, 0.1340456, 0
467, 2771983893, 0.7557703, -0.004453525, -0.6521078, 0.059595987, 0.16805716, 0.091556884, 0.07913208, 0
468, 2772000560, 0.75576586, -0.004632905, -0.652093, 0.059800908, 0.11486778, 0.15657479, 0.08264732, 0
469, 2772017227, 0.7557653, -0.0047850385, -0.65207577, 0.0599844, 0.336214, -0.17824359, -0.027781487, 0
470, 2772033894, 0.7557584, -0.0049993843, -0.6520647, 0.06017442, 0.48589694, -0.077979885, -0.15441322, 0
471, 2772050561, 0.7557245, -0.00520882, -0.652086, 0.060350507, 0.45039022, 0.23169313, -0.16055489, 0
472, 2772067228, 0.75568455, -0.005326368, -0.65211785, 0.060495645, 0.44282743, 0.3341468, 0.03090763, 0
473, 2772083895, 0.7556512, -0.0053648576, -0.65214694, 0.060596272, 0.39771092, 0.0057155616, 0.078487396, 0
474, 2772100562, 0.7556207, -0.0054230466, -0.6521776, 0.060640037, 0.30027223, -0.11267433, 0.20139408, 0
475, 2772117229, 0.7556107, -0.005449109, -0.652191, 0.060617775, 0.16896015, -0.063865416, 0.18365669, 0
476, 2772133896, 0.7555979, -0.005384028, -0.6522117, 0.0605617, 0.22606502, -0.09139272, -0.038236618, 0
477, 2772150563, 0.7555933, -0.005288653, -0.6522253, 0.060481027, 0.39948067, -0.18074135, -0.010807037, 0
478, 2772167230, 0.7555549, -0.0052393824, -0.6522774, 0.06040308, 0.49322248, -0.0878041, -0.0429039, 0
479, 2772183897, 0.75551593, -0.005186364, -0.6523346, 0.06027612, 0.3389127, 0.19509709, -0.051566124, 0
480, 2772200564, 0.75549924, -0.0050400496, -0.6523712, 0.060101002, 0.30122527, 0.1680942, 0.18565178, 0
481, 2772217231, 0.755476, -0.004878707, -0.652419, 0.05988978, 0.24727283, -0.1449837, 0.11273098, 0
482, 2772233898, 0.7554649, -0.004695505, -0.6524571, 0.059628084, 0.09236851, -0.024899064, 0.09854603, 0
483, 2772250565, 0.7554687, -0.004509695, -0.65247756, 0.059369907, 0.05623159, 0.13201258, 0.15465927, 0
484, 2772267232, 0.75545394, -0.0043039694, -0.65251833, 0.059125006, -0.09988883, -0.0543089, -0.04570675, 0
485, 2772283899, 0.75540787, -0.0041322336, -0.6525931, 0.05889973, -0.29089764, -0.20421943, 0.12682533, 0
486, 2772300566, 0.7554297, -0.0039493293, -0.6525889, 0.058677882, -0.570899, -0.13913302, 0.4502201, 0
487, 2772317233, 0.7554592, -0.0037376955, -0.6525735, 0.058483496, -0.5202881, -0.07769774, 0.1142292, 0
488, 2772333900, 0.75547314, -0.0035621747, -0.65257007, 0.05835244, -0.38654956, -0.20333968, -0.024364471, 0
489, 2772350567, 0.7554725, -0.0034415126, -0.6525777, 0.058281466, -0.26668224, -0.034446586, -0.11405945, 0
490, 2772367234, 0.75544953, -0.0034597665, -0.65260786, 0.05823995, -0.0024966397, -0.45118383, -0.049541473, 0
491, 2772383901, 0.7554117, -0.0035112947, -0.652652, 0.058232605, -0.06433463, -0.0039863535, 0.31501865, 0
492, 2772400568, 0.7554212, -0.0033970103, -0.6526546, 0.058086544, -0.29720563, 0.00805658, -0.009809494, 0
493, 2772417235, 0.75543815, -0.003128998, -0.65266305, 0.057786584, 0.100285344, -0.3447789, 0.27092934, 0
494, 2772433902, 0.7554538, -0.0028942972, -0.6526702, 0.057512328, 0.29297587, -0.6629001, 0.35089207, 0
495, 2772450569, 0.7554811, -0.0028235614, -0.6526557, 0.05732113, 0.14412993, -0.012357178, 0.014116287, 0
496, 2772467236, 0.7554794, -0.0027990788, -0.652671, 0.05717112, 0.03445765, 0.50557226, -0.15757465, 0
497, 2772483903, 0.7554496, -0.0026463643, -0.6527184, 0.057031587, 0.033029404, 0.46468353, -0.010594368, 0
498, 2772500570, 0.75543046, -0.0024199784, -0.6527607, 0.056811064, 0.15993962, -0.061388392, 0.22212791, 0
499, 2772517237, 0.75544715, -0.002266869, -0.65276235, 0.05657603, 0.2310735, -0.3160325, 0.3045559, 0
500, 2772533904, 0.7554857, -0.0021404997, -0.6527355, 0.05637592, 0.104391724, -0.037388913, 0.110572815, 0
501, 2772550571, 0.75549483, -0.0019799396, -0.6527443, 0.05615531, 0.18504548, 0.0790429, -0.009660721, 0
502, 2772567238, 0.75550115, -0.0017232299, -0.65275884, 0.05590871, 0.1686669, 0.03945613, -0.04982376, 0
503, 2772583905, 0.7555115, -0.0014484674, -0.6527702, 0.05564402, 0.17766643, -0.051672228, 0.07132435, 0
504, 2772600572, 0.7555373, -0.0012217164, -0.6527609, 0.055409774, 0.050542984, 0.07544512, 0.33284283, 0
505, 2772617239, 0.7555772, -0.0010121986, -0.6527303, 0.055229187, -0.09589421, 0.1437461, 0.04720974, 0
506, 2772633906, 0.75560516, -8.863136E-4, -0.652709, 0.055099487, -0.021515803, -0.03126499, -0.0054836273, 0
507, 2772650573, 0.7556009, -8.698404E-4, -0.65271884, 0.055041105, 0.019012012, -0.007941695, 0.09406662, 0
508, 2772667240, 0.7556201, -8.790046E-4, -0.6526966, 0.055042088, -0.122927874, 0.17914633, 0.09664726, 0
509, 2772683907, 0.75565875, -8.320585E-4, -0.65264744, 0.055095464, -0.016245816, 0.20599541, 0.08798599, 0
510, 2772700574, 0.7556697, -8.4516406E-4, -0.65262693, 0.055187628, 0.1398078, -0.13454251, 0.08270931, 0
511, 2772717241, 0.75568753, -9.709373E-4, -0.6525967, 0.055298537, 0.12334696, -0.1071957, 0.09156704, 0
512, 2772733908, 0.75570196, -0.0010835603, -0.6525717, 0.0553948, 0.009176548, 0.07528408, 0.10418892, 0
513, 2772750575, 0.75573504, -0.0010747463, -0.6525262, 0.05547887, -0.103253596, 0.13104515, 0.08956051, 0
514, 2772767242, 0.75575995, -9.84706E-4, -0.65249336, 0.05552654, -0.065099046, -0.15669638, 0.18676186, 0
515, 2772783909, 0.75580233, -9.42193E-4, -0.6524436, 0.055535704, -0.11219456, -0.34598896, 0.33868313, 0
516, 2772800576, 0.75587094, -9.228587E-4, -0.65236855, 0.055483565, -0.23319107, -0.3048338, 0.2704878, 0
517, 2772817243, 0.75596184, -8.693114E-4, -0.6522711, 0.05539319, -0.15479569, -0.31579688, 0.31473637, 0
518, 2772833910, 0.75605714, -8.119643E-4, -0.6521696, 0.05528766, -0.014666026, -0.28274494, 0.36773777, 0
519, 2772850577, 0.7561621, -7.4034184E-4, -0.65205973, 0.055148095, 0.114113644, -0.18699127, 0.11052227, 0
520, 2772867244, 0.75626445, -6.400198E-4, -0.6519559, 0.05497256, 0.24225518, -0.0025278917, -0.1695385, 0
521, 2772883911, 0.7563543, -5.1262975E-4, -0.6518675, 0.054787323, 0.13373406, 0.124387085, -0.14558983, 0
522, 2772900578, 0.756503, -3.9235502E-4, -0.65171105, 0.05459772, -0.5077794, -0.13947153, -0.13263226, 0
523, 2772917245, 0.7565134, -3.7825853E-4, -0.6517096, 0.054468274, 0.037099574, -0.33658653, -0.5802736, 0
524, 2772933912, 0.75647825, -4.0660053E-4, -0.6517588, 0.054368347, -0.22566092, -0.29494652, 0.15183258, 0
525, 2772950579, 0.7564921, -2.893731E-4, -0.65175664, 0.054202735, -0.11914358, 0.10639731, 0.5818939, 0
526, 2772967246, 0.75650966, -4.3034554E-5, -0.65175575, 0.05396819, -0.39236358, -0.22037797, 0.0014238358, 0
527, 2772983913, 0.7565389, 1.6566366E-4, -0.6517411, 0.053735122, -0.08965865, -0.3521142, -0.056684494, 0
528, 2773000580, 0.7565501, 2.764985E-4, -0.6517459, 0.05351746, -0.04703383, -0.06898258, 0.3722887, 0
529, 2773017247, 0.7565909, 4.2681396E-4, -0.65171814, 0.053277224, 0.012659774, 0.1540324, 0.007845879, 0
530, 2773033914, 0.75655323, 6.8371E-4, -0.6517835, 0.0530103, 1.0732974, 0.34918076, -1.3696375, 0
531, 2773050581, 0.7563213, 9.7546726E-4, -0.65207165, 0.052771226, 1.4571073, -0.28528467, -0.48107052, 0
532, 2773067248, 0.7563923, 0.0014362335, -0.65202117, 0.05236453, -1.061866, 1.2452658, 1.1635599, 0
533, 2773083915, 0.7563006, 0.0020342246, -0.6521711, 0.051797807, -0.32859668, -0.5681793, -0.7631531, 0
534, 2773100582, 0.7561417, 0.0022604093, -0.6523845, 0.051418856, -0.08775342, -1.2052311, 0.7245579, 0
535, 2773117249, 0.7561341, 0.0024939403, -0.6524162, 0.051118344, 0.5030472, -0.2119323, 0.37080002, 0
536, 2773133916, 0.7560441, 0.0029304922, -0.6525425, 0.050815925, 0.15071836, 0.17926739, -0.46362114, 0
537, 2773150583, 0.75597835, 0.0033852905, -0.65264386, 0.05046189, 0.42891467, 0.12026869, 0.27731705, 0
538, 2773167250, 0.7559377, 0.0036443397, -0.65271896, 0.050077885, 0.18678889, 0.17178133, 0.4108715, 0
539, 2773183917, 0.7559048, 0.0038512945, -0.652785, 0.049697056, -0.2153592, 0.40996507, 0.23884296, 0
540, 2773200584, 0.75589424, 0.0042302758, -0.6528189, 0.0493799, -0.16464679, 0.13397148, 0.31155682, 0
541, 2773217251, 0.7558932, 0.0046406016, -0.65283996, 0.0490828, 0.062594354, -0.2964689, -0.035820007, 0
542, 2773233918, 0.75588226, 0.004925087, -0.65287614, 0.04873775, 0.25934297, -0.36785498, -0.07424927, 0
543, 2773250585, 0.7558514, 0.0051731914, -0.6529387, 0.048354298, 0.15882428, -0.0687622, 0.01793766, 0
544, 2773267252, 0.7558404, 0.0055521503, -0.65297806, 0.047948927, -0.006089387, 0.06482753, 0.18353367, 0
545, 2773283919, 0.75584525, 0.0059747323, -0.6529982, 0.04754837, -0.07485938, -0.2623188, 0.36971283, 0
546, 2773300586, 0.75585407, 0.0062499717, -0.6530126, 0.047170773, -0.23608065, -0.36743495, 0.13056087, 0
547, 2773317253, 0.7558631, 0.006498255, -0.65302885, 0.046765596, -0.33171424, -0.027461585, 0.026215553, 0
548, 2773333920, 0.75587547, 0.0069009513, -0.65304196, 0.046323568, -0.19142544, -0.015375232, -0.011663437, 0
549, 2773350587, 0.7558853, 0.007392876, -0.6530573, 0.04586792, 0.017750952, -0.25928798, 0.12382603, 0
550, 2773367254, 0.75588524, 0.0077962875, -0.65308696, 0.04537733, 0.12892674, -0.22965285, -0.13909817, 0
551, 2773383921, 0.7558559, 0.008156106, -0.653155, 0.044819534, 0.24789375, -0.041118674, -0.1627388, 0
552, 2773400588, 0.7557862, 0.008602776, -0.6532677, 0.044267014, 0.07837884, 0.15361275, -0.20931911, 0
553, 2773417255, 0.7557071, 0.009094261, -0.653385, 0.043783426, -0.0065520587, -0.015018059, 0.21848488, 0
554, 2773433922, 0.7556473, 0.0094831735, -0.65347654, 0.043367893, -0.2343046, 0.040257923, 0.42698288, 0
555, 2773450589, 0.7556287, 0.0097616315, -0.6535182, 0.042998403, -0.42713326, 0.16667138, 0.39675426, 0
556, 2773467256, 0.75561184, 0.009970732, -0.65355176, 0.042737916, -0.24448606, -0.054667693, -0.09998894, 0
557, 2773483923, 0.7555126, 0.010022223, -0.65366817, 0.042698592, 0.17036343, -0.13476391, -0.83130264, 0
558, 2773500590, 0.7553394, 0.009872995, -0.65386087, 0.04284939, 0.16800664, 0.18972193, -0.5685501, 0
559, 2773517257, 0.75515604, 0.009546995, -0.65405816, 0.04314162, -0.007919511, 0.57684106, 0.24874687, 0
560, 2773533924, 0.75499433, 0.009150475, -0.6542226, 0.04356274, -0.27008545, 0.56494486, 0.62349033, 0
561, 2773550591, 0.75488967, 0.008735731, -0.6543146, 0.044078022, -0.22934128, 0.11300938, 0.43737984, 0
562, 2773567258, 0.7547824, 0.008225471, -0.6544027, 0.044699356, 0.069569305, -0.34225705, -0.31046486, 0
563, 2773583925, 0.7546047, 0.007587336, -0.6545654, 0.04542312, 0.3617924, -0.28986457, -0.8613558, 0
564, 2773600592, 0.754329, 0.006904386, -0.6548372, 0.046190232, 0.85468316, 0.17105766, -0.95347214, 0
565, 2773617259, 0.75395566, 0.0063304827, -0.65522224, 0.046899036, 1.1653845, 0.6414257, -0.19993114, 0
566, 2773633926, 0.7536648, 0.005904503, -0.655521, 0.04745172, 0.9827708, 0.75596154, 1.099309, 0
567, 2773650593, 0.75351405, 0.0055641234, -0.65566427, 0.047906175, 0.6646399, 0.46012524, 1.6528978, 0
568, 2773667260, 0.7535074, 0.005245723, -0.655643, 0.048337832, 0.28316185, -0.07575553, 1.1150846, 0
569, 2773683927, 0.7535927, 0.004856974, -0.65550894, 0.048860162, 0.21590815, -0.3795378, 0.43514347, 0
570, 2773700594, 0.75369745, 0.0044340864, -0.6553483, 0.04944086, -0.19448885, -0.38034967, 0.45392323, 0
571, 2773717261, 0.75386304, 0.004020661, -0.65512013, 0.049969092, -0.9199552, -0.28026307, 0.5409012, 0
572, 2773733928, 0.7540854, 0.0036310256, -0.65483695, 0.05035445, -1.06596, -0.48129547, 0.30475235, 0
573, 2773750595, 0.75425804, 0.0032668263, -0.6546156, 0.050671026, -0.635868, -0.5614181, -0.4616146, 0
574, 2773767262, 0.7543786, 0.0030005425, -0.65445524, 0.05096343, -0.15038265, -0.07758939, -0.5411329, 0
575, 2773783929, 0.7544872, 0.0028988644, -0.6543142, 0.05117199, 0.092191495, 0.37360632, 0.3379097, 0
576, 2773800596, 0.75466174, 0.0028896779, -0.6541063, 0.051255107, 0.25920618, 0.020680815, 1.1614523, 0
577, 2773817263, 0.7548954, 0.0028557777, -0.6538354, 0.051272005, 0.53845525, -0.3008555, 0.38260937, 0
578, 2773833930, 0.75510144, 0.0028655902, -0.6535975, 0.051272377, 0.94405437, -0.18016356, -0.7921467, 0
579, 2773850597, 0.7551534, 0.0029430017, -0.65353763, 0.05126649, 1.2338132, 0.27575213, -1.4950895, 0
580, 2773867264, 0.7551446, 0.0030840486, -0.6535549, 0.051166818, 0.64862746, 0.27707157, -0.31933498, 0
581, 2773883931, 0.7551639, 0.0032246634, -0.653547, 0.050976574, -0.07699038, -0.09168127, 0.693264, 0
582, 2773900598, 0.75523615, 0.003391616, -0.6534739, 0.05083029, -0.82870054, -0.4321348, 0.8360672, 0
583, 2773917265, 0.7553824, 0.0035802722, -0.6533071, 0.050788343, -1.0608819, -0.4920168, 0.505991, 0
584, 2773933932, 0.75553787, 0.0036154538, -0.653121, 0.050866947, -0.80891573, -0.48104554, 0.049453735, 0
585, 2773950599, 0.75562954, 0.0034190193, -0.65300393, 0.051021487, -0.2868297, -0.24950248, -0.87072563, 0
586, 2773967266, 0.7556267, 0.0031405985, -0.6529948, 0.051200062, 0.1374265, 0.22815174, -0.786499, 0
587, 2773983933, 0.75556314, 0.0029750988, -0.65305686, 0.05135429, 0.30187482, 0.23832029, -0.1478672, 0
588, 2774000600, 0.7555199, 0.0029259175, -0.6530985, 0.051463664, 0.2890094, -0.067835905, 0.59579086, 0
589, 2774017267, 0.7555349, 0.0029046014, -0.65307766, 0.051508486, 0.075767316, -0.265993, 0.6457968, 0
590, 2774033934, 0.75557, 0.0028862879, -0.6530355, 0.05152832, 0.013574389, -0.16283299, 0.18304443, 0
591, 2774050601, 0.7555899, 0.002889827, -0.65300834, 0.05157973, 0.06982992, -0.07751368, -0.29436493, 0
592, 2774067268, 0.75559974, 0.00284075, -0.65298873, 0.051687285, 0.21320543, 0.04832322, -0.14780426, 0
593, 2774083935, 0.7556116, 0.002662614, -0.65296125, 0.051871374, 0.02449389, 0.18968616, 0.38777256, 0
594, 2774100602, 0.7556625, 0.0024105236, -0.6528861, 0.052088812, -0.22452138, 0.22605878, 0.60098934, 0
595, 2774117269, 0.7557539, 0.0021930411, -0.65276283, 0.05231744, -0.3597754, -0.08825582, 0.385499, 0
596, 2774133936, 0.75585514, 0.0019326061, -0.6526228, 0.05261056, -0.044901963, -0.76921606, -0.032546997, 0
597, 2774150603, 0.75590515, 0.001569964, -0.65253776, 0.05295667, -0.03637137, -0.42597732, -0.3416853, 0
598, 2774167270, 0.7559326, 0.0012435615, -0.65248245, 0.053254142, -0.23545794, 0.078523174, -0.13761711, 0
599, 2774183937, 0.7559519, 0.0010559186, -0.652445, 0.05344197, -0.41122675, 0.2386706, 0.16098309, 0
600, 2774200604, 0.7559563, 0.0010221899, -0.652433, 0.053527296, -0.08309988, 0.03427817, -0.09098244, 0
601, 2774217271, 0.75592756, 0.0010093972, -0.6524634, 0.0535634, 0.2192662, -0.57675135, -0.2040453, 0
602, 2774233938, 0.75586337, 9.602383E-4, -0.6525344, 0.053603515, 0.30617028, -0.4134429, -0.1182251, 0
603, 2774250605, 0.75579137, 9.812415E-4, -0.65261567, 0.05363016, -0.061616264, -0.023299213, 0.20386028, 0
604, 2774267272, 0.7557525, 0.0011138842, -0.6526636, 0.053591996, -0.0404098, -0.040705007, 0.48381805, 0
605, 2774283939, 0.75577074, 0.0012264922, -0.65264887, 0.053511515, -0.14184982, -0.20766589, 0.38854408, 0
606, 2774300606, 0.75578845, 0.001312457, -0.6526393, 0.053375944, 0.049978837, -0.13819404, -0.18030262, 0
607, 2774317273, 0.7557815, 0.0014358833, -0.6526616, 0.05319968, 0.24530639, -0.018897109, -0.371253, 0
608, 2774333940, 0.7557294, 0.0016496181, -0.6527384, 0.052990198, 0.50347006, 0.052953124, -0.3552866, 0
609, 2774350607, 0.7556518, 0.0018582493, -0.6528471, 0.05275117, 0.5146699, -0.07213054, 0.082844734, 0
610, 2774367274, 0.7555889, 0.0020661056, -0.65294284, 0.052456766, 0.24830858, -0.025468519, 0.39560604, 0
611, 2774383941, 0.7555838, 0.0023374557, -0.6529744, 0.052121803, -5.833688E-4, -0.092239104, 0.5447569, 0
612, 2774400608, 0.7556265, 0.0026696548, -0.6529541, 0.051743552, -0.11452625, -0.26038858, 0.3260622, 0
613, 2774417275, 0.75566924, 0.0029957518, -0.65293115, 0.051389575, 0.20255594, -0.3423919, -0.13069248, 0
614, 2774433942, 0.75565904, 0.0032642335, -0.6529702, 0.051029295, 0.4043242, -0.08574348, -0.5770798, 0
615, 2774450609, 0.7555689, 0.0035538226, -0.65310395, 0.05062741, 1.0573754, 0.57619965, -0.41497517, 0
616, 2774467276, 0.75545955, 0.0038163066, -0.65326166, 0.05020468, 1.1158152, 0.18585795, 0.44661808, 0
617, 2774483943, 0.75543857, 0.0040325224, -0.6533166, 0.04978682, 0.14408182, 0.15388963, 0.06420708, 0
618, 2774500610, 0.7554148, 0.0043273345, -0.6533767, 0.049333304, -0.2630524, 0.3508607, 0.55055237, 0
619, 2774517277, 0.7554568, 0.004689172, -0.65336096, 0.048862666, -0.49571887, 0.14588955, 0.23701191, 0
620, 2774533944, 0.75550604, 0.004943058, -0.65332985, 0.04849273, 0.017593151, -0.55174845, 0.31156445, 0
621, 2774550611, 0.7555296, 0.0049674734, -0.6533181, 0.048276663, 0.07058405, -0.5486989, 0.10847378, 0
622, 2774567278, 0.7555712, 0.004938893, -0.65327907, 0.048157796, -0.10317537, 0.14683813, -0.07756424, 0
623, 2774583945, 0.755584, 0.005034849, -0.6532747, 0.04800722, -0.26820123, 0.44175407, -0.040237427, 0
624, 2774600612, 0.75558496, 0.005120918, -0.6532849, 0.047842205, -0.3421456, 0.011155979, -0.08914757, 0
625, 2774617279, 0.7555813, 0.005100332, -0.6532975, 0.047730878, -0.25787494, -0.17670465, 0.21687984, 0
626, 2774633946, 0.7555824, 0.005045742, -0.65329844, 0.04770711, -0.4101637, -0.09341277, 0.1642704, 0
627, 2774650613, 0.75559676, 0.005054228, -0.65327865, 0.047747865, -0.35215896, -6.113079E-5, 0.24054146, 0
628, 2774667280, 0.7556045, 0.0050562993, -0.653265, 0.047810927, -0.19691625, -0.09842678, 0.18113708, 0
629, 2774683947, 0.75562835, 0.0049600154, -0.65323055, 0.04791616, -0.1052223, -0.07902155, 0.1336937, 0
630, 2774700614, 0.7556437, 0.00483194, -0.65320474, 0.048039317, -0.0060303793, 0.09140814, -0.026453018, 0
631, 2774717281, 0.7556402, 0.004789859, -0.6531982, 0.048187718, 0.11670237, 0.115169406, -0.069229126, 0
632, 2774733948, 0.7556303, 0.004758939, -0.6531969, 0.048364937, 0.21832195, -0.031592388, -0.02355194, 0
633, 2774750615, 0.7556079, 0.004661761, -0.65320903, 0.048557594, 0.16040228, -0.04918179, 0.050839424, 0
634, 2774767282, 0.75559103, 0.004526861, -0.6532145, 0.048758283, 0.044709295, 0.115747415, 0.14872646, 0
635, 2774783949, 0.75556993, 0.0044463426, -0.65322393, 0.048967242, -0.03414697, 0.13972504, -0.010175705, 0
636, 2774800616, 0.75552726, 0.0043925717, -0.6532555, 0.049209848, 0.005067039, -0.047011703, -0.25717926, 0
637, 2774817283, 0.7555177, 0.004269995, -0.653248, 0.04946533, 0.38864613, -0.122926876, 0.646883, 0
638, 2774833950, 0.755497, 0.004091248, -0.653253, 0.04972951, 0.17628199, -0.010044449, -0.23039722, 0
639, 2774850617, 0.7554907, 0.003941737, -0.65324044, 0.05000201, 0.39513648, 0.21825767, 0.002272606, 0
640, 2774867284, 0.7554618, 0.0038059205, -0.6532516, 0.0503031, 0.45688865, 0.018884722, 0.006201744, 0
641, 2774883951, 0.7554355, 0.0036244094, -0.65325785, 0.050626427, 0.39060006, -0.054846838, 0.072068214, 0
642, 2774900618, 0.7554111, 0.0033937022, -0.6532646, 0.05091852, 0.3668089, 0.09341791, 0.21561813, 0
643, 2774917285, 0.755416, 0.0032073185, -0.6532406, 0.05116923, 0.24029744, 0.11149469, 0.078266144, 0
644, 2774933952, 0.7554505, 0.0031183064, -0.65318614, 0.051358372, 0.5064978, 0.110858455, 0.08190441, 0
645, 2774950619, 0.75546193, 0.003079228, -0.653162, 0.05149682, 0.77602226, -0.03469357, -0.12013626, 0
646, 2774967286, 0.75544655, 0.0030483156, -0.6531739, 0.05157624, 0.8370167, -0.036559567, -0.4089651, 0
647, 2774983953, 0.7553786, 0.0030207485, -0.65324986, 0.05160965, 0.6671111, -0.08773152, -0.440588, 0
648, 2775000620, 0.75528514, 0.0030647367, -0.65335673, 0.05162309, 0.3791124, 0.05363786, 0.08182716, 0
649, 2775017287, 0.75522214, 0.0031526983, -0.6534293, 0.051620483, 0.14162272, -0.017171104, 0.33121586, 0
650, 2775033954, 0.7551816, 0.0032222494, -0.6534778, 0.051595032, -0.05897121, -0.14461389, 0.31042767, 0
651, 2775050621, 0.75513774, 0.0032693148, -0.65353024, 0.05156949, -0.26937202, -0.11651825, -0.2521534, 0
652, 2775067288, 0.7550523, 0.0032820255, -0.6536264, 0.051599562, -0.19981566, 0.093059786, -0.08045864, 0
653, 2775083955, 0.7549653, 0.0032096133, -0.65371644, 0.05173771, -0.118131064, 0.0029652906, 0.3839512, 0
654, 2775100622, 0.75492877, 0.0029756501, -0.65374225, 0.051959977, -0.22571814, 0.08296985, 0.6289282, 0
655, 2775117289, 0.7549579, 0.0026911348, -0.653686, 0.052255675, -0.30382785, 0.26045266, 0.62350845, 0
656, 2775133956, 0.7550426, 0.0024269596, -0.653561, 0.052611113, -0.13638939, 0.04545795, 0.3139515, 0
657, 2775150623, 0.7551366, 0.0021733567, -0.65342057, 0.053013712, 0.17748098, -0.21478088, 0.20841599, 0
658, 2775167290, 0.75524884, 0.0018865988, -0.6532608, 0.053395808, 0.36998948, -0.17939602, 0.26966858, 0
659, 2775183957, 0.7553538, 0.001641646, -0.6531161, 0.05368556, 0.42856553, 0.1060883, -0.16536903, 0
660, 2775200624, 0.7554356, 0.0015451312, -0.653007, 0.053867057, 0.37860635, 0.19717653, -0.29234028, 0
661, 2775217291, 0.7554804, 0.0015497431, -0.652947, 0.053965047, 0.38585982, -0.15453121, -0.16042995, 0
662, 2775233958, 0.7555016, 0.0015448928, -0.6529169, 0.054031044, 0.2301504, -0.42124352, -0.13103008, 0
663, 2775250625, 0.75552595, 0.0015276, -0.6528847, 0.054080173, -0.06542403, -0.17140661, 0.121089935, 0
664, 2775267292, 0.75555384, 0.0015947968, -0.65284956, 0.05411093, -0.24865101, -0.01960611, 0.13162804, 0
665, 2775283959, 0.75558454, 0.0016950816, -0.6528118, 0.054136634, -0.12249136, -0.20659682, -0.025075912, 0
666, 2775300626, 0.75561315, 0.001703918, -0.6527753, 0.054176733, 0.046027128, -0.18685208, -0.0021324158, 0
667, 2775317293, 0.75561386, 0.0016994998, -0.6527711, 0.05421786, 0.023977576, 0.05680772, -0.07173729, 0
668, 2775333960, 0.7556048, 0.0017722696, -0.6527791, 0.0542458, 0.0070259064, 0.09210595, -0.054454803, 0
669, 2775350627, 0.7555871, 0.0018880367, -0.65279716, 0.054271102, 0.053506684, -0.11376054, 0.087441444, 0
670, 2775367294, 0.75556487, 0.001951769, -0.6528197, 0.054306805, 0.007040658, -0.19036917, 0.0054159164, 0
671, 2775383961, 0.7555342, 0.0019824132, -0.6528515, 0.054349646, -0.09339087, 0.0059381803, 0.011275291, 0
672, 2775400628, 0.7554995, 0.002048269, -0.65288675, 0.054405496, -0.057171933, 0.024898393, 0.04170227, 0
673, 2775417295, 0.7554688, 0.002107419, -0.6529155, 0.05448705, 0.09379453, -0.13832892, 0.1298647, 0
674, 2775433962, 0.7554388, 0.0020755008, -0.6529398, 0.054611906, 0.13637285, -0.12461428, 0.15407181, 0
675, 2775450629, 0.75539833, 0.00200776, -0.6529742, 0.05476229, -5.1095063E-4, 0.046078034, 0.119558334, 0
676, 2775467296, 0.7553646, 0.001981333, -0.65300053, 0.054913983, -0.14433394, 0.053773195, 0.124035835, 0
677, 2775483963, 0.7553374, 0.0019923374, -0.6530201, 0.055056974, -0.22857821, -0.14718491, 0.19871712, 0
678, 2775500630, 0.7553198, 0.0019636452, -0.65302974, 0.055184335, -0.23894474, -0.29037395, 0.3299265, 0
679, 2775517297, 0.7553326, 0.001922816, -0.6530052, 0.055301085, -0.19460736, -0.27155074, 0.281888, 0
680, 2775533964, 0.7553542, 0.0019184723, -0.65297234, 0.055391505, -0.03973971, -0.16070381, 0.09768486, 0
681, 2775550631, 0.75536656, 0.0019508153, -0.65295213, 0.05546005, 0.012074339, -0.13389477, -0.05195999, 0
682, 2775567298, 0.75535715, 0.0019899756, -0.652958, 0.05551943, -0.08942753, -0.14703012, 0.051455498, 0
683, 2775583965, 0.75534743, 0.0020190328, -0.6529657, 0.05555953, -0.2913259, -0.25312585, 0.1352272, 0
684, 2775600632, 0.7553479, 0.0020618737, -0.65296227, 0.05559142, -0.39435464, -0.35257447, 0.32235909, 0
685, 2775617299, 0.7553663, 0.0021096542, -0.65293974, 0.055602998, -0.4337224, -0.44277185, 0.22575378, 0
686, 2775633966, 0.7553891, 0.002155602, -0.65291363, 0.055598572, -0.32917735, -0.3582879, 0.048749924, 0
687, 2775650633, 0.7553961, 0.0021980107, -0.6529077, 0.05557111, -0.20517103, -0.2127047, -0.051005363, 0
688, 2775667300, 0.75538766, 0.0022612736, -0.65292054, 0.055532217, -0.09099436, -0.1548481, -0.054873466, 0
689, 2775683967, 0.75535566, 0.0023088008, -0.65296096, 0.05549191, -0.06753936, -0.18119161, 0.041585922, 0
690, 2775700634, 0.755309, 0.0023499206, -0.65301824, 0.055451587, -0.17061414, -0.19009788, 0.18020153, 0
691, 2775717301, 0.7552852, 0.0023827031, -0.65304947, 0.05540672, -0.21818396, -0.1902197, 0.2569523, 0
692, 2775733968, 0.7552706, 0.0024088547, -0.6530701, 0.05536318, -0.20684291, -0.23325773, 0.15791607, 0
693, 2775750635, 0.7552671, 0.0024165288, -0.6530776, 0.055320844, -0.11791694, -0.21553254, 0.23517036, 0
694, 2775767302, 0.7552625, 0.0023944378, -0.653086, 0.055285797, -0.12984116, -0.14563861, 0.05935955, 0
695, 2775783969, 0.7552444, 0.0023523942, -0.65311015, 0.05524847, -0.07099487, -0.08560759, 0.041068077, 0
696, 2775800636, 0.75522786, 0.0023125112, -0.65313137, 0.055227235, -0.013397814, -0.039990548, 0.10547638, 0
697, 2775817303, 0.7552215, 0.0022813976, -0.65314054, 0.05520588, -0.012505997, 0.00322898, 0.19490719, 0
698, 2775833970, 0.7552205, 0.002277054, -0.65314394, 0.055178627, -0.03331997, -0.03321598, 0.20006752, 0
699, 2775850637, 0.7552315, 0.0022718757, -0.6531349, 0.055136457, -0.07195865, -0.16418971, 0.21444035, 0
700, 2775867304, 0.7552564, 0.0022531599, -0.6531087, 0.05510588, -0.13703936, -0.21810383, 0.11122513, 0
701, 2775883971, 0.75528276, 0.0022274703, -0.65308034, 0.055082172, -0.19836506, -0.16259283, 0.07479, 0
702, 2775900638, 0.7553109, 0.002210401, -0.6530491, 0.055066317, -0.13804339, -0.13142255, 0.09436703, 0
703, 2775917305, 0.75532854, 0.0021946803, -0.65302926, 0.055060357, -0.04373344, -0.08748856, -0.0071754456, 0
704, 2775933972, 0.75534254, 0.00217928, -0.6530154, 0.055033877, 0.013283822, -0.0099547645, 0.039811134, 0
705, 2775950639, 0.7553563, 0.0021653697, -0.6529995, 0.055034384, 0.023719642, -0.033599194, 0.05249405, 0
706, 2775967306, 0.7553669, 0.0021307468, -0.65298647, 0.05504395, 0.05050598, -0.03619374, 0.16600609, 0
707, 2775983973, 0.75537765, 0.0020779297, -0.6529722, 0.0550683, 0.13243769, -0.061283454, -0.0053339005, 0
708, 2776000640, 0.7553519, 0.0020236596, -0.6529978, 0.055119947, 0.12852263, -0.07226671, -0.5012789, 0
709, 2776017307, 0.75532615, 0.0019444153, -0.653022, 0.055187657, 0.41669744, -0.026155207, 0.66011906, 0
710, 2776033974, 0.7553204, 0.0018455014, -0.65302384, 0.055250317, 0.22984508, 0.040485963, 0.06919289, 0
711, 2776050641, 0.7553403, 0.0017219707, -0.6529941, 0.05533372, 0.37009722, -0.007060774, 0.083683014, 0
712, 2776067308, 0.7553508, 0.0015894026, -0.6529753, 0.055414274, 0.33113042, 0.13227369, -0.1206131, 0
713, 2776083975, 0.7553618, 0.001472652, -0.65295476, 0.05551155, 0.4094087, 0.22534984, -0.004257202, 0
714, 2776100642, 0.7553706, 0.00138437, -0.65293753, 0.05559486, 0.6730856, 0.25354517, 0.07600021, 0
715, 2776117309, 0.75536484, 0.0013183355, -0.6529392, 0.055654928, 0.7965184, 0.21382636, 0.031050682, 0
716, 2776133976, 0.75537133, 0.0013155565, -0.6529312, 0.05566065, 0.8504784, 0.26370472, -0.044394493, 0
717, 2776150643, 0.7553832, 0.001379244, -0.6529216, 0.05561185, 0.73253065, 0.13203514, 0.012129784, 0
718, 2776167310, 0.7553954, 0.0014723763, -0.6529144, 0.05552824, 0.5687841, 0.059089225, 0.050826073, 0
719, 2776183977, 0.7554044, 0.0015625954, -0.652913, 0.05541928, 0.48920205, 0.03978627, -0.05747986, 0
720, 2776200644, 0.7554168, 0.0016678721, -0.65290874, 0.05529712, 0.35144553, 0.14005679, -0.15873337, 0
721, 2776217311, 0.75543267, 0.0018192604, -0.6529004, 0.055172652, 0.3010201, 0.15873069, -0.06345749, 0
722, 2776233978, 0.7554452, 0.001968272, -0.6528933, 0.055081367, 0.20944057, -0.0034201394, 0.09168148, 0
723, 2776250645, 0.75545967, 0.0020469278, -0.6528786, 0.055054277, 0.05456935, -0.06482714, 0.16136456, 0
724, 2776267312, 0.755478, 0.0020598099, -0.6528561, 0.055068076, -0.05883174, -0.019829007, 0.22900677, 0
725, 2776283979, 0.7555119, 0.002038747, -0.6528127, 0.05511783, -0.10112978, 0.007264339, 0.171381, 0
726, 2776300646, 0.7555289, 0.001998216, -0.65278524, 0.055211127, -0.012456377, 0.030115968, -0.024475098, 0
727, 2776317313, 0.75552285, 0.0019257814, -0.65278286, 0.055327073, -0.046633743, -0.04894839, -0.08376026, 0
728, 2776333980, 0.75550956, 0.0018341541, -0.6527869, 0.05546342, -0.11292366, -0.11106666, 0.042898178, 0
729, 2776350647, 0.75550175, 0.001752913, -0.65278214, 0.05562663, -0.20164222, -0.17558156, 0.11995506, 0
730, 2776367314, 0.7555071, 0.0016653314, -0.65276223, 0.05579026, -0.15725477, -0.19216214, 0.20633316, 0
731, 2776383981, 0.7555287, 0.0015795082, -0.65272504, 0.055935383, -0.095014125, -0.19584365, 0.14707756, 0
732, 2776400648, 0.7555459, 0.0015177205, -0.65269524, 0.056052, -0.028017797, -0.19654863, 0.028653145, 0
733, 2776417315, 0.75554115, 0.0014785156, -0.6526921, 0.05615361, -0.031625297, -0.118530095, -0.038520813, 0
734, 2776433982, 0.7555093, 0.0014734417, -0.6527215, 0.056240886, -0.07434041, -0.13441163, 0.01630497, 0
735, 2776450649, 0.7554716, 0.0014604405, -0.65275747, 0.056331575, -0.13519002, -0.12909013, 0.16133595, 0
736, 2776467316, 0.755448, 0.0014234409, -0.6527768, 0.056425616, -0.23456076, -0.09952037, 0.23104095, 0
737, 2776483983, 0.7554447, 0.0013945401, -0.65277255, 0.056518435, -0.27929062, -0.10730371, 0.20998478, 0
738, 2776500650, 0.755441, 0.0013653636, -0.652767, 0.056632206, -0.25782487, -0.19318755, 0.20115757, 0
739, 2776517317, 0.755435, 0.001308091, -0.6527617, 0.056773737, -0.18022208, -0.24435872, 0.08361912, 0
740, 2776533984, 0.75542617, 0.0012134239, -0.65275866, 0.05692756, -0.13714263, -0.20442574, 0.011358261, 0
741, 2776550651, 0.7554109, 0.0011268407, -0.65276414, 0.05706975, -0.16293693, -0.14825463, 0.01642418, 0
742, 2776567318, 0.7553907, 0.0010667518, -0.6527765, 0.057198465, -0.13077252, -0.16871904, 0.09560299, 0
743, 2776583985, 0.7553695, 0.0010281801, -0.6527912, 0.05731009, -0.12607293, -0.15509799, 0.16735649, 0
744, 2776600652, 0.75535655, 9.809732E-4, -0.65279555, 0.057431117, -0.15454054, -0.23071489, 0.18561172, 0
745, 2776617319, 0.75535184, 9.349063E-4, -0.65279305, 0.057522163, -0.1942806, -0.23927464, 0.22595501, 0
746, 2776633986, 0.75535643, 8.8848174E-4, -0.65278035, 0.05760713, -0.2046051, -0.24511151, 0.17635536, 0
747, 2776650653, 0.7553618, 8.4843487E-4, -0.65276796, 0.057678923, -0.15870492, -0.22786805, 0.17243576, 0
748, 2776667320, 0.75538486, 7.8886E-4, -0.6527362, 0.0577372, -0.036597118, -0.25088274, 0.10327244, 0
749, 2776683987, 0.75539386, 7.396415E-4, -0.6527203, 0.05779791, 0.07223894, -0.1411999, 0.02460289, 0
750, 2776700654, 0.7553858, 7.1869045E-4, -0.65272665, 0.057830125, 0.077534854, -0.08271678, 0.0031013489, 0
751, 2776717321, 0.7553737, 7.2645396E-4, -0.652743, 0.057806432, 0.07749194, -0.14730035, 0.1033802, 0
752, 2776733988, 0.75536156, 7.5093657E-4, -0.652763, 0.057737708, 0.040108506, -0.23668222, 0.15087509, 0
753, 2776750655, 0.7553752, 7.928908E-4, -0.6527554, 0.0576455, -0.009961972, -0.21610579, 0.13979626, 0
754, 2776767322, 0.7553847, 8.656159E-4, -0.6527538, 0.0575386, -0.08224204, -0.1496521, 0.0805769, 0
755, 2776783989, 0.75539386, 9.447634E-4, -0.6527544, 0.057407305, -0.1237475, -0.17018645, -0.03315258, 0
756, 2776800656, 0.75539565, 0.0010152459, -0.65276426, 0.057272628, -0.048956234, -0.16190642, 0.04570961, 0
757, 2776817323, 0.75538874, 0.0010736883, -0.65278345, 0.05714315, -0.020609235, -0.1656193, 0.10462093, 0
758, 2776833990, 0.75538534, 0.0011520758, -0.6528003, 0.05699353, -0.02618186, -0.0658182, 0.102342606, 0
759, 2776850657, 0.75538975, 0.0012726635, -0.65280986, 0.05682379, 0.07670562, -0.01571475, 0.069574356, 0
760, 2776867324, 0.7553895, 0.0013928711, -0.6528254, 0.05664523, 0.13727227, -0.14347419, 0.07175541, 0
761, 2776883991, 0.7553649, 0.001496017, -0.65286857, 0.05647342, 0.10471224, -0.15723148, 0.07589054, 0
762, 2776900658, 0.7553437, 0.001573801, -0.6529066, 0.056314513, -0.009122457, -0.08104026, 0.114050865, 0
763, 2776917325, 0.7553405, 0.0016606748, -0.65292406, 0.056152344, -0.058127224, -0.03053919, 0.1898222, 0
764, 2776933992, 0.75535613, 0.0017284825, -0.65291876, 0.056002423, -0.090634055, -0.031491354, 0.1862135, 0
765, 2776950659, 0.75538176, 0.0017622635, -0.6529009, 0.05586332, -0.091924176, -0.062092233, 0.055210114, 0
766, 2776967326, 0.7553927, 0.001807116, -0.6528985, 0.055741996, -0.013778233, -0.066956155, 0.013637543, 0
767, 2776983993, 0.75539166, 0.0018643215, -0.65290886, 0.055632904, 0.04244377, -0.14555036, 0.021972656, 0
768, 2777000660, 0.7553774, 0.0019067153, -0.65293413, 0.05552773, 0.11415328, -0.11817544, 0.105368614, 0
769, 2777017327, 0.7553826, 0.0019242093, -0.6529359, 0.055434942, 0.10492458, 0.0059628785, 0.15154552, 0
770, 2777033994, 0.755377, 0.001938127, -0.6529482, 0.055366322, 0.024230145, 0.075673275, 0.13470173, 0
771, 2777050661, 0.7553864, 0.0019577667, -0.65294075, 0.055325314, 0.004519432, 0.008966502, 0.1571598, 0
772, 2777067328, 0.7553982, 0.0019581914, -0.6529305, 0.055284098, 0.004364314, -0.0644299, 0.11202526, 0
773, 2777083995, 0.75541824, 0.0019301474, -0.65290904, 0.055264592, 0.006641017, -0.07705442, 0.10330105, 0
774, 2777100662, 0.7554407, 0.0018892065, -0.6528835, 0.055259675, 0.07743562, 0.0028371618, -0.019842148, 0
775, 2777117329, 0.7554464, 0.0018466115, -0.6528762, 0.055271015, 0.18685639, 0.012793547, -0.079527855, 0
776, 2777133996, 0.75543797, 0.0018162951, -0.6528853, 0.05527997, 0.2231464, 0.039212443, -0.021578789, 0
777, 2777150663, 0.7554223, 0.0017819181, -0.6529021, 0.05529502, 0.18559621, -0.01370777, 0.1231966, 0
778, 2777167330, 0.7554122, 0.0017392859, -0.65291137, 0.05532658, 0.13054632, -0.0858459, 0.22016239, 0
779, 2777183997, 0.7554214, 0.001675345, -0.65289676, 0.055376917, 0.07104583, -0.10989294, 0.25325584, 0
780, 2777200664, 0.7554472, 0.0016053692, -0.6528612, 0.055444002, -0.007958402, -0.017120644, 0.093616486, 0
781, 2777217331, 0.7554715, 0.0015272871, -0.6528273, 0.05551216, 0.015812146, 0.039971776, -0.053341866, 0
782, 2777233998, 0.7554746, 0.0014435872, -0.6528172, 0.055591837, 0.106682286, 0.0205994, -0.07994747, 0
783, 2777250665, 0.7554694, 0.0013471097, -0.6528159, 0.05568123, 0.21249823, 0.042589165, -0.012601852, 0
784, 2777267332, 0.7554616, 0.0012593642, -0.6528173, 0.055772424, 0.26465857, -0.0010139106, 0.04990387, 0
785, 2777283999, 0.75543827, 0.0011670068, -0.65283585, 0.05587448, 0.24933675, -0.06409256, 0.12602901, 0
786, 2777300666, 0.7554246, 0.0010667518, -0.6528422, 0.05598654, 0.18156807, -0.086543046, 0.1289444, 0
787, 2777317333, 0.7554065, 9.762719E-4, -0.65285474, 0.05608651, -0.08047494, -0.09577172, -0.7813482, 0
788, 2777334000, 0.7553343, 8.892864E-4, -0.6529304, 0.05618015, 0.11689281, -0.098846205, 0.28602982, 0
789, 2777350667, 0.7553418, 8.2215667E-4, -0.6529154, 0.056253597, 0.49769318, 0.25761697, 1.1659155, 0
790, 2777367334, 0.75540954, 7.4738264E-4, -0.6528309, 0.056325674, 0.5491284, -0.08457758, 0.016318321, 0
791, 2777384001, 0.7554696, 6.524399E-4, -0.65275705, 0.056377947, 0.7634036, 0.075703785, -0.3543806, 0
792, 2777400668, 0.75547594, 5.7601184E-4, -0.6527455, 0.056425735, 0.6753171, 0.078746796, -0.21734428, 0
793, 2777417335, 0.75546044, 5.679354E-4, -0.65276355, 0.056425914, 0.6150654, 0.17295076, -0.068977356, 0
794, 2777434002, 0.7554213, 6.115213E-4, -0.6528124, 0.056383654, 0.5694882, 0.10941568, -0.13288116, 0
795, 2777450669, 0.7554035, 6.308332E-4, -0.6528382, 0.05632502, 0.54634166, 0.16257729, 0.05799389, 0
796, 2777467336, 0.7554097, 6.120801E-4, -0.6528331, 0.056299284, 0.5681968, 0.29129475, 0.27183342, 0
797, 2777484003, 0.75543696, 5.8006495E-4, -0.65280116, 0.05630523, 0.47288725, 0.4228226, 0.18293953, 0
798, 2777500670, 0.75547636, 5.6648254E-4, -0.6527524, 0.056340173, 0.4846239, 0.44360176, 0.02525711, 0
799, 2777517337, 0.7555121, 5.3818524E-4, -0.6527032, 0.056432113, 0.5414986, 0.22824216, 0.008617401, 0
800, 2777534004, 0.75556135, 4.505217E-4, -0.6526369, 0.05654119, 0.47141787, 0.07389338, 0.061160088, 0
801, 2777550671, 0.7556311, 3.9819628E-4, -0.65254766, 0.056638613, 0.25406852, 0.19600824, 0.4532385, 0
802, 2777567338, 0.75574344, 4.4377893E-4, -0.6524055, 0.05677794, -0.11380654, 0.09927831, 0.23441887, 0
803, 2777584005, 0.7558498, 5.476475E-4, -0.65226716, 0.056951284, -0.28310195, -0.007196167, -0.120859146, 0
804, 2777600672, 0.75592816, 6.496832E-4, -0.652167, 0.05705647, -0.29423916, -0.30655974, -0.27846813, 0
805, 2777617339, 0.75599545, 7.411167E-4, -0.6520894, 0.057050437, -0.019008435, -0.666687, 0.12133789, 0
806, 2777634006, 0.7560305, 8.4798783E-4, -0.65205455, 0.056982502, 0.067654654, -0.70861644, 0.08020115, 0
807, 2777650673, 0.75604725, 0.0010129586, -0.652038, 0.05694583, -0.084689505, -0.24883702, -0.18343735, 0
808, 2777667340, 0.7560443, 0.0011884943, -0.6520411, 0.056947544, -0.10943865, 0.111132376, -0.21617222, 0
809, 2777684007, 0.7560196, 0.0013223141, -0.65206754, 0.056968167, -0.01732583, 0.10141565, -0.08601284, 0
810, 2777700674, 0.7559823, 0.0014034808, -0.6521114, 0.056960657, 0.19783266, -0.055845663, -0.08261204, 0
811, 2777717341, 0.7559296, 0.0015011802, -0.65217453, 0.056933463, 0.17861457, -0.03786611, 0.13146973, 0
812, 2777734008, 0.755881, 0.001649864, -0.6522326, 0.056909174, 0.013358476, -0.16818757, -0.06160164, 0
813, 2777750675, 0.7558053, 0.0017554164, -0.65232146, 0.056894585, 0.15295081, -0.35961062, 0.0670805, 0
814, 2777767342, 0.75571984, 0.0017372742, -0.65241975, 0.056902498, 0.14919534, -0.2231682, 0.015249252, 0
815, 2777784009, 0.7556261, 0.0016653985, -0.6525265, 0.05692579, 0.14708091, -0.006191812, 0.011313438, 0
816, 2777800676, 0.7555338, 0.0016345605, -0.6526283, 0.056983486, 0.14271347, 0.003475347, 0.23328495, 0
817, 2777817343, 0.75546694, 0.0015889332, -0.6526995, 0.0570582, 0.036219828, 0.027203035, 0.4569626, 0
818, 2777834010, 0.7554307, 0.001500532, -0.6527386, 0.05709015, -0.15531251, -2.4640825E-4, 0.31041718, 0
819, 2777850677, 0.7554209, 0.0014406443, -0.65275055, 0.057083935, -0.32581395, -0.067909606, 0.32131386, 0
820, 2777867344, 0.7554275, 0.001462914, -0.6527443, 0.057069153, -0.4203854, -0.2615285, 0.17803574, 0
821, 2777884011, 0.755423, 0.0015160665, -0.6527499, 0.057062015, -0.3594334, -0.34257558, 0.06353569, 0
822, 2777900678, 0.7554129, 0.001542151, -0.652762, 0.05705695, -0.3780525, -0.28302774, -0.065582275, 0
823, 2777917345, 0.75539464, 0.0015591606, -0.6527851, 0.057036594, -0.3852465, -0.18971215, 0.054857254, 0
824, 2777934012, 0.7553913, 0.0016050339, -0.65278846, 0.057039723, -0.3249847, -0.2656404, 0.28042698, 0
825, 2777950679, 0.75541925, 0.001666896, -0.65275353, 0.057067066, -0.31904238, -0.21305914, 0.46861935, 0
826, 2777967346, 0.7554718, 0.0016964152, -0.6526881, 0.057119638, -0.30164683, -0.049590595, 0.47271442, 0
827, 2777984013, 0.755546, 0.0016970336, -0.6525963, 0.057188496, -0.28037822, 0.0010037408, 0.1741457, 0
828, 2778000680, 0.75561166, 0.0016604215, -0.65251076, 0.05729711, -0.075765975, -0.06866268, -0.101202965, 0
829, 2778017347, 0.75563544, 0.0015964285, -0.652471, 0.05743581, 0.17449656, -0.1352126, -0.1793747, 0
830, 2778034014, 0.75561893, 0.0014887005, -0.6524742, 0.057618454, 0.15302368, -0.2032168, -0.27258492, 0
831, 2778050681, 0.75555664, 0.0013452917, -0.65252745, 0.05783719, -0.06428428, -0.1562207, -0.31287003, 0
832, 2778067348, 0.7554678, 0.0011862665, -0.65260893, 0.05808249, -0.11670639, -0.055488266, 0.03212166, 0
833, 2778084015, 0.7554026, 0.0010381863, -0.6526635, 0.058320343, -0.07966896, -0.06573427, 0.3617897, 0
834, 2778100682, 0.7553658, 8.750558E-4, -0.6526869, 0.058536455, 0.0285055, -0.11928244, 0.48515224, 0
835, 2778117349, 0.7553479, 7.080883E-4, -0.6526891, 0.05874446, 0.10051825, -0.14776994, 0.30347538, 0
836, 2778134016, 0.7553422, 5.200803E-4, -0.6526772, 0.058953524, 0.15413274, -0.09313612, 0.07682133, 0
837, 2778150683, 0.7553176, 3.443882E-4, -0.6526877, 0.05915205, 0.13514309, -0.05332885, -0.21030712, 0
838, 2778167350, 0.7552657, 1.8943101E-4, -0.652731, 0.059337303, 0.056004748, -0.09188942, -0.28531265, 0
839, 2778184017, 0.75518435, 3.800541E-5, -0.65280825, 0.059521258, 0.06896626, -0.12734695, -0.06894016, 0
840, 2778200684, 0.7551014, -1.3379753E-4, -0.65288824, 0.059697956, -0.019313307, -0.17113046, 0.17072773, 0
841, 2778217351, 0.7550533, -3.150776E-4, -0.6529275, 0.05987668, 0.0047532264, -0.1526783, 0.4306383, 0
842, 2778234018, 0.7550303, -4.9405545E-4, -0.65294045, 0.06002237, 0.10250393, -0.094079286, 0.35023308, 0
843, 2778250685, 0.75504327, -6.6940486E-4, -0.65291256, 0.060162395, 0.21357214, -0.028003486, 0.31794262, 0
844, 2778267352, 0.7550817, -8.2705915E-4, -0.65285695, 0.060279608, 0.15752254, -0.005316088, 0.23522091, 0
845, 2778284019, 0.7551361, -9.761527E-4, -0.6527844, 0.060383454, 0.06509815, -0.03979788, 0.1955738, 0
846, 2778300686, 0.7552042, -0.0011458993, -0.65269417, 0.060504183, 0.047706604, 0.027137825, 0.095682144, 0
847, 2778317353, 0.75528276, -0.0013338476, -0.6525897, 0.060644835, 0.21503511, 0.07588209, 0.01893711, 0
848, 2778334020, 0.75533974, -0.0015198216, -0.65250874, 0.060802653, 0.40002203, 0.033083383, -0.09905529, 0
849, 2778350687, 0.75537, -0.0017168373, -0.6524574, 0.060970724, 0.4322897, -0.06305613, -0.30577755, 0
850, 2778367354, 0.7553803, -0.0018728748, -0.652429, 0.06114295, 0.37333727, 0.013506664, -0.035312653, 0
851, 2778384021, 0.75538135, -0.0019952357, -0.6524136, 0.061289385, 0.25916237, 0.056049563, 0.25967216, 0
852, 2778400688, 0.7554087, -0.0021100119, -0.6523697, 0.061416313, 0.21972978, 0.024033677, 0.29171658, 0
853, 2778417355, 0.7554686, -0.0022292063, -0.6522905, 0.06151451, 0.26523432, 0.044537973, 0.21811676, 0
854, 2778434022, 0.75552726, -0.002343826, -0.65221095, 0.06163472, 0.28282616, 0.043379284, -0.110450745, 0
855, 2778450689, 0.75557345, -0.0024524182, -0.65214074, 0.061808065, 0.3370306, 0.19793722, -0.1902256, 0
856, 2778467356, 0.75560194, -0.0025808066, -0.65208787, 0.062011972, 0.43010107, 0.18655816, -0.1384964, 0
857, 2778484023, 0.7556299, -0.0027508289, -0.6520333, 0.06223543, 0.56084365, 0.11724171, 0.017403603, 0
858, 2778500690, 0.75566447, -0.0029181018, -0.6519733, 0.062438086, 0.5525464, 0.1268816, 0.05594158, 0
859, 2778517357, 0.7557013, -0.0029857233, -0.6519145, 0.06260401, 0.5056511, 0.16878955, 0.10371971, 0
860, 2778534024, 0.75575256, -0.0029977039, -0.6518387, 0.06277104, 0.40328667, 0.10383702, 0.05713463, 0
861, 2778550691, 0.75578886, -0.0030524433, -0.65177757, 0.0629679, 0.2948301, 0.070017055, -0.1064558, 0
862, 2778567358, 0.75579953, -0.003164485, -0.6517423, 0.06319861, 0.30468258, 0.13229787, -0.22491455, 0
863, 2778584025, 0.7558091, -0.003252007, -0.65170944, 0.06341688, 0.36890456, 0.14589669, 0.1315813, 0
864, 2778600692, 0.75582886, -0.0032666624, -0.65166783, 0.063608095, 0.32417917, -0.06468381, 0.2436943, 0
865, 2778617359, 0.755868, -0.0032282248, -0.65160644, 0.06377487, 0.123504765, -0.12874156, 0.10937309, 0
866, 2778634026, 0.75591344, -0.0031746551, -0.6515404, 0.06391202, -0.054888524, 0.03636947, 0.002049446, 0
867, 2778650693, 0.75596505, -0.0030922964, -0.6514653, 0.06407198, -0.17526366, 0.16395855, -0.018671036, 0
868, 2778667360, 0.75602233, -0.0030222386, -0.6513852, 0.06421414, 0.22277495, -0.23221144, 0.05798149, 0
869, 2778684027, 0.7560275, -0.0030360818, -0.6513654, 0.06435192, 0.5398504, -0.5212936, -0.17772293, 0
870, 2778700694, 0.75597703, -0.0030937195, -0.65140784, 0.06451255, 0.41413957, -0.16727598, -0.43384075, 0
871, 2778717361, 0.755887, -0.003046386, -0.65149724, 0.06466755, 0.18212953, 0.123296954, -0.14872074, 0
872, 2778734028, 0.755825, -0.002928421, -0.6515586, 0.06478059, 0.03319078, 0.07160662, 0.21358013, 0
873, 2778750695, 0.75578415, -0.0028311983, -0.65160155, 0.06482941, 0.027764332, -0.10642608, 0.3209381, 0
874, 2778767362, 0.7557752, -0.0027595386, -0.6516128, 0.064821124, 0.04432843, -0.2089255, 0.3960619, 0
875, 2778784029, 0.7557914, -0.0026328936, -0.6515995, 0.064771, 0.13333665, -0.18361148, 0.39595985, 0
876, 2778800696, 0.75581765, -0.0024286062, -0.6515783, 0.06468706, 0.16919886, -0.3433815, -0.008390427, 0
877, 2778817363, 0.75582635, -0.002240248, -0.6515805, 0.064569816, 0.2481423, -0.35973617, -0.121188164, 0
878, 2778834030, 0.7558162, -0.0020612776, -0.6516086, 0.064411744, 0.19822603, -0.0887637, -0.19074726, 0
879, 2778850697, 0.7557901, -0.0017813668, -0.6516618, 0.06418647, 0.015581088, -0.0018373324, -0.2508974, 0
880, 2778867364, 0.75574774, -0.0014038458, -0.6517386, 0.06391586, -0.042930238, -0.09669981, -0.108392715, 0
881, 2778884031, 0.75572205, -0.001011312, -0.6517988, 0.063612655, -0.11156515, -0.17718811, 0.34325314, 0
882, 2778900698, 0.75572616, -6.332919E-4, -0.65182674, 0.063280314, -0.15157263, -0.08397008, 0.55072594, 0
883, 2778917365, 0.7557569, -2.6205182E-4, -0.6518255, 0.06292814, -0.14282836, -0.09969879, 0.3665905, 0
884, 2778934032, 0.7557968, 8.109212E-5, -0.65180975, 0.06261048, 0.0716207, -0.21254277, 0.05691433, 0
885, 2778950699, 0.75580883, 3.4000725E-4, -0.65181977, 0.06236218, 0.21698637, -0.15142919, -0.1445713, 0
886, 2778967366, 0.7558156, 5.4468215E-4, -0.65182877, 0.062181965, 0.16492127, 0.040854145, -0.010100365, 0
887, 2778984033, 0.7558078, 7.2508305E-4, -0.65184987, 0.06205371, 0.0070683737, 0.18435477, 0.26017666, 0
888, 2779000700, 0.75582534, 8.838102E-4, -0.6518372, 0.06197259, -0.10254238, 0.042272054, 0.47152328, 0
889, 2779017367, 0.75586665, 9.968653E-4, -0.65179527, 0.061906382, -0.16144028, -0.1575269, 0.4544201, 0
890, 2779034034, 0.75591105, 0.0010905042, -0.65174955, 0.061845616, -0.23638417, -0.2456561, -0.1519556, 0
891, 2779050701, 0.75591356, 0.0012091696, -0.6517534, 0.061771616, -0.11040735, -0.30329305, -0.51433563, 0
892, 2779067368, 0.7558547, 0.0013663545, -0.6518307, 0.06167254, -0.008251651, -0.30385184, -0.27747536, 0
893, 2779084035, 0.75574064, 0.0015535951, -0.6519724, 0.06156759, -0.33981004, -0.33409107, -0.0342474, 0
894, 2779100702, 0.7556217, 0.001764141, -0.6521213, 0.06144479, -0.5563926, -0.41857147, 0.2640257, 0
895, 2779117369, 0.7555329, 0.002045408, -0.65224254, 0.06124094, -0.44758022, -0.3819475, 0.51828575, 0
896, 2779134036, 0.75543946, 0.0023421943, -0.65237373, 0.06098433, 0.08689871, -0.53030974, 0.1555891, 0
897, 2779150703, 0.7553105, 0.0025434867, -0.6525457, 0.06073363, 0.16821988, -0.4880678, -0.07059193, 0
898, 2779167370, 0.75517386, 0.0026269704, -0.6527244, 0.06050898, -0.071534425, -0.08642765, 0.23107147, 0
899, 2779184037, 0.7550734, 0.0026280805, -0.65285206, 0.060383663, -0.3108073, 0.07857179, 0.62267494, 0
900, 2779200704, 0.75507027, 0.0025534555, -0.65285873, 0.06035626, -0.27546495, 0.13260621, 0.70928574, 0
901, 2779217371, 0.75513667, 0.0024021193, -0.6527818, 0.06036347, 0.054964963, 0.16562606, 0.29505348, 0
902, 2779234038, 0.75524306, 0.0022748634, -0.6526658, 0.06029263, 0.5260771, 0.31621438, 0.23299217, 0
903, 2779250705, 0.75539106, 0.0022706166, -0.6525098, 0.060126185, 0.9919098, 0.1870642, -0.00893116, 0
904, 2779267372, 0.7555289, 0.00237865, -0.65236884, 0.05991909, 1.8034865, 0.3306789, -0.38452625, 0
905, 2779284039, 0.75564736, 0.0026033744, -0.65225005, 0.059707806, 2.0626514, 0.9222444, -0.2329855, 0
906, 2779300706, 0.75578016, 0.0029453412, -0.65211874, 0.05944708, 2.1965725, 1.3459079, -0.016471863, 0
907, 2779317373, 0.75593084, 0.0033464432, -0.65196997, 0.05913949, 2.2114275, 1.0868263, -0.076854706, 0
908, 2779334040, 0.7561109, 0.0037428439, -0.65178585, 0.05884376, 2.3171155, 0.88661426, -0.5085974, 0
909, 2779350707, 0.7562896, 0.004156977, -0.6516019, 0.058556512, 2.6602175, 0.8664275, -0.65878105, 0
910, 2779367374, 0.7563967, 0.0046552643, -0.65150046, 0.05826275, 3.0296197, 0.8026726, -0.9789629, 0
911, 2779384041, 0.7563713, 0.0051980913, -0.6515542, 0.057943836, 3.297669, 0.9526871, -0.9632349, 0
912, 2779400708, 0.75628895, 0.0057575256, -0.6516763, 0.057592347, 2.6503284, 1.1271809, -0.69827175, 0
913, 2779417375, 0.756256, 0.0062867254, -0.65173984, 0.057248905, 2.4319413, 1.277444, -0.41543484, 0
914, 2779434042, 0.75626045, 0.006694801, -0.6517535, 0.056988046, 2.4478028, 1.1789476, -0.22451782, 0
915, 2779450709, 0.75625294, 0.007010326, -0.6517685, 0.056879744, 2.3496823, 1.4940712, 0.009479523, 0
916, 2779467376, 0.7563206, 0.007282205, -0.6516912, 0.056831717, 2.3911316, 1.3186219, -0.30249882, 0
917, 2779484043, 0.75640666, 0.0075281933, -0.65159214, 0.056790084, 2.933242, 1.0708491, -0.20078373, 0
918, 2779500710, 0.7563958, 0.0077953413, -0.6516054, 0.056744725, 2.8169813, 0.9624647, -0.60405254, 0
919, 2779517377, 0.7564197, 0.008169472, -0.6515828, 0.05663131, 2.3421593, 0.8953889, -0.21145344, 0
920, 2779534044, 0.75648206, 0.0086383745, -0.6515142, 0.056520596, 2.486516, 1.0270231, 0.012580872, 0
921, 2779550711, 0.7565982, 0.009124182, -0.65138555, 0.056371942, 2.3475893, 0.96056044, -0.1745758, 0
922, 2779567378, 0.75670093, 0.0095878765, -0.6512728, 0.056217268, 2.873098, 1.2090749, -0.78193283, 0
923, 2779584045, 0.7567087, 0.01014255, -0.6512745, 0.055996224, 3.29879, 1.3423051, -0.8121376, 0
924, 2779600712, 0.7566606, 0.010863267, -0.6513398, 0.05575283, 2.9949813, 1.2247639, -0.35080338, 0
925, 2779617379, 0.7566559, 0.01162903, -0.6513569, 0.055459216, 3.1423206, 1.1874962, 0.12919426, 0
926, 2779634046, 0.75663257, 0.012336291, -0.65139914, 0.055126384, 3.2627323, 1.1633275, -0.779933, 0
927, 2779650713, 0.7565974, 0.013072707, -0.65145963, 0.05472544, 3.1927075, 1.3886089, -0.47562408, 0
928, 2779667380, 0.75656706, 0.013950989, -0.6515145, 0.054272756, 3.596236, 1.4649923, -1.1260777, 0
929, 2779684047, 0.75644374, 0.014947154, -0.65167904, 0.053749025, 3.9592786, 1.326075, -1.5992794, 0
930, 2779700714, 0.75626516, 0.01586917, -0.6519156, 0.05312316, 4.0797024, 1.2805362, -0.24729252, 0
931, 2779717381, 0.7561837, 0.016716935, -0.6520427, 0.052459583, 3.4759486, 1.0454664, -0.30844593, 0
932, 2779734048, 0.7562086, 0.017630652, -0.65204656, 0.051748022, 2.6507635, 1.2720577, 1.3066711, 0
933, 2779750715, 0.7563013, 0.01863332, -0.6519724, 0.050970733, 2.1695004, 0.8729623, -0.169281, 0
934, 2779767382, 0.7562842, 0.019634694, -0.65202415, 0.050182164, 2.2214384, 0.44817314, -2.1692877, 0
935, 2779784049, 0.75629514, 0.020558834, -0.6520495, 0.049311206, 1.4226797, 0.51188475, -1.1679277, 0
936, 2779800716, 0.756191, 0.021298438, -0.6522102, 0.048460573, 2.505482, 0.5214809, -0.78210735, 0
937, 2779817383, 0.7558944, 0.021807134, -0.65258914, 0.04775384, 1.5982497, -0.122087695, -0.9032936, 0
938, 2779834050, 0.75560814, 0.022052467, -0.6529487, 0.04725431, 0.9668594, -0.34678444, -1.5017138, 0
939, 2779850717, 0.7552488, 0.021929435, -0.6533858, 0.047011927, 0.5786728, -0.40029013, -0.29655838, 0
940, 2779867384, 0.7547379, 0.021569587, -0.6539858, 0.047040477, 0.22141506, 0.5630864, -0.08352375, 0
941, 2779884051, 0.7540914, 0.021236204, -0.65472573, 0.047267884, -0.6940815, 1.1802508, 0.57064533, 0
942, 2779900718, 0.75364095, 0.020991534, -0.6552344, 0.047512785, -0.90068257, 1.1610953, 2.5720215, 0
943, 2779917385, 0.753424, 0.020635441, -0.6554713, 0.047841832, -0.7418426, -0.12459607, 2.4382973, 0
944, 2779934052, 0.7532672, 0.019981302, -0.6556314, 0.048392326, -0.18466552, -0.8142421, 0.6968813, 0
945, 2779950719, 0.75321597, 0.01940526, -0.6556495, 0.04917124, -1.0830101, 0.293055, 0.1572237, 0
946, 2779967386, 0.75323784, 0.019384727, -0.6555575, 0.050062552, -0.9165681, 1.1626526, 0.2566929, 0
947, 2779984053, 0.7532365, 0.019563459, -0.65548784, 0.050919518, -1.160507, 0.3600254, 0.70699024, 0
948, 2780000720, 0.7532946, 0.01956892, -0.655354, 0.05177267, -1.7701908, -0.27265003, 0.8460455, 0
949, 2780017387, 0.7533973, 0.019716151, -0.65515435, 0.0527409, -2.434203, 0.3849254, 0.6480179, 0
950, 2780034054, 0.7535897, 0.020210624, -0.65482366, 0.053898245, -2.540689, 0.21502885, 1.3498774, 0
951, 2780050721, 0.753798, 0.020780474, -0.6544507, 0.055281118, -1.879654, 0.23170124, 0.42908955, 0
952, 2780067388, 0.75394565, 0.021211095, -0.6541441, 0.056713894, -1.8017062, 0.11459621, 0.08802223, 0
953, 2780084055, 0.7541355, 0.021522082, -0.65378183, 0.058231443, -1.258281, 0.30833533, 0.044898033, 0
954, 2780100722, 0.7542052, 0.022054002, -0.65352523, 0.05998236, -1.1431769, 0.6822578, -0.58262825, 0
955, 2780117389, 0.7542945, 0.022740409, -0.6532039, 0.062066555, -1.5092106, -0.08911172, 0.46184158, 0
956, 2780134056, 0.7543824, 0.023142286, -0.6528735, 0.06428732, -0.6186651, 0.37016773, 0.67078495, 0
957, 2780150723, 0.7544203, 0.023551598, -0.65260625, 0.06637362, -0.32561457, 0.8245279, 0.27538395, 0
958, 2780167390, 0.75440735, 0.024375759, -0.6523965, 0.068257555, 0.7299209, 1.3351732, -0.59184074, 0
959, 2780184057, 0.75428146, 0.02572722, -0.6523061, 0.06999579, 1.2959375, 0.7246356, -0.965785, 0
960, 2780200724, 0.7541652, 0.027229927, -0.65219337, 0.07171032, 1.7941327, 0.7069489, -0.73494816, 0
961, 2780217391, 0.75397253, 0.028818153, -0.6521773, 0.073243365, 1.8166203, 1.2810034, 0.009921074, 0
962, 2780234058, 0.7537056, 0.030653298, -0.65225166, 0.074572235, 1.6234044, 1.3200078, -1.234438, 0
963, 2780250725, 0.7534242, 0.032835186, -0.6523402, 0.07570489, 2.117673, 1.5434351, -0.5808687, 0
964, 2780267392, 0.75302184, 0.035416096, -0.65254045, 0.07681069, 2.4673586, 1.5527353, -1.2771397, 0
965, 2780284059, 0.7526007, 0.038042173, -0.6527501, 0.07789275, 2.286212, 1.0937239, -0.14182663, 0
966, 2780300726, 0.75226116, 0.040348165, -0.6528736, 0.07897009, 1.622911, 0.9433922, 0.43545341, 0
967, 2780317393, 0.7519015, 0.042629622, -0.65300596, 0.08009426, 1.7543802, 1.7064692, 1.3406105, 0
968, 2780334060, 0.75153524, 0.045116507, -0.65312314, 0.08120589, 1.313734, 1.798169, -0.4570589, 0
969, 2780350727, 0.7512832, 0.04765471, -0.6531017, 0.082253575, 1.8612891, 1.1047242, -0.4206562, 0
970, 2780367394, 0.75094956, 0.049970336, -0.65317965, 0.0833005, 2.6358695, 1.4727618, -0.20962906, 0
971, 2780384061, 0.7505616, 0.05194121, -0.6533383, 0.08434139, 2.4449646, 0.697866, -0.23580551, 0
972, 2780400728, 0.7502916, 0.053672478, -0.6533599, 0.08548485, 1.8855821, 0.3154323, 1.2674484, 0
973, 2780417395, 0.750159, 0.055186994, -0.6532354, 0.08662732, 1.6085137, -0.43835825, 1.6161222, 0
974, 2780434062, 0.7502884, 0.05645749, -0.6528385, 0.087673895, 1.5265541, -0.7698716, 1.1548986, 0
975, 2780450729, 0.75035536, 0.05775208, -0.65255094, 0.0883956, 2.4476588, 1.0673387, -2.0516653, 0
976, 2780467396, 0.75016934, 0.059312023, -0.65259516, 0.08861571, 3.2167873, 2.0551438, -2.5545115, 0
977, 2780484063, 0.75006026, 0.060996957, -0.6525679, 0.08859406, 3.2415607, 1.3315073, -0.45461655, 0
978, 2780500730, 0.75015205, 0.062462807, -0.65233094, 0.08854253, 1.7817523, -0.6701601, 1.980876, 0
979, 2780517397, 0.7505286, 0.06367178, -0.65177786, 0.088562556, 0.5154441, -1.519115, 3.3982935, 0
980, 2780534064, 0.7511303, 0.06472092, -0.65097475, 0.08860734, 0.39047873, -1.8345639, 0.32464504, 0
981, 2780550731, 0.75155044, 0.06576026, -0.6504031, 0.08847867, 0.845794, -0.97161573, -4.9011393, 0
982, 2780567398, 0.75158733, 0.067032464, -0.6502994, 0.08797003, 1.6613642, 0.864789, -2.6558867, 0
983, 2780584065, 0.75150585, 0.06863771, -0.6503409, 0.08711961, 1.1682283, 0.6276807, -1.3191195, 0
984, 2780600732, 0.75153995, 0.070499755, -0.65024316, 0.08605921, 0.7411095, 0.33461824, 1.0588284, 0
985, 2780617399, 0.7514481, 0.072364144, -0.65031004, 0.0847996, 0.17120154, -0.66961354, 0.66307926, 0
986, 2780634066, 0.751584, 0.07404387, -0.6501338, 0.08348657, 0.14079483, -1.4743496, 0.37064838, 0
987, 2780650733, 0.7515822, 0.07567357, -0.65012276, 0.08211574, 1.0134399, -0.20519641, -0.09220886, 0
988, 2780667400, 0.75152457, 0.077424034, -0.6501738, 0.080594674, 0.74780864, -0.026269924, -1.0201683, 0
989, 2780684067, 0.75155026, 0.07915433, -0.6501327, 0.07898852, 2.27136, 0.0072033755, -0.92405987, 0
990, 2780700734, 0.75133324, 0.0807587, -0.6503878, 0.07731122, 2.2313626, -0.2424777, -2.0248284, 0
991, 2780717401, 0.7512044, 0.08215819, -0.65055645, 0.07565217, 1.1467239, -0.93864983, -1.2642851, 0
992, 2780734068, 0.75105286, 0.08333765, -0.650776, 0.07396014, 1.6212523, 0.19031276, 0.8373718, 0
993, 2780750735, 0.7507341, 0.084247336, -0.6512229, 0.07221028, 0.22004001, -0.97141176, -1.2138186, 0
994, 2780767402, 0.7507182, 0.0848267, -0.65136296, 0.07041319, -0.07145084, -0.6059128, 0.7916317, 0
995, 2780784069, 0.750664, 0.08541875, -0.6515485, 0.068533376, 1.0577568, -0.0093832975, 0.006246567, 0
996, 2780800736, 0.75047934, 0.08610531, -0.6518662, 0.0666502, 1.3180099, -0.41769263, -0.12599277, 0
997, 2780817403, 0.7502538, 0.086649634, -0.65223545, 0.064845905, 1.8735461, -0.34902114, -0.47722816, 0
998, 2780834070, 0.75000507, 0.0869158, -0.65264595, 0.06321707, 0.56297415, -0.23400477, 0.8206825, 0
999, 2780850737, 0.7499595, 0.086957164, -0.6528185, 0.061903805, -0.7534005, -0.08836819, 3.0424356, 0
1000, 2780867404, 0.75015855, 0.08695199, -0.6526802, 0.060950935, -0.85687536, -0.39149815, 3.26406, 0
1001, 2780884071, 0.7505023, 0.08662425, -0.6523875, 0.06031646, -0.8095836, -0.88515264, 0.57176495, 0
1002, 2780900738, 0.75091356, 0.08597461, -0.6520455, 0.059822246, -0.42923382, -0.49573386, -0.8013334, 0
1003, 2780917405, 0.75122577, 0.0853628, -0.6518023, 0.059427768, -0.4710817, 0.050604787, -0.5531702, 0
1004, 2780934072, 0.75133437, 0.084899835, -0.6517617, 0.05916308, -0.5613975, -0.33568326, 0.25855446, 0
1005, 2780950739, 0.7513679, 0.08425447, -0.6518186, 0.05903408, -0.8200766, -1.1288179, 0.7866764, 0
1006, 2780967406, 0.75149775, 0.08333646, -0.65179217, 0.058974594, -1.3355534, -1.105623, 0.48913097, 0
1007, 2780984073, 0.7516669, 0.08253342, -0.6517146, 0.058805466, -0.6286807, -0.9570676, 0.634799, 0
1008, 2781000740, 0.7517325, 0.08201474, -0.65173525, 0.058462813, 0.10727773, -1.4095345, 0.02991867, 0
1009, 2781017407, 0.7516798, 0.0816296, -0.6518939, 0.057909966, 0.5072837, -1.9219986, -0.17109299, 0
1010, 2781034074, 0.75155514, 0.081241675, -0.6521635, 0.05703029, 0.85822135, -1.2412918, -0.14924526, 0
1011, 2781050741, 0.75147414, 0.08109672, -0.65237826, 0.055835262, -0.2857971, -1.0148463, -1.2916813, 0
1012, 2781067408, 0.75145435, 0.08137099, -0.652486, 0.05442232, -0.7504541, -1.1491137, -0.28401756, 0
1013, 2781084075, 0.75138223, 0.081834145, -0.6526466, 0.052776337, -0.6003227, -1.2092444, 1.7421227, 0
1014, 2781100742, 0.751305, 0.0821314, -0.65283775, 0.05102235, -0.46733743, -1.2214538, 0.8743439, 0
1015, 2781117409, 0.7513006, 0.08208449, -0.6529814, 0.049294308, -0.43308407, -1.5124177, -1.0240755, 0
1016, 2781134076, 0.7514013, 0.08161379, -0.6530329, 0.047834083, -0.4158959, -1.7820319, -0.76941395, 0
1017, 2781150743, 0.75146306, 0.08055102, -0.65317416, 0.046728402, 0.051370475, -1.3034663, -0.3307085, 0
1018, 2781167410, 0.75147617, 0.07894301, -0.6534204, 0.045807824, -0.83246416, -0.6738844, 0.98912525, 0
1019, 2781184077, 0.7516543, 0.07702766, -0.6535088, 0.04487498, -1.1315768, -0.71165687, 0.49276733, 0
1020, 2781200744, 0.75193137, 0.075010814, -0.6534814, 0.044039622, -0.62911564, -1.9480462, 0.71584225, 0
1021, 2781217411, 0.752157, 0.072761826, -0.65351045, 0.043526992, -0.6025364, -2.0070596, 0.52868843, 0
1022, 2781234078, 0.7524508, 0.070081316, -0.6534862, 0.04321076, -0.9428872, -1.4097162, 0.8891363, 0
1023, 2781250745, 0.7527273, 0.06712375, -0.6534837, 0.04312712, -0.26835188, -0.837258, 0.15632915, 0
1024, 2781267412, 0.75291646, 0.06414225, -0.65356094, 0.043193042, -0.33073345, -0.31872588, -0.34637356, 0
1025, 2781284079, 0.75307876, 0.061337397, -0.65363735, 0.0432826, 0.4444622, -0.0211669, 0.6223974, 0
1026, 2781300746, 0.75318885, 0.058553204, -0.6537615, 0.04334846, 0.5418294, 0.24880691, -0.18367863, 0
1027, 2781317413, 0.75331694, 0.055890866, -0.65385073, 0.04328969, 0.057702105, 0.3617955, -0.8225689, 0
1028, 2781334080, 0.7534344, 0.05369068, -0.6539062, 0.043192625, 1.089534, 0.7361557, 0.1369257, 0
1029, 2781350747, 0.75349295, 0.051836066, -0.6539875, 0.0432045, 1.4499654, 0.46962997, -0.9189558, 0
1030, 2781367414, 0.7535022, 0.049932137, -0.65410733, 0.043474212, 1.2463404, 0.88494956, -0.8320093, 0
1031, 2781384081, 0.75348103, 0.04805357, -0.6542428, 0.043913767, 1.1859522, 2.3602772, 1.0537996, 0
1032, 2781400748, 0.75341344, 0.046378434, -0.65440756, 0.044418663, 2.2417557, 2.671064, -1.2132139, 0
1033, 2781417415, 0.7532215, 0.04484269, -0.6546936, 0.045030326, 1.553576, 1.5302466, -2.0135655, 0
1034, 2781434082, 0.7530549, 0.04338509, -0.6549285, 0.045822248, 1.5596689, 1.6880398, 0.45096588, 0
1035, 2781450749, 0.7528338, 0.041722625, -0.6552087, 0.046980917, 2.3931272, 1.4940829, 0.64201355, 0
1036, 2781467416, 0.7525573, 0.039754085, -0.65551645, 0.048789605, 2.3237238, 1.5052924, -0.71162605, 0
1037, 2781484083, 0.7522293, 0.0376259, -0.6558443, 0.051077038, 1.660083, 2.0105598, -0.8008404, 0
1038, 2781500750, 0.7519276, 0.035646655, -0.6561133, 0.05342701, 1.4016024, 2.385673, 0.81086445, 0
1039, 2781517417, 0.751655, 0.034117922, -0.65632415, 0.055626914, 1.6062548, 2.2196035, 0.301239, 0
1040, 2781534084, 0.75146765, 0.03292767, -0.65643317, 0.05755411, 1.9149173, 0.9281212, 0.79697037, 0
1041, 2781550751, 0.75149554, 0.031939626, -0.65629274, 0.059321538, 2.4717493, 0.63131976, 0.5555906, 0
1042, 2781567418, 0.7517259, 0.031415574, -0.6559062, 0.06093687, 1.7026592, 0.8066174, 0.39827538, 0
1043, 2781584085, 0.75207657, 0.031576328, -0.6553637, 0.062346846, 1.4886786, 0.503604, 0.91382027, 0
1044, 2781600752, 0.75248975, 0.032128952, -0.6547404, 0.06361531, 2.372231, 0.48953736, -1.2530365, 0
1045, 2781617419, 0.75267005, 0.032844618, -0.6544016, 0.06459631, 3.4524503, 1.8290205, -1.7861423, 0
1046, 2781634086, 0.75271606, 0.03398806, -0.65422535, 0.065249786, 2.663639, 3.07968, -0.85566807, 0
1047, 2781650753, 0.7528204, 0.03596443, -0.65396756, 0.06556919, 1.7574542, 2.8451421, 1.4880781, 0
1048, 2781667420, 0.7530005, 0.03835778, -0.6536118, 0.06569332, 1.2042619, 0.80740803, 0.9181595, 0
1049, 2781684087, 0.7532545, 0.04051318, -0.6531806, 0.06577639, 1.0144064, -0.46385437, -0.13882923, 0
1050, 2781700754, 0.75336397, 0.042404987, -0.65292186, 0.0658969, 1.8074789, 0.29368076, -2.7829728, 0
1051, 2781717421, 0.7530612, 0.04466997, -0.65311, 0.06599696, 1.8405957, 2.2995777, -3.06249, 0
1052, 2781734088, 0.752718, 0.047484763, -0.6533303, 0.065766245, 0.90272033, 1.799084, -1.6148815, 0
1053, 2781750755, 0.75233227, 0.050367534, -0.6536145, 0.06520948, 0.65535384, -0.0037324429, 1.5404463, 0
1054, 2781767422, 0.7522885, 0.052939653, -0.65353584, 0.06446087, -0.52901226, -1.5854454, 2.8388157, 0
1055, 2781784089, 0.7525071, 0.055288844, -0.65316117, 0.063731596, -1.3310912, -2.3819997, 1.6006021, 0
1056, 2781800756, 0.7526845, 0.057431214, -0.65283644, 0.063064754, -0.15057375, -1.8972173, -3.6330152, 0
1057, 2781817423, 0.75259054, 0.059288807, -0.6528666, 0.062147215, 1.6666613, -1.0496682, -2.2904272, 0
1058, 2781834090, 0.7524013, 0.061013788, -0.6530455, 0.060879603, 1.819952, -0.692812, 0.029670715, 0
1059, 2781850757, 0.7519872, 0.06304765, -0.653505, 0.058960557, 1.0806271, -0.30160666, -0.5464573, 0
1060, 2781867424, 0.7516796, 0.06522756, -0.6538565, 0.05656773, 0.87109125, -2.709615, -0.15644073, 0
1061, 2781884091, 0.7516053, 0.06700255, -0.6539784, 0.05401419, 0.35481474, -2.6944344, -0.28123665, 0
1062, 2781900758, 0.7515031, 0.06823781, -0.6541824, 0.051353127, 0.58357537, -1.1529617, 2.4593525, 0
1063, 2781917425, 0.75141656, 0.06925533, -0.6543733, 0.04875885, 0.3076629, -0.117135875, -1.4596872, 0
1064, 2781934092, 0.75134945, 0.07017637, -0.65452, 0.04645452, 0.24691431, -0.9852382, 0.06855965, 0
1065, 2781950759, 0.75131226, 0.07084791, -0.65464187, 0.044264376, 0.51486033, 0.37297416, 0.12311268, 0
1066, 2781967426, 0.7513243, 0.07150582, -0.65469766, 0.042125657, -0.6168184, -0.2693512, 1.2816381, 0
1067, 2781984093, 0.7514327, 0.0722263, -0.65461546, 0.040195197, -0.22141607, -1.0277768, 2.4359207, 0
1068, 2782000760, 0.7514659, 0.07252023, -0.65463567, 0.038686827, -1.0311024, -1.8663023, 1.2593727, 0
1069, 2782017427, 0.7517251, 0.07206358, -0.654444, 0.037740126, -1.0520477, -1.9048413, 0.40288162, 0
1070, 2782034094, 0.7519962, 0.07098011, -0.6542871, 0.037107214, -1.4823687, -0.563581, 0.86922264, 0
1071, 2782050761, 0.752256, 0.06971676, -0.65416676, 0.036347985, -1.6433585, -0.6010991, 0.31644917, 0
1072, 2782067428, 0.7525081, 0.0684732, -0.65405107, 0.035569474, -1.2381116, -1.481624, 1.0701246, 0
1073, 2782084095, 0.75278366, 0.06732453, -0.6538957, 0.034779564, -1.1943603, -1.8210653, -0.021309853, 0
1074, 2782100762, 0.75307155, 0.06636813, -0.6537006, 0.034042224, -1.2179083, -1.7876799, 0.439826, 0
1075, 2782117429, 0.75334215, 0.06551216, -0.65351003, 0.033364743, -1.1443586, -0.9277828, -0.49468136, 0
1076, 2782134096, 0.7535353, 0.06465441, -0.6534071, 0.032688513, -0.998798, -0.22518617, 0.042351723, 0
1077, 2782150763, 0.7536259, 0.06375629, -0.6534251, 0.03199856, -0.35183576, -0.45679942, -0.4688654, 0
1078, 2782167430, 0.7536191, 0.06275242, -0.6535617, 0.0313396, -0.12862769, -1.0849673, -0.80023956, 0
1079, 2782184097, 0.75361776, 0.06168037, -0.6536955, 0.030705884, -0.14720842, -1.2015435, -0.13356018, 0
1080, 2782200764, 0.75363934, 0.06078446, -0.6537831, 0.030093074, -0.70654815, -0.22256805, -0.06000328, 0
1081, 2782217431, 0.7536526, 0.060161456, -0.65385664, 0.029410034, -1.3403956, -0.15844107, 1.1212759, 0
1082, 2782234098, 0.7536576, 0.05954109, -0.65393895, 0.02870591, -0.25167692, 0.29650894, 0.19377518, 0
1083, 2782250765, 0.75362957, 0.058941573, -0.6540514, 0.02810736, -0.38722682, -0.3083246, -0.20510769, 0
1084, 2782267432, 0.75367934, 0.058336943, -0.6540665, 0.027684718, -0.8543948, -0.41035655, -0.7496052, 0
1085, 2782284099, 0.7536918, 0.057619132, -0.6541224, 0.027522862, -0.17444739, -0.33501944, 0.90040684, 0
1086, 2782300766, 0.75368166, 0.056686535, -0.6542132, 0.02757828, -0.030149663, -0.04617979, 0.87130356, 0
1087, 2782317433, 0.75364476, 0.055494398, -0.6543503, 0.027759135, -0.50872934, -0.111131534, 0.022274971, 0
1088, 2782334100, 0.7536283, 0.054321595, -0.654459, 0.02796647, -0.7194319, -0.121471696, 0.26636696, 0
1089, 2782350767, 0.75366956, 0.053396516, -0.654475, 0.028257847, -0.23588887, -0.12409372, -0.5379753, 0
1090, 2782367434, 0.7538307, 0.05249843, -0.6543458, 0.028631493, -0.7554148, -0.31899065, -0.22768974, 0
1091, 2782384101, 0.75413257, 0.0516264, -0.65405303, 0.028959438, -0.1517805, 0.5174355, -1.1912575, 0
1092, 2782400768, 0.7543403, 0.050969064, -0.6538489, 0.029314473, -0.22807816, 0.03404356, 0.30938053, 0
1093, 2782417435, 0.7545408, 0.05044218, -0.6536398, 0.029729366, 0.7338051, 0.63591826, 0.52390003, 0
1094, 2782434102, 0.7545999, 0.049829282, -0.6536018, 0.03009452, 0.6190871, 0.051234085, 0.022475243, 0
1095, 2782450769, 0.7546835, 0.049269177, -0.65353143, 0.030449137, 0.9391375, 0.015559519, 0.4237566, 0
1096, 2782467436, 0.75468916, 0.049000815, -0.65353024, 0.030761972, 1.0168767, 0.34453428, -0.02720642, 0
1097, 2782484103, 0.75470763, 0.049165316, -0.6534868, 0.030967683, 0.3978924, 0.117187396, -0.26074982, 0
1098, 2782500770, 0.7547358, 0.049500167, -0.6534302, 0.03094311, 0.7673012, 0.63728404, 0.28042698, 0
1099, 2782517437, 0.7548265, 0.049841017, -0.65331167, 0.030689254, 0.31920063, 0.5819211, -0.78576946, 0
1100, 2782534104, 0.75492483, 0.05023326, -0.6531775, 0.030484974, 0.8700094, 0.32349098, 0.37680054, 0
1101, 2782550771, 0.75495386, 0.050827034, -0.65310097, 0.030415863, 1.3423477, 0.48153138, 0.6035099, 0
1102, 2782567438, 0.75491714, 0.051408507, -0.65309525, 0.03048025, 1.5817283, 0.016625453, -0.93395615, 0
1103, 2782584105, 0.7549657, 0.051605485, -0.6530201, 0.030550778, 0.8286345, -0.23022114, -1.000926, 0
1104, 2782600772, 0.7552476, 0.051733807, -0.65268165, 0.030603647, -0.16618487, 0.40878972, -0.6530895, 0
1105, 2782617439, 0.75564736, 0.052200377, -0.65217924, 0.03064911, -0.34670168, 0.595388, 0.606287, 0
1106, 2782634106, 0.75584257, 0.052545533, -0.65192205, 0.030718148, 1.041692, 0.08467587, 1.2596359, 0
1107, 2782650773, 0.756165, 0.052409314, -0.6515496, 0.030917436, 0.7704496, -0.22926126, -0.3361597, 0
1108, 2782667440, 0.756001, 0.05211799, -0.6517531, 0.031131238, 1.9037868, 1.5619966, 2.7162924, 0
1109, 2782684107, 0.75555193, 0.05230228, -0.6522498, 0.03131844, 1.8927122, 1.6701409, 0.77668667, 0
1110, 2782700774, 0.7550835, 0.052631974, -0.652752, 0.03159815, 1.649178, -0.9665287, -0.66759396, 0
1111, 2782717441, 0.75471777, 0.052334532, -0.65317625, 0.032061443, 0.08354333, -1.0217518, 0.23322773, 0
1112, 2782734108, 0.7545517, 0.051949732, -0.6533748, 0.03254649, -0.41488877, 0.8925405, -0.16059208, 0
1113, 2782750775, 0.75459534, 0.05201444, -0.6532956, 0.03301789, -0.48302445, 0.381699, -0.7281532, 0
1114, 2782767442, 0.7547247, 0.051998556, -0.65313095, 0.033341542, 1.0439401, -0.05335042, -0.39593983, 0
1115, 2782784109, 0.7547788, 0.05189181, -0.6530679, 0.0335207, 1.262715, 0.54645216, -0.40468693, 0
1116, 2782800776, 0.75462824, 0.05182066, -0.6532484, 0.033499613, 1.5859702, 0.38348168, -1.4390564, 0
1117, 2782817443, 0.7542702, 0.051956594, -0.65365624, 0.03339781, 1.160465, -0.30648947, -0.7491493, 0
1118, 2782834110, 0.7540284, 0.052246377, -0.6539136, 0.03336878, 0.53565776, -0.52856624, 0.6291647, 0
1119, 2782850777, 0.7538682, 0.052499674, -0.6540824, 0.033277214, -0.0022726797, -0.3075374, 0.82010937, 0
1120, 2782867444, 0.75380814, 0.05268997, -0.654147, 0.033070236, -0.22816291, 0.2185333, 0.4106903, 0
1121, 2782884111, 0.7537543, 0.053084776, -0.6541908, 0.032798737, 1.0802647, 0.36964417, -1.0849552, 0
1122, 2782900778, 0.75357914, 0.05347707, -0.6543705, 0.03260228, 0.8848592, -0.045575075, -0.8740711, 0
1123, 2782917445, 0.7534664, 0.053670585, -0.65449226, 0.032445163, 1.022802, 1.0974913, 0.34649086, 0
1124, 2782934112, 0.75326914, 0.053638957, -0.6547255, 0.032372236, 0.8544221, 0.8241752, 0.08441448, 0
1125, 2782950779, 0.7531473, 0.053390652, -0.6548804, 0.0324838, 0.71348155, 0.30411184, 0.4577818, 0
1126, 2782967446, 0.75298077, 0.052961662, -0.65508544, 0.032911256, 0.95971996, -0.39301684, -0.5451317, 0
1127, 2782984113, 0.7528311, 0.052025557, -0.6552977, 0.033594117, 1.0201641, -0.74663633, -0.61748695, 0
1128, 2783000780, 0.7525799, 0.050938018, -0.65563047, 0.0343858, 1.8045366, 1.0206164, -0.47287083, 0
