sep=,
DeviceTag:,Xsens_DOT_3,,,,,,,,,,,,,,,,,
FirmwareVersion:,3.0.0,,,,,,,,,,,,,,,,,
AppVersion:,2023.6.1,,,,,,,,,,,,,,,,,
SyncStatus:,Synced,,,,,,,,,,,,,,,,,
OutputRate:,60Hz,,,,,,,,,,,,,,,,,
FilterProfile:,General,,,,,,,,,,,,,,,,,
Measurement Mode:,Sensor fusion Mode - Extended (Quaternion),,,,,,,,,,,,,,,,,
StartTime:,2025-05-05 11:52:51.219 +0200,,,,,,,,,,,,,,,,,
 2025,,,,,,,,,,,,,,,,,,,

PacketCounter,SampleTimeFine,Quat_W,Quat_X,Quat_Y,Quat_Z,FreeAcc_X,FreeAcc_Y,FreeAcc_Z,Status
1, 2764267072, -0.36427036, 0.5328518, 0.17350468, 0.74382836, 0.028679129, 0.09659112, 0.060297012, 0
2, 2764283739, -0.36417955, 0.5329142, 0.17331555, 0.7438723, 0.065322556, 0.04496142, 0.009419441, 0
3, 2764300406, -0.36410654, 0.5329369, 0.17311452, 0.7439386, 0.072757795, 0.024580838, -0.043715477, 0
4, 2764317073, -0.36383274, 0.53296304, 0.17285961, 0.7441131, 0.029507846, 0.073518775, -0.0873003, 0
5, 2764333740, -0.36369175, 0.532918, 0.17282107, 0.74422324, 0.025365802, 0.15720773, -0.08038044, 0
6, 2764350407, -0.36364368, 0.53295064, 0.17297713, 0.7441871, 0.05231768, 0.16123162, -0.079377174, 0
7, 2764367074, -0.3632685, 0.53306186, 0.1728344, 0.74432385, 0.031745683, 0.10839384, -0.04875946, 0
8, 2764383741, -0.36318624, 0.53306955, 0.17273572, 0.74438137, 0.005069665, 0.080188066, -0.008495331, 0
9, 2764400408, -0.36310002, 0.53309166, 0.172515, 0.74445885, 0.043083157, 0.078621574, 0.035790443, 0
10, 2764417075, -0.36298433, 0.5331691, 0.1722523, 0.7445207, 0.10727888, 0.11141305, -0.053159714, 0
11, 2764433742, -0.36295477, 0.5331153, 0.1719727, 0.74463797, 0.034483943, 0.0062127663, 0.026921272, 0
12, 2764450409, -0.36281085, 0.5330559, 0.17187521, 0.7447732, 0.040999204, 0.08126294, -0.0769825, 0
13, 2764467076, -0.36267674, 0.53297627, 0.17194171, 0.74488026, 0.04034789, 0.18408884, -0.1009016, 0
14, 2764483743, -0.36254305, 0.5329399, 0.17198516, 0.74496126, -0.01587681, 0.19045003, -0.04273796, 0
17, 2764533744, -0.36246628, 0.53303057, 0.17177218, 0.74498296, 0.048082065, -0.019125445, 0.025102615, 0
26, 2764683747, -0.36313075, 0.5327646, 0.17236266, 0.7447131, -0.0010715909, 0.012018738, -0.01897049, 0
32, 2764783749, -0.36298192, 0.5328562, 0.17275986, 0.7446281, 0.057918258, 0.030692186, 0.01703167, 0
33, 2764800416, -0.36291087, 0.5328288, 0.17275925, 0.74468243, 0.03626562, 0.029187774, 0.007256508, 0
35, 2764833750, -0.3628279, 0.532798, 0.17275849, 0.7447451, 0.019378992, 0.10679583, -0.011713982, 0
36, 2764850417, -0.36288482, 0.5327825, 0.17279145, 0.7447208, 0.04309317, 0.0921383, -0.014526367, 0
39, 2764900418, -0.36280668, 0.53268343, 0.17283314, 0.7448201, 0.04838983, 0.05236752, -0.10591221, 0
40, 2764917085, -0.3627811, 0.532603, 0.17287701, 0.7448799, 0.025775403, 0.020629687, -0.06913853, 0
44, 2764983753, -0.36247122, 0.5322687, 0.17279449, 0.74528867, 0.051260754, 0.11113444, 0.021303177, 0
51, 2765100422, -0.3623056, 0.53169113, 0.1728468, 0.74576926, 0.05393886, 0.04841179, -0.055840492, 0
60, 2765250425, -0.36236548, 0.5306254, 0.17297944, 0.74646825, 0.04862576, 0.08222539, -0.11347866, 0
62, 2765283759, -0.3622746, 0.5304728, 0.17318523, 0.7465731, -0.005033819, 0.016755313, 0.02552414, 0
63, 2765300426, -0.36225745, 0.53036416, 0.17326385, 0.7466404, 0.020301975, 0.037736475, 0.060014725, 0
70, 2765417095, -0.3620258, 0.5296991, 0.17356317, 0.7471551, 0.118646935, 0.0644171, -0.04184532, 0
78, 2765550431, -0.3606164, 0.5296153, 0.17293909, 0.74804014, 0.106736794, 0.059956457, -0.04838085, 0
79, 2765567098, -0.36053053, 0.5295814, 0.17286977, 0.74812156, 0.06986195, 0.12638831, -0.02766037, 0
80, 2765583765, -0.36064553, 0.5294911, 0.17287576, 0.74812865, 0.01582191, 0.0831799, 0.014567375, 0
81, 2765600432, -0.36067817, 0.5294457, 0.1728448, 0.74815226, 0.010541374, 0.01622894, 0.026762009, 0
82, 2765617099, -0.3606513, 0.52939683, 0.17283857, 0.74820125, 0.025611581, 0.0016209304, 0.031225204, 0
83, 2765633766, -0.3606131, 0.52933824, 0.17290007, 0.7482468, 0.050501928, 0.008409563, -2.3841858E-4, 0
84, 2765650433, -0.36071718, 0.52926177, 0.17303735, 0.748219, 0.06831067, 0.0052841813, -0.06809902, 0
85, 2765667100, -0.36068588, 0.5292688, 0.17295992, 0.7482471, 0.10400168, -0.017990557, -0.12488747, 0
86, 2765683767, -0.36077815, 0.52922136, 0.17291644, 0.7482462, 0.07078626, 0.027811605, -0.09061432, 0
87, 2765700434, -0.36096644, 0.52913207, 0.17293674, 0.7482138, 0.020763822, 0.048183024, -0.01106739, 0
88, 2765717101, -0.3611049, 0.5290205, 0.17298213, 0.7482153, -0.036639597, 0.09246194, 0.052711487, 0
90, 2765750435, -0.36099213, 0.5288926, 0.17298324, 0.7483601, 0.03382543, 0.12151673, 0.01516819, 0
94, 2765817103, -0.36059737, 0.52884984, 0.17224044, 0.7487517, 0.07288581, 0.05101605, -0.087078094, 0
95, 2765833770, -0.36046004, 0.5287956, 0.1720464, 0.74890083, 0.06461884, 0.08786149, -0.004049301, 0
99, 2765900438, -0.3600539, 0.52850515, 0.1720264, 0.7493057, 0.040433493, 0.18572173, -0.08903122, 0
106, 2766017107, -0.36126846, 0.5281273, 0.17334066, 0.74868447, 0.1343141, 0.12071879, -0.07618809, 0
110, 2766083775, -0.36210042, 0.5278527, 0.17411867, 0.74829537, 0.058277063, 0.08560312, -0.029533386, 0
111, 2766100442, -0.36225057, 0.527877, 0.17438483, 0.74814343, 0.07531754, 0.051499173, -0.022319794, 0
113, 2766133776, -0.36282277, 0.52775556, 0.17477977, 0.7478599, 0.083789125, 0.044888888, 0.027955055, 0
116, 2766183777, -0.36311626, 0.52763265, 0.17471871, 0.7478183, 4.886412E-4, 0.0122355465, -0.122873306, 0
124, 2766317113, -0.3624227, 0.5279852, 0.17393643, 0.74808836, 0.09586911, 0.06424444, -0.116910934, 0
125, 2766333780, -0.36230326, 0.5280652, 0.17392513, 0.7480923, 0.088539325, 0.058353756, -0.08002186, 0
126, 2766350447, -0.36219, 0.52816224, 0.17393388, 0.7480766, 0.06490762, 0.12188452, -0.02782631, 0
127, 2766367114, -0.36215952, 0.5282064, 0.17390406, 0.74806714, 0.103186294, 0.1228834, 0.028832436, 0
128, 2766383781, -0.36215478, 0.528226, 0.17387635, 0.74806195, 0.10727725, 0.07926049, -1.1634827E-4, 0
129, 2766400448, -0.3621471, 0.5281459, 0.17381409, 0.7481367, 0.071127065, 0.083270535, -0.060875893, 0
139, 2766567118, -0.36025637, 0.52852213, 0.1748852, 0.7485342, -0.019887038, 0.08368135, 0.022670746, 0
140, 2766583785, -0.35992074, 0.5286137, 0.17487633, 0.748633, 0.009118966, 0.06162241, 0.022565842, 0
141, 2766600452, -0.35958993, 0.5286669, 0.17479962, 0.7487723, 0.034356847, 0.03264351, -0.0088682175, 0
142, 2766617119, -0.3594219, 0.5286379, 0.17475292, 0.74888444, -0.051671166, 0.079560556, -0.038059235, 0
143, 2766633786, -0.35936236, 0.52856576, 0.17463744, 0.74899083, -0.073561035, 0.14505085, 0.04200077, 0
147, 2766700454, -0.3591941, 0.5290118, 0.1741614, 0.74886745, -0.010457375, 0.080076195, -0.07975006, 0
156, 2766850457, -0.3602077, 0.5297231, 0.17637989, 0.7473572, 0.13219865, -0.52878284, 0.50062275, 0
159, 2766900458, -0.3605252, 0.53046757, 0.17750576, 0.7464089, 0.091858305, 0.14625503, -0.008102417, 0
160, 2766917125, -0.36060995, 0.530693, 0.1775189, 0.7462046, 0.12198358, 0.05256287, 0.018852234, 0
168, 2767050461, -0.3613665, 0.5301082, 0.179263, 0.7458371, 0.16804394, -0.58435327, 0.18519402, 0
171, 2767100462, -0.36125922, 0.5301589, 0.17929757, 0.7458445, -0.08015171, -0.11010695, -0.0012331009, 0
172, 2767117129, -0.36121303, 0.53003985, 0.17936823, 0.7459348, -0.042967375, -0.05634471, 0.08207798, 0
175, 2767167130, -0.36114535, 0.5300647, 0.17881808, 0.7460819, 0.09168957, -0.11225826, -0.11710358, 0
186, 2767350467, -0.3614747, 0.5299457, 0.17824912, 0.7461431, 0.12773281, 0.16517484, -0.09323692, 0
199, 2767567138, -0.36236906, 0.52947325, 0.17715879, 0.7463042, 0.054126162, 0.024166333, 0.021844864, 0
200, 2767583805, -0.36214504, 0.52949613, 0.17696546, 0.7464427, 0.07854203, -0.06298114, -4.9877167E-4, 0
201, 2767600472, -0.36185938, 0.5294805, 0.17665416, 0.7466661, 0.11338217, -0.11205867, -0.016337395, 0
202, 2767617139, -0.36159799, 0.5293635, 0.17635849, 0.74694544, 0.10000143, -0.027400564, -0.07034683, 0
203, 2767633806, -0.36115545, 0.5293587, 0.1760749, 0.7472299, 0.0764903, 0.073894836, -0.11753845, 0
204, 2767650473, -0.3606403, 0.5294111, 0.17587051, 0.74748963, 0.037729084, 0.13736972, -0.09834385, 0
205, 2767667140, -0.36021525, 0.5293903, 0.1757561, 0.7477362, -0.01043663, 0.14785326, -0.006831169, 0
206, 2767683807, -0.35988772, 0.5294131, 0.17567135, 0.74789745, 0.043361124, 0.12207764, 0.08265591, 0
207, 2767700474, -0.35938966, 0.52960944, 0.1752888, 0.7480878, 0.077807106, -0.03933571, -0.0059776306, 0
208, 2767717141, -0.35897493, 0.5297912, 0.1748133, 0.7482695, 0.0968712, -0.05150968, -0.026215553, 0
209, 2767733808, -0.35856414, 0.5299689, 0.17431904, 0.7484558, 0.12868346, -0.044551272, -0.027579308, 0
210, 2767750475, -0.35810938, 0.53016305, 0.17389804, 0.7486341, 0.031257518, 0.0032572544, -0.09189892, 0
211, 2767767142, -0.35764626, 0.53023326, 0.1735551, 0.7488851, -0.016609918, 0.03754906, -0.084833145, 0
212, 2767783809, -0.35725373, 0.53035045, 0.17341864, 0.7490211, -0.04665421, 0.09518098, -0.100159645, 0
226, 2768017147, -0.35460454, 0.53234464, 0.17128327, 0.7493568, 6.6083E-4, 0.08111721, -0.065805435, 0
233, 2768133816, -0.35301405, 0.5327124, 0.17095117, 0.749922, -0.062069044, 0.0222715, 0.017198563, 0
237, 2768200484, -0.35278565, 0.53239596, 0.17106216, 0.75022876, 0.071753286, 0.03564361, -0.098986626, 0
238, 2768217151, -0.35281634, 0.5323283, 0.17103523, 0.75026834, 0.026785988, 0.03654772, -0.06945324, 0
240, 2768250485, -0.3530789, 0.53210545, 0.17156184, 0.7501828, 0.0022572433, 0.069439664, 0.088282585, 0
241, 2768267152, -0.35333163, 0.53203607, 0.17203584, 0.75000453, 0.059753396, 0.028825684, 0.120381355, 0
242, 2768283819, -0.35382205, 0.5319374, 0.17254353, 0.74972665, 0.06472476, -0.0199045, -0.030140877, 0
244, 2768317153, -0.35512674, 0.53165066, 0.17335486, 0.74912554, 0.085198306, 0.09145703, -0.08493614, 0
245, 2768333820, -0.35618642, 0.53136516, 0.17386974, 0.7487056, 0.06895401, 0.23271711, 0.026417732, 0
247, 2768367154, -0.35854375, 0.53132427, 0.1752559, 0.747285, 0.13568947, 0.17912203, -0.10048294, 0
248, 2768383821, -0.35970697, 0.53132004, 0.17611559, 0.7465266, 0.093693346, 0.079406105, -0.049189568, 0
251, 2768433822, -0.36266223, 0.5307805, 0.17823651, 0.74497557, 0.16949739, -0.094711825, 0.06734276, 0
252, 2768450489, -0.36333656, 0.5306793, 0.1785757, 0.74463785, 0.30132368, 0.0037790453, 0.052620888, 0
253, 2768467156, -0.36378482, 0.53070444, 0.17885038, 0.7443352, 0.27790743, 0.06904092, -0.056462288, 0
255, 2768500490, -0.36445567, 0.5305928, 0.17944163, 0.743944, 0.22496459, 0.13000341, -0.13712406, 0
256, 2768517157, -0.36466295, 0.53059375, 0.17953113, 0.74382013, 0.29600915, -0.09266166, -0.17560196, 0
257, 2768533824, -0.3648926, 0.53047246, 0.17960103, 0.74377716, 0.2587818, -0.28344104, -0.2324562, 0
259, 2768567158, -0.3647471, 0.529852, 0.17944816, 0.7443275, -0.005548793, -0.022806704, -0.03286457, 0
260, 2768583825, -0.36449003, 0.52924246, 0.17955118, 0.7448619, -0.06968776, 0.15535882, 0.18739796, 0
261, 2768600492, -0.36406365, 0.5287734, 0.17993584, 0.74531054, 0.0010777795, 0.24938379, 0.31509018, 0
263, 2768633826, -0.36340058, 0.5279352, 0.18041676, 0.74611187, 0.12848023, 0.27465558, 0.14267349, 0
267, 2768700494, -0.36229697, 0.526653, 0.18034828, 0.7475699, 0.04951494, 0.120212756, -0.081240654, 0
268, 2768717161, -0.36157638, 0.5262438, 0.18043655, 0.74818516, -0.0626687, 0.22132677, 0.08189678, 0
271, 2768767162, -0.35969383, 0.5262617, 0.181018, 0.7489394, 0.027454237, 0.38786778, -0.2597103, 0
272, 2768783829, -0.35891998, 0.5266105, 0.18098372, 0.74907374, 0.10987756, 0.19833389, -0.32594872, 0
274, 2768817163, -0.35745972, 0.5265281, 0.17887291, 0.7503357, 0.18234423, -0.36560985, -0.036242485, 0
275, 2768833830, -0.3567152, 0.5263313, 0.17806458, 0.7510201, 0.17084263, -0.27353102, 0.19120026, 0
276, 2768850497, -0.35600317, 0.5256311, 0.17662318, 0.7521878, 0.031531714, 0.08043616, 0.056303978, 0
278, 2768883831, -0.35531715, 0.52528495, 0.17699808, 0.75266576, -0.20467158, 0.71147305, 0.1461277, 0
279, 2768900498, -0.35431352, 0.52593803, 0.1766097, 0.75277394, 0.02025568, 0.28186214, -0.33654976, 0
280, 2768917165, -0.3537444, 0.52618045, 0.17606749, 0.7529993, 0.059255317, -0.24520604, -0.057688713, 0
282, 2768950499, -0.35426256, 0.52576995, 0.17624241, 0.75300145, -0.20198333, 0.072058566, 0.39976215, 0
283, 2768967166, -0.35502693, 0.52540123, 0.17673872, 0.75278246, -0.25139245, 0.059649907, 0.34349442, 0
284, 2768983833, -0.35578793, 0.5247968, 0.17701796, 0.7527793, -0.21179137, 0.24333185, -0.22117424, 0
287, 2769033834, -0.35835826, 0.52243644, 0.17602667, 0.75343394, 0.22028638, -0.36446816, -0.18656158, 0
288, 2769050501, -0.35906667, 0.5217399, 0.17541352, 0.75372225, 0.2318229, -0.6871653, 0.5478697, 0
290, 2769083835, -0.36021733, 0.51980454, 0.17635815, 0.7542899, -0.16523066, 0.18357387, 0.5896673, 0
291, 2769100502, -0.3614503, 0.5181946, 0.17854649, 0.75429285, -0.27110994, 0.7923071, 0.06694889, 0
292, 2769117169, -0.3614279, 0.5180905, 0.17963675, 0.75411636, -0.5634538, 0.83059174, -0.7689352, 0
294, 2769150503, -0.3642075, 0.5170041, 0.18193217, 0.7529733, -0.051785648, 0.5715154, -0.43412113, 0
296, 2769183837, -0.3648789, 0.5179736, 0.18226519, 0.7519008, 0.24484934, -0.053251673, 0.42562008, 0
298, 2769217171, -0.36362097, 0.5184033, 0.1821321, 0.7522462, 0.34202036, 0.32205278, -0.07211876, 0
299, 2769233838, -0.3621797, 0.519307, 0.18115485, 0.75255424, 0.38939115, 0.09764599, -0.44933033, 0
301, 2769267172, -0.35901374, 0.52107567, 0.17944111, 0.75325894, 0.15196432, -0.16851424, -0.37186432, 0
302, 2769283839, -0.35745355, 0.52140075, 0.17897877, 0.7538855, 0.031328287, 0.07454157, 0.07774258, 0
303, 2769300506, -0.35609913, 0.5215197, 0.17864175, 0.7545238, -0.15520424, 0.23343581, 0.3871746, 0
305, 2769333840, -0.35418087, 0.5219003, 0.17748247, 0.7554368, -0.05738793, -0.37684876, 0.18947506, 0
306, 2769350507, -0.35390192, 0.5215788, 0.17667012, 0.7559798, -0.022038043, -0.5356955, 0.07877159, 0
307, 2769367174, -0.35438251, 0.5209329, 0.17620456, 0.7563084, -0.1268046, -0.057619516, -0.0875988, 0
309, 2769400508, -0.35659993, 0.5201784, 0.17693903, 0.75561374, -0.062363286, 0.79157656, -0.5523119, 0
311, 2769433842, -0.3581937, 0.5193171, 0.17796284, 0.7552118, 0.13389447, -0.2455929, -0.2485714, 0
313, 2769467176, -0.35941213, 0.5189618, 0.17913663, 0.75459933, 0.28559387, -0.11989577, 0.6708851, 0
314, 2769483843, -0.35991588, 0.5191447, 0.17946874, 0.7541545, 0.010036039, 0.10432489, 0.3343706, 0
315, 2769500510, -0.36025932, 0.5193109, 0.17943493, 0.75388414, 0.10842592, 0.10622017, -0.1341114, 0
317, 2769533844, -0.35959625, 0.518773, 0.18015094, 0.7543999, 0.12595768, -0.10209088, -0.51903534, 0
318, 2769550511, -0.3594407, 0.5182444, 0.18043458, 0.7547697, 0.17343223, -0.20641343, -0.061427116, 0
319, 2769567178, -0.3597978, 0.51810175, 0.18047875, 0.75468683, 0.13339852, 0.13905199, 0.34064674, 0
321, 2769600512, -0.3607728, 0.5193145, 0.1802605, 0.75343895, 0.20892596, 0.35325396, 0.3300438, 0
322, 2769617179, -0.36067402, 0.5201176, 0.18037063, 0.7529058, 0.37538466, 0.32299733, -0.0421772, 0
323, 2769633846, -0.3597125, 0.5209245, 0.18055117, 0.7527646, 0.40216836, 0.32461557, -0.35835266, 0
326, 2769683847, -0.35284287, 0.523039, 0.17937312, 0.7548284, 0.16848911, -0.7938273, -0.5914259, 0
328, 2769717181, -0.350999, 0.5224872, 0.1796236, 0.7560098, -0.2696826, 0.7040907, 0.36540508, 0
329, 2769733848, -0.35067803, 0.5227731, 0.17987843, 0.7559005, -0.47197214, 1.0833722, 0.64938164, 0
330, 2769750515, -0.3500545, 0.523852, 0.17933586, 0.7555715, -0.52181965, 0.5140276, 0.58434963, 0
332, 2769783849, -0.35184538, 0.5264041, 0.18049875, 0.7526835, -0.2826217, 0.054030344, 0.23602581, 0
333, 2769800516, -0.35331872, 0.5276622, 0.18194532, 0.7507614, -0.33581492, -0.3036038, -0.2097435, 0
334, 2769817183, -0.35497767, 0.5283354, 0.1830262, 0.74924135, 0.18996584, -1.2735013, -0.43051147, 0
336, 2769850517, -0.35721135, 0.5268538, 0.18472207, 0.7488068, 0.66818786, -1.0027953, -0.6783056, 0
337, 2769867184, -0.3582452, 0.5250606, 0.18511137, 0.74947584, 0.34908712, -0.033652224, -0.0656786, 0
338, 2769883851, -0.35886616, 0.5236523, 0.18563029, 0.7500356, 0.118712425, 0.7413915, 0.41351795, 0
341, 2769933852, -0.35739362, 0.52416253, 0.18662366, 0.7501358, 0.22115871, 0.9787582, 0.14733124, 0
342, 2769950519, -0.35684508, 0.52522004, 0.18635684, 0.74972355, 0.27170548, 0.7906696, -0.35818005, 0
344, 2769983853, -0.35689014, 0.5266606, 0.18536776, 0.7489362, -0.15622097, -0.057969872, 0.20121288, 0
345, 2770000520, -0.35723317, 0.52729756, 0.1853018, 0.7483404, -0.17898588, 0.06464453, -0.17394924, 0
348, 2770050521, -0.35979348, 0.5299438, 0.18262582, 0.7458985, -0.28107655, -1.0822133, 0.3743658, 0
350, 2770083855, -0.3623844, 0.52930146, 0.18400788, 0.74475986, -0.17610537, -0.2763835, -0.27751732, 0
353, 2770133856, -0.3616432, 0.52630883, 0.18794021, 0.7462574, 0.3931298, 0.46015027, -0.7120619, 0
355, 2770167190, -0.36017975, 0.5256204, 0.1909005, 0.7466989, 0.051287983, 0.27349415, 0.015117645, 0
356, 2770183857, -0.35829493, 0.5252303, 0.1899382, 0.74812424, 0.0967797, -1.1529084, 0.91987705, 0
357, 2770200524, -0.35769445, 0.5241789, 0.190196, 0.74908304, -0.330354, 0.05966846, 0.6662235, 0
359, 2770233858, -0.35698026, 0.524659, 0.1909137, 0.74890506, -0.17740376, 0.68395746, 0.08185387, 0
361, 2770267192, -0.35628176, 0.5269009, 0.19152994, 0.747505, 0.09310914, 0.091108575, -0.4182024, 0
363, 2770300526, -0.35523903, 0.5284187, 0.19153051, 0.7469295, 0.029798413, -0.13519594, 0.07155132, 0
364, 2770317193, -0.35443366, 0.5288322, 0.19138284, 0.74705726, -0.0104618035, -0.17303938, 0.15347958, 0
369, 2770400528, -0.3565027, 0.52612036, 0.1885164, 0.74871427, -0.43701246, 0.16685164, 0.41572857, 0
371, 2770433862, -0.35813653, 0.5253207, 0.18964915, 0.74821, -0.18367018, 0.5348899, 0.14141655, 0
372, 2770450529, -0.35807443, 0.52562726, 0.18966587, 0.74802005, 0.3154602, -0.08136352, -0.6929817, 0
375, 2770500530, -0.35959977, 0.5237287, 0.18816951, 0.74899733, -0.015798887, 0.32194415, 0.36090755, 0
377, 2770533864, -0.35776168, 0.5241542, 0.18852866, 0.7494894, -0.12241883, 0.3229636, 0.36945248, 0
380, 2770583865, -0.3541528, 0.52547413, 0.1871905, 0.75061363, 0.22925821, 0.27733475, -0.48109913, 0
382, 2770617199, -0.35299733, 0.52605325, 0.18644002, 0.7509391, -0.21263911, -0.20524658, -0.15607643, 0
383, 2770633866, -0.35348386, 0.5254805, 0.1861975, 0.75117135, -0.5039718, 0.07493495, 0.51510906, 0
384, 2770650533, -0.35438728, 0.52504486, 0.18634596, 0.75101376, -0.6293948, 0.44926485, 0.6295309, 0
386, 2770683867, -0.3560949, 0.52483875, 0.18708377, 0.7501659, -0.017042262, -0.2600038, -0.34754372, 0
387, 2770700534, -0.35700557, 0.52430856, 0.18725024, 0.7500624, 0.2638846, -0.48729607, -0.6045475, 0
388, 2770717201, -0.35791856, 0.5233171, 0.18714428, 0.75034606, 0.3696463, -0.5282749, -0.56771183, 0
390, 2770750535, -0.3598824, 0.52073383, 0.18692896, 0.7512571, 0.22049104, -0.017487431, -0.070171356, 0
391, 2770767202, -0.36100864, 0.5194594, 0.18736064, 0.7514915, 0.014099756, 0.4209281, 0.19760418, 0
392, 2770783869, -0.36182588, 0.51850355, 0.18794468, 0.7516127, -0.07160869, 0.6631896, 0.37701607, 0
395, 2770833870, -0.36262715, 0.5173964, 0.19106752, 0.7512018, 0.11657472, 0.42401683, -0.015106201, 0
396, 2770850537, -0.36301938, 0.5173779, 0.19194952, 0.7508002, 0.37759048, 0.25442725, -0.17381096, 0
398, 2770883871, -0.36364728, 0.5173566, 0.19201335, 0.7504947, 0.5986644, -0.12633154, -0.43225765, 0
399, 2770900538, -0.3636949, 0.5172426, 0.19158009, 0.7506609, 0.6123527, -0.13655782, -0.11931229, 0
400, 2770917205, -0.36297005, 0.51711756, 0.19078815, 0.7512993, 0.6050997, -0.091634944, 0.11992645, 0
402, 2770950539, -0.36011767, 0.5173141, 0.18953285, 0.75285274, 0.6651645, 0.30661228, 0.018665314, 0
403, 2770967206, -0.35816538, 0.51770896, 0.18864784, 0.75373447, 0.6261681, 0.0952201, -0.012758255, 0
404, 2770983873, -0.35625058, 0.5181191, 0.18739164, 0.75467277, 0.45267525, 0.019605774, 0.02889824, 0
406, 2771017207, -0.35258263, 0.51902103, 0.18439701, 0.75651115, 0.16729592, 0.06254015, 0.017237663, 0
407, 2771033874, -0.35083425, 0.5196974, 0.18271515, 0.75726736, 0.24556598, -0.13498528, -0.08761597, 0
410, 2771083875, -0.34603238, 0.521496, 0.17794551, 0.75937325, 0.021123134, 0.49124992, 0.028866768, 0
411, 2771100542, -0.34477174, 0.5221404, 0.17676002, 0.7597806, 0.005028818, 0.45753404, 0.1485691, 0
413, 2771133876, -0.34323078, 0.52318984, 0.17492348, 0.7601811, -0.074116774, 0.12768357, -0.091174126, 0
414, 2771150543, -0.3428871, 0.52346146, 0.17443763, 0.7602608, -0.25846732, 0.24489264, -0.1253376, 0
415, 2771167210, -0.3426022, 0.5238115, 0.17426497, 0.7601878, -0.49035972, 0.5181085, -0.07642841, 0
417, 2771200544, -0.3430186, 0.52413917, 0.17468375, 0.75967795, -0.55872905, 0.31673005, -0.079668045, 0
418, 2771217211, -0.34398234, 0.5239553, 0.17528057, 0.7592314, -0.56268877, 0.006998861, 0.011444092, 0
419, 2771233878, -0.3454935, 0.5232309, 0.17636125, 0.7587944, -0.53580904, 0.21518151, -0.20294285, 0
421, 2771267212, -0.35056335, 0.52132696, 0.17971794, 0.7569898, -0.39503762, 0.51825035, 0.14930248, 0
422, 2771283879, -0.35374582, 0.5197569, 0.1814165, 0.7561834, -0.33071548, 0.104511306, 0.65942574, 0
425, 2771333880, -0.3629899, 0.5172298, 0.18498105, 0.75266343, 0.45148897, -0.9309255, -1.4314566, 0
426, 2771350547, -0.36641204, 0.51589733, 0.18536782, 0.75182414, 0.37122965, -1.1109469, -0.9226227, 0
427, 2771367214, -0.36984813, 0.5153486, 0.18572524, 0.7504287, 0.25989813, -0.95790297, -0.9921303, 0
429, 2771400548, -0.37572688, 0.5142204, 0.18354613, 0.74881643, 0.7495091, -0.31782258, -0.08090019, 0
430, 2771417215, -0.37866354, 0.51454115, 0.18192846, 0.7475105, 0.87436247, -0.683168, 0.5720844, 0
431, 2771433882, -0.38137925, 0.51523036, 0.18026018, 0.74605787, 0.8179845, -0.5655926, 0.29925823, 0
433, 2771467216, -0.38661468, 0.51519483, 0.17797203, 0.7439342, 0.40817302, -0.5492098, 0.33262825, 0
434, 2771483883, -0.3888092, 0.51591396, 0.1758316, 0.7428001, 0.5801733, -0.2124133, -0.16965008, 0
436, 2771517217, -0.39134791, 0.5180558, 0.17030042, 0.7412634, 0.423288, 0.18592367, -0.59445286, 0
437, 2771533884, -0.39170825, 0.51915747, 0.16680157, 0.7410978, 0.664769, -0.25225705, -0.3080778, 0
438, 2771550551, -0.3909133, 0.52015495, 0.1623851, 0.7417985, 0.69177896, -0.8107206, 0.13288593, 0
440, 2771583885, -0.38960057, 0.52181894, 0.15315281, 0.7432828, 0.30807692, 0.0010052496, -0.26158333, 0
441, 2771600552, -0.39058483, 0.5223331, 0.14885715, 0.7432778, 0.026752364, 0.28599936, -0.13700104, 0
442, 2771617219, -0.3922065, 0.52270544, 0.14635874, 0.7426581, -9.300933E-4, 0.331001, -0.31583214, 0
444, 2771650553, -0.39431205, 0.52508384, 0.1375316, 0.74155164, 0.07860912, 0.57072365, -1.1181335, 0
445, 2771667220, -0.3951838, 0.52671045, 0.1330518, 0.74075073, 0.4186911, 0.12535016, -1.0859184, 0
446, 2771683887, -0.3953702, 0.52837354, 0.12899488, 0.7401842, 0.6568853, 0.22041574, -0.8474369, 0
448, 2771717221, -0.39190745, 0.52937144, 0.118356146, 0.7430847, -0.6726863, 0.6826804, 2.4564333, 0
449, 2771733888, -0.39062414, 0.5294385, 0.11430966, 0.7443451, -1.13494, 1.4453859, 3.01585, 0
452, 2771783889, -0.3946021, 0.5288242, 0.11323142, 0.7428468, -0.003923307, -0.56657124, -0.19630527, 0
453, 2771800556, -0.39583609, 0.52937174, 0.111965336, 0.74199176, -0.05890614, -0.3345855, -1.2543573, 0
454, 2771817223, -0.3968143, 0.52983254, 0.11064213, 0.74133843, -0.18007411, 0.14974026, -1.4126453, 0
456, 2771850557, -0.39753383, 0.5303375, 0.10952562, 0.7407576, -0.39603046, 0.49280617, -0.8617487, 0
457, 2771867224, -0.39739323, 0.5304215, 0.10969366, 0.74074805, -0.44197917, 0.18436176, -0.08948517, 0
458, 2771883891, -0.39694822, 0.5306137, 0.10981432, 0.740831, -0.4208732, 0.053947423, 0.4200487, 0
460, 2771917225, -0.3955266, 0.53136057, 0.10918125, 0.74114954, -0.3046083, -0.16356331, 0.5712757, 0
461, 2771933892, -0.39491248, 0.5317418, 0.108286865, 0.7413348, -0.12414046, 1.2426575E-4, 0.26980305, 0
463, 2771967226, -0.39454776, 0.532422, 0.10655556, 0.7412917, -0.05212874, 0.5425539, -0.025454521, 0
464, 2771983893, -0.39493972, 0.5326605, 0.1060766, 0.74098027, -0.1247114, 0.48321602, 0.11329651, 0
467, 2772033894, -0.39555988, 0.5337196, 0.105310135, 0.7399961, -0.046573203, 0.028900113, -0.23360825, 0
468, 2772050561, -0.39522338, 0.53404844, 0.10468175, 0.7400278, -0.13560282, 0.058031674, -0.18586063, 0
469, 2772067228, -0.3950619, 0.53427273, 0.10393112, 0.7400579, -0.22402261, 0.18090782, -0.065460205, 0
471, 2772100562, -0.39569393, 0.53460926, 0.103285804, 0.73956746, -0.10035037, 0.3114377, 0.05642128, 0
472, 2772117229, -0.39581472, 0.5348306, 0.10324762, 0.73934793, 0.114377394, 0.13948047, -0.155509, 0
473, 2772133896, -0.39537317, 0.5350409, 0.10299201, 0.73946774, 0.20159592, -0.06975526, -0.2984066, 0
475, 2772167230, -0.39371175, 0.5351468, 0.10175525, 0.7404481, 0.02609344, 0.09016881, -0.058940887, 0
476, 2772183897, -0.39322346, 0.53513414, 0.10123657, 0.7407878, -0.113602385, 0.24776724, 0.10236931, 0
477, 2772200564, -0.39323837, 0.53509843, 0.10097436, 0.7408414, -0.16636963, 0.35562956, 0.1866808, 0
479, 2772233898, -0.393759, 0.53499824, 0.10097757, 0.74063677, -0.032900006, 0.29719087, 0.033634186, 0
481, 2772267232, -0.3941455, 0.5346202, 0.10114994, 0.74068063, -0.058192696, 0.020583754, 0.030822754, 0
483, 2772300566, -0.3946594, 0.5342749, 0.10112205, 0.74066, -0.0433571, -0.07969164, -0.053180695, 0
484, 2772317233, -0.39476806, 0.53423405, 0.1010869, 0.74063647, 0.05204395, -0.00993258, -0.1464901, 0
485, 2772333900, -0.39460096, 0.534222, 0.1010706, 0.7407363, -0.07589545, -0.08445426, -0.127244, 0
487, 2772367234, -0.3940053, 0.53401804, 0.10106709, 0.74120075, -0.4786345, -0.3303214, 0.18628502, 0
488, 2772383901, -0.39398587, 0.53393406, 0.10087109, 0.7412982, -0.43658993, -0.38229018, 0.4062624, 0
490, 2772417235, -0.39377868, 0.5341222, 0.09989403, 0.74140507, -0.2663076, -0.13075697, 0.24890804, 0
491, 2772433902, -0.39337826, 0.53418696, 0.099115044, 0.7416756, -0.13372912, 0.012331769, 0.07501507, 0
492, 2772450569, -0.3929354, 0.53429353, 0.09839973, 0.7419287, 0.016436622, 0.1885476, -0.27013302, 0
495, 2772500570, -0.39211762, 0.5340535, 0.09675597, 0.74275005, -0.014618183, 0.13799869, -0.1599226, 0
498, 2772550571, -0.39219818, 0.53454554, 0.097276, 0.74228555, 0.18756668, 0.049075622, -0.12095928, 0
500, 2772583905, -0.39222825, 0.53477424, 0.09718793, 0.7421162, 0.06610888, -0.053703792, 0.018006325, 0
502, 2772617239, -0.3923429, 0.53512925, 0.09733527, 0.74178034, 0.0731688, 0.1790036, -0.004591942, 0
503, 2772633906, -0.39235198, 0.5353381, 0.097531684, 0.741599, 0.10951442, 0.15835156, -0.08186054, 0
504, 2772650573, -0.39233, 0.5354256, 0.09761584, 0.7415365, 0.06268903, 0.14029796, -0.10975456, 0
508, 2772717241, -0.39213943, 0.53619194, 0.098145336, 0.74101347, 0.03566562, 0.057562858, 0.0702095, 0
510, 2772750575, -0.39182287, 0.53674656, 0.09824714, 0.74076587, 0.13216157, 0.053149033, 0.037190437, 0
511, 2772767242, -0.39161795, 0.53691036, 0.09796077, 0.7407936, 0.40306976, 0.052348398, 0.14266682, 0
512, 2772783909, -0.39133424, 0.5371095, 0.09747808, 0.74086267, 0.49969468, 0.08229657, 0.13987732, 0
514, 2772817243, -0.39035952, 0.53726596, 0.09535238, 0.74153984, 0.24964654, 0.14467558, 0.14615917, 0
515, 2772833910, -0.3883314, 0.5372315, 0.09316138, 0.7429068, 0.16492617, 0.03932677, 0.0584116, 0
517, 2772867244, -0.38547045, 0.53682166, 0.08985959, 0.74509656, -0.1202732, 0.29219648, -0.35956097, 0
518, 2772883911, -0.38365516, 0.5358449, 0.087082736, 0.74706376, -0.61232805, 0.10436591, 0.357234, 0
519, 2772900578, -0.3820052, 0.5356753, 0.085998, 0.7481557, -0.68126607, 1.187668, -0.43113136, 0
521, 2772933912, -0.38307124, 0.5352176, 0.08464012, 0.74809307, -0.9176471, 0.7402975, 0.73296165, 0
522, 2772950579, -0.38412195, 0.53554213, 0.08434309, 0.7473552, -0.9094903, 0.50795496, 0.43639278, 0
523, 2772967246, -0.38530904, 0.53596616, 0.084116556, 0.7464652, -0.60732543, 0.58092517, -0.052012444, 0
525, 2773000580, -0.38653094, 0.53686154, 0.084342554, 0.74516326, -0.41914353, 0.792038, -0.7913132, 0
526, 2773017247, -0.38662276, 0.53686047, 0.08487631, 0.7450559, -0.40345797, 0.7931096, -0.843647, 0
529, 2773067248, -0.3869654, 0.5365308, 0.089717604, 0.74454826, -0.43207648, 0.75312936, 0.12361145, 0
531, 2773100582, -0.38937455, 0.53707695, 0.0945022, 0.7423029, 0.04576111, 0.058652706, 0.52201843, 0
533, 2773133916, -0.3914029, 0.537466, 0.09740183, 0.74057776, 0.2343549, -0.27900618, 0.2350893, 0
534, 2773150583, -0.39162216, 0.53805554, 0.09829454, 0.7399155, 0.13624927, -0.15918325, -0.09557629, 0
535, 2773167250, -0.39172572, 0.5385962, 0.09898526, 0.73937523, 0.13484563, 0.20985642, -0.27293396, 0
537, 2773200584, -0.39191914, 0.53966725, 0.09997475, 0.7383579, 0.3766293, 0.3362017, -0.10701847, 0
538, 2773217251, -0.39214104, 0.5398367, 0.10012187, 0.7380961, 0.16761525, 0.20078515, 0.015093803, 0
539, 2773233918, -0.39188606, 0.5397316, 0.10037191, 0.73827446, 0.12309064, -0.0018285594, 0.14365578, 0
541, 2773267252, -0.39182034, 0.5391024, 0.10118282, 0.73865813, -0.07925351, 0.33131617, 0.14225388, 0
544, 2773317253, -0.39469022, 0.5384657, 0.10402544, 0.7371986, 0.029663278, 0.36875403, -0.45206165, 0
546, 2773350587, -0.39632705, 0.5369932, 0.10617127, 0.73708844, -0.19452898, 0.17024568, 0.040124893, 0
548, 2773383921, -0.3982032, 0.53633976, 0.108791485, 0.73617035, -0.24573916, 0.010623682, 0.15050602, 0
549, 2773400588, -0.3991302, 0.53620625, 0.11044941, 0.7355184, -0.17208238, 0.09312991, 0.13103199, 0
550, 2773417255, -0.40007824, 0.5359072, 0.11192859, 0.7349975, -0.05791274, 0.08179423, 0.044053078, 0
552, 2773450589, -0.40245706, 0.53459066, 0.114402354, 0.7342765, 0.050350107, 0.30841783, 0.06565857, 0
553, 2773467256, -0.40359175, 0.53382486, 0.11568977, 0.7340089, -0.08485076, 0.19990931, -0.10156441, 0
554, 2773483923, -0.4043399, 0.53324836, 0.116811514, 0.73383856, -0.17352435, -0.22028744, -0.09582043, 0
556, 2773517257, -0.40572545, 0.5318348, 0.11825084, 0.7338692, 0.008665761, 0.104726434, 0.32164574, 0
557, 2773533924, -0.4066069, 0.5308137, 0.11884339, 0.734025, 0.20172694, 0.2980515, 0.49675655, 0
558, 2773550591, -0.40720162, 0.52993935, 0.119404055, 0.7342358, 0.37483272, 0.16646597, 0.5051155, 0
561, 2773600592, -0.40414482, 0.5272383, 0.1220234, 0.7374317, 0.5602003, -0.4675386, -0.5375967, 0
562, 2773617259, -0.40222275, 0.5252246, 0.12496267, 0.7394248, 0.64334214, 0.17909132, -0.2103939, 0
564, 2773650593, -0.40012455, 0.52158713, 0.132257, 0.74186534, 1.2462491, 0.5096918, 0.8750076, 0
565, 2773667260, -0.3990854, 0.52176017, 0.13482872, 0.7418403, 1.7602433, -1.1902112, 0.66815567, 0
566, 2773683927, -0.39867133, 0.52155966, 0.13589695, 0.742009, 1.8227738, -2.4727557, 0.27652073, 0
568, 2773717261, -0.39881426, 0.52046764, 0.1339059, 0.7430601, 1.132887, -2.0050752, -1.3858624, 0
569, 2773733928, -0.3990069, 0.52033997, 0.13189052, 0.7434067, 0.82678246, -1.6946465, -1.9959259, 0
570, 2773750595, -0.39872143, 0.5209168, 0.13002712, 0.7434838, 0.54938686, -1.397527, -2.4934225, 0
572, 2773783929, -0.39739522, 0.52275085, 0.12694749, 0.74343884, 0.8912661, -0.04444164, -1.7204294, 0
573, 2773800596, -0.39718083, 0.5227012, 0.12572978, 0.74379534, 0.65920025, 0.9275963, -0.7113724, 0
576, 2773850597, -0.39947757, 0.5181537, 0.12503922, 0.7458607, -1.5644969, 0.8048047, 3.0546637, 0
577, 2773867264, -0.40138197, 0.5173756, 0.12716036, 0.7450193, -1.4077259, -0.031282, 3.291088, 0
579, 2773900598, -0.4082471, 0.5184228, 0.13043258, 0.7399784, 0.35152352, 0.4732289, 0.34767056, 0
580, 2773917265, -0.4115032, 0.51942486, 0.13116916, 0.7373372, 0.6132659, 0.31280592, -1.014494, 0
581, 2773933932, -0.414254, 0.519716, 0.13126716, 0.73557204, 0.48518226, 0.017254977, -1.6933098, 0
583, 2773967266, -0.4171599, 0.51914316, 0.13071188, 0.7344324, -0.26905128, -0.16798407, -0.72972965, 0
584, 2773983933, -0.41748232, 0.51896435, 0.13054211, 0.73440564, -0.33067545, -0.2775614, -0.06334877, 0
585, 2774000600, -0.4174356, 0.51906294, 0.13034293, 0.7343981, -0.33638632, -0.4114423, 0.3324499, 0
587, 2774033934, -0.41606337, 0.51979375, 0.12725167, 0.7352016, -0.04282408, -0.18888152, 0.32141685, 0
588, 2774050601, -0.41547418, 0.5202055, 0.12564719, 0.73551965, 0.113761604, -0.22689147, 0.4433565, 0
589, 2774067268, -0.41483605, 0.5204557, 0.123404995, 0.7360821, 0.08642269, -0.14206551, 0.0033740997, 0
591, 2774100602, -0.41539484, 0.5202591, 0.118107975, 0.7367747, -0.20695347, 0.71743166, 0.41060638, 0
592, 2774117269, -0.4164084, 0.5204683, 0.11586485, 0.7364106, -0.2603949, 0.63553196, 0.28702354, 0
593, 2774133936, -0.4172309, 0.5210358, 0.11312211, 0.7359699, -0.0744679, -0.0023905511, -0.05025482, 0
595, 2774167270, -0.4168498, 0.5217621, 0.10634398, 0.7366819, -0.31711167, -0.07600178, -0.58733463, 0
596, 2774183937, -0.41594735, 0.5218182, 0.1037282, 0.7375247, -0.252187, 0.14689383, -0.6072607, 0
598, 2774217271, -0.41366252, 0.5224824, 0.10009759, 0.73884004, -0.32881096, 0.23726784, -0.27262688, 0
599, 2774233938, -0.41235948, 0.5229525, 0.09884303, 0.73940456, -0.38823417, 0.15652825, 0.011507988, 0
600, 2774250605, -0.41122615, 0.52342474, 0.097929075, 0.73982304, -0.38900593, 0.15801014, 0.25262165, 0
603, 2774300606, -0.40835077, 0.5248698, 0.09583797, 0.7406653, 0.19895776, 0.24282649, -0.4140272, 0
604, 2774317273, -0.4070772, 0.52475667, 0.09519072, 0.7415295, -0.049963668, 0.08569017, -0.2544918, 0
606, 2774350607, -0.40607756, 0.5240812, 0.09473418, 0.742613, -0.24758656, 0.22276866, 0.50001335, 0
607, 2774367274, -0.4065811, 0.5241735, 0.09527659, 0.7422029, -0.02770252, 0.31553212, 0.44736767, 0
608, 2774383941, -0.40721312, 0.52444214, 0.09604801, 0.74156666, 0.2925479, 0.108759284, 0.11958599, 0
610, 2774417275, -0.40710366, 0.5248853, 0.09650121, 0.7412543, 0.41628772, -0.36632848, -0.5829992, 0
611, 2774433942, -0.40637004, 0.524679, 0.09595853, 0.74187315, 0.20376667, -0.34630886, -0.3154297, 0
612, 2774450609, -0.40572932, 0.5243779, 0.095173456, 0.7425377, -0.02512116, -0.13075675, 0.06148243, 0
614, 2774483943, -0.40548754, 0.5240667, 0.09430479, 0.74300015, -0.07539507, 0.48439762, 0.46814632, 0
615, 2774500610, -0.40581656, 0.52414584, 0.09432329, 0.7427622, 0.03221244, 0.38224995, 0.21175957, 0
618, 2774550611, -0.40671217, 0.52344424, 0.09342631, 0.74288046, 0.26602674, -0.22019625, -0.40691948, 0
619, 2774567278, -0.40656838, 0.52315223, 0.09282194, 0.74324065, -0.067139655, -0.10354003, -0.37744427, 0
620, 2774583945, -0.40634233, 0.52290016, 0.09244814, 0.74358815, -0.3303467, 0.089831084, -0.073776245, 0
622, 2774617279, -0.40612847, 0.52284306, 0.092594914, 0.74372673, -0.5323616, 0.1796339, 0.30757713, 0
623, 2774633946, -0.4065166, 0.5227861, 0.09293208, 0.7435126, -0.39876613, 0.21665837, 0.33822536, 0
625, 2774667280, -0.40799212, 0.5226123, 0.09367389, 0.74273324, -0.03774647, 0.19185123, -0.14265919, 0
626, 2774683947, -0.40868622, 0.5224729, 0.0940117, 0.74240696, 0.013601069, 0.20694962, -0.2600479, 0
627, 2774700614, -0.40932852, 0.5223201, 0.09446354, 0.74210334, -0.084631406, 0.29175872, -0.21046448, 0
629, 2774733948, -0.41053775, 0.52221686, 0.096031904, 0.7413062, -0.26249966, 0.40532455, 0.044060707, 0
630, 2774750615, -0.41127384, 0.52227634, 0.09721718, 0.74070144, -0.25247425, 0.33473858, 0.06893635, 0
633, 2774800616, -0.43098426, 0.4963738, 0.07410164, 0.74992216, 0.014568182, 3.593379, 2.172346, 0
634, 2774817283, -0.4352966, 0.4920329, 0.0652566, 0.751113, -0.40837073, -1.437792, -0.34515858, 0
635, 2774833950, -0.43818069, 0.4906489, 0.060733277, 0.75072074, -0.16347824, 1.619699, 0.3620243, 0
637, 2774867284, -0.44080657, 0.49029094, 0.056276128, 0.749764, -0.4117122, 0.020269273, 0.25545788, 0
638, 2774883951, -0.43978238, 0.49108148, 0.058528163, 0.74967545, -0.62480164, 0.80863446, 0.83832645, 0
639, 2774900618, -0.43721375, 0.49238926, 0.06352631, 0.7499135, -0.3808781, 0.6352404, 0.5960245, 0
641, 2774933952, -0.43014112, 0.49519038, 0.0778694, 0.7508063, -0.16252019, 0.21090627, 0.8680687, 0
642, 2774950619, -0.426403, 0.4974653, 0.08564685, 0.75058794, 0.04372871, -0.44565198, 0.44466686, 0
643, 2774967286, -0.4238006, 0.5004889, 0.09195464, 0.7493044, 0.22235812, -0.73575354, -0.050009727, 0
645, 2775000620, -0.42232406, 0.5066244, 0.09907732, 0.7450949, 0.25946036, 0.1491721, -0.49761868, 0
647, 2775033954, -0.42348057, 0.51036966, 0.10314351, 0.74132115, 0.0847288, 0.22013724, -0.16884613, 0
649, 2775067288, -0.42388, 0.51312536, 0.10674104, 0.73867655, 0.19053587, -0.531524, -0.24383545, 0
650, 2775083955, -0.42308372, 0.5143689, 0.10852626, 0.73800784, 0.3047486, -0.6099061, -0.1502285, 0
651, 2775100622, -0.422044, 0.5151497, 0.10994117, 0.73784906, 0.22025786, -0.50583667, 0.057575226, 0
653, 2775133956, -0.4196705, 0.5159396, 0.111249544, 0.73845446, -0.022244306, -0.4942885, 0.6089411, 0
654, 2775150623, -0.41838884, 0.51666355, 0.11100705, 0.738712, 0.17240235, -0.48241562, 0.40000916, 0
656, 2775183957, -0.41589242, 0.5193592, 0.10919747, 0.7385012, 0.34141064, -0.14440289, -0.3476162, 0
657, 2775200624, -0.41474742, 0.520095, 0.107945256, 0.7388113, 0.1052909, 0.07893248, -0.40752506, 0
658, 2775217291, -0.41393718, 0.51989293, 0.1070528, 0.7395374, -0.3642085, 0.4435961, 0.19012356, 0
660, 2775250625, -0.41388988, 0.5189292, 0.107260175, 0.7402105, -0.5168358, 0.681315, 0.99752045, 0
661, 2775267292, -0.41492376, 0.5186745, 0.10784331, 0.73972535, -0.08146416, 0.6268039, 0.51668453, 0
662, 2775283959, -0.41645128, 0.51850873, 0.10849432, 0.7388874, 0.25282544, 0.7136866, -0.13720131, 0
664, 2775317293, -0.41909334, 0.5182199, 0.10965609, 0.7374232, 0.31312922, 0.60024863, -0.69061565, 0
665, 2775333960, -0.4199482, 0.5178155, 0.11035122, 0.7371173, 0.1484827, 0.36798993, -0.498271, 0
666, 2775350627, -0.42053527, 0.51735836, 0.11130123, 0.7369607, 0.018557949, 0.124956705, -0.22152615, 0
668, 2775383961, -0.42138442, 0.517014, 0.11286271, 0.7364797, 0.21223968, -0.19271968, -0.43515205, 0
669, 2775400628, -0.4216259, 0.5171363, 0.11317879, 0.73620707, 0.35805735, 0.029356861, -0.65080357, 0
670, 2775417295, -0.42167228, 0.51740664, 0.1133401, 0.7359656, 0.3427553, 0.29250973, -0.72176933, 0
672, 2775450629, -0.4214448, 0.51777416, 0.113923594, 0.7357474, 0.19385642, 0.32701778, -0.19338322, 0
674, 2775483963, -0.42147696, 0.5178236, 0.11448153, 0.7356076, 0.015775664, 0.17985027, 0.23040962, 0
676, 2775517297, -0.42204526, 0.51772386, 0.11485014, 0.73529446, 0.17765683, 0.4734888, 0.12826061, 0
677, 2775533964, -0.42261454, 0.5174973, 0.11522232, 0.7350688, 0.23459321, 0.58215714, 0.15324688, 0
679, 2775567298, -0.42422628, 0.51725, 0.116386876, 0.73413026, 0.06521507, 0.23236977, 0.30882072, 0
680, 2775583965, -0.42523962, 0.5169705, 0.11697971, 0.73364633, 0.05272219, 0.13337487, 0.23059177, 0
681, 2775600632, -0.42626008, 0.5166816, 0.11749646, 0.7331749, 0.065904416, 0.11726339, 0.07703018, 0
683, 2775633966, -0.42785653, 0.51615626, 0.11791199, 0.73254836, 0.2713808, 0.04611318, -0.24649811, 0
684, 2775650633, -0.4283477, 0.51601386, 0.11798243, 0.7323502, 0.23080927, 0.0573028, -0.243289, 0
685, 2775667300, -0.42876914, 0.5158261, 0.11799105, 0.7322345, 0.13242173, 0.061531328, -0.15620041, 0
687, 2775700634, -0.4296333, 0.5155338, 0.11811654, 0.7319133, 0.14075838, 0.1258891, -0.12858772, 0
692, 2775783969, -0.43040818, 0.51709074, 0.11682225, 0.73056656, 0.32633755, -0.08760121, -0.26639843, 0
693, 2775800636, -0.4298289, 0.5174044, 0.11639662, 0.7307532, 0.22220273, 0.09202397, 0.066596985, 0
701, 2775933972, -0.42704612, 0.5192276, 0.11626994, 0.73111165, 0.014901368, -0.092602424, 0.034905434, 0
704, 2775983973, -0.4268192, 0.5377919, 0.17226806, 0.7063552, -5.1624527, -24.164927, -4.688109, 1024
706, 2776017307, -0.42357033, 0.5552203, 0.13640836, 0.70265204, -3.9049485, 11.961957, -2.890016, 0
707, 2776033974, -0.41368073, 0.55978787, 0.13880503, 0.7044484, 0.90255135, 5.2224317, -3.6002274, 0
710, 2776083975, -0.41762927, 0.5592803, 0.13760668, 0.70275486, -0.3385521, 0.77914983, 0.8672495, 0
714, 2776150643, -0.41635233, 0.55639523, 0.14625679, 0.7040544, -0.28332895, -0.6099628, 0.4855442, 0
715, 2776167310, -0.4156381, 0.5545932, 0.14563188, 0.7060249, -0.084670775, -0.3016144, -0.033093452, 0
716, 2776183977, -0.41523218, 0.55269486, 0.14533934, 0.7078103, 0.056002498, -0.026697394, -0.29612732, 0
722, 2776283979, -0.41763428, 0.5441678, 0.13949552, 0.7141516, -0.092520885, -0.123602666, 0.06032753, 0
723, 2776300646, -0.41780514, 0.54318064, 0.13779722, 0.71513236, -0.10986104, -0.06582356, 0.24063969, 0
724, 2776317313, -0.41756117, 0.5426024, 0.13640441, 0.7159803, -0.19513072, 0.20224302, 0.11676407, 0
726, 2776350647, -0.41723782, 0.54162604, 0.13507769, 0.7171586, -0.23336649, 0.6126977, 0.10127258, 0
727, 2776367314, -0.41780615, 0.54073256, 0.13502824, 0.71751106, -0.2554803, 0.6182698, 0.18665695, 0
728, 2776383981, -0.41874915, 0.53973407, 0.13557576, 0.7176101, -0.26384985, 0.43970093, 0.20746613, 0
730, 2776417315, -0.4202218, 0.5383219, 0.13738552, 0.71746564, 0.09561764, 0.26502913, -0.21991825, 0
731, 2776433982, -0.4202543, 0.5376986, 0.13746339, 0.7178992, 0.23855071, -0.048628483, -0.5075655, 0
733, 2776467316, -0.41916007, 0.5364379, 0.13369118, 0.72019064, 0.2022335, 0.18307689, -0.10272312, 0
734, 2776483983, -0.4179774, 0.5361183, 0.12996215, 0.7217968, 0.15048085, 0.40183672, -0.10208225, 0
737, 2776533984, -0.41623834, 0.52989614, 0.11510206, 0.7298739, -0.04383784, 0.14618619, -0.18064499, 0
738, 2776550651, -0.41660458, 0.52855766, 0.11348036, 0.73088866, 0.02101678, -0.08638586, -0.06755829, 0
739, 2776567318, -0.41720402, 0.5277765, 0.11313205, 0.7311653, -0.030940134, 0.1819335, 0.11987591, 0
741, 2776600652, -0.41853988, 0.52691257, 0.11321854, 0.7310114, 0.15221496, -0.038412265, 0.054216385, 0
742, 2776617319, -0.41909122, 0.5265926, 0.11317113, 0.73093355, 0.21046308, -0.06528075, -0.012482643, 0
743, 2776633986, -0.41939837, 0.5264479, 0.11308213, 0.7308754, 0.23196883, -0.008729857, -0.054112434, 0
745, 2776667320, -0.41951254, 0.52648723, 0.11288855, 0.73081136, 0.26591858, 0.16486841, -0.1773367, 0
746, 2776683987, -0.4194759, 0.52652264, 0.112843044, 0.7308138, 0.23460974, 0.16700788, -0.1461134, 0
747, 2776700654, -0.41932756, 0.5265554, 0.11285471, 0.7308736, 0.1659576, 0.048929, -0.033133507, 0
749, 2776733988, -0.418947, 0.5265299, 0.11273237, 0.73112893, 0.14356337, 0.063668445, 0.11487293, 0
750, 2776750655, -0.41877753, 0.5266035, 0.11269611, 0.73117864, 0.15875195, 0.014028455, 0.008396149, 0
751, 2776767322, -0.41859245, 0.526722, 0.11267677, 0.7312024, 0.12554637, -0.0031386807, -0.060548782, 0
753, 2776800656, -0.4179023, 0.52692217, 0.112507366, 0.7314789, 0.053245258, 0.1078792, -0.052226067, 0
754, 2776817323, -0.41763502, 0.52691686, 0.112553686, 0.7316283, 0.0736627, 0.19023657, 0.00784874, 0
755, 2776833990, -0.41747522, 0.5269572, 0.11271936, 0.73166496, 0.09758013, 0.15915854, 0.030954361, 0
757, 2776867324, -0.4173145, 0.5272763, 0.113029085, 0.73147887, 0.17261723, -0.0069229784, -0.0023155212, 0
758, 2776883991, -0.4171344, 0.5274683, 0.112994626, 0.73144853, 0.13648592, -0.023358496, -0.08081627, 0
760, 2776917325, -0.41647375, 0.5277338, 0.112654805, 0.7316858, 0.15544161, 0.06760071, -0.08119202, 0
761, 2776933992, -0.4160661, 0.5277218, 0.11240603, 0.7319647, 0.08231447, 0.064790815, 0.015786171, 0
764, 2776983993, -0.4147986, 0.5276585, 0.11157618, 0.73285604, 0.03506413, 0.08614156, -0.019467354, 0
765, 2777000660, -0.41455173, 0.52776647, 0.1113895, 0.7329464, 0.021465339, 0.18339215, -0.0688715, 0
766, 2777017327, -0.41440874, 0.5278361, 0.11130315, 0.73299026, 0.0784305, 0.21220611, -0.03482914, 0
768, 2777050661, -0.41412747, 0.5279609, 0.11134899, 0.7330524, 0.12592605, 0.027893523, 0.0074501038, 0
769, 2777067328, -0.41378656, 0.52807564, 0.11128762, 0.73317146, 0.14798933, -0.010306406, 0.008249283, 0
772, 2777117329, -0.41241616, 0.5283539, 0.11089836, 0.73380184, -0.025155606, 0.06641486, -0.062116623, 0
773, 2777133996, -0.41212943, 0.52850986, 0.11086075, 0.7338563, -0.07284448, 0.06768431, 0.013890266, 0
774, 2777150663, -0.41182083, 0.52866316, 0.11073651, 0.733938, -0.028949788, 0.059012227, 0.072758675, 0
776, 2777183997, -0.41133416, 0.52884656, 0.11029127, 0.73414576, 0.09715819, 0.012554499, 0.04261017, 0
777, 2777200664, -0.41089773, 0.5289417, 0.10989466, 0.734381, 0.08222373, -0.028154027, -0.010795593, 0
780, 2777250665, -0.40968543, 0.5291609, 0.10898275, 0.7350362, -0.1340536, 0.17088884, -0.040605545, 0
781, 2777267332, -0.40950564, 0.52924216, 0.108943544, 0.73508346, -0.11881991, 0.13366488, 0.053966522, 0
782, 2777283999, -0.40959308, 0.52933234, 0.108962305, 0.7349671, -0.03977136, 0.06103882, 0.08364773, 0
784, 2777317333, -0.46343866, 0.4480547, 0.06378783, 0.7618474, -9.896202, -12.331997, 6.580778, 1024
785, 2777334000, -0.45477167, 0.44772524, 0.0644911, 0.76718587, 1.285151, 14.486919, 5.3502445, 0
787, 2777367334, -0.4577257, 0.45887923, 0.06374174, 0.7588561, 4.444179, 1.628691, -12.289616, 0
788, 2777384001, -0.4665529, 0.4521415, 0.060854077, 0.75776106, 0.45043242, 4.272658, -1.2160368, 0
789, 2777400668, -0.4641465, 0.4596294, 0.072455205, 0.75370264, -3.325784, 1.36752, 6.546791, 0
791, 2777434002, -0.44058597, 0.48434675, 0.086637236, 0.7508628, -1.7034767, -1.7043368, 2.3353796, 0
793, 2777467336, -0.43222934, 0.4968938, 0.08996423, 0.74712086, -0.24025998, -0.61727864, 0.6554775, 0
796, 2777517337, -0.42564523, 0.50286406, 0.095772356, 0.7461839, 0.44085103, 0.22590677, -0.77086544, 0
797, 2777534004, -0.42469683, 0.5026463, 0.09766544, 0.7466253, 0.42300236, 0.6297599, -1.1812849, 0
799, 2777567338, -0.4256276, 0.49950826, 0.09902396, 0.748021, 0.5798851, 0.30488765, -0.1213007, 0
800, 2777584005, -0.42764318, 0.49659133, 0.0982724, 0.74891233, -0.18215685, 0.32039508, 0.94438076, 0
801, 2777600672, -0.4296602, 0.49448904, 0.09753399, 0.7492453, -0.81494623, 0.4513691, 1.6354942, 0
803, 2777634006, -0.43218288, 0.49451074, 0.09768638, 0.74775875, -0.77637124, 1.08157, 1.2569637, 0
804, 2777650673, -0.43224996, 0.49671513, 0.09803563, 0.7462116, -0.2644531, 1.0878654, 0.38554478, 0
805, 2777667340, -0.4312579, 0.4998347, 0.09843275, 0.7446487, -0.11480585, 0.7458585, -0.15317917, 0
807, 2777700674, -0.42744422, 0.5061855, 0.10096233, 0.7422148, 0.22360107, 0.1902311, -1.1083517, 0
808, 2777717341, -0.42485076, 0.5092734, 0.10151172, 0.7415163, 0.14189106, 0.083377846, -1.5515614, 0
811, 2777767342, -0.42238283, 0.51250124, 0.102277264, 0.74059653, 0.809885, -0.09292495, -1.3159494, 0
812, 2777784009, -0.4220454, 0.51307064, 0.10200834, 0.74043167, 0.73336303, 0.10846949, -1.1283379, 0
814, 2777817343, -0.4213579, 0.51322675, 0.10049937, 0.74092126, 0.38969857, 0.43342963, 0.02508068, 0
815, 2777834010, -0.42076015, 0.5131965, 0.10002417, 0.74134606, 0.24653035, 0.3824566, 0.5819216, 0
816, 2777850677, -0.42006844, 0.5132904, 0.09986136, 0.7416952, 0.1362955, 0.18739974, 0.7282982, 0
818, 2777884011, -0.41960174, 0.5130749, 0.09983069, 0.7421125, -0.058453184, 0.17487441, 0.5864601, 0
820, 2777917345, -0.42159277, 0.51249784, 0.10070993, 0.7412636, -0.20168991, 0.40305522, 0.43087578, 0
822, 2777950679, -0.42440635, 0.5122782, 0.10248518, 0.7395645, 0.28892788, 0.118676215, 0.15020275, 0
823, 2777967346, -0.42516136, 0.5122678, 0.10297393, 0.7390699, 0.43528652, -0.16141525, 0.033563614, 0
824, 2777984013, -0.42539, 0.5120257, 0.10280019, 0.7391303, 0.39966232, -0.2790202, -0.09359932, 0
826, 2778017347, -0.4245674, 0.51153463, 0.1016784, 0.74009794, -0.036449514, 0.10605522, -0.18732452, 0
827, 2778034014, -0.42422107, 0.511527, 0.10152683, 0.7403226, -0.18861575, 0.31825283, -0.33654308, 0
828, 2778050681, -0.42428052, 0.51168597, 0.10173927, 0.74014944, -0.17707105, 0.43061972, -0.41229534, 0
830, 2778084015, -0.4256658, 0.51202404, 0.10287181, 0.73896277, 0.32569715, 0.38589925, -0.30889416, 0
831, 2778100682, -0.42624414, 0.51219594, 0.10330339, 0.73845, 0.54217976, 0.011702132, -0.12270546, 0
832, 2778117349, -0.42633954, 0.5124571, 0.10330575, 0.7382133, 0.5530224, -0.43428165, -0.06035614, 0
834, 2778150683, -0.42538592, 0.5131751, 0.10208559, 0.7384344, 0.15898663, -0.23908253, -0.2589445, 0
835, 2778167350, -0.42491323, 0.5134756, 0.10152712, 0.7385746, -0.034512248, 0.093841694, -0.3096447, 0
836, 2778184017, -0.42497754, 0.51370555, 0.10128053, 0.7384116, -0.15658037, 0.24449813, -0.29209042, 0
839, 2778234018, -0.42655164, 0.51416373, 0.101843044, 0.7371064, 0.46867153, -0.5227014, 0.1511364, 0
841, 2778267352, -0.4250247, 0.51459605, 0.10077925, 0.7378327, 0.15148836, -1.1305712, 0.6025419, 0
842, 2778284019, -0.42342597, 0.5150532, 0.09971374, 0.73857725, 0.06842284, -0.8619614, 0.5010052, 0
843, 2778300686, -0.42165026, 0.515605, 0.09841635, 0.7393819, 0.0843196, -0.41933423, 0.21063328, 0
845, 2778334020, -0.41891444, 0.51582956, 0.09593707, 0.74110407, -0.32670888, 0.093147345, 0.19873619, 0
846, 2778350687, -0.41830444, 0.51586497, 0.09510345, 0.7415313, -0.5119679, 0.025120957, 0.2554674, 0
847, 2778367354, -0.41834027, 0.5159121, 0.094475485, 0.74155855, -0.3871556, -0.0911449, 0.14002609, 0
849, 2778400688, -0.41841102, 0.51617646, 0.093351826, 0.74147695, 0.06770128, -0.2669032, -0.21517181, 0
850, 2778417355, -0.41787964, 0.51614, 0.0923019, 0.74193347, -0.03922258, -0.33213344, -0.11890221, 0
851, 2778434022, -0.417104, 0.51599336, 0.090883374, 0.74264646, -0.32518813, -0.3262186, 0.09959698, 0
854, 2778484023, -0.41542855, 0.5155098, 0.0872626, 0.7443536, -0.3972122, 0.25692815, -0.04656887, 0
855, 2778500690, -0.41539842, 0.5154468, 0.08670426, 0.74447966, -0.30726534, 0.39774498, -0.14182186, 0
857, 2778534024, -0.41548362, 0.5149411, 0.086106226, 0.7448513, -0.21100375, 0.1753925, 0.18008995, 0
858, 2778550691, -0.4152338, 0.5145889, 0.08587001, 0.7452612, -0.33727863, 0.054490782, 0.3455372, 0
859, 2778567358, -0.4148537, 0.51437277, 0.0857084, 0.74564046, -0.49045995, 0.08677141, 0.51198864, 0
861, 2778600692, -0.41522384, 0.51369643, 0.086087145, 0.7458571, -0.60828084, 0.7217537, 0.57781696, 0
862, 2778617359, -0.41666245, 0.51285416, 0.08702847, 0.74552494, -0.4885801, 0.85762155, 0.57520676, 0
863, 2778634026, -0.4184028, 0.511966, 0.08776862, 0.7450739, -0.35359797, 0.74240047, 0.4902315, 0
865, 2778667360, -0.42127228, 0.51036334, 0.08945199, 0.7443559, -0.567869, 0.2262987, -0.037617683, 0
866, 2778684027, -0.4229336, 0.5089044, 0.09079725, 0.74425006, -0.47325042, 0.25233316, -0.18213749, 0
869, 2778734028, -0.42803937, 0.50656116, 0.09290667, 0.74266756, 0.097743824, 0.11344545, -0.94080544, 0
870, 2778750695, -0.4292051, 0.5058706, 0.093636066, 0.74237394, 0.22749585, 0.24503055, -0.423522, 0
872, 2778784029, -0.4297691, 0.50456864, 0.094276614, 0.7428522, 0.1894919, -0.102328144, 0.20955658, 0
873, 2778800696, -0.4297326, 0.5038943, 0.0940174, 0.74336374, 0.1318828, -0.10185407, 0.2526493, 0
874, 2778817363, -0.42962235, 0.50345224, 0.09365302, 0.743773, -0.009594151, 0.07416754, 0.034000397, 0
876, 2778850697, -0.43051183, 0.50199914, 0.09492559, 0.74407953, 0.17300873, 0.35906407, -0.37529755, 0
877, 2778867364, -0.43111348, 0.501373, 0.09600877, 0.7440144, -0.047966573, 0.4416977, -0.4752407, 0
878, 2778884031, -0.43242705, 0.5006489, 0.09726635, 0.7435761, -0.001066304, 0.47438243, -0.2806654, 0
880, 2778917365, -0.43515277, 0.49943167, 0.09952608, 0.7425048, 0.53153425, -0.28857377, 0.047304153, 0
881, 2778934032, -0.43574333, 0.49901086, 0.10012787, 0.74236035, 0.63151395, -0.6243822, -0.04522991, 0
884, 2778984033, -0.43578795, 0.49752265, 0.10020914, 0.7433215, 0.15310393, 0.48095596, 0.21343517, 0
885, 2779000700, -0.43630844, 0.49692163, 0.100536905, 0.74337393, 0.04921343, 0.5297553, 0.32211208, 0
886, 2779017367, -0.43708235, 0.49599096, 0.10073553, 0.7435139, -0.05977733, 0.19518001, 0.24698544, 0
888, 2779050701, -0.43810815, 0.49446934, 0.10079881, 0.7439152, -0.17530188, -0.48305485, -0.306633, 0
890, 2779084035, -0.43962938, 0.49185124, 0.10042394, 0.74480337, -0.30656087, 0.13117824, -0.6951437, 0
892, 2779117369, -0.4433741, 0.4902926, 0.10097781, 0.7435353, 0.32999873, 0.38300934, -1.3985815, 0
893, 2779134036, -0.44513905, 0.49048337, 0.1007958, 0.74237865, 0.80777514, -0.49158904, -1.7777014, 0
896, 2779184037, -0.44602695, 0.48916194, 0.09390588, 0.7436202, -0.24975888, -1.4700265, -0.10412979, 0
897, 2779200704, -0.4463079, 0.48781094, 0.090012655, 0.7448194, -0.12998904, -0.82982504, 0.39399433, 0
899, 2779234038, -0.44713417, 0.48367962, 0.08130187, 0.7480132, -0.8008066, -0.013311761, 1.2949982, 0
900, 2779250705, -0.44897282, 0.4804922, 0.077317715, 0.7493872, -0.9659621, 0.38755426, 1.7923203, 0
901, 2779267372, -0.44992626, 0.47695154, 0.07415556, 0.75139415, -1.0790261, -0.12087178, 1.5671034, 0
903, 2779300706, -0.45301783, 0.46961907, 0.06709285, 0.75481117, -0.4992399, -1.779865, 0.44352245, 0
904, 2779317373, -0.45328748, 0.46608186, 0.06212145, 0.7572633, -0.609936, -1.7399249, 0.29405499, 0
905, 2779334040, -0.45171532, 0.4631226, 0.05684544, 0.76042616, -0.715118, -1.0944377, -0.96115875, 0
907, 2779367374, -0.4472738, 0.45701036, 0.045822967, 0.7674612, -1.4548895, -1.0168327, -1.0969076, 0
908, 2779384041, -0.445914, 0.45306936, 0.04164288, 0.7708199, -1.6157328, -0.7691624, -0.8246565, 0
909, 2779400708, -0.44490752, 0.44896188, 0.03773462, 0.7739995, -1.9760287, -0.6904962, -0.67434025, 0
911, 2779434042, -0.44548255, 0.44096193, 0.03099047, 0.77855384, -1.7196182, -0.33815968, -0.7988939, 0
913, 2779467376, -0.44768608, 0.43234205, 0.024561651, 0.7823446, -2.095408, -0.50402874, -0.36865902, 0
915, 2779500710, -0.44997865, 0.42398176, 0.020414788, 0.78571665, -2.620921, -0.93830526, -0.11806393, 0
916, 2779517377, -0.45058745, 0.42010933, 0.019394051, 0.78747165, -2.4408362, -0.92320096, -0.8178053, 0
917, 2779534044, -0.45120287, 0.41628465, 0.01855569, 0.7891689, -2.3202217, -0.94511896, -0.78284836, 0
919, 2779567378, -0.45272684, 0.4088745, 0.01711144, 0.79219675, -2.2942147, -0.74809045, -1.6604261, 0
920, 2779584045, -0.45339975, 0.4053413, 0.017006103, 0.79362863, -2.735224, -1.201467, -1.3014631, 0
922, 2779617379, -0.45572352, 0.39825314, 0.017399713, 0.7958745, -2.724976, -0.75289124, -1.1869392, 0
923, 2779634046, -0.45725262, 0.39498785, 0.018121034, 0.7966083, -2.739709, -0.91513944, -0.9604397, 0
924, 2779650713, -0.4580633, 0.39221194, 0.019206233, 0.7974883, -2.7619853, -1.0490903, -1.5263042, 0
926, 2779684047, -0.4617116, 0.38640776, 0.020646974, 0.7981814, -3.161924, -2.0589254, -0.8371134, 0
928, 2779717381, -0.4664377, 0.38131163, 0.021415383, 0.79786426, -3.1406505, -1.4226122, 0.14273167, 0
930, 2779750715, -0.47176892, 0.37742448, 0.021188304, 0.7965831, -3.6483, -1.6842005, 0.9830704, 0
931, 2779767382, -0.4757159, 0.37589803, 0.021292899, 0.794953, -4.1554604, -2.0965874, 1.0765152, 0
932, 2779784049, -0.48023492, 0.37459493, 0.021713365, 0.79283684, -4.3822775, -2.9626625, 1.2219515, 0
934, 2779817383, -0.48967278, 0.37485516, 0.022191431, 0.7869055, -3.2500932, -2.4480422, 2.0314379, 0
935, 2779834050, -0.49343187, 0.37695792, 0.022033155, 0.78355014, -2.8021674, -1.8223251, 1.8196621, 0
936, 2779850717, -0.4960661, 0.379892, 0.021851476, 0.7804689, -1.2223988, -0.59761226, 1.6713066, 0
938, 2779884051, -0.49872363, 0.3865391, 0.022852995, 0.77546674, 1.119563, 1.0917013, 2.7397966, 0
939, 2779900718, -0.49847466, 0.38857406, 0.02388199, 0.7745783, 2.3052971, 0.0606128, 3.9258938, 0
940, 2779917385, -0.4969248, 0.38952047, 0.024991784, 0.7750637, 2.96631, -0.72487485, 4.073803, 0
943, 2779967386, -0.48766148, 0.38571483, 0.031902406, 0.7825606, 2.1431968, -0.25620776, 2.698637, 0
944, 2779984053, -0.48469839, 0.38260606, 0.038014375, 0.78564847, 1.4179918, -0.27201337, 2.4600048, 0
947, 2780034054, -0.4788443, 0.37523735, 0.05801262, 0.791548, -0.741919, -0.14393899, 1.7731018, 0
948, 2780050721, -0.47805923, 0.37426364, 0.06472704, 0.7919629, -1.5236322, 0.5106713, 1.4092245, 0
950, 2780084055, -0.47764558, 0.37593558, 0.07884228, 0.7901391, -0.9272876, -0.42560565, -0.39921665, 0
951, 2780100722, -0.47937357, 0.37667874, 0.08737311, 0.78783804, -0.7593196, -0.29229483, -1.0068464, 0
953, 2780134056, -0.4823261, 0.3779842, 0.102516755, 0.7835741, -0.54993844, -0.82965356, -1.5262947, 0
954, 2780150723, -0.4830579, 0.37936544, 0.10950762, 0.7815072, -0.45766705, -1.2391608, -1.4123096, 0
955, 2780167390, -0.48319626, 0.3812164, 0.11689686, 0.77944803, -0.22732659, -0.99653286, -1.382946, 0
957, 2780200724, -0.48323697, 0.38494805, 0.13142216, 0.7752637, 0.042606942, -2.0147886, -1.4435997, 0
959, 2780234058, -0.485372, 0.38962847, 0.14416346, 0.7693043, 0.69264716, -1.6125089, -1.8737454, 0
961, 2780267392, -0.48368883, 0.40193444, 0.15511675, 0.761867, 1.224431, -1.7717242, -2.4677033, 0
962, 2780284059, -0.4801067, 0.409188, 0.15905835, 0.75945485, 1.8397511, -2.368092, -2.240067, 0
963, 2780300726, -0.4772538, 0.41517013, 0.16139948, 0.75751007, 2.805099, -2.2243545, -2.2073808, 0
965, 2780334060, -0.47441417, 0.4228307, 0.16167557, 0.7549933, 3.2276714, -0.58520216, -2.3057256, 0
966, 2780350727, -0.47436512, 0.42390105, 0.1617929, 0.7543987, 2.0678816, 0.54208535, -2.2836094, 0
967, 2780367394, -0.47651857, 0.42328918, 0.16021033, 0.7537225, 0.73778564, 0.87270635, -0.2339716, 0
969, 2780400728, -0.48307654, 0.42257813, 0.15882728, 0.7502314, 0.28956798, 1.4315758, -0.19361019, 0
970, 2780417395, -0.48797727, 0.4227954, 0.15717492, 0.74727964, 1.1678969, -0.016673842, -0.9390526, 0
971, 2780434062, -0.49186277, 0.42340514, 0.15292265, 0.74526656, 2.0274005, -1.6032484, -1.7343016, 0
973, 2780467396, -0.49327236, 0.41824704, 0.14326319, 0.74915695, 1.9176127, -0.48228028, -1.6620789, 0
974, 2780484063, -0.49337697, 0.4114827, 0.1369774, 0.7539941, 0.67148244, 1.2331145, 0.14223099, 0
976, 2780517397, -0.49568295, 0.39347565, 0.12563327, 0.76400286, -2.6315885, 1.7398653, 3.3314886, 0
977, 2780534064, -0.49773833, 0.3862182, 0.12207585, 0.76694095, -3.1682444, 1.4644604, 0.23756409, 0
978, 2780550731, -0.4999634, 0.379462, 0.12027216, 0.76914793, -2.5033438, -1.0593681, -0.8957138, 0
980, 2780584065, -0.5057579, 0.36606696, 0.11701532, 0.772347, -2.3049066, -2.6317227, -2.1467495, 0
981, 2780600732, -0.50959307, 0.3592938, 0.11358473, 0.77351797, -3.2010884, -1.9575703, -0.99399185, 0
982, 2780617399, -0.5124094, 0.35378754, 0.109471455, 0.7747874, -3.192107, -1.4640069, -1.4514112, 0
985, 2780667400, -0.52250755, 0.3432813, 0.10143941, 0.773862, -3.8014002, -2.8217943, -0.3359728, 0
988, 2780717401, -0.5327344, 0.34463257, 0.09060752, 0.7676077, -3.9825132, -3.6498108, 0.44490242, 0
989, 2780734068, -0.53581226, 0.3449817, 0.08763594, 0.76565105, -3.012618, -3.2510166, 0.65071106, 0
990, 2780750735, -0.5389025, 0.34550375, 0.087304994, 0.76328087, -3.673527, -2.0776346, 1.4923887, 0
992, 2780784069, -0.5434139, 0.35095942, 0.08996481, 0.75726086, -0.9884337, 0.11701819, 1.2469721, 0
993, 2780800736, -0.54350126, 0.35517323, 0.09059279, 0.75515556, 1.1580994, 0.34792218, 1.0254316, 0
994, 2780817403, -0.54364896, 0.35713908, 0.089986846, 0.754194, 1.8560727, 1.0568221, 2.022832, 0
996, 2780850737, -0.54105204, 0.35866106, 0.08768477, 0.755609, 2.2188745, 1.8190424, 2.6568213, 0
997, 2780867404, -0.54118216, 0.35564393, 0.08680284, 0.7570425, 1.506518, 2.9693959, 3.2724524, 0
998, 2780884071, -0.53981143, 0.3549811, 0.08624499, 0.7583946, 1.0722919, 1.7349013, 3.1714153, 0
1000, 2780917405, -0.5315122, 0.3548881, 0.08556877, 0.7643533, 0.81420726, 0.4637819, 1.534648, 0
1003, 2780967406, -0.521714, 0.35081476, 0.08936188, 0.7725066, -1.1315696, 0.80569303, 1.3879223, 0
1004, 2780984073, -0.5194999, 0.35242698, 0.091531165, 0.77301073, -1.2069485, 0.734727, 1.1946278, 0
1005, 2781000740, -0.51697326, 0.35533142, 0.09446693, 0.77302176, -0.45331568, 0.18747753, 0.47943592, 0
1007, 2781034074, -0.514934, 0.35939828, 0.101932645, 0.77155316, 0.66244996, -0.4867701, -0.19415474, 0
1008, 2781050741, -0.5136891, 0.36177057, 0.106919706, 0.7705988, 0.6956827, -0.7135868, -0.88833714, 0
1009, 2781067408, -0.5113672, 0.36474234, 0.11184864, 0.77004224, 0.99267703, -0.43257612, -1.6697474, 0
1011, 2781100742, -0.5044285, 0.37090236, 0.1228102, 0.77000636, 0.9498509, -0.7400885, -1.1619854, 0
1012, 2781117409, -0.5010069, 0.3734381, 0.12852849, 0.7700813, 0.4727783, -0.5948118, -1.2753677, 0
1013, 2781134076, -0.4983909, 0.37482768, 0.13476181, 0.770038, -0.09958476, -0.43036458, -1.0288506, 0
1015, 2781167410, -0.4939948, 0.37950283, 0.14611739, 0.7685085, -0.96364594, 0.028839989, 0.6374092, 0
1017, 2781200744, -0.48462677, 0.3899387, 0.15453568, 0.7676015, -0.53906536, -0.25056562, 0.40023136, 0
1019, 2781234078, -0.4730156, 0.39978683, 0.16472179, 0.76766014, 0.48302954, -0.5515189, -0.38834763, 0
1020, 2781250745, -0.4673993, 0.4034654, 0.17010513, 0.76800174, 0.5336004, -0.29576498, -0.8933449, 0
1021, 2781267412, -0.4624046, 0.406463, 0.17559537, 0.76820874, 0.38386875, -0.11579458, -1.1497755, 0
1023, 2781300746, -0.45239908, 0.413734, 0.18319157, 0.7685108, 0.40377367, 0.5328249, -0.81643677, 0
1024, 2781317413, -0.446464, 0.4179675, 0.18444175, 0.7693912, 0.49395514, 1.1554072, -1.5680742, 0
1025, 2781334080, -0.44063118, 0.421896, 0.1854359, 0.7703699, 1.1619343, 1.2119418, -1.591589, 0
1027, 2781367414, -0.42888176, 0.42857513, 0.18361461, 0.7737428, 0.94468534, 1.0632379, -1.7277889, 0
1028, 2781384081, -0.42367858, 0.43163317, 0.1814433, 0.7754201, 0.63110596, 1.134488, -1.3169279, 0
1029, 2781400748, -0.41983032, 0.43493634, 0.1776123, 0.7765535, 0.37565228, 1.1325536, -0.9735584, 0
1032, 2781450749, -0.4098808, 0.45414403, 0.15823641, 0.77506196, 0.27097145, -0.26815888, -0.7532711, 0
1034, 2781484083, -0.4068863, 0.4679473, 0.13918579, 0.7720782, 1.2977598, 0.03654828, -0.8495245, 0
1035, 2781500750, -0.40593237, 0.47467119, 0.12908012, 0.7702293, 0.91620135, 0.973243, -1.0810394, 0
1036, 2781517417, -0.40462118, 0.4797843, 0.12104915, 0.7690543, 1.1121519, 1.457598, -1.1974335, 0
1038, 2781550751, -0.40340692, 0.4819905, 0.10692405, 0.7704051, 0.68586594, 1.2797872, 0.04067993, 0
1039, 2781567418, -0.40457505, 0.48035392, 0.09852998, 0.77193254, 0.23162253, 0.16789576, 1.2685537, 0
1040, 2781584085, -0.40749568, 0.47855008, 0.08860139, 0.7727197, -0.7954927, -0.3873741, 1.1369076, 0
1042, 2781617419, -0.41902477, 0.4679822, 0.07736322, 0.7742315, 0.36694333, -1.1301254, -1.6676207, 0
1043, 2781634086, -0.42520314, 0.4580279, 0.07304514, 0.77722955, 0.120371535, -0.05544809, -0.8840904, 0
1046, 2781684087, -0.45032996, 0.41864592, 0.06527735, 0.78593, -3.6285145, 1.4078645, 1.580513, 0
1047, 2781700754, -0.46115464, 0.4050608, 0.06798918, 0.78654206, -2.5140092, -0.76804584, -0.13086796, 0
1048, 2781717421, -0.47218624, 0.3916479, 0.07242471, 0.78639394, -1.8627179, -2.2315261, -0.43856812, 0
1050, 2781750755, -0.49297822, 0.3676062, 0.07801681, 0.784704, -3.285866, -3.199719, 0.6985283, 0
1051, 2781767422, -0.5027071, 0.35925126, 0.07614099, 0.7825825, -2.752312, -3.4624753, 0.39301014, 0
1052, 2781784089, -0.51054066, 0.3536841, 0.07514333, 0.78013957, -2.6162765, -4.5931396, -0.5104399, 0
1054, 2781817423, -0.52019155, 0.3466581, 0.07248444, 0.77716374, -2.1158, -5.0142527, -0.42051506, 0
1055, 2781834090, -0.52024704, 0.34519, 0.07060686, 0.7779526, -2.4136972, -4.25584, -0.36388206, 0
1057, 2781867424, -0.51956177, 0.3412074, 0.070643306, 0.7801611, -3.6462595, -1.8395946, 0.90547657, 0
1058, 2781884091, -0.52160966, 0.33989713, 0.073475495, 0.77910393, -3.0866094, -0.8844021, 1.3380136, 0
1061, 2781934092, -0.52431595, 0.3531463, 0.081064746, 0.77059555, 2.2662933, 0.20782693, -0.05435753, 0
1063, 2781967426, -0.5192468, 0.3574174, 0.07993866, 0.77217484, 2.1769233, 1.3917187, 2.6901636, 0
1065, 2782000760, -0.51566964, 0.3529849, 0.08088668, 0.7764999, 0.50623965, 2.7793925, 2.925004, 0
1066, 2782017427, -0.51492417, 0.3513823, 0.082454644, 0.77755606, -0.8678456, 1.8630626, 3.04206, 0
1067, 2782034094, -0.51184386, 0.35184756, 0.08529114, 0.77907205, -0.8063133, 0.82427406, 2.543912, 0
1069, 2782067428, -0.50400394, 0.3537374, 0.091915175, 0.78256637, 0.5729019, 0.016887521, 0.6094179, 0
1070, 2782084095, -0.5003209, 0.3541379, 0.09488191, 0.78439254, 0.481219, 0.19672447, 0.26411915, 0
1071, 2782100762, -0.49681753, 0.35436913, 0.09917992, 0.7859816, -0.20117594, -0.14688332, 0.055069923, 0
1073, 2782134096, -0.49221152, 0.3566615, 0.1081591, 0.7866578, -1.23792, 0.80820125, 0.12776661, 0
1074, 2782150763, -0.48952493, 0.36026412, 0.11234446, 0.78610575, -0.60293406, 0.69358003, -0.2875576, 0
1078, 2782217431, -0.4723153, 0.37373498, 0.13308907, 0.78710634, 0.8216759, 0.1785898, -1.865283, 0
1079, 2782234098, -0.4681181, 0.37642506, 0.13850383, 0.78739756, 0.63064855, 0.3081553, -1.104392, 0
1081, 2782267432, -0.4603154, 0.38222978, 0.15015395, 0.78706586, -0.23624398, 0.8552887, -0.91611004, 0
1082, 2782284099, -0.45734912, 0.3855106, 0.15646628, 0.78596455, -0.023835395, 0.9682814, -0.6489887, 0
1084, 2782317433, -0.45164105, 0.39369565, 0.16695115, 0.7830453, 0.4609726, 0.76378345, -0.79865646, 0
1085, 2782334100, -0.44858247, 0.3976273, 0.17082343, 0.781981, 0.18248391, 1.0880399, -1.2660007, 0
1086, 2782350767, -0.44571656, 0.40037638, 0.1762404, 0.7810144, 0.7665167, 0.5513282, -0.73048973, 0
1088, 2782384101, -0.4390627, 0.40440544, 0.18782192, 0.7800074, 0.445892, 0.59815586, -0.5933485, 0
1090, 2782417435, -0.4320921, 0.40955824, 0.19801635, 0.7786889, 0.5494255, 0.2062364, -0.67331123, 0
1092, 2782450769, -0.4244779, 0.41613093, 0.20087267, 0.7786606, 0.7004277, -0.066143185, -0.6130953, 0
1094, 2782484103, -0.4189573, 0.4221961, 0.2046524, 0.77740026, 0.5485468, 0.15475757, -0.53679276, 0
1096, 2782517437, -0.41454327, 0.42916885, 0.20755395, 0.77517605, 0.1911903, 0.38084966, -0.23371029, 0
1097, 2782534104, -0.41363865, 0.43289703, 0.20808774, 0.77344126, -0.20334214, 0.28842223, -0.33540344, 0
1098, 2782550771, -0.4132955, 0.43690965, 0.20863006, 0.771219, 0.03671541, 0.11262974, 0.047896385, 0
1100, 2782584105, -0.4123595, 0.4447418, 0.20995127, 0.7668725, 0.3560792, -0.77235246, 0.026582718, 0
1101, 2782600772, -0.41177717, 0.44759566, 0.21089198, 0.7652654, 0.20560189, -0.7630143, 0.13790989, 0
1102, 2782617439, -0.4110455, 0.45055693, 0.21214409, 0.763573, 0.088267, -0.05922356, -0.0751009, 0
1104, 2782650773, -0.40884435, 0.45702553, 0.21458456, 0.76022106, 0.060171254, 0.18733549, -0.544528, 0
1105, 2782667440, -0.40769115, 0.45954388, 0.21573988, 0.7589943, 0.39617965, -0.12793851, -0.06245613, 0
1106, 2782684107, -0.40708464, 0.4621395, 0.21606234, 0.757651, 0.56773186, -0.07005343, 1.0017118, 0
1109, 2782734108, -0.40696746, 0.46871635, 0.21659261, 0.753511, -0.036675904, 0.60401815, 0.8033085, 0
1110, 2782750775, -0.40735558, 0.47103262, 0.21729985, 0.75165105, 0.016280713, 0.31298888, -0.21842766, 0
1112, 2782784109, -0.40911925, 0.47418988, 0.21922913, 0.7481395, -0.03231782, 0.26085526, -0.59922695, 0
1113, 2782800776, -0.40956473, 0.47512862, 0.21968874, 0.7471647, -0.080671914, -0.74974436, -0.40921688, 0
1115, 2782834110, -0.40932456, 0.47616526, 0.21995224, 0.74655855, 0.29960752, -1.221448, 0.121845245, 0
1116, 2782850777, -0.40851182, 0.47727072, 0.21910694, 0.74654645, 0.6983848, -0.83783084, 0.034947395, 0
1117, 2782867444, -0.40766996, 0.4789527, 0.21706162, 0.7465268, 0.91131896, -0.8273019, -0.5622549, 0
1119, 2782900778, -0.40704274, 0.4779071, 0.21145509, 0.749144, 0.049552027, -0.77512217, -1.4270573, 0
1120, 2782917445, -0.40776104, 0.47569007, 0.20866966, 0.7509431, -0.16489054, 0.48593947, -0.5931606, 0
1121, 2782934112, -0.40876982, 0.4737712, 0.20609346, 0.752318, -0.73019546, 1.1610014, -0.080472946, 0
1123, 2782967446, -0.4124109, 0.4722206, 0.19945161, 0.7530954, 0.0086584445, 0.5764603, 3.9196014E-4, 0
1124, 2782984113, -0.41491264, 0.47210884, 0.1954388, 0.7528433, 0.3456824, -0.7583979, -0.68969536, 0
1125, 2783000780, -0.41866973, 0.46957183, 0.19232306, 0.7531524, 0.4278614, -0.74504364, -1.273387, 0
1127, 2783034114, -0.4282197, 0.45799455, 0.1857075, 0.7565648, -0.0038977866, 0.64155036, -0.31669617, 0
1128, 2783050781, -0.43307558, 0.45091286, 0.18233363, 0.7588716, -0.30803624, 1.0200064, 0.54006004, 0
1129, 2783067448, -0.43767706, 0.44449317, 0.17730494, 0.76120704, 0.06190535, 1.456152, 1.196929, 0
1131, 2783100782, -0.44757846, 0.4328543, 0.15934648, 0.76611227, 0.3337562, -1.4106035, -1.1357908, 0
1132, 2783117449, -0.45254785, 0.42378595, 0.15117522, 0.76990944, 1.0206571, -1.0139773, -1.0985823, 0
1133, 2783134116, -0.45670587, 0.4096662, 0.14469701, 0.7763148, -0.40774542, -1.268376, 0.82314014, 0
1136, 2783184117, -0.47454193, 0.36667278, 0.12582538, 0.79027694, -3.3179648, -0.5103923, 0.7531462, 0
1138, 2783217451, -0.4873231, 0.348233, 0.11449951, 0.79255825, -1.1892813, -4.672752, -2.1946597, 0
1139, 2783234118, -0.49397415, 0.3395425, 0.108749166, 0.7930213, -0.92612237, -3.7816608, -1.7824192, 0
1140, 2783250785, -0.49918494, 0.33211905, 0.103297815, 0.79363066, -1.1040179, -1.1818466, -1.4802332, 0
1142, 2783284119, -0.50710595, 0.32435194, 0.09706144, 0.79260784, -1.7253906, 0.049767394, -1.2335672, 0
1143, 2783300786, -0.5107784, 0.3258534, 0.09738608, 0.78958815, -0.77931696, 0.19774069, -0.5642214, 0
1144, 2783317453, -0.515251, 0.3291696, 0.09845999, 0.7851614, -0.58723897, -0.3008756, -0.4057045, 0
1146, 2783350787, -0.52073264, 0.3370705, 0.10022436, 0.7779362, 1.488267, -0.44078597, 1.0021696, 0
1147, 2783367454, -0.52073205, 0.3393383, 0.10019095, 0.77695423, 1.7174289, 0.5210381, 2.4117537, 0
1148, 2783384121, -0.5197466, 0.3406896, 0.100205705, 0.77702075, 1.3222305, 1.3610582, 4.0457144, 0
1151, 2783434122, -0.5127783, 0.3443799, 0.10261959, 0.7797042, -0.8550832, -0.21336435, 4.4855156, 0
1152, 2783450789, -0.5116349, 0.34518504, 0.10488865, 0.7797974, -1.1706526, 0.66496223, 4.56592, 0
1154, 2783484123, -0.5122663, 0.34795046, 0.11242169, 0.77709967, -0.8010284, 1.6958627, 1.7550163, 0
1155, 2783500790, -0.5138047, 0.34978703, 0.11735, 0.7745264, -0.4985348, 0.8213801, 0.44345856, 0
1156, 2783517457, -0.5150827, 0.3518805, 0.12348603, 0.7717703, 0.0051336037, 0.008192308, -0.7922993, 0
1158, 2783550791, -0.51518977, 0.35642022, 0.13699704, 0.767323, 1.1110551, -0.45951402, -1.8701477, 0
1159, 2783567458, -0.51293784, 0.3588666, 0.14366645, 0.7664711, 1.4439238, -0.82033664, -2.5412908, 0
1160, 2783584125, -0.5103593, 0.36023766, 0.15042858, 0.7662521, 1.2209194, -0.63387996, -2.4357104, 0
1162, 2783617459, -0.50638604, 0.36190405, 0.16364107, 0.76539445, 0.5827043, 0.22909983, -1.695755, 0
1163, 2783634126, -0.5053487, 0.36295605, 0.17013457, 0.7641653, 0.44241726, 0.4421711, -1.0973873, 0
1166, 2783684127, -0.50360274, 0.3695967, 0.19031283, 0.7573457, 0.44124103, 0.39379603, -1.2123871, 0
1167, 2783700794, -0.50268793, 0.37190714, 0.19740611, 0.7550028, 0.52366114, 0.5387298, -0.91616154, 0
1169, 2783734128, -0.49910742, 0.37832326, 0.2109467, 0.75051534, 0.60819435, 0.59115726, -0.2556095, 0
1170, 2783750795, -0.49689525, 0.38106555, 0.21788654, 0.74861085, 0.5786819, 0.088312425, -0.061665535, 0
1171, 2783767462, -0.49498078, 0.3835528, 0.224368, 0.74669206, 0.7264437, -0.2702495, 0.21337032, 0
1173, 2783800796, -0.49077398, 0.3894496, 0.23606804, 0.742799, 0.20238467, 0.83002156, -0.36563873, 0
1174, 2783817463, -0.48808485, 0.3923058, 0.24203008, 0.7411474, 0.42960772, 0.016465083, -0.3874035, 0
1175, 2783834130, -0.48384246, 0.3958187, 0.24583745, 0.7408083, 0.8360398, -0.31852117, -0.12851429, 0
1177, 2783867464, -0.47445428, 0.40359187, 0.252865, 0.7403207, 1.3407458, -0.9981351, 0.3889618, 0
1178, 2783884131, -0.4695527, 0.4075592, 0.25489876, 0.74057484, 0.74427164, -0.528737, 0.20430279, 0
1181, 2783934132, -0.45783502, 0.41861176, 0.25787437, 0.7407164, 0.066921234, -0.82939667, 0.020980835, 0
1182, 2783950799, -0.45440203, 0.42218167, 0.26108342, 0.7396795, -0.33350012, 0.5823842, -0.16277409, 0
1183, 2783967466, -0.4486159, 0.42678285, 0.26100305, 0.7405985, -0.075829394, 0.8462873, -0.20387554, 0
1185, 2784000800, -0.4354713, 0.43746373, 0.26061782, 0.7423457, 0.90927124, 0.8231364, -0.9488592, 0
1186, 2784017467, -0.4294744, 0.44213536, 0.2606186, 0.74307096, 1.0722554, 0.2428171, -0.33413982, 0
1187, 2784034134, -0.42338485, 0.44644862, 0.26078334, 0.7439284, 0.8312436, 0.42196622, -0.53685, 0
1189, 2784067468, -0.41546994, 0.45351407, 0.26434013, 0.74286103, 0.25021902, 1.0373178, -0.40454006, 0
1190, 2784084135, -0.41213208, 0.45731914, 0.2652323, 0.7420692, -0.24739794, 1.3469175, -0.4972124, 0
1192, 2784117469, -0.40564612, 0.46727973, 0.26634508, 0.73903304, -0.050120935, 0.9351483, -0.7634325, 0
1193, 2784134136, -0.40208724, 0.47274816, 0.26637855, 0.7374864, 0.4579377, 0.39667124, -0.47336292, 0
1194, 2784150803, -0.39876413, 0.4779954, 0.2667836, 0.73576, 0.5507805, 0.014551587, -0.5011301, 0
1196, 2784184137, -0.39365494, 0.48697555, 0.26891875, 0.73183477, -0.33211195, 0.13015607, -0.013878822, 0
1197, 2784200804, -0.39287037, 0.4900588, 0.27101642, 0.72942036, -1.328597, 0.67533165, 0.42955112, 0
1198, 2784217471, -0.3920741, 0.49289495, 0.27230287, 0.727456, -0.77785164, 0.89377844, 1.0206299, 0
1200, 2784250805, -0.39245903, 0.49721035, 0.2733541, 0.72390884, 0.4641979, 0.12084496, 0.6053896, 0
1201, 2784267472, -0.3930079, 0.4988333, 0.2749846, 0.72187394, 0.23220241, -0.26054066, -0.0722599, 0
1202, 2784284139, -0.3938098, 0.49948788, 0.2771462, 0.7201557, 0.15438247, 0.2987445, 0.13707447, 0
1204, 2784317473, -0.39403516, 0.5014321, 0.2781542, 0.7182902, 0.47899786, -0.18321319, -0.3291483, 0
1205, 2784334140, -0.39498782, 0.5018993, 0.27851492, 0.7173003, 0.35911873, -0.14738321, 0.051909447, 0
1208, 2784384141, -0.40481657, 0.49683747, 0.2731654, 0.71740174, 0.46868917, -1.3525907, -0.37077618, 0
1209, 2784400808, -0.40795618, 0.4946805, 0.27313745, 0.71712446, -0.5225702, -0.15383704, -0.0016355515, 0
1210, 2784417475, -0.41163224, 0.49287188, 0.27206331, 0.71667737, -0.75938755, -0.015656523, 0.7368803, 0
1212, 2784450809, -0.41953322, 0.4898936, 0.26474455, 0.71687883, 0.5754262, -0.82951796, 0.46824265, 0
1213, 2784467476, -0.4232868, 0.48779765, 0.25791547, 0.7185889, 0.87964404, -1.2721136, 0.048059464, 0
1214, 2784484143, -0.42738056, 0.48553774, 0.25019625, 0.7204229, 0.6722379, -1.0665325, -0.81805325, 0
1216, 2784517477, -0.43243915, 0.48212415, 0.23415649, 0.72507375, 0.12768412, -0.10167638, -0.8215742, 0
1217, 2784534144, -0.43350703, 0.48026666, 0.22735819, 0.7278272, -0.02463543, 0.5170482, -0.27656078, 0
1219, 2784567478, -0.43369383, 0.472408, 0.2109113, 0.7377434, 1.3320131, -0.014124119, -0.68743134, 0
1220, 2784584145, -0.4339414, 0.46724758, 0.20130044, 0.7435465, 1.4694906, 0.3791039, -1.2731953, 0
1223, 2784634146, -0.43924683, 0.44990516, 0.1720896, 0.7583147, -1.4747349, 1.2892103, -0.9060116, 0
1224, 2784650813, -0.44313562, 0.4415193, 0.16022354, 0.7635631, -0.7255514, 1.2118149, -1.0453234, 0
1225, 2784667480, -0.4468481, 0.4321698, 0.14695454, 0.76939535, 0.36418402, 0.1953074, -2.5939665, 0
1227, 2784700814, -0.4560322, 0.4096861, 0.12451126, 0.7801907, 0.8707487, -1.0412154, -3.271603, 0
1228, 2784717481, -0.45959342, 0.39718652, 0.11305641, 0.7862847, -0.99716806, -0.82259536, -1.8420076, 0
1229, 2784734148, -0.46281695, 0.38326636, 0.10068329, 0.7929559, -3.3944695, -0.89146096, 1.0512142, 0
1231, 2784767482, -0.471426, 0.35666913, 0.07939034, 0.8026521, -6.9070225, -0.26918337, 4.948411, 0
1232, 2784784149, -0.48057652, 0.34622142, 0.075430706, 0.802182, -6.0474186, -2.023966, 3.4508982, 0
1233, 2784800816, -0.4929798, 0.33789352, 0.07445371, 0.7982883, -3.9501288, -2.3340335, 0.9741106, 0
1235, 2784834150, -0.5117579, 0.32845065, 0.08304246, 0.78951675, -3.1614892, -2.3095365, -0.9594774, 0
1237, 2784867484, -0.52421445, 0.32649314, 0.09411066, 0.78086704, -0.118508175, 0.43005124, -1.9064531, 0
1239, 2784900818, -0.5345184, 0.33035883, 0.10458228, 0.77085954, 4.035419, -1.6198201, -1.1660376, 0
1240, 2784917485, -0.53873146, 0.33174944, 0.105392955, 0.76721025, 4.6515656, -2.4308796, 0.42079926, 0
1241, 2784934152, -0.5397719, 0.33250862, 0.103651404, 0.766387, 3.2771134, -1.879528, 2.1884966, 0
1243, 2784967486, -0.5354504, 0.3334886, 0.096458286, 0.76992357, 0.26505256, -0.8922286, 3.1788645, 0
1244, 2784984153, -0.53074765, 0.33397144, 0.09305932, 0.7733814, -0.5657637, 0.35643074, 3.6911488, 0
1246, 2785017487, -0.5240655, 0.33632717, 0.089084916, 0.7773749, -1.4813997, 2.274817, 3.2264385, 0
1247, 2785034154, -0.52283293, 0.33959603, 0.08843702, 0.77685773, -1.1176351, 2.376494, 2.3767776, 0
1248, 2785050821, -0.5225337, 0.34249344, 0.0887405, 0.7757515, -1.3234092, 1.5773543, 1.9795656, 0
1250, 2785084155, -0.5237608, 0.3461279, 0.092507206, 0.7728656, -0.13542354, 0.44980472, 0.47842312, 0
1252, 2785117489, -0.52298284, 0.34705225, 0.09956573, 0.7721005, 0.7361483, 0.6204129, -1.323575, 0
1254, 2785150823, -0.5209137, 0.34751162, 0.10689595, 0.77231246, 0.1296654, -0.16744015, -0.7781601, 0
1255, 2785167490, -0.5182498, 0.34937882, 0.11040582, 0.77276826, 0.15149206, -0.31312197, -0.9150114, 0
1256, 2785184157, -0.51504165, 0.35174376, 0.1139922, 0.7733195, 0.3690853, -0.103664525, -0.6722212, 0
1258, 2785217491, -0.5070351, 0.35774744, 0.12189669, 0.7746497, 1.137735, 0.33631122, -1.5589628, 0
1259, 2785234158, -0.50258875, 0.360915, 0.12589431, 0.77543795, 1.3798324, 0.25534466, -0.758975, 0
1260, 2785250825, -0.49792007, 0.3638994, 0.12954047, 0.77645373, 1.0718803, 0.3291926, -0.9004078, 0
1262, 2785284159, -0.48906592, 0.36801356, 0.14006963, 0.7783121, -0.1432723, 0.75341284, -0.1712904, 0
1263, 2785300826, -0.48435462, 0.370457, 0.14525461, 0.77914834, -0.26385742, 1.0539885, 0.18136978, 0
1264, 2785317493, -0.47977734, 0.37377647, 0.1511581, 0.77927196, -0.3309495, 0.7708656, -0.15410233, 0
1266, 2785350827, -0.47148073, 0.3823147, 0.16087195, 0.7782482, 0.3461769, 0.2279764, -0.09427643, 0
1267, 2785367494, -0.46805596, 0.3875478, 0.16356546, 0.77716494, 0.5143001, 0.4219943, -0.5404844, 0
1268, 2785384161, -0.46483868, 0.39232337, 0.16846752, 0.77565116, 0.6203667, 0.48102817, -1.0505075, 0
1270, 2785417495, -0.45815206, 0.400448, 0.17692873, 0.773591, 0.62311715, 0.195193, -0.7427206, 0
1271, 2785434162, -0.45493186, 0.40407237, 0.18214479, 0.77239525, 0.38528615, 0.34190995, -0.742671, 0
1273, 2785467496, -0.4477116, 0.41252476, 0.19071648, 0.77007365, 0.327056, 0.13058063, -0.45759296, 0
1274, 2785484163, -0.44444403, 0.41624278, 0.19532278, 0.7688103, 0.5436403, -0.42985186, -0.36863136, 0
1275, 2785500830, -0.44196236, 0.4198698, 0.19958255, 0.76717293, 0.8625477, 0.027278751, -0.0079574585, 0
1277, 2785534164, -0.43698987, 0.42820594, 0.20672739, 0.7635129, 0.9617625, -0.07967879, -0.5366354, 0
1279, 2785567498, -0.43134376, 0.43768844, 0.21263346, 0.7597151, 0.22528748, 0.31281036, -0.9083109, 0
1281, 2785600832, -0.42496657, 0.44759515, 0.21762496, 0.7561152, 0.67490846, 0.026326474, -0.48998737, 0
1282, 2785617499, -0.42120677, 0.45218495, 0.21930479, 0.75500166, 0.35058892, 0.057324033, -0.299551, 0
1283, 2785634166, -0.4188069, 0.4557472, 0.22288579, 0.75314397, -0.036203258, 0.37950063, -0.08367443, 0
1285, 2785667500, -0.4128006, 0.4645116, 0.22626379, 0.750092, 0.19565906, -0.0072088516, 0.04628277, 0
1286, 2785684167, -0.410152, 0.46958828, 0.22824307, 0.74778074, 0.272023, 0.16233823, -0.010767937, 0
1287, 2785700834, -0.4081862, 0.4744082, 0.23209092, 0.744623, 0.070291474, 0.45883897, -0.49792194, 0
1289, 2785734168, -0.4039272, 0.48321378, 0.2366251, 0.7398408, -0.10453656, 0.3581756, -0.13156223, 0
1290, 2785750835, -0.4020587, 0.48692334, 0.23832089, 0.7378797, 0.19047251, -0.27184898, 0.17956638, 0
1291, 2785767502, -0.40146545, 0.4897471, 0.2415172, 0.73528993, -0.12669946, 0.2661742, 0.20979786, 0
1294, 2785817503, -0.40271178, 0.49745697, 0.24972816, 0.726639, -0.28800845, -0.19976984, 0.2964821, 0
1295, 2785834170, -0.40283927, 0.5003253, 0.2519538, 0.7238252, 0.12735547, -0.3960179, 0.09047222, 0
1297, 2785867504, -0.40192825, 0.5060268, 0.25685024, 0.71862876, 0.29387966, -0.76685196, -0.09735489, 0
1298, 2785884171, -0.40279958, 0.506847, 0.26117894, 0.71599776, -0.078051895, -0.30720705, 0.03328991, 0
1300, 2785917505, -0.4026829, 0.5074553, 0.26793906, 0.7131292, -0.36065498, 0.54602116, 0.014258385, 0
1301, 2785934172, -0.4022482, 0.5078053, 0.26989046, 0.71238905, -0.39775386, 0.11978216, 0.1600399, 0
1302, 2785950839, -0.40224427, 0.50841475, 0.27157044, 0.7113172, 0.24865, -0.3040504, 0.25085545, 0
1304, 2785984173, -0.402052, 0.5099402, 0.2727194, 0.70989275, 0.9826972, -0.77720684, 0.29168606, 0
1305, 2786000840, -0.40250686, 0.51048386, 0.2736555, 0.7088834, 0.38730708, 0.080247074, 0.18709946, 0
1306, 2786017507, -0.4038275, 0.51078486, 0.27471218, 0.7075056, 0.8518662, 0.14392994, 0.3884039, 0
1309, 2786067508, -0.40929034, 0.5091122, 0.2768167, 0.7047461, 0.17461716, 0.24943766, -0.01614952, 0
1310, 2786084175, -0.41136634, 0.50843966, 0.2775148, 0.7037479, 0.5240285, 0.18405834, -0.15581799, 0
1312, 2786117509, -0.41412324, 0.50724757, 0.27787668, 0.7028477, 0.90906245, -0.108737156, -0.5513201, 0
1313, 2786134176, -0.41526443, 0.5052464, 0.27755624, 0.7037419, 0.8911973, 0.004533737, -0.5506029, 0
1314, 2786150843, -0.41710538, 0.50170636, 0.27786127, 0.7050641, 0.4600965, 0.36894903, -0.18428707, 0
1316, 2786184177, -0.42190558, 0.49436656, 0.2798322, 0.70661145, -0.23960863, 0.3285521, 0.39135838, 0
1317, 2786200844, -0.4244477, 0.49171323, 0.28053093, 0.70666355, 0.1651901, -0.33538744, 0.5675812, 0
1318, 2786217511, -0.42745382, 0.4893952, 0.28180885, 0.7059518, 0.41177076, -0.33940598, 0.35042667, 0
1320, 2786250845, -0.4342007, 0.48501652, 0.28405464, 0.7039534, 0.5285634, -0.13930859, -0.07316494, 0
1321, 2786267512, -0.43758819, 0.48269242, 0.28520194, 0.7029887, 0.4112857, -0.1522777, -0.32648182, 0
1324, 2786317513, -0.4466075, 0.47600904, 0.28958037, 0.70007795, 0.1611149, -0.19948229, -0.34489346, 0
1325, 2786334180, -0.448465, 0.47470722, 0.29072815, 0.69929814, 0.6812195, -0.36278355, -0.009162903, 0
1326, 2786350847, -0.44987532, 0.47378865, 0.29126534, 0.69879156, 1.0597047, -0.68957645, 0.26264572, 0
1328, 2786384181, -0.4516877, 0.47155666, 0.29082546, 0.69931513, 1.1286987, -0.745233, 0.65108967, 0
1329, 2786400848, -0.45209154, 0.47019583, 0.29059634, 0.7000653, 0.5260634, -0.5184374, 0.3421421, 0
1331, 2786434182, -0.45281672, 0.46665534, 0.28940257, 0.7024561, 0.24200396, 0.13819325, -0.045351982, 0
1332, 2786450849, -0.4535927, 0.46481726, 0.28836825, 0.7035986, 0.62880385, 0.049092833, -0.107652664, 0
1333, 2786467516, -0.4551694, 0.46408808, 0.2849793, 0.704442, 1.1379895, -0.41196936, -0.2537136, 0
1335, 2786500850, -0.45679617, 0.46375626, 0.27564603, 0.70731544, 1.5056746, -0.99636376, -0.8703041, 0
1336, 2786517517, -0.45765784, 0.46285895, 0.270672, 0.7092645, 0.9592977, -0.6066563, -1.216239, 0
1337, 2786534184, -0.45923823, 0.46155247, 0.26457417, 0.71139216, 0.08573731, -0.45500287, -1.6558056, 0
1339, 2786567518, -0.46416765, 0.45725876, 0.24810511, 0.7168787, 0.324831, -0.37255642, -1.7006283, 0
1340, 2786584185, -0.4662919, 0.4533063, 0.23913975, 0.72104514, 0.98535967, 0.0768309, -1.7611294, 0
1341, 2786600852, -0.4672523, 0.44771048, 0.2302626, 0.7267862, 1.8252136, 0.25955197, -1.6431274, 0
1343, 2786634186, -0.4691559, 0.4331029, 0.20989859, 0.7404497, 0.15526104, 0.58737147, -0.34198666, 0
1344, 2786650853, -0.47189265, 0.42325237, 0.198969, 0.7473919, -0.028824706, 0.2674441, -0.28679943, 0
1345, 2786667520, -0.47431695, 0.4121855, 0.18679628, 0.7551439, -0.33783853, 0.27968276, -1.0527344, 0
1347, 2786700854, -0.47417033, 0.38851726, 0.16581976, 0.7724826, -0.945803, -1.8149586, -3.0069852, 0
1348, 2786717521, -0.47534877, 0.37020963, 0.16043256, 0.7818302, -2.6814528, -0.9118987, -1.1838331, 0
1351, 2786767522, -0.49738553, 0.32020605, 0.13516027, 0.7948685, -5.3786545, -1.8391633, 1.8586111, 0
1352, 2786784189, -0.51029, 0.31283972, 0.12749831, 0.7908783, -3.7201843, -4.787264, 0.38311195, 0
1354, 2786817523, -0.53072953, 0.30816194, 0.115551576, 0.7810371, -1.8615376, -4.8209267, -1.2586956, 0
1355, 2786834190, -0.5335131, 0.31038335, 0.11268197, 0.7786767, -1.6290679, -3.396044, -1.436635, 0
1356, 2786850857, -0.5352669, 0.3143708, 0.11112864, 0.7760926, -0.9366869, -0.017378356, -1.4938126, 0
1358, 2786884191, -0.5385908, 0.3246865, 0.11354989, 0.76916426, 2.2190125, 3.051267, -0.14675713, 0
1359, 2786900858, -0.5395936, 0.32916412, 0.11564712, 0.76624036, 3.4111855, 1.1007229, 1.7581177, 0
1360, 2786917525, -0.54040504, 0.33261147, 0.11700493, 0.76397014, 2.964608, -0.15940228, 3.1100092, 0
1362, 2786950859, -0.5378196, 0.33948845, 0.114400536, 0.76316375, -0.22304913, -0.083920844, 5.203761, 0
1363, 2786967526, -0.5334442, 0.34290126, 0.11270171, 0.7649595, -1.0656762, -0.045513272, 4.798566, 0
1366, 2787017527, -0.52896136, 0.3473815, 0.11504574, 0.7657018, -2.17302, 2.5073278, 4.0856085, 0
1367, 2787034194, -0.5305736, 0.34978452, 0.11850956, 0.762959, -1.2009414, 1.6557224, 2.690318, 0
1368, 2787050861, -0.53285694, 0.35189548, 0.12358849, 0.75958383, -0.8014474, 1.4472432, 1.5850592, 0
1370, 2787084195, -0.5369904, 0.35479152, 0.13551551, 0.7532652, 1.3671387, -0.18832599, -0.9990139, 0
1371, 2787100862, -0.5387026, 0.35548526, 0.14113411, 0.7506794, 1.700427, -0.9480428, -1.5741348, 0
1372, 2787117529, -0.53889674, 0.35647047, 0.14677651, 0.74898887, 1.5665236, -0.8370312, -1.6717291, 0
1374, 2787150863, -0.535396, 0.35919863, 0.1571024, 0.7481008, 0.82953835, -0.33970168, -1.2118635, 0
1375, 2787167530, -0.5327322, 0.3597267, 0.16330312, 0.7484208, 0.5351645, 0.1640261, -1.2920094, 0
1376, 2787184197, -0.5308819, 0.35950032, 0.17028338, 0.7482888, 0.2807146, 0.7031574, -0.9041605, 0
1378, 2787217531, -0.5291289, 0.36013892, 0.1864508, 0.74536383, 0.098228075, 1.0726631, -0.7162266, 0
1381, 2787267532, -0.526476, 0.3675964, 0.20629261, 0.7383415, 0.7664071, 0.20632303, -1.1311007, 0
1382, 2787284199, -0.52606165, 0.36892647, 0.21162564, 0.73646146, 0.56076205, 0.4667087, -0.470232, 0
1383, 2787300866, -0.5262676, 0.3697787, 0.21950558, 0.7335749, 0.28327736, 0.029584287, -0.51754665, 0
1385, 2787334200, -0.5271152, 0.37411597, 0.2326832, 0.72667325, -0.096540906, -0.8411395, -0.7569742, 0
1386, 2787350867, -0.5265084, 0.37756133, 0.23701328, 0.7239266, 0.29242003, -1.3341823, -0.48624897, 0
1387, 2787367534, -0.52629113, 0.3805214, 0.24455717, 0.7200149, -0.012175086, 0.27068827, -1.4498882, 0
1389, 2787400868, -0.5215265, 0.38737112, 0.2540714, 0.71652645, 1.1194869, -0.24791968, -0.5909405, 0
1390, 2787417535, -0.5180871, 0.39041913, 0.25999296, 0.7152421, 0.8401962, 0.2664928, -1.1219492, 0
1391, 2787434202, -0.51464975, 0.3928306, 0.2625881, 0.715455, 1.3479772, -1.3808773, 0.11466026, 0
1393, 2787467536, -0.51096284, 0.39639336, 0.27143282, 0.7128268, -0.23413853, 0.14761947, -0.40411282, 0
1395, 2787500870, -0.50494707, 0.40302008, 0.275743, 0.71174276, -0.081104524, 0.08327154, 0.14467907, 0
1397, 2787534204, -0.49545014, 0.41124743, 0.28045642, 0.7118691, 0.8480339, 0.42228067, -0.59349155, 0
1398, 2787550871, -0.48999727, 0.41488773, 0.28242388, 0.7127526, 1.113164, -0.6791522, 0.17114353, 0
1399, 2787567538, -0.4842135, 0.41788074, 0.28648925, 0.713334, 0.12706387, 0.20825182, -1.0831432, 0
1401, 2787600872, -0.47364905, 0.42272577, 0.29377264, 0.7146089, -0.82580227, 0.8642884, -0.25199223, 0
1402, 2787617539, -0.46911162, 0.42620975, 0.29697233, 0.71420974, -0.19699149, 0.7281665, 0.033053398, 0
1403, 2787634206, -0.46506232, 0.4300754, 0.299829, 0.71334666, -0.2410124, 0.53308475, -0.06811905, 0
1405, 2787667540, -0.4572264, 0.43791425, 0.30411896, 0.7118256, 0.29527375, 0.20532772, -0.42786026, 0
1406, 2787684207, -0.4542137, 0.44077662, 0.30718935, 0.7106682, 0.008714658, 1.130532, -1.0221186, 0
1407, 2787700874, -0.45026657, 0.444084, 0.30850017, 0.71055317, 0.2801331, 0.28834245, -0.51270485, 0
1409, 2787734208, -0.44374204, 0.4500149, 0.31381318, 0.7085968, 0.44488528, 0.39986825, 0.00801754, 0
1410, 2787750875, -0.4402634, 0.45347106, 0.31594634, 0.70761466, 0.41720772, 0.89318335, -0.23889542, 0
1412, 2787784209, -0.43449304, 0.4607019, 0.3201273, 0.7046251, 0.45649824, 0.6912767, -0.5961952, 0
1413, 2787800876, -0.432008, 0.4634786, 0.32107657, 0.7039, 0.0085017625, 0.3409081, -0.11300182, 0
1414, 2787817543, -0.4305566, 0.46567073, 0.32265735, 0.70261854, -0.17134726, 0.5790181, 0.18041229, 0
1416, 2787850877, -0.43016362, 0.46898997, 0.32658434, 0.69882697, -0.33171937, 0.71360487, 0.38583183, 0
1417, 2787867544, -0.42941833, 0.47080424, 0.3271279, 0.69781023, -0.22934848, 0.21817714, 0.22171307, 0
1418, 2787884211, -0.42915073, 0.4720636, 0.32789558, 0.6967629, 0.24227266, 0.6213886, 0.19938564, 0
1420, 2787917545, -0.42656225, 0.47455716, 0.32667673, 0.69723123, 0.4473072, 0.46405894, 0.46580124, 0
1422, 2787950879, -0.42277694, 0.4761626, 0.32596877, 0.69877154, 0.3678927, 0.27064523, 0.452137, 0
1424, 2787984213, -0.4204151, 0.4765737, 0.3228384, 0.7013648, 0.14615406, 0.2957909, 0.08643055, 0
1425, 2788000880, -0.42087352, 0.476311, 0.3215558, 0.7018574, -0.49351612, 0.3110926, 0.075507164, 0
1426, 2788017547, -0.42116398, 0.47634125, 0.319273, 0.70270437, -0.30887708, 0.24486023, 0.2096119, 0
1428, 2788050881, -0.42127782, 0.47630328, 0.3129211, 0.70551354, 0.11451876, 0.04452065, 0.423913, 0
1429, 2788067548, -0.42129946, 0.47574174, 0.3090367, 0.70758843, 0.52617025, 0.18111579, 0.07868004, 0
1430, 2788084215, -0.42113912, 0.47471124, 0.305718, 0.70981413, 0.39662403, 0.3215911, -0.28363895, 0
1432, 2788117549, -0.42321038, 0.47226456, 0.3006494, 0.71237457, -0.55108815, 0.89949423, -0.09445763, 0
1433, 2788134216, -0.42491797, 0.47210944, 0.29562545, 0.71356255, -0.34517056, 0.37063017, -0.092889786, 0
1435, 2788167550, -0.42740038, 0.47290084, 0.28359777, 0.71643174, 0.20948456, -0.58020884, -0.6521721, 0
1437, 2788200884, -0.43145284, 0.46996644, 0.27123562, 0.7207078, -0.13027656, -0.6988433, -1.7013407, 0
1439, 2788234218, -0.43675113, 0.4641879, 0.26186785, 0.72471505, -0.5301213, 0.39987272, -0.3269701, 0
1440, 2788250885, -0.43862617, 0.46198848, 0.25550407, 0.7272551, 0.24249764, -0.46172804, 1.1628609, 0
1441, 2788267552, -0.44081604, 0.4597213, 0.24659151, 0.7304376, 0.20871054, -0.18889605, 1.1170778, 0
1443, 2788300886, -0.44483322, 0.45122313, 0.22885025, 0.73902464, 0.46543851, -0.9269123, -1.7846689, 0
1444, 2788317553, -0.4484114, 0.4447824, 0.22105831, 0.74312687, -0.50576925, -0.31899366, -1.3469467, 0
1445, 2788334220, -0.45198658, 0.43872285, 0.21232402, 0.74709934, -0.23362164, 1.0922898, -0.58694077, 0
1447, 2788367554, -0.45534933, 0.42725724, 0.18597549, 0.75863695, 1.3600152, -0.24712084, -0.9415474, 0
1448, 2788384221, -0.45639414, 0.41915166, 0.17115587, 0.7659835, 1.5382426, 1.1860101, -3.868554, 0
1449, 2788400888, -0.45480517, 0.40590513, 0.15926573, 0.77655417, 0.10507999, -1.3675047, -4.474235, 0
1452, 2788450889, -0.4604088, 0.35298973, 0.13130483, 0.8038592, -6.2587204, 1.0031481, 1.029005, 0
1453, 2788467556, -0.46782976, 0.34362543, 0.120813146, 0.8052762, -4.1789045, -0.64865494, -0.8249397, 0
1455, 2788500890, -0.4852497, 0.3321569, 0.1052454, 0.8019578, -0.93137705, -3.7581558, -3.0673842, 0
1456, 2788517557, -0.49012908, 0.32874078, 0.10239065, 0.80076694, -1.7834843, -2.8399956, -1.8618455, 0
1457, 2788534224, -0.49542937, 0.32838312, 0.09943227, 0.79802024, -1.8516827, 0.25065035, -0.08594513, 0
1459, 2788567558, -0.5064812, 0.33550534, 0.10283062, 0.7876214, 2.9464612, 3.9647033, 0.049614906, 0
1460, 2788584225, -0.5103979, 0.34116995, 0.104223415, 0.7824598, 2.9354436, -0.02145445, 3.4592543, 0
1462, 2788617559, -0.5121125, 0.34734413, 0.1022605, 0.7788738, 2.416647, -1.4983913, 5.5908422, 0
1463, 2788634226, -0.5082487, 0.34908685, 0.09754397, 0.78122705, 0.5158097, -0.7481931, 6.9241276, 0
1464, 2788650893, -0.5041752, 0.34981093, 0.09267982, 0.7841294, -1.0010133, 1.3655598, 8.02754, 0
1467, 2788700894, -0.50240946, 0.34801725, 0.09246939, 0.7860832, -2.8582556, 3.989367, 6.3038883, 0
1468, 2788717561, -0.5067736, 0.3491896, 0.09465794, 0.78249335, -1.8181103, 1.4187194, 4.2529793, 0
1470, 2788750895, -0.51502, 0.34931457, 0.10451873, 0.7757695, 0.72346365, -0.33156103, -0.72561073, 0
1471, 2788767562, -0.5173425, 0.34880194, 0.1115364, 0.77347416, 1.2092623, -0.55880964, -1.7190304, 0
1472, 2788784229, -0.5179963, 0.34869254, 0.11725682, 0.77223885, 1.1384487, -2.133723, -1.3891172, 0
1474, 2788817563, -0.5116277, 0.35322654, 0.12610938, 0.7730285, 1.2588707, -1.2867782, -2.2801743, 0
1475, 2788834230, -0.5071134, 0.35471964, 0.12973629, 0.77471745, 0.49855968, -0.698942, -1.8404074, 0
1476, 2788850897, -0.50337344, 0.3553154, 0.13569371, 0.7758621, 0.46527627, 0.5588761, -1.9403496, 0
1478, 2788884231, -0.49981034, 0.35655794, 0.14997149, 0.77496666, 0.3871608, 1.6069227, -1.6191435, 0
1479, 2788900898, -0.49840727, 0.3593413, 0.1572172, 0.77314645, 0.32960054, 1.163858, -2.3451328, 0
1480, 2788917565, -0.4979751, 0.3618866, 0.16385469, 0.77085614, 0.7163114, 1.083922, -1.6911707, 0
1482, 2788950899, -0.49718666, 0.36787164, 0.17689638, 0.76563203, 0.92135763, 0.9517212, -1.7474203, 0
1483, 2788967566, -0.49603838, 0.37137634, 0.18450543, 0.76288396, 0.8525439, 0.51851165, -1.64851, 0
1484, 2788984233, -0.49459666, 0.37463775, 0.19234985, 0.7602834, 0.8554229, 0.39324158, -1.4625416, 0
1486, 2789017567, -0.4907825, 0.38165274, 0.20649618, 0.75554055, 1.0747486, -0.27854353, -1.0093546, 0
1487, 2789034234, -0.48862967, 0.3860249, 0.21049266, 0.7536095, 1.2528154, -0.28447053, -0.8941183, 0
1488, 2789050901, -0.48671067, 0.39069518, 0.21629739, 0.75079554, 0.71909744, 0.26805094, -1.447895, 0
1490, 2789084235, -0.4817852, 0.4021592, 0.22541957, 0.74521506, 0.13676783, -0.14888142, -1.7564402, 0
1491, 2789100902, -0.47895697, 0.4073794, 0.2314157, 0.7423594, 1.0142179, -0.60938865, -0.81194115, 0
1494, 2789150903, -0.46344805, 0.42532846, 0.24164149, 0.7388706, 1.3654727, -0.88105106, 0.17456532, 0
1495, 2789167570, -0.45794666, 0.4306957, 0.2446979, 0.73818535, 0.25553784, -0.83407897, -0.3184719, 0
1497, 2789200904, -0.44833034, 0.44036284, 0.25244698, 0.73577136, -0.38002914, 0.08211464, -0.045684814, 0
1498, 2789217571, -0.4437229, 0.4442832, 0.25542465, 0.7351797, -0.80766684, 0.34008658, 0.11185074, 0
1499, 2789234238, -0.4387927, 0.44814563, 0.2576912, 0.7350034, 0.45005038, 0.3072028, 0.9851475, 0
1501, 2789267572, -0.427817, 0.45653966, 0.26011124, 0.73545545, 0.5287551, -0.25106004, 0.7862921, 0
1502, 2789284239, -0.42187393, 0.46064943, 0.26116636, 0.7359519, 0.28698435, -0.22642745, 0.19309902, 0
1503, 2789300906, -0.4176786, 0.46434408, 0.26381883, 0.7350765, 0.13805284, 0.20194228, -0.30127048, 0
1505, 2789334240, -0.41023016, 0.4688049, 0.2668543, 0.735344, 0.20623499, 0.14888646, -0.08702278, 0
1506, 2789350907, -0.40861475, 0.4693922, 0.27060106, 0.73449874, -0.121266395, 1.6692249, -0.6774645, 0
1509, 2789400908, -0.40455163, 0.47410363, 0.2725844, 0.7329872, 0.17277199, 0.81017214, -0.53925705, 0
1510, 2789417575, -0.40465727, 0.4764949, 0.27382463, 0.73091304, 0.27340147, 0.2957044, -0.32418537, 0
1511, 2789434242, -0.40556872, 0.4786656, 0.27524504, 0.72845185, 0.32853875, 0.0759858, -0.20458698, 0
1513, 2789467576, -0.4085738, 0.4808624, 0.27869827, 0.7239992, 0.41793716, 0.62059313, -0.14858627, 0
1514, 2789484243, -0.4099117, 0.48194426, 0.27971715, 0.7221281, 0.67920697, 0.20964544, -0.07931805, 0
1516, 2789517577, -0.41132253, 0.48441818, 0.28146768, 0.7189835, 0.4989402, -0.806013, 0.46557522, 0
1517, 2789534244, -0.41159892, 0.48553342, 0.28302893, 0.71745867, 0.45240927, -0.5599619, 0.46655273, 0
1518, 2789550911, -0.4121673, 0.48621213, 0.28491813, 0.7159232, 0.63364875, 0.029837415, 0.3248768, 0
1520, 2789584245, -0.41170755, 0.48901418, 0.28766516, 0.7131757, 0.61458504, -0.011379603, -0.120241165, 0
1521, 2789600912, -0.41134918, 0.49062958, 0.2890718, 0.7117026, 0.79699224, -0.4538426, -0.075517654, 0
1524, 2789650913, -0.40671992, 0.49478424, 0.289537, 0.7112976, 0.043442592, -0.38211507, 0.3922062, 0
1525, 2789667580, -0.40544608, 0.4948131, 0.29136518, 0.7112584, -0.3569221, 0.537085, 0.7332554, 0
1526, 2789684247, -0.40437636, 0.49531245, 0.29205835, 0.7112356, -0.93735147, 0.683151, 0.5961504, 0
1528, 2789717581, -0.40456006, 0.49466354, 0.29418236, 0.71070695, -0.1766757, 0.10703018, 0.07442474, 0
1529, 2789734248, -0.40516636, 0.49360582, 0.29547036, 0.7105627, 0.47537166, -0.14219089, -0.107777596, 0
1530, 2789750915, -0.40618122, 0.4924717, 0.2962603, 0.71044135, 0.8541181, -0.075474404, 0.22392845, 0
1532, 2789784249, -0.40625358, 0.49103442, 0.29658377, 0.7112594, 0.7618664, -0.2972909, 0.04843712, 0
1533, 2789800916, -0.40607768, 0.48988143, 0.29746187, 0.711788, 0.5004034, -0.084145255, -0.026324272, 0
1534, 2789817583, -0.4061486, 0.48870113, 0.29903758, 0.7118987, 0.3253757, -0.07085807, -0.22087574, 0
1536, 2789850917, -0.40767592, 0.48549247, 0.3004204, 0.7126383, 0.8559508, 0.18404973, -0.2820263, 0
1538, 2789884251, -0.41000345, 0.48363158, 0.29929993, 0.7130398, 0.80478483, -0.11207074, 0.32682228, 0
1540, 2789917585, -0.41181174, 0.48180678, 0.2986536, 0.7135039, -0.06582714, -0.16694596, 0.23141003, 0
1541, 2789934252, -0.4137981, 0.47970873, 0.29899362, 0.713626, -0.25462177, 0.17058598, 0.20094109, 0
1543, 2789967586, -0.41836333, 0.47512686, 0.29848465, 0.7142424, 0.29178783, 0.30859932, 0.06464481, 0
1544, 2789984253, -0.41997695, 0.47377276, 0.29723537, 0.71471554, 0.70680434, 0.28912497, -0.17201424, 0
1545, 2790000920, -0.42069846, 0.47346845, 0.29521146, 0.71533155, 1.0054603, -0.12310915, -0.64892197, 0
1547, 2790034254, -0.42072698, 0.47163215, 0.29028732, 0.71853596, 1.4020469, -0.12550923, -0.64660263, 0
1548, 2790050921, -0.42155546, 0.4695637, 0.28710857, 0.7206791, 1.3214952, 0.08051361, 0.107076645, 0
1549, 2790067588, -0.4237039, 0.4670173, 0.28356224, 0.72247565, 0.75931084, 0.78950834, 0.15128136, 0
1551, 2790100922, -0.4289309, 0.4619627, 0.2752152, 0.7258607, -0.3936256, 0.6745211, -0.49768925, 0
1552, 2790117589, -0.43257588, 0.4593613, 0.27042016, 0.72714967, -0.3740899, 0.5296734, -0.50998783, 0
1553, 2790134256, -0.43649125, 0.45674843, 0.26510316, 0.72841287, 0.061874587, 0.48128474, -0.9257479, 0
1555, 2790167590, -0.44423568, 0.4499766, 0.24943265, 0.73346287, 1.606851, 0.036631204, -0.8233576, 0
1556, 2790184257, -0.4479596, 0.44549203, 0.24107087, 0.73672414, 1.3299903, 0.5530353, -2.0051932, 0
1557, 2790200924, -0.45140895, 0.4391069, 0.23207161, 0.7413274, 0.41734663, -0.26753742, -1.6754713, 0
1559, 2790234258, -0.4612056, 0.42250603, 0.21364522, 0.75042814, -0.8216567, 0.93782973, -1.3443747, 0
1560, 2790250925, -0.46666017, 0.41432744, 0.20238861, 0.75472414, -0.1329452, 1.0746987, -1.7854567, 0
1561, 2790267592, -0.4718872, 0.40687725, 0.1907058, 0.75856006, 0.25851145, -0.07374553, -3.6835904, 0
1563, 2790300926, -0.48047617, 0.38384736, 0.17159384, 0.7696545, -0.65092677, -2.7636511, -2.1931572, 0
1565, 2790334260, -0.49137923, 0.35316253, 0.15396756, 0.78110516, -4.6995025, -0.5373322, 2.5192738, 0
1567, 2790367594, -0.50393283, 0.33559358, 0.13863912, 0.78371954, -4.27604, -4.277704, 1.5199614, 0
1568, 2790384261, -0.512823, 0.32963172, 0.13228303, 0.78157866, -3.2658386, -5.2470074, 1.2388783, 0
1570, 2790417595, -0.52835083, 0.32449117, 0.12369032, 0.7747646, -2.2403097, -3.4366543, -0.062202454, 0
1571, 2790434262, -0.5324552, 0.32600528, 0.1211271, 0.77171814, -1.4691471, -2.0139542, -0.13819695, 0
1572, 2790450929, -0.5347154, 0.32964656, 0.11916205, 0.76890945, -0.19887103, -0.03271034, 0.0037317276, 0
1574, 2790484263, -0.536888, 0.33637634, 0.11832445, 0.764598, 3.4670963, 1.1740848, 1.6964006, 0
1575, 2790500930, -0.53833914, 0.33549282, 0.11799826, 0.76401615, 3.5139909, 0.5089988, 2.8151035, 0
1576, 2790517597, -0.53962547, 0.33332273, 0.11612882, 0.764345, 1.6467037, 1.1298844, 4.272422, 0
1578, 2790550931, -0.53941435, 0.33281058, 0.11008255, 0.7656107, -1.0329679, 0.62131697, 4.2229204, 0
1580, 2790584265, -0.53809273, 0.3329529, 0.10851689, 0.7667017, -1.1079509, 2.159901, 3.202711, 0
1582, 2790617599, -0.541447, 0.33390197, 0.111595124, 0.7634789, -1.112264, 2.2612307, 1.5237389, 0
1583, 2790634266, -0.5442847, 0.33454162, 0.114935, 0.76068026, -0.9013229, 1.6368214, 0.69535446, 0
1584, 2790650933, -0.54665506, 0.33498773, 0.1192631, 0.7581135, -0.25965518, 0.79462105, -0.14614773, 0
1586, 2790684267, -0.5476294, 0.33615255, 0.12834628, 0.7554067, 1.433561, -0.6100328, -1.7853413, 0
1587, 2790700934, -0.545997, 0.33639026, 0.13304336, 0.75566983, 1.3068622, -0.5291617, -2.4679108, 0
1588, 2790717601, -0.5444942, 0.33583498, 0.13735723, 0.75622916, 0.8198966, -0.6073795, -1.6173563, 0
1590, 2790750935, -0.54202574, 0.33577582, 0.14592995, 0.75642323, 0.5680218, 0.33065087, -0.5980511, 0
1591, 2790767602, -0.5408647, 0.33660454, 0.14989296, 0.75611067, 0.5759892, 0.56475854, -0.53114223, 0
1592, 2790784269, -0.5396821, 0.33819067, 0.15391168, 0.7554404, 0.79141957, 0.5793538, -0.69425774, 0
1595, 2790834270, -0.5350034, 0.34544408, 0.16484538, 0.7531762, 1.2103008, 0.38202846, -1.00177, 0
1597, 2790867604, -0.5286994, 0.3516133, 0.17166898, 0.7532486, 0.96954143, -0.047413245, -0.31101036, 0
1598, 2790884271, -0.5249213, 0.35471794, 0.17540465, 0.7535746, 0.7305016, -0.73194325, -1.0002785, 0
1599, 2790900938, -0.5221203, 0.3569712, 0.17970231, 0.7534437, 0.089914404, -0.6999942, -0.28686428, 0
1601, 2790934272, -0.51587266, 0.3652211, 0.18582064, 0.7523085, -0.46679604, -0.8820906, 0.17848873, 0
1602, 2790950939, -0.5126777, 0.3698202, 0.18827304, 0.75163573, -0.35101798, -0.29066217, -0.25519085, 0
1603, 2790967606, -0.5093937, 0.37426433, 0.19019619, 0.7511846, -0.088456035, -0.6282993, -0.27746868, 0
1605, 2791000940, -0.5034356, 0.382218, 0.19497056, 0.74997133, 0.24695857, -0.46163294, 1.0151443, 0
1606, 2791017607, -0.49986565, 0.38589516, 0.19642684, 0.7500962, 0.04890212, -0.9001268, 0.22265244, 0
1607, 2791034274, -0.49673444, 0.3880092, 0.20023718, 0.7500783, -0.63850725, 0.049156312, -0.43648052, 0
1610, 2791084275, -0.4879878, 0.39605448, 0.21001543, 0.74894, 0.31794876, 0.6965399, 0.19147778, 0
1611, 2791100942, -0.48430088, 0.40038037, 0.2115036, 0.7486141, 0.79465896, 0.36572275, -0.19063282, 0
1613, 2791134276, -0.4771167, 0.4065444, 0.21460065, 0.7490238, 0.7048794, -0.68202484, 0.03105259, 0
1614, 2791150943, -0.47403842, 0.40824875, 0.21780267, 0.749127, 0.09365953, 0.46877104, -0.35304546, 0
1615, 2791167610, -0.47101894, 0.40957022, 0.22039133, 0.7495529, -0.5462026, 0.75918084, -0.35107803, 0
1617, 2791200944, -0.46454322, 0.4127946, 0.22707596, 0.7498302, 0.004732384, 0.93311805, -0.3110962, 0
1618, 2791217611, -0.46129882, 0.41440374, 0.23159394, 0.7495639, 0.25861287, 1.3288594, -0.63652706, 0
1619, 2791234278, -0.45754302, 0.41708595, 0.23375097, 0.7497085, 1.1542057, 0.8806657, -0.523324, 0
1621, 2791267612, -0.4509068, 0.42125976, 0.23623008, 0.75061804, 0.43152714, 1.4696296, -1.6249237, 0
1622, 2791284279, -0.44892657, 0.42167017, 0.23799588, 0.75101644, 1.4307715, 0.6036975, -0.60068226, 0
1624, 2791317613, -0.44856137, 0.42172173, 0.24278095, 0.74967295, 0.24059293, 1.1342851, -0.62354374, 0
1625, 2791334280, -0.44821134, 0.4229037, 0.24377716, 0.7488927, 0.8124451, 0.7128257, -0.19449997, 0
1626, 2791350947, -0.44842428, 0.42463878, 0.2440634, 0.7476892, 0.65229297, 0.8100577, -0.01649189, 0
1628, 2791384281, -0.44753402, 0.42932728, 0.24529788, 0.7451369, 0.981153, 0.3393328, -0.26618958, 0
1629, 2791400948, -0.4455409, 0.43230093, 0.24633715, 0.7442687, 1.2371341, -0.20506655, -0.5659561, 0
1630, 2791417615, -0.44312888, 0.43531767, 0.24819443, 0.7433328, 0.9861719, 0.01944317, -0.5665827, 0
1632, 2791450949, -0.43846697, 0.4396482, 0.2537721, 0.74166334, 0.056208227, 0.21395119, -0.58858776, 0
1633, 2791467616, -0.4376204, 0.44068792, 0.25777316, 0.74016494, -0.12659572, 0.3241272, -0.58541584, 0
1634, 2791484283, -0.43790844, 0.4417819, 0.26035234, 0.7384378, 0.019330183, 0.9116577, -0.013785362, 0
1637, 2791534284, -0.4396864, 0.44939518, 0.26120692, 0.7324612, 0.56328714, -0.1756015, -0.093811035, 0
1638, 2791550951, -0.43994528, 0.4517073, 0.26074314, 0.73104745, 0.86194205, -0.69485587, -0.18380928, 0
1640, 2791584285, -0.44128403, 0.45514357, 0.26145688, 0.7278475, 0.95004606, 0.2068448, 0.21093464, 0
1641, 2791600952, -0.44160524, 0.45692945, 0.2617557, 0.72642475, 0.5176651, -0.37241283, 0.4115734, 0
1642, 2791617619, -0.4420563, 0.45740786, 0.26348475, 0.7252232, -0.31926227, -0.40155432, 1.0580959, 0
1644, 2791650953, -0.4397595, 0.45839456, 0.26646364, 0.7249082, 0.4092344, -0.4724446, 1.3009777, 0
1645, 2791667620, -0.43599892, 0.4608291, 0.26674995, 0.72553056, 0.9805445, -0.8196912, 0.45401573, 0
1646, 2791684287, -0.43140644, 0.46303245, 0.26771623, 0.7265165, 0.65449595, -0.7620691, 0.7657347, 0
1648, 2791717621, -0.4203084, 0.46613088, 0.2703487, 0.730057, -1.074379, 0.09742617, 0.21593952, 0
1649, 2791734288, -0.41508162, 0.4663162, 0.27302116, 0.73193204, -0.64643764, 0.12548617, 0.074710846, 0
1652, 2791784289, -0.41075176, 0.46804503, 0.27416182, 0.73284423, -0.08781628, 0.3368232, -1.2583694, 0
1653, 2791800956, -0.41101587, 0.46980697, 0.27459827, 0.731404, 0.49280068, 0.35091868, -2.010209, 0
1655, 2791834290, -0.41261038, 0.4723573, 0.27423054, 0.72899765, 0.97077876, -0.09854228, -0.8626461, 0
1656, 2791850957, -0.41297144, 0.47292942, 0.27331823, 0.7287647, 0.80761254, -0.37397304, 0.08454323, 0
1657, 2791867624, -0.41317555, 0.47267523, 0.2728154, 0.72900236, 0.60804176, -0.39027643, 0.64660454, 0
1659, 2791900958, -0.41520682, 0.47152424, 0.2720522, 0.72887886, 0.3689301, 0.65313137, 0.7680006, 0
1660, 2791917625, -0.4165123, 0.47123593, 0.27016756, 0.72902143, 0.37080956, -1.2315564E-4, 0.5543308, 0
1661, 2791934292, -0.4184233, 0.46973026, 0.2678617, 0.7297495, 0.40241972, -0.2912402, 0.5724344, 0
1663, 2791967626, -0.4241588, 0.46430218, 0.26241788, 0.7318868, 0.20704961, 0.32079363, 0.6071701, 0
1664, 2791984293, -0.4273319, 0.4624511, 0.25792304, 0.7328101, 0.75525635, 0.5297904, 1.0119133, 0
1667, 2792034294, -0.4355449, 0.45961404, 0.24007455, 0.73581827, 0.9430023, -0.98077196, -1.4059248, 0
1668, 2792050961, -0.4387308, 0.45635965, 0.23364407, 0.73801786, 1.1002928, -0.6653255, -1.3143473, 0
1669, 2792067628, -0.442322, 0.45229086, 0.22703514, 0.7404376, 0.50048745, 0.3273223, -1.1855221, 0
1671, 2792100962, -0.44941688, 0.44146246, 0.210954, 0.7474238, -0.27685875, 0.75825775, -1.0300379, 0
1672, 2792117629, -0.45311552, 0.4357425, 0.20269407, 0.7508252, 0.18104024, 0.7441144, -0.30813313, 0
1673, 2792134296, -0.45669192, 0.42968974, 0.19372872, 0.75450444, 0.2492671, 0.4036662, -0.6305084, 0
1675, 2792167630, -0.4636495, 0.4144595, 0.1725241, 0.7638696, 0.7879694, 0.5863829, -1.5977192, 0
1678, 2792217631, -0.47030103, 0.38137645, 0.1390213, 0.78361386, -1.458287, -0.2089378, -1.8999376, 0
1679, 2792234298, -0.47252792, 0.36730492, 0.12867013, 0.7907319, -3.5717149, -0.2535616, -0.9435787, 0
1680, 2792250965, -0.47648755, 0.3551411, 0.117246106, 0.79567343, -4.4467835, -0.70038867, -0.38595963, 0
1683, 2792300966, -0.49837247, 0.33086643, 0.09035394, 0.7962394, -4.1097665, -3.5717652, -1.7350826, 0
1684, 2792317633, -0.50655216, 0.32698008, 0.08346058, 0.7934304, -4.316294, -2.7425203, -2.0894542, 0
1686, 2792350967, -0.5182829, 0.32770872, 0.07760911, 0.7861141, -2.7457104, 0.19028005, 0.34533787, 0
1687, 2792367634, -0.523088, 0.33284944, 0.078639776, 0.7806502, 0.29680285, 1.99461, -0.019869804, 0
1688, 2792384301, -0.52752, 0.33830664, 0.08269834, 0.7748811, 3.1474342, 2.2442048, -0.047865868, 0
1690, 2792417635, -0.5390273, 0.34273145, 0.08928817, 0.7642127, 3.179326, 1.1097285, 3.853898, 0
1691, 2792434302, -0.5426624, 0.34304214, 0.09114231, 0.7612762, 1.9442203, 0.11362997, 5.665065, 0
1692, 2792450969, -0.54407585, 0.344127, 0.09115179, 0.759775, 0.49319917, 0.39319226, 5.813533, 0
1694, 2792484303, -0.54288226, 0.34721255, 0.091166064, 0.7592231, -0.586735, 0.30502567, 5.2158127, 0
1695, 2792500970, -0.5424957, 0.3467663, 0.09227761, 0.7595689, -0.8142895, -0.22386678, 4.112487, 0
1696, 2792517637, -0.54403406, 0.3449045, 0.094317645, 0.75906575, -1.7438226, 0.7196163, 4.058691, 0
1698, 2792550971, -0.54676926, 0.34599173, 0.09960042, 0.75592434, -0.51066643, 0.67641693, 2.2936687, 0
1699, 2792567638, -0.5464313, 0.34712538, 0.10307576, 0.7551826, 0.44468173, -0.2444058, 0.27093124, 0
1700, 2792584305, -0.54588693, 0.34695417, 0.10675737, 0.7551436, 1.1152238, -0.12997971, -1.3424025, 0
1702, 2792617639, -0.54288507, 0.34506926, 0.11446253, 0.75704026, 0.28008848, -0.60808367, -1.4388828, 0
1703, 2792634306, -0.54082096, 0.3440781, 0.119026296, 0.7582641, 0.29585895, -0.37529826, -2.1455855, 0
1704, 2792650973, -0.53880894, 0.34351453, 0.12386442, 0.7591764, 0.35684374, 0.3056744, -1.8548479, 0
1706, 2792684307, -0.53569376, 0.34638584, 0.13301328, 0.75852835, 0.62485075, 0.8227886, -1.4636202, 0
1707, 2792700974, -0.53362834, 0.3494848, 0.1373019, 0.7577981, 1.2543092, 0.6263687, -1.6048002, 0
1710, 2792750975, -0.5267424, 0.35828346, 0.14712334, 0.7566629, 1.0966312, 0.5529933, -1.1319265, 0
1711, 2792767642, -0.5228623, 0.36113667, 0.1508309, 0.75726736, 0.84872144, 0.11716784, -0.8373985, 0
1713, 2792800976, -0.5152321, 0.3674871, 0.1593375, 0.75770015, 0.2065745, -0.29593495, -0.2509632, 0
1714, 2792817643, -0.5126053, 0.37029392, 0.16357091, 0.7572129, -0.024457822, -0.3282766, -0.38686943, 0
1715, 2792834310, -0.5102956, 0.3735486, 0.1680556, 0.75619155, 0.014603432, 0.013005662, -0.3788643, 0
1717, 2792867644, -0.5043743, 0.38149104, 0.17587848, 0.75441796, 0.3705011, -0.21667324, 0.15037823, 0
1718, 2792884311, -0.50021416, 0.38526642, 0.17978999, 0.75434726, 0.678818, -0.053049013, 0.2162962, 0
1719, 2792900978, -0.49540234, 0.38902074, 0.18305764, 0.7548099, 0.722449, -0.18599229, 0.38365364, 0
1721, 2792934312, -0.4875219, 0.39297765, 0.19470052, 0.7549776, 0.19966446, -1.0541888, 0.2211008, 0
1722, 2792950979, -0.48399657, 0.39512458, 0.1996361, 0.7548364, -0.42825466, -0.9164021, 0.02352047, 0
1725, 2793000980, -0.47316122, 0.40427032, 0.21193734, 0.7535087, -0.30443135, 0.70392275, -1.0309105, 0
1726, 2793017647, -0.46896213, 0.40768123, 0.21413863, 0.7536737, 0.52955425, 0.36356002, -0.5863676, 0
1727, 2793034314, -0.46510184, 0.41140524, 0.21635589, 0.75340885, 0.49381584, 1.0552554, -0.8175278, 0
1729, 2793067648, -0.4596874, 0.41682437, 0.22222334, 0.75204414, 0.5442896, -0.2016031, -0.56323624, 0
1730, 2793084315, -0.45766157, 0.41924456, 0.22563522, 0.75091773, 0.29879972, 0.8296171, -0.28868008, 0
1732, 2793117649, -0.45278108, 0.42575508, 0.22776562, 0.74956894, 0.7671737, 0.49736694, -0.32430172, 0
1733, 2793134316, -0.45030877, 0.42899585, 0.22870281, 0.7489248, 0.6429245, 0.2575038, -0.5914736, 0
1734, 2793150983, -0.4478903, 0.43216434, 0.23035082, 0.74804765, 0.6782959, 0.0144365905, -0.8037996, 0
1736, 2793184317, -0.44320944, 0.4388416, 0.2327477, 0.746204, 1.038428, 0.36663097, -0.86911964, 0
1737, 2793200984, -0.4406133, 0.442228, 0.2336019, 0.7454752, 0.83482903, 0.4937714, -1.0783787, 0
1740, 2793250985, -0.4320896, 0.45122898, 0.23221588, 0.74550354, 1.1696693, 0.062020935, 0.09621143, 0
1741, 2793267652, -0.4296665, 0.4536983, 0.2322479, 0.74539536, 0.79056984, 0.58566535, -0.22064018, 0
1742, 2793284319, -0.42870837, 0.45562354, 0.23563287, 0.7437083, 0.13755736, 1.6586599, -0.7444525, 0
1744, 2793317653, -0.42889386, 0.4591409, 0.24220714, 0.7393132, -1.1002601, 1.6412402, -0.2838459, 0
1745, 2793334320, -0.43036348, 0.46060538, 0.24407592, 0.73692983, -0.8401752, 1.2449942, 0.4198656, 0
1746, 2793350987, -0.4319269, 0.46236533, 0.24605262, 0.7342508, 0.16573116, 0.78193873, 0.7153816, 0
1748, 2793384321, -0.4337055, 0.4662363, 0.25084263, 0.7291159, 1.1939758, -0.7170852, 0.45595646, 0
1749, 2793400988, -0.4340679, 0.46786374, 0.25470248, 0.72651476, 1.0730906, -0.64888316, -0.17723083, 0
1750, 2793417655, -0.43423343, 0.46892905, 0.25934467, 0.72408277, 0.39756453, -0.2774938, -0.4236107, 0
1752, 2793450989, -0.4326165, 0.47057617, 0.2661343, 0.72151387, 0.22020625, 0.059168015, 0.19416618, 0
1754, 2793484323, -0.42662823, 0.474752, 0.26785177, 0.7217083, 0.24767253, -1.5007244, 0.8746557, 0
1756, 2793517657, -0.4222336, 0.47769862, 0.26934606, 0.72179234, -0.19219057, -0.60597414, 0.10047722, 0
1757, 2793534324, -0.42043996, 0.47840297, 0.27080423, 0.7218272, -0.20951295, -0.07058595, -0.23537159, 0
1759, 2793567658, -0.41659302, 0.47940972, 0.27233306, 0.7228138, -0.08839918, -0.0049114735, -0.2579031, 0
1760, 2793584325, -0.4147107, 0.47927782, 0.27349025, 0.7235466, 0.079311505, 0.079756126, 0.2057848, 0
1761, 2793600992, -0.41270983, 0.47940505, 0.27471706, 0.7241412, 0.18700887, -0.16458969, 0.37720585, 0
1763, 2793634326, -0.40962863, 0.47947687, 0.27600694, 0.7253517, 0.6891845, -0.08436977, -0.37081623, 0
1764, 2793650993, -0.40824553, 0.47962856, 0.2764569, 0.72585964, 0.7896652, 0.13747287, -0.78523827, 0
1765, 2793667660, -0.4068793, 0.4797888, 0.27709824, 0.7262764, 0.896019, 0.22633038, -0.8482876, 0
1767, 2793700994, -0.40502477, 0.47896513, 0.2773462, 0.72776026, 0.33361846, 0.034945693, 0.5451546, 0
1768, 2793717661, -0.40498614, 0.4777257, 0.2773085, 0.7286104, -0.103169724, 0.41732383, 0.8502445, 0
1769, 2793734328, -0.40525633, 0.476714, 0.27713314, 0.7291894, -0.26063567, 0.77298033, 0.77640915, 0
1771, 2793767662, -0.40653384, 0.47594917, 0.27589464, 0.72944725, -0.051837962, 0.8350351, -0.0412817, 0
1772, 2793784329, -0.4072646, 0.47504973, 0.2734785, 0.730535, 0.3156296, 0.08620872, -0.046746254, 0
1773, 2793800996, -0.40972787, 0.47230774, 0.26941893, 0.7324415, 0.94911045, -0.15127704, 0.3012228, 0
1775, 2793834330, -0.41743195, 0.46464115, 0.260323, 0.73627424, 0.23740087, 1.1324483, -1.1906967, 0
1776, 2793850997, -0.42285776, 0.46107897, 0.2552166, 0.7372047, -0.65006536, 1.6805636, -0.49607086, 0
1777, 2793867664, -0.4276281, 0.45952603, 0.2490288, 0.7375388, -0.031262197, 1.2322272, -0.4421091, 0
1779, 2793900998, -0.43266898, 0.4603022, 0.23290354, 0.7393809, 1.2463117, -0.7023072, -1.5327797, 0
1781, 2793934332, -0.4353103, 0.44946465, 0.21506777, 0.7498274, 0.08302868, -0.7095165, -1.380126, 0
1783, 2793967666, -0.4411415, 0.43019763, 0.19823095, 0.7622582, -1.1029253, 1.8342849, 0.3240776, 0
1784, 2793984333, -0.44514692, 0.42104727, 0.18882969, 0.7674083, -1.5407643, 1.8733268, 0.47518158, 0
1785, 2794001000, -0.44910955, 0.41251928, 0.1793037, 0.7720019, -1.4014772, 0.9260225, -0.6301079, 0
1787, 2794034334, -0.4587171, 0.39263886, 0.16252273, 0.78038985, -1.2766179, -1.3572034, -1.4807796, 0
1788, 2794051001, -0.4646142, 0.38173866, 0.15302065, 0.78422105, -0.4480435, -1.7544385, -0.882452, 0
1790, 2794084335, -0.47130972, 0.35746828, 0.13140634, 0.79550284, -0.54160285, -0.42003426, 0.03568554, 0
1791, 2794101002, -0.47223198, 0.3472584, 0.121740624, 0.8009972, -2.3803592, -1.5732185, 0.4951868, 0
1792, 2794117669, -0.47440898, 0.3396929, 0.1118267, 0.80439323, -5.347351, -3.666504, 0.49846554, 0
1794, 2794151003, -0.48194087, 0.32572985, 0.097061604, 0.80760175, -3.728336, -2.1375453, -0.22168541, 0
1796, 2794184337, -0.4904106, 0.32308158, 0.090075664, 0.8043698, -2.811535, 2.1277406, 0.82556915, 0
1798, 2794217671, -0.4972115, 0.33011422, 0.09426535, 0.79682374, 2.7788832, 3.6134665, -3.059761, 0
1799, 2794234338, -0.5062389, 0.3308969, 0.09932226, 0.7901729, 3.7870953, 3.947379, -2.7581496, 0
1800, 2794251005, -0.51658577, 0.33101642, 0.10309394, 0.7829096, 1.9532645, 1.0689206, 0.9380398, 0
1802, 2794284339, -0.5248063, 0.33315158, 0.10395881, 0.7763953, 1.0241251, -2.5921772, 2.7998295, 0
1803, 2794301006, -0.52018845, 0.3359346, 0.10190554, 0.7785728, 0.7007788, -1.9838443, 3.1431293, 0
1804, 2794317673, -0.5171711, 0.33689654, 0.098540545, 0.780598, -2.014207, 0.22759475, 4.6283836, 0
1806, 2794351007, -0.51357746, 0.34126467, 0.091707155, 0.7819048, -2.1961813, 1.821519, 5.4860992, 0
1807, 2794367674, -0.5111846, 0.34380877, 0.09084532, 0.7824588, -0.8358229, 1.5466429, 3.6956387, 0
1808, 2794384341, -0.5090836, 0.3453789, 0.091617785, 0.7830467, 1.4649545, 1.9393879, 0.9702282, 0
1811, 2794434342, -0.49888763, 0.3438235, 0.09522216, 0.789834, 0.8900683, 0.79735154, -2.6203094, 0
1813, 2794467676, -0.49449527, 0.3410218, 0.10043916, 0.7931578, 0.028135665, 1.3835819, -2.4455423, 0
1814, 2794484343, -0.49321556, 0.34057575, 0.10459046, 0.79360956, 0.006195149, 1.5765969, -1.4600668, 0
1815, 2794501010, -0.4923064, 0.34173316, 0.10832051, 0.793176, -0.034389995, 1.0436767, -1.077961, 0
1817, 2794534344, -0.4880799, 0.3489234, 0.11537958, 0.7916606, 1.2251796, -0.19370057, -1.1316156, 0
1818, 2794551011, -0.4833182, 0.35399902, 0.11860807, 0.7918515, 1.672269, -0.06784993, -1.2145977, 0
1819, 2794567678, -0.476192, 0.3588991, 0.12241301, 0.79338276, 1.7686404, -0.3293792, -0.60429955, 0
1821, 2794601012, -0.45563102, 0.37175772, 0.12790538, 0.79865223, 1.0733124, 0.16667221, -0.60061646, 0
1822, 2794617679, -0.44469905, 0.37766796, 0.13076198, 0.80157334, 0.59396404, 0.58915526, -0.14034271, 0
1823, 2794634346, -0.43571538, 0.38234654, 0.1355754, 0.8034869, -0.20456566, 1.1409916, -0.4182167, 0
1826, 2794684347, -0.4215014, 0.3955627, 0.15399796, 0.80134887, -0.7090957, 1.4126283, 0.98645496, 0
1827, 2794701014, -0.41914493, 0.4034467, 0.15805358, 0.7978572, 0.042416472, 1.5245155, -0.2052126, 0
1829, 2794734348, -0.41424778, 0.4167729, 0.16820511, 0.79146355, -0.14119066, -0.34420007, -1.3105478, 0
1830, 2794751015, -0.41272253, 0.4213221, 0.17360745, 0.78868043, 0.023872105, -0.35131967, -0.89506626, 0
1831, 2794767682, -0.41078925, 0.4258055, 0.17817244, 0.7862601, 0.022125239, -0.5908471, -0.8829422, 0
1833, 2794801016, -0.40819377, 0.43390703, 0.19330993, 0.7795785, 0.22801138, 0.10435082, -0.8167124, 0
1834, 2794817683, -0.40676597, 0.43841785, 0.20004772, 0.7760933, 0.70941573, -0.2867355, -0.39130306, 0
1835, 2794834350, -0.40467894, 0.44285268, 0.20414701, 0.773595, 0.7361296, -0.7043942, -0.3462286, 0
1837, 2794867684, -0.40610328, 0.4468108, 0.21221718, 0.76838326, 1.2153184, -1.5002078, 0.34371185, 0
1838, 2794884351, -0.40951195, 0.44831082, 0.21722502, 0.76429003, 0.07790753, -0.47788578, 0.27977467, 0
1840, 2794917685, -0.41108978, 0.4536509, 0.22131455, 0.7591011, -0.27200216, -0.34795758, 0.5463629, 0
1841, 2794934352, -0.41098517, 0.45651427, 0.22377533, 0.7567161, -0.0036926575, -0.64437556, 0.54919624, 0
1842, 2794951019, -0.4092663, 0.4588582, 0.22604191, 0.7555555, 0.39210522, -0.61255133, 0.21436691, 0
1844, 2794984353, -0.40586352, 0.4616183, 0.23295127, 0.75360847, 1.2230885, 0.30954108, 0.108525276, 0
1845, 2795001020, -0.40443748, 0.46249735, 0.2378045, 0.7523191, 0.79282457, 0.69963074, -0.2947235, 0
1846, 2795017687, -0.40210956, 0.4632026, 0.24049021, 0.75227946, 0.14032578, 0.9241438, -0.6515894, 0
1848, 2795051021, -0.40311936, 0.4643895, 0.24919665, 0.7481622, -0.03823435, 0.58401835, -0.96458054, 0
1849, 2795067688, -0.40469122, 0.46478343, 0.2519775, 0.7461349, 0.07277898, 0.48269203, -0.6857214, 0
1850, 2795084355, -0.40803766, 0.46522364, 0.25613457, 0.7426143, 0.3116672, 0.58281577, -0.48258305, 0
1853, 2795134356, -0.41658244, 0.468069, 0.262702, 0.73373485, 0.60121125, 0.01878023, 0.16604328, 0
1854, 2795151023, -0.4187678, 0.4684301, 0.26616052, 0.73100877, 0.7019599, 0.13945298, 0.49215126, 0
1856, 2795184357, -0.42231014, 0.4685079, 0.27337113, 0.72624475, 0.9628064, -0.057110913, 0.64635277, 0
1857, 2795201024, -0.42334443, 0.46883368, 0.27689826, 0.72409284, 1.2391629, 0.067048185, 0.39375782, 0
1858, 2795217691, -0.42362458, 0.47048137, 0.28056693, 0.72144336, 0.84398484, 0.37168774, 0.1680727, 0
1860, 2795251025, -0.4234854, 0.47634462, 0.28609705, 0.7154809, 0.95479995, -0.41559273, -0.45507622, 0
