sep=,
DeviceTag:,Xsens_DOT_1,,,,,,,,,,,,,,,,,
FirmwareVersion:,3.0.0,,,,,,,,,,,,,,,,,
AppVersion:,2023.6.1,,,,,,,,,,,,,,,,,
SyncStatus:,Synced,,,,,,,,,,,,,,,,,
OutputRate:,60Hz,,,,,,,,,,,,,,,,,
FilterProfile:,General,,,,,,,,,,,,,,,,,
Measurement Mode:,Sensor fusion Mode - Extended (Quaternion),,,,,,,,,,,,,,,,,
StartTime:,2025-05-05 11:28:59.145 +0200,,,,,,,,,,,,,,,,,
 2025,,,,,,,,,,,,,,,,,,,

PacketCounter,SampleTimeFine,Quat_W,Quat_X,Quat_Y,Quat_Z,FreeAcc_X,FreeAcc_Y,FreeAcc_Z,Status
1, 1332155097, -0.97811127, -0.11266011, -0.1575212, 0.07639891, -0.017583765, 0.076469205, 0.3935156, 0
2, 1332171764, -0.9781009, -0.11274548, -0.15750653, 0.076437145, -0.024565415, 0.06954284, 0.39308167, 0
3, 1332188431, -0.97808987, -0.112829275, -0.15751122, 0.07644546, -0.022092244, 0.08738035, 0.35189152, 0
4, 1332205098, -0.9780772, -0.112924814, -0.15751618, 0.07645744, -0.061193153, 0.08469862, 0.38765144, 0
5, 1332221765, -0.9780666, -0.113003656, -0.15751144, 0.07648334, -0.069560364, 0.077780664, 0.38330555, 0
6, 1332238432, -0.97805643, -0.113083996, -0.15751822, 0.07648152, -0.079183936, 0.08744244, 0.37716675, 0
7, 1332255099, -0.97804326, -0.11317696, -0.15751451, 0.076521456, -0.027444486, 0.063864216, 0.370533, 0
8, 1332271766, -0.9780309, -0.11326775, -0.15751952, 0.07653406, 0.01417698, 0.05447377, 0.3618393, 0
9, 1332288433, -0.9780228, -0.1133396, -0.1575129, 0.07654548, -0.021197522, 0.04513766, 0.357337, 0
10, 1332305100, -0.9780157, -0.11340504, -0.1575061, 0.07655227, -0.08591995, 0.056913078, 0.34866428, 0
11, 1332321767, -0.97801, -0.113471076, -0.15749305, 0.07655406, -0.1108346, 0.05343759, 0.3615017, 0
12, 1332338434, -0.97800314, -0.11353298, -0.15748203, 0.07657266, -0.057651702, 0.07852597, 0.39319038, 0
13, 1332355101, -0.9779942, -0.11360054, -0.15747331, 0.076604724, -0.006870341, 0.067861326, 0.37837696, 0
14, 1332371768, -0.9779872, -0.11364985, -0.15747039, 0.0766277, -0.02004006, 0.079240374, 0.3614664, 0
15, 1332388435, -0.9779839, -0.113705434, -0.15745816, 0.07661283, -0.040449586, 0.06818942, 0.3815174, 0
16, 1332405102, -0.97797906, -0.11375107, -0.1574488, 0.076625586, -0.056974906, 0.06868715, 0.3814335, 0
17, 1332421769, -0.9779728, -0.113805965, -0.1574535, 0.07661313, -0.06937887, 0.07804329, 0.3661003, 0
18, 1332438436, -0.9779666, -0.11385743, -0.15744805, 0.07662696, -0.051697094, 0.080812424, 0.35412693, 0
19, 1332455103, -0.9779649, -0.11388829, -0.15742671, 0.07664597, -0.05054913, 0.079251185, 0.37594795, 0
20, 1332471770, -0.9779637, -0.11391005, -0.15740953, 0.07666522, -0.072614215, 0.073521286, 0.3605423, 0
21, 1332488437, -0.9779577, -0.113947995, -0.1574142, 0.0766772, -0.055472698, 0.058014195, 0.3696108, 0
22, 1332505104, -0.9779541, -0.113985874, -0.15740205, 0.07669145, -0.020364713, 0.054950073, 0.34842777, 0
23, 1332521771, -0.97795177, -0.11400424, -0.15738924, 0.07671854, -0.020519942, 0.04844783, 0.35021496, 0
24, 1332538438, -0.97795045, -0.11402815, -0.15738347, 0.076711714, -0.070469946, 0.07835029, 0.37529087, 0
25, 1332555105, -0.9779465, -0.11405044, -0.15738317, 0.076729506, -0.08641536, 0.10341057, 0.38533115, 0
26, 1332571772, -0.97794545, -0.114059836, -0.15737732, 0.07674205, -0.065569535, 0.118166804, 0.3671913, 0
27, 1332588439, -0.9779422, -0.11407259, -0.15736994, 0.07677844, -0.07821847, 0.0987062, 0.35211468, 0
28, 1332605106, -0.97793996, -0.11409226, -0.1573573, 0.07680532, -0.031052096, 0.06515651, 0.3585348, 0
29, 1332621773, -0.9779389, -0.11410463, -0.15735355, 0.07680836, 0.009525787, 0.048881333, 0.40506268, 0
30, 1332638440, -0.9779389, -0.11409735, -0.15734261, 0.07684168, -0.015746823, 0.04006643, 0.3724556, 0
31, 1332655107, -0.9779359, -0.114096105, -0.15734029, 0.076884866, -0.09814331, 0.06822325, 0.35375023, 0
32, 1332671774, -0.97793204, -0.11410634, -0.15735006, 0.07689893, -0.10131284, 0.08649884, 0.36524773, 0
33, 1332688441, -0.9779279, -0.114114545, -0.15735866, 0.07692137, -0.033140823, 0.10330601, 0.38224792, 0
34, 1332705108, -0.9779266, -0.11412634, -0.1573497, 0.07693842, 0.008678226, 0.102564365, 0.38861942, 0
35, 1332721775, -0.9779222, -0.11415044, -0.15734765, 0.07696393, -0.010361502, 0.071898475, 0.40871334, 0
36, 1332738442, -0.97791934, -0.11418717, -0.15733483, 0.076972455, -0.026965497, 0.040652536, 0.38447857, 0
37, 1332755109, -0.9779155, -0.11422256, -0.15733515, 0.076966554, -0.031860095, 0.03202281, 0.36620617, 0
38, 1332771776, -0.9779089, -0.11426465, -0.15734132, 0.07697642, -0.0743821, 0.06174959, 0.3522873, 0
39, 1332788443, -0.977905, -0.11430442, -0.1573409, 0.07696906, -0.06485351, 0.092661455, 0.37433243, 0
40, 1332805110, -0.977901, -0.11434713, -0.15733598, 0.07696614, -0.048034724, 0.09935143, 0.3534584, 0
41, 1332821777, -0.97789794, -0.11440065, -0.15732117, 0.07695398, -0.0056321914, 0.1046686, 0.3848982, 0
42, 1332838444, -0.9778901, -0.114459746, -0.15730739, 0.07699442, 0.004827321, 0.07905458, 0.4061575, 0
43, 1332855111, -0.9778831, -0.11451742, -0.15730046, 0.07701191, -0.021260552, 0.055724014, 0.41101074, 0
44, 1332871778, -0.9778743, -0.11459069, -0.15729587, 0.077023596, -0.070863105, 0.07654752, 0.35538864, 0
45, 1332888445, -0.97786474, -0.11466685, -0.1572983, 0.07702756, -0.079533875, 0.06405444, 0.33614922, 0
46, 1332905112, -0.97785485, -0.1147501, -0.15729526, 0.07703489, -0.055246256, 0.06915549, 0.38524055, 0
47, 1332921779, -0.97784775, -0.11481896, -0.15728483, 0.07704401, -0.032086514, 0.09337807, 0.39530182, 0
48, 1332938446, -0.9778384, -0.11490475, -0.15727465, 0.07705489, -0.034035325, 0.08411871, 0.37530518, 0
49, 1332955113, -0.9778292, -0.11498481, -0.15727347, 0.077055395, -0.029456548, 0.06699415, 0.3649559, 0
50, 1332971780, -0.97781897, -0.11506375, -0.1572742, 0.07706645, -0.064731255, 0.07032036, 0.36632442, 0
51, 1332988447, -0.97780776, -0.11515625, -0.15727031, 0.07707819, -0.074663945, 0.08847976, 0.37309742, 0
53, 1333021781, -0.9777899, -0.11532167, -0.1572625, 0.07707363, -0.025288815, 0.0746785, 0.37243176, 0
54, 1333038448, -0.97778225, -0.11540344, -0.15724841, 0.07707605, -0.005812678, 0.08357127, 0.39941216, 0
57, 1333088449, -0.9777572, -0.11559894, -0.15724838, 0.07710019, -0.06649812, 0.08321435, 0.3668995, 0
60, 1333138450, -0.9777415, -0.11574299, -0.15722464, 0.07713342, -0.043275572, 0.044229552, 0.35987377, 0
61, 1333155117, -0.977734, -0.11579577, -0.15723048, 0.07713625, -0.05266323, 0.044731926, 0.36078072, 0
62, 1333171784, -0.97772706, -0.115847506, -0.1572295, 0.07714814, -0.054468095, 0.06165197, 0.35711384, 0
64, 1333205118, -0.9777184, -0.11592314, -0.15722366, 0.07715681, -0.038593534, 0.10087129, 0.39477062, 0
65, 1333221785, -0.97771394, -0.115952514, -0.15721041, 0.07719594, -0.030921677, 0.059991073, 0.37235832, 0
66, 1333238452, -0.97771144, -0.11598209, -0.15719624, 0.07721171, -0.05110579, 0.067534745, 0.3794899, 0
68, 1333271786, -0.9777051, -0.11604792, -0.15717238, 0.0772413, -0.03709812, 0.058516502, 0.36944675, 0
69, 1333288453, -0.97770023, -0.11606286, -0.15717395, 0.07727891, -0.04355671, 0.0673398, 0.36408615, 0
70, 1333305120, -0.97769415, -0.11608534, -0.15718228, 0.07730353, -0.043275014, 0.061751463, 0.36284733, 0
73, 1333355121, -0.9776739, -0.116154514, -0.15720755, 0.07740477, -0.030412626, 0.09358741, 0.38329315, 0
74, 1333371788, -0.97766757, -0.11617963, -0.15721384, 0.07743457, -0.051593162, 0.0891141, 0.37764645, 0
76, 1333405122, -0.977656, -0.11625587, -0.15721942, 0.07745448, -0.008143806, 0.06845917, 0.37008095, 0
77, 1333421789, -0.97764933, -0.116291955, -0.15723132, 0.077459395, -0.06937026, 0.051848218, 0.35758018, 0
78, 1333438456, -0.97763777, -0.11633933, -0.15724096, 0.07751551, -0.05120883, 0.08113147, 0.35074902, 0
80, 1333471790, -0.977617, -0.11643435, -0.15728119, 0.07755324, 0.013404966, 0.07957603, 0.37658882, 0
81, 1333488457, -0.977606, -0.116483435, -0.15730318, 0.077573836, -0.015146914, 0.08666477, 0.36454296, 0
82, 1333505124, -0.9775948, -0.116554335, -0.15731302, 0.0775896, -0.05961035, 0.06688715, 0.399148, 0
84, 1333538458, -0.9775755, -0.11667512, -0.15731849, 0.0776394, -0.06698952, 0.0656943, 0.34962845, 0
85, 1333555125, -0.9775666, -0.11674262, -0.15732174, 0.07764232, -0.0201336, 0.05236808, 0.36793327, 0
88, 1333605126, -0.9775394, -0.116925076, -0.15735686, 0.07764006, -0.058235407, 0.07348218, 0.37238407, 0
89, 1333621793, -0.97753274, -0.11698289, -0.15735036, 0.07764852, -0.04206324, 0.056546543, 0.3801136, 0
91, 1333655127, -0.9775195, -0.11709498, -0.15733202, 0.07768422, -0.06622164, 0.058852233, 0.38724995, 0
92, 1333671794, -0.977512, -0.1171474, -0.15732536, 0.07771394, -0.07969734, 0.06233343, 0.37036133, 0
93, 1333688461, -0.97750604, -0.11719495, -0.15730608, 0.07775521, -0.02851653, 0.07291717, 0.36693287, 0
95, 1333721795, -0.97749805, -0.117273144, -0.15729013, 0.07777104, -0.03049823, 0.06926197, 0.38830757, 0
96, 1333738462, -0.97749555, -0.117303416, -0.15727885, 0.07777941, -0.070950836, 0.073441535, 0.36975002, 0
97, 1333755129, -0.97749144, -0.11733743, -0.15726209, 0.07781407, -0.068410724, 0.07824229, 0.3466606, 0
99, 1333788463, -0.97748756, -0.11737853, -0.1572322, 0.07785982, -0.043534625, 0.07295875, 0.36167145, 0
100, 1333805130, -0.977486, -0.11739214, -0.15721975, 0.077884346, -0.044670854, 0.06862004, 0.35298252, 0
101, 1333821797, -0.9774836, -0.11740879, -0.15721281, 0.077904195, -0.033816952, 0.061998386, 0.34465218, 0
103, 1333855131, -0.97748053, -0.117423095, -0.15720902, 0.07792926, -0.069047175, 0.041632697, 0.36905098, 0
104, 1333871798, -0.97747993, -0.11742908, -0.15719704, 0.07795128, -0.08636999, 0.07273008, 0.3492651, 0
105, 1333888465, -0.97748, -0.11744342, -0.15718418, 0.0779551, -0.054745365, 0.07504971, 0.38485909, 0
107, 1333921799, -0.97747564, -0.117448166, -0.15717399, 0.07802236, -0.035704855, 0.07166384, 0.3761673, 0
108, 1333938466, -0.97747284, -0.11746482, -0.15717073, 0.07803795, -0.03879168, 0.08896733, 0.39696503, 0
109, 1333955133, -0.97746676, -0.11749592, -0.15716961, 0.07807046, -0.021028882, 0.08652972, 0.36756516, 0
111, 1333988467, -0.97745216, -0.11760265, -0.15716027, 0.07811105, -0.043004118, 0.0544382, 0.38106728, 0
112, 1334005134, -0.977444, -0.11766477, -0.1571666, 0.07810828, -0.057305258, 0.06663414, 0.37122536, 0
115, 1334055135, -0.9774364, -0.117743015, -0.15713634, 0.0781461, -0.063674256, 0.060674325, 0.36624718, 0
116, 1334071802, -0.9774377, -0.11774381, -0.15713283, 0.07813564, -0.08567318, 0.06624737, 0.35724068, 0
118, 1334105136, -0.9774309, -0.117764115, -0.15712741, 0.07820058, -0.008428003, 0.10087662, 0.37813568, 0
119, 1334121803, -0.97743106, -0.11776293, -0.15711346, 0.07822847, -0.050482076, 0.10167304, 0.35617542, 0
120, 1334138470, -0.9774312, -0.117761575, -0.1571064, 0.07824165, -0.06720599, 0.080321044, 0.3657713, 0
122, 1334171804, -0.97743046, -0.11775004, -0.15709487, 0.07829228, -7.645261E-4, 0.049121134, 0.38046074, 0
123, 1334188471, -0.97742605, -0.117745854, -0.15711083, 0.078321874, -0.018692724, 0.05459583, 0.373415, 0
124, 1334205138, -0.97742367, -0.11773798, -0.15712677, 0.07833266, -0.05013049, 0.05990266, 0.3571167, 0
126, 1334238472, -0.97741514, -0.11775465, -0.15714695, 0.07837215, -0.06300014, 0.10719771, 0.3854046, 0
127, 1334255139, -0.9774116, -0.11774342, -0.15716392, 0.07839975, -0.07124498, 0.11106578, 0.362298, 0
130, 1334305140, -0.9774265, -0.117636785, -0.15713452, 0.078431696, -0.056491, 0.020766504, 0.3481245, 0
131, 1334321807, -0.9774358, -0.11757781, -0.15711719, 0.07843983, -0.068321764, 0.017466923, 0.34460163, 0
132, 1334338474, -0.9774504, -0.11748585, -0.15708593, 0.078458846, -0.06717414, 0.026585637, 0.36004257, 0
134, 1334371808, -0.97747874, -0.11728297, -0.15702361, 0.07853326, -0.06669459, 0.094290785, 0.37835693, 0
135, 1334388475, -0.9774901, -0.11718427, -0.15700355, 0.07857889, -0.026930852, 0.13865463, 0.39054298, 0
136, 1334405142, -0.9774992, -0.11710588, -0.15698688, 0.07861671, 0.009129051, 0.152845, 0.36958694, 0
138, 1334438476, -0.9775109, -0.11699301, -0.15697917, 0.07865414, -0.025271045, 0.04645169, 0.37190628, 0
139, 1334455143, -0.97750694, -0.11697395, -0.15700842, 0.07867327, -0.04287716, 0.0462248, 0.33761597, 0
141, 1334488477, -0.9775051, -0.11694133, -0.15702644, 0.07870996, -0.050075073, 0.058654185, 0.357275, 0
142, 1334505144, -0.9774996, -0.11692787, -0.15703747, 0.07877529, -0.039488927, 0.07215291, 0.385499, 0
145, 1334555145, -0.97748584, -0.1169698, -0.15708333, 0.07879165, -0.010510585, 0.0992811, 0.37989902, 0
146, 1334571812, -0.97748196, -0.11700235, -0.15709198, 0.07877439, -0.038142152, 0.076931536, 0.34996128, 0
147, 1334588479, -0.97747964, -0.11702684, -0.15709652, 0.07875788, -0.061326925, 0.056956634, 0.35199642, 0
149, 1334621813, -0.9774778, -0.117059, -0.15707621, 0.07877284, -0.060354423, -0.022570254, 0.3621912, 0
150, 1334638480, -0.9774799, -0.11708211, -0.15703133, 0.07880306, 0.021525526, 0.018230919, 0.35652733, 0
151, 1334655147, -0.9774923, -0.11707655, -0.15696704, 0.07878506, 0.016969103, 0.0733365, 0.39140034, 0
153, 1334688481, -0.97750354, -0.117044084, -0.15692873, 0.07877046, -0.11030174, 0.19901499, 0.3403368, 0
154, 1334705148, -0.9775015, -0.117027886, -0.15695865, 0.078760594, -0.098260656, 0.17373878, 0.39919567, 0
155, 1334721815, -0.97749794, -0.11702825, -0.1569832, 0.07875523, -0.059425727, 0.101611376, 0.44596577, 0
157, 1334755149, -0.9774897, -0.11705439, -0.15704101, 0.07870346, -0.043729976, -0.008502964, 0.3527918, 0
159, 1334788483, -0.97747433, -0.11708775, -0.15711376, 0.078700095, -0.05013172, 0.039219957, 0.3338728, 0
161, 1334821817, -0.9774629, -0.11711323, -0.15717886, 0.07867271, 0.020738874, 0.080734245, 0.39203167, 0
162, 1334838484, -0.97745645, -0.11711207, -0.1572044, 0.078704566, -0.026556915, 0.11068888, 0.36613846, 0
163, 1334855151, -0.977448, -0.11710847, -0.15724038, 0.078742534, -0.10594179, 0.10828949, 0.38185883, 0
165, 1334888485, -0.97743547, -0.117123365, -0.157274, 0.07880911, 0.0150389485, 0.06468144, 0.37371922, 0
166, 1334905152, -0.97743165, -0.11712614, -0.15727901, 0.078841954, 0.0688887, 0.04091547, 0.4096775, 0
168, 1334938486, -0.9774201, -0.11716615, -0.15729323, 0.07889706, -0.11653306, 0.03446201, 0.30615807, 0
169, 1334955153, -0.9774089, -0.11720658, -0.15731737, 0.07892755, -0.058669135, 0.060870763, 0.3673792, 0
170, 1334971820, -0.9774033, -0.11722578, -0.15732148, 0.07896185, 0.009505112, 0.10799241, 0.36824608, 0
172, 1335005154, -0.9774003, -0.117247075, -0.15734237, 0.078923315, -0.045297246, 0.10326282, 0.3503523, 0
173, 1335021821, -0.9773942, -0.11727218, -0.15736945, 0.07890734, -0.07920238, 0.08384042, 0.40356922, 0
174, 1335038488, -0.9773858, -0.11728554, -0.15740663, 0.07891801, -0.08538921, 0.09364851, 0.36478996, 0
176, 1335071822, -0.97736835, -0.11731346, -0.15749027, 0.078924745, -0.02799578, 0.10302667, 0.36282063, 0
177, 1335088489, -0.9773662, -0.11732181, -0.15749685, 0.07892659, -0.013952908, 0.071834244, 0.40193748, 0
178, 1335105156, -0.9773592, -0.11733529, -0.15751897, 0.07895091, -0.060108, 0.04246503, 0.39681244, 0
180, 1335138490, -0.97734284, -0.11745657, -0.15753905, 0.07893059, -0.0032433965, -0.015570555, 0.39435768, 0
181, 1335155157, -0.97733366, -0.117526874, -0.15754879, 0.0789215, 0.0100611, 0.05103731, 0.35819912, 0
182, 1335171824, -0.97731906, -0.11760534, -0.15757452, 0.078933954, -0.090709604, 0.12841535, 0.32051277, 0
184, 1335205158, -0.97728467, -0.117743626, -0.15767506, 0.078952074, -0.03476554, 0.1482081, 0.38309383, 0
186, 1335238492, -0.9772606, -0.11780448, -0.15777405, 0.078962326, -0.08424784, 0.08011734, 0.36760712, 0
188, 1335271826, -0.9772364, -0.11785403, -0.15788883, 0.078959525, -0.029077023, 0.019306015, 0.36206245, 0
189, 1335288493, -0.97722316, -0.11785766, -0.1579344, 0.07902634, -0.08320452, 0.017295511, 0.37007904, 0
190, 1335305160, -0.97721595, -0.11783939, -0.1579665, 0.07907748, -0.1169659, 0.029983789, 0.34146786, 0
192, 1335338494, -0.97721636, -0.11775914, -0.1579793, 0.07916695, -0.044174653, 0.037041795, 0.37839127, 0
193, 1335355161, -0.977216, -0.11769821, -0.15800169, 0.07921669, -0.0108653, 0.12591952, 0.39745522, 0
194, 1335371828, -0.977219, -0.11762927, -0.15801261, 0.07926065, 0.021674834, 0.14764911, 0.37545586, 0
196, 1335405162, -0.97724175, -0.1174261, -0.15799412, 0.07931957, -0.13638581, 0.050272953, 0.3287878, 0
197, 1335421829, -0.9772525, -0.117328994, -0.15797934, 0.079360306, -0.07003577, -0.001494715, 0.4018154, 0
199, 1335455163, -0.9772647, -0.11706658, -0.15801612, 0.079523444, -0.023309272, 0.0029383013, 0.3480873, 0
201, 1335488497, -0.9772779, -0.11686058, -0.15806854, 0.079560965, -0.038690988, 0.088177845, 0.36367416, 0
203, 1335521831, -0.97729915, -0.1166874, -0.15804599, 0.07959676, -0.08770358, 0.16100736, 0.34606266, 0
204, 1335538498, -0.9773209, -0.116594255, -0.15798275, 0.0795919, -0.020856999, 0.055137575, 0.34038353, 0
205, 1335555165, -0.9773495, -0.11647927, -0.15790114, 0.07957125, 0.016172504, -0.0121145975, 0.37426853, 0
207, 1335588499, -0.9774116, -0.11624462, -0.1576786, 0.07959366, -0.017999275, -0.032850116, 0.40763283, 0
208, 1335605166, -0.97744393, -0.11612269, -0.15755856, 0.07961184, -0.093439594, 0.0081787305, 0.40188026, 0
209, 1335621833, -0.97747755, -0.11600252, -0.15745011, 0.079589814, -0.085262485, 0.055576414, 0.42234135, 0
211, 1335655167, -0.97754633, -0.11578572, -0.1572326, 0.07948992, -0.09379565, 0.26248714, 0.3506317, 0
212, 1335671834, -0.9775756, -0.11569777, -0.1571472, 0.079427004, -0.05576436, 0.25688452, 0.41281986, 0
213, 1335688501, -0.97760004, -0.115638055, -0.15706709, 0.07937139, -0.0034732947, 0.21519841, 0.36892414, 0
216, 1335738502, -0.97759134, -0.11572295, -0.15709873, 0.079291105, -0.063682415, 0.037140254, 0.41676903, 0
217, 1335755169, -0.97756726, -0.11581978, -0.15718694, 0.07927376, -0.15600713, -0.0018821467, 0.39875412, 0
219, 1335788503, -0.9775095, -0.11610867, -0.15735081, 0.07923767, -0.05839153, 0.13260432, 0.3369007, 0
220, 1335805170, -0.9774809, -0.116263255, -0.15741387, 0.07923901, 0.0024299212, 0.124100454, 0.36555672, 0
222, 1335838504, -0.97744286, -0.116469994, -0.15748219, 0.07926804, -0.07008483, 0.07435822, 0.30285358, 0
223, 1335855171, -0.977425, -0.11650458, -0.15755011, 0.07930395, -0.049936593, 0.037200183, 0.32312584, 0
224, 1335871838, -0.97740954, -0.11647883, -0.15762381, 0.07938424, -0.011793549, 0.017391432, 0.37437725, 0
226, 1335905172, -0.9773966, -0.11626864, -0.1577388, 0.079622716, -0.16747837, 0.042035215, 0.33757687, 0
227, 1335921839, -0.9774009, -0.11611661, -0.15776592, 0.07973981, -0.15105766, 0.07614117, 0.35668945, 0
228, 1335938506, -0.977416, -0.11590855, -0.1577605, 0.07986635, -0.06527886, 0.05037538, 0.3985672, 0
231, 1335988507, -0.97749543, -0.115094885, -0.15773301, 0.0801267, -0.12702945, -0.016908616, 0.39622116, 0
232, 1336005174, -0.9775259, -0.114789814, -0.15774712, 0.08016381, -0.12801927, 0.0689243, 0.43600273, 0
234, 1336038508, -0.97761613, -0.11399984, -0.15770406, 0.08027527, -0.22592354, 0.15699318, 0.4047699, 0
235, 1336055175, -0.9776751, -0.1134844, -0.15768325, 0.08032927, -0.12675598, 0.21604718, 0.35920715, 0
236, 1336071842, -0.977743, -0.11285108, -0.15767002, 0.080420166, -0.01976697, 0.15522678, 0.34627056, 0
238, 1336105176, -0.9779016, -0.11129141, -0.15765248, 0.08070022, -0.07879357, 0.017810546, 0.35087776, 0
239, 1336121843, -0.9779835, -0.110455945, -0.1576658, 0.080828995, -0.048757453, 0.039904132, 0.35365486, 0
240, 1336138510, -0.9780684, -0.10957271, -0.15768263, 0.080970734, -0.03880006, 0.05295413, 0.38073254, 0
243, 1336188511, -0.9782963, -0.107180156, -0.15774965, 0.081288815, -0.020259215, 0.15103285, 0.37699986, 0
244, 1336205178, -0.9783464, -0.10659361, -0.15777639, 0.08140594, 0.042772222, 0.13879414, 0.3939333, 0
246, 1336238512, -0.9784358, -0.105582, -0.1578566, 0.08149186, 0.054841474, 0.100276686, 0.40045643, 0
247, 1336255179, -0.97848016, -0.105118126, -0.15789069, 0.08149305, -0.06461547, 0.058294974, 0.37388897, 0
249, 1336288513, -0.9785476, -0.10433313, -0.15796739, 0.08154592, -0.048670057, 0.0148815205, 0.34557152, 0
250, 1336305180, -0.9785792, -0.103948355, -0.15799172, 0.08160865, -5.9197407E-4, 0.09798498, 0.3189993, 0
251, 1336321847, -0.9786119, -0.103566796, -0.15800288, 0.08168027, 0.056738988, 0.07622306, 0.38470554, 0
253, 1336355181, -0.978667, -0.102899045, -0.15804845, 0.081775844, -0.013050027, 0.11008508, 0.3901701, 0
254, 1336371848, -0.9786824, -0.10261953, -0.15807804, 0.08188623, -0.067599595, 0.13550135, 0.37761784, 0
255, 1336388515, -0.97870576, -0.10234171, -0.15808903, 0.0819335, -0.06716542, 0.08188224, 0.3873701, 0
257, 1336421849, -0.97872734, -0.10193555, -0.15815383, 0.082056314, 0.09446742, 0.0010159502, 0.4536171, 0
259, 1336455183, -0.97869676, -0.10169122, -0.15842052, 0.0822095, -0.08562547, 0.2020492, 0.24166393, 0
261, 1336488517, -0.978721, -0.10137302, -0.1584471, 0.082262605, 0.023446957, -0.03396131, 0.33275318, 0
263, 1336521851, -0.9787755, -0.10094577, -0.1583362, 0.08235344, -0.07375033, -0.15059294, 0.49720478, 0
265, 1336555185, -0.97877014, -0.10069892, -0.1584944, 0.08241522, -0.18675278, 0.27309632, 0.51492214, 0
266, 1336571852, -0.97875404, -0.10066281, -0.1585941, 0.082457215, -0.12763707, 0.37334907, 0.4678545, 0
267, 1336588519, -0.97874343, -0.100660495, -0.15864646, 0.08248538, 0.02767895, 0.3016068, 0.39319992, 0
269, 1336621853, -0.9787735, -0.100566804, -0.15854596, 0.08243731, 0.096700646, -0.14930771, 0.24162102, 0
270, 1336638520, -0.9787899, -0.100468755, -0.15851012, 0.08243066, -0.054973904, -0.40925726, 0.3911972, 0
271, 1336655187, -0.97880423, -0.10036017, -0.15847248, 0.082466125, -0.09141736, -0.36312413, 0.3866377, 0
274, 1336705188, -0.9788592, -0.099815175, -0.15845446, 0.08250943, -0.27081323, 0.48087224, 0.44716072, 0
277, 1336755189, -0.9789599, -0.09914172, -0.15831307, 0.082398385, -0.011633738, 0.0012595793, 0.19330883, 0
278, 1336771856, -0.97902244, -0.09880939, -0.15817052, 0.08232859, -0.02967738, -0.36061546, 0.18058586, 0
280, 1336805190, -0.9791442, -0.097966224, -0.15793765, 0.08233309, 0.13192628, -0.39930537, 0.37093163, 0
281, 1336821857, -0.979205, -0.09746568, -0.15785047, 0.08237219, -0.0042437287, 0.06491453, 0.43459606, 0
282, 1336838524, -0.9792509, -0.09695167, -0.15784797, 0.082439244, -0.33564493, 0.49124718, 0.5392475, 0
284, 1336871858, -0.979344, -0.0959616, -0.15783238, 0.0825212, -0.28782102, 0.67825115, 0.6389971, 0
285, 1336888525, -0.97939694, -0.09540252, -0.15781385, 0.082576334, -0.062657274, 0.4432523, 0.6515064, 0
286, 1336905192, -0.9794426, -0.09480192, -0.15787996, 0.08259976, -0.085075736, 0.11835466, 0.43346596, 0
288, 1336938526, -0.97953176, -0.093507975, -0.1580939, 0.08260703, -0.011837805, -0.6190323, 0.23167038, 0
289, 1336955193, -0.9796056, -0.09266129, -0.1581037, 0.08266848, -0.10948436, -0.67279655, 0.24733067, 0
292, 1337005194, -0.97991025, -0.08946553, -0.15790749, 0.08295187, -0.04446332, 0.48059666, 0.3567438, 0
293, 1337021861, -0.9800426, -0.088275746, -0.15769859, 0.08305985, -0.21118353, 0.48348004, 0.4611969, 0
294, 1337038528, -0.9802008, -0.087023884, -0.1573773, 0.0831241, -0.32147768, 0.24649332, 0.3890953, 0
296, 1337071862, -0.98050666, -0.08457698, -0.15670842, 0.08330348, 0.0073282076, -0.15772732, 0.43740273, 0
297, 1337088529, -0.98063064, -0.083449066, -0.15643588, 0.08349565, 0.081033505, -0.51041126, 0.52515125, 0
298, 1337105196, -0.98068964, -0.08252002, -0.15645725, 0.08368546, 0.09921237, -0.7935796, 0.63818455, 0
300, 1337138530, -0.9806579, -0.08085016, -0.15725861, 0.08418441, 0.060544744, -0.8365054, -0.39463902, 0
301, 1337155197, -0.98060447, -0.08008139, -0.15782814, 0.0844748, -0.30856454, -0.86221886, 1.1403112, 0
302, 1337171864, -0.9804996, -0.0792758, -0.15862465, 0.08495918, 0.013944079, -0.40530473, -0.19535351, 0
304, 1337205198, -0.9803095, -0.07762905, -0.16011178, 0.08587965, 0.12681198, 0.5679975, -0.1839714, 0
307, 1337255199, -0.9800008, -0.07543214, -0.1623084, 0.08722648, -0.90764254, 1.1729956, 0.5142212, 0
308, 1337271866, -0.9799896, -0.075499006, -0.1625665, 0.08681202, -0.82677037, 3.441817, -0.38814163, 0
309, 1337288533, -0.9800095, -0.075620085, -0.16264847, 0.086327225, 0.66541743, 2.7083645, 0.5252361, 0
311, 1337321867, -0.98035157, -0.075184, -0.16146064, 0.085044235, -0.30204087, 1.9724873, 0.37052155, 0
312, 1337338534, -0.98051625, -0.07496737, -0.16091487, 0.084367394, -1.3576701, 1.0922222, 0.40577984, 0
313, 1337355201, -0.9806742, -0.07493488, -0.16039279, 0.083551824, -0.6143125, 1.2666497, 0.048059464, 0
315, 1337388535, -0.9810744, -0.07458018, -0.15878871, 0.08222607, 0.59370565, -0.24409744, 0.67123795, 0
316, 1337405202, -0.9813155, -0.074399605, -0.15771227, 0.08158082, 0.0671681, -0.5149662, 0.6745148, 0
317, 1337421869, -0.98151577, -0.07446882, -0.15685529, 0.08075586, -0.1762783, -0.6496254, 0.45457458, 0
319, 1337455203, -0.9816632, -0.075036734, -0.15614554, 0.07980853, 0.06305099, -1.1472026, 0.4188156, 0
320, 1337471870, -0.98163307, -0.07549679, -0.15623295, 0.07957351, -0.18654637, -1.3832061, 0.50323296, 0
321, 1337488537, -0.9815895, -0.07598972, -0.15643942, 0.07923469, 0.4046369, -1.5227708, 0.40595055, 0
323, 1337521871, -0.98146534, -0.07672578, -0.15707533, 0.07880479, 0.36853734, -1.2811846, 0.022123337, 0
324, 1337538538, -0.9813825, -0.07709168, -0.15741298, 0.07880661, -0.25225258, -1.4579694, 1.1535511, 0
325, 1337555205, -0.9812893, -0.07740609, -0.15775986, 0.07896423, 0.38690037, -0.45452654, -0.18379879, 0
327, 1337588539, -0.9810305, -0.07845411, -0.15879704, 0.07906738, 0.6157341, -0.3129363, 0.43856335, 0
328, 1337605206, -0.98092866, -0.07886099, -0.1591248, 0.07926652, 0.15026397, -0.03782761, 0.3158846, 0
330, 1337638540, -0.98071337, -0.07997058, -0.15968995, 0.07968196, -0.24099983, 0.32086745, 0.31689644, 0
331, 1337655207, -0.9806247, -0.080573425, -0.15987813, 0.079788685, 0.058494795, 0.324766, 0.5361614, 0
334, 1337705208, -0.9804386, -0.08188677, -0.1600976, 0.08029711, -0.33361858, 0.5054097, 0.39675713, 0
335, 1337721875, -0.9804201, -0.08226732, -0.15998949, 0.08034834, -0.12548386, 0.43134773, 0.4242239, 0
336, 1337738542, -0.98040485, -0.08261735, -0.15985464, 0.080444396, -0.11850478, 0.3423172, 0.4474554, 0
338, 1337771876, -0.9803608, -0.08341099, -0.15961683, 0.08063242, 0.01659606, -0.050045278, 0.4389515, 0
339, 1337788543, -0.9803256, -0.08376725, -0.159595, 0.08073437, -0.02451937, -0.18025795, 0.38359165, 0
340, 1337805210, -0.9802729, -0.0841102, -0.15968987, 0.08083141, -0.18029672, -0.28904143, 0.37986374, 0
342, 1337838544, -0.9800706, -0.0847388, -0.16039684, 0.08122769, -0.26481983, -0.016508862, 0.06840229, 0
343, 1337855211, -0.97998565, -0.08489661, -0.1607574, 0.0813742, -0.34005016, 0.14143112, -0.06602287, 0
344, 1337871878, -0.9799305, -0.084961854, -0.16097641, 0.08153641, -0.33726797, 0.33277318, -0.014138222, 0
346, 1337905212, -0.9798697, -0.08470121, -0.16122173, 0.08205235, -0.30492005, 0.39372885, 0.3703966, 0
348, 1337938546, -0.9798608, -0.08399165, -0.16150832, 0.08232319, -0.13929059, 0.6134718, 0.21618557, 0
350, 1337971880, -0.9799423, -0.08304776, -0.16147639, 0.08237329, -0.22083884, 0.5927014, 0.2529459, 0
351, 1337988547, -0.9800568, -0.082487784, -0.16112518, 0.082261324, -0.24594863, 0.489561, 0.11337185, 0
352, 1338005214, -0.9802157, -0.08191104, -0.16055964, 0.082050204, -0.025532108, 0.24595319, 0.10628605, 0
354, 1338038548, -0.98063874, -0.08085213, -0.15881401, 0.08144212, 0.1130866, -0.22724596, 0.77987385, 0
355, 1338055215, -0.98080593, -0.080436185, -0.15811877, 0.081192106, 0.21113135, -0.3723451, 0.99633884, 0
357, 1338088549, -0.98092484, -0.08021631, -0.15767851, 0.08082765, 0.20335376, -0.29941934, 0.81587696, 0
358, 1338105216, -0.9808953, -0.080389544, -0.15782318, 0.08073273, 0.20120814, -0.12535663, 0.84227943, 0
359, 1338121883, -0.980829, -0.080740385, -0.15806311, 0.08071807, 0.18219525, -0.20978518, 0.7831249, 0
361, 1338155217, -0.980628, -0.0822479, -0.15857466, 0.08063492, 0.3506365, -0.44641852, 0.5646696, 0
363, 1338188551, -0.9804443, -0.08392094, -0.15884358, 0.08061585, -0.28527918, -0.49585712, 0.76050186, 0
365, 1338221885, -0.9803499, -0.08484666, -0.15878464, 0.080910146, -0.15439448, -0.4351687, 0.12833977, 0
366, 1338238552, -0.9802833, -0.08498607, -0.15894881, 0.08124721, -0.23316313, -0.36685127, 0.6065607, 0
367, 1338255219, -0.9802574, -0.08496085, -0.15897572, 0.08153343, -0.24961816, -0.34524304, 0.3054638, 0
369, 1338288553, -0.9802372, -0.08483255, -0.15896925, 0.081922084, 0.05801178, -0.15124354, 0.41527557, 0
370, 1338305220, -0.98028064, -0.084570095, -0.15875039, 0.082098186, 0.0144778285, -0.11771947, 0.33585262, 0
371, 1338321887, -0.9803194, -0.084318876, -0.15856822, 0.082246244, -0.20830826, -0.04769881, 0.3552637, 0
373, 1338355221, -0.98034585, -0.084069766, -0.1584171, 0.08247456, 0.012656421, 0.14786197, 0.10863876, 0
375, 1338388555, -0.9804448, -0.08355139, -0.15797725, 0.08266935, -0.12328349, 0.25090072, 0.4140234, 0
377, 1338421889, -0.98051, -0.08313702, -0.15767434, 0.08289334, -0.29981828, 0.29408634, 0.16917133, 0
379, 1338455223, -0.9805844, -0.0824956, -0.15741198, 0.08315012, -0.0845259, 0.32294315, 0.374856, 0
381, 1338488557, -0.9806721, -0.08161746, -0.15716255, 0.08345428, -0.17101724, 0.33854756, 0.38621998, 0
382, 1338505224, -0.98067164, -0.08127056, -0.15722062, 0.083688766, -0.14810506, 0.3697058, 0.4190321, 0
383, 1338521891, -0.98063123, -0.08102522, -0.15742235, 0.08402082, -0.07365065, 0.47453377, 0.4578905, 0
385, 1338555225, -0.9804946, -0.08084825, -0.1580133, 0.08467376, 0.032738503, 0.6785047, 0.40846634, 0
386, 1338571892, -0.98042446, -0.08078455, -0.15829849, 0.08501428, -0.12581655, 0.74745816, 0.26495934, 0
388, 1338605226, -0.98034513, -0.0807448, -0.15859854, 0.08540565, -0.22642802, 0.7977607, 0.4187851, 0
389, 1338621893, -0.9803144, -0.08077285, -0.15870927, 0.0855273, 0.04016606, 0.7618584, 0.48904324, 0
390, 1338638560, -0.98027134, -0.08087744, -0.15884343, 0.085671574, 0.06440671, 0.7535915, 0.37363625, 0
392, 1338671894, -0.98019886, -0.08144756, -0.15894727, 0.08576703, 0.051628474, 0.7148839, 0.32904625, 0
393, 1338688561, -0.9802055, -0.08170999, -0.1587843, 0.08574444, -0.07779011, 0.67454743, 0.33166313, 0
394, 1338705228, -0.98020965, -0.081933364, -0.15865466, 0.085724145, -0.24977562, 0.52800006, 0.29835415, 0
396, 1338738562, -0.98023397, -0.082104325, -0.15854117, 0.085491806, -0.29635215, 0.43245208, 0.2101183, 0
397, 1338755229, -0.9802913, -0.08212075, -0.15827434, 0.08531368, -0.07031148, 0.31154928, 0.4155445, 0
398, 1338771896, -0.98039836, -0.082066774, -0.1577777, 0.08505547, 0.07992298, 0.10305635, 0.44862366, 0
400, 1338805230, -0.980636, -0.08172482, -0.15687267, 0.08431536, -0.21146114, 0.024349082, 0.14091206, 0
401, 1338821897, -0.9807365, -0.08137709, -0.15663221, 0.08392912, -0.16058244, -0.009960575, 0.25175476, 0
402, 1338838564, -0.9808519, -0.08096056, -0.15634435, 0.08351934, -0.16850139, -0.12002053, 0.36852455, 0
404, 1338871898, -0.98109996, -0.08010817, -0.15568489, 0.08265486, -0.056048658, -0.12820417, 0.42188072, 0
406, 1338905232, -0.981356, -0.07935103, -0.15498309, 0.08165705, -0.0037704401, -0.12806924, 0.3927288, 0
408, 1338938566, -0.98158336, -0.07873936, -0.15434831, 0.08071351, -0.011491248, -0.19489998, 0.5271168, 0
409, 1338955233, -0.98169917, -0.07848452, -0.153994, 0.080230236, 0.05665852, -0.22807446, 0.46758938, 0
411, 1338988567, -0.9818839, -0.07792589, -0.15350589, 0.079444766, -0.12412669, -0.26333678, 0.575614, 0
412, 1339005234, -0.9819545, -0.07768973, -0.15334989, 0.07910398, -0.036956526, -0.309938, 0.49386787, 0
413, 1339021901, -0.98202085, -0.07740693, -0.15321718, 0.0788129, -0.0067013656, -0.15359491, 0.32075596, 0
415, 1339055235, -0.98212075, -0.07676767, -0.15318137, 0.07826057, -0.22186768, -0.10246764, 0.4444008, 0
416, 1339071902, -0.98218036, -0.07633855, -0.1531482, 0.077999085, -0.23646463, -0.13872592, 0.4159708, 0
417, 1339088569, -0.9822199, -0.07602291, -0.15315044, 0.077803135, -0.18982956, -0.11305537, 0.25904274, 0
419, 1339121903, -0.9821752, -0.07603252, -0.15354398, 0.0775837, 0.35217217, 0.06931293, 0.47208977, 0
421, 1339155237, -0.98206097, -0.0765097, -0.15411477, 0.07742903, 0.02999097, 0.42958605, 0.28603268, 0
423, 1339188571, -0.98191, -0.0772938, -0.15470667, 0.07738301, -0.36742, 0.21440525, 0.3433733, 0
424, 1339205238, -0.98185825, -0.07760981, -0.15485595, 0.077424824, -0.47430968, 0.24305072, 0.18665218, 0
425, 1339221905, -0.9818125, -0.07801199, -0.15496124, 0.07739112, -0.22571199, 0.269364, 0.19431973, 0
427, 1339255239, -0.9817103, -0.07910286, -0.15511115, 0.077279896, 0.18720841, 0.26970655, 0.55567646, 0
428, 1339271906, -0.98165405, -0.07961096, -0.15522349, 0.07724723, -0.16971985, 0.1381613, 0.52793026, 0
429, 1339288573, -0.9816042, -0.08006716, -0.15536946, 0.07711518, -0.17783372, -0.0370409, 0.46170712, 0
431, 1339321907, -0.9815643, -0.08076611, -0.15539706, 0.07683873, 0.06529193, -0.08548761, 0.3323717, 0
432, 1339338574, -0.9815661, -0.081095725, -0.15529095, 0.07668093, -0.077948354, -0.13574825, 0.3256588, 0
433, 1339355241, -0.9815595, -0.081493385, -0.1552101, 0.07650754, -0.13620791, -0.20287709, 0.34662437, 0
438, 1339438576, -0.9815044, -0.08378874, -0.15465379, 0.075859845, -0.103773825, -0.43186554, 0.36547756, 0
439, 1339455243, -0.9814733, -0.08428581, -0.15459329, 0.075835615, -0.115474395, -0.32516184, 0.33197308, 0
440, 1339471910, -0.98143625, -0.08477971, -0.15454173, 0.07586911, -0.133762, -0.22709237, 0.39151478, 0
442, 1339505244, -0.98137224, -0.08559579, -0.15445569, 0.07595539, 0.006164264, -0.16952416, 0.38993168, 0
443, 1339521911, -0.98133874, -0.08595301, -0.15443265, 0.07603091, 0.03413378, -0.102283046, 0.36053562, 0
444, 1339538578, -0.98130643, -0.08627313, -0.15441397, 0.076123446, -0.046124693, -0.028401736, 0.41440964, 0
446, 1339571912, -0.9812733, -0.086707965, -0.1543265, 0.07623416, -0.17101155, -0.076734655, 0.42859268, 0
447, 1339588579, -0.98125947, -0.086866364, -0.15427831, 0.07632935, -0.13568577, -0.011594343, 0.42093945, 0
448, 1339605246, -0.98124695, -0.087008774, -0.15423763, 0.07641137, -0.1000596, 0.021726409, 0.47226524, 0
450, 1339638580, -0.9812168, -0.08732547, -0.15421751, 0.07647723, 0.0014775324, 0.07727994, 0.35853577, 0
452, 1339671914, -0.9811851, -0.08761121, -0.15423769, 0.07651693, -0.19535726, 0.021493979, 0.4116993, 0
454, 1339705248, -0.9811516, -0.08792206, -0.15425648, 0.07655105, -0.008049483, 0.05948571, 0.37152576, 0
455, 1339721915, -0.9811406, -0.088074714, -0.15424259, 0.076544434, 0.037642263, 0.036303617, 0.39625263, 0
456, 1339738582, -0.9811279, -0.08822629, -0.15423879, 0.07654086, -0.030395415, 0.046193395, 0.3454752, 0
458, 1339771916, -0.9810784, -0.08867163, -0.15428114, 0.076574475, -0.050380714, 0.06685734, 0.36423302, 0
459, 1339788583, -0.98104894, -0.08893524, -0.15430395, 0.07660252, -0.05241513, 0.11159898, 0.34355927, 0
460, 1339805250, -0.98101187, -0.08923738, -0.1543374, 0.07665795, -0.08966278, 0.12142319, 0.39021587, 0
462, 1339838584, -0.98097193, -0.08977477, -0.154302, 0.07661188, -0.008879835, 0.12891757, 0.37385082, 0
463, 1339855251, -0.9809575, -0.09001855, -0.15426174, 0.07659224, -0.049054388, 0.12316578, 0.36560535, 0
464, 1339871918, -0.9809436, -0.090251304, -0.15421245, 0.07659456, -0.09043871, 0.11505041, 0.39807415, 0
466, 1339905252, -0.9809267, -0.090672985, -0.15409529, 0.07654944, -0.10079451, 0.1012417, 0.38063145, 0
467, 1339921919, -0.98091614, -0.090886354, -0.15405157, 0.07651886, -0.0753926, 0.051606122, 0.36487007, 0
469, 1339955253, -0.98089135, -0.091313094, -0.15398133, 0.076471, -0.03247308, 0.05795202, 0.41601944, 0
470, 1339971920, -0.9808785, -0.09150465, -0.15396237, 0.07644591, -0.07595484, 0.06192217, 0.37955093, 0
471, 1339988587, -0.98086673, -0.09169718, -0.15392864, 0.07643214, -0.11289784, 0.03627657, 0.3799734, 0
473, 1340021921, -0.9808571, -0.09201206, -0.15382795, 0.07638019, -0.1036871, -0.0118786795, 0.37087154, 0
474, 1340038588, -0.98085046, -0.092147715, -0.15379219, 0.0763734, -0.07472105, 0.019872844, 0.37145042, 0
475, 1340055255, -0.98084384, -0.09228082, -0.1537634, 0.076357216, -0.049196765, 0.022403905, 0.3906088, 0
477, 1340088589, -0.98084617, -0.092473924, -0.15365997, 0.07630098, -0.062261768, 0.041377276, 0.35233116, 0
479, 1340121923, -0.9808392, -0.092635855, -0.15359935, 0.07631609, -0.13990961, -9.928446E-4, 0.3828354, 0
481, 1340155257, -0.9808239, -0.09279534, -0.15357742, 0.0763644, -0.0218057, 0.022806425, 0.3741417, 0
482, 1340171924, -0.9808138, -0.0928707, -0.15359394, 0.076369554, -0.014534824, 0.062408227, 0.38289738, 0
483, 1340188591, -0.98080075, -0.09293963, -0.15362573, 0.07638797, -0.02589621, 0.06326439, 0.37655926, 0
485, 1340221925, -0.98078525, -0.09301559, -0.1536709, 0.07640341, -0.13696739, 0.0045090388, 0.4034109, 0
486, 1340238592, -0.9807805, -0.093027204, -0.15367728, 0.076437265, -0.109527275, 0.026189012, 0.40880013, 0
487, 1340255259, -0.9807749, -0.093037665, -0.15368941, 0.07647121, -0.039930366, 0.069866404, 0.38017273, 0
489, 1340288593, -0.9807672, -0.093070716, -0.15368491, 0.07653922, -0.036562808, 0.064581215, 0.34485054, 0
490, 1340305260, -0.98075974, -0.09309909, -0.15370347, 0.076564014, -0.06994067, 0.05631772, 0.37676048, 0
492, 1340338594, -0.98073757, -0.09319231, -0.15375967, 0.076621085, -0.097801894, 0.058359932, 0.38289452, 0
494, 1340371928, -0.98071486, -0.093276545, -0.15382576, 0.07667789, -0.028037576, 0.09147134, 0.3984871, 0
496, 1340405262, -0.9806932, -0.09337057, -0.15387677, 0.07673836, -0.11089696, 0.12797622, 0.362422, 0
497, 1340421929, -0.9806783, -0.09342888, -0.15391292, 0.0767844, -0.09454509, 0.142391, 0.35466194, 0
498, 1340438596, -0.98067135, -0.09346155, -0.15391707, 0.076824576, -0.06037219, 0.13917048, 0.37412548, 0
500, 1340471930, -0.9806669, -0.093528375, -0.15385793, 0.07691917, -0.05007295, 0.15528935, 0.39014626, 0
501, 1340488597, -0.98066545, -0.09358041, -0.15382521, 0.07693878, -0.068442464, 0.14986119, 0.35856915, 0
502, 1340505264, -0.9806626, -0.093634866, -0.15380004, 0.07695937, -0.044788644, 0.1484043, 0.37922096, 0
504, 1340538598, -0.980662, -0.09374096, -0.15372169, 0.076995075, -0.037686855, 0.10257613, 0.4192648, 0
505, 1340555265, -0.980662, -0.09380399, -0.15368053, 0.07700026, -0.116578884, 0.08569956, 0.38147736, 0
506, 1340571932, -0.98065877, -0.09389199, -0.15365449, 0.07698575, -0.10294537, 0.098512165, 0.38322067, 0
509, 1340621933, -0.9806324, -0.094109684, -0.15366845, 0.07702744, -0.10312553, 0.08626072, 0.37805176, 0
510, 1340638600, -0.9806267, -0.09417003, -0.15366933, 0.0770261, -0.047019303, 0.07787208, 0.39536476, 0
512, 1340671934, -0.9806214, -0.094213806, -0.15365545, 0.07706633, -0.11618785, 0.115988106, 0.35332108, 0
513, 1340688601, -0.98062176, -0.09421748, -0.153644, 0.07708067, -0.1170639, 0.112233065, 0.3848219, 0
514, 1340705268, -0.9806261, -0.09419873, -0.1536233, 0.07708976, -0.07666338, 0.100428335, 0.35186768, 0
516, 1340738602, -0.9806341, -0.09415341, -0.15358669, 0.07711634, -0.045459628, 0.11763998, 0.42165184, 0
517, 1340755269, -0.98063934, -0.09412916, -0.15356562, 0.07712141, -0.06440034, 0.07634367, 0.40243435, 0
519, 1340788603, -0.9806448, -0.09410894, -0.15354425, 0.07711801, -0.027007854, 0.060198296, 0.40508938, 0
520, 1340805270, -0.9806425, -0.09409737, -0.15355408, 0.077142715, -0.026459128, 0.07620789, 0.38539124, 0
521, 1340821937, -0.9806374, -0.094110966, -0.15356657, 0.07716614, -0.051790297, 0.072024815, 0.3492174, 0
524, 1340871938, -0.9806246, -0.09417558, -0.15354982, 0.07728258, -0.05073898, 0.010594018, 0.41649532, 0
525, 1340888605, -0.9806107, -0.09421438, -0.1535869, 0.07733765, -0.04134766, 0.06657032, 0.41926003, 0
527, 1340921939, -0.9805896, -0.09422771, -0.1536129, 0.077537924, -0.18000661, 0.04584245, 0.27159023, 0
528, 1340938606, -0.9805715, -0.094226226, -0.15367433, 0.077646434, -0.19726203, 0.092128634, 0.40847683, 0
529, 1340955273, -0.980543, -0.0942243, -0.15381546, 0.07772973, 0.0062336647, 0.21575764, 0.47922707, 0
531, 1340988607, -0.9804393, -0.09429723, -0.15430138, 0.07798678, -0.08109743, 0.57813764, 0.33336544, 0
532, 1341005274, -0.98037326, -0.09441084, -0.15459892, 0.07809022, -0.21807097, 0.57044035, 0.35939407, 0
533, 1341021941, -0.98032427, -0.09448813, -0.1548145, 0.07818511, -0.19660725, 0.58161825, 0.33441544, 0
535, 1341055275, -0.9802978, -0.09456101, -0.15483943, 0.07837787, -0.10451667, 0.36693397, 0.4488716, 0
536, 1341071942, -0.98031616, -0.094614424, -0.15471423, 0.0783312, 0.06935976, 0.28180167, 0.35107327, 0
537, 1341088609, -0.98033285, -0.094695106, -0.15458304, 0.07828298, 0.14159758, 0.20833933, 0.3884716, 0
539, 1341121943, -0.98037803, -0.09485923, -0.15430112, 0.078075975, -0.14352192, -0.025559489, 0.39418793, 0
540, 1341138610, -0.98039937, -0.09494238, -0.15415043, 0.07800338, -0.20566757, -0.11935525, 0.37769222, 0
541, 1341155277, -0.9804225, -0.095009364, -0.15400985, 0.07790917, -0.123464085, -0.18639031, 0.38900566, 0
543, 1341188611, -0.9804778, -0.09500762, -0.1537664, 0.07769644, 0.051443852, -0.1791912, 0.40783596, 0
544, 1341205278, -0.9805012, -0.0949658, -0.15368189, 0.07761961, 0.015450892, -0.16156575, 0.41964626, 0
545, 1341221945, -0.9805202, -0.09492846, -0.1536151, 0.07755658, -0.041043125, -0.16148509, 0.37711525, 0
547, 1341255279, -0.9805455, -0.09483205, -0.1535345, 0.07751387, -0.059863474, -0.12170504, 0.3760538, 0
548, 1341271946, -0.9805552, -0.09476811, -0.15351877, 0.077500075, -0.07948795, -0.1074811, 0.3831482, 0
551, 1341321947, -0.9805716, -0.094587885, -0.1535033, 0.077543855, -0.04252021, 0.026568705, 0.39404964, 0
552, 1341338614, -0.98058, -0.09450668, -0.15348928, 0.077564955, -0.06143846, 0.037463706, 0.35387993, 0
554, 1341371948, -0.9806032, -0.09430307, -0.1534411, 0.07761562, -0.10492648, -0.014877218, 0.3633318, 0
555, 1341388615, -0.9806176, -0.0942008, -0.15341127, 0.07761681, -0.12824291, 0.011384996, 0.37540054, 0
556, 1341405282, -0.98062706, -0.09411211, -0.15340051, 0.07762495, -0.06995732, 0.01593393, 0.37418652, 0
558, 1341438616, -0.980646, -0.0938921, -0.15339798, 0.07765639, -0.01786025, 0.031912174, 0.3818941, 0
559, 1341455283, -0.9806565, -0.09377221, -0.15339655, 0.07767299, -0.08262548, -0.023193073, 0.38937187, 0
560, 1341471950, -0.9806639, -0.09367721, -0.1533845, 0.07771775, -0.07697585, 0.017536351, 0.39511585, 0
562, 1341505284, -0.98067963, -0.09353237, -0.15337211, 0.07771811, 0.011299027, 0.05331421, 0.380867, 0
563, 1341521951, -0.98068047, -0.09349393, -0.15339059, 0.07771683, 0.022903485, -0.029979905, 0.43131828, 0
566, 1341571952, -0.9806882, -0.093429044, -0.15336047, 0.07775751, -0.08883053, -0.044047642, 0.37568092, 0
567, 1341588619, -0.9806917, -0.093414545, -0.15333508, 0.07778117, -0.025311613, -0.052098468, 0.36422634, 0
568, 1341605286, -0.98069215, -0.09339669, -0.15332617, 0.07781321, -0.008953817, -0.028583536, 0.35237598, 0
570, 1341638620, -0.9806847, -0.09338585, -0.15334523, 0.07788178, -0.07818941, 0.03347073, 0.397954, 0
571, 1341655287, -0.98068213, -0.09338194, -0.15333855, 0.07793257, -0.080400296, 0.033433765, 0.38919926, 0
572, 1341671954, -0.98067987, -0.093364194, -0.15333113, 0.077997625, -0.06954467, 0.050729256, 0.34595013, 0
574, 1341705288, -0.9806789, -0.09334105, -0.15331331, 0.078073025, -0.040205847, 0.09371065, 0.3855486, 0
575, 1341721955, -0.98068476, -0.0932964, -0.15329725, 0.07808307, -0.052796107, 0.07393856, 0.39544868, 0
577, 1341755289, -0.98069227, -0.093235865, -0.15326458, 0.0781264, -0.08175769, 0.088433266, 0.37549877, 0
578, 1341771956, -0.98069274, -0.09322667, -0.1532495, 0.078160286, -0.023394765, 0.10315553, 0.34494305, 0
581, 1341821957, -0.98070574, -0.09317176, -0.15316239, 0.07823244, -0.0466362, 0.041613445, 0.36194038, 0
582, 1341838624, -0.9807146, -0.09315212, -0.15312232, 0.078223854, -0.053420715, 0.047798302, 0.3772173, 0
583, 1341855291, -0.9807222, -0.0931338, -0.1530787, 0.07823545, -0.045128718, 0.025887746, 0.3901081, 0
585, 1341888625, -0.9807334, -0.09311959, -0.15300417, 0.07825878, -0.028618151, 0.023506438, 0.34304047, 0
586, 1341905292, -0.98073244, -0.09313355, -0.15299825, 0.078264505, -0.053738885, 0.0603459, 0.37443066, 0
587, 1341921959, -0.98072976, -0.093161166, -0.15298554, 0.07829034, -0.051176645, 0.07224084, 0.38726425, 0
589, 1341955293, -0.98072875, -0.09321171, -0.15292895, 0.07835308, -0.07827278, 0.019228261, 0.37407207, 0
590, 1341971960, -0.98071647, -0.09324618, -0.15295377, 0.07841733, -0.14411154, -0.020805592, 0.49089527, 0
591, 1341988627, -0.9807031, -0.09333273, -0.1529804, 0.078430384, -0.07910023, -0.012526029, 0.27723885, 0
593, 1342021961, -0.9806494, -0.09340015, -0.15317091, 0.0786491, -0.16311908, 0.174265, 0.4609766, 0
595, 1342055295, -0.98053, -0.09366315, -0.15368372, 0.07882419, 0.13355336, 0.52193475, 0.37118244, 0
597, 1342088629, -0.98039776, -0.09395964, -0.15419857, 0.07911205, -0.2505692, 0.6813065, 0.3760996, 0
598, 1342105296, -0.98035264, -0.09413512, -0.15434352, 0.07917899, -0.2745489, 0.6319926, 0.3725586, 0
600, 1342138630, -0.98032445, -0.09445492, -0.15430096, 0.07922965, -0.004501551, 0.36471757, 0.4771843, 0
601, 1342155297, -0.98033404, -0.09462616, -0.15415719, 0.07918593, 0.081299596, 0.28418428, 0.4193535, 0
602, 1342171964, -0.9803425, -0.09479892, -0.15403882, 0.07910609, 0.100270815, 0.22781521, 0.38620758, 0
604, 1342205298, -0.98034847, -0.09517941, -0.1538593, 0.07892528, -0.14914092, 0.055319905, 0.4001341, 0
605, 1342221965, -0.98035395, -0.095347725, -0.15375581, 0.07885417, -0.21482031, -0.0056426125, 0.3895836, 0
606, 1342238632, -0.98035944, -0.09548931, -0.1536566, 0.07880843, -0.123530135, -0.020748792, 0.38590717, 0
608, 1342271966, -0.98039424, -0.09565173, -0.1534145, 0.07864976, 0.044557083, -0.076842025, 0.3995552, 0
609, 1342288633, -0.98041534, -0.09570046, -0.1532987, 0.07855332, -0.0077095204, -0.07022394, 0.42682552, 0
610, 1342305300, -0.98043203, -0.09574553, -0.15320772, 0.07846776, -0.025839886, -0.047627732, 0.3494892, 0
612, 1342338634, -0.9804497, -0.09587224, -0.1530417, 0.0784176, -0.08661384, -0.033856932, 0.34960842, 0
613, 1342355301, -0.9804584, -0.09594525, -0.1529569, 0.07838383, -0.050984535, -0.012809555, 0.39623165, 0
614, 1342371968, -0.98046803, -0.096029826, -0.15286681, 0.07833484, -0.04967162, -0.023669574, 0.43662167, 0
616, 1342405302, -0.98048556, -0.0961512, -0.15272963, 0.078234315, -0.04938552, -0.009776931, 0.38551903, 0
617, 1342421969, -0.9804881, -0.09620894, -0.15268838, 0.0782114, -0.055874888, -0.0023592352, 0.39453506, 0
618, 1342438636, -0.9804895, -0.09625584, -0.15266722, 0.07817742, -0.06931751, 0.0043833405, 0.36734867, 0
620, 1342471970, -0.9804952, -0.09629509, -0.1526163, 0.07815784, -0.10109231, -0.01315387, 0.3209505, 0
622, 1342505304, -0.9805004, -0.096273065, -0.15259376, 0.07816303, -0.06354317, -0.093772985, 0.39035225, 0
624, 1342538638, -0.9805127, -0.09618117, -0.15256181, 0.078184664, 8.753885E-4, -0.09191099, 0.3560791, 0
625, 1342555305, -0.9805238, -0.09611711, -0.15251952, 0.07820666, -0.021130804, -0.07855681, 0.36096573, 0
627, 1342588639, -0.9805311, -0.09603797, -0.15249251, 0.07826495, -0.06998794, -0.06765503, 0.4005556, 0
628, 1342605306, -0.9805266, -0.09600516, -0.15251519, 0.07831627, -0.05633823, -0.1101737, 0.42013645, 0
629, 1342621973, -0.9805277, -0.09595549, -0.15253428, 0.07832694, -0.030017454, -0.12416746, 0.37268925, 0
631, 1342655307, -0.98051816, -0.0958862, -0.15260562, 0.07839137, 0.0069009624, -0.04271679, 0.40364838, 0
632, 1342671974, -0.98051095, -0.09585738, -0.15264907, 0.078433156, 7.5055653E-4, 0.014429103, 0.38967228, 0
633, 1342688641, -0.9805039, -0.09582399, -0.15269437, 0.07847482, -0.062332958, 0.03159987, 0.35676765, 0
635, 1342721975, -0.9804859, -0.0958163, -0.1527794, 0.07854313, -0.0312432, 0.049119066, 0.37295723, 0
637, 1342755309, -0.98047376, -0.095767364, -0.15284202, 0.078632474, -0.07091977, 0.09765608, 0.36120987, 0
639, 1342788643, -0.9804704, -0.0957095, -0.15286759, 0.07869664, -0.059053466, 0.13850988, 0.38255596, 0
640, 1342805310, -0.98046416, -0.09567714, -0.15289411, 0.07876164, -0.07591741, 0.1441606, 0.36128807, 0
641, 1342821977, -0.9804568, -0.09566885, -0.15292914, 0.07879281, -0.07605408, 0.12887067, 0.39592743, 0
643, 1342855311, -0.98045313, -0.095651165, -0.15294926, 0.078822106, -0.030045282, 0.13064095, 0.35260773, 0
644, 1342871978, -0.98045224, -0.09564516, -0.15296264, 0.07881439, -0.058276724, 0.104713835, 0.37438488, 0
645, 1342888645, -0.98045254, -0.095641285, -0.15295172, 0.078835666, -0.09131398, 0.08558224, 0.36453533, 0
647, 1342921979, -0.98046, -0.09558874, -0.15292352, 0.078861564, -0.04752556, 0.05454775, 0.38923836, 0
648, 1342938646, -0.98046243, -0.095568106, -0.15290998, 0.07888174, -0.033838075, 0.07823568, 0.35527134, 0
649, 1342955313, -0.9804637, -0.095550776, -0.15291071, 0.078888625, -0.004764067, 0.071866706, 0.4063053, 0
652, 1343005314, -0.9804884, -0.09543906, -0.15285015, 0.07883304, -0.07705252, 0.014971512, 0.38022804, 0
653, 1343021981, -0.98049927, -0.09540412, -0.15279546, 0.07884574, -0.083461635, -0.04352071, 0.34930134, 0
655, 1343055315, -0.98048866, -0.09538473, -0.15281977, 0.07895529, -0.06851309, -0.003802123, 0.43828297, 0
656, 1343071982, -0.98046494, -0.09541111, -0.152912, 0.07903892, 0.021863926, -0.025356622, 0.33819294, 0
658, 1343105316, -0.98037446, -0.09548724, -0.15333991, 0.079239726, -0.033040468, 0.21190076, 0.32357693, 0
659, 1343121983, -0.980308, -0.09553598, -0.15366292, 0.07937765, -0.03488076, 0.52803206, 0.28364754, 0
660, 1343138650, -0.9802495, -0.095543414, -0.15392981, 0.079574436, -0.15462548, 0.82961273, 0.37082958, 0
662, 1343171984, -0.9801546, -0.09556778, -0.15435272, 0.07989377, -0.2654519, 1.1758226, 0.39120674, 0
663, 1343188651, -0.98013425, -0.09558721, -0.15443242, 0.07996476, -0.06535508, 0.9960083, 0.4289751, 0
664, 1343205318, -0.9801351, -0.095615, -0.15439758, 0.07998824, -0.0064769583, 0.71471584, 0.4678793, 0
667, 1343255319, -0.98022264, -0.0959351, -0.15384623, 0.07959387, 0.0069753923, 0.11151894, 0.3498125, 0
668, 1343271986, -0.98026145, -0.096061185, -0.15358011, 0.07947916, -0.103767484, -0.056460816, 0.37895775, 0
670, 1343305320, -0.9803315, -0.09631409, -0.15313101, 0.07917434, -0.025255064, -0.33848545, 0.45381355, 0
671, 1343321987, -0.9803624, -0.096415386, -0.15294403, 0.07902816, 0.067854285, -0.3721749, 0.45271492, 0
672, 1343338654, -0.9803878, -0.09648882, -0.15280047, 0.07890126, 0.028577473, -0.3877052, 0.41471577, 0
674, 1343371988, -0.9804231, -0.09660676, -0.15261763, 0.07867253, -0.016013473, -0.2658751, 0.36118507, 0
675, 1343388655, -0.98043394, -0.096648686, -0.15254551, 0.07862562, -0.024650797, -0.23542242, 0.3206911, 0
676, 1343405322, -0.9804363, -0.09669417, -0.15251812, 0.07859334, -0.06964809, -0.19229396, 0.36142063, 0
678, 1343438656, -0.98042977, -0.09680936, -0.152499, 0.07857072, -0.0053883386, -0.0499837, 0.43065643, 0
679, 1343455323, -0.9804311, -0.09680703, -0.15249191, 0.078570634, -0.07177985, 0.024970615, 0.38700294, 0
681, 1343488657, -0.9804318, -0.096796036, -0.15250933, 0.07854092, -0.047571268, 0.03131366, 0.351758, 0
682, 1343505324, -0.98043853, -0.096757695, -0.15250452, 0.078514814, -0.030868927, 0.012387758, 0.36271095, 0
683, 1343521991, -0.9804393, -0.09672267, -0.15250877, 0.07853913, -0.060089894, -0.005807677, 0.37105465, 0
685, 1343555325, -0.9804513, -0.09660302, -0.15253365, 0.07848963, -0.087412566, -0.040077828, 0.3470621, 0
686, 1343571992, -0.9804549, -0.09652429, -0.15255845, 0.07849282, -0.06511961, -0.037993066, 0.36984062, 0
687, 1343588659, -0.98046607, -0.09640561, -0.15256183, 0.07849324, -0.026333962, -0.07357077, 0.36972427, 0
689, 1343621993, -0.98049057, -0.09616067, -0.15256086, 0.07848829, -0.030813608, -0.12617896, 0.37472057, 0
690, 1343638660, -0.98050034, -0.09606924, -0.15255381, 0.07849282, 2.4452317E-4, -0.116491765, 0.3657341, 0
691, 1343655327, -0.98051095, -0.09599137, -0.15253957, 0.07848215, -0.0017390426, -0.117780544, 0.3461361, 0
694, 1343705328, -0.98051596, -0.09583175, -0.15258798, 0.07852146, -0.010929225, -0.095323026, 0.40650463, 0
695, 1343721995, -0.980518, -0.09580031, -0.1525977, 0.078516304, -2.6955662E-4, -0.06599572, 0.388546, 0
697, 1343755329, -0.98051584, -0.09578997, -0.15262176, 0.07850772, 0.009682357, -0.037718985, 0.36024284, 0
698, 1343771996, -0.98051155, -0.09581673, -0.1526272, 0.07851726, 0.001379969, -0.004651109, 0.36788464, 0
699, 1343788663, -0.98050976, -0.09583358, -0.15262528, 0.07852343, -0.013097859, 0.020119546, 0.39293385, 0
701, 1343821997, -0.9805063, -0.095841095, -0.15259784, 0.07861048, -0.08535691, 0.013154548, 0.32856274, 0
702, 1343838664, -0.98050404, -0.095833875, -0.15259854, 0.07864672, -0.047299925, 0.061167143, 0.35204887, 0
703, 1343855331, -0.9804964, -0.095820144, -0.15261957, 0.07871753, -0.017208934, 0.104577854, 0.37116718, 0
705, 1343888665, -0.9804971, -0.09575415, -0.15261358, 0.0788002, -0.08604589, 0.07020447, 0.42513847, 0
706, 1343905332, -0.98049533, -0.09571471, -0.15262951, 0.07884058, -0.11890051, 0.031495463, 0.37717056, 0
709, 1343955333, -0.98047733, -0.09562319, -0.15272897, 0.078981966, -0.0069101267, -0.061511043, 0.38516998, 0
710, 1343972000, -0.98047465, -0.09559244, -0.15274748, 0.07901585, -0.020686906, -0.044261545, 0.39304352, 0
712, 1344005334, -0.9804599, -0.09555029, -0.15283981, 0.07907149, -0.07042871, 0.0018215748, 0.3767271, 0
713, 1344022001, -0.9804471, -0.09555106, -0.15290014, 0.079113126, -0.022286365, 0.07496152, 0.37936783, 0
714, 1344038668, -0.9804363, -0.095544115, -0.15294789, 0.0791637, -0.024023173, 0.09042295, 0.3841648, 0
716, 1344072002, -0.9804153, -0.09557009, -0.15304257, 0.07920933, -0.022343919, 0.17691676, 0.3857851, 0
717, 1344088669, -0.9804074, -0.09558618, -0.1530573, 0.0792591, -0.018173726, 0.20463982, 0.37232685, 0
718, 1344105336, -0.98040116, -0.09561968, -0.15305215, 0.07930526, -0.066115916, 0.22159602, 0.3774891, 0
720, 1344138670, -0.9804002, -0.09569653, -0.15301155, 0.07930216, -0.058389295, 0.18280534, 0.37650013, 0
721, 1344155337, -0.9803999, -0.09573478, -0.15298395, 0.07931334, -0.03709097, 0.10827865, 0.34900093, 0
724, 1344205338, -0.9804075, -0.09590243, -0.15282148, 0.07933062, -0.05358656, 0.058776643, 0.36524963, 0
725, 1344222005, -0.98040783, -0.09599525, -0.1527721, 0.079309404, -0.012079199, 0.03352552, 0.37617588, 0
726, 1344238672, -0.98040557, -0.09609809, -0.1527265, 0.07929915, 0.0028426377, 0.025055438, 0.3686552, 0
728, 1344272006, -0.9803988, -0.096337885, -0.15262845, 0.0792833, -0.06204161, -0.05036834, 0.40185738, 0
729, 1344288673, -0.9803933, -0.096458495, -0.15258887, 0.07927877, -0.055787157, -0.061947286, 0.4062643, 0
730, 1344305340, -0.98039055, -0.0965532, -0.1525479, 0.07927701, -0.022657732, -0.083673865, 0.37244606, 0
732, 1344338674, -0.9803833, -0.09672934, -0.15250245, 0.07924071, -0.02638481, -0.0051936307, 0.39216042, 0
733, 1344355341, -0.9803765, -0.09681936, -0.1524876, 0.07924232, -0.05451537, 0.009717617, 0.41692924, 0
734, 1344372008, -0.98036414, -0.09692058, -0.15249951, 0.07924828, -0.07151811, 0.026790095, 0.43405342, 0
736, 1344405342, -0.9803312, -0.0971576, -0.152576, 0.07921815, -0.031045837, 0.08344214, 0.41848278, 0
739, 1344455343, -0.98026246, -0.09755417, -0.15277778, 0.07919371, -0.026616259, 0.07042843, 0.43145943, 0
740, 1344472010, -0.9802372, -0.09770848, -0.15284272, 0.07919073, -0.10003996, 0.1506116, 0.2966833, 0
741, 1344488677, -0.9802026, -0.09789361, -0.15293738, 0.079206556, 0.074247986, 0.026311163, 0.42654514, 0
743, 1344522011, -0.9801563, -0.09820458, -0.15304044, 0.07919547, -0.10294023, 0.040978614, 0.36475372, 0
744, 1344538678, -0.9801341, -0.09837155, -0.1530885, 0.07917175, -0.03079461, 0.0778057, 0.37398052, 0
745, 1344555345, -0.98011374, -0.098531336, -0.15311758, 0.07916874, -0.065288134, 0.13358258, 0.36344624, 0
747, 1344588679, -0.9800733, -0.09884201, -0.15317886, 0.079162985, -0.05775463, 0.054829657, 0.37230492, 0
748, 1344605346, -0.9800514, -0.09899226, -0.15321335, 0.07918003, 0.012396922, 0.067200065, 0.40068245, 0
749, 1344622013, -0.9800314, -0.09913136, -0.15324393, 0.07919371, 0.0112093985, 0.09990797, 0.40222168, 0
751, 1344655347, -0.97999066, -0.099412926, -0.1533188, 0.07920012, -0.08889837, 0.11006658, 0.37535763, 0
752, 1344672014, -0.9799731, -0.0995277, -0.15334427, 0.07922366, -0.047541764, 0.100090556, 0.4531374, 0
753, 1344688681, -0.9799585, -0.09962483, -0.15335949, 0.07925266, -0.099897325, 0.14113885, 0.4219103, 0
755, 1344722015, -0.9799317, -0.09979457, -0.15340379, 0.07928488, 0.03230131, 0.12431604, 0.3726549, 0
756, 1344738682, -0.97992265, -0.09984982, -0.153407, 0.07931933, -7.974942E-4, 0.057431962, 0.3743992, 0
757, 1344755349, -0.97991943, -0.099883065, -0.15339802, 0.07933563, -0.039360967, 7.4387906E-4, 0.3856554, 0
759, 1344788683, -0.97993445, -0.09987717, -0.15328236, 0.079381466, -0.20800865, 0.118352376, 0.3926382, 0
760, 1344805350, -0.97993565, -0.09990008, -0.15324366, 0.07941273, -0.07957743, 0.091216, 0.38936138, 0
761, 1344822017, -0.9799354, -0.099917784, -0.15320596, 0.07946551, 0.06333351, 0.10580232, 0.4110136, 0
763, 1344855351, -0.9799148, -0.09998092, -0.15328574, 0.07948822, -0.09808855, 0.040219005, 0.37233925, 0
766, 1344905352, -0.9798473, -0.10025186, -0.15354966, 0.07946733, 4.1215788E-4, 0.08122642, 0.3178625, 0
767, 1344922019, -0.9798255, -0.10039649, -0.15359133, 0.0794729, 0.08231032, 0.08726527, 0.2824602, 0
768, 1344938686, -0.97980523, -0.100614175, -0.15359946, 0.079432786, 0.1421681, 0.10511228, 0.31732655, 0
770, 1344972020, -0.97977364, -0.10113631, -0.15354808, 0.07926044, -0.08104122, 0.0031465874, 0.3643217, 0
771, 1344988687, -0.9797564, -0.10149821, -0.15347084, 0.07915977, -0.10998402, -0.03284087, 0.38011742, 0
772, 1345005354, -0.9797284, -0.10191427, -0.15340692, 0.07909453, 0.10616173, -0.020152263, 0.38070583, 0
774, 1345038688, -0.97965705, -0.102880344, -0.15328659, 0.07896128, 0.102784, 0.07358904, 0.39353275, 0
775, 1345055355, -0.9796107, -0.10340677, -0.15327758, 0.078867614, 0.005329443, 0.040029075, 0.41622448, 0
776, 1345072022, -0.97955465, -0.10397243, -0.15330584, 0.07876325, -0.07200179, 0.03117447, 0.44147205, 0
778, 1345105356, -0.9794328, -0.105045885, -0.1533868, 0.0786967, -0.14149554, 0.09881329, 0.3542595, 0
780, 1345138690, -0.97932553, -0.106009424, -0.15341234, 0.07868883, 0.020681206, 0.12991601, 0.38477707, 0
782, 1345172024, -0.97923803, -0.10675757, -0.15339133, 0.07880759, -0.12831667, 0.08561946, 0.4120798, 0
783, 1345188691, -0.97920775, -0.1070542, -0.15337756, 0.078810155, -0.14427538, 0.098738514, 0.42838478, 0
784, 1345205358, -0.9791808, -0.1073014, -0.15335006, 0.07886094, -0.092199095, 0.058087803, 0.40972424, 0
786, 1345238692, -0.9791355, -0.107634395, -0.1533218, 0.07902542, -0.09921282, 0.109962314, 0.42124176, 0
787, 1345255359, -0.97911364, -0.107763134, -0.15334949, 0.07906619, -0.08364928, 0.11865342, 0.38086605, 0
789, 1345288693, -0.9790696, -0.1079139, -0.15346391, 0.079184145, -0.14042626, 0.0666973, 0.3203497, 0
790, 1345305360, -0.9790566, -0.10793048, -0.15350884, 0.079233676, -0.23314369, 0.087707765, 0.3256073, 0
791, 1345322027, -0.9790523, -0.107938096, -0.15353055, 0.07923502, -0.18218395, 0.1193619, 0.3767128, 0
793, 1345355361, -0.97905374, -0.1078606, -0.15358476, 0.07921794, 0.007754447, 0.068464115, 0.42407417, 0
795, 1345388695, -0.97906065, -0.10774573, -0.15365356, 0.07915574, 0.040613644, 0.13762952, 0.3290577, 0
797, 1345422029, -0.9790591, -0.10765595, -0.15371643, 0.07917547, -0.08128138, 0.18297803, 0.38665962, 0
798, 1345438696, -0.9790569, -0.10763089, -0.15373397, 0.07920268, -0.021896223, 0.08117233, 0.4182377, 0
799, 1345455363, -0.9790584, -0.10760415, -0.15373224, 0.0792239, 0.051210955, -0.014481097, 0.3848734, 0
801, 1345488697, -0.9790752, -0.10752283, -0.15366569, 0.07925475, 0.017779449, 0.032345984, 0.40570164, 0
802, 1345505364, -0.9790783, -0.10747242, -0.15366589, 0.07928318, -0.09026548, 0.105981655, 0.39885616, 0
803, 1345522031, -0.97908264, -0.10740864, -0.15366551, 0.07931724, -0.13805155, 0.06848481, 0.35279465, 0
805, 1345555365, -0.9790909, -0.1072646, -0.15367201, 0.079398185, -0.047874574, -0.0038652655, 0.42374516, 0
806, 1345572032, -0.97909796, -0.10719014, -0.15366566, 0.07942429, -0.07127761, 0.052759673, 0.41327095, 0
807, 1345588699, -0.97910833, -0.10711346, -0.15365404, 0.079422385, -0.07164451, 0.13761592, 0.40194702, 0
810, 1345638700, -0.97913986, -0.10681192, -0.15359473, 0.07955429, -0.08936685, 0.10282183, 0.3607149, 0
811, 1345655367, -0.9791539, -0.106679685, -0.15356085, 0.079624295, -0.12353695, 0.12014187, 0.33924484, 0
813, 1345688701, -0.9791977, -0.10639703, -0.15342858, 0.07972026, 0.048990574, 0.1332204, 0.38616848, 0
814, 1345705368, -0.9792211, -0.10624276, -0.15334432, 0.07979974, 0.057460487, 0.096521586, 0.39482594, 0
815, 1345722035, -0.97924083, -0.10609709, -0.15329204, 0.07985222, -0.004284743, 0.018313674, 0.39197445, 0
817, 1345755369, -0.9792818, -0.10582793, -0.153171, 0.07993892, -0.06707098, -0.003213306, 0.32073498, 0
818, 1345772036, -0.97930443, -0.10570471, -0.15307698, 0.08000484, -0.07042111, -0.012576738, 0.387681, 0
820, 1345805370, -0.9793306, -0.105541095, -0.15297627, 0.08009243, 0.03910806, -0.10737409, 0.44361973, 0
821, 1345822037, -0.9793315, -0.105479434, -0.1529935, 0.08012894, 0.08274092, -0.112562686, 0.45758724, 0
822, 1345838704, -0.97932744, -0.10542542, -0.1530291, 0.08018315, 0.004823633, -0.05037602, 0.39774227, 0
824, 1345872038, -0.97930753, -0.10539287, -0.15314394, 0.080250084, -0.058397453, 0.10517033, 0.3203888, 0
825, 1345888705, -0.9793026, -0.10536283, -0.15316714, 0.08030474, -0.01249728, 0.13828374, 0.35895634, 0
826, 1345905372, -0.9793048, -0.10531859, -0.15315272, 0.08036333, -0.036449824, 0.14228776, 0.34648132, 0
828, 1345938706, -0.97932005, -0.10524885, -0.15306745, 0.08043116, -0.03255243, 0.161239, 0.3807993, 0
829, 1345955373, -0.97932804, -0.10522401, -0.15302768, 0.08044267, -0.031116132, 0.18419917, 0.38199806, 0
830, 1345972040, -0.97933584, -0.105200075, -0.15298326, 0.08046335, -0.049794327, 0.19507276, 0.40761566, 0
832, 1346005374, -0.9793502, -0.105184525, -0.15291496, 0.08043939, -0.011014719, 0.2120822, 0.36647797, 0
833, 1346022041, -0.9793596, -0.105167896, -0.15286595, 0.080438435, -0.015705362, 0.1579775, 0.37346363, 0
834, 1346038708, -0.97936994, -0.10514382, -0.15281777, 0.08043495, -0.081494614, 0.13630758, 0.38384056, 0
837, 1346088709, -0.97940373, -0.105104804, -0.15266621, 0.080363125, 0.031084506, -0.02754828, 0.37809277, 0
838, 1346105376, -0.97940564, -0.10509263, -0.1526537, 0.08038053, 0.007895484, -0.0617742, 0.39366245, 0
840, 1346138710, -0.9794178, -0.10501861, -0.15263778, 0.08035958, -0.11806312, -0.012713947, 0.34935474, 0
841, 1346155377, -0.97941774, -0.10497745, -0.15265006, 0.0803906, -0.12535758, -0.023300638, 0.3388052, 0
842, 1346172044, -0.9794184, -0.104941726, -0.15266049, 0.080408365, -0.047566798, -0.030228283, 0.36191463, 0
844, 1346205378, -0.9794216, -0.10485394, -0.15268368, 0.08043942, 0.061365593, -0.03511844, 0.39588833, 0
845, 1346222045, -0.9794245, -0.104798675, -0.15269566, 0.0804539, -0.08167141, -0.023620179, 0.33369255, 0
847, 1346255379, -0.9794244, -0.104665935, -0.1527631, 0.08049974, -0.11096703, 0.05361316, 0.39593506, 0
848, 1346272046, -0.979427, -0.104566306, -0.15279365, 0.08053866, -0.037239604, 0.07201643, 0.3696375, 0
849, 1346288713, -0.9794321, -0.104470685, -0.15279935, 0.080590725, 0.015461956, 0.063025735, 0.3564272, 0
852, 1346338714, -0.9794548, -0.10422711, -0.15277484, 0.080676705, -0.0516848, 0.062239055, 0.377532, 0
853, 1346355381, -0.9794563, -0.104168735, -0.15278125, 0.08072108, -0.039394606, 0.08659702, 0.41451645, 0
855, 1346388715, -0.97946, -0.10406889, -0.15279856, 0.08077261, -6.917726E-4, 0.12451261, 0.37877178, 0
856, 1346405382, -0.9794618, -0.10403846, -0.15278564, 0.08081362, -0.01569441, 0.093300596, 0.3646965, 0
857, 1346422049, -0.97946376, -0.10402046, -0.1527777, 0.08082873, -0.01980012, 0.08370069, 0.38329315, 0
859, 1346455383, -0.9794599, -0.10408954, -0.15273967, 0.080859184, 0.008344186, 0.06252308, 0.35131073, 0
860, 1346472050, -0.97945607, -0.10414469, -0.15271452, 0.08088273, 0.021549826, 0.076658525, 0.35995865, 0
861, 1346488717, -0.97945124, -0.10420622, -0.1526871, 0.08091244, -0.022988532, 0.059862524, 0.34289455, 0
863, 1346522051, -0.9794456, -0.10433553, -0.15263681, 0.08090982, -0.049167488, 0.016393138, 0.39374542, 0
864, 1346538718, -0.97944987, -0.10436038, -0.15259771, 0.08089805, -0.042209752, 0.0020819951, 0.35380363, 0
867, 1346588719, -0.97944045, -0.104507156, -0.15249977, 0.08100861, 0.0070138364, 0.0021102976, 0.34354877, 0
868, 1346605386, -0.9794375, -0.10453966, -0.15248784, 0.08102584, -0.08200701, -0.041040473, 0.3624735, 0
870, 1346638720, -0.9794318, -0.104632914, -0.1524553, 0.081033885, -0.03137563, -0.012885662, 0.3880043, 0
871, 1346655387, -0.97943056, -0.10466513, -0.15243685, 0.08104193, 7.875479E-4, 0.041686118, 0.36653614, 0
872, 1346672054, -0.9794333, -0.10468951, -0.15241085, 0.08102664, -0.017853545, 0.057501223, 0.3688507, 0
874, 1346705388, -0.97943187, -0.10471292, -0.15239672, 0.08104074, -0.10916138, -0.007604749, 0.41837406, 0
875, 1346722055, -0.9794327, -0.10473457, -0.15237436, 0.08104515, -0.030350937, 0.025886908, 0.4101448, 0
876, 1346738722, -0.9794308, -0.10475264, -0.15235996, 0.08107132, -0.0069585172, 0.04690288, 0.37053108, 0
878, 1346772056, -0.97943294, -0.104769774, -0.15233473, 0.08106947, -0.030497113, 0.110958844, 0.3579712, 0
879, 1346788723, -0.97943527, -0.1047536, -0.15233114, 0.08107039, -0.06172053, 0.09576348, 0.36440182, 0
882, 1346838724, -0.979439, -0.10479922, -0.15225847, 0.0811024, 0.036071863, 0.07837945, 0.3648424, 0
883, 1346855391, -0.9794452, -0.104803175, -0.15221496, 0.0811038, 0.02537822, 0.08899616, 0.35010338, 0
884, 1346872058, -0.97944564, -0.104821354, -0.15218829, 0.08112493, -0.0573977, 0.07225765, 0.3489523, 0
886, 1346905392, -0.97944176, -0.104884066, -0.15218064, 0.081104845, -0.048409108, 0.04219553, 0.4101324, 0
887, 1346922059, -0.97943866, -0.10490601, -0.1521753, 0.08112478, -0.030014995, 0.046913218, 0.36757183, 0
888, 1346938726, -0.97943544, -0.10492726, -0.15216525, 0.081154466, -0.06099512, 0.020760106, 0.35396576, 0
890, 1346972060, -0.97943044, -0.104986936, -0.1521502, 0.08116549, -7.342401E-5, 0.05211643, 0.3695326, 0
891, 1346988727, -0.9794311, -0.10499392, -0.15213904, 0.081169605, -0.017755758, 0.033874616, 0.3616104, 0
892, 1347005394, -0.9794316, -0.10500936, -0.15213142, 0.08115795, -0.08744442, 0.039090097, 0.35494518, 0
894, 1347038728, -0.9794334, -0.105020985, -0.15209806, 0.08118418, -0.035509393, 0.030804472, 0.38254738, 0
895, 1347055395, -0.9794315, -0.10502193, -0.15209833, 0.0812054, -0.042990707, 0.046923835, 0.40099716, 0
897, 1347088729, -0.97943497, -0.10501557, -0.15206379, 0.08123666, -0.035937976, 0.05445393, 0.3998127, 0
898, 1347105396, -0.9794354, -0.105010636, -0.15205494, 0.08125371, -0.032827012, 0.03705705, 0.39508533, 0
899, 1347122063, -0.9794413, -0.10499064, -0.15205258, 0.081213415, -0.029354626, 0.025878778, 0.37012196, 0
901, 1347155397, -0.97944057, -0.104983814, -0.15205488, 0.08122733, -0.035332594, 0.041009877, 0.35332775, 0
902, 1347172064, -0.9794419, -0.104986794, -0.1520342, 0.08124527, -0.008369108, 0.06395516, 0.36653137, 0
903, 1347188731, -0.9794518, -0.10496305, -0.1520096, 0.0812026, -0.028093679, 0.062529005, 0.356287, 0
905, 1347222065, -0.9794545, -0.10496943, -0.15195894, 0.08125585, -0.040840734, 0.05652676, 0.38274193, 0
906, 1347238732, -0.9794562, -0.10497186, -0.15193748, 0.0812729, -0.028460016, 0.031393316, 0.3709116, 0
909, 1347288733, -0.97945666, -0.10494591, -0.15191534, 0.08134252, -0.054184683, 0.07841544, 0.35946178, 0
910, 1347305400, -0.9794603, -0.10492842, -0.15190008, 0.08135086, -0.0324419, 0.07087339, 0.36855793, 0
911, 1347322067, -0.9794632, -0.104916096, -0.15187678, 0.08137393, -0.031893063, 0.07334298, 0.37157917, 0
913, 1347355401, -0.9794665, -0.10489241, -0.15184951, 0.081415445, -0.060011998, 0.039711352, 0.3941679, 0
914, 1347372068, -0.979468, -0.10487565, -0.15184227, 0.08143285, -0.011906424, 0.058889348, 0.3778305, 0
915, 1347388735, -0.97948617, -0.104821116, -0.15175994, 0.08143747, -0.059318326, -0.007579939, 0.31157398, 0
917, 1347422069, -0.97948515, -0.104832835, -0.15174684, 0.08146018, 0.08254378, -2.9199175E-4, 0.37959194, 0
918, 1347438736, -0.97947776, -0.104803376, -0.15177268, 0.08153805, 0.080082454, -0.079282865, 0.40835, 0
919, 1347455403, -0.9794745, -0.1047573, -0.15177812, 0.0816271, -0.19526382, 0.06977052, 0.4198103, 0
921, 1347488737, -0.97943234, -0.10470344, -0.15200368, 0.08178052, -0.02187365, 0.35843515, 0.4287176, 0
923, 1347522071, -0.9793928, -0.10455364, -0.1522562, 0.08197719, -0.007317926, 0.54301494, 0.3538084, 0
925, 1347555405, -0.9793552, -0.104501665, -0.15249436, 0.082050174, -0.15137874, 0.55754197, 0.3372116, 0
926, 1347572072, -0.97934353, -0.10452959, -0.15254621, 0.08205682, -0.13850717, 0.542933, 0.37148952, 0
928, 1347605406, -0.9793483, -0.10463029, -0.15248588, 0.0819827, -0.0042034965, 0.43575615, 0.34905243, 0
929, 1347622073, -0.9793605, -0.10468758, -0.15239722, 0.0819301, -0.00997516, 0.35932407, 0.336133, 0
930, 1347638740, -0.97937787, -0.10475643, -0.15227894, 0.08185458, -0.042547815, 0.3118242, 0.35178947, 0
932, 1347672074, -0.97941625, -0.104885876, -0.15203673, 0.08167881, -0.09569971, 0.02318587, 0.38263226, 0
933, 1347688741, -0.97943413, -0.10495996, -0.15191564, 0.08159602, -0.013142003, -0.073298976, 0.38243484, 0
934, 1347705408, -0.97945535, -0.1050045, -0.15179034, 0.081516, 0.026211923, -0.13494718, 0.39945507, 0
936, 1347738742, -0.97949505, -0.10505616, -0.15158784, 0.08134884, -0.076731436, -0.19439016, 0.41484547, 0
938, 1347772076, -0.979516, -0.10514633, -0.15144469, 0.0812456, 0.09556755, -0.12967923, 0.3722763, 0
940, 1347805410, -0.9795249, -0.10526667, -0.15135454, 0.08115041, -0.05724066, -0.20513022, 0.39518166, 0
941, 1347822077, -0.9795215, -0.105335385, -0.15134992, 0.08111176, -0.024598718, -0.1734261, 0.4051609, 0
942, 1347838744, -0.9795195, -0.105397895, -0.15133701, 0.08107823, -0.016569015, -0.17143846, 0.3779707, 0
944, 1347872078, -0.9795178, -0.10545324, -0.15134704, 0.08100921, -0.03293888, -0.14952421, 0.3657198, 0
945, 1347888745, -0.9795203, -0.10543873, -0.1513539, 0.080984294, -0.030412626, -0.13594382, 0.37788677, 0
946, 1347905412, -0.9795207, -0.105410814, -0.1513831, 0.08096215, -0.030970737, -0.13716523, 0.39430618, 0
948, 1347938746, -0.9795188, -0.10533297, -0.15143289, 0.08099303, -0.021708136, -0.1171551, 0.36843777, 0
949, 1347955413, -0.97951895, -0.10526973, -0.15147358, 0.08099741, -0.036529057, -0.09584716, 0.3356104, 0
951, 1347988747, -0.97952735, -0.10511958, -0.15149996, 0.08104044, -0.05692305, -0.078640014, 0.33083153, 0
953, 1348022081, -0.97954863, -0.10492346, -0.15147439, 0.08108565, -0.049785163, -0.044065885, 0.3280115, 0
955, 1348055415, -0.97957504, -0.10468924, -0.15143779, 0.08113831, -0.046507012, -0.072027616, 0.37349224, 0
956, 1348072082, -0.97958416, -0.10456887, -0.15144482, 0.08117065, -0.023892753, -0.069752805, 0.40935135, 0
957, 1348088749, -0.9795941, -0.10446817, -0.1514452, 0.081180215, -0.0074323644, -0.06500542, 0.41611862, 0
959, 1348122083, -0.97960985, -0.104275815, -0.1514551, 0.081217825, -0.07763175, -0.06334357, 0.34997177, 0
960, 1348138750, -0.97961587, -0.10419385, -0.15145972, 0.08124086, -0.078407675, -0.05567054, 0.32642555, 0
961, 1348155417, -0.97961926, -0.10412275, -0.15146877, 0.08127594, 0.023859225, -0.003921367, 0.37910557, 0
963, 1348188751, -0.9796253, -0.10400428, -0.15148617, 0.08132094, 0.009718902, 0.014023985, 0.38331127, 0
964, 1348205418, -0.97962725, -0.103976205, -0.15148161, 0.08134177, -0.0041969027, 0.035979718, 0.35898018, 0
965, 1348222085, -0.9796232, -0.10395487, -0.15149707, 0.08138883, -0.04437425, 0.07573055, 0.369771, 0
967, 1348255419, -0.97961473, -0.1039442, -0.15150183, 0.08149633, -0.029561376, 0.095160365, 0.35911274, 0
968, 1348272086, -0.9796149, -0.10394502, -0.15148954, 0.081516266, -0.013045892, 0.08322832, 0.38292313, 0
969, 1348288753, -0.9796108, -0.10397775, -0.15147771, 0.08154574, -0.0024350618, 0.07159106, 0.37685776, 0
971, 1348322087, -0.9796257, -0.10397142, -0.15137538, 0.08156666, -0.081868775, -0.024375066, 0.23981857, 0
972, 1348338754, -0.9796225, -0.10400559, -0.15137222, 0.08156705, -0.060727913, 0.07696878, 0.53973293, 0
973, 1348355421, -0.9796274, -0.10402868, -0.15130664, 0.08159891, 0.06301478, 0.034081787, 0.4494009, 0
975, 1348388755, -0.9795915, -0.10400695, -0.15142593, 0.081835985, -0.24360442, 0.13110892, 0.32471275, 0
976, 1348405422, -0.979566, -0.10397542, -0.151573, 0.081909806, -0.218768, 0.24644348, 0.34014034, 0
978, 1348438756, -0.9795247, -0.10376776, -0.15185942, 0.08213544, 0.048354458, 0.49310544, 0.3852148, 0
980, 1348472090, -0.9795083, -0.10347886, -0.1520363, 0.08236906, -0.286632, 0.5732079, 0.3817873, 0
982, 1348505424, -0.9795029, -0.103205845, -0.15220417, 0.082463056, -0.058824588, 0.4990956, 0.42385197, 0
983, 1348522091, -0.97949964, -0.10310168, -0.1522612, 0.082527936, 0.028001256, 0.41839775, 0.37146664, 0
984, 1348538758, -0.9795011, -0.103022754, -0.15229607, 0.082544476, 0.05655962, 0.35991487, 0.30639648, 0
986, 1348572092, -0.97953165, -0.10290153, -0.15222274, 0.082469136, -0.16188909, 0.16796003, 0.3588276, 0
987, 1348588759, -0.97955626, -0.10285115, -0.15211813, 0.08243266, -0.18873724, 0.0800327, 0.3831215, 0
988, 1348605426, -0.97958016, -0.102834746, -0.15200669, 0.08237389, 4.034409E-5, -0.0037432273, 0.4231739, 0
990, 1348638760, -0.9796076, -0.10287429, -0.15188026, 0.082232416, 0.119256675, 0.0037085828, 0.43666744, 0
991, 1348655427, -0.97961056, -0.10292637, -0.15186141, 0.08216679, -0.025162306, -0.017078262, 0.37490845, 0
992, 1348672094, -0.9796101, -0.10298655, -0.15185583, 0.0821065, -0.12360423, -0.06947163, 0.3631029, 0
995, 1348722095, -0.9796029, -0.10319701, -0.15181738, 0.08199912, 0.023224002, -0.012484651, 0.36183548, 0
996, 1348738762, -0.9796024, -0.1032342, -0.15181097, 0.08196962, -0.011108594, 0.018190434, 0.39853573, 0
998, 1348772096, -0.97959715, -0.10334571, -0.15180665, 0.081900746, -0.070662506, -0.020519858, 0.39060783, 0
999, 1348788763, -0.9795979, -0.10336342, -0.15179193, 0.08189508, -0.065469965, -0.02072915, 0.36702538, 0
1000, 1348805430, -0.9795983, -0.103367716, -0.1517843, 0.0819014, -0.02514923, -0.0321085, 0.3748083, 0
1002, 1348838764, -0.9796107, -0.10337211, -0.15172154, 0.08186296, 0.014173627, -0.07631375, 0.36621094, 0
1003, 1348855431, -0.9796136, -0.103388056, -0.15168643, 0.08187273, -0.07735655, -0.10437588, 0.33934212, 0
1004, 1348872098, -0.9796204, -0.10338894, -0.15165594, 0.08184692, -0.081707954, -0.11655553, 0.35024357, 0
1006, 1348905432, -0.9796368, -0.103388734, -0.15160131, 0.08175281, -8.449907E-4, -0.17921895, 0.3383417, 0
1007, 1348922099, -0.9796505, -0.10334188, -0.1515652, 0.08171436, 0.009769081, -0.18325248, 0.3614483, 0
1010, 1348972100, -0.9797004, -0.10319262, -0.1514112, 0.08159089, -0.096619286, -0.22338946, 0.38712788, 0
1011, 1348988767, -0.9797158, -0.103138864, -0.15135577, 0.08157468, -0.050791085, -0.18288632, 0.3501644, 0
1013, 1349022101, -0.9797244, -0.10300749, -0.15137136, 0.08160946, 0.028749242, -0.14197311, 0.3481636, 0
1014, 1349038768, -0.97972924, -0.10296094, -0.1513771, 0.08159977, -0.04510279, -0.11453254, 0.4048195, 0
1015, 1349055435, -0.979731, -0.10291822, -0.15138727, 0.08161333, -0.033231236, -0.063898385, 0.37480164, 0
1017, 1349088769, -0.9797306, -0.10287752, -0.15139739, 0.08165082, -0.036506034, 0.011243316, 0.3520403, 0
1018, 1349105436, -0.97972775, -0.10288538, -0.15140897, 0.08165452, 0.012785835, 0.027006373, 0.35300636, 0
1019, 1349122103, -0.9797238, -0.10291216, -0.15142109, 0.08164483, 0.031982135, 0.06246142, 0.33215714, 0
1021, 1349155437, -0.9797128, -0.1029989, -0.15142876, 0.081653655, -0.012081434, 0.050451737, 0.384099, 0
1022, 1349172104, -0.979709, -0.10304593, -0.15141948, 0.08165598, -0.06364822, 0.03445103, 0.3975172, 0
1025, 1349222105, -0.9797066, -0.10313907, -0.15133971, 0.08171618, 3.0286005E-4, 0.017404674, 0.3988533, 0
1026, 1349238772, -0.9797069, -0.103164725, -0.15131064, 0.08173481, -0.0050607803, 0.0015975588, 0.36368942, 0
1027, 1349255439, -0.9797059, -0.103184044, -0.15129784, 0.08174425, -0.022864114, -0.009088832, 0.36556625, 0
1029, 1349288773, -0.97969735, -0.10320195, -0.15129057, 0.08183804, -0.06327327, -0.02004196, 0.39681816, 0
1030, 1349305440, -0.97969246, -0.10321617, -0.15128693, 0.08188552, -0.0500355, -0.00906658, 0.37614918, 0
1031, 1349322107, -0.9796784, -0.1032626, -0.15132809, 0.08191976, 0.05341848, 0.061301667, 0.39364243, 0
1033, 1349355441, -0.97967947, -0.10327562, -0.15129495, 0.08195239, -0.025702761, -0.13271068, 0.77216625, 0
1034, 1349372108, -0.979661, -0.103315055, -0.15134607, 0.0820286, 0.12621106, -0.05184165, 0.32445145, 0
1036, 1349405442, -0.9796082, -0.103250116, -0.15158434, 0.08229956, -0.39259437, 0.3503688, 0.29860973, 0
1037, 1349422109, -0.9795772, -0.10321948, -0.15175778, 0.08238825, -0.03085071, 0.4118965, 0.40724087, 0
1038, 1349438776, -0.9795556, -0.10308516, -0.15189502, 0.08256024, 0.09768667, 0.6961483, 0.46068382, 0
1040, 1349472110, -0.9795285, -0.10278343, -0.15212053, 0.08284223, -0.28647935, 0.78168035, 0.39363194, 0
1041, 1349488777, -0.9795172, -0.10264644, -0.15226173, 0.0828861, -0.18716025, 0.7173938, 0.3997774, 0
1042, 1349505444, -0.97950995, -0.1025053, -0.15236256, 0.0829618, 0.0014945194, 0.6754752, 0.40118504, 0
1044, 1349538778, -0.979522, -0.10230407, -0.15240583, 0.08298686, -0.0036448257, 0.5334159, 0.3238268, 0
1045, 1349555445, -0.97954214, -0.1022553, -0.15235148, 0.08291054, -0.04414783, 0.5007536, 0.3320694, 0
1046, 1349572112, -0.9795738, -0.10218642, -0.15223904, 0.082828104, -0.13820465, 0.39576927, 0.3837719, 0
1048, 1349605446, -0.9796495, -0.10210332, -0.15191719, 0.082624584, -0.07311779, 0.20895353, 0.43344402, 0
1049, 1349622113, -0.97968423, -0.10210707, -0.15176988, 0.08247942, 0.11307442, 0.14162667, 0.39610386, 0
1052, 1349672114, -0.97979885, -0.10209035, -0.15127808, 0.08204073, -0.16764365, -0.036644224, 0.33779144, 0
1053, 1349688781, -0.97984266, -0.10205032, -0.15111485, 0.081867695, -0.12520279, -0.19424129, 0.39539433, 0
1054, 1349705448, -0.97988987, -0.10194315, -0.15095781, 0.08172557, 7.6832576E-4, -0.2702584, 0.3857422, 0
1056, 1349738782, -0.9799972, -0.10154711, -0.15062326, 0.081549376, 0.028743431, -0.21387388, 0.37061024, 0
1057, 1349755449, -0.98004895, -0.10133905, -0.15047273, 0.081463575, 0.01213653, -0.24212384, 0.38175297, 0
1059, 1349788783, -0.9801607, -0.10073334, -0.15013883, 0.08148724, -0.032036334, -0.45639342, 0.36519337, 0
1060, 1349805450, -0.9802022, -0.10043463, -0.15004246, 0.08153358, 0.02668767, -0.47090295, 0.38706303, 0
1061, 1349822117, -0.98024476, -0.10012421, -0.14995068, 0.08157244, 0.039367896, -0.39563617, 0.42239094, 0
1063, 1349855451, -0.98032385, -0.099441625, -0.14982703, 0.08168444, -0.14750682, -0.32297146, 0.25517845, 0
1064, 1349872118, -0.9803533, -0.099042386, -0.14985266, 0.08176905, -0.104081824, -0.41855595, 0.35118484, 0
1067, 1349922119, -0.9804615, -0.09776208, -0.14988217, 0.08195788, -0.057303134, -0.3212878, 0.42964363, 0
1068, 1349938786, -0.98049045, -0.09734659, -0.14991818, 0.08203924, 0.07595115, -0.20582014, 0.45254803, 0
1069, 1349955453, -0.98051584, -0.09693672, -0.14997299, 0.08212155, 0.1154193, -0.11925246, 0.39530563, 0
1071, 1349988787, -0.9805639, -0.09611544, -0.15007809, 0.08232206, -0.06398193, 0.062164735, 0.38950348, 0
1072, 1350005454, -0.9805814, -0.09571079, -0.15017098, 0.082415104, 0.026269589, 0.12449163, 0.4106884, 0
1073, 1350022121, -0.9805956, -0.09531219, -0.15024276, 0.08257553, 0.08674583, 0.15618601, 0.4020319, 0
1075, 1350055455, -0.9806316, -0.09460515, -0.15030192, 0.08285469, 0.07220019, 0.21384662, 0.35480022, 0
1076, 1350072122, -0.98064697, -0.09431588, -0.15031984, 0.0829688, 0.1206191, 0.17485787, 0.40789986, 0
1077, 1350088789, -0.9806665, -0.09405634, -0.1502789, 0.08310637, 0.08906309, 0.13088028, 0.33951092, 0
1079, 1350122123, -0.9806978, -0.09371352, -0.15012842, 0.083396554, 0.026774952, 0.21230073, 0.33416653, 0
1081, 1350155457, -0.9807056, -0.09357938, -0.15000355, 0.08367953, -0.2372029, 0.069648705, 0.45388985, 0
1083, 1350188791, -0.98068976, -0.09342198, -0.14996985, 0.08410075, -0.08613843, 0.10037143, 0.40172672, 0
1084, 1350205458, -0.9806708, -0.09333336, -0.15001538, 0.08433843, -0.052016716, 0.25624582, 0.42879963, 0
1086, 1350238792, -0.98059356, -0.09329431, -0.15027887, 0.08480975, -0.14603263, 0.3923598, 0.34854317, 0
1087, 1350255459, -0.98053956, -0.09332411, -0.15049589, 0.085015684, -0.18317714, 0.12965727, 0.5403166, 0
1088, 1350272126, -0.9804801, -0.09335317, -0.15073757, 0.0852429, -0.2022838, 0.18256706, 0.45732403, 0
1090, 1350305460, -0.98036504, -0.09351963, -0.15115333, 0.08564648, -0.07445887, 0.45006585, 0.28440762, 0
1091, 1350322127, -0.98029876, -0.09364868, -0.15136948, 0.08588049, 0.07286914, 0.49251583, 0.2874441, 0
1092, 1350338794, -0.98023915, -0.09371087, -0.15155943, 0.086158544, -0.10297644, 0.3413672, 0.54286003, 0
1094, 1350372128, -0.98011476, -0.094095014, -0.15193498, 0.08649325, 0.22404447, 0.49450284, 0.17161274, 0
1096, 1350405462, -0.9800556, -0.09443016, -0.15192495, 0.0868147, 0.08588262, 0.15314624, 0.51695156, 0
1098, 1350438796, -0.97995234, -0.09508744, -0.15206027, 0.08702615, 0.065814175, 0.06393322, 0.37240505, 0
1099, 1350455463, -0.9798806, -0.09532334, -0.15224728, 0.08724752, 0.109288596, 0.117772415, 0.31626797, 0
1100, 1350472130, -0.9798398, -0.09553343, -0.15228552, 0.087409705, -0.31811258, -0.13144583, 0.40722466, 0
1102, 1350505464, -0.97978115, -0.09595284, -0.15229537, 0.08758992, 0.16691937, -0.19145608, 0.34812927, 0
1103, 1350522131, -0.9797665, -0.09603622, -0.15224382, 0.087752014, 0.27803615, -0.31152287, 0.5295267, 0
1104, 1350538798, -0.9797648, -0.09609476, -0.15214153, 0.087884426, -0.1092091, -0.2692276, 0.47837257, 0
1106, 1350572132, -0.97974664, -0.09614735, -0.15209025, 0.088116825, -0.12991343, 0.035043117, 0.3492174, 0
1107, 1350588799, -0.97973996, -0.09604401, -0.15205602, 0.088363945, -0.0657498, 0.10604687, 0.27336884, 0
1108, 1350605466, -0.97973573, -0.09592256, -0.15204239, 0.088564694, -0.12010748, -0.040092636, 0.39835548, 0
1110, 1350638800, -0.97971, -0.095632, -0.15214878, 0.08898088, 0.061412197, -0.16856669, 0.5136957, 0
1111, 1350655467, -0.97967255, -0.09543033, -0.15231818, 0.089319825, -0.27664098, -0.09614564, 0.3245144, 0
1112, 1350672134, -0.9796461, -0.09525247, -0.15242824, 0.089609355, -0.3604369, -0.13677669, 0.27598476, 0
1114, 1350705468, -0.9796883, -0.09480475, -0.15227517, 0.08988419, 0.23216592, -0.11750864, 0.28214455, 0
1115, 1350722135, -0.9797279, -0.09445715, -0.15216716, 0.090001315, 0.13154285, -0.22284307, 0.42236423, 0
1117, 1350755469, -0.97974795, -0.09397231, -0.15226696, 0.09012136, -0.21365704, -0.2135642, 0.3631401, 0
1118, 1350772136, -0.97974545, -0.09370763, -0.1524036, 0.09019464, -0.07507376, -0.0691643, 0.22010231, 0
1119, 1350788803, -0.97977215, -0.09329091, -0.15242441, 0.090299964, -0.0065651345, 0.042982493, 0.08813763, 0
1121, 1350822137, -0.9799249, -0.09224622, -0.15209973, 0.09026295, -0.0030184307, -0.061863523, 0.51541805, 0
1123, 1350855471, -0.98, -0.09137127, -0.15207033, 0.090385795, -0.10419571, 0.027387746, 0.5440674, 0
1125, 1350888805, -0.9799392, -0.090804964, -0.15261778, 0.09069377, -0.13075463, 0.30164883, 0.28712177, 0
1126, 1350905472, -0.9799279, -0.09053143, -0.1527854, 0.09080729, 0.065470636, 0.30239415, 0.3037386, 0
1127, 1350922139, -0.97994614, -0.09017942, -0.15281846, 0.0909054, 0.0382567, 0.24061885, 0.49536896, 0
1129, 1350955473, -0.9799878, -0.089534596, -0.15285696, 0.091029465, -0.1940611, 0.27280867, 0.53593445, 0
1130, 1350972140, -0.9799768, -0.08932379, -0.15302461, 0.0910728, -0.11609062, 0.24862748, 0.36358166, 0
1131, 1350988807, -0.97997165, -0.08907285, -0.1531662, 0.09113604, 0.0047146706, 0.17544615, 0.32653332, 0
1133, 1351022141, -0.98002875, -0.08847314, -0.1531268, 0.09117198, -0.041774906, 0.17399657, 0.40491962, 0
1134, 1351038808, -0.9800627, -0.088182986, -0.15311173, 0.09111425, -0.033860315, 0.24673595, 0.35642052, 0
1135, 1351055475, -0.98008704, -0.08787432, -0.15316674, 0.09105724, -0.0332119, 0.30304363, 0.3060255, 0
1138, 1351105476, -0.9800879, -0.08745402, -0.15337917, 0.09109458, 0.1197113, 0.34058332, 0.33955002, 0
1140, 1351138810, -0.98011756, -0.08730398, -0.15334497, 0.09097639, -0.17828992, 0.5340283, 0.33273983, 0
1141, 1351155477, -0.98013365, -0.087313205, -0.15325558, 0.09094483, -0.11684643, 0.5300269, 0.5226164, 0
1142, 1351172144, -0.9801442, -0.08738145, -0.15316513, 0.09091854, 0.0047294223, 0.5519131, 0.4348135, 0
1144, 1351205478, -0.9801327, -0.0876633, -0.1531427, 0.09081015, -0.007306415, 0.66590023, 0.31922722, 0
1145, 1351222145, -0.98012924, -0.08796446, -0.15305534, 0.09070298, -0.03055925, 0.62671477, 0.41204166, 0
1146, 1351238812, -0.98011416, -0.08825563, -0.15304542, 0.09059939, -0.024375988, 0.74129575, 0.3613701, 0
1148, 1351272146, -0.98003983, -0.08898902, -0.15325359, 0.090334386, -0.1990356, 0.7936573, 0.5042763, 0
1149, 1351288813, -0.9799965, -0.089590296, -0.15327388, 0.09017646, -0.1721841, 0.8670006, 0.39345264, 0
1150, 1351305480, -0.9799454, -0.090294644, -0.15328768, 0.09000322, -0.066437885, 0.9629641, 0.54055405, 0
1153, 1351355481, -0.9796883, -0.094885334, -0.1524398, 0.089518785, -0.15593068, 0.6394244, 1.026701, 0
1154, 1351372148, -0.97953033, -0.09782228, -0.15173909, 0.089277565, -0.11749327, 0.32262927, 0.8635702, 0
1156, 1351405482, -0.9793298, -0.10429296, -0.14889842, 0.088933855, 0.096632585, -0.2571633, 1.0953493, 0
1157, 1351422149, -0.9793347, -0.10764955, -0.14619745, 0.08936027, 0.8282384, -0.3018787, 0.6038637, 0
1158, 1351438816, -0.9792583, -0.10952518, -0.14299871, 0.09301934, 2.9000976, 0.026889084, 0.82388496, 0
1160, 1351472150, -0.97991943, -0.110253856, -0.13496469, 0.09711099, -0.011802155, 0.76075023, -0.056581497, 0
1161, 1351488817, -0.9801657, -0.110356435, -0.13184781, 0.098775834, -0.6292425, 0.69914556, -0.4879017, 0
1162, 1351505484, -0.9803137, -0.11006863, -0.13001084, 0.10005462, -0.654406, 0.93767583, -0.8602295, 0
1164, 1351538818, -0.9801512, -0.10809091, -0.13079254, 0.10275012, -0.47605833, 1.65626, -1.5507698, 0
1165, 1351555485, -0.97982466, -0.10778688, -0.1330058, 0.103340685, -0.76805454, 0.8919817, 0.6415615, 0
1168, 1351605486, -0.97862506, -0.10670529, -0.14073029, 0.10557422, -0.65086013, 1.338575, 0.079642296, 0
1169, 1351622153, -0.97845566, -0.10502514, -0.14270617, 0.10617441, -0.9441424, -0.31649408, 3.0357609, 0
1171, 1351655487, -0.97839355, -0.104318194, -0.14354958, 0.10630691, 0.24862133, 0.8225188, 0.4832449, 0
1172, 1351672154, -0.9784259, -0.10433248, -0.14337179, 0.10623589, -0.30614448, 0.6709906, 0.4987421, 0
1173, 1351688821, -0.9784974, -0.10467376, -0.14284272, 0.10595438, -0.16708365, 0.8004059, 0.76944065, 0
1175, 1351722155, -0.97853875, -0.106094904, -0.14198683, 0.1053063, -0.224425, 0.9271362, 0.4148636, 0
1176, 1351738822, -0.97856176, -0.10669112, -0.14151359, 0.10512856, -0.1618872, 1.2977214, 0.43728924, 0
1177, 1351755489, -0.97853523, -0.10752458, -0.14117837, 0.10497606, -0.11707787, 1.4928011, 0.08287144, 0
1179, 1351788823, -0.9784591, -0.111817956, -0.13885705, 0.10429466, 0.5259748, 1.7631857, 1.3146639, 0
1180, 1351805490, -0.97824454, -0.11542983, -0.1375198, 0.10414398, 0.38421687, 1.8573223, 1.1058311, 0
1181, 1351822157, -0.9779439, -0.119383365, -0.13615121, 0.10430816, -0.16328214, 1.7490077, 0.4432268, 0
1183, 1351855491, -0.9772667, -0.1273395, -0.13218977, 0.10632211, 0.56054926, 1.8619577, 0.1721096, 0
1184, 1351872158, -0.97700495, -0.13010126, -0.12971829, 0.10840765, -0.7740875, 2.252969, 0.09792805, 0
1185, 1351888825, -0.9768634, -0.13223626, -0.12757266, 0.10963908, -1.2227145, 2.6407049, -0.17860603, 0
1187, 1351922159, -0.9766388, -0.13541698, -0.12510148, 0.11060065, -0.8388181, 2.9643524, -0.55533504, 0
1188, 1351938826, -0.97655535, -0.13624203, -0.124808244, 0.110655725, -1.0092512, 2.8209455, -0.016233444, 0
1189, 1351955493, -0.97648084, -0.13662139, -0.12486817, 0.110777706, -0.42262924, 2.7340155, -0.81262875, 0
1191, 1351988827, -0.97634137, -0.1351522, -0.12738228, 0.11094648, -0.5232331, 3.2634685, 0.370965, 0
1192, 1352005494, -0.9762753, -0.13408172, -0.12886532, 0.11111373, 0.3929828, 2.6651268, 1.8033972, 0
1195, 1352055495, -0.97613394, -0.13298248, -0.13097109, 0.11121479, 0.15289168, 3.5208657, 0.22280693, 0
1196, 1352072162, -0.9758661, -0.13272084, -0.13302502, 0.11144078, 1.1085181, 3.4499173, 0.59063816, 0
1198, 1352105496, -0.9748547, -0.13213457, -0.13905981, 0.11360067, 0.11757016, 4.2963524, 0.91208076, 0
1199, 1352122163, -0.9741358, -0.13251695, -0.14256428, 0.114970654, -0.7889236, 4.29917, 0.27745724, 0
1200, 1352138830, -0.9732902, -0.13343285, -0.14619048, 0.116508484, -0.030637592, 4.593601, -1.1500397, 0
1202, 1352172164, -0.9719082, -0.13379201, -0.15249804, 0.119510174, 0.21472253, 3.6936285, 1.0991392, 0
1203, 1352188831, -0.97148234, -0.13433579, -0.15445028, 0.11985397, -0.37517187, 5.0491476, -0.5755024, 0
1204, 1352205498, -0.9710351, -0.13557896, -0.15613113, 0.11990014, -0.6733193, 4.180645, -2.066885, 0
1206, 1352238832, -0.97143054, -0.1363003, -0.15401138, 0.11861503, -0.74863386, 3.370072, -0.4453659, 0
1207, 1352255499, -0.9715547, -0.13739093, -0.15265968, 0.118085295, -0.34173644, 2.0791368, 0.15605068, 0
1210, 1352305500, -0.973166, -0.13673902, -0.14474039, 0.115519285, 1.305255, -0.115634106, 2.3377886, 0
1211, 1352322167, -0.97319436, -0.1365904, -0.14425671, 0.116059154, 1.4159201, -3.2051916, 2.1956053, 0
1212, 1352338834, -0.9731755, -0.13617097, -0.1440582, 0.11695361, 1.4359297, -4.0330515, 1.525322, 0
1214, 1352372168, -0.97306204, -0.13493285, -0.1436065, 0.1198532, 1.1487529, -1.8065593, 1.2357655, 0
1215, 1352388835, -0.9729103, -0.13452718, -0.14322406, 0.12197897, 1.1350869, -2.109701, 1.1285152, 0
1216, 1352405502, -0.9727906, -0.13371256, -0.14290969, 0.12417799, 0.3481296, -2.6876757, 1.1256313, 0
1218, 1352438836, -0.97265965, -0.13138492, -0.1420426, 0.12860441, 0.37585267, -2.8920143, 0.5266161, 0
1219, 1352455503, -0.9727036, -0.13018604, -0.14067982, 0.13096681, -0.04041408, -1.0719115, 0.413826, 0
1220, 1352472170, -0.97262603, -0.1296924, -0.13979973, 0.13296068, -0.41018572, -1.4878191, 1.0734434, 0
1222, 1352505504, -0.97247636, -0.13001868, -0.13855526, 0.13502413, -1.2550203, -0.57814497, 0.08764744, 0
1225, 1352555505, -0.9728586, -0.12753728, -0.13764939, 0.13556147, -1.4643192, -0.27490062, 0.23432636, 0
1226, 1352572172, -0.97324026, -0.12566602, -0.13728121, 0.13494182, -0.7834827, -0.105530314, 0.7727556, 0
1227, 1352588839, -0.97357833, -0.12388011, -0.13731799, 0.1341148, -1.2149954, 0.53879464, 0.58753586, 0
1229, 1352622173, -0.97436106, -0.12032293, -0.13728915, 0.13167581, -1.4447323, 0.16918214, 0.35402203, 0
1230, 1352638840, -0.9748628, -0.11846765, -0.13702138, 0.12991247, -1.1027143, 1.0866194, 0.09475422, 0
1231, 1352655507, -0.9753145, -0.11687108, -0.13701469, 0.12795976, -1.0344412, 0.65625083, 1.3707638, 0
1233, 1352688841, -0.97623426, -0.113614164, -0.1370115, 0.12381604, -1.307102, 1.3997309, 0.04340172, 0
1234, 1352705508, -0.97660697, -0.11267496, -0.13702005, 0.12170729, -0.8736508, 2.0218496, -0.7265043, 0
1235, 1352722175, -0.9769272, -0.11228998, -0.13703603, 0.119454294, -0.8498385, 1.8128226, -0.14768124, 0
1237, 1352755509, -0.97763383, -0.111766174, -0.13696872, 0.11412227, -1.2021679, 2.1855159, 0.7467232, 0
1239, 1352788843, -0.97832525, -0.11078142, -0.1370345, 0.10896346, -1.2661514, 2.4919584, -0.29449463, 0
1241, 1352822177, -0.9790014, -0.11030111, -0.13694112, 0.103348196, -0.61207145, 1.9190083, 0.71552753, 0
1242, 1352838844, -0.9792434, -0.110556096, -0.13697346, 0.1007081, -0.25359344, 1.9964181, 0.18548489, 0
1243, 1352855511, -0.979449, -0.11100814, -0.1368846, 0.09830317, -0.34360182, 1.2450458, 1.2771015, 0
1245, 1352888845, -0.9795834, -0.11421827, -0.13688938, 0.09314525, 0.46222517, 0.8002553, 1.1584177, 0
1246, 1352905512, -0.9795892, -0.116147004, -0.13671468, 0.090929896, 0.6073501, 1.881731, -0.01817894, 0
1248, 1352938846, -0.97943145, -0.11986423, -0.13693023, 0.087411165, -1.055867, 1.225027, -0.2926712, 0
1249, 1352955513, -0.97941893, -0.120971546, -0.1370793, 0.08577749, 0.041795023, 0.87529534, 1.0070314, 0
1250, 1352972180, -0.97941387, -0.12207094, -0.13698214, 0.08442223, 0.43526956, 1.027221, 0.8542223, 0
1252, 1353005514, -0.97916675, -0.12394791, -0.13826215, 0.082443744, -0.23633477, 1.8918123, 0.14070225, 0
1253, 1353022181, -0.979149, -0.12379324, -0.13909508, 0.08147985, -0.3822104, 2.562155, -0.42853642, 0
1254, 1353038848, -0.9791008, -0.124071866, -0.1396468, 0.080687284, -0.38821673, 1.8885361, -0.05266571, 0
1256, 1353072182, -0.9788983, -0.12495367, -0.1408392, 0.07970625, 0.23268011, 2.4364316, 0.78553677, 0
1257, 1353088849, -0.9784822, -0.12638992, -0.14257988, 0.079456, 0.26338834, 2.8066165, -0.054478645, 0
1258, 1353105516, -0.97809947, -0.12746437, -0.1442325, 0.079467654, -0.029119268, 4.5049276, -1.3736887, 0
1260, 1353138850, -0.97730404, -0.13093047, -0.14666435, 0.07916874, -0.8990965, 3.1471748, 1.4910908, 0
1261, 1353155517, -0.9768051, -0.13284937, -0.14835764, 0.07897374, -0.5655537, 2.7921228, 1.6310062, 0
1262, 1353172184, -0.9763483, -0.1343964, -0.15004508, 0.078817755, -0.3384413, 1.4790553, 2.084259, 0
1264, 1353205518, -0.97540283, -0.1369643, -0.15389949, 0.07867205, -0.8126281, 2.667651, -2.1923356, 0
1266, 1353238852, -0.97510624, -0.13623519, -0.15682772, 0.07782698, 1.0303516, 2.35301, 1.8718128, 0
1268, 1353272186, -0.9745121, -0.13709894, -0.16009885, 0.07708877, 1.1596154, -0.088780016, 1.0388565, 0
1269, 1353288853, -0.9742107, -0.13803011, -0.16103174, 0.07729253, 0.386875, -0.6114861, 0.6220913, 0
1270, 1353305520, -0.97413516, -0.13872096, -0.16079617, 0.07749736, -0.45642185, 1.0066335, -1.7469683, 0
1272, 1353338854, -0.9740709, -0.13917084, -0.16024154, 0.078639746, 0.1353457, 0.17212474, 0.29286957, 0
1273, 1353355521, -0.97431266, -0.1388136, -0.15864518, 0.07950762, 0.01666669, 1.137876, 1.1926584, 0
1274, 1353372188, -0.9743354, -0.13899817, -0.15783884, 0.080504715, -0.33011803, 0.12664671, -0.0667038, 0
1276, 1353405522, -0.97486407, -0.13989304, -0.15351981, 0.08090609, 0.10959041, 0.71320814, 0.17522144, 0
1277, 1353422189, -0.9752368, -0.13993384, -0.15106957, 0.080955625, -0.010204484, 0.75826436, 1.5299006, 0
1279, 1353455523, -0.9758512, -0.13842094, -0.147955, 0.08190057, -0.15675455, -2.5031815, 1.2032003, 0
1281, 1353488857, -0.9761175, -0.1387542, -0.1459058, 0.08183727, -0.7096969, -1.7702683, 0.8157854, 0
1283, 1353522191, -0.97621095, -0.13931851, -0.14513168, 0.081139386, -0.79636383, -1.808655, 1.7088699, 0
1284, 1353538858, -0.97627777, -0.13942023, -0.14512685, 0.080162615, -0.95228475, -2.640789, 0.06299782, 0
1285, 1353555525, -0.9763213, -0.13949437, -0.1454586, 0.07889271, -0.9769454, -3.0321517, -0.2956648, 0
1287, 1353588859, -0.97657686, -0.13882881, -0.1460214, 0.07580286, -1.4928024, -0.87267435, -0.05086708, 0
1288, 1353605526, -0.9767248, -0.13822597, -0.14647129, 0.07411209, -1.396539, -1.2474185, 0.62469196, 0
1289, 1353622193, -0.97684515, -0.1376744, -0.14716643, 0.07214928, -0.8996389, -0.18155453, 0.13136005, 0
1291, 1353655527, -0.9773678, -0.13534826, -0.14780791, 0.06804478, -0.8811388, 0.8024389, 1.1678581, 0
1292, 1353672194, -0.9776018, -0.13407995, -0.1482997, 0.066095024, -0.66029227, 0.9004956, -0.1069231, 0
1293, 1353688861, -0.97778684, -0.13285077, -0.1490006, 0.06423867, 0.74997056, 0.57847387, 0.80102825, 0
1296, 1353738862, -0.97829777, -0.13036957, -0.14951538, 0.06022051, 0.9281688, 0.94523174, -0.6091747, 0
1297, 1353755529, -0.9783399, -0.13041732, -0.14962757, 0.05914721, 0.061731037, -0.5424295, 0.8382225, 0
1299, 1353788863, -0.9782253, -0.13147901, -0.15019993, 0.057205945, 0.58185023, 0.6896372, -0.7147074, 0
1300, 1353805530, -0.9780804, -0.13198105, -0.15095025, 0.056549102, 0.86057884, 0.091685474, -0.72348976, 0
1301, 1353822197, -0.97798854, -0.13257551, -0.15121147, 0.056049228, 0.22340757, -0.26580682, 0.18741703, 0
1303, 1353855531, -0.97784245, -0.13347295, -0.15154026, 0.05557832, 0.61863786, -0.0116214445, 0.4985609, 0
1304, 1353872198, -0.9778278, -0.13343185, -0.15151316, 0.05600512, 1.4339328, -1.0035203, 0.69863033, 0
1306, 1353905532, -0.9781395, -0.13210233, -0.1499076, 0.05799824, 0.5342006, 0.44718692, -0.040989876, 0
1307, 1353922199, -0.9783201, -0.13145095, -0.14882895, 0.05919841, 0.1857339, -0.94053245, 0.7580919, 0
1308, 1353938866, -0.9783851, -0.13131683, -0.14791305, 0.060699195, 0.53012145, -1.3427473, 0.96870136, 0
1311, 1353988867, -0.9785294, -0.13104793, -0.14518492, 0.06536049, 0.6896193, 1.4730517, -0.22166729, 0
1312, 1354005534, -0.97847396, -0.13104807, -0.14489958, 0.06680867, 0.12523174, 0.5605717, 0.009934425, 0
1314, 1354038868, -0.9784515, -0.13071539, -0.1441796, 0.06930056, -1.6812122, 0.6613362, 0.6719656, 0
1315, 1354055535, -0.978402, -0.13055548, -0.14412324, 0.070408046, -0.71548194, 1.0849081, -0.0018959045, 0
1316, 1354072202, -0.9783242, -0.13036937, -0.14429018, 0.071484864, -0.2291952, 1.3461001, -0.10109234, 0
1318, 1354105536, -0.97827876, -0.12991446, -0.14435792, 0.072787225, -0.74650836, 2.809738, 0.40349483, 0
1319, 1354122203, -0.9780824, -0.13028538, -0.14512907, 0.073225915, -0.51449776, 1.8043453, -0.73306847, 0
1320, 1354138870, -0.977939, -0.13077672, -0.14558874, 0.0733529, -0.8280991, 1.4627285, -0.34390163, 0
1322, 1354172204, -0.977926, -0.13179673, -0.1451269, 0.072612345, -1.6277914, 1.5418303, 1.6647768, 0
1323, 1354188871, -0.9778526, -0.13281557, -0.1450294, 0.071936846, -1.2616359, 3.2012358, 0.11855316, 0
1324, 1354205538, -0.97768164, -0.13384597, -0.14547665, 0.071447074, -0.070018336, 1.7072488, -0.018912315, 0
1326, 1354238872, -0.9773307, -0.13695277, -0.14577729, 0.06972766, -0.6270923, 0.9974355, 0.87070847, 0
1327, 1354255539, -0.9771476, -0.13931018, -0.1453485, 0.06850839, -0.52972895, 1.3308398, 2.1772184, 0
1329, 1354288873, -0.9761946, -0.14522898, -0.14635514, 0.067653626, 0.06804785, 1.7172925, 0.2090292, 0
1330, 1354305540, -0.9757043, -0.14772132, -0.14721254, 0.06747112, -0.9005486, 1.4705255, 0.5529623, 0
1331, 1354322207, -0.9752868, -0.15034781, -0.14758787, 0.06688252, -0.22258471, 2.064707, -0.17661858, 0
1333, 1354355541, -0.97458375, -0.15530898, -0.1475156, 0.06594792, -0.88353294, 1.518889, 1.130063, 0
1334, 1354372208, -0.9741411, -0.15817289, -0.1476376, 0.065403104, -1.2127391, 1.3089882, 2.4441023, 0
1335, 1354388875, -0.97351927, -0.16102475, -0.148858, 0.06493598, -0.74367154, 2.7229724, 0.4145136, 0
1338, 1354438876, -0.9729412, -0.16377561, -0.14950423, 0.06523487, -1.1787658, 3.2142541, 0.7694931, 0
1339, 1354455543, -0.97299135, -0.16268712, -0.15031256, 0.065353304, -1.0063045, 2.2476437, 2.360446, 0
1341, 1354488877, -0.9726877, -0.16046622, -0.15356147, 0.06776604, 1.3147694, 3.3066723, -1.3857422, 0
1342, 1354505544, -0.97262007, -0.15893191, -0.15490736, 0.06927383, 0.8934849, 3.2016656, -1.1089964, 0
1343, 1354522211, -0.9728433, -0.15652186, -0.15551564, 0.07025641, 0.56839377, 3.4167292, -0.23765564, 0
1345, 1354555545, -0.9728482, -0.15263881, -0.15817873, 0.07274112, 1.0533273, 3.022472, 2.4173527, 0
1346, 1354572212, -0.97256577, -0.15272169, -0.15917143, 0.07416463, 1.4190936, 3.376406, 0.8293085, 0
1347, 1354588879, -0.97220397, -0.15372062, -0.15970498, 0.07568243, 1.9171835, 3.9223301, -2.567305, 0
1349, 1354622213, -0.9720056, -0.15603893, -0.15716238, 0.078746945, 0.3150044, 5.188554, -3.1149735, 0
1350, 1354638880, -0.97171926, -0.15801306, -0.15628938, 0.080070555, -0.3902923, -0.18750538, -0.67075634, 0
1353, 1354688881, -0.97175884, -0.16325018, -0.14976752, 0.08153421, 0.15225703, -0.7075397, -0.5527077, 0
1354, 1354705548, -0.9714527, -0.16579856, -0.14895423, 0.08153242, -0.07714348, -1.9118985, -3.386972, 0
1356, 1354738882, -0.9717618, -0.16532329, -0.14718656, 0.082021356, 1.0511283, -4.7295904, 5.876689, 0
1357, 1354755549, -0.9716869, -0.16455013, -0.14794531, 0.0830912, 2.1299164, -9.499861, 4.2093678, 0
1358, 1354772216, -0.97168, -0.16306508, -0.14888132, 0.08441815, 1.8360356, -7.404897, -0.8337927, 0
1360, 1354805550, -0.97193086, -0.15820874, -0.15049554, 0.08784017, 1.6124476, -4.7249246, 0.56083584, 0
1361, 1354822217, -0.9720678, -0.15602337, -0.15097368, 0.089399785, 3.2718437, -1.7768214, 0.6665087, 0
1362, 1354838884, -0.9724833, -0.1542243, -0.14925048, 0.090881616, 1.8306944, -3.0895765, 5.758667, 0
1364, 1354872218, -0.97208095, -0.15479138, -0.14940712, 0.093914, 0.9194806, -6.758018, -4.037233, 0
1365, 1354888885, -0.972079, -0.15433097, -0.14903793, 0.09526867, -0.2764435, -4.361177, -2.52316, 0
1368, 1354938886, -0.9726018, -0.1510058, -0.14637586, 0.0993039, -0.5986168, -1.1941273, -0.22098446, 0
1369, 1354955553, -0.97292954, -0.14914548, -0.14553787, 0.100133896, -0.6056985, -0.95183617, -0.6628723, 0
1370, 1354972220, -0.9733024, -0.14669617, -0.14515316, 0.100684434, -0.43446335, -0.53270113, 0.49325562, 0
1372, 1355005554, -0.9739491, -0.14197992, -0.14507931, 0.1012969, -0.7665121, -0.81082165, 1.017952, 0
1373, 1355022221, -0.9742596, -0.13991615, -0.14501064, 0.10128021, 0.22550602, 0.7568162, -0.26894283, 0
1374, 1355038888, -0.97448933, -0.13801654, -0.14524339, 0.10134292, 0.16525978, 0.80518246, -0.7371359, 0
1376, 1355072222, -0.975037, -0.13480438, -0.14469075, 0.10118911, -0.43299568, 0.5213832, 0.10635567, 0
1377, 1355088889, -0.9752717, -0.13347088, -0.14450146, 0.10096684, -0.3921651, 0.68171173, 0.89833355, 0
1378, 1355105556, -0.9754528, -0.13242105, -0.14430067, 0.10088664, 0.30507708, 0.09800853, 1.1185637, 0
1380, 1355138890, -0.97596353, -0.13021271, -0.14281143, 0.10094008, -0.59339416, 3.2826872, -0.13934517, 0
1382, 1355172224, -0.97647786, -0.12909506, -0.1410265, 0.09990698, -1.6769557, 2.2769585, -0.03437805, 0
1384, 1355205558, -0.9769207, -0.12865064, -0.13957511, 0.0981718, -1.0903871, -0.6608468, 3.2795286, 0
1385, 1355222225, -0.9770774, -0.12832427, -0.13933207, 0.09738281, -0.7158034, -0.5108016, 3.5621176, 0
1387, 1355255559, -0.97665215, -0.12983859, -0.1417097, 0.09620282, 1.0547146, 4.1319995, -2.3701801, 0
1388, 1355272226, -0.9767339, -0.12959008, -0.14168257, 0.09574652, -1.2105228, 3.539928, -0.8584013, 0
1389, 1355288893, -0.9770849, -0.12853843, -0.14076737, 0.0949305, -2.109995, 1.4626658, 0.51665115, 0
1391, 1355322227, -0.97773325, -0.12579513, -0.13902003, 0.09450203, 0.5420756, -1.1574606, 2.4794474, 0
1392, 1355338894, -0.9779357, -0.12464344, -0.13844834, 0.0947732, 0.75299704, 1.3264902, 0.7772627, 0
1393, 1355355561, -0.97787505, -0.12442731, -0.13909449, 0.09473592, 1.3184551, 1.4739541, -0.8307724, 0
1395, 1355388895, -0.9777031, -0.12475049, -0.14029785, 0.094311, -1.3371983, 0.37235227, -1.1947155, 0
1396, 1355405562, -0.97782826, -0.1246894, -0.13984351, 0.09376711, -2.5898173, -1.2575184, 1.9852896, 0
1397, 1355422229, -0.9780185, -0.124398515, -0.13931435, 0.09295288, -2.5294025, 1.3829387, 0.41205502, 0
1399, 1355455563, -0.97825396, -0.12394623, -0.1392343, 0.091183275, -0.4307915, 1.355678, 0.6243324, 0
1400, 1355472230, -0.9783225, -0.123628266, -0.13961717, 0.090289384, -0.9062887, 0.17258433, 0.18231487, 0
1401, 1355488897, -0.9783996, -0.1236307, -0.1399575, 0.088914275, -1.2283949, 0.09603167, 0.56638527, 0
1403, 1355522231, -0.978382, -0.123956725, -0.14131306, 0.08647683, -0.63254213, -0.2553912, 0.16113567, 0
1404, 1355538898, -0.9784391, -0.12414348, -0.14149375, 0.08525744, -1.0567608, 0.17466646, 2.4481134, 0
1405, 1355555565, -0.9785503, -0.12480512, -0.14110593, 0.083643645, -0.4341052, 1.7051835, 2.935689, 0
1407, 1355588899, -0.9780164, -0.12892005, -0.14265655, 0.08097458, -0.25144303, 0.36500156, 0.5815811, 0
1410, 1355638900, -0.97710633, -0.13572864, -0.14475404, 0.07701546, -0.7223686, 1.4611652, 0.7202368, 0
1411, 1355655567, -0.97686946, -0.13803071, -0.14483842, 0.07575804, -0.63060397, 2.4300435, 2.223423, 0
1412, 1355672234, -0.9763819, -0.14071172, -0.14599518, 0.07488558, -0.327266, 2.8905144, 1.4852085, 0
1414, 1355705568, -0.97470593, -0.14744747, -0.1507661, 0.07430491, 0.35865268, 4.2735496, -2.80891, 0
1415, 1355722235, -0.97422326, -0.1498314, -0.15167718, 0.07401165, -0.8301905, 3.0609226, -1.9431443, 0
1416, 1355738902, -0.97425324, -0.15059015, -0.15091486, 0.073634446, -1.834246, 2.7229707, 3.0680628, 0
1418, 1355772236, -0.97351956, -0.1521024, -0.15382063, 0.07421419, 0.8836929, 2.7104876, 0.9918432, 0
1419, 1355788903, -0.9728227, -0.15313114, -0.15673137, 0.075140595, 0.9706072, 3.371608, -0.22018337, 0
1420, 1355805570, -0.9726908, -0.15339297, -0.15709563, 0.07555252, -0.0045802277, 5.705796, 1.2253809, 0
1422, 1355838904, -0.9722068, -0.15457334, -0.15862763, 0.07617235, 1.1718224, 1.2314805, -0.06444454, 0
1424, 1355872238, -0.9724184, -0.15468906, -0.1567625, 0.07709175, 0.21168119, 3.2473974, -0.38581467, 0
1426, 1355905572, -0.9720533, -0.15733245, -0.1551592, 0.07955268, 1.4340779, 0.6857781, -2.9466834, 0
1427, 1355922239, -0.9722107, -0.15807441, -0.15280522, 0.08070609, 0.9953021, 1.483034, -0.3666048, 0
1428, 1355938906, -0.97198725, -0.15937184, -0.1522137, 0.081955016, 0.3592185, -1.7308979, 0.5326557, 0
1430, 1355972240, -0.9724201, -0.15985532, -0.14832522, 0.082999974, 0.23563696, -2.4307477, 0.4036913, 0
1431, 1355988907, -0.9725672, -0.16024576, -0.14667442, 0.08345574, 0.82626915, -3.317737, -0.16671848, 0
1432, 1356005574, -0.97263074, -0.16026092, -0.14575766, 0.084290475, 1.696888, -4.412074, 2.6963377, 0
1434, 1356038908, -0.97299504, -0.15855181, -0.14423372, 0.085923284, 1.4469061, -7.528957, 1.7286825, 0
1435, 1356055575, -0.97343826, -0.15672188, -0.14291435, 0.08646211, 0.018873865, -7.5122094, 2.8325806, 0
1437, 1356088909, -0.9740925, -0.15315713, -0.1418579, 0.087218285, 0.3021846, -5.738166, -0.40385437, 0
1439, 1356122243, -0.9744538, -0.15049413, -0.14199984, 0.087586224, 0.9740736, -4.590113, -0.30839252, 0
1441, 1356155577, -0.97476315, -0.1474291, -0.14256398, 0.08843714, -0.75077724, -2.85082, 0.5442419, 0
1442, 1356172244, -0.97481924, -0.14613199, -0.14346133, 0.08852115, -0.4616362, -2.496486, -0.17117977, 0
1443, 1356188911, -0.97504675, -0.14452782, -0.14361028, 0.088406086, -0.8561011, -0.22321498, -0.2978325, 0
1445, 1356222245, -0.97554886, -0.14142969, -0.14363225, 0.087840736, -1.6051521, 0.68404657, -0.46219254, 0
1446, 1356238912, -0.9757956, -0.14021651, -0.14358605, 0.08711743, -1.4747641, -1.1193222, 0.7909231, 0
1447, 1356255579, -0.97597516, -0.13936739, -0.14385572, 0.08601534, -0.9739751, -0.5526928, 1.3086958, 0
1449, 1356288913, -0.97623307, -0.13829161, -0.144798, 0.08319911, -0.816176, 0.7818145, 0.46782398, 0
1450, 1356305580, -0.9761516, -0.13874973, -0.14599156, 0.08128345, -1.2436152, 2.017265, -2.3359985, 0
1451, 1356322247, -0.9760047, -0.13949585, -0.14729482, 0.07939687, -0.786014, -0.90648496, 1.0038843, 0
1454, 1356372248, -0.97602344, -0.1411969, -0.14811072, 0.07449037, 0.10352964, 0.83976847, 0.044771194, 0
1455, 1356388915, -0.9760327, -0.14103773, -0.14881516, 0.07325688, -0.7671054, 1.337378, -0.80168915, 0
1457, 1356422249, -0.9764284, -0.1399507, -0.14818358, 0.07132432, -0.17778802, 2.5302334, 0.23189068, 0
1458, 1356438916, -0.9764756, -0.13966636, -0.14839913, 0.07078466, 0.28951243, 1.0254748, -0.39874077, 0
1459, 1356455583, -0.976604, -0.13932967, -0.14814402, 0.07020867, -0.061028674, 1.7499907, -0.82156277, 0
1461, 1356488917, -0.9767413, -0.1393667, -0.14758332, 0.06940165, -0.12444643, 1.2287947, 0.6525631, 0
1462, 1356505584, -0.9767436, -0.13983142, -0.14725468, 0.06913325, -0.05177186, 1.1219512, 0.25451756, 0
1463, 1356522251, -0.97671354, -0.14041053, -0.14696217, 0.06900403, -0.25685415, 1.146021, -0.37331772, 0
1465, 1356555585, -0.97667277, -0.14204945, -0.14589694, 0.06848547, 0.22344121, 0.83831835, -0.14431953, 0
1466, 1356572252, -0.97656965, -0.14271793, -0.14596868, 0.06841478, 0.3439375, -0.204222, 1.6764908, 0
1468, 1356605586, -0.97650045, -0.1429952, -0.14591488, 0.068936616, 0.40329438, -0.010916198, 0.7194233, 0
1469, 1356622253, -0.97649, -0.14301239, -0.14557233, 0.06976691, 0.5461455, 1.1110532, 0.383173, 0
1470, 1356638920, -0.9765004, -0.14248891, -0.14552477, 0.07078466, 0.57674503, 0.57905996, 0.23944283, 0
1473, 1356688921, -0.9765333, -0.14135055, -0.14476815, 0.07408789, 0.40167624, 1.6178396, -0.05391693, 0
1474, 1356705588, -0.9764898, -0.14111708, -0.14471221, 0.07520807, 0.2929875, -0.32657427, 0.82631683, 0
1476, 1356738922, -0.976588, -0.14026102, -0.14385724, 0.07714844, -0.3782341, 2.0053673, -0.07175064, 0
1477, 1356755589, -0.9766877, -0.13970782, -0.1432878, 0.07794538, -0.10972262, 0.22710109, 0.66098595, 0
1478, 1356772256, -0.9766637, -0.13935858, -0.14338018, 0.07869896, -0.822761, -0.4519398, 0.4092331, 0
1480, 1356805590, -0.976827, -0.13829245, -0.14284655, 0.07951698, -0.52719367, 1.2000331, 0.45142174, 0
1482, 1356838924, -0.97675335, -0.13819027, -0.14332971, 0.079730004, -0.73277885, 0.74000144, 0.22445393, 0
1484, 1356872258, -0.976577, -0.14024165, -0.14276703, 0.07931808, -0.16327879, 0.6382901, 0.72124577, 0
1485, 1356888925, -0.9763069, -0.14191052, -0.14305474, 0.07915658, -0.060436115, 0.12697989, 0.24490261, 0
1486, 1356905592, -0.9761596, -0.14283392, -0.14316303, 0.07911554, 0.16003516, -0.955863, 1.915103, 0
1488, 1356938926, -0.9755918, -0.14515139, -0.14460386, 0.0792802, -0.17492348, 1.9729033, -0.55983067, 0
1489, 1356955593, -0.9753072, -0.1464798, -0.1450899, 0.079450995, 0.28235453, 3.6206632, -2.1604276, 0
1490, 1356972260, -0.9751581, -0.14758578, -0.1448694, 0.079637825, -0.25219515, 1.5134653, 0.6345558, 0
1492, 1357005594, -0.9748999, -0.15049098, -0.1435753, 0.07970399, 0.044988465, 2.1526997, 1.5883484, 0
1493, 1357022261, -0.9745744, -0.15114813, -0.14473434, 0.08034465, 0.3237944, 2.3170106, 1.8459921, 0
1495, 1357055595, -0.9739218, -0.15183544, -0.14714298, 0.082555324, -0.8739554, 3.4306564, -1.9963255, 0
1497, 1357088929, -0.97403306, -0.15158643, -0.14612326, 0.08350557, -0.43640512, 2.2590675, 1.9165573, 0
1499, 1357122263, -0.9736692, -0.14965954, -0.14911306, 0.08590531, -0.4832997, 3.8867438, -0.4808035, 0
1500, 1357138930, -0.97360754, -0.14847693, -0.1503261, 0.08653906, -1.875757, 4.9099107, -0.6697531, 0
1501, 1357155597, -0.97355425, -0.14741118, -0.15148051, 0.08694708, -0.1183538, 4.9303684, 1.443347, 0
1503, 1357188931, -0.97314477, -0.14774294, -0.15309237, 0.08813706, 0.2317902, 5.3512692, 0.82465935, 0
1504, 1357205598, -0.97287995, -0.14837311, -0.15400277, 0.0884161, -0.106024265, 4.835954, -0.48137283, 0
1505, 1357222265, -0.97252226, -0.14943159, -0.15534578, 0.08821866, -1.5847355, 2.6611314, -4.138173, 0
1507, 1357255599, -0.97305995, -0.14983982, -0.15237448, 0.086765975, 0.084299, 3.4920995, 1.8114233, 0
1508, 1357272266, -0.97278833, -0.15195893, -0.15203251, 0.08672589, 0.26981154, -2.1793218, -0.4647007, 0
1509, 1357288933, -0.97286665, -0.15370862, -0.1502132, 0.085930556, 1.1782501, -1.7569646, -0.7829542, 0
1512, 1357338934, -0.9733392, -0.15610604, -0.14584874, 0.08374944, 1.2397363, -6.203677, 1.6755466, 0
1513, 1357355601, -0.9733664, -0.15706155, -0.14490971, 0.083275706, 0.9331198, -7.3143296, 1.1746874, 0
1515, 1357388935, -0.97295433, -0.15902458, -0.14599264, 0.082469255, 0.40265122, -8.267965, 3.2776537, 0
1516, 1357405602, -0.9729936, -0.15945885, -0.14552626, 0.081991374, -0.3194472, -3.452761, 5.6808414, 0
1518, 1357438936, -0.9728786, -0.15984757, -0.14649639, 0.08086321, 0.30520505, -7.969085, 0.14352798, 0
1519, 1357455603, -0.9730122, -0.15930204, -0.14677314, 0.0798246, 1.3745371, -4.456507, 0.9296274, 0
1520, 1357472270, -0.97320086, -0.15834475, -0.14700489, 0.0789977, 1.531053, -2.3575423, 0.8470516, 0
1522, 1357505604, -0.973367, -0.15656023, -0.14826399, 0.078149796, 0.81182384, -1.4662896, -1.7825975, 0
1523, 1357522271, -0.9734992, -0.1554509, -0.14854327, 0.07818726, 2.1879568, -1.0283833, -0.5125494, 0
1524, 1357538938, -0.97364545, -0.15379661, -0.14894103, 0.078878224, 1.6469748, -0.6162679, 0.7282543, 0
1527, 1357588939, -0.9742003, -0.14760834, -0.14943978, 0.08280963, 1.4083363, 0.013500916, -0.7713232, 0
1528, 1357605606, -0.97441447, -0.14605251, -0.14867818, 0.084404916, 0.7518004, 1.1298677, -0.5348711, 0
1530, 1357638940, -0.974602, -0.1448402, -0.14717463, 0.08692667, -0.99477994, 2.2388277, -0.20777893, 0
1531, 1357655607, -0.9748092, -0.14440331, -0.14607932, 0.087176114, -1.2570711, 2.6289022, -1.9583259, 0
1532, 1357672274, -0.97480285, -0.14458236, -0.14590159, 0.08724725, -1.5551535, -0.9271019, 0.19483566, 0
1534, 1357705608, -0.97534573, -0.14343852, -0.1439183, 0.08635852, -2.5793962, 2.314298, 0.2702093, 0
1535, 1357722275, -0.9753325, -0.14378706, -0.14422327, 0.085413545, -2.163859, -0.5447803, 0.82264996, 0
1536, 1357738942, -0.9756232, -0.14348014, -0.14338374, 0.084011436, -2.0047426, 4.220991, -1.2234068, 0
1538, 1357772276, -0.976117, -0.14292361, -0.14256488, 0.08054498, -1.9404866, 0.69313455, -0.2796526, 0
1539, 1357788943, -0.976185, -0.1428959, -0.14316331, 0.078687966, -1.1478289, -0.31171373, 0.7181368, 0
1540, 1357805610, -0.97646296, -0.1421751, -0.1427763, 0.077234805, 0.78366446, -0.67059374, 2.5404758, 0
1542, 1357838944, -0.97664315, -0.14243585, -0.14212553, 0.07566011, 0.89107996, 2.115402, 0.2439146, 0
1543, 1357855611, -0.976559, -0.1432918, -0.14219826, 0.074991435, 0.74475145, 1.8634393, -0.75675964, 0
1545, 1357888945, -0.97640795, -0.14466336, -0.14221376, 0.07429159, -0.20682056, -0.1273878, 0.46501446, 0
1546, 1357905612, -0.97633207, -0.14540514, -0.14205454, 0.07414585, -0.76339275, 0.32157046, -0.19882774, 0
1547, 1357922279, -0.97626066, -0.1459717, -0.14195761, 0.07415995, 0.67131895, -0.4985666, 0.6485243, 0
1549, 1357955613, -0.97628, -0.14633405, -0.14109424, 0.074834615, 1.3425208, 0.5453613, 0.3959303, 0
1550, 1357972280, -0.97619003, -0.14628373, -0.14144748, 0.075436145, 0.9051014, -0.9199689, -0.0073575974, 0
1551, 1357988947, -0.9762256, -0.14570564, -0.14141087, 0.07615951, -0.039318386, -1.4072168, 0.7690439, 0
1554, 1358038948, -0.97641003, -0.14334229, -0.14126231, 0.07852101, 0.24109168, 0.45743904, -0.69824886, 0
1555, 1358055615, -0.97646534, -0.14272952, -0.1411442, 0.07915887, 0.65280294, 0.30866376, -0.6984329, 0
1557, 1358088949, -0.97681344, -0.14057845, -0.14026117, 0.080274194, -0.7081358, -0.74792546, 1.4407492, 0
1558, 1358105616, -0.97693104, -0.13984771, -0.13997585, 0.08061886, 0.035401545, 0.072454296, 1.2355986, 0
1559, 1358122283, -0.97689074, -0.13942188, -0.14038993, 0.081121475, 0.7602242, -0.3876101, -0.5353384, 0
1561, 1358155617, -0.97687376, -0.13889314, -0.14033778, 0.0823147, -0.4632306, 2.2872634, -0.96827316, 0
1562, 1358172284, -0.97668326, -0.13966599, -0.14078413, 0.08250457, -0.191176, 0.623889, -0.6522312, 0
1563, 1358188951, -0.97671527, -0.13966659, -0.14048764, 0.08263105, -0.3184922, 0.42419085, 0.7945223, 0
1565, 1358222285, -0.976644, -0.14006577, -0.14025909, 0.08318409, -0.40021515, -0.34853095, -0.85781384, 0
1566, 1358238952, -0.9764781, -0.14063431, -0.140771, 0.08330673, 0.0062066196, -0.08831503, 0.27844906, 0
1569, 1358288953, -0.9764335, -0.14062157, -0.1408035, 0.08379418, -0.22508223, 2.1452365, 0.19042397, 0
1570, 1358305620, -0.9762971, -0.141131, -0.14115185, 0.08394262, 0.020528436, 1.4548416, -0.32691002, 0
1571, 1358322287, -0.9761607, -0.14174634, -0.14148521, 0.08392978, 0.41664615, 2.1448154, 0.6214075, 0
1573, 1358355621, -0.9760519, -0.1423632, -0.14153583, 0.08406758, -1.7218353, 1.0359099, 1.1418056, 0
1574, 1358372288, -0.9758872, -0.1428948, -0.14218077, 0.08398786, -0.9720591, 3.524388, -0.29456997, 0
1576, 1358405622, -0.9757333, -0.14358333, -0.14257531, 0.08393267, -0.96229404, 3.3474503, 0.82359505, 0
1577, 1358422289, -0.97549355, -0.1444445, -0.14328444, 0.08403438, -0.36531717, 2.506294, 0.3487358, 0
1578, 1358438956, -0.9753164, -0.1452903, -0.14364955, 0.084008306, 0.22709262, 2.3478994, 1.237606, 0
1580, 1358472290, -0.9747144, -0.14773497, -0.14511766, 0.084209025, -0.7521889, 2.9771426, 0.24089241, 0
1581, 1358488957, -0.9743813, -0.14878444, -0.14626811, 0.084225535, -1.1959727, 4.6822743, -0.77859306, 0
1584, 1358538958, -0.9742826, -0.14921829, -0.14689565, 0.08350414, -0.8517625, 4.657464, 1.2400942, 0
1585, 1358555625, -0.9739681, -0.14961125, -0.14859831, 0.08345863, -0.23582014, 2.3828883, 0.6712179, 0
1586, 1358572292, -0.9738445, -0.15014003, -0.14902376, 0.08319047, 0.06849979, 2.5791192, 2.8135033, 0
1588, 1358605626, -0.97253835, -0.15264702, -0.15474927, 0.083455354, 0.36090514, 2.7228444, 0.26122093, 0
1589, 1358622293, -0.97242415, -0.15404227, -0.1545261, 0.08263326, -1.4123951, 4.7337847, -1.7816906, 0
1590, 1358638960, -0.97234696, -0.15590459, -0.153435, 0.08207911, 0.05884247, 1.0010161, -3.9865375, 0
1592, 1358672294, -0.97235394, -0.15934467, -0.15056242, 0.08069897, 0.76353836, 1.3940719, 2.7341537, 0
1593, 1358688961, -0.97219366, -0.16019258, -0.15078025, 0.08054268, 1.8875495, -4.0244856, -0.593606, 0
1594, 1358705628, -0.9720843, -0.16085434, -0.15088683, 0.08034477, 1.4253731, -2.7817488, -3.946597, 0
1596, 1358738962, -0.97300375, -0.15887631, -0.14667541, 0.08094734, -0.66129357, -2.9472413, 0.19590473, 0
1599, 1358788963, -0.9737282, -0.15594786, -0.14453115, 0.08178267, 1.7698694, -6.80008, 2.7975454, 0
1600, 1358805630, -0.9740358, -0.15452486, -0.14376083, 0.08217952, 0.88456357, -6.2276506, -0.56102276, 0
1601, 1358822297, -0.97443724, -0.15303758, -0.1425856, 0.08224955, -1.4547758, -5.202908, -0.53349304, 0
1603, 1358855631, -0.9750664, -0.15087508, -0.14145222, 0.08073142, 2.4777894, -7.736951, 3.7552195, 0
1604, 1358872298, -0.9752311, -0.15005548, -0.14169972, 0.07982886, 3.3867927, -6.4933934, 1.3271866, 0
1605, 1358888965, -0.9752018, -0.14973432, -0.14262909, 0.07913369, 1.5579928, -4.116488, -2.6874356, 0
1607, 1358922299, -0.97520244, -0.14976716, -0.14316252, 0.078093976, -0.49679375, -0.0047700736, -0.033099174, 0
1608, 1358938966, -0.9749007, -0.15032181, -0.1445277, 0.07828003, 1.6353132, -2.4701447, -0.14332199, 0
1609, 1358955633, -0.97494465, -0.14963031, -0.14467844, 0.078775704, 1.2913508, -3.6393363, 2.6339188, 0
1611, 1358988967, -0.97515523, -0.14716554, -0.14500554, 0.080200285, 0.018888522, 0.32736787, -1.0656309, 0
1612, 1359005634, -0.97552246, -0.1451667, -0.14396985, 0.08123624, -1.0137631, 2.409208, 1.4050398, 0
1613, 1359022301, -0.97580254, -0.1438367, -0.14278278, 0.08232564, 0.548825, 2.4507499, 0.36806202, 0
1615, 1359055635, -0.97560525, -0.1429913, -0.14402416, 0.083958685, 0.5563294, -2.5500414, -2.7227693, 0
1616, 1359072302, -0.97577643, -0.14180265, -0.14381017, 0.084350735, -1.1664536, -1.3683783, 0.6565056, 0
1617, 1359088969, -0.97600925, -0.14082766, -0.14308652, 0.08452174, -2.9231243, 2.8484893, 3.0070934, 0
1619, 1359122303, -0.97621083, -0.14168511, -0.14165628, 0.083158195, -1.1558245, 3.4230797, -1.4873457, 0
1620, 1359138970, -0.9760285, -0.14293863, -0.1423323, 0.081991285, -0.5792658, -0.7931732, -1.8294315, 0
1621, 1359155637, -0.976141, -0.14363945, -0.14182015, 0.08029586, -2.1769395, 0.27828878, 0.8146143, 0
1623, 1359188971, -0.97628576, -0.14463791, -0.1417556, 0.07678226, -1.7157329, 0.39228013, 0.06190014, 0
1626, 1359238972, -0.9765687, -0.14412466, -0.14206997, 0.07349765, -0.69281876, 2.0918157, -0.4093237, 0
