sep=,
DeviceTag:,Xsens_DOT_3,,,,,,,,,,,,,,,,,
FirmwareVersion:,3.0.0,,,,,,,,,,,,,,,,,
AppVersion:,2023.6.1,,,,,,,,,,,,,,,,,
SyncStatus:,Synced,,,,,,,,,,,,,,,,,
OutputRate:,60Hz,,,,,,,,,,,,,,,,,
FilterProfile:,General,,,,,,,,,,,,,,,,,
Measurement Mode:,Sensor fusion Mode - Extended (Quaternion),,,,,,,,,,,,,,,,,
StartTime:,2025-05-05 11:28:59.145 +0200,,,,,,,,,,,,,,,,,
 2025,,,,,,,,,,,,,,,,,,,

PacketCounter,SampleTimeFine,Quat_W,Quat_X,Quat_Y,Quat_Z,FreeAcc_X,FreeAcc_Y,FreeAcc_Z,Status
1, 1332155097, -0.2790595, -0.53978395, 0.35806954, -0.7089028, -0.08765854, 0.0821038, 0.054430008, 0
2, 1332171764, -0.27912238, -0.5397648, 0.35809466, -0.70888, -0.0655825, 0.038766086, 0.03635025, 0
3, 1332188431, -0.27919525, -0.53972656, 0.35813358, -0.70886075, -0.09603994, 0.05123375, 0.02828598, 0
4, 1332205098, -0.279216, -0.5397189, 0.35814136, -0.70885444, -0.07711297, 0.048375357, 0.018223763, 0
5, 1332221765, -0.27921218, -0.5397198, 0.35815296, -0.7088493, -0.09872332, 0.07407041, 0.01870346, 0
6, 1332238432, -0.2791579, -0.5397397, 0.358123, -0.70887077, -0.089480616, 0.060916446, 0.04608345, 0
7, 1332255099, -0.27911925, -0.5397492, 0.35812575, -0.70887744, -0.08230574, 0.056693055, 0.0032110214, 0
8, 1332271766, -0.27912408, -0.53974843, 0.35814446, -0.7088666, -0.06300461, 0.061915994, 0.0010929108, 0
9, 1332288433, -0.27914235, -0.53974825, 0.3581305, -0.7088666, -0.080955945, 0.07378531, 0.0058202744, 0
10, 1332305100, -0.2791632, -0.53975767, 0.35808164, -0.708876, -0.092000164, 0.059306033, 0.0023889542, 0
11, 1332321767, -0.27916786, -0.53976053, 0.35805446, -0.70888567, -0.10314989, 0.07071235, 0.03650856, 0
12, 1332338434, -0.27922368, -0.53974456, 0.35804683, -0.70887977, -0.07217334, 0.04752053, 0.0049028397, 0
13, 1332355101, -0.27932316, -0.53972065, 0.35807976, -0.70884204, -0.08245035, 0.04927198, -0.0030927658, 0
14, 1332371768, -0.27942392, -0.5396881, 0.3581107, -0.7088116, -0.12817752, 0.071882546, 0.01478672, 0
15, 1332388435, -0.27954045, -0.5396572, 0.35813797, -0.7087754, -0.074703395, 0.020638516, 0.045547485, 0
16, 1332405102, -0.27963609, -0.5396096, 0.35816717, -0.7087591, -0.0675362, 0.067343764, 0.048819542, 0
17, 1332421769, -0.27974018, -0.5395196, 0.35820377, -0.70876795, -0.058825146, 0.07962269, 0.041007996, 0
18, 1332438436, -0.27984947, -0.5394569, 0.35825384, -0.70874715, -0.06970704, 0.09174279, -0.013636589, 0
19, 1332455103, -0.28000763, -0.5394119, 0.35831904, -0.7086862, -0.105256386, 0.063965835, -0.025557518, 0
20, 1332471770, -0.28014615, -0.53936857, 0.35838443, -0.7086313, -0.08839468, 0.04033895, -0.017595291, 0
21, 1332488437, -0.28027743, -0.53931475, 0.3584436, -0.7085904, -0.10856974, 0.071463354, 0.033839226, 0
22, 1332505104, -0.28036925, -0.53928363, 0.3584618, -0.7085686, -0.07502805, 0.059330396, 0.02458477, 0
23, 1332521771, -0.2804848, -0.5392596, 0.35847676, -0.7085336, -0.057000276, 0.09470948, 0.016582489, 0
24, 1332538438, -0.28061646, -0.5391931, 0.35850403, -0.70851827, -0.06027418, 0.08165945, 0.043247223, 0
25, 1332555105, -0.28073746, -0.5391039, 0.35852683, -0.7085267, -0.078465454, 0.04869956, 0.03406334, 0
26, 1332571772, -0.28080785, -0.539057, 0.35852268, -0.7085365, -0.05459438, 0.07436008, 0.0044765472, 0
27, 1332588439, -0.280854, -0.53906775, 0.3584803, -0.70853144, -0.04630585, 0.09698417, -0.0023469925, 0
28, 1332605106, -0.28088695, -0.5390822, 0.3584095, -0.7085433, -0.08324684, 0.099325806, 0.018307686, 0
29, 1332621773, -0.28086245, -0.53909516, 0.35830593, -0.7085956, -0.0953637, 0.10424253, 0.033946037, 0
30, 1332638440, -0.2808538, -0.53910804, 0.35819727, -0.70864403, -0.08362391, 0.07071291, 0.03709984, 0
31, 1332655107, -0.28085127, -0.53912675, 0.35809708, -0.70868146, -0.078348555, 0.07855676, 0.02118206, 0
32, 1332671774, -0.28078213, -0.53916186, 0.35797882, -0.70874184, -0.06581212, 0.097971246, 0.011748314, 0
33, 1332688441, -0.28075272, -0.53918046, 0.3578735, -0.70879245, -0.0850117, 0.09777284, -0.004190445, 0
34, 1332705108, -0.2807212, -0.5391855, 0.3577774, -0.7088496, -0.102647655, 0.07729313, 0.024594307, 0
35, 1332721775, -0.28068498, -0.5391793, 0.3576845, -0.7089156, -0.11106381, 0.083778806, 0.008834839, 0
36, 1332738442, -0.28065884, -0.5391563, 0.35761848, -0.7089767, -0.121382624, 0.06616822, 0.03053093, 0
37, 1332755109, -0.28065857, -0.5391288, 0.3575766, -0.7090189, -0.11959251, 0.07582398, 0.031531334, 0
38, 1332771776, -0.28066164, -0.53910774, 0.3575751, -0.7090345, -0.08836115, 0.07232108, 0.020680428, 0
39, 1332788443, -0.2806668, -0.5391225, 0.3575902, -0.7090136, -0.07418462, 0.07625994, -3.414154E-4, 0
40, 1332805110, -0.2806588, -0.5391383, 0.35758165, -0.7090091, -0.086564444, 0.06261648, -0.032352448, 0
41, 1332821777, -0.28066579, -0.5391243, 0.35760486, -0.70900524, -0.105495095, 0.07583616, -0.0038852692, 0
42, 1332838444, -0.280692, -0.5391085, 0.35764682, -0.7089857, -0.11544232, 0.06641039, 0.018770218, 0
43, 1332855111, -0.2807257, -0.53907543, 0.35767743, -0.7089821, -0.10140436, 0.038447917, 0.030038834, 0
45, 1332888445, -0.28081024, -0.5390391, 0.35777098, -0.708929, -0.09355548, 0.0802359, 0.020088196, 0
46, 1332905112, -0.28081328, -0.53906935, 0.3577563, -0.7089122, -0.065389946, 0.07235628, 0.024553299, 0
47, 1332921779, -0.28082186, -0.5390905, 0.35777766, -0.7088819, -0.108927585, 0.052578963, 0.025564194, 0
49, 1332955113, -0.28079802, -0.5390847, 0.357749, -0.70891035, -0.1269368, 0.078133315, 0.02423191, 0
51, 1332988447, -0.2807731, -0.53906995, 0.35763603, -0.70898837, -0.08594833, 0.05404476, 0.016394615, 0
53, 1333021781, -0.28072175, -0.5391224, 0.35758373, -0.70899516, -0.08202065, 0.047479518, -0.004925728, 0
54, 1333038448, -0.28069168, -0.5391454, 0.35754335, -0.70900995, -0.07710973, 0.061737407, 0.02004528, 0
56, 1333071782, -0.28061903, -0.539224, 0.35750824, -0.70899665, -0.10254271, 0.0701178, 0.034986496, 0
57, 1333088449, -0.280544, -0.53927666, 0.35744742, -0.70901704, -0.11680284, 0.098435104, 0.01372242, 0
58, 1333105116, -0.28048182, -0.5393152, 0.35738653, -0.7090429, -0.047681235, 0.06167985, 0.032273293, 0
60, 1333138450, -0.28040293, -0.53939146, 0.35725963, -0.7090801, -0.09787487, 0.08195337, 0.02175808, 0
61, 1333155117, -0.28032866, -0.5394751, 0.357158, -0.709097, -0.08957382, 0.05409237, 0.027576447, 0
62, 1333171784, -0.28023455, -0.5395628, 0.35702908, -0.7091325, -0.088443294, 0.075220935, 0.0111141205, 0
64, 1333205118, -0.2800947, -0.539616, 0.3568045, -0.7092603, -0.06995654, 0.10520911, 0.04215336, 0
65, 1333221785, -0.27997908, -0.53969365, 0.3566625, -0.7093183, -0.09109774, 0.054014586, 0.026392937, 0
66, 1333238452, -0.27991042, -0.5397213, 0.3565466, -0.70938265, -0.10229886, 0.0686035, 0.015403748, 0
68, 1333271786, -0.27992058, -0.53970176, 0.35640335, -0.7094655, -0.12703794, 0.113129295, 0.016180992, 0
69, 1333288453, -0.2799739, -0.5396815, 0.356348, -0.7094877, -0.1443222, 0.056579176, 0.012622833, 0
70, 1333305120, -0.27997792, -0.5396782, 0.356292, -0.70951664, -0.097413875, 0.06851756, 0.019294739, 0
72, 1333338454, -0.2799348, -0.53972685, 0.35619614, -0.7095448, -0.05129678, 0.094711825, 5.559921E-4, 0
73, 1333355121, -0.27995834, -0.5397434, 0.3561813, -0.70953023, -0.06970251, 0.08735736, 0.0076036453, 0
76, 1333405122, -0.2799135, -0.53991634, 0.35599172, -0.7095115, -0.08132776, 0.107468046, 0.026796341, 0
77, 1333421789, -0.27990082, -0.53994477, 0.35590643, -0.7095377, -0.0714757, 0.07384186, 0.01478672, 0
81, 1333488457, -0.27955413, -0.5402517, 0.35543066, -0.70967937, -0.069428764, 0.09339757, 0.055606842, 0
82, 1333505124, -0.27938405, -0.540326, 0.3552663, -0.70977205, -0.065151066, 0.081253484, 0.017983437, 0
84, 1333538458, -0.27905995, -0.5404555, 0.35489276, -0.7099879, -0.088313095, 0.07693584, 0.012969017, 0
85, 1333555125, -0.27894336, -0.54051495, 0.35472953, -0.71006984, -0.07357158, 0.047365747, -0.014817238, 0
87, 1333588459, -0.27859396, -0.54067785, 0.354448, -0.7102236, -0.13136761, 0.009009696, -0.023569107, 0
89, 1333621793, -0.27829152, -0.54086465, 0.3541898, -0.7103288, -0.09028202, 0.084671736, 0.014836311, 0
91, 1333655127, -0.27816948, -0.54087704, 0.35402966, -0.71044695, -0.11218204, 0.058759432, 0.022145271, 0
92, 1333671794, -0.27811182, -0.5408714, 0.3539677, -0.71050465, -0.12086128, 0.04107006, 0.006896019, 0
93, 1333688461, -0.2780786, -0.5408658, 0.35391387, -0.71054864, -0.11699668, 0.060445167, 0.002696991, 0
95, 1333721795, -0.2780069, -0.54090714, 0.35382393, -0.71059006, -0.09376307, 0.03805118, 0.013021469, 0
97, 1333755129, -0.27795288, -0.5409531, 0.35379034, -0.710593, -0.10132217, 0.06896615, 0.0151491165, 0
99, 1333788463, -0.27785614, -0.54101497, 0.35371533, -0.710621, -0.08307373, 0.03261825, 0.0018529892, 0
100, 1333805130, -0.27786, -0.54104406, 0.3537174, -0.71059626, -0.09500921, 0.018886622, -0.0028247833, 0
101, 1333821797, -0.2778955, -0.541038, 0.35372865, -0.71058154, -0.10884343, 0.085890666, -0.017720222, 0
103, 1333855131, -0.27800685, -0.5410236, 0.35376456, -0.71053094, -0.088439666, 0.047942635, -0.0074071884, 0
104, 1333871798, -0.27812937, -0.5409754, 0.35381806, -0.7104931, -0.092766926, 0.04439079, 0.0032215118, 0
105, 1333888465, -0.27821758, -0.54096156, 0.35387254, -0.71044207, -0.11721472, 0.08934774, 0.067453384, 0
107, 1333921799, -0.27826476, -0.5409564, 0.35387868, -0.71042436, -0.087335505, 0.08784048, 0.033488274, 0
108, 1333938466, -0.27826807, -0.5409313, 0.3539128, -0.7104252, -0.07613745, 0.043053847, 5.8555603E-4, 0
110, 1333971800, -0.27837655, -0.54081136, 0.35412917, -0.71036613, -0.09740829, 0.054360364, -0.017630577, 0
112, 1334005134, -0.27842236, -0.540738, 0.35450715, -0.7102155, -0.115354255, 0.053821363, 0.0012149811, 0
114, 1334038468, -0.2784162, -0.54067034, 0.3547088, -0.7101688, -0.08244454, 0.11029716, 0.06206703, 0
115, 1334055135, -0.2783768, -0.54069865, 0.3546428, -0.7101956, -0.067930564, 0.09425646, 0.06550598, 0
116, 1334071802, -0.27834493, -0.5406964, 0.35454714, -0.71025753, -0.12983918, 0.08144835, 0.046673775, 0
118, 1334105136, -0.27835673, -0.5405742, 0.3544471, -0.7103959, -0.11272568, 0.07184913, 0.022780418, 0
119, 1334121803, -0.27840823, -0.5405304, 0.3544576, -0.71040374, -0.09759498, 0.04390398, -0.032956123, 0
120, 1334138470, -0.278456, -0.54048854, 0.3544832, -0.7104041, -0.09294775, 0.06402182, -0.04633808, 0
122, 1334171804, -0.27850842, -0.54047817, 0.3545578, -0.71035427, -0.09554033, 0.082766734, 0.0330019, 0
126, 1334238472, -0.27820694, -0.5409257, 0.35470992, -0.7100558, -0.04203569, 0.009436494, 0.005050659, 0
127, 1334255139, -0.2781098, -0.5410563, 0.35471466, -0.70999205, -0.0768499, -0.004059554, 0.034870148, 0
130, 1334305140, -0.27790597, -0.5412514, 0.35464445, -0.7099581, -0.13302764, 0.025302785, 0.011841774, 0
131, 1334321807, -0.2779123, -0.54125875, 0.35453054, -0.7100069, -0.14923544, 0.078618534, 0.050515175, 0
132, 1334338474, -0.27791178, -0.54126185, 0.35432255, -0.71010846, -0.11792963, 0.131818, 0.09498596, 0
134, 1334371808, -0.27801394, -0.54116833, 0.3540473, -0.7102771, -0.11568478, 0.08388888, 0.032157898, 0
135, 1334388475, -0.2780877, -0.54111356, 0.3540164, -0.7103054, -0.14398062, 0.07827625, -0.017951012, 0
138, 1334438476, -0.27809185, -0.54111063, 0.35431126, -0.71015894, -0.07213003, 0.14509779, -0.018731117, 0
139, 1334455143, -0.27809384, -0.5411681, 0.35447192, -0.7100343, -0.10353405, 0.14181472, 0.001914978, 0
141, 1334488477, -0.2780521, -0.54141647, 0.35463834, -0.7097782, -0.044764504, 0.10434333, -0.053715706, 0
142, 1334505144, -0.27811053, -0.5415262, 0.3548365, -0.70957243, -0.09714147, 0.031184081, -0.048192024, 0
145, 1334555145, -0.27805436, -0.5420789, 0.35582903, -0.7086749, -0.13396886, 0.086756445, 0.044415474, 0
146, 1334571812, -0.27803075, -0.5422454, 0.35614878, -0.7083961, -0.108092874, 0.07159824, 0.05164814, 0
147, 1334588479, -0.27808338, -0.54237556, 0.35649654, -0.70810074, -0.093252845, 0.050427094, 0.012132645, 0
149, 1334621813, -0.27799603, -0.5428966, 0.35717338, -0.70739424, -0.06483507, -0.010562329, -0.03014183, 0
150, 1334638480, -0.2779028, -0.54327613, 0.3573744, -0.70703804, 0.0063892296, 0.073410146, 0.005010605, 0
151, 1334655147, -0.2776743, -0.543823, 0.35740688, -0.706691, 0.066789694, -0.014873781, 0.04824543, 0
153, 1334688481, -0.27695045, -0.54609567, 0.35562405, -0.70612156, 0.008796799, 0.20468791, 0.06391525, 0
154, 1334705148, -0.27634695, -0.5467211, 0.3553322, -0.706021, -0.05262758, 0.19123702, 0.07779503, 0
155, 1334721815, -0.2756188, -0.54728204, 0.35494667, -0.7060649, -0.11783279, 0.20727262, 0.06244278, 0
157, 1334755149, -0.27394328, -0.54824924, 0.35398942, -0.70644695, -0.18989873, 0.15796544, 0.028933525, 0
168, 1334938486, -0.2745955, -0.548068, 0.35686666, -0.704885, -0.08337363, 0.045062, -0.024364471, 0
170, 1334971820, -0.27567157, -0.5476993, 0.3582527, -0.7040482, -0.0025779984, 0.052724022, 3.299713E-4, 0
174, 1335038488, -0.27604148, -0.5480523, 0.35937512, -0.70305574, -0.08027803, 0.15596567, 0.041252136, 0
180, 1335138490, -0.27536258, -0.54850954, 0.35917518, -0.7030676, -0.21733059, 0.09468232, 0.046257973, 0
181, 1335155157, -0.275084, -0.54867786, 0.35898113, -0.7031443, -0.01764568, 0.07072062, 0.02905655, 0
182, 1335171824, -0.2747034, -0.54896075, 0.3586372, -0.7032479, 0.023356322, 0.11825221, -0.0030603409, 0
184, 1335205158, -0.27358654, -0.5495973, 0.35756344, -0.70373267, -0.015127134, 0.11521992, 0.004418373, 0
185, 1335221825, -0.27290377, -0.5499684, 0.35694772, -0.70402026, -0.14662383, 0.049649604, 0.016542435, 0
189, 1335288493, -0.27034894, -0.55144304, 0.35519376, -0.7047394, -0.11824662, -0.082879275, -0.06970787, 0
191, 1335321827, -0.2697185, -0.55204177, 0.35459256, -0.70481485, -0.14643608, 0.05929374, 0.0057258606, 0
195, 1335388495, -0.26936626, -0.5522541, 0.35437077, -0.70489466, -0.050159827, 0.04180441, -0.015667915, 0
199, 1335455163, -0.27057973, -0.55191094, 0.35534516, -0.70420796, -0.069342494, 0.17257692, -0.0010566711, 0
200, 1335471830, -0.27072757, -0.55184466, 0.3555143, -0.7041177, -0.028735273, 0.13556631, -0.022340775, 0
204, 1335538498, -0.27147633, -0.5517289, 0.35713425, -0.7030996, -0.06684037, -0.08616335, -0.058127403, 0
205, 1335555165, -0.27183765, -0.5517331, 0.35773495, -0.7026512, -0.0050041196, -0.081670515, -0.060836792, 0
207, 1335588499, -0.27254725, -0.55174226, 0.35898963, -0.7017286, 0.21801314, -0.06695588, 0.11655331, 0
208, 1335605166, -0.27291682, -0.55162907, 0.3595436, -0.7013902, 0.16100203, -0.07306236, 0.0998888, 0
209, 1335621833, -0.27339396, -0.55141413, 0.36003116, -0.70112324, 0.089105844, -0.034846116, 0.09067726, 0
211, 1335655167, -0.2747105, -0.55070204, 0.3608801, -0.7007318, -0.007905095, -0.018552022, 0.114504814, 0
212, 1335671834, -0.275316, -0.55047315, 0.36131394, -0.70045054, -0.02412107, -0.01959594, 0.030889511, 0
215, 1335721835, -0.27540684, -0.55033165, 0.36166582, -0.7003442, -0.289141, 0.24055906, -0.014433861, 0
216, 1335738502, -0.2746594, -0.5505926, 0.36117116, -0.70068777, -0.30067298, 0.38682806, 0.109457016, 0
217, 1335755169, -0.27341285, -0.551048, 0.3601386, -0.70134854, -0.23966675, 0.5336345, 0.1412096, 0
219, 1335788503, -0.26970878, -0.55243134, 0.3568956, -0.70334935, -0.41437307, 0.34132305, 0.12750149, 0
220, 1335805170, -0.26727644, -0.5534487, 0.3548193, -0.7045276, -0.2654698, 0.37338164, -0.08605862, 0
222, 1335838504, -0.26290023, -0.55545706, 0.35061076, -0.7066973, -0.2431603, 0.0743945, -0.08021736, 0
223, 1335855171, -0.26086414, -0.5564146, 0.34861672, -0.7076844, -0.12889098, 0.053963628, 0.10593414, 0
224, 1335871838, -0.25912786, -0.5573241, 0.3468316, -0.7084832, -0.034028396, 0.09344127, 0.16504192, 0
226, 1335905172, -0.2564407, -0.5593276, 0.3438015, -0.7093584, -0.0292902, -0.023434328, -0.058354378, 0
228, 1335938506, -0.25491285, -0.5611925, 0.34157842, -0.70951015, -0.19597459, -0.09142429, -0.11296177, 0
231, 1335988507, -0.25475705, -0.5616693, 0.34151766, -0.70921814, -0.45555556, -0.10204037, 0.0060157776, 0
232, 1336005174, -0.25522467, -0.56151974, 0.34203133, -0.7089207, -0.35730925, 0.027815629, 0.13944435, 0
234, 1336038508, -0.25632963, -0.5613172, 0.34290683, -0.70825917, 0.03985666, 0.13159437, 0.14142132, 0
235, 1336055175, -0.2569548, -0.5610867, 0.3432573, -0.70804554, 0.08211151, 0.06373695, 0.036028862, 0
238, 1336105176, -0.25860676, -0.56197613, 0.34097123, -0.70784336, -0.1263302, -0.3485488, 0.024598122, 0
239, 1336121843, -0.25825742, -0.562221, 0.34039092, -0.70805573, 0.22322044, 0.29899248, 0.046787262, 0
240, 1336138510, -0.25770578, -0.56249005, 0.33961612, -0.7084149, 3.343754E-4, 0.24478078, -0.03419113, 0
243, 1336188511, -0.25496492, -0.5632551, 0.33681023, -0.7101363, -0.23251572, 0.029211579, 0.037477493, 0
245, 1336221845, -0.25316855, -0.5640795, 0.33525166, -0.7108616, -0.21423471, -0.016616847, -0.09458351, 0
246, 1336238512, -0.2523366, -0.5645261, 0.33437064, -0.7112178, -0.2014763, 0.08076887, -0.022432327, 0
247, 1336255179, -0.2519018, -0.5658038, 0.33150512, -0.7116978, 0.3644921, 0.74711674, 0.0516119, 0
249, 1336288513, -0.2507654, -0.56665844, 0.32955936, -0.71232283, -0.12996161, 0.1967722, 0.041269302, 0
250, 1336305180, -0.2502045, -0.56691897, 0.32885525, -0.71263796, -0.15280335, 0.099549204, 0.009419441, 0
251, 1336321847, -0.24986859, -0.5670169, 0.32834697, -0.7129122, -0.17872018, 0.06883216, -0.01974678, 0
253, 1336355181, -0.2498725, -0.56692046, 0.32775396, -0.7132602, -0.123549245, 0.07736309, 0.113539696, 0
254, 1336371848, -0.25002193, -0.5669604, 0.32765242, -0.7132229, -0.14011122, 0.15701853, 0.06316376, 0
255, 1336388515, -0.25019562, -0.5669303, 0.32759988, -0.7132101, -0.11222625, 0.20693913, -0.120824814, 0
257, 1336421849, -0.24990329, -0.56686896, 0.32724974, -0.71352196, -0.1764195, 0.20104678, 0.10357189, 0
258, 1336438516, -0.24951018, -0.5671079, 0.32693633, -0.7136133, -0.059423435, 0.1696404, 0.058639526, 0
261, 1336488517, -0.2491309, -0.5690113, 0.3233813, -0.7138505, 0.13554071, 0.21871033, -0.1774025, 0
262, 1336505184, -0.24873379, -0.56905544, 0.32281256, -0.7142111, -0.008666212, 0.16427264, 0.20770264, 0
263, 1336521851, -0.24835098, -0.5691356, 0.32206234, -0.7146191, -0.04107793, 0.26006886, 0.42815495, 0
265, 1336555185, -0.24781665, -0.5690215, 0.32050747, -0.7155937, -0.43755037, 0.14362898, 0.099267006, 0
266, 1336571852, -0.24760054, -0.56883985, 0.32019055, -0.71595484, -0.4893886, -0.06337073, -0.06377792, 0
270, 1336638520, -0.2472396, -0.5698258, 0.3201428, -0.7153165, 0.26104012, -0.021594817, -0.0073919296, 0
274, 1336705188, -0.24551077, -0.5708527, 0.31721243, -0.7163979, -0.5146694, 0.31491154, -0.021577835, 0
276, 1336738522, -0.24450547, -0.5711314, 0.31602487, -0.7170441, -0.5882014, 0.055986643, -0.14736748, 0
277, 1336755189, -0.2436838, -0.5718029, 0.31540412, -0.717062, 0.09172184, 0.08622873, -0.5809221, 0
278, 1336771856, -0.24303539, -0.572619, 0.31446576, -0.717043, 0.5549011, 0.20104934, -0.2525215, 0
281, 1336821857, -0.24099822, -0.57505053, 0.3101711, -0.7176551, -0.023892809, -0.10888981, 0.28590202, 0
282, 1336838524, -0.24029814, -0.5754639, 0.30879948, -0.7181497, -0.31784424, -0.10596481, 0.22842216, 0
284, 1336871858, -0.2398707, -0.5759767, 0.30711347, -0.7186044, -1.239264, -0.019946072, 0.4177599, 0
285, 1336888525, -0.23914614, -0.57700855, 0.30628848, -0.7183702, -0.49665496, 0.032303434, -0.6008768, 0
286, 1336905192, -0.23784971, -0.5784228, 0.30491158, -0.71824896, -0.2333995, 0.057685453, -1.2803211, 0
289, 1336955193, -0.23207739, -0.58256674, 0.2987473, -0.71937764, 0.010754102, 0.27039993, 0.18263817, 0
290, 1336971860, -0.23018435, -0.58401334, 0.2964995, -0.7197428, 0.008993155, 0.43269885, 0.38331985, 0
296, 1337071862, -0.22766285, -0.5915526, 0.28339666, -0.71966624, -0.28455916, 0.38005894, 0.011581421, 0
297, 1337088529, -0.22755022, -0.59325105, 0.2798939, -0.71967465, 0.5089988, 1.6652193, 0.01955223, 0
300, 1337138530, -0.22650333, -0.5977542, 0.2700812, -0.72002816, 0.39951566, 1.7736852, 0.32644653, 0
303, 1337188531, -0.22170769, -0.60242045, 0.257844, -0.7221148, 0.2543378, 0.883199, -0.35728836, 0
305, 1337221865, -0.21763304, -0.605633, 0.24813509, -0.72406596, 0.4447213, 0.47147265, 0.18891525, 0
307, 1337255199, -0.21231996, -0.6093936, 0.23738502, -0.72608966, 0.58367324, 0.31835398, 0.27373123, 0
308, 1337271866, -0.2088537, -0.6113525, 0.23179236, -0.7272542, 0.7962496, 0.2535891, 0.221488, 0
309, 1337288533, -0.20468366, -0.6136319, 0.22589004, -0.72837645, 1.0043545, 0.053234752, 0.23701859, 0
311, 1337321867, -0.19603474, -0.6175614, 0.21378164, -0.7310839, 0.46252882, -0.6225355, 0.26538277, 0
312, 1337338534, -0.19130372, -0.61923295, 0.20859598, -0.73242015, 0.42484304, -0.49839354, 0.4344082, 0
313, 1337355201, -0.18668553, -0.6210455, 0.20390108, -0.7333987, 0.16874827, -0.45333138, 0.2490387, 0
316, 1337405202, -0.17645712, -0.62673926, 0.19134723, -0.73446923, -0.3410419, -0.8121207, -0.5717735, 0
317, 1337421869, -0.17332427, -0.6283803, 0.1881928, -0.7346281, -0.3618705, -0.31354833, -0.07515144, 0
321, 1337488537, -0.16497713, -0.6354587, 0.17379583, -0.7340079, -0.55922204, 1.6629835, 0.104343414, 0
323, 1337521871, -0.16154386, -0.63922673, 0.16555357, -0.73340505, -0.6720628, 0.33579826, -0.18962479, 0
326, 1337571872, -0.15659466, -0.6425687, 0.15588133, -0.7336776, -0.45201725, -0.101511315, -0.12796211, 0
328, 1337605206, -0.15496767, -0.64451563, 0.14991015, -0.7335595, 0.018036267, -0.18605022, -0.33255386, 0
330, 1337638540, -0.15316391, -0.6458222, 0.14552735, -0.7336717, 0.18039542, -0.3577278, 0.028799057, 0
331, 1337655207, -0.15336365, -0.6464247, 0.14333975, -0.7335302, 0.2815809, -0.41145065, 0.25356483, 0
334, 1337705208, -0.15176074, -0.64875865, 0.14112678, -0.73223096, 0.34534335, -0.57430077, 0.12742424, 0
335, 1337721875, -0.15140414, -0.64960337, 0.14106698, -0.7315671, 0.39017725, -0.4837058, 0.2666893, 0
336, 1337738542, -0.15128171, -0.6503656, 0.14121458, -0.73088634, 0.44871014, -0.4650202, 0.3297205, 0
338, 1337771876, -0.15154575, -0.65204376, 0.1416749, -0.72924554, 0.23024608, -0.2786075, 0.33221626, 0
339, 1337788543, -0.1521022, -0.6528184, 0.14220788, -0.7283324, 0.24078156, -0.28786558, 0.1848793, 0
340, 1337805210, -0.15288943, -0.65359175, 0.1428655, -0.72734445, 0.3020245, -0.2902009, 0.012039185, 0
343, 1337855211, -0.15590899, -0.6557242, 0.14429477, -0.72449666, 0.25838417, 0.14412948, -0.21482468, 0
344, 1337871878, -0.15707381, -0.6564942, 0.1441832, -0.7235692, 0.46224955, 0.23819485, -0.063500404, 0
346, 1337905212, -0.15908071, -0.6588214, 0.14292015, -0.72126245, 0.7213501, 0.24049406, 0.051182747, 0
347, 1337921879, -0.15965621, -0.66017556, 0.14165136, -0.7201466, 0.6383485, 0.35828915, 0.15876675, 0
348, 1337938546, -0.16031484, -0.6613257, 0.1393843, -0.719387, 0.6475685, 0.8177585, 0.435874, 0
350, 1337971880, -0.1627131, -0.66359705, 0.13106823, -0.71831924, 0.63128686, 0.8279271, 0.45345497, 0
352, 1338005214, -0.16156763, -0.6633269, 0.11812279, -0.7210676, -0.44194838, -1.0151713, -0.7251377, 0
357, 1338088549, -0.1539942, -0.65299785, 0.10318197, -0.7343236, -1.5770398, -1.7564533, -0.47741127, 0
358, 1338105216, -0.15334192, -0.652292, 0.10536123, -0.73477775, -2.3957818, -0.59128153, 0.283679, 0
359, 1338121883, -0.15324052, -0.6511403, 0.108609244, -0.73534733, -2.1300943, -0.35806552, 0.4114809, 0
361, 1338155217, -0.15349297, -0.6496571, 0.1182469, -0.73512006, -2.476164, -0.85910195, -0.18044853, 0
362, 1338171884, -0.15348612, -0.6491111, 0.12414097, -0.7346319, -2.45557, -0.9579662, -0.36998463, 0
363, 1338188551, -0.15265426, -0.6475864, 0.13385901, -0.7344443, -2.5628037, -1.4510418, 0.2538309, 0
365, 1338221885, -0.15316728, -0.6461491, 0.14467487, -0.7335519, -0.5094971, -0.07464193, 0.24636745, 0
366, 1338238552, -0.15349644, -0.64575595, 0.14724293, -0.73331827, 0.46290633, 0.5147934, 0.2602396, 0
369, 1338288553, -0.15021485, -0.6452854, 0.15315977, -0.7332001, -0.8719407, -1.8387741, -0.041737556, 0
370, 1338305220, -0.14852542, -0.64442986, 0.15399632, -0.7341209, 0.1855153, 0.62450445, 0.106630325, 0
373, 1338355221, -0.14457467, -0.64361244, 0.15746476, -0.7348904, -0.2576865, -0.2819121, -0.41391945, 0
375, 1338388555, -0.14222397, -0.64329004, 0.16009209, -0.7350638, 0.37046283, 0.6392942, 0.20681477, 0
377, 1338421889, -0.13977483, -0.64307934, 0.15984552, -0.73577136, 0.14676815, 0.1059338, -0.3917675, 0
380, 1338471890, -0.13620175, -0.64214295, 0.16042112, -0.73713267, -0.06414967, 0.02055129, -0.032253265, 0
381, 1338488557, -0.1354758, -0.642176, 0.16133063, -0.7370392, -0.24369389, 0.08148841, -0.13925743, 0
382, 1338505224, -0.135152, -0.64215326, 0.16253853, -0.73685306, -0.28354087, 0.38328376, -0.09547329, 0
385, 1338555225, -0.1371492, -0.64214784, 0.16736962, -0.735406, -0.38545972, 0.32876247, 0.3191986, 0
386, 1338571892, -0.13833445, -0.6424808, 0.16893539, -0.7345344, -0.53256935, 0.20286722, 0.19253922, 0
388, 1338605226, -0.140333, -0.6427845, 0.17232221, -0.73310155, -0.38947484, 0.15170103, 0.23434067, 0
389, 1338621893, -0.14116305, -0.6428193, 0.17434917, -0.73243207, -0.1804996, 0.15328814, 0.26692295, 0
393, 1338688561, -0.1440763, -0.6430925, 0.1823107, -0.7296814, -0.17931223, 0.6319445, 0.123187065, 0
394, 1338705228, -0.14457524, -0.6432494, 0.18386556, -0.72905403, -0.20258024, 0.5981387, 0.16963768, 0
396, 1338738562, -0.14547841, -0.64369977, 0.18644007, -0.7278219, -0.123867095, 0.58679175, 0.095231056, 0
397, 1338755229, -0.1456155, -0.64390737, 0.1873121, -0.7273868, -0.2137225, 0.5927717, 0.121967316, 0
398, 1338771896, -0.14535387, -0.64412796, 0.18794744, -0.72707987, -0.21913317, 0.54258245, 0.20387745, 0
400, 1338805230, -0.14384386, -0.64482933, 0.18847993, -0.72662055, 0.0054296325, 0.5307666, 0.2646141, 0
401, 1338821897, -0.142758, -0.64514416, 0.18835443, -0.7265878, 0.031235112, 0.5505287, 0.24174786, 0
402, 1338838564, -0.14156651, -0.64528644, 0.18804953, -0.72677356, 0.07405508, 0.51801896, 0.21781063, 0
404, 1338871898, -0.139585, -0.6451998, 0.18735489, -0.72741294, -0.16878462, 0.19662155, 0.10718632, 0
405, 1338888565, -0.13875194, -0.6448637, 0.18726088, -0.72789437, -0.26788926, 0.057372537, 0.113054276, 0
411, 1338988567, -0.13710165, -0.64145964, 0.19099347, -0.73024124, -0.34576398, 0.14888243, -0.013001442, 0
412, 1339005234, -0.13746315, -0.6405944, 0.19188045, -0.7307002, -0.29830092, -0.00403724, -0.115448, 0
413, 1339021901, -0.13794081, -0.63984126, 0.19284815, -0.7310151, -0.25484696, 0.07423139, -0.16897488, 0
415, 1339055235, -0.13955742, -0.63899595, 0.1942694, -0.7310713, -0.29812157, 0.19017114, -0.14893723, 0
416, 1339071902, -0.1406877, -0.63876605, 0.19469866, -0.73094136, -0.3501877, 0.071883276, -0.085591316, 0
417, 1339088569, -0.14196856, -0.63867295, 0.19506967, -0.73067605, -0.35349187, -0.07244798, -0.01348114, 0
419, 1339121903, -0.1442202, -0.6388345, 0.1961947, -0.7297922, -0.24321227, 0.09934419, 0.03921604, 0
420, 1339138570, -0.1451768, -0.63877445, 0.19677931, -0.7294977, -0.16195148, 0.1232608, -0.06133747, 0
421, 1339155237, -0.14620633, -0.6385286, 0.19735193, -0.72935253, 0.01966682, 0.1446164, -0.063791275, 0
423, 1339188571, -0.14840698, -0.63801813, 0.19828063, -0.72910285, 0.2872191, 0.17523952, -0.2522335, 0
424, 1339205238, -0.14947566, -0.6377301, 0.19842309, -0.72909784, 0.23144308, 0.16297805, -0.26448822, 0
425, 1339221905, -0.15043767, -0.6375437, 0.19846126, -0.7290526, 0.27536112, 0.11588085, -0.20914173, 0
427, 1339255239, -0.15162371, -0.63767546, 0.19726577, -0.7290163, 0.17996803, 0.19416022, -0.10695076, 0
428, 1339271906, -0.15184316, -0.63773185, 0.19641195, -0.7291517, 0.13067745, 0.03480061, 0.0054063797, 0
429, 1339288573, -0.1517444, -0.63776886, 0.19575225, -0.72931725, 0.22752415, 0.008674538, -0.018650055, 0
431, 1339321907, -0.15160054, -0.6378148, 0.19479601, -0.729563, 0.2227224, 0.051498223, -0.10234356, 0
434, 1339371908, -0.15207675, -0.6375581, 0.19390394, -0.72992575, 0.03706004, 0.10193761, 0.019155502, 0
436, 1339405242, -0.15221293, -0.63763154, 0.192875, -0.73010576, -0.06061842, 0.046094686, 0.044197083, 0
438, 1339438576, -0.15247172, -0.6376717, 0.19213824, -0.730211, -0.11054308, -0.059309665, 0.026620865, 0
440, 1339471910, -0.15301238, -0.63788605, 0.19168778, -0.7300291, -0.12756251, -0.17468141, -0.0869112, 0
443, 1339521911, -0.15418622, -0.6389285, 0.19136606, -0.7289541, -0.15704931, -0.11266651, 0.01738739, 0
444, 1339538578, -0.15461469, -0.63938665, 0.1913493, -0.7284658, -0.076641336, -0.11987944, -0.0388937, 0
446, 1339571912, -0.1551421, -0.6406483, 0.19097467, -0.7273428, -0.15599033, -0.07910112, -0.03824234, 0
447, 1339588579, -0.1555036, -0.64123154, 0.1910439, -0.7267331, -0.12852724, -0.073666185, 0.037021637, 0
450, 1339638580, -0.15730834, -0.64263624, 0.19217043, -0.7248044, -0.19817133, -0.08580271, 0.03753376, 0
451, 1339655247, -0.15802538, -0.64302856, 0.19274111, -0.7241485, -0.103522874, -0.03813377, 0.03677082, 0
452, 1339671914, -0.1588272, -0.64343995, 0.1932761, -0.72346485, -0.12380031, 0.0076892925, 0.050247192, 0
454, 1339705248, -0.1605824, -0.6440167, 0.19477881, -0.72215986, -0.12199977, 0.072360195, 0.006881714, 0
459, 1339788583, -0.16414474, -0.64490974, 0.196862, -0.7199941, -0.060399096, 0.124681786, 0.07018471, 0
462, 1339838584, -0.16512677, -0.6450946, 0.19671233, -0.71964467, -0.12656349, -0.0063363686, -0.027402878, 0
463, 1339855251, -0.16521598, -0.6451886, 0.19649869, -0.71959823, -0.10823891, 0.015559966, -0.015034676, 0
465, 1339888585, -0.16518824, -0.64533985, 0.19594063, -0.71962106, -0.07373793, 0.03688366, 0.023011208, 0
466, 1339905252, -0.16507657, -0.6454196, 0.19556575, -0.71967727, -0.10875766, 0.01979632, 0.064655304, 0
467, 1339921919, -0.16493411, -0.6454928, 0.19518001, -0.719749, -0.08202688, 0.012501415, 0.0796299, 0
469, 1339955253, -0.16469884, -0.64561284, 0.19446388, -0.71988887, -0.13971667, -0.03930017, -0.021195412, 0
470, 1339971920, -0.16457088, -0.64566493, 0.19412315, -0.71996343, -0.1610213, -0.042821284, -0.004969597, 0
471, 1339988587, -0.16444369, -0.6456954, 0.19381496, -0.7200482, -0.14713104, -0.036139697, 0.022249222, 0
473, 1340021921, -0.16424991, -0.645756, 0.19320188, -0.72020286, -0.0882984, -0.062553674, -0.021695137, 0
475, 1340055255, -0.16416915, -0.64583397, 0.19283172, -0.72025067, -0.15720466, -0.08334217, -0.035489082, 0
478, 1340105256, -0.16421846, -0.64599305, 0.19258787, -0.7201619, -0.23776926, 0.008879972, -0.023985863, 0
479, 1340121923, -0.16425447, -0.6460296, 0.19258086, -0.7201229, -0.25960317, 0.032127194, 0.00491333, 0
481, 1340155257, -0.16422862, -0.64617985, 0.19261901, -0.7199837, -0.19988064, -0.003828777, 0.023906708, 0
482, 1340171924, -0.16422585, -0.64627695, 0.1926871, -0.7198789, -0.21756117, -0.015955584, -0.023394585, 0
483, 1340188591, -0.16424382, -0.6463806, 0.19279954, -0.71975166, -0.25097525, -0.020166792, -0.01756382, 0
485, 1340221925, -0.16433626, -0.6466815, 0.19301277, -0.71940297, -0.22445042, 0.028846918, 0.019412994, 0
486, 1340238592, -0.1644472, -0.64682156, 0.19314049, -0.71921766, -0.25651672, 0.036343988, 0.03843212, 0
487, 1340255259, -0.1645724, -0.6469424, 0.19333035, -0.7190291, -0.26023036, -0.008730751, -0.01464653, 0
489, 1340288593, -0.16487376, -0.6471651, 0.19379021, -0.7186356, -0.25565216, -2.54693E-4, -0.027805328, 0
490, 1340305260, -0.16508831, -0.6472377, 0.19398631, -0.7184682, -0.22361508, 0.05253996, 0.012625694, 0
493, 1340355261, -0.16556962, -0.6476736, 0.19444868, -0.7178393, -0.13134336, -0.006711982, 0.022604942, 0
494, 1340371928, -0.16573386, -0.64785206, 0.19461386, -0.71759564, -0.17153145, 0.017452186, -2.155304E-4, 0
496, 1340405262, -0.16612619, -0.6481133, 0.194932, -0.71718264, -0.120277435, 0.011094624, -0.0012874603, 0
497, 1340421929, -0.16632974, -0.6482984, 0.19509901, -0.7169227, -0.10806351, 0.010042773, 0.0014276505, 0
498, 1340438596, -0.16652405, -0.6485379, 0.19521281, -0.71663, -0.13364373, 0.040386, 0.01143837, 0
500, 1340471930, -0.16686518, -0.6489577, 0.19533435, -0.71613723, -0.14272124, -0.0078645265, 0.015616417, 0
501, 1340488597, -0.16701481, -0.64906615, 0.19534284, -0.7160018, -0.16037731, 0.025250928, -0.0051841736, 0
502, 1340505264, -0.16712424, -0.64915013, 0.19532312, -0.71590537, -0.103688136, 0.042054858, 0.008808136, 0
504, 1340538598, -0.16709349, -0.64937073, 0.19520587, -0.71574444, -0.13003764, 0.074523576, 0.044816017, 0
505, 1340555265, -0.16694506, -0.64947337, 0.19506338, -0.7157249, -0.18657048, 0.096493445, 0.05336666, 0
508, 1340605266, -0.16678132, -0.649455, 0.19479845, -0.7158518, -0.19942616, 0.051308293, 0.07223797, 0
509, 1340621933, -0.16678946, -0.6494431, 0.19471367, -0.7158837, -0.18631168, 0.025669904, -0.0075149536, 0
510, 1340638600, -0.16678828, -0.6494196, 0.194634, -0.71592706, -0.17098416, 0.012282149, -0.048163414, 0
512, 1340671934, -0.16686016, -0.6493457, 0.19457453, -0.71599334, -0.12133873, -0.01385635, -0.028882027, 0
513, 1340688601, -0.16689938, -0.6493124, 0.19455968, -0.7160185, -0.1744123, 0.037702613, -0.050458908, 0
515, 1340721935, -0.16687493, -0.6493225, 0.1944743, -0.7160383, -0.20505473, 0.03903419, -0.010727882, 0
516, 1340738602, -0.1668524, -0.64931685, 0.19446194, -0.71605206, -0.1949975, 0.023026863, -0.010520935, 0
517, 1340755269, -0.16681358, -0.6492938, 0.19446923, -0.71608, -0.1937707, 0.022610012, 0.012686729, 0
519, 1340788603, -0.16676901, -0.6492449, 0.19452511, -0.71611947, -0.18659644, 0.034313932, 0.04878235, 0
521, 1340821937, -0.16671667, -0.64928234, 0.19458589, -0.71608114, -0.21936998, 0.011603675, 0.01898098, 0
523, 1340855271, -0.16672996, -0.6485709, 0.19337854, -0.7170493, -3.333369, -0.971148, 4.8174467, 0
524, 1340871938, -0.16439094, -0.66101664, 0.18798098, -0.70759726, -0.11622044, -0.45854035, -4.3283834, 0
525, 1340888605, -0.16682343, -0.6615408, 0.19320726, -0.705126, 2.7797618, 3.816832, -0.69754887, 0
527, 1340921939, -0.17093392, -0.6596898, 0.20282602, -0.70317185, -1.2904178, -0.9689601, -0.59097004, 0
532, 1341005274, -0.16720842, -0.65415984, 0.19147715, -0.7123559, 0.43160453, 0.009941968, 0.28651524, 0
533, 1341021941, -0.16705225, -0.6538735, 0.19057688, -0.71289665, 0.3718138, 0.07746098, 0.43722153, 0
535, 1341055275, -0.16671431, -0.6538441, 0.18951301, -0.7132861, -0.0039978367, -0.36088848, -0.114723206, 0
536, 1341071942, -0.16683964, -0.6535951, 0.18931855, -0.71353656, -0.085270025, -0.31214, 0.1318121, 0
539, 1341121943, -0.16679777, -0.6527936, 0.18915367, -0.7143234, 0.005882023, 0.030248791, 0.048042297, 0
541, 1341155277, -0.16637234, -0.65228796, 0.18858796, -0.7150338, -0.07967466, 0.10096672, -0.015175819, 0
543, 1341188611, -0.1656742, -0.65168595, 0.18778664, -0.7159552, -0.19351377, 0.10307177, -0.034605026, 0
544, 1341205278, -0.16527012, -0.65133053, 0.1873731, -0.7164802, -0.28255814, 0.020013155, 0.027517319, 0
546, 1341238612, -0.16454263, -0.650716, 0.18665493, -0.7173928, -0.2823721, 0.06764888, 0.0017709732, 0
547, 1341255279, -0.16434032, -0.6504796, 0.18635125, -0.7177324, -0.239996, 0.040847104, -0.041280746, 0
548, 1341271946, -0.16427442, -0.6501813, 0.18617308, -0.71806395, -0.23658927, 0.010125137, -0.05590725, 0
550, 1341305280, -0.16450138, -0.64941585, 0.18621497, -0.7186935, -0.24798606, -0.0397225, -0.031788826, 0
551, 1341321947, -0.16468245, -0.6490443, 0.18638709, -0.7189431, -0.22238944, -0.06592928, -0.05060482, 0
554, 1341371948, -0.16502857, -0.6483961, 0.18668474, -0.71937114, -0.12085893, 0.091422275, -0.031023026, 0
555, 1341388615, -0.16509992, -0.648302, 0.18671809, -0.7194309, -0.10428567, 0.038764857, -0.031080246, 0
559, 1341455283, -0.16500828, -0.648062, 0.18700887, -0.71959263, -0.11424258, 0.045197897, -0.0029058456, 0
560, 1341471950, -0.1649097, -0.6481262, 0.18700993, -0.71955717, -0.11367379, 0.02576581, 0.0145225525, 0
562, 1341505284, -0.1646962, -0.6483226, 0.18694757, -0.7194453, -0.2387921, 0.052780014, -0.027767181, 0
563, 1341521951, -0.16460223, -0.6484096, 0.18697253, -0.7193819, -0.2430527, 0.021773068, -0.0052814484, 0
564, 1341538618, -0.1645277, -0.6484834, 0.187051, -0.7193121, -0.22409707, 0.014943406, -0.02554512, 0
566, 1341571952, -0.16446222, -0.64860284, 0.18715641, -0.71919197, -0.14703701, 0.06417649, -0.041693687, 0
573, 1341688621, -0.16426472, -0.6492738, 0.18712908, -0.7186386, -0.066796124, 0.03786354, -0.0064496994, 0
578, 1341771956, -0.16399425, -0.6502064, 0.18665302, -0.7179806, -0.1307455, 0.0074012964, 0.029309273, 0
579, 1341788623, -0.16397843, -0.6503618, 0.18666044, -0.7178417, -0.096558295, 0.033551194, 0.018946648, 0
581, 1341821957, -0.16394824, -0.65070564, 0.18663648, -0.717543, -0.15083756, 0.054081418, -0.013887405, 0
583, 1341855291, -0.16378589, -0.6511242, 0.18649785, -0.7172365, -0.11257889, 0.045101784, 0.004281044, 0
586, 1341905292, -0.16349795, -0.65172225, 0.18622023, -0.716831, -0.15913098, 0.052835222, 3.8433075E-4, 0
587, 1341921959, -0.16342926, -0.6519084, 0.18614244, -0.71669745, -0.17145592, 0.042556867, 0.005133629, 0
589, 1341955293, -0.14550517, -0.67984813, 0.17130905, -0.6980589, 4.966056, 3.0972526, -9.895789, 0
597, 1342088629, -0.1571702, -0.6621029, 0.17585655, -0.7113297, 0.3246429, 0.3145894, 0.62394524, 0
598, 1342105296, -0.15769157, -0.66158247, 0.17491439, -0.7119306, 0.12396696, -0.11046837, 0.5571337, 0
601, 1342155297, -0.1591825, -0.66103053, 0.17438117, -0.7122421, 0.04594767, -0.314721, 0.14772415, 0
602, 1342171964, -0.15960984, -0.66077054, 0.17456433, -0.71234286, 0.06470116, -0.2266997, 0.16751862, 0
604, 1342205298, -0.16010354, -0.66025585, 0.17495556, -0.71261317, 0.1424728, 0.06914608, 0.025291443, 0
605, 1342221965, -0.16022643, -0.6600273, 0.17495534, -0.7127974, 0.10294512, 0.099257745, 0.03903675, 0
606, 1342238632, -0.16020644, -0.659798, 0.17478026, -0.7130571, -0.069267474, 0.06848381, 0.032753944, 0
612, 1342338634, -0.15929711, -0.6578041, 0.17365576, -0.71537405, -0.2238649, -0.065821774, -0.0019235611, 0
613, 1342355301, -0.15938571, -0.6574073, 0.17363325, -0.71572435, -0.22419076, -0.10618497, 0.012627602, 0
614, 1342371968, -0.15949622, -0.65704733, 0.17370924, -0.7160118, -0.23249206, -0.12905337, 0.040599823, 0
616, 1342405302, -0.15974595, -0.65630585, 0.1739644, -0.7165741, -0.26227173, -0.03851162, -0.007906914, 0
617, 1342421969, -0.15991554, -0.655846, 0.17418137, -0.7169044, -0.17196195, -0.06484334, -0.008140564, 0
621, 1342488637, -0.16084118, -0.65475416, 0.17485817, -0.71753025, -0.15604794, -0.02766498, -0.06899166, 0
622, 1342505304, -0.1610838, -0.65449446, 0.17505114, -0.71766585, -0.2107521, -0.022512449, -0.04319763, 0
624, 1342538638, -0.16127765, -0.6543721, 0.17508763, -0.717725, -0.22379299, -0.016885621, -0.07959461, 0
628, 1342605306, -0.16164465, -0.65428805, 0.17518517, -0.71769524, -0.25276542, 0.09200966, 0.014684677, 0
632, 1342671974, -0.16202348, -0.6541877, 0.1755052, -0.71762305, -0.18342334, 0.08911037, -0.054344177, 0
635, 1342721975, -0.16218169, -0.6541735, 0.17562221, -0.7175717, -0.10455475, 0.04365219, -0.012994766, 0
636, 1342738642, -0.16224326, -0.6541357, 0.17565528, -0.7175841, -0.0981256, 0.029870942, 0.013487816, 0
637, 1342755309, -0.16228423, -0.6541069, 0.1756884, -0.7175929, -0.031962465, -0.011676094, -0.011359215, 0
639, 1342788643, -0.16234986, -0.65410125, 0.17578672, -0.7175592, -0.06834976, 0.033919543, 0.025546074, 0
640, 1342805310, -0.16239178, -0.6541105, 0.17582196, -0.7175326, -0.09297234, 0.040626496, 0.06212139, 0
641, 1342821977, -0.16239281, -0.6541509, 0.17586166, -0.7174858, -0.09095471, 0.02971817, 0.01718235, 0
643, 1342855311, -0.16234499, -0.65423894, 0.17592414, -0.7174011, -0.06045752, 0.013730918, 0.008948326, 0
644, 1342871978, -0.16234449, -0.6542682, 0.1759541, -0.7173671, -0.03510581, -0.024571786, 0.017865181, 0
648, 1342938646, -0.16218184, -0.65425426, 0.17584813, -0.7174426, -0.081183314, 0.023849726, -5.645752E-4, 0
652, 1343005314, -0.1616033, -0.65371144, 0.17493947, -0.7182895, -1.9475882, -0.48723188, 2.608327, 0
656, 1343071982, -0.15788169, -0.6847631, 0.20454393, -0.68141973, -2.9216988, -3.9059649, -3.519083, 0
659, 1343121983, -0.15654875, -0.6719608, 0.19362286, -0.69747365, 1.2665648, 0.7506493, 0.8636284, 0
660, 1343138650, -0.15744297, -0.66661495, 0.18645541, -0.7043213, 0.3910186, 0.5004196, 1.0225372, 0
662, 1343171984, -0.15863675, -0.66168076, 0.18163148, -0.7099444, 0.16011867, -0.2000403, 0.4652729, 0
663, 1343188651, -0.15813412, -0.66180193, 0.18074875, -0.71016884, 0.19617255, -0.5951285, 0.21536732, 0
666, 1343238652, -0.15835732, -0.6612588, 0.17914036, -0.711032, 0.105053216, -0.15839659, 0.19147682, 0
667, 1343255319, -0.15833524, -0.66085386, 0.1788878, -0.71147686, 0.036688812, -0.019809395, 0.097766876, 0
668, 1343271986, -0.15817435, -0.6603891, 0.17867424, -0.7119977, -0.011788213, 1.3142562E-4, 0.051795006, 0
674, 1343371988, -0.15661551, -0.65639096, 0.17659941, -0.7165425, -0.35160533, 0.058993116, -0.03956318, 0
675, 1343388655, -0.15648195, -0.65565735, 0.17637631, -0.71729785, -0.3095539, 0.03714383, -0.02281475, 0
676, 1343405322, -0.15650369, -0.654893, 0.17621624, -0.7180305, -0.24131055, -0.07164345, -4.7779083E-4, 0
678, 1343438656, -0.15707976, -0.65327775, 0.17647038, -0.7193123, -0.20132463, -0.099526964, 0.026035309, 0
679, 1343455323, -0.15743172, -0.6525788, 0.17682655, -0.7197823, -0.16851327, -0.1328485, 0.03999424, 0
681, 1343488657, -0.15802361, -0.6514263, 0.17762128, -0.72050077, -0.06704344, 0.0073373714, -0.05501747, 0
682, 1343505324, -0.15829757, -0.65100795, 0.17793882, -0.72074, -0.058314726, 0.056086887, -0.042412758, 0
683, 1343521991, -0.15865284, -0.6505935, 0.17834602, -0.72093534, -0.10624954, 7.8229533E-7, -0.05886364, 0
685, 1343555325, -0.1593226, -0.6498764, 0.17914256, -0.72123706, -0.04084758, 0.016340138, -0.028644562, 0
686, 1343571992, -0.15965085, -0.64953923, 0.17954157, -0.721369, -0.073735975, 0.045439847, -0.052046776, 0
689, 1343621993, -0.1603766, -0.64888984, 0.18036565, -0.7215868, -0.13352412, 0.06452081, -0.07778072, 0
690, 1343638660, -0.16055126, -0.6487764, 0.18057351, -0.7215981, -0.1465221, 0.06191957, -0.08003807, 0
691, 1343655327, -0.16071153, -0.6486875, 0.18073879, -0.7216009, -0.100878604, 0.08749102, -0.044665337, 0
693, 1343688661, -0.16090924, -0.6486065, 0.18081391, -0.7216108, -0.13772531, 0.15163292, -0.02105236, 0
694, 1343705328, -0.1609392, -0.6486081, 0.18073106, -0.72162354, -0.15904, 0.09757347, -0.015847206, 0
695, 1343721995, -0.16090836, -0.6486594, 0.18060869, -0.7216149, -0.14883058, 0.061020155, -0.032143593, 0
697, 1343755329, -0.16070053, -0.6487841, 0.18029939, -0.7216264, -0.14061223, 0.056139972, -0.0014352798, 0
698, 1343771996, -0.1605452, -0.64888877, 0.18011338, -0.72161347, -0.087951764, 0.084556736, -0.007256508, 0
699, 1343788663, -0.16040592, -0.6490254, 0.17990857, -0.72157264, -0.07934037, 0.097406834, -9.717941E-4, 0
701, 1343821997, -0.16024636, -0.6492351, 0.17945975, -0.7215311, -0.05080645, -0.016388528, -0.021289825, 0
702, 1343838664, -0.1601951, -0.6493291, 0.17930266, -0.7214969, -0.10781457, -0.049918152, -0.05270195, 0
704, 1343871998, -0.16015789, -0.6495386, 0.1791566, -0.721353, -0.1563783, 0.028335966, 0.02204132, 0
705, 1343888665, -0.1601624, -0.6497216, 0.1790606, -0.72121084, -0.16096374, 0.11044401, 0.06912708, 0
706, 1343905332, -0.16019563, -0.6498905, 0.17899811, -0.7210669, -0.25100335, 0.07985995, 0.0858202, 0
708, 1343938666, -0.1603126, -0.6501744, 0.17900777, -0.72078246, -0.19976906, 0.023345817, -0.0030498505, 0
709, 1343955333, -0.16043591, -0.6502604, 0.17907359, -0.72066116, -0.16199632, 0.0035977839, -0.054203987, 0
710, 1343972000, -0.16060577, -0.65029013, 0.17916581, -0.7205736, -0.18143977, 0.039466128, -0.006603241, 0
712, 1344005334, -0.16095956, -0.6503197, 0.17940201, -0.72040915, -0.16463628, 0.0063571553, 0.037028313, 0
713, 1344022001, -0.16117227, -0.6502862, 0.17956644, -0.72035086, -0.12280849, -0.007340836, 0.009865761, 0
720, 1344138670, -0.16268326, -0.6504708, 0.18059394, -0.71958715, -0.025305578, 0.0039460096, 0.002105713, 0
722, 1344172004, -0.16300835, -0.65070605, 0.18067884, -0.7192796, -0.10855555, 0.022949528, 0.017796516, 0
724, 1344205338, -0.16314878, -0.6509248, 0.1805908, -0.7190718, -0.1079923, 0.010107926, 0.045728683, 0
725, 1344222005, -0.1631786, -0.65102875, 0.18054648, -0.7189822, -0.1351911, 0.034484193, 0.0050697327, 0
729, 1344288673, -0.16381972, -0.6512595, 0.18054599, -0.7186274, -0.1492572, 0.02674623, -0.033943176, 0
731, 1344322007, -0.16427158, -0.6512835, 0.18070367, -0.7184628, -0.27286556, 0.09321205, 0.010749817, 0
732, 1344338674, -0.16454385, -0.65125513, 0.18077987, -0.71840715, -0.24199732, 0.14442457, 0.022289276, 0
733, 1344355341, -0.16482778, -0.65120935, 0.18085311, -0.71836513, -0.25946045, 0.07199922, 0.011220932, 0
735, 1344388675, -0.16539823, -0.65097743, 0.18106598, -0.71839064, -0.3228918, 0.14511177, 0.036637306, 0
736, 1344405342, -0.16569315, -0.65082365, 0.18118112, -0.7184328, -0.2703066, 0.14630431, 0.053632736, 0
740, 1344472010, -0.16661146, -0.6504507, 0.18131965, -0.7185234, -0.15888125, 0.07634912, -0.050751686, 0
741, 1344488677, -0.16672301, -0.6504249, 0.18123531, -0.718542, -0.19838716, 0.12223409, -0.046611786, 0
744, 1344538678, -0.16683738, -0.65051484, 0.18075536, -0.71855485, -0.1844762, 0.04111845, -0.08322716, 0
745, 1344555345, -0.16672423, -0.6505765, 0.180485, -0.7185934, -0.16253027, 0.0633125, -0.052819252, 0
748, 1344605346, -0.16603732, -0.650827, 0.17910743, -0.7188704, -0.072759025, 0.10876711, 0.02398777, 0
753, 1344688681, -0.16419719, -0.6511897, 0.17578803, -0.71978325, -0.007634253, 0.010600661, 0.09252262, 0
756, 1344738682, -0.16335714, -0.65183043, 0.17390905, -0.71985084, -0.12691931, -0.25789797, -0.006917, 0
759, 1344788683, -0.16419666, -0.6513009, 0.1730891, -0.7203366, -0.059619874, 0.18177381, 0.17213154, 0
760, 1344805350, -0.16459076, -0.6512336, 0.17260149, -0.7204244, -0.06842592, 0.15451282, 0.18055153, 0
762, 1344838684, -0.16542344, -0.6508616, 0.17136079, -0.7208659, -0.17450987, 0.15364124, -0.0156059265, 0
764, 1344872018, -0.16577148, -0.65050125, 0.16868997, -0.7217409, 0.010888043, 0.37622836, -0.006825447, 0
766, 1344905352, -0.16503988, -0.6509688, 0.16413379, -0.7225369, 0.111614265, 0.35032427, -0.13569641, 0
767, 1344922019, -0.16424797, -0.6512816, 0.16164124, -0.72299725, 0.046823926, 0.3311273, -0.20782948, 0
768, 1344938686, -0.16344194, -0.6513228, 0.15928993, -0.7236645, -0.3217205, 0.019537939, -0.27894115, 0
771, 1344988687, -0.16054112, -0.6510882, 0.15123342, -0.7262487, -0.22332735, 0.234862, 0.006875992, 0
775, 1345055355, -0.15321848, -0.65160084, 0.13932118, -0.7297452, -0.34725508, -0.12227302, -0.1042614, 0
778, 1345105356, -0.14686815, -0.6520878, 0.1323999, -0.73190135, -0.3236196, -0.2678535, 0.0019435883, 0
779, 1345122023, -0.14522481, -0.65238225, 0.1305916, -0.73229164, -0.36338696, -0.37933245, -0.02508068, 0
780, 1345138690, -0.1439075, -0.6526849, 0.12914704, -0.73253804, -0.36813518, -0.4987149, 0.019946098, 0
782, 1345172024, -0.14254713, -0.65312856, 0.12763569, -0.7326737, -0.3706552, -0.56996053, 0.10715771, 0
785, 1345222025, -0.14314364, -0.6532228, 0.12773071, -0.73245674, -0.2367067, -0.23314391, 0.12644577, 0
786, 1345238692, -0.143725, -0.6531499, 0.1281919, -0.73232734, -0.1883318, -0.16157115, 0.010861397, 0
787, 1345255359, -0.14439599, -0.6529966, 0.12883206, -0.7322197, -0.17673174, -0.19140202, -0.027486801, 0
790, 1345305360, -0.14618796, -0.6524199, 0.13115624, -0.7319653, 0.020331284, 0.11621467, -0.1245451, 0
791, 1345322027, -0.14666663, -0.6522848, 0.13178235, -0.7318776, -0.05841468, 0.08322631, -0.071600914, 0
793, 1345355361, -0.14708963, -0.6522105, 0.1327721, -0.7316801, -0.1586782, -0.048989736, 0.041841507, 0
794, 1345372028, -0.14702946, -0.65230364, 0.13318387, -0.7315342, -0.12255227, 1.6109696E-4, 0.036478043, 0
797, 1345422029, -0.14683713, -0.6524219, 0.13426127, -0.73127043, -0.1890199, -0.07219033, 0.048217773, 0
798, 1345438696, -0.14688092, -0.6523139, 0.13466935, -0.731283, -0.14628637, -0.17040572, 0.1322031, 0
799, 1345455363, -0.14679553, -0.6524165, 0.1349994, -0.7311477, -0.027987063, -0.1489292, 0.052859306, 0
801, 1345488697, -0.14643463, -0.6528495, 0.13561575, -0.7307194, -0.11691719, -0.22334526, 0.009263039, 0
803, 1345522031, -0.146308, -0.6528976, 0.1365938, -0.73051965, -0.19767836, -0.16873635, 0.111792564, 0
805, 1345555365, -0.14648764, -0.6529105, 0.13786596, -0.730233, -0.19628316, -0.24836731, 0.09190273, 0
806, 1345572032, -0.1467452, -0.6528404, 0.1386787, -0.73009026, -0.32469076, -0.21991546, 0.06593132, 0
809, 1345622033, -0.14903793, -0.6515608, 0.14217868, -0.73009557, -0.3566841, -0.28692365, 0.039787292, 0
810, 1345638700, -0.15016195, -0.651055, 0.14383572, -0.729992, -0.33812547, -0.25999758, -0.04048252, 0
811, 1345655367, -0.15144174, -0.6505251, 0.1456146, -0.7298474, -0.2953161, -0.15442388, -0.059233665, 0
813, 1345688701, -0.1543352, -0.64929336, 0.14924707, -0.7296041, -0.23157428, -0.019358346, -0.07903957, 0
816, 1345738702, -0.1583022, -0.6478479, 0.15489265, -0.728862, -0.15568937, 0.042964555, -0.078798294, 0
818, 1345772036, -0.1603705, -0.6472349, 0.15785727, -0.7283182, -0.0044089747, 0.31569764, -0.0935421, 0
820, 1345805370, -0.16180104, -0.6468539, 0.15957887, -0.727965, -0.0414931, 0.28928667, 0.09965801, 0
821, 1345822037, -0.16220476, -0.6467146, 0.16017437, -0.72786814, -0.11478977, 0.20233706, 0.09283924, 0
822, 1345838704, -0.16245164, -0.6466052, 0.16065408, -0.72780454, -0.11938833, 0.1491682, 0.07430935, 0
824, 1345872038, -0.16285168, -0.64629424, 0.16112864, -0.7278863, -0.090492, 0.14923713, -0.020638466, 0
825, 1345888705, -0.1630701, -0.64609337, 0.1611955, -0.72800094, -0.07849867, 0.09025855, -0.070578575, 0
826, 1345905372, -0.16328229, -0.6459167, 0.16120698, -0.72810775, -0.06935685, 0.0018268832, -0.08298397, 0
828, 1345938706, -0.16349213, -0.6456923, 0.16127843, -0.72824377, -0.048536424, -0.032042257, -0.027210236, 0
829, 1345955373, -0.16351207, -0.6455938, 0.16135211, -0.7283103, -0.010828225, -0.006578098, -0.008160591, 0
830, 1345972040, -0.16343941, -0.64554286, 0.16139738, -0.72836167, -0.015130724, 0.055666238, 0.021669388, 0
833, 1346022041, -0.16327275, -0.64539236, 0.16147016, -0.72851634, -0.1716126, 0.0644798, 0.0012674332, 0
834, 1346038708, -0.16328965, -0.6452359, 0.16154927, -0.72863364, -0.21136726, 0.012307741, -0.006922722, 0
836, 1346072042, -0.16334817, -0.6449993, 0.16175732, -0.7287838, -0.1765453, 0.07323134, -0.03604889, 0
837, 1346088709, -0.16330196, -0.6449857, 0.16183026, -0.72879, -0.13265327, 0.07297038, -0.037724495, 0
839, 1346122043, -0.16291314, -0.64501715, 0.16178483, -0.7288593, -0.18209556, 0.023332182, -0.009441376, 0
840, 1346138710, -0.16266264, -0.6450078, 0.16171443, -0.7289392, -0.24508816, 0.054064877, -0.008817673, 0
841, 1346155377, -0.16238709, -0.64505345, 0.16162136, -0.7289809, -0.2334104, 0.05682677, -0.03271866, 0
844, 1346205378, -0.16150048, -0.6455606, 0.16134214, -0.72879064, -0.17685795, -0.028827025, -0.016469955, 0
845, 1346222045, -0.16134264, -0.64560455, 0.1613136, -0.7287931, -0.18072262, -0.019154614, 0.014458656, 0
847, 1346255379, -0.16091546, -0.6457576, 0.1609887, -0.7288237, -0.20737305, 0.034181725, 0.04490757, 0
851, 1346322047, -0.15987079, -0.64609605, 0.1603198, -0.728901, -0.18292926, -0.06257301, 0.015913963, 0
852, 1346338714, -0.15969074, -0.64617103, 0.16024482, -0.72889054, -0.16036189, -0.018366618, 0.06923771, 0
853, 1346355381, -0.15962262, -0.6462213, 0.16028035, -0.72885305, -0.15488485, -0.03668004, 0.07508755, 0
855, 1346388715, -0.15955688, -0.646353, 0.16046493, -0.72871006, -0.11018222, -0.062610224, -0.010276794, 0
856, 1346405382, -0.1595389, -0.64645267, 0.16058607, -0.728599, -0.14374915, -0.042374592, -0.016693115, 0
857, 1346422049, -0.15953688, -0.64650285, 0.1607193, -0.7285255, -0.15857814, -0.047876507, -0.011091232, 0
859, 1346455383, -0.15944435, -0.64670324, 0.16098896, -0.7283083, -0.09381934, -0.0055325045, 0.025307655, 0
860, 1346472050, -0.15940306, -0.64686406, 0.16112535, -0.72814435, -0.05590703, 0.035914287, 0.007174492, 0
861, 1346488717, -0.15932232, -0.6470896, 0.16120964, -0.7279428, -0.08997897, 0.055590354, -0.012174606, 0
863, 1346522051, -0.15910324, -0.6476459, 0.16132891, -0.72746944, -0.15838017, 0.011358147, -0.0056858063, 0
867, 1346588719, -0.15867761, -0.64854556, 0.16139732, -0.7267454, -0.18316633, 0.056591358, -0.0042858124, 0
868, 1346605386, -0.15862183, -0.6486744, 0.16144195, -0.7266327, -0.14607327, 0.036421996, -0.03392124, 0
874, 1346705388, -0.1583146, -0.6492231, 0.16178074, -0.7261342, -0.109762415, -0.0023175785, 0.023864746, 0
875, 1346722055, -0.15825102, -0.64939773, 0.1618717, -0.7259716, -0.10280979, -0.012871329, -0.019482613, 0
878, 1346772056, -0.15826361, -0.6498229, 0.16233633, -0.7254846, -0.073313646, 0.014548905, 0.016242027, 0
883, 1346855391, -0.15804116, -0.6505999, 0.16271019, -0.7247525, -0.14220066, 0.024808597, 0.0052461624, 0
884, 1346872058, -0.15788478, -0.6507986, 0.16266635, -0.7246181, -0.100016974, 0.0151791, 0.019010544, 0
886, 1346905392, -0.1576021, -0.6511887, 0.1625794, -0.72434855, -0.1425666, 0.010655757, -0.029298782, 0
887, 1346922059, -0.15745221, -0.6513233, 0.16257448, -0.7242612, -0.1698452, 0.02816062, 0.01722908, 0
888, 1346938726, -0.15728742, -0.65146834, 0.16254751, -0.72417265, -0.18654732, 0.007853463, 0.03685379, 0
890, 1346972060, -0.15712817, -0.65176314, 0.16255984, -0.7239391, -0.13766968, -0.039370563, -0.037229538, 0
891, 1346988727, -0.1570769, -0.65189964, 0.16255157, -0.7238292, -0.17539997, -0.024579609, -0.03382492, 0
892, 1347005394, -0.15699539, -0.65204006, 0.1625376, -0.7237236, -0.1859974, -0.04300926, -0.013360977, 0
894, 1347038728, -0.15681005, -0.65233403, 0.16244984, -0.7235185, -0.14823218, -0.010442078, -0.031277657, 0
895, 1347055395, -0.15675594, -0.65237576, 0.16247477, -0.72348684, -0.19638887, 0.0020530783, -0.008468628, 0
897, 1347088729, -0.15666296, -0.65243745, 0.162496, -0.7234466, -0.122583695, -0.0022407174, 0.046147346, 0
899, 1347122063, -0.15652424, -0.65258366, 0.16243361, -0.7233588, -0.15784314, -0.018519502, 0.0051603317, 0
902, 1347172064, -0.15634008, -0.6527064, 0.16231838, -0.72331387, -0.17381139, -0.020644886, -0.017391205, 0
905, 1347222065, -0.15620635, -0.6527193, 0.16237819, -0.7233176, -0.14212811, -0.03505253, 0.020139694, 0
907, 1347255399, -0.15613283, -0.65279573, 0.16247961, -0.72324175, -0.14797863, -0.04593139, 0.0050582886, 0
909, 1347288733, -0.15603165, -0.6529011, 0.16260612, -0.72314006, -0.11065166, -0.02199144, -0.0040569305, 0
910, 1347305400, -0.15600076, -0.652945, 0.1626733, -0.72309196, -0.10933034, -0.018123437, 0.014255524, 0
911, 1347322067, -0.15595868, -0.65298665, 0.16272913, -0.7230509, -0.113553606, -0.018538276, 0.030766487, 0
913, 1347355401, -0.1558326, -0.65307343, 0.16263388, -0.72302115, -0.39761022, -0.013641555, -0.0065870285, 0
914, 1347372068, -0.15528348, -0.6314851, 0.16192156, -0.7422217, -2.3653953, -3.3331409, -0.9648905, 0
915, 1347388735, -0.15542166, -0.6253529, 0.17465456, -0.74449426, 1.6682484, 1.9106694, 0.7497492, 0
917, 1347422069, -0.16075817, -0.62746954, 0.1726453, -0.74204475, 2.3153355, 0.3804843, -0.65056705, 0
920, 1347472070, -0.17113099, -0.6227437, 0.17114471, -0.7440512, -0.89669234, -0.7643034, 0.66246605, 0
924, 1347538738, -0.16952372, -0.6245056, 0.16792202, -0.74367636, 0.22721677, -0.13066041, -0.074801445, 0
926, 1347572072, -0.16562702, -0.6295971, 0.16639502, -0.7405984, 0.12390661, -0.084240355, -0.01731491, 0
928, 1347605406, -0.16180022, -0.63512856, 0.16525048, -0.7369684, 0.13244338, -0.115584806, 0.05038643, 0
929, 1347622073, -0.15964319, -0.6383625, 0.16505468, -0.73468524, 0.1576594, -0.2364775, 0.09114075, 0
932, 1347672074, -0.15367481, -0.6467844, 0.16583307, -0.7283897, -0.14902955, 0.038935732, -0.16306114, 0
933, 1347688741, -0.15284052, -0.64703137, 0.16510752, -0.72851074, -0.26678675, 0.04572807, -0.09132576, 0
934, 1347705408, -0.15198858, -0.64754254, 0.16462687, -0.72834355, -0.19074672, 0.06927236, 0.12879276, 0
937, 1347755409, -0.1498042, -0.64818037, 0.16279414, -0.7286405, -0.22281514, -0.09196597, 0.050290108, 0
938, 1347772076, -0.14930627, -0.6480659, 0.16238822, -0.72893494, -0.2735417, -0.07000649, 0.0048151016, 0
940, 1347805410, -0.14861573, -0.6477838, 0.16176696, -0.729465, -0.21689606, -0.11814655, 0.050601006, 0
941, 1347822077, -0.14839819, -0.6476396, 0.16161963, -0.7296698, -0.23035464, -0.08620671, -0.0017309189, 0
944, 1347872078, -0.14797425, -0.64723736, 0.1616677, -0.73010206, -0.14089581, -0.023168515, -0.022746086, 0
945, 1347888745, -0.14796399, -0.6470834, 0.16177303, -0.7302173, -0.07432983, 0.00817806, -0.006357193, 0
946, 1347905412, -0.14799869, -0.6470165, 0.16191931, -0.73023695, -0.01493705, 0.020969091, -0.0062656403, 0
951, 1347988747, -0.1486925, -0.64700675, 0.16308413, -0.7298456, -0.06106973, 0.049489178, -0.11082363, 0
952, 1348005414, -0.14887992, -0.6470611, 0.1633305, -0.729704, -0.1355622, 0.0450615, -0.14118385, 0
953, 1348022081, -0.14908583, -0.647115, 0.16359887, -0.72955394, -0.16566737, 0.035187587, -0.11837387, 0
955, 1348055415, -0.14938566, -0.64714783, 0.1640155, -0.72937, -0.15399349, 0.040375885, 0.014896393, 0
956, 1348072082, -0.14944726, -0.6472486, 0.16416667, -0.72923386, -0.17107928, 0.071242936, 0.030153275, 0
957, 1348088749, -0.14950289, -0.647348, 0.16425912, -0.7291135, -0.20932858, 0.11035192, 0.052887917, 0
960, 1348138750, -0.14970823, -0.647526, 0.16424477, -0.7289164, -0.073709875, 0.0041225287, -0.020298958, 0
964, 1348205418, -0.14995964, -0.6474352, 0.16425481, -0.7289431, -0.1004252, -0.037964348, 0.026420593, 0
965, 1348222085, -0.1499459, -0.64747447, 0.16422063, -0.72891885, -0.09946158, -0.054766208, 0.0150613785, 0
967, 1348255419, -0.14995454, -0.64752, 0.16418992, -0.7288834, -0.09801536, -0.09139775, 3.8433075E-4, 0
968, 1348272086, -0.1498878, -0.6475947, 0.16413134, -0.7288441, -0.07513612, -0.07002812, -0.003241539, 0
969, 1348288753, -0.14985393, -0.6476545, 0.16405071, -0.72881603, -0.10457804, -0.018412998, 0.02598381, 0
971, 1348322087, -0.14828582, -0.6150635, 0.15773152, -0.7581735, -2.4546888, 0.7333505, -0.71892166, 0
972, 1348338754, -0.15584494, -0.62652427, 0.16433579, -0.7457691, 2.6786652, 4.1928797, 1.4356232, 0
974, 1348372088, -0.16895272, -0.6354696, 0.15760912, -0.7367435, -1.6408157, -2.752975, -1.1576853, 0
975, 1348388755, -0.16584122, -0.6364494, 0.15792605, -0.73653674, -2.0927496, -2.0050156, -0.39412498, 0
976, 1348405422, -0.16053477, -0.635881, 0.15876295, -0.7380219, -0.71518546, -0.06787407, 0.8067627, 0
979, 1348455423, -0.1580728, -0.6400914, 0.15890332, -0.7348766, 0.3927763, 0.5241335, 0.10565472, 0
983, 1348522091, -0.15678924, -0.64410555, 0.15910617, -0.7315931, -0.03063639, -0.09694707, -0.1262083, 0
986, 1348572092, -0.15639263, -0.6453081, 0.1589416, -0.73065346, -0.09635156, -0.03377415, -0.01403904, 0
987, 1348588759, -0.15621838, -0.645788, 0.15891704, -0.73027194, -0.12144847, -0.084728844, 0.005959511, 0
988, 1348605426, -0.15585096, -0.6460987, 0.15905456, -0.73004586, -0.21392886, -0.1553928, -0.06515598, 0
991, 1348655427, -0.15426984, -0.64598984, 0.16003236, -0.73026425, -0.18819636, 0.0061534233, 0.24188137, 0
992, 1348672094, -0.15356722, -0.64595973, 0.16024032, -0.7303933, -0.034034457, 0.07892712, 0.058416367, 0
994, 1348705428, -0.15263815, -0.6458997, 0.16018987, -0.7306521, -0.025946599, -0.021347163, 0.022779465, 0
995, 1348722095, -0.15218848, -0.6459494, 0.16001037, -0.73074126, 0.05945157, -0.13309269, -0.1133852, 0
1000, 1348805430, -0.15157668, -0.645131, 0.16071783, -0.73143584, -0.081600025, -0.13027117, -0.029213905, 0
1002, 1348838764, -0.15158625, -0.6448046, 0.16136615, -0.73157877, -0.024222141, -0.06557959, -0.029307365, 0
1003, 1348855431, -0.15166463, -0.6446517, 0.16170253, -0.73162305, -0.13671046, -0.018198704, -0.042222023, 0
1005, 1348888765, -0.15187472, -0.64424884, 0.16235712, -0.73178935, -0.13860859, -0.014411892, -0.04284668, 0
1006, 1348905432, -0.15190418, -0.64413077, 0.16268039, -0.73181534, -0.12756583, -0.040307865, -0.0569973, 0
1007, 1348922099, -0.15183546, -0.6440289, 0.16293259, -0.73186314, -0.13267477, -0.029249966, -0.08074093, 0
1011, 1348988767, -0.15183464, -0.6438975, 0.16365427, -0.73181796, -0.10858473, 0.07326011, 0.001244545, 0
1013, 1349022101, -0.15185684, -0.64385563, 0.16365969, -0.7318491, -0.16321085, -0.04098283, -0.021453857, 0
1014, 1349038768, -0.15182124, -0.64385736, 0.1635785, -0.7318731, -0.17677811, 0.0013624791, -0.017848969, 0
1015, 1349055435, -0.1518202, -0.64390075, 0.16347028, -0.73185915, -0.14702117, 0.013301759, -0.029578209, 0
1019, 1349122103, -0.15132383, -0.6443035, 0.16274059, -0.73177016, -0.06465571, -0.06371321, -0.038282394, 0
1021, 1349155437, -0.15125947, -0.6445967, 0.1626297, -0.7315499, -0.12796992, -0.054163225, -0.054205894, 0
1022, 1349172104, -0.15122531, -0.64472514, 0.16259125, -0.7314524, -0.118976936, -0.053375155, 0.0063819885, 0
1023, 1349188771, -0.15114836, -0.64490193, 0.16255216, -0.7313211, -0.0981568, -0.052727766, 0.04647827, 0
1025, 1349222105, -0.15093023, -0.6453208, 0.16247359, -0.7310141, -0.12742417, 0.008653416, 0.035255432, 0
1026, 1349238772, -0.15086564, -0.64551497, 0.1624366, -0.73086417, -0.1154576, 0.011396311, 0.025094986, 0
1027, 1349255439, -0.15083794, -0.64567, 0.16238804, -0.7307437, -0.11861941, -0.023266358, -0.0034980774, 0
1029, 1349288773, -0.15087816, -0.6458198, 0.1623516, -0.7306111, -0.13448146, -0.054536883, 0.018982887, 0
1030, 1349305440, -0.14335695, -0.6525795, 0.15253411, -0.72823083, -18.821613, 0.110735245, -2.2433395, 1024
1032, 1349338774, -0.1533196, -0.61944056, 0.18214227, -0.74807006, 1.3223503, 2.3812041, 2.5031204, 0
1034, 1349372108, -0.16170809, -0.6203461, 0.18019156, -0.74602294, 0.28076226, -2.1037076, -1.2596483, 0
1036, 1349405442, -0.15399466, -0.6240447, 0.17813715, -0.74506295, -0.9782114, -0.46801063, 1.3300657, 0
1037, 1349422109, -0.15057433, -0.62753, 0.17523734, -0.74352115, 0.2717615, 1.216418, 0.9892721, 0
1038, 1349438776, -0.14935893, -0.6317331, 0.17325963, -0.74066466, 0.8003731, 1.280806, 0.51584244, 0
1040, 1349472110, -0.14854594, -0.63830197, 0.17143546, -0.73560363, -0.047252204, -0.1445574, -0.012454033, 0
1042, 1349505444, -0.1477854, -0.640397, 0.17033309, -0.7341906, 0.05427051, -0.44930413, -0.067549706, 0
1045, 1349555445, -0.14668393, -0.6415038, 0.16936204, -0.7336697, 0.12113578, -0.023041783, 0.08542156, 0
1046, 1349572112, -0.14666067, -0.64194894, 0.16878694, -0.73341745, 0.10916553, -0.08887339, 0.10839081, 0
1048, 1349605446, -0.1468067, -0.64176786, 0.16889499, -0.733522, 0.0072795935, -0.23591508, -0.16714668, 0
1049, 1349622113, -0.147043, -0.6412195, 0.16913852, -0.7338979, -0.032923877, -0.14008719, 0.063344955, 0
1053, 1349688781, -0.1449402, -0.6404567, 0.1685937, -0.73510665, -0.09139999, -0.0761079, -0.006201744, 0
1055, 1349722115, -0.14377686, -0.63994575, 0.16810465, -0.7358916, -0.11136175, -0.18408881, 0.057279587, 0
1056, 1349738782, -0.14345358, -0.6396311, 0.16807412, -0.73623514, -0.14176321, -0.17710724, 0.06548309, 0
1057, 1349755449, -0.1432331, -0.63931876, 0.1680725, -0.73654974, -0.19293694, -0.16954894, 0.029224396, 0
1059, 1349788783, -0.14333706, -0.63851196, 0.16848002, -0.737136, -0.3095837, -0.15434514, 0.025862694, 0
1061, 1349822117, -0.14432682, -0.6374223, 0.16978058, -0.7375875, -0.41566253, -0.20401095, 0.0355978, 0
1063, 1349855451, -0.14627793, -0.63608116, 0.17167455, -0.7379224, -0.4803613, -0.12551951, -0.025860786, 0
1064, 1349872118, -0.14753722, -0.6352763, 0.1728035, -0.73810154, -0.46227893, -0.13980149, -0.07827091, 0
1065, 1349888785, -0.1489031, -0.6345193, 0.17398024, -0.738202, -0.47777343, -0.15070824, -0.15067959, 0
1067, 1349922119, -0.15165722, -0.63328665, 0.17633718, -0.7381406, -0.4331923, -0.14614563, -0.027218819, 0
1068, 1349938786, -0.15289639, -0.63281476, 0.17748244, -0.73801494, -0.33459628, -0.064196214, -0.036953926, 0
1069, 1349955453, -0.15415807, -0.6323268, 0.17870858, -0.7378749, -0.275222, -0.07473927, -0.06893921, 0
1071, 1349988787, -0.15636712, -0.63148344, 0.18100391, -0.7375728, -0.18036096, -0.0041460535, -0.04453659, 0
1072, 1350005454, -0.15733057, -0.6311032, 0.18204722, -0.73743665, -0.1424503, 0.048587963, 0.0038833618, 0
1073, 1350022121, -0.15822238, -0.6307246, 0.18293668, -0.7373497, -0.03847362, 0.09004985, 0.021720886, 0
1075, 1350055455, -0.15973061, -0.62993103, 0.18434939, -0.73735094, 0.0125919655, 0.01890439, -0.059548378, 0
1076, 1350072122, -0.16031076, -0.62939113, 0.18498856, -0.73752606, 0.031775914, -0.06269444, -0.067237854, 0
1077, 1350088789, -0.16075115, -0.6288718, 0.18560962, -0.73771703, 0.101202026, -0.14343782, -0.06396961, 0
1079, 1350122123, -0.16160852, -0.62800044, 0.18688665, -0.7379498, 0.20149115, 0.0070271357, -0.0050258636, 0
1081, 1350155457, -0.16267581, -0.6273408, 0.18783648, -0.738035, 0.3540353, -0.1168728, -0.076859474, 0
1084, 1350205458, -0.16399813, -0.6265371, 0.18747763, -0.73851603, 0.052537166, -0.13413481, -0.13129139, 0
1086, 1350238792, -0.1647516, -0.6250288, 0.18594544, -0.7400123, -0.19108653, -0.16818501, 0.058804512, 0
1087, 1350255459, -0.16503647, -0.6242576, 0.18496995, -0.7408437, -0.27125743, -0.18569769, -0.036520004, 0
1088, 1350272126, -0.16531247, -0.6236046, 0.1837844, -0.74162674, -0.21716884, -0.18454413, -0.18573284, 0
1091, 1350322127, -0.16508898, -0.6222581, 0.1791181, -0.7439458, -0.12051836, -0.10676789, -0.37097073, 0
1092, 1350338794, -0.16479005, -0.62192523, 0.17739098, -0.7447038, -0.08926303, -0.13516186, -0.36763096, 0
1094, 1350372128, -0.16234471, -0.62281007, 0.17348048, -0.74542224, -0.09156563, -0.16388255, -0.43723392, 0
1095, 1350388795, -0.16062276, -0.6236046, 0.17151232, -0.7455864, -0.11090017, 0.07149542, -0.40055847, 0
1099, 1350455463, -0.15273097, -0.62690514, 0.1642847, -0.74610454, -0.16841887, 0.20265098, 0.14664173, 0
1102, 1350505464, -0.14746875, -0.6273456, 0.16104533, -0.7474978, -0.40237042, -0.26298586, 0.20560837, 0
1107, 1350588799, -0.13813584, -0.6299193, 0.15789816, -0.7477877, -0.16840112, 0.20985597, 0.3385172, 0
1109, 1350622133, -0.1355797, -0.6311087, 0.15704413, -0.7474324, 0.010780994, 0.2506798, 0.39373684, 0
1111, 1350655467, -0.13332625, -0.6319473, 0.15619871, -0.7473062, -0.042728554, 0.09861671, 0.26310635, 0
1113, 1350688801, -0.13141315, -0.63261414, 0.15544757, -0.74723774, -0.27633592, 0.07701245, 0.17087555, 0
1115, 1350722135, -0.13024758, -0.6326937, 0.15511487, -0.74744344, -0.24361202, 0.09214316, 0.17216492, 0
1117, 1350755469, -0.13069242, -0.63175017, 0.15509474, -0.74816775, -0.1607633, 0.10222287, 0.02688694, 0
1118, 1350772136, -0.13104188, -0.6309208, 0.155365, -0.74875015, -0.18934818, 0.0677175, -0.16578865, 0
1119, 1350788803, -0.13302329, -0.6294823, 0.1557646, -0.7495279, -0.19635163, 0.10507193, -0.26645184, 0
1121, 1350822137, -0.13362898, -0.6277931, 0.156341, -0.75071603, -0.35394695, -0.030231748, -0.1621685, 0
1125, 1350888805, -0.13780847, -0.62231165, 0.16178624, -0.75336593, 0.039546132, 0.5658145, -0.41410542, 0
1127, 1350922139, -0.14056486, -0.6197539, 0.16414234, -0.75445473, -0.37133777, 0.07895612, 0.16266823, 0
1129, 1350955473, -0.14331834, -0.6165329, 0.16827525, -0.7556642, -0.55907387, -0.22987251, 0.45413494, 0
1130, 1350972140, -0.14415334, -0.61565447, 0.16949326, -0.7559494, 0.06628782, 0.25342485, -0.08066273, 0
1131, 1350988807, -0.14481786, -0.61488825, 0.17058794, -0.7561998, -0.35069484, 0.029370328, 0.022362709, 0
1134, 1351038808, -0.14689763, -0.6117962, 0.17493571, -0.7573121, 0.10699887, 1.1183152, -0.3877859, 0
1138, 1351105476, -0.14961995, -0.60576254, 0.17934272, -0.76059186, -0.5387613, 0.074205086, -0.011194229, 0
1140, 1351138810, -0.15071695, -0.60265356, 0.18042697, -0.7625858, -0.5368923, -0.025891796, 0.03860092, 0
1141, 1351155477, -0.15170304, -0.6005355, 0.18181945, -0.7637297, -1.1040398, -0.9051087, 0.6396494, 0
1142, 1351172144, -0.15289792, -0.59798175, 0.18434967, -0.7648878, 0.04019157, 0.5556017, -0.6129055, 0
1145, 1351222145, -0.15633616, -0.5924441, 0.18817933, -0.7675648, -0.29613826, -0.21838087, -0.091404915, 0
1146, 1351238812, -0.15783447, -0.5904461, 0.1895838, -0.76845133, -0.36669093, -0.44930518, 0.11316204, 0
1148, 1351272146, -0.1634945, -0.5838554, 0.19616486, -0.77064896, 0.18311664, 0.0666472, -0.46795273, 0
1149, 1351288813, -0.16584277, -0.58126205, 0.19849266, -0.77151114, -0.46624175, -0.34120092, 0.1969719, 0
1153, 1351355481, -0.17786887, -0.56673455, 0.21064593, -0.7764026, -0.98679763, -0.07875669, 0.6256218, 0
1154, 1351372148, -0.18084598, -0.5626141, 0.21364358, -0.77789116, -0.30566636, 0.6355092, -0.6982422, 0
1160, 1351472150, -0.19715406, -0.5350794, 0.23144434, -0.7881954, -0.7173551, 0.60226953, -0.06991196, 0
1161, 1351488817, -0.19974312, -0.5307602, 0.23523016, -0.78934216, -0.61593735, 0.5097191, -0.2383604, 0
1162, 1351505484, -0.20206602, -0.5266678, 0.23876552, -0.79042995, -0.35802424, 0.7621881, -0.37666416, 0
1167, 1351588819, -0.21130422, -0.51250213, 0.2481203, -0.7944347, -0.75234216, 0.39090124, -0.18676376, 0
1168, 1351605486, -0.21257366, -0.51018894, 0.24863733, -0.7954229, -0.36569133, 0.5216106, -0.7106781, 0
1169, 1351622153, -0.21357447, -0.5080268, 0.24792111, -0.796761, -0.8110456, 0.7238145, -0.053211212, 0
1172, 1351672154, -0.21533415, -0.5003752, 0.24450028, -0.80216813, -1.0914396, 0.6524888, -0.20682621, 0
1175, 1351722155, -0.21708864, -0.49017033, 0.24295396, -0.80844116, -1.5208873, 0.7843493, -0.15921783, 0
1176, 1351738822, -0.21814384, -0.4861791, 0.24311872, -0.8105151, -1.5338905, 0.48510626, -0.44528198, 0
1177, 1351755489, -0.21900824, -0.48218983, 0.24334766, -0.8125936, -1.6566255, 0.38221642, -0.17951679, 0
1181, 1351822157, -0.22415711, -0.46520954, 0.24842334, -0.81952286, -1.1563356, 0.57979804, -0.7480774, 0
1183, 1351855491, -0.22712979, -0.45727324, 0.25197092, -0.82208407, -0.9304273, 0.89972985, -0.9083023, 0
1184, 1351872158, -0.22879794, -0.45376346, 0.25327575, -0.82316434, -1.0709308, 0.7707107, -0.8221798, 0
1187, 1351922159, -0.23435926, -0.44398636, 0.2558829, -0.8261197, -1.239903, 0.8330378, -0.9319658, 0
1188, 1351938826, -0.23585302, -0.44109488, 0.25561857, -0.82732445, -0.8719866, 1.1969019, -0.8455429, 0
1190, 1351972160, -0.24010907, -0.43603376, 0.25342005, -0.8294567, -1.191609, 0.65388334, -0.3582449, 0
1192, 1352005494, -0.24479865, -0.43159544, 0.25031403, -0.83134824, -1.6711161, 0.18511845, -0.7545738, 0
1194, 1352038828, -0.24761236, -0.42769134, 0.24810271, -0.8331935, -1.3425568, 0.64550817, -1.506566, 0
1195, 1352055495, -0.24915093, -0.425939, 0.24706528, -0.8339405, -1.430028, 0.9862697, -1.7717676, 0
1196, 1352072162, -0.2510728, -0.42450118, 0.24600685, -0.83440995, -1.61354, 0.93972546, -2.4483957, 0
1198, 1352105496, -0.25478318, -0.422992, 0.24306075, -0.834915, -1.7209047, 0.9630914, -3.4360652, 0
1199, 1352122163, -0.25560555, -0.42326206, 0.24128264, -0.8350423, -1.7026453, 1.8867433, -3.0823321, 0
1200, 1352138830, -0.25561512, -0.4242037, 0.23916544, -0.83517057, -1.71806, 2.440119, -2.994423, 0
1203, 1352188831, -0.25140858, -0.42731592, 0.23104931, -0.83714336, -3.9134543, 4.0603228, -0.04968357, 0
1204, 1352205498, -0.24887042, -0.4278073, 0.22908391, -0.8381903, -6.0040154, 4.238484, 1.8898611, 0
1206, 1352238832, -0.24536254, -0.42710668, 0.22625169, -0.84034824, -8.38667, 4.091975, 6.648363, 0
1207, 1352255499, -0.2447363, -0.4258407, 0.22470184, -0.84158826, -7.4913716, 3.8352337, 8.6630745, 0
1208, 1352272166, -0.2447345, -0.42424366, 0.22474487, -0.8423835, -7.0762343, 3.5402522, 9.256018, 0
1210, 1352305500, -0.24491557, -0.4211348, 0.22618261, -0.8435055, -4.150306, 4.2967978, 7.0325375, 0
1211, 1352322167, -0.24537428, -0.41943172, 0.22786556, -0.8437679, -2.6115718, 2.8186746, 4.764368, 0
1212, 1352338834, -0.24467193, -0.41877115, 0.22913542, -0.8439557, -1.0852563, 1.2498535, 3.0635023, 0
1214, 1352372168, -0.2448664, -0.41982526, 0.22939688, -0.8433046, 0.16096437, -1.7518705, 2.6388655, 0
1216, 1352405502, -0.2461784, -0.42249396, 0.22606613, -0.84248877, -0.41368914, -2.0046732, 2.7822237, 0
1219, 1352455503, -0.2517072, -0.43017882, 0.2203193, -0.83847916, 0.17558993, -1.6962299, 0.1087656, 0
1221, 1352488837, -0.25765926, -0.436486, 0.21680127, -0.8343182, 0.1568589, -0.8138681, -0.6976814, 0
1222, 1352505504, -0.26099765, -0.44014978, 0.21433441, -0.83198994, 0.3562715, -0.4122735, -0.8349819, 0
1225, 1352555505, -0.2673393, -0.45588717, 0.20229141, -0.8244834, 1.1262501, 0.50972396, -1.3070154, 0
1227, 1352588839, -0.26820815, -0.46770567, 0.19330555, -0.8197238, 1.4976397, -0.10538066, -1.8468032, 0
1229, 1352622173, -0.26675925, -0.47851557, 0.17946757, -0.81709975, 1.1640103, -0.06837418, -2.4912825, 0
1230, 1352638840, -0.2644807, -0.48373318, 0.17219809, -0.81633216, 0.9925314, -0.3345695, -2.064762, 0
1233, 1352688841, -0.25427654, -0.49714544, 0.15363921, -0.81521946, 0.7655352, -1.0853144, -2.0440335, 0
1234, 1352705508, -0.24999475, -0.5022001, 0.1483584, -0.8144233, 0.98557705, -1.3493011, -2.1958194, 0
1235, 1352722175, -0.24592027, -0.50746524, 0.14372543, -0.81323004, 0.06491006, -0.5862657, -2.0695357, 0
1238, 1352772176, -0.23499139, -0.5180402, 0.13000865, -0.8121017, -1.031685, -0.7345633, -0.9128647, 0
1239, 1352788843, -0.23098512, -0.5198051, 0.12570801, -0.81280017, -0.95885706, -0.7804862, 0.14713001, 0
1241, 1352822177, -0.22425, -0.5246338, 0.12053307, -0.81236756, 0.4514247, -1.3982465, -0.22930431, 0
1242, 1352838844, -0.22339505, -0.52703, 0.12228135, -0.81078935, -0.60128385, -0.8389822, -0.83843994, 0
1244, 1352872178, -0.22225852, -0.5302103, 0.12588999, -0.80847263, -1.8399347, -1.3343939, -0.26084328, 0
1245, 1352888845, -0.221674, -0.530371, 0.12799652, -0.80819684, -1.0766237, -1.5408604, 0.021707535, 0
1246, 1352905512, -0.22200638, -0.5305957, 0.13098869, -0.8074783, 0.33210352, -1.8388035, -0.10046768, 0
1248, 1352938846, -0.22346018, -0.53363353, 0.13802603, -0.80389524, -0.564566, -1.1479292, -1.13906, 0
1249, 1352955513, -0.22402687, -0.53494334, 0.14126596, -0.80230254, -0.92973423, -1.4489099, -1.7976809, 0
1252, 1353005514, -0.22528219, -0.5352949, 0.1498973, -0.80014753, -0.23054674, -0.9732295, -1.6912422, 0
1253, 1353022181, -0.22593406, -0.53453296, 0.15189515, -0.80009645, -0.17696112, -1.0255811, -1.7028322, 0
1256, 1353072182, -0.23054047, -0.5275081, 0.16626914, -0.80058676, 0.30775738, -1.4345906, -2.3314624, 0
1257, 1353088849, -0.23394412, -0.5237663, 0.17244722, -0.8007492, 0.41868538, -1.3136094, -3.6760201, 0
1258, 1353105516, -0.23637487, -0.5201847, 0.17552342, -0.80170095, 0.02851581, -1.614304, -3.9011211, 0
1261, 1353155517, -0.23473631, -0.5100403, 0.15704902, -0.81246006, 1.4706321, -0.07410924, -1.666625, 0
1264, 1353205518, -0.23674208, -0.49287987, 0.1535476, -0.8230697, -3.1807733, 0.39486217, -3.474938, 0
1265, 1353222185, -0.23607664, -0.4870343, 0.1529455, -0.82684404, -3.9158366, 0.91283506, -2.5760274, 0
1266, 1353238852, -0.23540711, -0.48070785, 0.1524361, -0.83082163, -3.7091546, 1.1148622, -1.9801311, 0
1268, 1353272186, -0.23166835, -0.46902514, 0.14775908, -0.8393512, -2.9580555, 3.812941, 0.9552393, 0
1270, 1353305520, -0.22545068, -0.45736548, 0.14733729, -0.8475132, -6.8047953, 6.2458987, 3.630333, 0
1272, 1353338854, -0.21858081, -0.44488823, 0.14830214, -0.8557461, -9.778835, 5.6399856, 7.4880714, 0
1273, 1353355521, -0.21749409, -0.43793836, 0.1507661, -0.8591704, -10.334539, 3.9082634, 8.165718, 0
1277, 1353422189, -0.22419778, -0.41159222, 0.17005464, -0.8668371, -5.1752834, 3.4762414, 6.073411, 0
1280, 1353472190, -0.2339832, -0.3938748, 0.19528459, -0.8671658, 2.5021372, -1.1557801, 1.6512966, 0
1281, 1353488857, -0.23700848, -0.39124528, 0.19615081, -0.867339, 3.9212542, -1.508673, 1.5834742, 0
1283, 1353522191, -0.24175934, -0.38909817, 0.1916871, -0.86799145, 1.7213498, -0.5080667, 3.7464056, 0
1284, 1353538858, -0.24311465, -0.39021954, 0.18840146, -0.8678289, 1.5712095, -0.1003158, 2.1303492, 0
1285, 1353555525, -0.24364044, -0.3932424, 0.18364483, -0.8673364, 1.9794091, 0.60971737, 0.37279606, 0
1287, 1353588859, -0.24122441, -0.4020918, 0.17221645, -0.8662982, 1.8895969, 0.91384035, -1.0549889, 0
1289, 1353622193, -0.23504992, -0.41268256, 0.16096689, -0.8651778, 1.2165238, 0.37103474, -1.2736177, 0
1291, 1353655527, -0.22603123, -0.42525864, 0.14645356, -0.8640685, 0.9986912, -0.16311948, -1.669941, 0
1295, 1353722195, -0.21182406, -0.4524444, 0.1223024, -0.85759234, -0.22575043, -1.8922703, -2.0369768, 0
1296, 1353738862, -0.20968726, -0.45978168, 0.115806974, -0.8551134, -0.6123323, -1.1558932, -2.6078496, 0
1297, 1353755529, -0.20722882, -0.46724883, 0.10699983, -0.8528094, -0.7750257, -0.9931653, -2.3120322, 0
1299, 1353788863, -0.20062953, -0.48023197, 0.09289993, -0.8488186, -0.53508073, -0.5751822, -1.5158682, 0
1303, 1353855531, -0.18978028, -0.50214016, 0.083859794, -0.8395263, -0.24458401, -0.8468995, -1.63795, 0
1304, 1353872198, -0.18913463, -0.50619555, 0.08310357, -0.8373089, -0.50913584, -1.0928833, -1.5349617, 0
1307, 1353922199, -0.19267736, -0.5180748, 0.081788965, -0.8293266, -0.6116203, -1.0941706, -0.29860115, 0
1308, 1353938866, -0.19494422, -0.52271026, 0.081948265, -0.82586527, -0.7577173, -0.8890312, -0.30602455, 0
1311, 1353988867, -0.20494668, -0.53552186, 0.08804415, -0.81453013, -0.35667938, -0.6762164, -0.546566, 0
1312, 1354005534, -0.20853779, -0.5396899, 0.09087694, -0.81054676, -0.54650325, -0.29772785, -0.83325577, 0
1315, 1354055535, -0.21816303, -0.5513426, 0.100830086, -0.79891026, 0.12090517, -0.340179, -1.0495195, 0
1316, 1354072202, -0.22143044, -0.55504775, 0.10545688, -0.7948381, -0.24753724, -0.28221488, -1.1654873, 0
1318, 1354105536, -0.22657232, -0.5609972, 0.110579476, -0.78849065, 0.38951313, -0.61294496, -0.49309444, 0
1319, 1354122203, -0.22851564, -0.563726, 0.113898784, -0.7855053, 0.48971248, -0.34926167, -0.396142, 0
1320, 1354138870, -0.22969396, -0.56714815, 0.116966106, -0.7822408, 0.69528735, 0.18501817, -0.5146675, 0
1322, 1354172204, -0.22929916, -0.5735316, 0.119236715, -0.7773443, 0.73310983, 0.19175144, -0.22779179, 0
1323, 1354188871, -0.22918652, -0.5753895, 0.12190905, -0.77558804, 0.5013986, -0.6584165, 0.28452587, 0
1325, 1354222205, -0.22697255, -0.5786955, 0.12494713, -0.7732925, 0.904185, 0.539392, 0.073825836, 0
1327, 1354255539, -0.22397307, -0.5796517, 0.12418224, -0.773574, 0.6611845, -0.5475281, 0.21405888, 0
1329, 1354288873, -0.2234859, -0.57685435, 0.12661843, -0.77540886, 0.117217876, -0.5104213, -0.34973812, 0
1330, 1354305540, -0.22279957, -0.5743859, 0.12430043, -0.7778102, 0.8375347, 0.029111445, -0.5067091, 0
1331, 1354322207, -0.22226918, -0.57167184, 0.12238682, -0.78026086, 1.4640304, -1.1145521, -0.067866325, 0
1333, 1354355541, -0.22451575, -0.5659699, 0.12727734, -0.7829874, 0.43218485, -0.9799646, -0.84195423, 0
1334, 1354372208, -0.22543956, -0.56056684, 0.12798934, -0.7864851, 0.2823394, -0.43852505, -1.8598518, 0
1337, 1354422209, -0.22759819, -0.5417915, 0.12769552, -0.79897004, -1.1750176, 0.18880916, -2.631578, 0
1338, 1354438876, -0.22851463, -0.5336872, 0.12652609, -0.80433095, -1.4754698, -0.5395662, -2.6109438, 0
1345, 1354555545, -0.23727748, -0.46006894, 0.11534205, -0.8477796, -3.0056748, -0.55643207, -3.3756938, 0
1346, 1354572212, -0.23961592, -0.45005083, 0.12127763, -0.85166204, -4.2580495, 0.47386494, -3.0104723, 0
1347, 1354588879, -0.24071915, -0.4420777, 0.12456817, -0.85504514, -6.7433834, 2.5166156, -1.6065664, 0
1349, 1354622213, -0.23719859, -0.42773744, 0.12181949, -0.8636757, -8.758798, 5.9170814, 6.9720116, 0
1350, 1354638880, -0.2356154, -0.41934332, 0.124035686, -0.8678996, -8.936658, 5.7146034, 8.572248, 0
1351, 1354655547, -0.23505592, -0.41032287, 0.12925547, -0.8715933, -7.6934214, 5.2263517, 9.678062, 0
1353, 1354688881, -0.23955134, -0.39324692, 0.14606227, -0.87557733, -3.2496867, 5.1829085, 6.628086, 0
1358, 1354772216, -0.2322008, -0.38975173, 0.13857831, -0.88032395, -0.111475185, -0.33810413, 7.4434166, 0
1360, 1354805550, -0.22728464, -0.3958968, 0.12594908, -0.88076234, -1.5928866, -0.97836137, 2.6647472, 0
1361, 1354822217, -0.22660843, -0.39853284, 0.12361954, -0.8800776, -0.8175704, -1.2722846, 0.51236725, 0
1362, 1354838884, -0.22670059, -0.40159678, 0.12213374, -0.87886757, -0.2636252, -1.0802687, -0.38296223, 0
1369, 1354955553, -0.22589767, -0.43826926, 0.11838307, -0.8619012, 0.32590592, 0.66611296, -1.5185585, 0
1370, 1354972220, -0.22572955, -0.44476733, 0.1130603, -0.8593275, 0.41031185, 0.13968532, -1.1975622, 0
1372, 1355005554, -0.22520897, -0.45675883, 0.10602819, -0.8540541, 0.31419268, -0.2640794, -1.4017982, 0
1373, 1355022221, -0.22455597, -0.46199352, 0.10340324, -0.8517293, 0.30608633, -0.09916018, -1.6030645, 0
1374, 1355038888, -0.22372228, -0.46733984, 0.1002332, -0.84940755, 0.4528582, -0.44760284, -2.005014, 0
1376, 1355072222, -0.22324052, -0.47786757, 0.094024405, -0.84437174, 0.82438374, -0.68619376, -2.3243942, 0
1377, 1355088889, -0.22417174, -0.48288816, 0.093404464, -0.841332, 0.9491347, -0.82501745, -2.4072452, 0
1379, 1355122223, -0.22686408, -0.49396205, 0.093951, -0.83408964, 1.0011122, -2.014475, -2.7193456, 0
1380, 1355138890, -0.22853516, -0.5006505, 0.09482407, -0.8295343, 0.3896612, -1.8609, -2.929791, 0
1381, 1355155557, -0.22912848, -0.5085051, 0.093834765, -0.8246915, -0.16381899, -1.0778716, -2.9578762, 0
1384, 1355205558, -0.22869755, -0.53195316, 0.09061286, -0.81025344, 0.7784492, -0.9500197, -1.8155551, 0
1385, 1355222225, -0.23050591, -0.5377358, 0.09609954, -0.8052766, 0.27434382, -1.6686066, -1.107378, 0
1387, 1355255559, -0.23081864, -0.54828763, 0.102358535, -0.79726034, -0.66591066, 0.41589224, -0.012004852, 0
1388, 1355272226, -0.22735633, -0.5533658, 0.099841274, -0.795063, -0.07537787, 2.1188192, 0.31371593, 0
1389, 1355288893, -0.22428845, -0.5568875, 0.09907771, -0.7935696, 0.7957366, 1.3407632, 0.8158331, 0
1391, 1355322227, -0.22452748, -0.56101674, 0.111033954, -0.7889975, 0.011901031, -2.0225196, 0.44059753, 0
1392, 1355338894, -0.22474459, -0.5644279, 0.118672736, -0.7853825, -0.9291961, -2.676589, -0.27280712, 0
1393, 1355355561, -0.22479941, -0.56787705, 0.12394174, -0.78205955, -1.8734875, -2.439694, -0.6063986, 0
1395, 1355388895, -0.2210432, -0.5763491, 0.12456447, -0.7768161, -0.45572916, 0.41256738, -0.5214901, 0
1396, 1355405562, -0.22082566, -0.5797727, 0.12519445, -0.7742247, -0.30342555, 0.83815944, -0.6207552, 0
1399, 1355455563, -0.22492105, -0.58655375, 0.13334447, -0.76653934, -0.5905563, -0.03633639, -0.041521072, 0
1400, 1355472230, -0.22555898, -0.58836114, 0.13384122, -0.7648785, -0.12711386, 0.31766766, 0.2442398, 0
1401, 1355488897, -0.22576088, -0.5903158, 0.13402465, -0.76327896, 0.4661947, 0.3654315, 0.36095524, 0
1403, 1355522231, -0.22432137, -0.59533614, 0.13434954, -0.7597389, 0.10077232, 0.3693898, -0.09683132, 0
1404, 1355538898, -0.22365546, -0.59675545, 0.13465925, -0.7587663, -0.2056949, 0.05599022, 0.17794514, 0
1405, 1355555565, -0.22407843, -0.5966118, 0.13691393, -0.75835085, -0.09180641, -1.1067418, 0.88885593, 0
1407, 1355588899, -0.22809905, -0.59104645, 0.14294776, -0.760394, -0.6954661, 0.73646826, 0.688241, 0
1408, 1355605566, -0.23023486, -0.5866957, 0.13880688, -0.76387876, 1.1755103, -0.31994796, -0.53562164, 0
1410, 1355638900, -0.23019929, -0.5798333, 0.14061728, -0.7687823, 0.73727036, 0.17649992, -1.4011984, 0
1411, 1355655567, -0.23024216, -0.574379, 0.14235206, -0.77253544, 1.3703678, -0.8933908, -1.969636, 0
1414, 1355705568, -0.23146705, -0.5572872, 0.14446977, -0.7842068, 0.82195896, -0.48288265, -4.225603, 0
1415, 1355722235, -0.22869524, -0.55212224, 0.13718653, -0.7899604, -0.16282144, -0.11671645, -4.4218035, 0
1416, 1355738902, -0.22618882, -0.54473424, 0.13245621, -0.7965905, -0.62910527, -0.8714449, -3.4166856, 0
1418, 1355772236, -0.22904962, -0.5231232, 0.13414823, -0.8098647, -0.10605302, -1.8362154, -4.6630425, 0
1419, 1355788903, -0.23039442, -0.51295614, 0.12626415, -0.81722087, -0.039508518, -1.730899, -4.0207906, 0
1420, 1355805570, -0.22951701, -0.5046191, 0.11348194, -0.8245007, -0.066781245, -0.5071265, -3.2284899, 0
1423, 1355855571, -0.23259193, -0.4715117, 0.12515415, -0.8413753, -5.6732287, 0.69839895, -2.681674, 0
1424, 1355872238, -0.23424275, -0.4611796, 0.13163203, -0.84564465, -6.529942, 2.6705608, -1.0556641, 0
1426, 1355905572, -0.23084942, -0.44462392, 0.12847942, -0.8558676, -7.9816036, 5.6819005, 6.046793, 0
1427, 1355922239, -0.22784315, -0.4357191, 0.12755159, -0.86137396, -8.448256, 5.860213, 7.835058, 0
1428, 1355938906, -0.22583494, -0.4253913, 0.13278079, -0.86626095, -8.783054, 4.9035473, 8.418663, 0
1430, 1355972240, -0.23142627, -0.40355578, 0.16011198, -0.8706014, -6.255009, 3.8045545, 5.259573, 0
1431, 1355988907, -0.23480181, -0.39574698, 0.16819093, -0.87175816, 0.007777413, 2.8283486, 2.6366634, 0
1432, 1356005574, -0.23517542, -0.39039803, 0.17248142, -0.8732297, 4.459723, 1.653284, 4.095866, 0
1435, 1356055575, -0.23199975, -0.38062885, 0.16591847, -0.87964016, 1.2982159, -2.297421, 10.975477, 0
1438, 1356105576, -0.23171298, -0.3789334, 0.1613868, -0.8812894, 0.5609878, 0.8478426, 0.4263687, 0
1439, 1356122243, -0.2306393, -0.38127014, 0.16050683, -0.8807237, 0.014592015, 1.2475158, -0.7679949, 0
1441, 1356155577, -0.22707577, -0.3888211, 0.15877903, -0.8786593, 0.023467993, 1.3845258, 1.1684828, 0
1442, 1356172244, -0.22420268, -0.39389592, 0.15738548, -0.87738657, 0.08259955, 1.1751035, 0.7891865, 0
1445, 1356222245, -0.2175679, -0.41097125, 0.15229401, -0.87210745, 0.8717907, 0.0682337, -0.7344198, 0
1449, 1356288913, -0.21520425, -0.43915477, 0.12447703, -0.8633272, 0.1234576, -0.6231348, -1.0629272, 0
1450, 1356305580, -0.21289448, -0.44621637, 0.1167768, -0.8613527, 0.18490909, -0.5909312, -1.2791595, 0
1451, 1356322247, -0.2098822, -0.45328096, 0.10966153, -0.859336, 0.6475402, -0.41761556, -1.8435936, 0
1453, 1356355581, -0.20650609, -0.4675653, 0.10458863, -0.8531103, 0.6620577, -0.84560037, -2.3528943, 0
1454, 1356372248, -0.20567998, -0.4755011, 0.103089474, -0.8490967, 0.24831831, -0.14577743, -3.324038, 0
1460, 1356472250, -0.20492972, -0.5204478, 0.08731834, -0.82432497, -0.20640951, -0.89669895, -2.1500487, 0
1461, 1356488917, -0.2063023, -0.5277433, 0.08694548, -0.81936866, -0.23361567, -0.8122652, -2.545013, 0
1462, 1356505584, -0.207764, -0.5341606, 0.08752108, -0.81476676, -0.60969305, -1.1365974, -1.9874043, 0
1464, 1356538918, -0.20855087, -0.5459752, 0.08461737, -0.8070041, 0.17531028, -0.62265795, -0.9527292, 0
1468, 1356605586, -0.2123513, -0.56720334, 0.08977968, -0.7906485, -0.4131121, -0.31374598, -0.54402256, 0
1469, 1356622253, -0.21306495, -0.5715887, 0.09162677, -0.78707826, -0.40998903, -0.043535184, -0.31813526, 0
1470, 1356638920, -0.21268687, -0.57547987, 0.09164032, -0.7843387, -0.01798416, -0.42257717, 0.037096024, 0
1472, 1356672254, -0.21407269, -0.58226264, 0.095896125, -0.7784247, -0.48406866, -0.7303415, 0.0848465, 0
1473, 1356688921, -0.21501738, -0.5848299, 0.09810676, -0.7759604, -0.22445008, -0.83348036, 0.12539577, 0
1474, 1356705588, -0.21640955, -0.58718324, 0.100473925, -0.77348936, -0.055719376, -0.43841252, 0.029762268, 0
1476, 1356738922, -0.21826033, -0.59247625, 0.102114215, -0.76870346, 0.40163133, -0.105538905, -0.2850418, 0
1477, 1356755589, -0.21953441, -0.5953674, 0.1032791, -0.76594645, -0.0053562364, -0.20795757, 0.25426197, 0
1478, 1356772256, -0.22121398, -0.59816533, 0.10485281, -0.76306397, -0.2618424, -0.18432544, 0.11937523, 0
1480, 1356805590, -0.22438818, -0.6021069, 0.105957545, -0.75887305, 0.2754563, -0.061513335, 0.76797104, 0
1482, 1356838924, -0.22737761, -0.6061003, 0.10764616, -0.75455415, 0.23913403, 1.1497521, -0.008055687, 0
1484, 1356872258, -0.22910011, -0.6087342, 0.10844439, -0.7517936, 0.20272896, -0.7639277, 0.59438133, 0
1485, 1356888925, -0.23050664, -0.6093811, 0.11112235, -0.75044733, 0.024609786, -0.6289296, 0.053741455, 0
1486, 1356905592, -0.23199716, -0.6092138, 0.114085056, -0.74967885, 0.65451914, -0.388971, -0.34751987, 0
1488, 1356938926, -0.23572254, -0.6072489, 0.122184366, -0.74883413, 0.3756054, -0.38094184, -1.1348553, 0
1489, 1356955593, -0.23644932, -0.6061317, 0.12458017, -0.7491153, 0.567546, -0.0014862494, -1.5100498, 0
1491, 1356988927, -0.23615447, -0.6014407, 0.12798873, -0.7524076, 1.0203899, -0.50113964, -0.9486637, 0
1495, 1357055595, -0.24143498, -0.5800271, 0.1427693, -0.7647829, 1.2001365, 0.23448102, -2.6775002, 0
1499, 1357122263, -0.23869297, -0.547759, 0.13439037, -0.7905207, -0.085388824, -1.1198082, -4.404723, 0
1500, 1357138930, -0.23764922, -0.5372664, 0.12916608, -0.7988629, -0.6878439, -1.7907951, -3.9902658, 0
1503, 1357188931, -0.24460517, -0.4984901, 0.13397458, -0.8208074, -1.3747264, -2.1074755, -3.938901, 0
1504, 1357205598, -0.2463216, -0.485741, 0.13498084, -0.8277439, -1.346447, -0.47903475, -2.2723556, 0
1507, 1357255599, -0.2448378, -0.45123848, 0.14855012, -0.8452037, -7.6715984, 4.279378, 2.8398132, 0
1508, 1357272266, -0.24304534, -0.43991196, 0.15143494, -0.85115916, -8.713095, 6.1879506, 6.2993526, 0
1509, 1357288933, -0.24096064, -0.42864746, 0.1535816, -0.85709405, -9.277313, 5.4316993, 7.080942, 0
1514, 1357372268, -0.24215022, -0.37817493, 0.20011231, -0.8708043, 4.293227, 1.0792469, 3.6526232, 0
1515, 1357388935, -0.24020445, -0.37530556, 0.19784303, -0.87310016, 6.712754, 0.7280911, 5.515258, 0
1516, 1357405602, -0.237506, -0.37330732, 0.18948044, -0.8765432, 3.9357417, 0.85183126, 11.871267, 0
1518, 1357438936, -0.2335539, -0.37046632, 0.17648731, -0.8815087, 0.6396903, -2.8103793, 8.129988, 0
1519, 1357455603, -0.23073086, -0.37184727, 0.169533, -0.88303417, 1.3476094, -1.455315, 3.4498367, 0
1520, 1357472270, -0.22628354, -0.37424418, 0.16266155, -0.8844639, 2.2605429, 0.13012438, 0.14432144, 0
1522, 1357505604, -0.21841784, -0.38297194, 0.15095003, -0.88478154, -0.26050448, 1.0878644, -0.9611349, 0
1524, 1357538938, -0.21084353, -0.39471602, 0.13949238, -0.88333696, -0.39046472, 0.5877379, -0.54311943, 0
1526, 1357572272, -0.20587564, -0.40581906, 0.13640414, -0.87995344, 0.41953614, -1.0665573, -1.5179243, 0
1527, 1357588939, -0.2046294, -0.41205996, 0.13489656, -0.8775731, 0.41800475, -1.6015836, -2.4452667, 0
1530, 1357638940, -0.20525467, -0.43599424, 0.12029941, -0.86793184, 0.43555474, -1.0865511, -2.7175622, 0
1532, 1357672274, -0.20675164, -0.45350897, 0.10558954, -0.86048365, 0.94572085, 0.18017307, -3.2851834, 0
1535, 1357722275, -0.20725837, -0.477049, 0.089433365, -0.8493927, 1.5948236, -0.37986118, -3.0689335, 0
1536, 1357738942, -0.20574558, -0.48602912, 0.08114427, -0.8454928, 1.3936361, -0.07531068, -2.0837526, 0
1539, 1357788943, -0.20311736, -0.51308334, 0.06951562, -0.83105624, 0.3904953, -0.09644467, -1.6361017, 0
1540, 1357805610, -0.20247893, -0.5212596, 0.06887857, -0.8261625, 0.17190161, -0.41388547, -2.1829176, 0
1542, 1357838944, -0.20091821, -0.5338847, 0.06829634, -0.81849414, 0.13692784, -1.9025935, -0.49177647, 0
1543, 1357855611, -0.19931716, -0.5402275, 0.06651084, -0.8148627, -0.33144355, -1.204655, -0.54517555, 0
1546, 1357905612, -0.19704138, -0.55839485, 0.06265605, -0.8033942, -0.15747009, -0.8861296, -0.896369, 0
1549, 1357955613, -0.19749103, -0.57141936, 0.06954611, -0.7934976, -0.5075559, -1.0887712, 0.051628113, 0
1550, 1357972280, -0.19793606, -0.57528734, 0.07280183, -0.7902934, -0.93208283, -0.64474684, 0.023566246, 0
1553, 1358022281, -0.19911164, -0.5866905, 0.077531, -0.7811121, -0.52317375, -0.4859794, 0.046447754, 0
1555, 1358055615, -0.19957632, -0.59422123, 0.07834317, -0.7751973, -0.8221791, 0.09733084, -0.23313522, 0
1557, 1358088949, -0.20018578, -0.600336, 0.07732885, -0.77041584, -0.3384514, -0.6095044, 0.13236046, 0
1559, 1358122283, -0.20260087, -0.6054967, 0.08135631, -0.7653141, -0.33612397, -0.83888364, 0.24730682, 0
1561, 1358155617, -0.20480853, -0.61213547, 0.08175457, -0.7593799, 0.17945808, -0.12693244, 0.42775345, 0
1562, 1358172284, -0.20687574, -0.6153612, 0.08365801, -0.75599766, -0.38660184, 0.2272454, 0.049826622, 0
1563, 1358188951, -0.20781893, -0.6183317, 0.08361123, -0.75331575, 0.103928596, 0.5858116, -0.3563385, 0
1565, 1358222285, -0.21115428, -0.6229869, 0.08817332, -0.7480139, -0.06645449, -0.9034752, -0.22458076, 0
1566, 1358238952, -0.21351086, -0.625041, 0.09195218, -0.74517107, -0.18647578, -0.4150034, -0.6589403, 0
1567, 1358255619, -0.21542361, -0.6261343, 0.09397036, -0.74344873, 0.66913915, -0.22048755, -0.73740196, 0
1570, 1358305620, -0.22545317, -0.6239812, 0.10830855, -0.7403281, 0.35527825, -0.25536144, -0.06464386, 0
1572, 1358338954, -0.23083483, -0.62062323, 0.11631027, -0.74027836, 1.7166221, -0.034832034, -0.6045847, 0
1573, 1358355621, -0.2338022, -0.6185065, 0.12030369, -0.7404805, 1.3659987, -1.2426863, -1.0012789, 0
1576, 1358405622, -0.24047887, -0.60834175, 0.13112658, -0.7449123, 1.7557284, -0.6003229, -0.72747993, 0
1577, 1358422289, -0.24226107, -0.6042685, 0.13498525, -0.7469579, 1.4755052, -0.85317326, -0.95425415, 0
1578, 1358438956, -0.24387889, -0.59974444, 0.13847987, -0.7494339, 1.6034294, -0.77167475, -1.5385551, 0
1580, 1358472290, -0.24656786, -0.58824307, 0.14387667, -0.7566188, 0.9148391, -0.46864793, -2.818016, 0
1581, 1358488957, -0.24641296, -0.58019346, 0.14355841, -0.76291895, 0.21819863, -0.9265786, -3.1361203, 0
1582, 1358505624, -0.2460243, -0.5705747, 0.14262544, -0.77043664, -0.061964635, -1.2625914, -3.3035245, 0
1584, 1358538958, -0.24491066, -0.547691, 0.13842084, -0.7879666, -0.98092854, -0.9856191, -4.2924685, 0
1585, 1358555625, -0.2464839, -0.5345504, 0.1383915, -0.7964593, -2.430297, -1.18598, -5.235382, 0
1588, 1358605626, -0.24912398, -0.49661466, 0.12221909, -0.8224181, -2.5537512, 1.8924298, -0.7417202, 0
1589, 1358622293, -0.2515229, -0.48217946, 0.13203052, -0.8287371, -6.8703065, 0.2922479, -0.07039642, 0
1592, 1358672294, -0.25658497, -0.4431974, 0.14727743, -0.84619594, -7.702815, 6.275978, 6.421829, 0
1595, 1358722295, -0.26007023, -0.40234846, 0.1721791, -0.8607158, -7.2104015, 5.655479, 6.8301487, 0
1596, 1358738962, -0.2611921, -0.38984868, 0.19169587, -0.8620022, -3.8683794, 6.2218, 4.352542, 0
1597, 1358755629, -0.26135004, -0.38121372, 0.20478426, -0.8628058, 2.776471, 3.7072756, 2.3455248, 0
1601, 1358822297, -0.25006023, -0.37052977, 0.18885179, -0.874363, -0.27097046, -2.361109, 12.377098, 0
1603, 1358855631, -0.2439814, -0.36674425, 0.18066405, -0.8793919, 2.2525826, -1.7520635, 1.3502007, 0
1604, 1358872298, -0.23958166, -0.3668489, 0.17662926, -0.8813754, 2.0607104, 0.02123468, -0.46720982, 0
1605, 1358888965, -0.23486866, -0.3689599, 0.17201881, -0.8826738, 0.076364905, 0.8016123, -0.75335884, 0
1607, 1358922299, -0.22495855, -0.37714157, 0.16210666, -0.88367265, -1.0142052, 1.1464483, -0.012414932, 0
1609, 1358955633, -0.21772148, -0.38741884, 0.15574853, -0.88218164, 0.44180295, 0.4372965, -1.3784676, 0
1611, 1358988967, -0.21473847, -0.39921853, 0.15048228, -0.8785585, 0.7110475, -0.9155598, -1.364707, 0
1612, 1359005634, -0.21405898, -0.40662047, 0.1464838, -0.8760018, 0.71173835, -1.4694277, -1.4398441, 0
1615, 1359055635, -0.21444607, -0.43382484, 0.13137025, -0.8651873, 1.0767994, 0.36603343, -2.805891, 0
1619, 1359122303, -0.21699792, -0.4682266, 0.121254146, -0.8479218, 0.40063277, -0.47700256, -1.950213, 0
1621, 1359155637, -0.21440776, -0.48642877, 0.10254853, -0.8407724, 0.02012512, 0.0127013475, -2.0680737, 0
1623, 1359188971, -0.21215044, -0.50322014, 0.0968444, -0.8320942, 0.71337306, -0.19407764, -1.4724512, 0
1624, 1359205638, -0.21150215, -0.5111482, 0.097834356, -0.8272974, 0.3108161, -0.2938627, -1.8695722, 0
1626, 1359238972, -0.20791739, -0.5257071, 0.096538335, -0.8191954, -0.2107489, -0.4569483, -1.1011114, 0
1627, 1359255639, -0.20564346, -0.5321499, 0.09440913, -0.81585056, 0.320185, -0.38356733, -0.74623394, 0
1630, 1359305640, -0.20175678, -0.5506921, 0.091742694, -0.80474466, 0.18960328, -1.5669181, -0.27211094, 0
1631, 1359322307, -0.20144548, -0.5565536, 0.09268635, -0.80067176, -0.23747195, -0.67132205, -1.457612, 0
1632, 1359338974, -0.19946837, -0.56234175, 0.09033073, -0.79738474, -0.18865302, 0.026257018, -1.4750147, 0
1634, 1359372308, -0.19841686, -0.5708639, 0.08791815, -0.7918419, 0.20853722, -2.9407926, 0.44495964, 0
1635, 1359388975, -0.19842134, -0.5742738, 0.09164999, -0.7889467, -0.16174869, -2.725049, 1.0898485, 0
1636, 1359405642, -0.19825938, -0.5775401, 0.095442675, -0.78614855, -0.21853109, -0.98903924, 0.93421364, 0
1638, 1359438976, -0.19980434, -0.5845878, 0.09961897, -0.7800061, -0.447997, 1.4023492, -0.55253124, 0
1639, 1359455643, -0.20115075, -0.588558, 0.093000375, -0.77748746, 0.81309396, 0.22480045, -0.4519434, 0
1640, 1359472310, -0.20222422, -0.59199345, 0.088156484, -0.7751616, 0.5917954, 0.719582, -1.1334181, 0
1642, 1359505644, -0.20801464, -0.5986165, 0.092359506, -0.7680209, -0.87804437, -2.468047, -0.35867214, 0
1644, 1359538978, -0.21311957, -0.60439306, 0.09591119, -0.7616351, -0.38570738, -0.86291575, 0.0052452087, 0
1646, 1359572312, -0.2155092, -0.611328, 0.093004145, -0.7557659, 0.5391317, 2.0847092, -0.94583416, 0
1647, 1359588979, -0.21528953, -0.6142261, 0.09099296, -0.7537209, 0.60386944, 2.4764585, -0.7866163, 0
1649, 1359622313, -0.21352994, -0.61804897, 0.089931704, -0.75121945, 0.42265415, -0.10837272, 0.51970005, 0
1650, 1359638980, -0.21338198, -0.61918664, 0.09258679, -0.750001, -0.09299694, -0.8097379, 0.5572119, 0
1651, 1359655647, -0.2126333, -0.6200773, 0.09346669, -0.7493685, 0.15420792, -0.68562084, 0.8905754, 0
1653, 1359688981, -0.21222953, -0.62175953, 0.09519564, -0.74786997, 0.3707172, -0.42646754, 0.23927498, 0
1654, 1359705648, -0.21275479, -0.6221557, 0.09559442, -0.7473402, 0.3663932, 0.36973065, -0.35455704, 0
1655, 1359722315, -0.21327975, -0.6216637, 0.09489354, -0.7476892, 0.82688427, -0.30403966, -0.28049755, 0
1657, 1359755649, -0.21778986, -0.6187318, 0.10130016, -0.74798065, 0.46883473, -1.6203526, 0.27877522, 0
1659, 1359788983, -0.2226125, -0.6144449, 0.10867718, -0.7490583, 0.908622, 0.34291267, -0.93708324, 0
1661, 1359822317, -0.22614093, -0.6095014, 0.112122394, -0.7515284, 1.5438118, -0.07824674, -1.4298077, 0
1663, 1359855651, -0.23212016, -0.6000054, 0.12297062, -0.75563884, 0.92226744, -1.0968099, -2.327805, 0
1665, 1359888985, -0.23570126, -0.58859956, 0.12927142, -0.7624188, 2.1529205, -0.9255905, -2.5400524, 0
1666, 1359905652, -0.2355305, -0.5840586, 0.12910232, -0.7659841, 1.4519964, 1.307099, -3.1346984, 0
1667, 1359922319, -0.23443326, -0.5779245, 0.12585299, -0.77149427, 1.0193671, 0.19026591, -3.2647748, 0
1671, 1359988987, -0.23173743, -0.53956324, 0.11205279, -0.8016306, -1.5161519, -0.7189136, -5.540602, 0
1674, 1360038988, -0.23699415, -0.5026457, 0.1147305, -0.82341737, -2.3965516, -1.3714551, -2.400959, 0
1675, 1360055655, -0.23527618, -0.49164447, 0.11113666, -0.8310101, -3.3174834, 2.4701924, 2.3866062, 0
1680, 1360138990, -0.23947388, -0.43011037, 0.13836984, -0.8593656, -7.8329196, 6.561192, 8.913937, 0
1682, 1360172324, -0.24746075, -0.40440583, 0.16470315, -0.864922, -2.9399905, 2.4380498, 3.887992, 0
1684, 1360205658, -0.2484804, -0.38659507, 0.18686646, -0.86826307, 6.4453063, -0.8764641, 3.2241182, 0
1685, 1360222325, -0.2473546, -0.3820557, 0.18477735, -0.8710366, 8.131565, -2.3001418, 5.6750946, 0
1686, 1360238992, -0.2461971, -0.37938502, 0.17707658, -0.8741258, 3.7116294, -1.2183467, 10.7507515, 0
1688, 1360272326, -0.24449, -0.37344864, 0.16817048, -0.87890697, 0.46971628, -1.3681566, 5.7475233, 0
1689, 1360288993, -0.24322599, -0.37227508, 0.16512406, -0.88033205, 1.0098876, -1.4503827, 0.5788555, 0
1692, 1360338994, -0.236406, -0.3788658, 0.15417385, -0.88136345, 0.42939156, 1.4248106, -1.6518612, 0
1693, 1360355661, -0.23248434, -0.38449612, 0.14817959, -0.88099647, 0.23350435, 2.1254635, -0.936924, 0
1694, 1360372328, -0.22815011, -0.390608, 0.14375027, -0.8801743, 0.48087683, 1.9443222, -0.5885334, 0
1697, 1360422329, -0.21981522, -0.4096778, 0.13899279, -0.8743709, 0.90189064, -1.3621428, -2.349771, 0
1700, 1360472330, -0.21458496, -0.4336049, 0.121119514, -0.86675745, 0.79505503, -0.7081235, -2.3372655, 0
1702, 1360505664, -0.2090561, -0.45170382, 0.10351272, -0.8611287, 0.7239397, -0.08399354, -1.7818785, 0
1704, 1360538998, -0.20205912, -0.46768472, 0.09087465, -0.85567683, 1.1470633, -0.23568827, -2.157732, 0
1705, 1360555665, -0.19740964, -0.47515252, 0.083464265, -0.8533998, 1.0098566, -0.03256835, -1.532444, 0
1711, 1360655667, -0.18072382, -0.52152336, 0.07314143, -0.8306629, -0.5481869, -1.4302399, -1.3070917, 0
1712, 1360672334, -0.17948566, -0.52882624, 0.0736521, -0.82625747, -0.32586268, -0.64273745, -0.9183035, 0
1716, 1360739002, -0.18375595, -0.5526211, 0.09187214, -0.80771345, -0.17069048, -1.2063469, -0.6532812, 0
1719, 1360789003, -0.1916958, -0.567228, 0.10747291, -0.7936957, 0.14748675, -1.1628217, -0.5016794, 0
1720, 1360805670, -0.19455564, -0.57096934, 0.10970684, -0.7900029, 0.7638595, -0.70488554, 0.30283165, 0
1723, 1360855671, -0.20103692, -0.58142734, 0.11253026, -0.78029585, 1.1265337, 0.41628736, -0.5817337, 0
1724, 1360872338, -0.20220304, -0.5844051, 0.11243273, -0.7777799, 1.1962095, 0.16260982, -0.41017914, 0
1727, 1360922339, -0.20252487, -0.5929067, 0.11120546, -0.77141213, 0.35736507, -0.5283094, 0.04769993, 0
1728, 1360939006, -0.20193237, -0.59567606, 0.11038279, -0.76954997, 0.66016984, -0.5838789, 0.05030155, 0
1729, 1360955673, -0.2012554, -0.5985058, 0.10987556, -0.7676019, 0.75757104, -1.1254506, 0.61743546, 0
1731, 1360989007, -0.202655, -0.60507494, 0.112407446, -0.761694, -0.10937289, 0.32008195, 0.42334652, 0
1732, 1361005674, -0.20218024, -0.60890704, 0.111193664, -0.7589396, 0.43358582, 1.7359086, -0.60500336, 0
1734, 1361039008, -0.20170979, -0.6143053, 0.1067684, -0.7553416, 0.6874369, -0.98551995, 0.33698368, 0
1735, 1361055675, -0.20370275, -0.61705536, 0.10886248, -0.75225997, -0.2821962, -1.6302363, 0.992259, 0
1736, 1361072342, -0.2057507, -0.61927396, 0.112072885, -0.74940246, -0.63332164, -0.8177961, 1.4103031, 0
1739, 1361122343, -0.21301794, -0.6225446, 0.115149856, -0.74417776, 0.92973834, -0.50284696, -0.36516666, 0
1740, 1361139010, -0.2159982, -0.62420934, 0.11688281, -0.7416494, 0.3483383, -0.19102435, -0.8739948, 0
1742, 1361172344, -0.22165662, -0.6244611, 0.11777506, -0.7396239, 0.5536158, -0.40394995, -0.35992622, 0
1743, 1361189011, -0.22551924, -0.6229592, 0.11997961, -0.7393685, 0.8874089, -1.1293353, -0.0055217743, 0
1744, 1361205678, -0.22901, -0.6212844, 0.12294294, -0.739218, 1.2513732, -0.95304877, -0.28671646, 0
1746, 1361239012, -0.23435055, -0.6178241, 0.12811598, -0.7395658, 0.50179577, 0.23722793, -1.3446627, 0
1747, 1361255679, -0.23571002, -0.6154595, 0.1272875, -0.74124676, 1.3616847, 0.629038, -1.7967796, 0
1748, 1361272346, -0.23760664, -0.6119313, 0.12691173, -0.7436226, 1.9199371, -0.7922086, -1.2130051, 0
1750, 1361305680, -0.24671334, -0.6009231, 0.13718009, -0.7477992, 0.82322365, -2.082601, -1.2357159, 0
1751, 1361322347, -0.250547, -0.594827, 0.14066795, -0.7507447, 1.0255549, -0.95607334, -1.7756481, 0
1754, 1361372348, -0.24911381, -0.57569057, 0.13411428, -0.7671598, 1.0214573, -0.25029433, -2.5018077, 0
1755, 1361389015, -0.24515714, -0.56554615, 0.13194287, -0.776302, 0.17059356, -1.7639841, -1.0890598, 0
1756, 1361405682, -0.25085706, -0.5534843, 0.13594407, -0.7824597, -0.12790489, -2.0633857, -3.3303146, 0
1758, 1361439016, -0.24746582, -0.5298656, 0.12236711, -0.8018899, -1.8439645, -0.63295496, -4.3550596, 0
1759, 1361455683, -0.24480744, -0.51670796, 0.113784544, -0.8124859, -2.5800622, -0.8625868, -4.6147895, 0
1761, 1361489017, -0.24953865, -0.48308805, 0.12000733, -0.8306339, -3.3816402, -1.5486362, -2.2498326, 0
1762, 1361505684, -0.25329542, -0.46853414, 0.12307695, -0.8373572, -6.129904, -0.4827976, 0.2837639, 0
1763, 1361522351, -0.2557642, -0.45660996, 0.1259861, -0.84274405, -8.014752, 0.18185684, 0.64159775, 0
1766, 1361572352, -0.25814587, -0.4232014, 0.13047124, -0.85862476, -7.4859524, 7.38941, 7.6532536, 0
1767, 1361589019, -0.26234454, -0.40943703, 0.14351377, -0.86193883, -6.2616677, 6.2285886, 6.428179, 0
1771, 1361655687, -0.25787768, -0.37611237, 0.19312574, -0.86875725, 8.053775, 0.4751164, 4.1541758, 0
1774, 1361705688, -0.24408379, -0.37418026, 0.17320423, -0.87773037, -0.09205269, -2.9801903, 10.192486, 0
1775, 1361722355, -0.24000259, -0.37361655, 0.16889566, -0.8799329, 0.14126343, -2.5323343, 5.383525, 0
1777, 1361755689, -0.2342314, -0.37490344, 0.16312633, -0.88202673, 1.1552104, -0.4255953, -0.913126, 0
1778, 1361772356, -0.2316698, -0.37778747, 0.15961973, -0.8821141, 0.6742839, 0.3699336, -1.8078308, 0
1779, 1361789023, -0.2295906, -0.38167843, 0.15547426, -0.8817231, -0.27424708, 0.27806145, -1.4894762, 0
1781, 1361822357, -0.22745366, -0.39006984, 0.15181087, -0.87923944, 0.25917107, 0.08802119, -2.0190153, 0
1782, 1361839024, -0.2267712, -0.39540395, 0.1502424, -0.87730026, 0.67929906, -0.011009363, -2.6026568, 0
1784, 1361872358, -0.22267556, -0.40862873, 0.13678917, -0.87448555, 1.1521701, 0.3588458, -2.2904015, 0
1785, 1361889025, -0.21798564, -0.41659093, 0.124584734, -0.873734, 1.1219445, 0.34875286, -2.7655702, 0
1786, 1361905692, -0.21211591, -0.4250901, 0.110294655, -0.87300533, 1.6342432, -0.06290839, -2.5781226, 0
1788, 1361939026, -0.1992485, -0.4413955, 0.08769816, -0.8705041, 2.167501, -0.11352726, -2.4368858, 0
1789, 1361955693, -0.19178604, -0.4490064, 0.07926745, -0.86909497, 1.8323271, 0.053231064, -3.18544, 0
1790, 1361972360, -0.18401864, -0.45547706, 0.07200883, -0.8680384, 2.0671196, -0.7289351, -2.6709118, 0
1793, 1362022361, -0.16261733, -0.47607097, 0.059039928, -0.8622205, 0.7213106, -2.5188708, -2.4075499, 0
1794, 1362039028, -0.15808627, -0.48392645, 0.057247777, -0.8588042, 0.0373673, -2.224864, -1.5481386, 0
1796, 1362072362, -0.15204494, -0.50072026, 0.053685717, -0.8504572, -0.20672163, -2.3394036, -1.2311172, 0
1797, 1362089029, -0.15087192, -0.50835323, 0.052806318, -0.84618205, 0.11754492, -2.2708473, -0.37595654, 0
1798, 1362105696, -0.15143214, -0.51613855, 0.05300288, -0.8413429, 0.11228303, -1.8039278, -0.5847521, 0
1801, 1362155697, -0.16089095, -0.53721076, 0.059403118, -0.8258256, 0.3770305, -0.7173035, -0.7098236, 0
1802, 1362172364, -0.164332, -0.5433947, 0.060969923, -0.8209737, 0.037203062, -0.38928178, -0.54442024, 0
1804, 1362205698, -0.168901, -0.55570173, 0.064322636, -0.81149787, 0.088966444, 0.26547566, 0.14898872, 0
1805, 1362222365, -0.16983269, -0.5622395, 0.066476345, -0.80661184, 0.093776986, 0.28302243, -0.24911976, 0
1806, 1362239032, -0.17069429, -0.56851095, 0.06979424, -0.80173904, -0.085325815, -0.051808793, -0.3120737, 0
1808, 1362272366, -0.17299527, -0.5794476, 0.07797109, -0.7926107, -0.881397, -0.33493963, -0.2874508, 0
1809, 1362289033, -0.17386238, -0.58320075, 0.08073407, -0.78938514, -0.44863963, -0.18476675, -0.28664494, 0
1813, 1362355701, -0.17711072, -0.5938602, 0.08539455, -0.7801716, 0.55001307, 0.13049011, 0.31571007, 0
1819, 1362455703, -0.17368543, -0.613921, 0.08092561, -0.7657567, -0.030907316, -0.46541846, 0.43346024, 0
1820, 1362472370, -0.17485695, -0.61721385, 0.08214728, -0.762707, -0.14804812, -0.20786996, 0.3697958, 0
1823, 1362522371, -0.18133381, -0.6237144, 0.08527714, -0.75552917, -0.4233761, -0.11836553, 0.2275753, 0
1824, 1362539038, -0.1838506, -0.6242142, 0.08648878, -0.75436956, 0.055828355, 0.28962183, -0.11876106, 0
1825, 1362555705, -0.18660024, -0.6238799, 0.08785518, -0.75381297, 0.17755197, 0.34882286, -0.10040665, 0
1827, 1362589039, -0.19150709, -0.62190926, 0.08931644, -0.7540387, 0.7931203, 0.080136545, -0.030236244, 0
1828, 1362605706, -0.19409403, -0.6206692, 0.09046161, -0.75426245, 0.6245089, -0.20392048, -0.36539936, 0
1829, 1362622373, -0.19570799, -0.61942905, 0.0905145, -0.75485826, 0.89197326, -0.050119985, -0.15230274, 0
1831, 1362655707, -0.19968633, -0.6163658, 0.091705814, -0.756179, 0.93161476, -0.9538106, 0.35813808, 0
1832, 1362672374, -0.2018292, -0.6154524, 0.09344091, -0.75614166, 0.63344, -0.610474, 0.38959026, 0
1833, 1362689041, -0.20374982, -0.6144652, 0.09466456, -0.75627714, 0.9643698, -0.37510088, 0.43633556, 0
1835, 1362722375, -0.20819627, -0.61214733, 0.09746419, -0.75659025, 1.383416, -0.48600808, 0.2559929, 0
1837, 1362755709, -0.21468355, -0.6087749, 0.102785364, -0.75679404, 1.1176548, -0.608265, -0.57217216, 0
1839, 1362789043, -0.22278228, -0.6026537, 0.10928221, -0.7584406, 1.5139952, -0.2655002, -1.2507458, 0
1840, 1362805710, -0.22639403, -0.5997395, 0.11210334, -0.7592689, 1.5106281, 0.047236558, -2.0813203, 0
1842, 1362839044, -0.23335633, -0.5923785, 0.115084566, -0.7624869, 1.525591, -0.64270735, -2.5995078, 0
1843, 1362855711, -0.23783, -0.5870623, 0.118006155, -0.76476604, 1.247931, -0.9719244, -2.5403023, 0
1844, 1362872378, -0.2405331, -0.5812655, 0.119133465, -0.7681663, 0.80101377, -0.6397427, -3.1790276, 0
1846, 1362905712, -0.24078423, -0.5667751, 0.11582042, -0.7793411, 0.65251523, -1.3173015, -3.0937457, 0
1847, 1362922379, -0.23984057, -0.55757076, 0.113602616, -0.7865646, -0.6157114, -1.3923004, -3.6912913, 0
1848, 1362939046, -0.23802783, -0.54551846, 0.10890446, -0.7961722, -1.140032, -0.8765453, -4.1008587, 0
1851, 1362989047, -0.2440505, -0.49825025, 0.105881974, -0.8252109, -3.939853, -0.6709225, -5.1308203, 0
1855, 1363055715, -0.25445247, -0.4424269, 0.10814992, -0.85312027, -7.0768113, 7.757333, 8.507082, 0
1856, 1363072382, -0.25517878, -0.4282115, 0.11334737, -0.8594587, -7.962117, 6.622196, 9.391115, 0
1863, 1363189051, -0.2614083, -0.35222286, 0.17335916, -0.8817877, 4.328711, -2.660645, 8.147921, 0
1867, 1363255719, -0.2565621, -0.35123917, 0.15888655, -0.8863184, 0.94326895, 0.81294477, -0.46536064, 0
1869, 1363289053, -0.2509221, -0.3587051, 0.15098064, -0.88632476, 1.3471293, 1.5396535, -0.40052605, 0
1870, 1363305720, -0.24657878, -0.36450538, 0.14536351, -0.8861164, 0.97520244, 1.629337, 0.03503132, 0
1871, 1363322387, -0.24104819, -0.37050334, 0.14059976, -0.8859191, 0.63958406, 1.456579, 0.2522049, 0
1873, 1363355721, -0.22998124, -0.3828865, 0.13387561, -0.8846366, 1.0185091, 0.23969401, -1.2293396, 0
1878, 1363439056, -0.21765111, -0.42244378, 0.10673306, -0.87337, 0.51690644, -1.3883551, -2.265356, 0
1879, 1363455723, -0.21639687, -0.43222377, 0.098137416, -0.86989766, 0.63434976, -0.80707175, -2.0732622, 0
1883, 1363522391, -0.2092323, -0.4699597, 0.0760051, -0.8541551, 0.25321108, -0.5595733, -2.2789574, 0
1885, 1363555725, -0.20620489, -0.48732716, 0.07286762, -0.84538776, 1.3565015, -1.0426636, -2.0860972, 0
1886, 1363572392, -0.2060662, -0.49695298, 0.07430166, -0.83967364, 0.33418444, -1.8555151, -1.3386002, 0
1887, 1363589059, -0.20627405, -0.50713015, 0.07550028, -0.8334074, 0.25703382, -1.9508036, -0.79735565, 0
1890, 1363639060, -0.20450771, -0.53796935, 0.076088816, -0.81423223, 0.478229, -0.32451388, -2.2227912, 0
1891, 1363655727, -0.20613472, -0.5454798, 0.080919765, -0.8083379, 0.8337299, -1.2928691, -1.0512886, 0
1893, 1363689061, -0.2121923, -0.55804193, 0.09826948, -0.7961813, -0.89617485, -2.1168084, -0.021903038, 0
1896, 1363739062, -0.21928425, -0.57113564, 0.11423439, -0.7827305, 0.6108154, -0.376649, 0.16852283, 0
1897, 1363755729, -0.2197012, -0.57624185, 0.11694801, -0.77845865, 1.0533842, 0.4966852, -0.21741295, 0
1900, 1363805730, -0.21788138, -0.5894631, 0.12046998, -0.76846975, 1.0913467, 0.14382008, 1.0161924, 0
1902, 1363839064, -0.2122438, -0.59763914, 0.117685005, -0.76415193, 1.2646974, 0.13635139, 0.263196, 0
1905, 1363889065, -0.20277037, -0.61412585, 0.109795325, -0.7547694, 0.13822955, -1.4140811, 0.20958519, 0
1906, 1363905732, -0.2020643, -0.61856526, 0.10936956, -0.7513878, 0.15869275, -1.9856169, 0.45867348, 0
1908, 1363939066, -0.2027777, -0.6292349, 0.11206346, -0.74187905, -1.4517725, -0.41497582, 0.29189777, 0
1909, 1363955733, -0.20162462, -0.63411254, 0.11059608, -0.7382515, -1.0277532, 1.7400407, -0.19484138, 0
1910, 1363972400, -0.20073457, -0.6376027, 0.10821029, -0.73583764, -0.4910194, 1.902034, 0.09243488, 0
1912, 1364005734, -0.20265996, -0.6415342, 0.10727936, -0.73201907, -0.36826107, 0.8400705, -0.17719936, 0
1913, 1364022401, -0.20319055, -0.64241, 0.106269926, -0.73125076, -0.07261637, -0.060800217, 0.32516193, 0
1914, 1364039068, -0.20452571, -0.64281744, 0.10650885, -0.7304854, -0.20198569, -0.1901733, 0.32017612, 0
1917, 1364089069, -0.20726493, -0.639953, 0.10593594, -0.7323094, 0.56069833, -0.27491546, 0.05790329, 0
1919, 1364122403, -0.20737647, -0.63862485, 0.104777925, -0.73360276, 0.68495554, -0.15533838, -0.4833269, 0
1920, 1364139070, -0.2068695, -0.6380918, 0.104075566, -0.7343093, 0.90353847, -0.69936323, -0.32797813, 0
1921, 1364155737, -0.20756973, -0.6369359, 0.104960315, -0.734989, 1.1413602, -1.3875961, -0.18992901, 0
1923, 1364189071, -0.21424887, -0.6320076, 0.11351345, -0.7360547, 0.6562661, -1.2918104, 0.046607018, 0
1924, 1364205738, -0.21663865, -0.62814206, 0.115492806, -0.7383527, 1.4061744, -0.68841535, -0.12892342, 0
1925, 1364222405, -0.21904843, -0.6241654, 0.1176287, -0.7406732, 1.363548, -0.63530433, -0.24858093, 0
1927, 1364255739, -0.2227552, -0.61564755, 0.11959235, -0.7463606, 2.0514867, -0.20169938, -1.3003159, 0
1928, 1364272406, -0.22401054, -0.6107238, 0.1198761, -0.74997556, 1.9636192, -0.8406759, -1.6020784, 0
1931, 1364322407, -0.22879472, -0.5917163, 0.12263231, -0.76320654, 1.6629984, -0.6455044, -2.5787473, 0
1933, 1364355741, -0.22494152, -0.5756111, 0.114000574, -0.7778658, 1.7305456, -0.61607504, -2.5906434, 0
1935, 1364389075, -0.21974972, -0.553505, 0.105815575, -0.79633117, 1.1575084, -2.3674026, -3.0888486, 0
1936, 1364405742, -0.21586087, -0.54158926, 0.100608855, -0.80620164, -0.022102889, -1.6916797, -5.1235924, 0
1939, 1364455743, -0.21563187, -0.49681947, 0.100488216, -0.83460975, -3.1771472, -1.7616528, -3.8116446, 0
1941, 1364489077, -0.21841282, -0.47160676, 0.109508514, -0.84728324, -5.6669483, 1.450354, 2.1294918, 0
1943, 1364522411, -0.22070421, -0.44832268, 0.111516476, -0.8589869, -9.403768, 5.5323, 6.410223, 0
1944, 1364539078, -0.22426529, -0.4355208, 0.115167305, -0.86415344, -9.626388, 6.7647157, 7.5000687, 0
1945, 1364555745, -0.23012593, -0.42192006, 0.12291863, -0.86828256, -7.7775526, 6.341267, 6.7300987, 0
1947, 1364589079, -0.23431066, -0.39943907, 0.13615198, -0.87578964, -0.78475827, 6.529252, 3.6885576, 0
1951, 1364655747, -0.22336572, -0.3779274, 0.15108387, -0.88569194, 2.699154, -3.2614813, 12.550776, 0
1959, 1364789083, -0.21763447, -0.37649658, 0.13782692, -0.8898804, 0.4229666, 0.9499707, -1.3773546, 0
1960, 1364805750, -0.2174098, -0.38096023, 0.13856918, -0.88791823, 0.5137167, 0.59626645, -1.1208906, 0
1962, 1364839084, -0.21490994, -0.3934157, 0.13577498, -0.8835164, 1.0875437, 0.4102863, -2.1716514, 0
1963, 1364855751, -0.2125902, -0.4015177, 0.12916361, -0.8814216, 1.1461843, 0.6759234, -2.5336504, 0
1964, 1364872418, -0.21006161, -0.40962848, 0.12197143, -0.8793177, 1.4311678, -0.009695377, -1.9656458, 0
1966, 1364905752, -0.20615885, -0.42560744, 0.113189295, -0.87380934, 1.1887604, -0.4593361, -2.3027158, 0
1967, 1364922419, -0.20312229, -0.43430215, 0.10635252, -0.8710972, 0.73070246, -0.051739562, -2.9553342, 0
1968, 1364939086, -0.19942248, -0.4426662, 0.099245206, -0.8685768, 1.3046098, -0.5189084, -2.1606994, 0
1971, 1364989087, -0.187355, -0.46561658, 0.08078373, -0.8611454, 1.2294413, -0.8306719, -1.9261403, 0
1972, 1365005754, -0.18321262, -0.47323927, 0.07488933, -0.8584098, 0.68920356, -0.8328812, -1.4123573, 0
1974, 1365039088, -0.17765631, -0.4901045, 0.064794205, -0.85090286, 0.79219943, -0.93465376, -1.5383577, 0
1977, 1365089089, -0.1739401, -0.5185772, 0.05544495, -0.8353122, 0.48500904, -1.1343825, -1.8024712, 0
1978, 1365105756, -0.17487113, -0.52761316, 0.057535276, -0.82929635, 0.13920966, -1.7777555, -0.9847965, 0
1979, 1365122423, -0.17636596, -0.5356652, 0.061216038, -0.8235341, -0.22248697, -1.28447, -1.0009394, 0
1981, 1365155757, -0.18006715, -0.5511364, 0.07092431, -0.8116603, 0.565221, -2.4105673, -0.8855314, 0
1982, 1365172424, -0.18216328, -0.5592133, 0.076644376, -0.8051217, 0.08835551, -2.147334, -0.8143692, 0
1983, 1365189091, -0.18459524, -0.5668255, 0.08160587, -0.79873145, -0.40905562, -1.1327736, -1.4622469, 0
1985, 1365222425, -0.18905316, -0.57705456, 0.08958914, -0.78945476, -0.30915013, -1.8260986, 0.39295292, 0
1986, 1365239092, -0.19120225, -0.5805576, 0.09234937, -0.7860435, -0.1873389, -0.5110467, 0.86124134, 0
1989, 1365289093, -0.19035329, -0.5940062, 0.09134881, -0.7762574, 0.7422463, 0.5645129, 0.5123272, 0
1990, 1365305760, -0.18758124, -0.5983023, 0.08988865, -0.7737996, 0.62342674, 0.7373952, 0.33733845, 0
1991, 1365322427, -0.18498148, -0.6021555, 0.089058116, -0.7715292, 0.394172, 0.15916435, 0.4530611, 0
1993, 1365355761, -0.18198109, -0.6087507, 0.08824071, -0.7671487, 0.068760075, -1.7439756, 2.0909748, 0
1994, 1365372428, -0.18065622, -0.61302143, 0.08871675, -0.7639997, -2.52099, 0.018452447, 0.7831478, 0
1995, 1365389095, -0.1760554, -0.6172773, 0.08244317, -0.76234794, -0.8459914, 1.1107862, -0.7240696, 0
1997, 1365422429, -0.1717915, -0.62435645, 0.073432796, -0.75846714, 0.09754431, -0.7215177, -0.7355614, 0
1998, 1365439096, -0.17307605, -0.62641925, 0.07517982, -0.7563, -0.4138909, -0.9954601, -0.26174736, 0
1999, 1365455763, -0.17603573, -0.62822783, 0.079400584, -0.7536809, -1.6578043, -1.3813591, 0.66255665, 0
2001, 1365489097, -0.17898914, -0.6301405, 0.07794884, -0.75153697, 0.53018236, 1.094886, -0.7362108, 0
2004, 1365539098, -0.17988627, -0.63326377, 0.076668456, -0.74882436, -0.059864704, -0.09475731, 0.102871895, 0
2005, 1365555765, -0.18036377, -0.63340294, 0.07674846, -0.74858356, 0.12647973, -0.2505522, 1.1305504, 0
2008, 1365605766, -0.18313196, -0.6337539, 0.08204237, -0.74705154, 0.37998965, -0.103727, 1.2733889, 0
2009, 1365622433, -0.18292636, -0.63440394, 0.08289469, -0.7464557, 0.73569804, 0.89361143, 0.48946857, 0
2010, 1365639100, -0.18210608, -0.6346026, 0.08186838, -0.7466006, 1.0693431, 1.3295474, 0.19850731, 0
2012, 1365672434, -0.1814791, -0.6331946, 0.08085763, -0.7480576, 2.0792406, -1.3152407, -0.09307957, 0
2013, 1365689101, -0.18326311, -0.63147914, 0.08440388, -0.74868065, 1.3375815, -2.3817914, -0.27595615, 0
2014, 1365705768, -0.18604581, -0.62941706, 0.08949298, -0.74913967, 0.5780074, -1.9859143, -0.97120285, 0
2016, 1365739102, -0.1888723, -0.6225184, 0.09270639, -0.75379163, 2.1017966, 0.096024185, -3.1535459, 0
2018, 1365772436, -0.19306862, -0.6096799, 0.09858112, -0.7624268, 2.0892918, -2.1055331, -2.954258, 0
2021, 1365822437, -0.20148423, -0.5840023, 0.106864035, -0.7790529, 1.0555881, -0.9796638, -3.854045, 0
2022, 1365839104, -0.20344438, -0.5744736, 0.10263093, -0.78616494, 1.3658358, -1.1636012, -3.2510028, 0
2024, 1365872438, -0.20730394, -0.5501747, 0.09600322, -0.8031902, -0.45245346, -2.0524209, -4.069835, 0
2025, 1365889105, -0.20903228, -0.5346093, 0.09379335, -0.81344885, -2.0957956, -2.885963, -5.5146923, 0
2026, 1365905772, -0.20949738, -0.51846373, 0.09161965, -0.82395995, -2.7822363, -2.678088, -5.5109754, 0
2029, 1365955773, -0.21585749, -0.47562855, 0.098961085, -0.84698755, -3.5948982, 3.4685514, 8.050665, 0
2031, 1365989107, -0.22267674, -0.44960612, 0.11100059, -0.8578732, -8.519441, 5.234925, 8.947195, 0
2032, 1366005774, -0.22617242, -0.43790025, 0.11378133, -0.86263615, -7.9982142, 7.3169756, 8.8045025, 0
2033, 1366022441, -0.23110883, -0.4243671, 0.121156156, -0.86707586, -5.850798, 7.67884, 8.326904, 0
2035, 1366055775, -0.23956224, -0.401698, 0.13631755, -0.8733065, -2.2695787, 7.849607, 3.3906002, 0
2037, 1366089109, -0.24287726, -0.3834377, 0.16518652, -0.87561285, 4.1658573, 1.7259017, 1.646924, 0
2040, 1366139110, -0.23382494, -0.37459844, 0.15700383, -0.88337415, -0.7209451, -2.576733, 7.941311, 0
