sep=,
DeviceTag:,Xsens_DOT_5,,,,,,,,,,,,,,,,,
FirmwareVersion:,3.0.0,,,,,,,,,,,,,,,,,
AppVersion:,2023.6.1,,,,,,,,,,,,,,,,,
SyncStatus:,Synced,,,,,,,,,,,,,,,,,
OutputRate:,60Hz,,,,,,,,,,,,,,,,,
FilterProfile:,General,,,,,,,,,,,,,,,,,
Measurement Mode:,Sensor fusion Mode - Extended (Quaternion),,,,,,,,,,,,,,,,,
StartTime:,2025-05-05 11:28:59.144 +0200,,,,,,,,,,,,,,,,,
 2025,,,,,,,,,,,,,,,,,,,

PacketCounter,SampleTimeFine,Quat_W,Quat_X,Quat_Y,Quat_Z,FreeAcc_X,FreeAcc_Y,FreeAcc_Z,Status
1, 1332155097, -0.556686, 0.30742118, 0.027638895, -0.7712551, -0.043608427, -0.04649427, -0.11369133, 0
2, 1332171764, -0.55668044, 0.30741382, 0.027614225, -0.77126294, -0.048803676, -0.074878514, -0.12304592, 0
3, 1332188431, -0.5567177, 0.30741385, 0.027583098, -0.7712371, -0.056185976, -0.07337606, -0.11789894, 0
4, 1332205098, -0.5567338, 0.30742592, 0.02754848, -0.7712219, -0.05092184, -0.051501185, -0.11576748, 0
5, 1332221765, -0.5567208, 0.30743238, 0.027532235, -0.77122915, -0.04323794, -0.05313238, -0.12222862, 0
6, 1332238432, -0.5567103, 0.30744186, 0.027506659, -0.7712339, -0.04636071, -0.061457682, -0.11764908, 0
7, 1332255099, -0.5567078, 0.3074447, 0.027492214, -0.77123517, -0.059056092, -0.051056504, -0.09673786, 0
8, 1332271766, -0.5567295, 0.30744195, 0.027465234, -0.7712215, -0.025249323, -0.066569425, -0.1256237, 0
9, 1332288433, -0.5567227, 0.30744377, 0.027473854, -0.77122533, -0.049064375, -0.06899454, -0.12606812, 0
10, 1332305100, -0.5567155, 0.30744508, 0.027471945, -0.7712301, -0.0526886, -0.056118738, -0.12474537, 0
11, 1332321767, -0.556719, 0.30745587, 0.027447708, -0.7712242, -0.047098316, -0.060957793, -0.11404991, 0
12, 1332338434, -0.5567171, 0.30744645, 0.027434774, -0.7712298, -0.04226165, -0.056938585, -0.11867046, 0
13, 1332355101, -0.55672425, 0.30745304, 0.027411833, -0.7712229, -0.053609136, -0.06868151, -0.11415386, 0
14, 1332371768, -0.5567242, 0.30746293, 0.027405512, -0.7712192, -0.035983462, -0.06870397, -0.10529709, 0
15, 1332388435, -0.5567181, 0.30745777, 0.027386779, -0.7712262, -0.041377444, -0.072108075, -0.11926556, 0
16, 1332405102, -0.55670816, 0.30747634, 0.027370753, -0.7712266, -0.048728857, -0.04849706, -0.114626884, 0
17, 1332421769, -0.5566968, 0.3074949, 0.027352806, -0.771228, -0.021425644, -0.0668886, -0.12025547, 0
18, 1332438436, -0.55668604, 0.30750808, 0.027343385, -0.7712308, -0.052333336, -0.043874364, -0.10828495, 0
19, 1332455103, -0.55669045, 0.3075288, 0.027331859, -0.77121985, -0.06419035, -0.060718413, -0.09651089, 0
20, 1332471770, -0.55670595, 0.30753562, 0.02730384, -0.77120686, -0.040788222, -0.06846202, -0.11811066, 0
21, 1332488437, -0.55670214, 0.30753043, 0.027278407, -0.7712125, -0.031119093, -0.05987208, -0.12235451, 0
22, 1332505104, -0.55671334, 0.30752838, 0.027271882, -0.77120566, -0.040081516, -0.057237085, -0.13845253, 0
23, 1332521771, -0.5567133, 0.307532, 0.027267952, -0.7712043, -0.048287544, -0.064870276, -0.13641262, 0
24, 1332538438, -0.556722, 0.30754048, 0.027247928, -0.77119523, -0.040424917, -0.06036783, -0.116101265, 0
25, 1332555105, -0.55673003, 0.30754268, 0.027236782, -0.7711891, -0.02599246, -0.06719202, -0.13764095, 0
26, 1332571772, -0.5567398, 0.30754077, 0.027211387, -0.77118367, -0.03906111, -0.063182645, -0.1287651, 0
27, 1332588439, -0.55673, 0.30753928, 0.027194928, -0.77119184, -0.049371693, -0.062012106, -0.12276554, 0
28, 1332605106, -0.55671775, 0.307545, 0.02719346, -0.77119845, -0.04296296, -0.06345376, -0.112197876, 0
29, 1332621773, -0.5567138, 0.30755937, 0.027192008, -0.77119565, -0.06786584, -0.055347282, -0.10546875, 0
30, 1332638440, -0.5567123, 0.30756953, 0.0271902, -0.7711929, -0.050128397, -0.039736357, -0.12076664, 0
31, 1332655107, -0.5567128, 0.30759484, 0.02719821, -0.77118224, -0.055242416, -0.0574112, -0.11344051, 0
32, 1332671774, -0.55672514, 0.3076076, 0.027199272, -0.771168, -0.033966202, -0.0697946, -0.11986828, 0
33, 1332688441, -0.5567217, 0.30762252, 0.027210994, -0.7711641, -0.037428025, -0.07670428, -0.1473484, 0
34, 1332705108, -0.5567257, 0.30762348, 0.027216323, -0.7711607, -0.05579522, -0.057832077, -0.14012146, 0
35, 1332721775, -0.5567317, 0.3076207, 0.02720775, -0.77115786, -0.04691551, -0.05426537, -0.1276455, 0
36, 1332738442, -0.5567226, 0.30761847, 0.027208868, -0.7711653, -0.038819645, -0.058958024, -0.11961174, 0
37, 1332755109, -0.556732, 0.3076305, 0.027203163, -0.7711538, -0.046740137, -0.059652478, -0.12029362, 0
38, 1332771776, -0.55673766, 0.3076336, 0.0271816, -0.7711492, -0.036723543, -0.045214996, -0.117913246, 0
39, 1332788443, -0.55673563, 0.30763745, 0.027171744, -0.77114964, -0.037238516, -0.068585396, -0.12779617, 0
41, 1332821777, -0.55672646, 0.3076298, 0.027128238, -0.7711608, -0.02885083, -0.059893426, -0.14045906, 0
42, 1332838444, -0.55672324, 0.30762467, 0.027106635, -0.7711659, -0.026433397, -0.061898, -0.12844944, 0
43, 1332855111, -0.5567097, 0.30762315, 0.027077626, -0.77117723, -0.032082576, -0.048736777, -0.124837875, 0
45, 1332888445, -0.5566731, 0.3076404, 0.027087182, -0.77119654, -0.049687613, -0.05548631, -0.091487885, 0
46, 1332905112, -0.55665976, 0.30766252, 0.027089575, -0.77119714, -0.049078066, -0.05082629, -0.12945843, 0
47, 1332921779, -0.55663204, 0.30767605, 0.027103271, -0.77121127, -0.041429885, -0.06752695, -0.13239479, 0
53, 1333021781, -0.5566815, 0.30764204, 0.02712802, -0.7711882, -0.04233327, -0.05382304, -0.117025375, 0
54, 1333038448, -0.5566963, 0.3076218, 0.027123325, -0.77118593, -0.042720295, -0.056960825, -0.121058464, 0
55, 1333055115, -0.55671257, 0.3076073, 0.02711234, -0.7711803, -0.048906382, -0.061114363, -0.109360695, 0
57, 1333088449, -0.55673283, 0.30758345, 0.027086122, -0.77117616, -0.034749363, -0.031937543, -0.12569904, 0
60, 1333138450, -0.5566867, 0.3075857, 0.027071143, -0.77120906, -0.047098733, -0.053011574, -0.12876797, 0
61, 1333155117, -0.55668944, 0.3075915, 0.027053129, -0.77120537, -0.024780853, -0.05469798, -0.12363434, 0
62, 1333171784, -0.5566778, 0.30758968, 0.027041515, -0.77121484, -0.05563549, -0.07074453, -0.109083176, 0
64, 1333205118, -0.55669457, 0.3075806, 0.027015053, -0.7712073, -0.035733353, -0.055828284, -0.10248947, 0
65, 1333221785, -0.5567215, 0.30759162, 0.02700229, -0.7711839, -0.04049563, -0.055293195, -0.12102127, 0
68, 1333271786, -0.5567395, 0.30760702, 0.026926242, -0.77116746, -0.041422624, -0.07803407, -0.11150837, 0
70, 1333305120, -0.5567457, 0.3076471, 0.026904434, -0.7711478, -0.029192818, -0.06123104, -0.1365757, 0
72, 1333338454, -0.556751, 0.30765224, 0.02685609, -0.7711436, -0.038401913, -0.057228927, -0.11743736, 0
73, 1333355121, -0.55674773, 0.30767247, 0.02681881, -0.77113926, -0.038370635, -0.054435126, -0.1070137, 0
74, 1333371788, -0.55674773, 0.30768487, 0.02678558, -0.7711355, -0.052325416, -0.051538736, -0.14825344, 0
76, 1333405122, -0.5567099, 0.30772948, 0.026720751, -0.77114725, -0.041205604, -0.07048749, -0.12078762, 0
77, 1333421789, -0.5566964, 0.30776167, 0.026684426, -0.77114534, -0.02433862, -0.06770409, -0.12446308, 0
78, 1333438456, -0.5566921, 0.30778912, 0.02665666, -0.7711385, -0.033764232, -0.047803946, -0.11891842, 0
80, 1333471790, -0.55670494, 0.30781865, 0.026643634, -0.77111787, -0.055929366, -0.06704986, -0.1103363, 0
82, 1333505124, -0.55667955, 0.30785257, 0.026644578, -0.7711224, -0.0369552, -0.066884354, -0.11814785, 0
84, 1333538458, -0.5566751, 0.30786783, 0.026593553, -0.7711215, -0.034407236, -0.061987072, -0.139575, 0
85, 1333555125, -0.5566558, 0.30789298, 0.026575312, -0.7711259, -0.03696119, -0.07601787, -0.13008213, 0
87, 1333588459, -0.5566776, 0.3079067, 0.026567632, -0.77110505, -0.046505097, -0.062043957, -0.13781929, 0
88, 1333605126, -0.5566672, 0.30789375, 0.026563395, -0.7711178, -0.041017994, -0.060643535, -0.13148785, 0
89, 1333621793, -0.5566737, 0.30787617, 0.026557613, -0.77112037, -0.03244123, -0.07446792, -0.12195015, 0
91, 1333655127, -0.5566833, 0.307877, 0.026545983, -0.7711136, -0.029354012, -0.065521814, -0.10506725, 0
92, 1333671794, -0.5566802, 0.30786437, 0.026538989, -0.7711211, -0.023990916, -0.04317801, -0.12455082, 0
93, 1333688461, -0.5566963, 0.3078581, 0.026531432, -0.7711123, -0.035814684, -0.060211707, -0.12093353, 0
95, 1333721795, -0.55667084, 0.30786017, 0.026522905, -0.77113, -0.046630405, -0.05519887, -0.11771202, 0
97, 1333755129, -0.5566628, 0.30786642, 0.026528515, -0.7711331, -0.034479443, -0.048272986, -0.12764168, 0
100, 1333805130, -0.5567021, 0.30784816, 0.026510041, -0.7711128, -0.031166269, -0.07403107, -0.1304121, 0
101, 1333821797, -0.5567086, 0.30785084, 0.026513442, -0.77110696, -0.042221695, -0.06929259, -0.12054157, 0
103, 1333855131, -0.55671936, 0.30783117, 0.026486253, -0.7711078, -0.043325543, -0.06428367, -0.108226776, 0
104, 1333871798, -0.5567314, 0.30782494, 0.026491843, -0.77110153, -0.042258423, -0.0766046, -0.10881138, 0
105, 1333888465, -0.5567323, 0.30781904, 0.026486676, -0.7711034, -0.03342171, -0.044880394, -0.11113644, 0
107, 1333921799, -0.5567179, 0.3078241, 0.02648817, -0.7711116, -0.03451575, -0.034193236, -0.12455082, 0
108, 1333938466, -0.5567279, 0.3078364, 0.026466293, -0.7711002, -0.041807037, -0.04635547, -0.12058258, 0
109, 1333955133, -0.5567215, 0.30784556, 0.026449086, -0.7711018, -0.031053089, -0.052734975, -0.12747192, 0
112, 1334005134, -0.5567175, 0.30780044, 0.026394792, -0.7711246, -0.042604964, -0.051364843, -0.13001728, 0
114, 1334038468, -0.5566774, 0.30775052, 0.026404958, -0.7711732, -0.052611973, -0.09123352, -0.11758518, 0
116, 1334071802, -0.55667675, 0.30775717, 0.026440104, -0.77116966, -0.037081093, -0.062195387, -0.11156368, 0
118, 1334105136, -0.556672, 0.30781278, 0.02643389, -0.77115107, -0.039498273, -0.056941044, -0.1341219, 0
119, 1334121803, -0.5566899, 0.30783346, 0.026434172, -0.77113, -0.03322062, -0.063629895, -0.11890507, 0
120, 1334138470, -0.55669636, 0.30782783, 0.026438452, -0.77112746, -0.02762282, -0.06491565, -0.12387562, 0
122, 1334171804, -0.55670035, 0.30778193, 0.026368994, -0.7711452, -0.036882907, -0.05396452, -0.12799644, 0
123, 1334188471, -0.55672246, 0.3077632, 0.026314167, -0.77113867, -0.044059783, -0.06457915, -0.11588669, 0
124, 1334205138, -0.55672807, 0.3077497, 0.026269304, -0.7711415, -0.044363607, -0.060757972, -0.12769222, 0
127, 1334255139, -0.55674386, 0.3077228, 0.026187157, -0.7711436, -0.031763077, -0.051616404, -0.11427212, 0
128, 1334271806, -0.55676377, 0.30770725, 0.026150279, -0.77113664, -0.054566693, -0.06449701, -0.09780693, 0
130, 1334305140, -0.5567614, 0.3076951, 0.026159972, -0.7711429, -0.010109002, -0.057998594, -0.13570309, 0
132, 1334338474, -0.5567647, 0.307711, 0.026218213, -0.77113223, -0.048820287, -0.049940504, -0.10124016, 0
134, 1334371808, -0.55679345, 0.3078003, 0.026327867, -0.7710721, -0.03529366, -0.06472634, -0.112607, 0
135, 1334388475, -0.5568175, 0.3078221, 0.026382253, -0.7710441, -0.022572545, -0.06027429, -0.12987709, 0
136, 1334405142, -0.5568261, 0.30781895, 0.026410822, -0.7710382, -0.031599145, -0.06535776, -0.1274395, 0
138, 1334438476, -0.55682755, 0.30778483, 0.026417147, -0.7710506, -0.022857497, -0.030715486, -0.13321686, 0
139, 1334455143, -0.55683386, 0.30776545, 0.026369538, -0.77105534, -0.021942938, -0.036693897, -0.13932896, 0
142, 1334505144, -0.55684996, 0.30770078, 0.026153222, -0.771077, -0.039447326, -0.06549209, -0.12742805, 0
143, 1334521811, -0.55683774, 0.30766243, 0.02611158, -0.7711026, -0.03306761, -0.07805754, -0.10414791, 0
145, 1334555145, -0.55684334, 0.30755183, 0.026035449, -0.77114516, -0.030675547, -0.063098714, -0.11228752, 0
146, 1334571812, -0.556851, 0.3075115, 0.025997587, -0.7711569, -0.04793501, -0.073740944, -0.119831085, 0
149, 1334621813, -0.5569393, 0.30741754, 0.025925132, -0.77113307, -0.019149765, -0.07686018, -0.13031673, 0
150, 1334638480, -0.5569751, 0.30737898, 0.02590056, -0.7711234, -0.04174908, -0.060593132, -0.11880016, 0
151, 1334655147, -0.55697817, 0.307356, 0.025909262, -0.77113, -0.05023666, -0.07053767, -0.13737202, 0
153, 1334688481, -0.556986, 0.30732885, 0.025949627, -0.77113396, -0.024488918, -0.0508055, -0.14276505, 0
154, 1334705148, -0.55698174, 0.30732557, 0.025983585, -0.77113706, -0.059779238, -0.07606023, -0.1132803, 0
157, 1334755149, -0.5569772, 0.30732512, 0.026123956, -0.77113575, -0.047607604, -0.08036889, -0.11066151, 0
158, 1334771816, -0.5569707, 0.30732104, 0.02620675, -0.7711392, -0.027128872, -0.06326679, -0.11442375, 0
159, 1334788483, -0.5570149, 0.3073165, 0.026249262, -0.77110773, -0.024855591, -0.050790414, -0.13304043, 0
161, 1334821817, -0.55704916, 0.30732676, 0.026305024, -0.7710771, -0.029891646, -0.05314881, -0.1243372, 0
162, 1334838484, -0.55703443, 0.30731967, 0.026326772, -0.77108973, -0.03310889, -0.058919244, -0.13195992, 0
164, 1334871818, -0.5570336, 0.30730322, 0.026247613, -0.7710997, -0.010439745, -0.059565756, -0.14076424, 0
165, 1334888485, -0.5570178, 0.3073138, 0.026175598, -0.77110934, -0.035799623, -0.0476305, -0.12310791, 0
166, 1334905152, -0.55702424, 0.30731058, 0.026062367, -0.7711098, -0.027933965, -0.07734085, -0.13096046, 0
168, 1334938486, -0.5570161, 0.30722192, 0.025920281, -0.7711558, -0.036664676, -0.052334107, -0.14444351, 0
169, 1334955153, -0.5569967, 0.3071965, 0.025823686, -0.7711831, -0.039294165, -0.04775656, -0.12829685, 0
172, 1335005154, -0.5570094, 0.30712306, 0.025602328, -0.7712106, -0.025891544, -0.052516717, -0.11571026, 0
173, 1335021821, -0.5569683, 0.30711946, 0.025573267, -0.77124274, -0.026685141, -0.07973612, -0.104120255, 0
174, 1335038488, -0.55695146, 0.30711773, 0.025601596, -0.77125466, -0.054002434, -0.09777105, -0.10341072, 0
176, 1335071822, -0.5568897, 0.30716142, 0.02567414, -0.7712793, -0.049448527, -0.05385522, -0.13522816, 0
178, 1335105156, -0.5568746, 0.30719212, 0.025707955, -0.77127695, -0.043108817, -0.075349905, -0.114587784, 0
180, 1335138490, -0.5568598, 0.30716693, 0.025765652, -0.77129567, -0.04753999, -0.031630993, -0.10726929, 0
181, 1335155157, -0.5568424, 0.30718887, 0.025778182, -0.7712991, -0.0351428, -0.05587891, -0.13928413, 0
182, 1335171824, -0.55683255, 0.3072192, 0.02576809, -0.77129453, -0.051647794, -0.041891582, -0.1213913, 0
184, 1335205158, -0.55680466, 0.3072935, 0.02571103, -0.771287, -0.0435736, -0.068894625, -0.13061142, 0
186, 1335238492, -0.5567315, 0.30737212, 0.025665475, -0.77130985, -0.015157657, -0.09878144, -0.121582985, 0
188, 1335271826, -0.5566771, 0.3074438, 0.025649542, -0.7713212, -0.034176026, -0.058388513, -0.13418388, 0
189, 1335288493, -0.55664456, 0.30751118, 0.025606126, -0.77131915, -0.026975093, -0.056748487, -0.15243244, 0
190, 1335305160, -0.5566098, 0.30755222, 0.025515145, -0.7713309, -0.0058733616, -0.042682704, -0.12927246, 0
192, 1335338494, -0.5565905, 0.3075615, 0.025270235, -0.7713492, -0.027077226, -0.0704391, -0.09754372, 0
195, 1335388495, -0.5566032, 0.30754802, 0.024942644, -0.7713561, -0.03240646, -0.047938164, -0.14898396, 0
196, 1335405162, -0.5565695, 0.30757847, 0.024776245, -0.7713736, -0.060828924, -0.043715335, -0.1268053, 0
197, 1335421829, -0.55650514, 0.30764595, 0.024599262, -0.77139884, -0.027716821, -0.07017178, -0.11284256, 0
199, 1335455163, -0.5564367, 0.30771467, 0.024324715, -0.77142954, -0.04390349, -0.10501667, -0.10196686, 0
201, 1335488497, -0.5563984, 0.30771196, 0.024256025, -0.7714605, -0.03350849, -0.06500718, -0.112766266, 0
203, 1335521831, -0.5564469, 0.30758396, 0.024309495, -0.7714747, -0.008745308, -0.14111412, -0.07392597, 0
204, 1335538498, -0.55649716, 0.30746016, 0.024429364, -0.7714842, -0.053144313, -0.07014049, -0.11163807, 0
205, 1335555165, -0.55655617, 0.30731604, 0.024532845, -0.77149564, -0.036559958, -0.048551038, -0.11685276, 0
207, 1335588499, -0.5567058, 0.3070006, 0.024682568, -0.77150846, -0.033065584, -0.06961959, -0.13032246, 0
208, 1335605166, -0.55679303, 0.3068624, 0.024733549, -0.77149886, -0.04157352, 0.0022076375, -0.15366268, 0
211, 1335655167, -0.55682826, 0.30685768, 0.02480875, -0.771473, -0.05442577, -0.062430967, -0.09708691, 0
212, 1335671834, -0.556824, 0.30691963, 0.024821274, -0.77145106, -0.03530633, -0.045299593, -0.14001656, 0
213, 1335688501, -0.55681044, 0.3069585, 0.024833187, -0.7714449, -0.025089847, -0.09974232, -0.14671135, 0
216, 1335738502, -0.55680704, 0.30690712, 0.024912039, -0.77146536, -0.052650433, -0.09984826, -0.08795071, 0
217, 1335755169, -0.5568153, 0.30688286, 0.02496627, -0.77146715, -0.045768145, -0.05724815, -0.13286686, 0
219, 1335788503, -0.5568142, 0.30687526, 0.025126096, -0.77146584, -0.0518975, -0.10851923, -0.10854435, 0
220, 1335805170, -0.5568224, 0.3068442, 0.02525027, -0.7714682, -0.033907726, -0.07523032, -0.13687229, 0
222, 1335838504, -0.5569118, 0.3067657, 0.025470365, -0.7714277, -0.03035989, -0.060721096, -0.12675858, 0
223, 1335855171, -0.5569648, 0.306761, 0.025524464, -0.7713895, -0.0057216524, -0.009872343, -0.12459087, 0
224, 1335871838, -0.55697626, 0.30680043, 0.025531782, -0.77136534, -0.014850117, -0.036942333, -0.102586746, 0
227, 1335921839, -0.556891, 0.30712768, 0.025320869, -0.77130353, -0.011998972, -0.03921412, -0.14556122, 0
231, 1335988507, -0.5569001, 0.30698803, 0.02478236, -0.77137005, -0.04301694, -0.096763566, -0.12179756, 0
232, 1336005174, -0.55691653, 0.3068148, 0.02467452, -0.7714306, -0.05065315, -0.072384894, -0.08335018, 0
234, 1336038508, -0.5569625, 0.30667037, 0.024459109, -0.77146167, -0.04479356, -0.059930418, -0.107767105, 0
235, 1336055175, -0.55697495, 0.30666715, 0.024389941, -0.7714561, -0.03964824, -0.08275701, -0.10626984, 0
236, 1336071842, -0.55699813, 0.3066546, 0.024373535, -0.7714449, -0.041467857, -0.122157656, -0.08046436, 0
238, 1336105176, -0.5570022, 0.3065771, 0.024450948, -0.77147025, -0.05980504, -0.08806712, -0.117669106, 0
239, 1336121843, -0.55703795, 0.3065452, 0.024504403, -0.77145547, -0.041245222, -0.049680784, -0.12353611, 0
240, 1336138510, -0.55707186, 0.3065137, 0.024577193, -0.7714412, -0.036676507, -0.10445744, -0.12541103, 0
243, 1336188511, -0.5572648, 0.3062592, 0.025059348, -0.7713874, -0.014054663, 0.008280819, -0.17424297, 0
246, 1336238512, -0.5573195, 0.30617645, 0.025305998, -0.7713727, -0.03546529, -0.04731624, -0.13876724, 0
247, 1336255179, -0.55732995, 0.3061908, 0.025348391, -0.77135795, -0.06575354, -0.059490543, -0.12095928, 0
249, 1336288513, -0.55731577, 0.30638543, 0.025484283, -0.77128655, -0.04809796, -0.03992489, -0.12884331, 0
250, 1336305180, -0.5572841, 0.30648363, 0.025527086, -0.771269, -0.0075051878, -0.048507117, -0.12849236, 0
251, 1336321847, -0.55726, 0.30658513, 0.02557134, -0.77124465, -0.043491863, -0.076820955, -0.14167976, 0
253, 1336355181, -0.55718696, 0.30692676, 0.025635215, -0.7711594, 0.0020153744, 0.007613969, -0.16988277, 0
254, 1336371848, -0.5571338, 0.30714506, 0.025532681, -0.7711143, -0.0155271515, -0.038536426, -0.14456654, 0
255, 1336388515, -0.55703986, 0.30732194, 0.0254355, -0.7711149, -0.00338956, -0.069374844, -0.16019249, 0
257, 1336421849, -0.55686563, 0.30758426, 0.02515109, -0.7711456, -0.04930446, -0.057780445, -0.09422016, 0
261, 1336488517, -0.55658734, 0.3079528, 0.024852034, -0.7712089, 0.004811703, -0.040448245, -0.15332508, 0
263, 1336521851, -0.5564643, 0.30806503, 0.024521407, -0.7712635, -0.028776888, -0.02686324, -0.023871422, 0
265, 1336555185, -0.5562714, 0.30852586, 0.024241578, -0.7712273, -0.046803363, -0.06715659, -0.14635658, 0
266, 1336571852, -0.5561957, 0.3088023, 0.02417295, -0.7711734, -0.06687329, -0.1354826, -0.08340359, 0
267, 1336588519, -0.5561031, 0.30907756, 0.024237046, -0.771128, -0.04445371, -0.13027675, -0.06764412, 0
269, 1336621853, -0.556124, 0.30929807, 0.024419306, -0.7710187, 0.0076719145, -0.10066811, -0.14467907, 0
270, 1336638520, -0.55616355, 0.30928615, 0.024496667, -0.7709924, -0.020906173, -0.023432316, -0.093961716, 0
271, 1336655187, -0.556154, 0.3094143, 0.024533276, -0.77094686, -0.051767066, -0.017639196, -0.101566315, 0
276, 1336738522, -0.5558473, 0.31055728, 0.024566852, -0.77070737, -0.010464737, -0.1244547, -0.09694862, 0
277, 1336755189, -0.5558433, 0.31064698, 0.02464666, -0.7706714, -0.031119052, -0.06351344, -0.1593399, 0
280, 1336805190, -0.55580026, 0.31071067, 0.02460309, -0.77067816, 0.013296716, -0.030446041, -0.10071945, 0
281, 1336821857, -0.55574894, 0.3107647, 0.024497002, -0.77069676, -0.048658393, -0.023596598, -0.09194279, 0
282, 1336838524, -0.5556744, 0.31089455, 0.024438975, -0.7707001, -0.09995502, -0.081356704, -0.07999897, 0
284, 1336871858, -0.55550927, 0.31124413, 0.024441354, -0.77067804, 0.015410199, -0.051681336, -0.096609116, 0
285, 1336888525, -0.5553792, 0.31155768, 0.024474485, -0.7706439, -0.10694221, -0.058971435, -0.03830719, 0
286, 1336905192, -0.555242, 0.3119954, 0.024602558, -0.77056164, -0.13142996, -0.08286475, -0.11007309, 0
288, 1336938526, -0.5551879, 0.3125962, 0.024785057, -0.7703513, 0.06676797, -0.10390749, -0.18261242, 0
290, 1336971860, -0.5553754, 0.3126648, 0.024906887, -0.7701842, -0.06432109, -0.099710695, -0.08170509, 0
292, 1337005194, -0.55572, 0.31259474, 0.025000505, -0.7699611, 0.05608936, -0.06591676, -0.14805126, 0
293, 1337021861, -0.5559397, 0.31245682, 0.024947427, -0.7698602, -0.012911505, -0.10472733, -0.10466385, 0
296, 1337071862, -0.55668205, 0.31178725, 0.02534545, -0.76958215, -0.06647827, -0.10625962, -0.101799965, 0
297, 1337088529, -0.55692714, 0.31158003, 0.025627403, -0.7694794, -0.11143758, 0.04729948, -0.23215294, 0
298, 1337105196, -0.5569486, 0.31168467, 0.025603525, -0.7694223, -0.02096898, 0.2501035, -0.23231316, 0
300, 1337138530, -0.55679107, 0.31237903, 0.025352767, -0.7692631, -0.1074056, -0.002257369, -0.22574997, 0
301, 1337155197, -0.55664545, 0.31290787, 0.025263265, -0.7691564, -0.06270385, -0.13168143, -0.13985252, 0
303, 1337188531, -0.5565458, 0.3137985, 0.02535404, -0.7688628, -0.081662595, -0.07693573, -0.16736698, 0
305, 1337221865, -0.55630755, 0.3151339, 0.025608603, -0.7684803, -0.12230224, -0.04980282, -0.13948917, 0
307, 1337255199, -0.5557193, 0.31696254, 0.026117643, -0.7681367, -0.013467996, 0.0110675795, -0.122011185, 0
308, 1337271866, -0.55529326, 0.31806123, 0.026452031, -0.7679792, -0.08105276, -0.01112547, -0.07745075, 0
309, 1337288533, -0.5548144, 0.31925806, 0.026818758, -0.767816, 0.056316867, -0.04806065, -0.044774055, 0
312, 1337338534, -0.5531903, 0.32280275, 0.027306946, -0.7674885, -0.08310198, -0.113928914, -0.02046585, 0
313, 1337355201, -0.5526004, 0.32400924, 0.027390674, -0.7674021, 0.058683313, -0.04742062, -0.124964714, 0
315, 1337388535, -0.55148876, 0.3260285, 0.027417755, -0.7673456, 0.029929321, -0.083497286, -0.16810036, 0
316, 1337405202, -0.5509463, 0.3268844, 0.027409144, -0.7673713, -0.05058443, -0.019713173, -0.20999813, 0
317, 1337421869, -0.5502888, 0.32792938, 0.027320765, -0.7674005, -0.13312383, 0.057228815, -0.16151714, 0
320, 1337471870, -0.54754245, 0.3317856, 0.027013011, -0.7677182, -0.19751011, 0.07015021, -0.1512785, 0
321, 1337488537, -0.54615855, 0.33358622, 0.027048003, -0.76792246, -0.10385559, 0.023632137, -0.13291931, 0
323, 1337521871, -0.54359484, 0.3375458, 0.027124353, -0.76800853, -0.08537174, -0.12544754, -0.13386822, 0
324, 1337538538, -0.5424468, 0.33948952, 0.027308688, -0.76795703, -0.028670551, -0.15294187, -0.14914131, 0
325, 1337555205, -0.5413761, 0.34119225, 0.027456796, -0.7679526, 0.1257211, -0.1658275, -0.13506413, 0
327, 1337588539, -0.5396867, 0.34373567, 0.027701776, -0.7679988, 0.017358309, -0.20678848, -0.14547062, 0
328, 1337605206, -0.5390297, 0.3447621, 0.027945606, -0.7679912, -0.013138748, -0.112019666, -0.1361742, 0
330, 1337638540, -0.53765285, 0.34630954, 0.028435532, -0.76824224, 0.09539174, -0.078433715, -0.113996506, 0
331, 1337655207, -0.5369781, 0.34690994, 0.028628971, -0.7684359, 0.026591461, -0.112084486, -0.10910797, 0
332, 1337671874, -0.5363954, 0.34751025, 0.02880379, -0.7685652, -0.0067444337, -0.12962835, -0.15227795, 0
335, 1337721875, -0.53541607, 0.34961972, 0.028718496, -0.7682944, -0.10693563, -0.027727118, -0.08898163, 0
336, 1337738542, -0.53515637, 0.3509063, 0.02859027, -0.7678935, -0.13413225, 0.053863715, -0.13538551, 0
338, 1337771876, -0.53460735, 0.3548152, 0.0280988, -0.7664966, -0.18799065, -0.089944854, -0.052412987, 0
339, 1337788543, -0.53439, 0.35735258, 0.027750136, -0.7654815, -0.090338975, -0.021727359, -0.10283184, 0
342, 1337838544, -0.534026, 0.366343, 0.026196541, -0.76153016, -0.04091951, -0.13710184, -0.095970154, 0
343, 1337855211, -0.533999, 0.369518, 0.025509333, -0.76003706, -0.041972324, 0.015015041, -0.13004494, 0
344, 1337871878, -0.53398186, 0.3727612, 0.024623834, -0.7584929, 0.041275315, -0.05372335, -0.11630249, 0
346, 1337905212, -0.5339343, 0.3796863, 0.022331905, -0.755155, -0.09136373, 0.031197492, -0.083571434, 0
347, 1337921879, -0.5338327, 0.3835151, 0.020879842, -0.7533313, -0.0823721, -0.06289967, -0.0024147034, 0
350, 1337971880, -0.5310537, 0.39759332, 0.016450789, -0.7480884, -0.55026764, 0.22886296, 0.87121964, 0
351, 1337988547, -0.52792335, 0.40353513, 0.018213999, -0.74708116, -0.26237065, -0.43624163, 1.6803255, 0
353, 1338021881, -0.518579, 0.4106448, 0.03703978, -0.74905276, -0.6377268, -0.6265137, 0.4105072, 0
354, 1338038548, -0.5086186, 0.41061705, 0.051969364, -0.754987, -1.6099242, -1.7970762, 0.44335747, 0
355, 1338055215, -0.4915827, 0.40855467, 0.071456164, -0.76572126, -0.3880336, -6.956582, -0.087038994, 0
358, 1338105216, -0.41082728, 0.36936897, 0.0964621, -0.82794213, 6.5620136, -3.55837, -4.044299, 0
359, 1338121883, -0.3849949, 0.3615531, 0.09672304, -0.8436281, 7.333253, -0.08662261, -7.8440304, 0
361, 1338155217, -0.35685402, 0.37374586, 0.08821039, -0.851583, 8.769682, 3.2976863, -5.879547, 0
362, 1338171884, -0.35770577, 0.37945774, 0.06986858, -0.8504012, 5.764399E-4, 6.3894672, 16.999598, 0
365, 1338221885, -0.3584039, 0.35225263, 0.08207483, -0.86065894, 1.1365182, -7.1438713, 1.4935951, 0
366, 1338238552, -0.36068094, 0.34600928, 0.08658877, -0.86179733, -1.2814482, 0.3297937, 0.18686295, 0
367, 1338255219, -0.36336738, 0.34255946, 0.090172604, -0.8616795, -0.74316806, 0.2465538, 0.15024948, 0
369, 1338288553, -0.3702987, 0.33909735, 0.09613924, -0.85945, -0.2688934, 0.7294627, -0.11294937, 0
370, 1338305220, -0.3721986, 0.33814535, 0.09860486, -0.8587249, 0.6572502, 0.68294126, -0.1249485, 0
371, 1338321887, -0.37313303, 0.33681744, 0.10054607, -0.8586161, 0.38804343, 0.6637952, -0.2279253, 0
374, 1338371888, -0.37358367, 0.33159196, 0.10419887, -0.8600174, -0.06374059, -0.09670981, -0.026459694, 0
375, 1338388555, -0.37390086, 0.33006245, 0.105414286, -0.8603198, -0.04620605, -0.3371969, 0.0844059, 0
377, 1338421889, -0.37576947, 0.32667932, 0.1081369, -0.86045915, 0.21779163, 0.06504954, -0.2582264, 0
379, 1338455223, -0.37734607, 0.32207534, 0.10912604, -0.86137927, 0.33504727, 0.21319, -0.108698845, 0
381, 1338488557, -0.378452, 0.31621602, 0.1093414, -0.86303616, 0.015056363, -0.24186549, 0.042294502, 0
382, 1338505224, -0.3792147, 0.31342655, 0.10973648, -0.86366844, -0.23285633, -0.25628978, 0.038855553, 0
384, 1338538558, -0.38095534, 0.3094506, 0.11144283, -0.86411756, -0.21911822, 0.054189153, -0.113404274, 0
385, 1338555225, -0.38167426, 0.30813265, 0.11233199, -0.86415625, 0.06444245, 0.05226761, -0.05647087, 0
386, 1338571892, -0.38224766, 0.3068844, 0.11310122, -0.86424655, 0.18529598, 0.23942205, -0.23980522, 0
388, 1338605226, -0.38304958, 0.30468088, 0.11354599, -0.86461276, -0.13754356, -0.0054100193, -0.22893429, 0
390, 1338638560, -0.38368452, 0.30350274, 0.11353133, -0.86474735, -0.039844844, 0.12467061, -0.25921154, 0
392, 1338671894, -0.38389257, 0.30284667, 0.11231692, -0.8650438, -0.05007017, 0.11139495, -0.3733139, 0
394, 1338705228, -0.3837992, 0.30243257, 0.10994416, -0.8655348, -0.09081086, -0.16885778, -0.063700676, 0
396, 1338738562, -0.383472, 0.3027195, 0.10795426, -0.86582977, -0.044937756, -0.12918803, -0.08767605, 0
397, 1338755229, -0.38328704, 0.30299485, 0.10725844, -0.86590195, 0.0058429637, -0.1861531, 0.105246544, 0
398, 1338771896, -0.38304713, 0.30337906, 0.107110456, -0.86589193, -0.05096724, -0.109287106, -0.075740814, 0
400, 1338805230, -0.3822448, 0.30468056, 0.1065347, -0.8658606, -0.052769985, 0.024211593, -0.20542145, 0
401, 1338821897, -0.38175988, 0.30553737, 0.1061263, -0.86582255, -0.03249638, 0.0039037655, -0.18786716, 0
402, 1338838564, -0.38120684, 0.30662674, 0.105549656, -0.8657517, -0.014974725, 0.07740511, -0.15642548, 0
404, 1338871898, -0.38023716, 0.30880204, 0.10425174, -0.8655622, 0.0475863, -0.165857, 0.0034122467, 0
405, 1338888565, -0.3798243, 0.3098754, 0.10386637, -0.8654062, 0.03011608, -0.12385054, -0.08558369, 0
406, 1338905232, -0.3794091, 0.3110565, 0.103511065, -0.8652074, -0.04119045, 0.009727842, -0.14861393, 0
409, 1338955233, -0.37794682, 0.31510445, 0.10279098, -0.86446786, -0.013669047, -0.11774595, -0.08345413, 0
411, 1338988567, -0.3769651, 0.3185213, 0.10274747, -0.8636492, -0.095713444, -0.31277296, -0.03485489, 0
412, 1339005234, -0.37664875, 0.3205063, 0.103051595, -0.86301625, -0.1467807, -0.11564907, -0.20001316, 0
413, 1339021901, -0.37640837, 0.32279623, 0.10332204, -0.862235, -0.04521075, 0.038943667, -0.18330956, 0
415, 1339055235, -0.37573656, 0.3279693, 0.10364943, -0.86053485, 0.041220147, -0.011969342, -0.14637184, 0
416, 1339071902, -0.37531915, 0.33070257, 0.10372492, -0.85966146, 0.018297302, 0.024735844, -0.14181328, 0
417, 1339088569, -0.3747888, 0.33348095, 0.10367816, -0.8588248, 0.14696069, 0.04223892, -0.11972427, 0
420, 1339138570, -0.37294653, 0.34135655, 0.10345684, -0.85655624, 0.15911111, 0.010424645, -0.12404156, 0
421, 1339155237, -0.37222517, 0.3438217, 0.10327142, -0.8559061, 0.044516098, -0.008773666, -0.14872837, 0
424, 1339205238, -0.36981797, 0.34991327, 0.102282256, -0.85459876, 0.26932672, 0.09561739, -0.15752983, 0
425, 1339221905, -0.36858425, 0.3513882, 0.10180896, -0.8545831, 0.1483819, 0.10646537, -0.114004135, 0
427, 1339255239, -0.36538753, 0.35347936, 0.10066781, -0.8552285, 0.22467184, 0.11178229, -0.12920666, 0
428, 1339271906, -0.36357877, 0.3539296, 0.09999365, -0.8558918, 0.13548456, -0.12749805, -0.14598656, 0
429, 1339288573, -0.36194244, 0.35406598, 0.09918582, -0.85662264, 0.14748754, -0.047059312, -0.1197567, 0
431, 1339321907, -0.35872474, 0.35396615, 0.09704764, -0.8582609, 0.10754376, -0.19534619, -0.08672047, 0
432, 1339338574, -0.35730603, 0.35374287, 0.095775954, -0.8590871, 0.07417884, -0.099620506, -0.1144495, 0
433, 1339355241, -0.35600483, 0.35348848, 0.09454431, -0.8598679, 0.04176183, -0.34178215, -0.014674187, 0
439, 1339455243, -0.35312474, 0.35417283, 0.091227815, -0.8611314, 0.06833213, -0.018040514, -0.09989929, 0
440, 1339471910, -0.35286233, 0.35457143, 0.0908435, -0.86111575, 0.057626333, -0.075501785, -0.12528992, 0
442, 1339505244, -0.35245314, 0.3554459, 0.090320416, -0.8609777, 0.020151341, -0.16238362, -0.094696045, 0
443, 1339521911, -0.35240084, 0.35591692, 0.09015818, -0.8608215, 0.056006283, -0.13774544, -0.0978632, 0
444, 1339538578, -0.35249636, 0.35633647, 0.08999283, -0.8606262, 0.06909341, -0.12518011, -0.1490612, 0
446, 1339571912, -0.3530862, 0.3574921, 0.09034423, -0.859868, -0.014414043, -0.11951752, -0.0941391, 0
447, 1339588579, -0.353467, 0.35820428, 0.09057994, -0.85939026, 0.08861531, -0.013382615, -0.10087204, 0
448, 1339605246, -0.35386068, 0.35888487, 0.09070394, -0.85893106, 0.07743478, -0.068782985, -0.122737885, 0
450, 1339638580, -0.3546416, 0.36026058, 0.0909307, -0.85800856, 0.0700895, 0.046554398, -0.12637615, 0
451, 1339655247, -0.35487393, 0.36095467, 0.090925865, -0.8576211, 0.063864216, -0.014807063, -0.115722656, 0
455, 1339721915, -0.35542685, 0.36378422, 0.0910823, -0.8561789, 0.044772718, -0.108448595, -0.097019196, 0
456, 1339738582, -0.3555862, 0.3645341, 0.091137685, -0.8557877, 0.052269313, -0.08848319, -0.10839462, 0
458, 1339771916, -0.3557859, 0.36593288, 0.09125581, -0.8550949, 0.07698479, -0.027297078, -0.100045204, 0
459, 1339788583, -0.35581094, 0.36652756, 0.091251396, -0.8548302, 0.097229086, -0.013105123, -0.10272789, 0
460, 1339805250, -0.3557602, 0.36700073, 0.09121004, -0.85465276, 0.11777582, -0.025597263, -0.11209774, 0
462, 1339838584, -0.3555939, 0.3675832, 0.09100428, -0.8544937, 0.09575491, -0.04671432, -0.10817814, 0
463, 1339855251, -0.35545787, 0.36770567, 0.09091571, -0.85450685, 0.06322243, -0.06452685, -0.13600636, 0
465, 1339888585, -0.3551177, 0.36784706, 0.09082405, -0.8545972, 0.08552296, -0.06335799, -0.12161255, 0
466, 1339905252, -0.3549639, 0.36787444, 0.09077081, -0.8546549, 0.057420284, -0.078380294, -0.0954628, 0
469, 1339955253, -0.35462552, 0.3679322, 0.09054895, -0.85479397, 0.04696714, -0.08915831, -0.11616516, 0
471, 1339988587, -0.35446864, 0.36806452, 0.090456486, -0.85481185, 0.056662098, -0.05893299, -0.11480808, 0
473, 1340021921, -0.354409, 0.36820197, 0.09028522, -0.8547954, 0.068101995, -0.062225338, -0.12552166, 0
474, 1340038588, -0.3544003, 0.36825818, 0.09019614, -0.85478425, 0.07289922, -0.08485267, -0.10307121, 0
475, 1340055255, -0.35437965, 0.3682719, 0.09010896, -0.8547962, 0.07479498, -0.07591417, -0.10735512, 0
477, 1340088589, -0.35439023, 0.36816868, 0.08998884, -0.85484886, 0.06829087, -0.07388254, -0.13222504, 0
478, 1340105256, -0.3544465, 0.368089, 0.08996703, -0.8548621, 0.049185563, -0.13342606, -0.10953426, 0
479, 1340121923, -0.35457325, 0.3679931, 0.089989275, -0.85484874, 0.04473785, -0.097692035, -0.09324551, 0
481, 1340155257, -0.35485518, 0.3677473, 0.089989, -0.8548374, 0.06489852, -0.070063934, -0.10671902, 0
483, 1340188591, -0.35516214, 0.36753705, 0.09002669, -0.85479635, 0.04050077, -0.06368577, -0.103569984, 0
485, 1340221925, -0.35561636, 0.36747545, 0.0901932, -0.8546165, 0.038118374, -0.1278901, -0.105044365, 0
486, 1340238592, -0.35591227, 0.36750993, 0.090305574, -0.85446674, 0.04013639, -0.09810151, -0.089468, 0
487, 1340255259, -0.35625806, 0.36754572, 0.09041655, -0.8542954, 0.0667617, -0.10722084, -0.09856701, 0
489, 1340288593, -0.3569651, 0.36761522, 0.0906764, -0.8539428, 0.060602017, -0.02530692, -0.14451885, 0
490, 1340305260, -0.3572086, 0.3676882, 0.0908121, -0.853795, 0.05225431, -0.009857369, -0.12463093, 0
492, 1340338594, -0.35757568, 0.367877, 0.09103967, -0.8535356, 0.04174853, -0.02281676, -0.10251522, 0
493, 1340355261, -0.35772958, 0.3680097, 0.09113625, -0.8534038, 0.05465607, -0.046736002, -0.09847069, 0
494, 1340371928, -0.35787785, 0.3681656, 0.09122433, -0.8532649, 0.029695317, -0.04803573, -0.11267185, 0
496, 1340405262, -0.3581428, 0.36846882, 0.09140714, -0.8530032, 0.0644919, -0.05220525, -0.113307, 0
498, 1340438596, -0.35835525, 0.36870372, 0.09150546, -0.8528019, 0.0877387, -0.067355074, -0.100263596, 0
501, 1340488597, -0.35861808, 0.36879572, 0.09160562, -0.85264087, 0.05666017, -0.0633771, -0.112771034, 0
502, 1340505264, -0.35868987, 0.36873773, 0.09161506, -0.8526347, 0.06360215, -0.054800905, -0.11836147, 0
504, 1340538598, -0.3587548, 0.36857277, 0.09166423, -0.8526735, 0.037481587, -0.03720418, -0.113012314, 0
505, 1340555265, -0.35874882, 0.36852133, 0.09167913, -0.8526967, 0.04956478, -0.048820704, -0.11402893, 0
506, 1340571932, -0.35874626, 0.36851603, 0.09166775, -0.85270107, 0.046792913, -0.037067946, -0.12122822, 0
508, 1340605266, -0.35869017, 0.3686681, 0.091635905, -0.85266256, 0.05601461, -0.07585069, -0.10274029, 0
509, 1340621933, -0.3586811, 0.3687898, 0.09160534, -0.8526169, 0.04271394, -0.064675935, -0.090270996, 0
510, 1340638600, -0.3586787, 0.3688863, 0.09158061, -0.8525789, 0.06799862, -0.06413548, -0.1095705, 0
513, 1340688601, -0.3586247, 0.36904085, 0.0915362, -0.85253936, 0.05860356, -0.08357384, -0.09936333, 0
514, 1340705268, -0.358648, 0.36903957, 0.09154096, -0.85252976, 0.05821627, -0.06582289, -0.112558365, 0
517, 1340755269, -0.3585884, 0.36887974, 0.0915838, -0.85261935, 0.01814467, -0.04257922, -0.1255598, 0
519, 1340788603, -0.35848242, 0.36885673, 0.091594994, -0.8526727, 0.0570074, -0.060173266, -0.12273407, 0
520, 1340805270, -0.35845897, 0.36888003, 0.09159465, -0.85267246, 0.05757984, -0.063044064, -0.10902119, 0
521, 1340821937, -0.35845372, 0.36891618, 0.09159351, -0.85265917, 0.051819384, -0.04695929, -0.11803913, 0
523, 1340855271, -0.35836896, 0.36894777, 0.091567405, -0.85268396, 0.09286818, -0.06732445, -0.12809753, 0
524, 1340871938, -0.35832378, 0.36888513, 0.09161669, -0.8527248, 0.09164827, -0.11885715, -0.12241173, 0
525, 1340888605, -0.3583531, 0.36876738, 0.09165871, -0.8527588, 0.0668829, -0.062605195, -0.12052345, 0
528, 1340938606, -0.35865018, 0.36857626, 0.09160501, -0.8527223, 0.08134648, -0.04259844, -0.13168144, 0
529, 1340955273, -0.35861295, 0.36845943, 0.091718264, -0.85277635, 0.07131832, 0.01848754, -0.12964916, 0
531, 1340988607, -0.35797116, 0.3683755, 0.091730274, -0.8530809, 0.08084883, 0.15730429, -0.122447014, 0
533, 1341021941, -0.35676828, 0.3684697, 0.09109847, -0.8536117, 0.003218894, -0.046919618, -0.108353615, 0
535, 1341055275, -0.35579425, 0.36905664, 0.09041459, -0.85383743, -0.024302956, -0.2636332, -0.06529331, 0
536, 1341071942, -0.3556769, 0.36949593, 0.09025806, -0.85371274, 8.20097E-4, -0.2425537, -0.061943054, 0
537, 1341088609, -0.35573205, 0.3699403, 0.09016068, -0.85350764, 0.06636259, -0.12704208, -0.08372116, 0
539, 1341121943, -0.35588446, 0.3705432, 0.09007636, -0.8531914, 0.10769874, -0.042009484, -0.10823536, 0
540, 1341138610, -0.35583392, 0.37069318, 0.090048805, -0.8531502, 0.10634643, 0.0076283854, -0.12850761, 0
543, 1341188611, -0.35547, 0.37099937, 0.08990859, -0.8531837, 0.03342622, -0.10464955, -0.10822964, 0
544, 1341205278, -0.35545096, 0.37114435, 0.089909226, -0.8531284, 0.02316167, -0.05235221, -0.11149216, 0
546, 1341238612, -0.3553332, 0.37151912, 0.08991794, -0.8530134, 0.087885655, -0.01379019, -0.11632252, 0
547, 1341255279, -0.3551986, 0.3716898, 0.08986733, -0.8530005, 0.074026175, -0.038823195, -0.114702225, 0
550, 1341305280, -0.35492167, 0.37218937, 0.08976886, -0.8529084, 0.0714503, -0.08008961, -0.11396313, 0
552, 1341338614, -0.35489538, 0.37243178, 0.08971409, -0.85281914, 0.06537743, -0.07007533, -0.09963894, 0
554, 1341371948, -0.35489368, 0.3725508, 0.089722194, -0.852767, 0.046334013, -0.10223505, -0.10937691, 0
555, 1341388615, -0.35495368, 0.3725809, 0.08973706, -0.85272735, 0.061787892, -0.08933377, -0.10448265, 0
558, 1341438616, -0.3551471, 0.37254137, 0.089829795, -0.85265434, 0.07358935, -0.04426484, -0.11888409, 0
559, 1341455283, -0.35520375, 0.37247464, 0.08987108, -0.8526555, 0.07575737, -0.04059498, -0.11619091, 0
560, 1341471950, -0.35522243, 0.37241524, 0.0899026, -0.8526703, 0.048122395, -0.0453852, -0.08867073, 0
562, 1341505284, -0.35528967, 0.3722653, 0.08998431, -0.8526992, 0.075464986, -0.09950238, -0.121899605, 0
563, 1341521951, -0.35538593, 0.3721857, 0.09007191, -0.8526846, 0.04609938, -0.10517, -0.10430241, 0
564, 1341538618, -0.3555163, 0.37213302, 0.09015421, -0.8526446, 0.0730649, -0.065232925, -0.09907341, 0
566, 1341571952, -0.3557517, 0.37192187, 0.09025922, -0.85262734, 0.06455051, -0.0648049, -0.11348534, 0
567, 1341588619, -0.35585392, 0.3717825, 0.09032631, -0.8526384, 0.056550257, -0.07220575, -0.11333847, 0
568, 1341605286, -0.3559514, 0.37164974, 0.090409, -0.8526469, 0.053096954, -0.062438566, -0.0843029, 0
570, 1341638620, -0.35616982, 0.3714474, 0.09048142, -0.852636, 0.05184344, -0.05528213, -0.11037159, 0
573, 1341688621, -0.35645756, 0.37124074, 0.09058613, -0.85259473, 0.040469646, -0.047140557, -0.10147667, 0
574, 1341705288, -0.35652027, 0.37120357, 0.09061688, -0.8525814, 0.05965625, -0.05115474, -0.1115818, 0
575, 1341721955, -0.35657018, 0.37117162, 0.09065553, -0.85257035, 0.04264714, -0.07228487, -0.09920883, 0
577, 1341755289, -0.3567248, 0.3710544, 0.090727195, -0.8525491, 0.09133203, -0.03328924, -0.10963631, 0
578, 1341771956, -0.35682026, 0.37095776, 0.09074879, -0.85254884, 0.056447275, -0.05935487, -0.09197998, 0
581, 1341821957, -0.35708398, 0.37062642, 0.09092142, -0.8525643, 0.049978923, -0.093460046, -0.10164738, 0
582, 1341838624, -0.35718682, 0.3705028, 0.09097855, -0.8525687, 0.04760027, -0.03369044, -0.11291218, 0
583, 1341855291, -0.35726917, 0.37037626, 0.09101288, -0.8525856, 0.08325235, -0.0671985, -0.11600971, 0
585, 1341888625, -0.35743847, 0.37010217, 0.09108979, -0.8526254, 0.03321883, -0.06574075, -0.07698631, 0
587, 1341921959, -0.35756165, 0.36993173, 0.09117099, -0.8526391, 0.053922836, -0.05959135, -0.10208702, 0
589, 1341955293, -0.35770312, 0.36973467, 0.091398254, -0.85264087, 0.11188265, -0.1399151, -0.10897446, 0
590, 1341971960, -0.35784543, 0.3696627, 0.091524705, -0.8525987, 0.0026958457, -0.060758755, -0.10909939, 0
591, 1341988627, -0.3580366, 0.36965072, 0.09159324, -0.85251635, 0.05076527, -0.010195431, -0.12438774, 0
593, 1342021961, -0.35828984, 0.36951151, 0.09186876, -0.8524407, 0.069823995, -0.026113577, -0.13231277, 0
594, 1342038628, -0.35821393, 0.36945772, 0.09203933, -0.85247755, 0.069778316, 0.09575943, -0.14702415, 0
597, 1342088629, -0.35709214, 0.3697594, 0.091860406, -0.85283655, -0.03520642, -0.036661156, -0.07284927, 0
598, 1342105296, -0.35671252, 0.3702069, 0.09160102, -0.85282916, -0.033028927, -0.1030502, -0.07057762, 0
600, 1342138630, -0.35620052, 0.37150785, 0.090926856, -0.85254955, 0.014857326, -0.106957875, -0.103764534, 0
602, 1342171964, -0.35600674, 0.3728627, 0.09037413, -0.8520977, 0.10762956, -0.09357247, -0.10789204, 0
604, 1342205298, -0.3556896, 0.37389362, 0.089952655, -0.851823, 0.105354674, -0.004206402, -0.09338474, 0
605, 1342221965, -0.35542998, 0.37431544, 0.08969704, -0.8517729, 0.09075931, -0.036490276, -0.0986824, 0
606, 1342238632, -0.3551723, 0.37468794, 0.08945553, -0.85174215, 0.06331647, -0.0829109, -0.09992027, 0
608, 1342271966, -0.35481942, 0.37531725, 0.08908266, -0.85165125, 0.05216728, -0.06749879, -0.104426384, 0
609, 1342288633, -0.35469705, 0.37556887, 0.088960916, -0.851604, 0.08508308, -0.07998791, -0.117183685, 0
610, 1342305300, -0.35458675, 0.37578067, 0.088891916, -0.8515636, 0.06542657, -0.047865633, -0.109129906, 0
613, 1342355301, -0.3540918, 0.376061, 0.08863007, -0.8516731, 0.08420599, -0.019413441, -0.122018814, 0
614, 1342371968, -0.35388315, 0.37608236, 0.08848143, -0.8517659, 0.069144204, -0.05449581, -0.10759354, 0
617, 1342421969, -0.35362178, 0.3765721, 0.08830984, -0.8516759, 0.02931895, -0.075991385, -0.09577751, 0
618, 1342438636, -0.35362893, 0.37686297, 0.088256314, -0.8515498, 0.030482138, -0.05082953, -0.09270096, 0
620, 1342471970, -0.35354877, 0.3774982, 0.088152856, -0.85131246, 0.06615374, -0.070801415, -0.121315956, 0
621, 1342488637, -0.3535082, 0.37780875, 0.088110946, -0.8511958, 0.07129219, -0.065395534, -0.105145454, 0
623, 1342521971, -0.35351893, 0.37831837, 0.08803975, -0.8509724, 0.09237824, -0.08174729, -0.105397224, 0
624, 1342538638, -0.3535646, 0.37848824, 0.08802014, -0.85087985, 0.11317419, -0.07137741, -0.1073637, 0
625, 1342555305, -0.3536149, 0.37855735, 0.087983996, -0.850832, 0.07851966, -0.027193816, -0.11385441, 0
627, 1342588639, -0.35364512, 0.37865326, 0.087977685, -0.8507772, 0.06680749, -0.07624541, -0.105137825, 0
629, 1342621973, -0.35372683, 0.3786863, 0.08800804, -0.85072553, 0.06752441, -0.05910744, -0.09853268, 0
632, 1342671974, -0.35381374, 0.37869993, 0.08809692, -0.85067415, 0.07697082, -0.07309745, -0.1272707, 0
633, 1342688641, -0.35388157, 0.3786628, 0.08815718, -0.8506562, 0.08192549, -0.066479236, -0.113274574, 0
635, 1342721975, -0.3540321, 0.37850454, 0.08824038, -0.8506554, 0.056196716, -0.046632737, -0.10421753, 0
636, 1342738642, -0.35408607, 0.37839502, 0.088283606, -0.8506772, 0.07029748, -0.045565017, -0.11062145, 0
637, 1342755309, -0.35413152, 0.378295, 0.08831392, -0.8506996, 0.056446604, -0.066380665, -0.108799934, 0
639, 1342788643, -0.35418558, 0.37814185, 0.0883925, -0.85073704, 0.045207925, -0.054965746, -0.10234928, 0
640, 1342805310, -0.35422388, 0.37809646, 0.08841357, -0.85073906, 0.050492134, -0.05789522, -0.10252476, 0
641, 1342821977, -0.35427073, 0.37807676, 0.08843701, -0.8507259, 0.06221595, -0.079116546, -0.08799744, 0
643, 1342855311, -0.35432637, 0.37808767, 0.08846708, -0.8506946, 0.0772239, -0.02267226, -0.09824562, 0
644, 1342871978, -0.35433117, 0.3780805, 0.08846734, -0.85069585, 0.08280479, -0.038865328, -0.11070156, 0
647, 1342921979, -0.3542378, 0.37796712, 0.0884599, -0.85078585, 0.0661759, -0.08196298, -0.10495186, 0
648, 1342938646, -0.3542554, 0.37789807, 0.088481076, -0.85080695, 0.057076354, -0.067714706, -0.102249146, 0
649, 1342955313, -0.35425022, 0.37783447, 0.08849931, -0.85083544, 0.0646775, -0.034392722, -0.110630035, 0
651, 1342988647, -0.3542373, 0.3776889, 0.08854957, -0.8509004, 0.075059086, -0.07586712, -0.0985508, 0
652, 1343005314, -0.35424885, 0.37760565, 0.08858824, -0.85092837, 0.06308692, -0.055284142, -0.12048149, 0
654, 1343038648, -0.35433882, 0.37721372, 0.0887724, -0.85104567, 0.04217114, -0.033522025, -0.10675335, 0
655, 1343055315, -0.35447466, 0.377191, 0.08876297, -0.85100013, -0.06010649, -0.006101568, -0.086922646, 0
656, 1343071982, -0.35461053, 0.37732255, 0.088752575, -0.85088634, 0.015575556, -0.083760254, -0.12821293, 0
659, 1343121983, -0.3544505, 0.3771852, 0.08902572, -0.85098535, 0.1237247, 0.094060846, -0.14812279, 0
662, 1343171984, -0.3533151, 0.37736797, 0.08880059, -0.8513999, -0.041500602, 0.0020113932, -0.09323692, 0
663, 1343188651, -0.35282397, 0.3779108, 0.08855573, -0.85138845, -0.056878544, -0.005844193, -0.081214905, 0
664, 1343205318, -0.35233185, 0.3786607, 0.0882379, -0.8512918, 0.014452403, -0.055251062, -0.071035385, 0
666, 1343238652, -0.35173717, 0.3803934, 0.08760145, -0.850831, 0.07222067, -0.17569683, -0.110183716, 0
667, 1343255319, -0.35165092, 0.38123578, 0.08740304, -0.8505099, 0.076357, -0.14486802, -0.10313797, 0
668, 1343271986, -0.35162467, 0.38201234, 0.08728861, -0.8501839, 0.12224731, -0.081688955, -0.10193443, 0
670, 1343305320, -0.35136092, 0.3830896, 0.086980455, -0.8498398, 0.14270252, 0.013973918, -0.1030283, 0
671, 1343321987, -0.35107633, 0.38340053, 0.086810224, -0.8498345, 0.14747016, -0.0038290005, -0.11841774, 0
672, 1343338654, -0.3507515, 0.38363063, 0.08668661, -0.8498775, 0.109130144, -0.07986934, -0.094397545, 0
676, 1343405322, -0.35019913, 0.38435248, 0.08671238, -0.84977645, 0.069106326, -0.035863996, -0.11218071, 0
678, 1343438656, -0.34999496, 0.38456044, 0.08662218, -0.8497756, 0.1014969, -0.02802506, -0.10984516, 0
679, 1343455323, -0.34981844, 0.38462797, 0.08653917, -0.8498262, 0.05263772, -0.04157665, -0.11331463, 0
681, 1343488657, -0.34949908, 0.38488618, 0.08641883, -0.849853, 0.004545527, -0.09753547, -0.10439587, 0
682, 1343505324, -0.34945324, 0.3851491, 0.08641245, -0.84975344, 0.02120677, -0.12571867, -0.09501457, 0
683, 1343521991, -0.34948885, 0.3854712, 0.08643512, -0.8495904, 0.034835666, -0.09600753, -0.082837105, 0
685, 1343555325, -0.3496276, 0.38617244, 0.086534746, -0.84920466, 0.09086805, -0.026220193, -0.08443928, 0
686, 1343571992, -0.34966218, 0.38648814, 0.08657716, -0.8490426, 0.10754572, -0.016046554, -0.11922836, 0
687, 1343588659, -0.34964585, 0.38677087, 0.08660236, -0.84891784, 0.0889011, -0.04366918, -0.10183525, 0
689, 1343621993, -0.34964317, 0.38723713, 0.08658589, -0.8487079, 0.09506601, -0.058960035, -0.10953045, 0
693, 1343688661, -0.3495448, 0.3876259, 0.086415626, -0.84858835, 0.06986003, -0.067756385, -0.08817673, 0
694, 1343705328, -0.34954417, 0.38766432, 0.086375296, -0.84857523, 0.08761311, -0.06349377, -0.10538101, 0
695, 1343721995, -0.34955996, 0.3876781, 0.08635694, -0.84856427, 0.07476576, -0.07693171, -0.10800362, 0
697, 1343755329, -0.3496023, 0.3876151, 0.08639528, -0.8485716, 0.074522234, -0.037493963, -0.107831, 0
698, 1343771996, -0.34958285, 0.3875669, 0.086419865, -0.8485992, 0.08081102, -0.059968974, -0.098680496, 0
699, 1343788663, -0.34957507, 0.38751796, 0.08642362, -0.8486243, 0.071665235, -0.090503186, -0.08911991, 0
701, 1343821997, -0.34963495, 0.38734862, 0.08641725, -0.84867764, 0.080936894, -0.07712437, -0.10371113, 0
702, 1343838664, -0.34970415, 0.38723546, 0.08643562, -0.8486989, 0.043253556, -0.057635274, -0.11019802, 0
703, 1343855331, -0.34975806, 0.38714814, 0.08647222, -0.84871274, 0.04821887, -0.053054154, -0.11969662, 0
706, 1343905332, -0.34984407, 0.38727102, 0.08656271, -0.848612, 0.048661843, -0.06083229, -0.10053253, 0
709, 1343955333, -0.34993446, 0.38761044, 0.08659139, -0.8484169, 0.078177206, -0.06301713, -0.12661552, 0
710, 1343972000, -0.3499364, 0.3876935, 0.08660337, -0.84837687, 0.07863136, -0.06990804, -0.08505821, 0
712, 1344005334, -0.34994167, 0.38778567, 0.08652, -0.84834105, 0.08503285, -0.038953837, -0.08843517, 0
713, 1344022001, -0.34993663, 0.3878263, 0.086458944, -0.8483309, 0.083188675, -0.043661244, -0.10118675, 0
714, 1344038668, -0.34991673, 0.38785025, 0.08638297, -0.84833586, 0.058073808, -0.04561788, -0.09102726, 0
716, 1344072002, -0.34987822, 0.3879528, 0.08627091, -0.8483163, 0.06081402, -0.06917402, -0.10114288, 0
717, 1344088669, -0.34987742, 0.38805872, 0.08622713, -0.8482725, 0.04763712, -0.055511344, -0.11843395, 0
718, 1344105336, -0.34987924, 0.38818505, 0.08616325, -0.84822047, 0.077432714, -0.044525232, -0.09339714, 0
721, 1344155337, -0.34971532, 0.38865075, 0.085950814, -0.8480965, 0.053148698, -0.086149715, -0.09578705, 0
722, 1344172004, -0.349686, 0.38883844, 0.08590865, -0.8480268, 0.06838234, -0.039813694, -0.09363747, 0
724, 1344205338, -0.34962824, 0.3892303, 0.08579065, -0.84788275, 0.09817966, -0.03193419, -0.12597942, 0
725, 1344222005, -0.34958023, 0.3893837, 0.08571281, -0.8478401, 0.07631777, -0.029008517, -0.10047531, 0
726, 1344238672, -0.34952044, 0.38951182, 0.08561854, -0.8478153, 0.07377945, -0.048635636, -0.10766888, 0
728, 1344272006, -0.34943855, 0.38980508, 0.0854741, -0.84772885, 0.07490757, -0.072490394, -0.11267471, 0
729, 1344288673, -0.34945557, 0.38994724, 0.08538223, -0.8476657, 0.097895294, -0.0924511, -0.10623932, 0
730, 1344305340, -0.34950686, 0.3900473, 0.08529466, -0.8476073, 0.07079675, -0.052281693, -0.12897682, 0
732, 1344338674, -0.34953696, 0.39016747, 0.085151695, -0.847554, 0.077900216, -0.039027486, -0.10010815, 0
733, 1344355341, -0.34952173, 0.39024353, 0.08509151, -0.84753126, 0.06993198, -0.034415074, -0.12315369, 0
736, 1344405342, -0.34944922, 0.3906961, 0.08497652, -0.8473643, 0.067266054, -0.038183834, -0.1208992, 0
739, 1344455343, -0.34929338, 0.3915142, 0.084867135, -0.8470618, 0.052971203, -0.035848908, -0.1008358, 0
740, 1344472010, -0.34921512, 0.39184862, 0.084801026, -0.84694606, 0.06939024, -0.04700064, -0.11405277, 0
741, 1344488677, -0.34916323, 0.39215857, 0.084736764, -0.8468304, 0.07228568, -0.063430406, -0.11027527, 0
743, 1344522011, -0.3490539, 0.39261305, 0.084671766, -0.8466713, 0.10867393, -0.047380276, -0.11608124, 0
744, 1344538678, -0.3490147, 0.3927071, 0.084644094, -0.84664655, 0.09255686, -0.0624902, -0.11309147, 0
745, 1344555345, -0.34896806, 0.39272833, 0.08464991, -0.8466553, 0.10688716, -0.05488629, -0.123301506, 0
747, 1344588679, -0.34880495, 0.39268562, 0.084621996, -0.8467453, 0.087594084, -0.032890603, -0.11858082, 0
748, 1344605346, -0.34869298, 0.39265665, 0.08459567, -0.8468075, 0.067697294, -0.06915446, -0.107245445, 0
751, 1344655347, -0.34829837, 0.39268133, 0.084504955, -0.84696734, 0.06420169, -0.040188525, -0.11323738, 0
752, 1344672014, -0.34814528, 0.39278498, 0.08443719, -0.846989, 0.040643986, -0.036986478, -0.10375881, 0
755, 1344722015, -0.34759077, 0.39373085, 0.08422077, -0.8467992, 0.049564194, -0.061513335, -0.11352253, 0
756, 1344738682, -0.34744385, 0.3941595, 0.08414992, -0.8466671, 0.08123263, -0.046435934, -0.1162653, 0
757, 1344755349, -0.34728512, 0.3946358, 0.08406661, -0.84651875, 0.06790477, -0.029263098, -0.12486839, 0
759, 1344788683, -0.34690407, 0.39593655, 0.0837052, -0.8461032, 0.024075754, -0.05727944, -0.102526665, 0
760, 1344805350, -0.34674037, 0.3968307, 0.08346045, -0.8457755, 0.017554177, -0.06397399, -0.09137726, 0
762, 1344838684, -0.34636623, 0.39891306, 0.08281477, -0.84501225, 0.04789768, 0.0012313329, -0.0991621, 0
763, 1344855351, -0.34602046, 0.40003988, 0.08243298, -0.84465843, 0.07213227, -0.021501724, -0.093167305, 0
766, 1344905352, -0.34488896, 0.4030181, 0.08159794, -0.8437861, 0.1287367, -0.081377715, -0.08621979, 0
767, 1344922019, -0.34455884, 0.40371013, 0.081465304, -0.8436031, 0.12652901, -0.1180553, -0.10796261, 0
768, 1344938686, -0.34427312, 0.40417436, 0.081422724, -0.8435014, 0.15495682, -0.06714217, -0.095617294, 0
771, 1344988687, -0.3435892, 0.4044079, 0.081192605, -0.84369063, 0.1384691, -0.078279935, -0.12471771, 0
772, 1345005354, -0.3434395, 0.4041164, 0.08117149, -0.8438933, 0.13537872, -0.098069996, -0.1056366, 0
774, 1345038688, -0.34312195, 0.40316358, 0.081248954, -0.84447044, 0.11723338, -0.013197658, -0.12653542, 0
775, 1345055355, -0.3429204, 0.40254313, 0.081298076, -0.8448436, 0.08459976, -0.062054794, -0.10215378, 0
776, 1345072022, -0.34274718, 0.4018776, 0.08135229, -0.8452254, 0.06396986, -0.045045126, -0.095929146, 0
778, 1345105356, -0.3424048, 0.4007639, 0.081436284, -0.8458845, 0.021055255, -0.06063124, -0.09362507, 0
780, 1345138690, -0.34223574, 0.39999923, 0.08156179, -0.8463028, 0.044338822, -0.067335516, -0.118136406, 0
782, 1345172024, -0.342337, 0.39960203, 0.08162042, -0.8464438, 0.021599425, -0.036591083, -0.10353279, 0
783, 1345188691, -0.34242937, 0.39958322, 0.0815952, -0.8464178, 0.019640502, -0.029330377, -0.096217155, 0
784, 1345205358, -0.3424998, 0.39968553, 0.08152354, -0.84634787, 0.02698905, 0.003103701, -0.10382843, 0
787, 1345255359, -0.34263134, 0.40026367, 0.08099863, -0.8460717, 0.062144928, -0.034438316, -0.10194874, 0
789, 1345288693, -0.34262565, 0.4005398, 0.080721155, -0.84596986, 0.086917736, -0.036509834, -0.09681702, 0
790, 1345305360, -0.34260002, 0.40060645, 0.08059395, -0.8459608, 0.10037106, -0.05943109, -0.11030674, 0
791, 1345322027, -0.34260464, 0.40057442, 0.08049373, -0.8459837, 0.13014673, -0.108600475, -0.123550415, 0
793, 1345355361, -0.34270084, 0.40025195, 0.0804049, -0.84610564, 0.09175117, -0.030107195, -0.117383, 0
795, 1345388695, -0.34264904, 0.39985055, 0.08038373, -0.84631854, 0.083362065, -0.06595755, -0.1135931, 0
797, 1345422029, -0.3426501, 0.39941868, 0.08039593, -0.84652084, 0.085367225, -0.055484522, -0.106126785, 0
798, 1345438696, -0.34266332, 0.39922452, 0.08039979, -0.84660673, 0.06241376, -0.08546677, -0.11136055, 0
799, 1345455363, -0.34272763, 0.39903674, 0.08040872, -0.8466684, 0.04927589, -0.073902994, -0.1056118, 0
801, 1345488697, -0.34286144, 0.39861923, 0.08048929, -0.8468031, 0.0591534, -0.029867478, -0.10679436, 0
802, 1345505364, -0.3428872, 0.39843756, 0.08053226, -0.8468741, 0.047730606, -0.036743406, -0.10604, 0
803, 1345522031, -0.34290397, 0.39829445, 0.08056485, -0.8469316, 0.049147174, -0.047893014, -0.08012962, 0
805, 1345555365, -0.34298286, 0.3981265, 0.08057228, -0.8469779, 0.049050253, -0.044954825, -0.09788227, 0
806, 1345572032, -0.343033, 0.39813432, 0.08056693, -0.84695446, 0.031115824, -0.039399523, -0.08281517, 0
807, 1345588699, -0.3430535, 0.39823848, 0.0805542, -0.84689844, 0.044548117, -0.040992834, -0.08883476, 0
810, 1345638700, -0.3432186, 0.3987329, 0.08050379, -0.8466036, 0.07332837, -0.053509224, -0.11686802, 0
812, 1345672034, -0.34341148, 0.39907423, 0.08052104, -0.84636277, 0.08221404, -0.05017173, -0.09392166, 0
813, 1345688701, -0.3435247, 0.399189, 0.08052741, -0.84626216, 0.09231459, -0.069724195, -0.11021328, 0
814, 1345705368, -0.3436628, 0.39924726, 0.080573015, -0.84617424, 0.08803859, -0.07133226, -0.10861778, 0
817, 1345755369, -0.34411266, 0.39907148, 0.080715775, -0.8460608, 0.102025956, -0.014467323, -0.106692314, 0
818, 1345772036, -0.34420457, 0.39888194, 0.08075397, -0.84610915, 0.08248706, -0.03811913, -0.09160137, 0
820, 1345805370, -0.34433115, 0.39852592, 0.08089245, -0.846212, 0.062356427, -0.019244354, -0.095944405, 0
821, 1345822037, -0.34435192, 0.39844093, 0.08092959, -0.8462401, 0.059188746, -0.011249854, -0.08396053, 0
822, 1345838704, -0.34435982, 0.39842016, 0.08093404, -0.84624624, 0.03206475, -0.037655674, -0.10209465, 0
825, 1345888705, -0.34434786, 0.3985972, 0.080904625, -0.8461706, 0.06841628, -0.069484144, -0.101055145, 0
826, 1345905372, -0.34439033, 0.3986141, 0.08090801, -0.846145, 0.0913151, -0.051063657, -0.12646675, 0
828, 1345938706, -0.34450597, 0.39845562, 0.080956414, -0.846168, 0.10369269, -0.03668529, -0.11944294, 0
829, 1345955373, -0.34454328, 0.39831364, 0.08098466, -0.8462169, 0.09079708, -0.02394036, -0.124414444, 0
830, 1345972040, -0.34452227, 0.39816502, 0.08098495, -0.8462954, 0.10431475, -0.0098801665, -0.11371899, 0
833, 1346022041, -0.34430978, 0.39798233, 0.0808231, -0.84648323, 0.04327873, -0.06623192, -0.09755039, 0
834, 1346038708, -0.3442736, 0.39796963, 0.08079721, -0.84650636, 0.053160574, -0.087575056, -0.09340477, 0
836, 1346072042, -0.34431505, 0.39800256, 0.08082892, -0.846471, 0.0825715, -0.09124871, -0.11752224, 0
837, 1346088709, -0.3443639, 0.39799097, 0.08088818, -0.84645087, 0.07692995, -0.03145777, -0.11326313, 0
840, 1346138710, -0.34421143, 0.39775607, 0.08101843, -0.8466108, 0.08357563, -0.03580588, -0.09348202, 0
841, 1346155377, -0.3441628, 0.39765546, 0.08106384, -0.84667355, 0.046462867, -0.086657986, -0.111317635, 0
843, 1346188711, -0.34422985, 0.39748615, 0.081180066, -0.8467146, 0.06212973, -0.047308415, -0.09402084, 0
844, 1346205378, -0.34423763, 0.39741263, 0.08125105, -0.84673923, 0.06663312, -0.023052009, -0.10731888, 0
845, 1346222045, -0.34422508, 0.39735916, 0.08130339, -0.8467643, 0.08175213, -0.021926174, -0.102968216, 0
847, 1346255379, -0.34423226, 0.39725658, 0.08137753, -0.8468024, 0.067856774, -0.06774476, -0.082616806, 0
849, 1346288713, -0.34433976, 0.39706412, 0.081507206, -0.84683657, 0.0911017, -0.049703248, -0.11226082, 0
851, 1346322047, -0.344476, 0.39670038, 0.081704386, -0.8469326, 0.07530137, -0.032782085, -0.10222244, 0
852, 1346338714, -0.34451568, 0.39653572, 0.08179798, -0.84698445, 0.03919928, -0.044184487, -0.094423294, 0
855, 1346388715, -0.34470823, 0.39633486, 0.0820193, -0.8469788, 0.053055383, -0.030714033, -0.09450817, 0
856, 1346405382, -0.344778, 0.3963046, 0.08206651, -0.84695995, 0.08349939, -0.032909714, -0.09931183, 0
857, 1346422049, -0.34482363, 0.39624512, 0.08211738, -0.8469643, 0.09317512, -0.03653241, -0.089725494, 0
859, 1346455383, -0.34485787, 0.39609998, 0.08222483, -0.8470078, 0.07124814, -0.024377553, -0.11138916, 0
860, 1346472050, -0.34486374, 0.39605218, 0.08226917, -0.8470234, 0.06758671, -0.057748485, -0.10519123, 0
861, 1346488717, -0.34489962, 0.3959942, 0.08231144, -0.84703195, 0.074710295, -0.059316427, -0.11074543, 0
863, 1346522051, -0.34498218, 0.3958801, 0.08236628, -0.8470463, 0.078670606, -0.027230695, -0.09635353, 0
865, 1346555385, -0.34502813, 0.39578977, 0.08239342, -0.8470672, 0.07499257, -0.036752123, -0.10776234, 0
867, 1346588719, -0.3450629, 0.39570928, 0.08240964, -0.847089, 0.07185754, -0.04329379, -0.0997839, 0
870, 1346638720, -0.3451697, 0.39535522, 0.08243545, -0.8472082, 0.07587597, -0.035456866, -0.10423756, 0
871, 1346655387, -0.34518006, 0.39519998, 0.08243497, -0.8472765, 0.07382695, -0.038839288, -0.09990311, 0
872, 1346672054, -0.34520584, 0.39504668, 0.08242566, -0.8473384, 0.059674524, -0.049628146, -0.09147835, 0
874, 1346705388, -0.34527364, 0.39472815, 0.08244426, -0.84745735, 0.07883031, -0.0260615, -0.087283134, 0
875, 1346722055, -0.3453148, 0.39455986, 0.082430415, -0.84752035, 0.07604958, -0.02704775, -0.10985088, 0
876, 1346738722, -0.3453241, 0.39441222, 0.08239564, -0.84758866, 0.07464701, -0.01749961, -0.09133053, 0
878, 1346772056, -0.3453318, 0.39410615, 0.08235182, -0.8477321, 0.053470388, -0.04301272, -0.13120556, 0
879, 1346788723, -0.34536174, 0.39401683, 0.08233229, -0.8477633, 0.06134858, -0.06465973, -0.11291504, 0
880, 1346805390, -0.34539086, 0.39394918, 0.08234587, -0.8477816, 0.039492503, -0.0524928, -0.090257645, 0
882, 1346838724, -0.34547552, 0.3938495, 0.082378685, -0.8477903, 0.08029491, -0.059768595, -0.10789776, 0
884, 1346872058, -0.34552234, 0.3937024, 0.08243573, -0.847834, 0.08691721, -0.026486173, -0.10414219, 0
886, 1346905392, -0.34548607, 0.3935699, 0.082480654, -0.84790576, 0.057344567, -0.06624454, -0.08879566, 0
887, 1346922059, -0.34549463, 0.3935286, 0.08248865, -0.8479207, 0.0487843, -0.042932034, -0.09676552, 0
888, 1346938726, -0.3454988, 0.39352816, 0.082474135, -0.84792066, 0.0721718, -0.015202345, -0.099246025, 0
890, 1346972060, -0.34548, 0.39355803, 0.08242904, -0.84791875, 0.08497398, -0.028265784, -0.099264145, 0
891, 1346988727, -0.34546578, 0.3935396, 0.08241922, -0.8479342, 0.10535909, -0.05969774, -0.110702515, 0
892, 1347005394, -0.3454348, 0.39349818, 0.08242294, -0.8479657, 0.105730176, -0.056268714, -0.11437225, 0
895, 1347055395, -0.345529, 0.39322984, 0.08241976, -0.84805214, 0.05149149, -0.035530403, -0.08178425, 0
897, 1347088729, -0.34550953, 0.39305365, 0.082441136, -0.8481396, 0.07320468, -0.042363975, -0.09658432, 0
899, 1347122063, -0.34552607, 0.3929485, 0.08242851, -0.84818286, 0.058688104, -0.04060906, -0.08671951, 0
901, 1347155397, -0.34556794, 0.39287362, 0.08242291, -0.8482009, 0.072639, -0.0466856, -0.10255909, 0
902, 1347172064, -0.3456216, 0.39282018, 0.082436964, -0.8482024, 0.061481096, -0.043743722, -0.10295963, 0
903, 1347188731, -0.34565565, 0.39274135, 0.08247256, -0.8482216, 0.06113856, -0.036169983, -0.08670139, 0
905, 1347222065, -0.3457232, 0.3925442, 0.08249766, -0.84828293, 0.06741179, -0.024298653, -0.102573395, 0
906, 1347238732, -0.3457355, 0.392436, 0.08251353, -0.8483264, 0.073194936, -0.037501004, -0.09884548, 0
907, 1347255399, -0.34576333, 0.39232773, 0.08253486, -0.84836304, 0.07565844, -0.060284015, -0.11663437, 0
909, 1347288733, -0.34588432, 0.39212635, 0.08259648, -0.84840083, 0.065469794, -0.04023937, -0.09921169, 0
911, 1347322067, -0.34596863, 0.39199057, 0.08262765, -0.8484263, 0.072268106, -0.017397355, -0.105119705, 0
914, 1347372068, -0.34598204, 0.39179575, 0.082633436, -0.84851015, 0.07354124, -0.07405063, -0.10229683, 0
915, 1347388735, -0.34601852, 0.3916845, 0.08265895, -0.8485442, 0.039133795, -0.07668104, -0.104795456, 0
917, 1347422069, -0.34643948, 0.39121783, 0.08278493, -0.8485755, 0.11910994, 0.12841132, -0.10922241, 0
918, 1347438736, -0.34648913, 0.39109573, 0.08273318, -0.84861654, -0.08386854, 0.03525917, -0.0868454, 0
919, 1347455403, -0.34650594, 0.39115673, 0.08269397, -0.8485852, 0.038329706, -0.0818633, -0.12755775, 0
921, 1347488737, -0.34669325, 0.39140958, 0.08272109, -0.84838957, 0.0748746, -0.008666044, -0.119348526, 0
922, 1347505404, -0.34671432, 0.39149085, 0.08272863, -0.8483428, 0.11720695, 0.02895208, -0.11648178, 0
924, 1347538738, -0.34641317, 0.3916759, 0.082599096, -0.84839284, 0.042513784, 0.031465035, -0.12349129, 0
925, 1347555405, -0.3461607, 0.39186445, 0.08247704, -0.84842074, 0.039333, -0.023623532, -0.0950861, 0
929, 1347622073, -0.3454269, 0.39311415, 0.08200294, -0.84818774, 0.09125508, -0.0439926, -0.09231949, 0
930, 1347638740, -0.3452876, 0.3933755, 0.08191098, -0.84813213, 0.1120452, -0.03554549, -0.10125542, 0
932, 1347672074, -0.34489846, 0.3937845, 0.08178789, -0.8481126, 0.08303788, -0.043833014, -0.099910736, 0
933, 1347688741, -0.34469053, 0.39396328, 0.08174995, -0.84811777, 0.07501687, -0.047722362, -0.10870266, 0
934, 1347705408, -0.3445007, 0.39416692, 0.081732996, -0.848102, 0.046128407, -0.06609893, -0.09848595, 0
936, 1347738742, -0.3442128, 0.3946735, 0.08173276, -0.8479831, 0.09199645, -0.05372201, -0.08849716, 0
937, 1347755409, -0.34410247, 0.39492857, 0.08177171, -0.84790546, 0.0991984, -0.034703515, -0.090418816, 0
938, 1347772076, -0.34396827, 0.39517438, 0.08183618, -0.8478392, 0.058599398, -0.008683478, -0.090587616, 0
940, 1347805410, -0.34367466, 0.39562982, 0.081920594, -0.8477377, 0.06991329, -0.079277255, -0.11090374, 0
941, 1347822077, -0.3436064, 0.39584818, 0.08197663, -0.8476579, 0.0416805, -0.06728187, -0.08799839, 0
945, 1347888745, -0.3436045, 0.3966364, 0.08241808, -0.84724736, 0.07495395, -0.008178898, -0.11439514, 0
946, 1347905412, -0.34363276, 0.39687806, 0.08249923, -0.8471149, 0.0635984, -0.036339965, -0.09003544, 0
948, 1347938746, -0.34373462, 0.39741474, 0.08258552, -0.84681344, 0.066244125, -0.03083216, -0.09719849, 0
949, 1347955413, -0.34380323, 0.39767063, 0.08258461, -0.8466657, 0.08394862, -0.013801813, -0.09744358, 0
951, 1347988747, -0.3438718, 0.39799607, 0.08252009, -0.846491, 0.117529675, -0.03973144, -0.09542751, 0
952, 1348005414, -0.3439056, 0.3980332, 0.082466446, -0.84646505, 0.097477995, -0.050307624, -0.099261284, 0
953, 1348022081, -0.3439556, 0.39798364, 0.08243336, -0.8464713, 0.108528025, -0.04668448, -0.115265846, 0
955, 1348055415, -0.344039, 0.39774406, 0.08240464, -0.8465527, 0.08168591, 5.900742E-5, -0.09235287, 0
956, 1348072082, -0.3440688, 0.39761302, 0.08237509, -0.846605, 0.069903284, -0.049621217, -0.06969738, 0
959, 1348122083, -0.34418023, 0.3974003, 0.08230587, -0.84666646, 0.072751455, -0.045887098, -0.10067272, 0
960, 1348138750, -0.34422344, 0.39733067, 0.08229482, -0.8466826, 0.058618173, -0.04334341, -0.10105419, 0
961, 1348155417, -0.34428835, 0.3972608, 0.08229312, -0.84668916, 0.07088426, -0.025505958, -0.11969566, 0
963, 1348188751, -0.34435663, 0.39711374, 0.08228178, -0.8467314, 0.07070788, -0.019504076, -0.11868286, 0
964, 1348205418, -0.3443809, 0.39704597, 0.082280114, -0.8467534, 0.08672174, -0.041123033, -0.10432148, 0
965, 1348222085, -0.34441295, 0.39696878, 0.082275815, -0.8467769, 0.043818124, -0.038348563, -0.10725498, 0
967, 1348255419, -0.3444468, 0.39676946, 0.08229947, -0.8468545, 0.08172824, -0.029292826, -0.104929924, 0
968, 1348272086, -0.34447178, 0.39666697, 0.08231191, -0.84689116, 0.05403367, -0.029974652, -0.08761597, 0
969, 1348288753, -0.3444816, 0.39657328, 0.08236107, -0.84692633, 0.050836876, -0.0567049, -0.10381794, 0
971, 1348322087, -0.3446095, 0.39639297, 0.08238, -0.8469567, 0.1312406, 0.003626833, -0.07485008, 0
975, 1348388755, -0.3449701, 0.39636493, 0.08239238, -0.8468219, 0.07423684, -0.06164968, -0.12242603, 0
976, 1348405422, -0.34501922, 0.39646882, 0.08241975, -0.84675056, 0.09787811, -0.0030892843, -0.15771484, 0
978, 1348438756, -0.34493443, 0.39652497, 0.08235964, -0.84676456, 0.14431936, 0.10820553, -0.12023449, 0
979, 1348455423, -0.34476802, 0.3964965, 0.08219182, -0.8468621, 0.045184456, 0.0130165005, -0.075060844, 0
980, 1348472090, -0.34453705, 0.39662406, 0.08204208, -0.8469109, -0.020141339, -0.008741816, -0.08569622, 0
982, 1348505424, -0.34400362, 0.3973663, 0.08173675, -0.8468093, 0.004538989, -0.06080983, -0.09353161, 0
983, 1348522091, -0.3438081, 0.39788917, 0.08158521, -0.8466578, 0.06305809, -0.08084061, -0.06968975, 0
984, 1348538758, -0.34366727, 0.39839604, 0.081458785, -0.8464888, 0.091416545, -0.064240195, -0.08701801, 0
986, 1348572092, -0.34339425, 0.3991731, 0.08130656, -0.84624803, 0.085799806, -0.04435581, -0.0907383, 0
988, 1348605426, -0.34311724, 0.3996504, 0.08118898, -0.84614646, 0.097606406, -0.026393415, -0.111821175, 0
991, 1348655427, -0.34240645, 0.40004092, 0.08112911, -0.84625554, 0.08544959, -0.02581407, -0.09854317, 0
992, 1348672094, -0.34215915, 0.40012515, 0.08107514, -0.8463209, 0.061011437, -0.0044191866, -0.09430504, 0
994, 1348705428, -0.34158564, 0.40030536, 0.08080995, -0.8464927, 0.05305544, -0.041856155, -0.10174751, 0
995, 1348722095, -0.3413038, 0.40045688, 0.080675624, -0.8465476, 0.05228932, -0.009595299, -0.105106354, 0
996, 1348738762, -0.34100282, 0.40058255, 0.08047969, -0.84662807, 0.08504101, 0.008611619, -0.099544525, 0
998, 1348772096, -0.34035307, 0.40073073, 0.08005109, -0.84686005, 0.093628824, -0.036953174, -0.113370895, 0
999, 1348788763, -0.3399995, 0.4007295, 0.07989137, -0.8470178, 0.07929458, -0.03456818, -0.09109306, 0
1001, 1348822097, -0.33942264, 0.40063423, 0.0795182, -0.8473292, 0.081216924, -0.05455415, -0.10966778, 0
1003, 1348855431, -0.33896688, 0.4005997, 0.07926413, -0.8475517, 0.061972152, -0.094840236, -0.09260273, 0
1005, 1348888765, -0.33879605, 0.400602, 0.079069614, -0.84763706, 0.097808406, -0.07867488, -0.09555626, 0
1007, 1348922099, -0.33875576, 0.40037975, 0.0789271, -0.8477715, 0.07000216, -0.02533888, -0.09831715, 0
1009, 1348955433, -0.33862036, 0.40008983, 0.07891504, -0.84796345, 0.04229209, -0.02185275, -0.086447716, 0
1010, 1348972100, -0.33855516, 0.4000138, 0.078894734, -0.8480272, 0.06012585, -0.042213775, -0.09379196, 0
1011, 1348988767, -0.3385387, 0.39999592, 0.078854665, -0.848046, 0.05229759, -0.049055282, -0.0831995, 0
1013, 1349022101, -0.33855608, 0.39994663, 0.07871202, -0.8480756, 0.09086763, 0.02167584, -0.09740448, 0
1014, 1349038768, -0.338465, 0.39985973, 0.078652106, -0.84815854, 0.1128577, -0.025488747, -0.093408585, 0
1015, 1349055435, -0.3383711, 0.39974248, 0.07860493, -0.8482557, 0.08213506, -0.04117846, -0.0897398, 0
1018, 1349105436, -0.33834967, 0.39945823, 0.07853734, -0.8484042, 0.060645074, -0.067138374, -0.09330845, 0
1019, 1349122103, -0.33842406, 0.39937326, 0.07853668, -0.84841466, 0.0668451, -0.058278322, -0.11651325, 0
1021, 1349155437, -0.33863595, 0.39907244, 0.07861274, -0.84846467, 0.098065026, -0.023421587, -0.113806725, 0
1023, 1349188771, -0.3388086, 0.3987115, 0.07871991, -0.8485555, 0.061663117, -0.043443095, -0.11441231, 0
1025, 1349222105, -0.33901924, 0.39844215, 0.078869574, -0.848584, 0.0596584, -0.037555654, -0.07929802, 0
1026, 1349238772, -0.33914763, 0.39834684, 0.07892701, -0.8485721, 0.0748776, -0.023629567, -0.10686207, 0
1027, 1349255439, -0.33926666, 0.3982511, 0.07898258, -0.84856427, 0.07504596, -0.036280513, -0.10792637, 0
1029, 1349288773, -0.33948216, 0.39803284, 0.0790451, -0.8485747, 0.09719922, -0.011196658, -0.11200428, 0
1030, 1349305440, -0.3395555, 0.397883, 0.07904066, -0.848616, 0.0789854, -0.026446836, -0.11053181, 0
1033, 1349355441, -0.33986872, 0.39747295, 0.07916252, -0.8486714, 0.24209934, -0.17875539, -0.08246517, 0
1034, 1349372108, -0.34004304, 0.39739722, 0.07915877, -0.8486375, -0.029779833, 0.041233446, -0.09620857, 0
1036, 1349405442, -0.34032556, 0.39748612, 0.07916591, -0.8484818, 0.14454013, 0.0023430863, -0.16308022, 0
1037, 1349422109, -0.34035918, 0.3973478, 0.07923904, -0.8485263, 0.12079467, 0.0056219096, -0.1366005, 0
1038, 1349438776, -0.3402888, 0.39714438, 0.079263456, -0.84864753, 0.110671125, 0.06452584, -0.1052351, 0
1040, 1349472110, -0.33985683, 0.3970859, 0.07904946, -0.84886783, -0.049632784, -0.006459189, -0.06905174, 0
1041, 1349488777, -0.33957258, 0.39745313, 0.07887411, -0.84882605, -0.00505712, -0.05531968, -0.10809708, 0
1042, 1349505444, -0.33931428, 0.39798418, 0.07869153, -0.8486976, 0.0057265414, -0.05828514, -0.101408005, 0
1044, 1349538778, -0.33889598, 0.39910895, 0.078333996, -0.8483695, 0.08268465, -0.06367839, -0.09371376, 0
1045, 1349555445, -0.33869764, 0.3995375, 0.07819137, -0.8482601, 0.1436333, -0.047998626, -0.102160454, 0
1048, 1349605446, -0.3379881, 0.4003351, 0.077761665, -0.8482066, 0.06875452, -0.022547204, -0.08570957, 0
1049, 1349622113, -0.33772326, 0.4004852, 0.07766196, -0.84825045, 0.08408591, -0.040322185, -0.08143902, 0
1050, 1349638780, -0.33750528, 0.40054902, 0.077534914, -0.8483185, 0.10455296, -0.045601897, -0.102918625, 0
1053, 1349688781, -0.33691785, 0.40011853, 0.07723084, -0.84878266, 0.10251388, -0.018164674, -0.08463287, 0
1054, 1349705448, -0.33673695, 0.3997446, 0.07704982, -0.8490471, 0.10908681, 0.018190378, -0.080127716, 0
1056, 1349738782, -0.3363448, 0.3989387, 0.07670302, -0.8496127, 0.0367557, -0.06394963, -0.10085392, 0
1057, 1349755449, -0.33618355, 0.39860627, 0.07657509, -0.8498443, 0.032730762, -0.038740158, -0.09344101, 0
1059, 1349788783, -0.33601248, 0.39824736, 0.07631017, -0.85010403, -0.0065685706, -0.073043026, -0.109864235, 0
1060, 1349805450, -0.33603838, 0.39832386, 0.07624764, -0.8500634, -0.014777168, -0.07111601, -0.085513115, 0
1063, 1349855451, -0.3362927, 0.39906317, 0.07584427, -0.8496522, 0.14285168, 0.05356231, -0.104613304, 0
1064, 1349872118, -0.33632776, 0.3991559, 0.07555748, -0.8496204, 0.11813668, -0.0117192315, -0.09225273, 0
1065, 1349888785, -0.33635476, 0.39913094, 0.07532448, -0.84964204, 0.11070745, -0.033102494, -0.12951946, 0
1067, 1349922119, -0.33638194, 0.39873314, 0.07511332, -0.8498368, 0.0717307, -0.05417373, -0.11580658, 0
1069, 1349955453, -0.3366725, 0.39830726, 0.07519322, -0.8499143, 0.025683371, -0.12226449, -0.116378784, 0
1071, 1349988787, -0.33720315, 0.39806065, 0.07565643, -0.84977835, 0.051116996, -0.07145419, -0.12705612, 0
1072, 1350005454, -0.3374837, 0.39791718, 0.075974666, -0.8497058, 0.09397211, -0.031235265, -0.09959507, 0
1073, 1350022121, -0.33777383, 0.39774117, 0.076271154, -0.84964633, 0.06761219, 0.012878928, -0.07301617, 0
1075, 1350055455, -0.33829355, 0.39740777, 0.07681683, -0.8495463, 0.05465266, -0.040802065, -0.085591316, 0
1077, 1350088789, -0.33892497, 0.3968938, 0.07736584, -0.8494851, 0.10235899, -0.032589305, -0.09953308, 0
1079, 1350122123, -0.3393812, 0.39611644, 0.07799997, -0.84960777, 0.06710906, -0.02661704, -0.104019165, 0
1080, 1350138790, -0.339602, 0.3956649, 0.07820801, -0.84971076, 0.0837263, -0.0211593, -0.071819305, 0
1081, 1350155457, -0.3397892, 0.3951476, 0.07833026, -0.8498655, 0.1031194, -0.023149349, -0.102220535, 0
1083, 1350188791, -0.3403634, 0.3939605, 0.07858694, -0.850163, 0.101705655, 0.035809122, -0.086940765, 0
1086, 1350238792, -0.3409338, 0.3915738, 0.07902491, -0.8509962, 0.05512925, -0.10112464, -0.123215675, 0
1087, 1350255459, -0.34122664, 0.3906542, 0.079279155, -0.8512777, 0.109344214, -0.0824603, -0.093008995, 0
1088, 1350272126, -0.34159118, 0.38949415, 0.07951151, -0.85164154, 0.17035331, -0.048411343, -0.09089947, 0
1090, 1350305460, -0.3423537, 0.38628006, 0.08011428, -0.8527419, 0.23202771, -0.004787983, -0.13166237, 0
1092, 1350338794, -0.34301808, 0.3814689, 0.08099412, -0.8545557, 0.188268, -0.21656539, -0.14081001, 0
1094, 1350372128, -0.34424153, 0.37494642, 0.082388274, -0.8568141, 0.182823, -0.037373602, -0.18486023, 0
1095, 1350388795, -0.3448535, 0.37122706, 0.083130196, -0.858115, 0.13554673, 0.03150739, -0.15904713, 0
1096, 1350405462, -0.3454621, 0.3673843, 0.083928846, -0.8594451, 0.036614746, -0.06770364, -0.1350069, 0
1098, 1350438796, -0.34698495, 0.35973683, 0.085603945, -0.86189795, 0.06392018, -0.15490688, -0.05006504, 0
1099, 1350455463, -0.3478422, 0.35592505, 0.086402126, -0.86305463, 0.11601655, -0.18202314, -0.053853035, 0
1102, 1350505464, -0.35001618, 0.34360984, 0.08916667, -0.86687684, 0.11946147, 0.26914498, -0.16818428, 0
1103, 1350522131, -0.3504567, 0.33932045, 0.08961178, -0.86834145, 0.07125031, 0.11016339, -0.14463139, 0
1104, 1350538798, -0.3508373, 0.3351802, 0.08992855, -0.8697619, -0.10151721, 0.07125291, -0.11850929, 0
1107, 1350588799, -0.35235524, 0.325056, 0.0908643, -0.872888, -0.11278277, -0.058029328, -0.036743164, 0
1108, 1350605466, -0.35288256, 0.32248938, 0.09113834, -0.873598, -0.089946784, 0.08768715, -0.13627529, 0
1110, 1350638800, -0.35370815, 0.31848657, 0.09139221, -0.8747054, -0.10415953, -0.024586871, -0.073337555, 0
1111, 1350655467, -0.3540764, 0.31706005, 0.09159918, -0.8750529, -0.15533902, -0.00819689, -0.12792206, 0
1113, 1350688801, -0.3550257, 0.31524986, 0.092131466, -0.8752665, -0.03852271, -0.11670405, -0.055517197, 0
1114, 1350705468, -0.35550433, 0.31458417, 0.09245641, -0.87527746, 0.07510812, 0.076983005, -0.12669945, 0
1115, 1350722135, -0.35582238, 0.31399536, 0.09263777, -0.87534046, 0.07606012, 0.07866885, -0.14759159, 0
1117, 1350755469, -0.35651198, 0.3127732, 0.0930565, -0.87545294, 0.072161436, -0.11798858, -0.0697813, 0
1118, 1350772136, -0.35699943, 0.31202725, 0.09335085, -0.87548923, 0.07804399, -0.14540312, -0.032009125, 0
1119, 1350788803, -0.3575965, 0.31110385, 0.09373244, -0.8755332, 0.13118193, -0.19823185, -0.045225143, 0
1122, 1350838804, -0.35993254, 0.30702874, 0.094912454, -0.8758876, 0.04858789, -0.04059308, -0.097447395, 0
1123, 1350855471, -0.36069977, 0.30555305, 0.09527869, -0.8760479, 0.014576789, -0.1213805, -0.055044174, 0
1125, 1350888805, -0.36210844, 0.30243573, 0.09642453, -0.8764233, 0.055704206, -0.10168499, -0.04793167, 0
1126, 1350905472, -0.36284393, 0.30091903, 0.09705262, -0.8765717, -0.012039274, 0.101256736, -0.19041538, 0
1127, 1350922139, -0.3634852, 0.29964882, 0.09757557, -0.8766832, -0.061826505, 0.15509279, -0.25023842, 0
1129, 1350955473, -0.3644643, 0.29784167, 0.09847782, -0.8767916, 0.0611152, 0.0063424036, -0.08912182, 0
1131, 1350988807, -0.36502844, 0.2965574, 0.09882537, -0.8769529, -0.113004796, 0.5530974, -0.48733997, 0
1133, 1351022141, -0.36484456, 0.29612395, 0.09813377, -0.8772536, 0.006985171, -0.053363606, -0.08171272, 0
1134, 1351038808, -0.36479157, 0.29603755, 0.09794134, -0.87732625, -0.046915762, -0.08386016, -0.116547585, 0
1137, 1351088809, -0.36465228, 0.29581764, 0.0972394, -0.87753636, 0.05860409, -0.05016156, -0.11160946, 0
1138, 1351105476, -0.36462542, 0.2956921, 0.09700533, -0.87761575, 0.04775765, -0.012001528, -0.11249924, 0
1140, 1351138810, -0.36465013, 0.2952342, 0.09657662, -0.8778068, 0.09194982, -0.17411436, -0.010807991, 0
1141, 1351155477, -0.36474988, 0.2948596, 0.09647021, -0.8779028, 0.058295894, -0.046511147, -0.1234951, 0
1142, 1351172144, -0.36486098, 0.29447004, 0.09633326, -0.8780026, 0.07913663, 0.008806075, -0.13402748, 0
1144, 1351205478, -0.3651623, 0.29352224, 0.095876634, -0.87824464, 0.06984347, -0.08278976, -0.075618744, 0
1145, 1351222145, -0.3653663, 0.29295242, 0.09566667, -0.87837285, 0.07186257, -0.047947887, -0.13235188, 0
1148, 1351272146, -0.36572045, 0.29153714, 0.09432537, -0.8788411, -0.029214792, 0.07265836, -0.27320957, 0
1149, 1351288813, -0.3656085, 0.2914711, 0.09367673, -0.8789791, -0.008694235, 0.09651647, -0.18741035, 0
1152, 1351338814, -0.36510324, 0.29144686, 0.09144051, -0.87943244, 0.05744906, -0.07779838, -0.087368965, 0
1153, 1351355481, -0.36488107, 0.29137397, 0.090643816, -0.87963134, -0.045640312, 0.10898145, -0.23823643, 0
1154, 1351372148, -0.36455974, 0.29130748, 0.0898697, -0.8798659, 0.03353499, -0.084843844, -0.109918594, 0
1156, 1351405482, -0.364037, 0.29113927, 0.08872662, -0.8802538, -0.07925613, -0.14314072, -0.10424137, 0
1157, 1351422149, -0.36388618, 0.29115725, 0.08830616, -0.88035256, 0.06646521, -0.0651043, -0.056560516, 0
1158, 1351438816, -0.3637661, 0.29121238, 0.08794462, -0.8804201, 0.06597753, -0.08155831, -0.039211273, 0
1160, 1351472150, -0.3636516, 0.29124382, 0.08754561, -0.8804967, 0.02714048, -0.12866333, -0.06320381, 0
1161, 1351488817, -0.36366487, 0.2912341, 0.08748601, -0.8805003, 0.035007436, -0.084794894, -0.09545231, 0
1164, 1351538818, -0.36370564, 0.29072276, 0.08716259, -0.8806846, 0.056910396, -0.08353819, -0.0853405, 0
1167, 1351588819, -0.36420265, 0.28909376, 0.087101564, -0.88102144, 0.13989083, -0.12417206, -0.12901115, 0
1168, 1351605486, -0.36470056, 0.2882659, 0.0873246, -0.8810648, 0.13812734, -0.13186817, -0.0545187, 0
1169, 1351622153, -0.3652925, 0.28738832, 0.087681666, -0.8810707, 0.1326815, -0.13845208, 0.032322884, 0
1171, 1351655487, -0.36661017, 0.2850233, 0.08783276, -0.8812766, 0.1587268, 0.09996259, -0.122826576, 0
1172, 1351672154, -0.36716273, 0.28363368, 0.08765593, -0.88151234, 0.22632188, 0.07956385, -0.052854538, 0
1173, 1351688821, -0.36766505, 0.28228372, 0.08753932, -0.88174784, 0.004436956, 0.050404407, -0.1259489, 0
1175, 1351722155, -0.36863476, 0.2803827, 0.086982206, -0.8820047, -0.041706678, 0.037646063, -0.22053814, 0
1176, 1351738822, -0.36899263, 0.27972707, 0.08668376, -0.88209265, -0.3307571, -0.1309929, -0.396657, 0
1177, 1351755489, -0.36903697, 0.2794734, 0.086378954, -0.8821844, -0.660693, 0.3218939, -0.71922207, 0
1181, 1351822157, -0.3675281, 0.2821301, 0.08366895, -0.8822299, -0.19345963, 0.006194885, -0.26046753, 0
1183, 1351855491, -0.36606425, 0.28466895, 0.08158474, -0.8822181, -0.15783638, 0.33250776, -0.38882256, 0
1184, 1351872158, -0.36488372, 0.28654087, 0.080130704, -0.8822345, -0.029385751, 0.23286374, -0.19164371, 0
1185, 1351888825, -0.36357534, 0.28872442, 0.0785981, -0.8822006, 0.3192334, 0.28860852, 0.03277111, 0
1187, 1351922159, -0.36293808, 0.2950988, 0.07393755, -0.8807554, 0.051536527, 0.21233653, 0.0082883835, 0
1188, 1351938826, -0.3645834, 0.29995772, 0.06961191, -0.8787849, -1.1609471, -0.09017719, 0.21938229, 0
1190, 1351972160, -0.3652313, 0.31474864, 0.06035951, -0.874014, -0.2880969, 0.8626706, 0.20816994, 0
1191, 1351988827, -0.36342898, 0.32438266, 0.054614782, -0.87161744, -0.15719342, 0.8493625, 0.09443951, 0
1192, 1352005494, -0.36092353, 0.33543164, 0.04706033, -0.86891305, -0.42218676, 0.70520854, -0.028964043, 0
1194, 1352038828, -0.35406235, 0.3654667, 0.025599003, -0.86047834, -0.49777073, 0.6290478, -0.020279884, 0
1196, 1352072162, -0.3440007, 0.4041895, -0.006046002, -0.8475035, -0.2895801, -0.11729066, -0.24156475, 0
1198, 1352105496, -0.3303801, 0.4440997, -0.037961923, -0.8319782, 0.17948583, -0.08292532, -0.63038063, 0
1199, 1352122163, -0.32221732, 0.46234846, -0.05247931, -0.8244149, 0.730403, -0.7171458, -0.833251, 0
1200, 1352138830, -0.3140266, 0.47870788, -0.0656914, -0.81726074, 0.8941175, -0.901282, -0.7903862, 0
1202, 1352172164, -0.29607642, 0.5049806, -0.08558579, -0.8062337, 0.75023776, -1.2913412, -0.8556347, 0
1203, 1352188831, -0.287606, 0.51519895, -0.092650644, -0.8020431, 0.33856213, -1.2734683, -0.08377457, 0
1204, 1352205498, -0.28056747, 0.52380055, -0.0979603, -0.79832524, 0.27830923, -1.2458736, -0.20803928, 0
1206, 1352238832, -0.26965714, 0.5379871, -0.10606616, -0.7915868, -0.24582508, 1.20168, 0.9681387, 0
1207, 1352255499, -0.2626471, 0.548295, -0.11450539, -0.7856729, -1.1211107, 3.187849, 0.8974476, 0
1211, 1352322167, -0.1694566, 0.65580964, -0.20748292, -0.70580006, -6.3115153, 8.758025, 10.524353, 0
1212, 1352338834, -0.12903038, 0.6895698, -0.21998481, -0.67783165, -5.0417013, 10.64854, 5.7911425, 0
1214, 1352372168, -0.052419536, 0.7288076, -0.23128156, -0.6423431, -11.549696, 31.91174, 13.920824, 0
1215, 1352388835, -0.057202794, 0.7279645, -0.24279496, -0.6386315, 4.715253, 26.741531, 3.7668676, 0
1216, 1352405502, -0.07473886, 0.72723913, -0.24644327, -0.63624483, 1.5642842, 12.803836, -2.3721318, 0
1218, 1352438836, -0.09974985, 0.7315585, -0.24939129, -0.6266419, -1.5372583, 9.346219, -5.2874107, 0
1219, 1352455503, -0.113385946, 0.73460233, -0.25123876, -0.6199891, -1.76536, 10.615125, -6.081148, 0
1221, 1352488837, -0.14679481, 0.7390965, -0.25870898, -0.60436875, -6.110372, 9.902521, -7.378255, 0
1222, 1352505504, -0.16109176, 0.73970246, -0.2568192, -0.60078114, -7.6587386, 9.915982, -7.9104614, 0
1223, 1352522171, -0.17283656, 0.73781735, -0.2512778, -0.6021768, -7.7939487, 9.067843, -8.753217, 0
1227, 1352588839, -0.20522375, 0.6816262, -0.19773293, -0.67392486, -7.270711, 3.4403393, -6.7998734, 0
1229, 1352622173, -0.20220014, 0.6245079, -0.16712444, -0.7356486, -3.1430593, 4.2536964, -3.078651, 0
1230, 1352638840, -0.19988474, 0.5934682, -0.15145399, -0.7647924, 0.5011635, 5.4960437, -2.4750023, 0
1231, 1352655507, -0.20127614, 0.5650551, -0.13306044, -0.7889865, 2.2461092, 6.7586126, -0.9708023, 0
1233, 1352688841, -0.22155741, 0.525049, -0.081137255, -0.81771445, 1.6985648, 3.191773, 1.0381031, 0
1234, 1352705508, -0.23919557, 0.51276886, -0.05090352, -0.8229621, -0.28755614, -0.083679676, 5.3692665, 0
1235, 1352722175, -0.25938317, 0.5006627, -0.022639655, -0.8255598, -1.1009066, -4.733721, 6.5090504, 0
1237, 1352755509, -0.29707783, 0.46765164, 0.020119341, -0.8322535, -2.19498, -9.119335, 5.4671383, 0
1238, 1352772176, -0.31172773, 0.44876543, 0.03716478, -0.8366947, -1.0568966, -8.209046, 3.4573946, 0
1241, 1352822177, -0.35043153, 0.39448395, 0.07706629, -0.84595805, 0.6013199, -9.526789, 1.9918365, 0
1243, 1352855511, -0.36679387, 0.3577048, 0.092093416, -0.85383415, 4.18521, -9.400815, 2.2267914, 0
1245, 1352888845, -0.38495427, 0.3235383, 0.10414172, -0.85807467, 5.534246, -7.6951103, 0.7176008, 0
1246, 1352905512, -0.39748436, 0.31105798, 0.11001548, -0.85624176, 5.488493, -9.149787, -2.1828613, 0
1248, 1352938846, -0.4174431, 0.30092713, 0.11393987, -0.8498271, 5.3001623, -14.523713, -4.259269, 0
1249, 1352955513, -0.42011204, 0.29791585, 0.109614104, -0.85014164, 3.6783993, -17.17234, -2.8406305, 0
1250, 1352972180, -0.4165596, 0.296678, 0.10607569, -0.8527675, 3.597383, -16.891714, -4.5480742, 0
1252, 1353005514, -0.39826712, 0.30286336, 0.093782224, -0.86073583, 8.37011, -14.073532, -2.9113622, 0
1253, 1353022181, -0.38864183, 0.30853218, 0.085333005, -0.86399543, 8.291312, -12.700035, -3.6236386, 0
1256, 1353072182, -0.36284143, 0.35200852, 0.039056726, -0.8619252, 9.415779, -11.822298, -2.381116, 0
1257, 1353088849, -0.35516262, 0.37294382, 0.015919745, -0.8570432, 10.377284, -13.382979, -3.019957, 0
1260, 1353138850, -0.35979575, 0.406697, 0.031905036, -0.83912516, -3.7898548, 3.9165125, -3.001268, 0
1261, 1353155517, -0.35865542, 0.41730285, 0.026428403, -0.834584, 3.0067055, 4.173455, -0.17291546, 0
1262, 1353172184, -0.35442278, 0.43032768, 0.016444532, -0.83002186, -0.4380399, 1.2614166, -0.26735687, 0
1264, 1353205518, -0.34703693, 0.4578916, -0.009192942, -0.8184256, -0.3189585, -0.5037153, -0.32674694, 0
1265, 1353222185, -0.3450039, 0.46930903, -0.0210285, -0.81257826, 1.6242015, -1.7086624, -0.6320801, 0
1266, 1353238852, -0.3433736, 0.47641608, -0.028992934, -0.8088795, 2.489713, -1.7850845, -0.63626003, 0
1268, 1353272186, -0.33728516, 0.4814173, -0.036461543, -0.8081776, -0.7342783, -0.30961663, 0.24155903, 0
1270, 1353305520, -0.32938144, 0.48908648, -0.0380344, -0.80675894, -0.9481299, 0.21607143, -0.1406374, 0
1272, 1353338854, -0.31410062, 0.5083035, -0.046202466, -0.8005235, -0.46819282, 1.8458678, 0.2770853, 0
1273, 1353355521, -0.30267382, 0.5250902, -0.056566745, -0.79339355, -1.4221056, 1.8509738, 0.3294878, 0
1275, 1353388855, -0.27369243, 0.57519543, -0.09283052, -0.76526433, -2.9819188, 2.9136941, 1.0484362, 0
1276, 1353405522, -0.2533975, 0.6103044, -0.121653855, -0.74062324, -3.9154065, 2.6368146, 2.5314474, 0
1277, 1353422189, -0.22706062, 0.65306467, -0.15077543, -0.70655566, -5.790319, 8.227925, 5.797222, 0
1279, 1353455523, -0.14941199, 0.7508006, -0.20037064, -0.6114168, -10.715694, 17.994312, 12.648203, 0
1280, 1353472190, -0.10914418, 0.78594625, -0.22357498, -0.56603414, -20.508047, 36.011204, 27.122795, 0
1281, 1353488857, -0.09503126, 0.79407936, -0.22253317, -0.55757535, -6.4236703, 26.368242, 10.168383, 0
1283, 1353522191, -0.11540766, 0.7818271, -0.2587062, -0.55543023, -3.0536923, -0.006590503, -8.425546, 0
1285, 1353555525, -0.09719184, 0.78719395, -0.26549277, -0.5480853, -6.0133862, 19.00607, -8.780823, 0
1287, 1353588859, -0.08899501, 0.7885222, -0.2587143, -0.5508029, -9.311582, 12.368826, -9.996782, 0
1289, 1353622193, -0.08207217, 0.77551854, -0.24617372, -0.5755329, -7.060718, 10.573693, -9.447795, 0
1291, 1353655527, -0.07537191, 0.7502026, -0.22984913, -0.6153771, -4.260723, 8.039091, -7.869054, 0
1292, 1353672194, -0.0749887, 0.73331773, -0.22086637, -0.6386268, -2.2926712, 8.412987, -7.212999, 0
1293, 1353688861, -0.078410506, 0.7151789, -0.21158655, -0.6615181, -0.7871736, 6.8888593, -7.442057, 0
1295, 1353722195, -0.09643852, 0.67730415, -0.18551692, -0.70536965, -1.3058985, 7.7839484, -3.780501, 0
1296, 1353738862, -0.11129615, 0.6572166, -0.16561417, -0.72681206, -1.825185, 4.731982, -3.624249, 0
1297, 1353755529, -0.12592506, 0.63728595, -0.14067632, -0.747144, -1.642234, 1.6445752, -3.6586003, 0
1300, 1353805530, -0.17149036, 0.58291656, -0.06252567, -0.7917666, -4.924081, 0.14340553, 1.9441633, 0
1302, 1353838864, -0.20503144, 0.54575336, -0.017533716, -0.8122882, -1.7478403, -2.3540366, 5.3994026, 0
1303, 1353855531, -0.22198139, 0.52541554, 8.896459E-5, -0.8213813, -0.51121294, -1.7929962, 6.602503, 0
1306, 1353905532, -0.28257683, 0.4681887, 0.04593453, -0.8359688, 0.9556676, -1.3351115, 4.810087, 0
1307, 1353922199, -0.30431303, 0.45030364, 0.058639783, -0.83736837, 0.4110816, -2.0151517, 4.7497177, 0
1308, 1353938866, -0.32522085, 0.4317849, 0.06951598, -0.83843, 0.70597494, -2.1699345, 4.329504, 0
1310, 1353972200, -0.36334166, 0.39340898, 0.08883166, -0.8398365, 2.015867, -2.315495, 4.397232, 0
1311, 1353988867, -0.381204, 0.37354994, 0.09735287, -0.84004194, 2.656772, -2.2635267, 4.206522, 0
1312, 1354005534, -0.39837286, 0.35379955, 0.10528271, -0.8396694, 3.219798, -2.3498354, 3.3583336, 0
1315, 1354055535, -0.4444315, 0.30207625, 0.13034618, -0.8332135, 1.9106202, -5.3517084, 1.5192423, 0
1316, 1354072202, -0.45522338, 0.2874839, 0.1419414, -0.8306512, 1.3224928, -7.2688885, 2.0449047, 0
1318, 1354105536, -0.4699952, 0.25998536, 0.16437636, -0.8273433, 2.2752686, -9.092091, -1.8186717, 0
1319, 1354122203, -0.47317702, 0.24742714, 0.17065553, -0.8281088, 3.215158, -9.622815, -3.0682907, 0
1322, 1354172204, -0.4677666, 0.22537103, 0.17151532, -0.8372508, 4.861832, -11.433559, -3.372614, 0
1323, 1354188871, -0.46518007, 0.22205265, 0.17031145, -0.83982027, 5.503049, -11.379783, -2.9963727, 0
1324, 1354205538, -0.46271646, 0.22053619, 0.16849346, -0.84194493, 5.8761683, -10.934777, -4.70357, 0
1326, 1354238872, -0.45752156, 0.22671881, 0.16111614, -0.8445817, 5.801297, -9.586922, -6.314911, 0
1327, 1354255539, -0.45412514, 0.23487769, 0.15346517, -0.8456096, 5.2136707, -9.128901, -6.5468903, 0
1330, 1354305540, -0.4365044, 0.26397684, 0.12265279, -0.851317, 5.9782934, -8.723311, -1.5479908, 0
1331, 1354322207, -0.43015864, 0.27355218, 0.11231097, -0.85294974, 6.489456, -8.176012, -1.5560646, 0
1333, 1354355541, -0.4182191, 0.29672533, 0.08761051, -0.85403484, 6.6317596, -7.5633726, -2.8974943, 0
1334, 1354372208, -0.41278735, 0.31112733, 0.0727378, -0.8529477, 8.603281, -8.199259, -1.2763433, 0
1335, 1354388875, -0.40924013, 0.32792443, 0.05608807, -0.84961545, 10.006968, -9.103331, -2.427536, 0
1338, 1354438876, -0.40114915, 0.39825335, -0.007613591, -0.82487565, 11.577805, -15.611554, 0.32923985, 0
1339, 1354455543, -0.3918845, 0.4216587, -0.012825236, -0.81760013, -8.318594, -23.016136, 45.72981, 0
1341, 1354488877, -0.3740319, 0.44012868, -0.015533365, -0.81618, -2.1461234, 7.3755674, -3.6637177, 0
1342, 1354505544, -0.36163047, 0.4548202, -0.029083207, -0.813339, -0.3249131, 1.564358, -1.7852917, 0
1345, 1354555545, -0.33631217, 0.5093157, -0.07650653, -0.78844315, 0.8404788, -1.3217628, -1.0821123, 0
1346, 1354572212, -0.32985127, 0.5235814, -0.08833191, -0.7805525, 3.229312, -1.4233083, -1.4967079, 0
1347, 1354588879, -0.32245994, 0.5320547, -0.09588576, -0.77701175, 2.4660041, -1.7748612, -0.12845135, 0
1349, 1354622213, -0.30372092, 0.54516786, -0.10524868, -0.77425605, -2.6033592, 1.265049, 1.6213484, 0
1350, 1354638880, -0.29363295, 0.5601032, -0.11358139, -0.76626855, -3.2033298, 2.8481555, 0.9040251, 0
1351, 1354655547, -0.2804488, 0.5828446, -0.12943009, -0.7515934, -3.2589316, 4.5955033, 1.3164034, 0
1353, 1354688881, -0.22841346, 0.6598707, -0.18009771, -0.6927964, -6.5959005, 9.383311, 6.629957, 0
1354, 1354705548, -0.18277805, 0.715626, -0.20287673, -0.6428972, -10.91892, 17.097847, 19.996206, 0
1356, 1354738882, -0.07506797, 0.7955809, -0.21194465, -0.56258297, -24.645926, 40.990917, 27.03281, 0
1357, 1354755549, -0.056991704, 0.80667204, -0.21425432, -0.54784244, -0.15177335, 23.397375, 26.437721, 0
1360, 1354805550, 0.0059264842, 0.82014817, -0.24395391, -0.51750594, -1.266753, 28.649706, -5.042296, 0
1361, 1354822217, 0.020208124, 0.8271618, -0.24910021, -0.5033373, -6.1408615, 19.791056, -12.499796, 0
1362, 1354838884, 0.031430826, 0.8347164, -0.24852903, -0.490406, -12.344568, 21.08327, -13.995543, 0
1364, 1354872218, 0.03682819, 0.83736694, -0.24384972, -0.4878542, -12.615594, 11.805841, -16.681152, 0
1365, 1354888885, 0.037074387, 0.83187765, -0.24180573, -0.49813613, -10.805328, 10.26394, -16.404661, 0
1368, 1354938886, 0.023057785, 0.79110533, -0.24235865, -0.56114805, -5.93821, 8.553301, -13.3878975, 0
1369, 1354955553, 0.01400505, 0.7712585, -0.24223077, -0.58846635, -5.1745195, 11.307778, -12.251541, 0
1370, 1354972220, -0.0010715993, 0.74917203, -0.24105586, -0.6169574, -3.1648839, 10.222856, -12.304269, 0
1372, 1355005554, -0.043970134, 0.70363706, -0.22869721, -0.6713147, -2.6819422, 10.262687, -9.578637, 0
1374, 1355038888, -0.08613394, 0.6613205, -0.18849148, -0.72091013, -3.7757552, 6.476908, -5.6388674, 0
1376, 1355072222, -0.12925145, 0.6164534, -0.1388903, -0.7641943, -3.712506, 8.283538, 0.9204922, 0
1377, 1355088889, -0.15339476, 0.5913998, -0.11241493, -0.7836347, -2.101225, 7.3156166, 3.6822348, 0
1379, 1355122223, -0.20095208, 0.5429741, -0.05471015, -0.81351596, 0.6442559, 4.041483, 9.26597, 0
1380, 1355138890, -0.22692251, 0.5193074, -0.025103569, -0.823529, 2.3345768, 1.7148193, 10.852474, 0
1381, 1355155557, -0.2564783, 0.49499142, 0.0016288073, -0.8301832, 3.313624, 0.33215702, 11.960625, 0
1384, 1355205558, -0.34034353, 0.42581314, 0.07827518, -0.83470154, 2.9503746, -9.729337, 7.356495, 0
1385, 1355222225, -0.35966083, 0.4048359, 0.097871654, -0.8349715, 3.3165166, -9.368062, 8.605883, 0
1387, 1355255559, -0.39605835, 0.35940957, 0.12746067, -0.8352965, 5.7319756, -7.192556, 8.398069, 0
1389, 1355288893, -0.43585607, 0.3179908, 0.15457693, -0.82766014, 5.31596, -7.0173903, 3.9383755, 0
1391, 1355322227, -0.47640458, 0.28423014, 0.1795181, -0.8124218, 1.8236693, -8.651961, 1.611846, 0
1392, 1355338894, -0.49334705, 0.2678379, 0.18848842, -0.8058212, 0.9535809, -9.440555, 1.0741863, 0
1393, 1355355561, -0.50652635, 0.2513388, 0.19565873, -0.8012376, 0.49281186, -9.579588, -0.3930292, 0
1395, 1355388895, -0.5193603, 0.2226722, 0.20431274, -0.79933876, 1.5855331, -10.226749, -4.2796326, 0
1396, 1355405562, -0.52063906, 0.21123223, 0.20673633, -0.8009871, 1.9998662, -11.512004, -3.572466, 0
1397, 1355422229, -0.520815, 0.20150073, 0.20947082, -0.80266774, 2.566645, -11.003498, -4.7424545, 0
1400, 1355472230, -0.51977134, 0.18997689, 0.20251557, -0.80792224, 4.1199718, -9.340037, -5.6717315, 0
1401, 1355488897, -0.5203701, 0.19064318, 0.19527225, -0.8091621, 3.2925835, -9.265877, -5.659376, 0
1404, 1355538898, -0.51540154, 0.20682459, 0.16862822, -0.81434244, 0.880328, -8.71674, -3.8222766, 0
1405, 1355555565, -0.50990653, 0.21353129, 0.16028397, -0.8177487, 0.6757069, -9.360654, -2.1211662, 0
1407, 1355588899, -0.4927432, 0.22735348, 0.14705878, -0.8269779, 2.319643, -7.3504586, -4.2918167, 0
1408, 1355605566, -0.48085037, 0.23840506, 0.14020953, -0.8320406, 3.1428258, -7.3101053, -5.6773486, 0
1410, 1355638900, -0.4554433, 0.26491737, 0.12752356, -0.84031665, 5.484459, -8.347779, -2.3558664, 0
1411, 1355655567, -0.4440001, 0.27776977, 0.11945081, -0.8434712, 6.2139587, -7.828323, -2.7490873, 0
1412, 1355672234, -0.43295646, 0.29119486, 0.1087287, -0.84613043, 6.5504346, -9.291384, -3.4616675, 0
1414, 1355705568, -0.41205844, 0.32053953, 0.08341794, -0.84882724, 10.447271, -13.152712, -0.9003887, 0
1416, 1355738902, -0.39442235, 0.35923648, 0.044999704, -0.8446061, 13.591762, -16.330008, 0.94157505, 0
1419, 1355788903, -0.38018852, 0.4147844, 0.017825995, -0.8264969, -0.7424633, 5.5041494, -5.217356, 0
1420, 1355805570, -0.3717752, 0.43710905, 0.002750319, -0.8189722, -4.2031274, 11.926887, -2.7179103, 0
1422, 1355838904, -0.34424606, 0.48875266, -0.03873928, -0.80069906, -0.4273643, -2.0633113, -2.5466266, 0
1423, 1355855571, -0.33268952, 0.51054657, -0.055919662, -0.79090905, 2.999627, -2.9010463, 0.19038296, 0
1424, 1355872238, -0.32262737, 0.5274209, -0.06919279, -0.78291464, 1.3668042, -2.132449, -1.6930513, 0
1426, 1355905572, -0.30071375, 0.5543899, -0.09063946, -0.7707217, -1.0123982, 2.073987, 1.4335938, 0
1427, 1355922239, -0.28550163, 0.5732574, -0.10679726, -0.7605677, -1.9777377, 3.0134728, 0.9534559, 0
1428, 1355938906, -0.26631117, 0.59873635, -0.12890014, -0.74429965, -2.6512198, 2.470044, 1.5638695, 0
1430, 1355972240, -0.21155006, 0.6769856, -0.18367195, -0.68059236, -6.789327, 7.909454, 6.6061115, 0
1431, 1355988907, -0.1654097, 0.73415625, -0.2020159, -0.6267756, -12.883271, 20.343555, 19.006172, 0
1434, 1356038908, -0.06449716, 0.8137304, -0.23241231, -0.5288399, 5.7227306, 22.321815, 27.05059, 0
1435, 1356055575, -0.046969578, 0.81774443, -0.25350013, -0.5146163, 1.4199519, -7.6243005, 7.075947, 0
1437, 1356088909, 0.007822724, 0.8285893, -0.28532642, -0.48163432, -7.0684085, 27.254328, -4.089719, 0
1438, 1356105576, 0.03457736, 0.8359911, -0.29394388, -0.462087, -17.057335, 21.160868, -10.991684, 0
1439, 1356122243, 0.062670775, 0.84063494, -0.29665345, -0.44878265, -17.913004, 22.88512, -20.676033, 0
1441, 1356155577, 0.08628475, 0.83833146, -0.3020229, -0.44558015, -12.014076, 13.788044, -29.56513, 0
1442, 1356172244, 0.08198957, 0.83242726, -0.300305, -0.45843604, -9.425662, 10.819258, -26.108877, 0
1443, 1356188911, 0.070167705, 0.8238603, -0.29648218, -0.47794673, -7.602787, 8.878621, -22.297495, 0
1446, 1356238912, 0.0026095817, 0.7763812, -0.2647439, -0.5719618, -6.134503, 9.102092, -11.779146, 0
1449, 1356288913, -0.07077844, 0.6974763, -0.19931123, -0.6846871, -4.6803913, 2.010369, -4.679699, 0
1450, 1356305580, -0.08606137, 0.6662936, -0.17656861, -0.71935666, -6.018242, 6.253896, -0.8105736, 0
1451, 1356322247, -0.1000925, 0.63127303, -0.15084904, -0.7541384, -5.2063823, 7.4626284, 5.0212355, 0
1453, 1356355581, -0.13302246, 0.5646516, -0.093833864, -0.8091186, 6.28401, 5.921594, 8.726652, 0
1454, 1356372248, -0.15929446, 0.5391411, -0.06307989, -0.82460725, 7.327782, 5.0032625, 11.286467, 0
1455, 1356388915, -0.19298114, 0.51686984, -0.033469465, -0.8333594, 6.4927297, 2.1660292, 10.319414, 0
1457, 1356422249, -0.26436898, 0.4779054, 0.02372538, -0.83735114, 0.34659433, -4.264107, 8.059528, 0
1458, 1356438916, -0.2951692, 0.4594191, 0.049074482, -0.8363044, 1.2090529, -3.962291, 9.11368, 0
1459, 1356455583, -0.32236093, 0.44026735, 0.07308779, -0.8348117, -0.25483784, -6.99899, 9.699936, 0
1464, 1356538918, -0.4222319, 0.32258588, 0.15441301, -0.8329583, 4.746746, -5.3427935, 4.251342, 0
1465, 1356555585, -0.44272655, 0.305062, 0.17077538, -0.82569396, 2.8680959, -8.232333, 2.650916, 0
1466, 1356572252, -0.45947006, 0.28843445, 0.18527079, -0.81937265, 1.633438, -10.297303, 2.1150112, 0
1468, 1356605586, -0.47912493, 0.25441495, 0.20709665, -0.8141422, 1.671024, -10.262194, -0.5504017, 0
1469, 1356622253, -0.4835394, 0.23796475, 0.21259533, -0.815089, 2.1389716, -10.045092, -1.6343374, 0
1470, 1356638920, -0.48533958, 0.22364049, 0.21608378, -0.8171551, 2.252709, -9.586117, -2.8855247, 0
1472, 1356672254, -0.4856616, 0.20327176, 0.22543284, -0.81975466, 3.73506, -9.315926, -2.8980055, 0
1473, 1356688921, -0.48584345, 0.19644469, 0.23037153, -0.81993836, 4.3172064, -7.9699774, -4.324561, 0
1474, 1356705588, -0.48556143, 0.19140372, 0.23254493, -0.82068384, 4.465678, -6.9908857, -4.558265, 0
1476, 1356738922, -0.48452014, 0.18508746, 0.22814186, -0.8239773, 4.0155354, -4.9771733, -3.5225735, 0
1480, 1356805590, -0.49774984, 0.18274654, 0.20475104, -0.82275766, 1.586562, -3.2044334, -1.4906273, 0
1481, 1356822257, -0.50286347, 0.1835602, 0.19930421, -0.8208021, 0.4222295, -3.367308, -1.6471701, 0
1482, 1356838924, -0.50673324, 0.18459354, 0.19445546, -0.81935215, -0.42159107, -4.034977, -1.7701063, 0
1484, 1356872258, -0.50806934, 0.18644834, 0.18528625, -0.8202291, -0.82918334, -4.9540195, -2.7472744, 0
1485, 1356888925, -0.504929, 0.1878354, 0.17992443, -0.82304054, 0.094172575, -5.088753, -2.9153042, 0
1486, 1356905592, -0.499829, 0.1893281, 0.1737672, -0.82712454, 1.2631341, -5.4458466, -3.0744886, 0
1488, 1356938926, -0.48766872, 0.19516695, 0.16044997, -0.8356728, 3.0239897, -5.625707, -3.7435117, 0
1489, 1356955593, -0.48172843, 0.19967869, 0.15304118, -0.83943355, 3.8946981, -6.487702, -3.3084102, 0
1491, 1356988927, -0.4700939, 0.21219552, 0.1410508, -0.84504074, 3.505486, -7.4191613, -4.338428, 0
1493, 1357022261, -0.45520964, 0.22856548, 0.1251703, -0.851398, 4.19526, -7.783988, -2.9785786, 0
1496, 1357072262, -0.4278424, 0.25641197, 0.09395976, -0.8616145, 6.6102057, -8.968477, -1.6308012, 0
1497, 1357088929, -0.4188592, 0.2670468, 0.08475335, -0.86375004, 7.8221817, -9.655966, -1.4639273, 0
1499, 1357122263, -0.40431678, 0.29487586, 0.060990505, -0.8636322, 13.719863, -13.352781, -3.5475645, 0
1500, 1357138930, -0.399196, 0.31542063, 0.041345567, -0.8599111, 15.587593, -16.174778, -2.823155, 0
1501, 1357155597, -0.39251405, 0.34264785, 0.019220341, -0.85332286, 14.988893, -19.660604, -2.07661, 0
1503, 1357188931, -0.37534732, 0.38602695, 0.009871656, -0.8426176, 20.031252, -33.01658, 37.21899, 0
1504, 1357205598, -0.3717527, 0.4056823, 0.0083762705, -0.8349586, -12.730626, 15.18778, -0.41518593, 0
1505, 1357222265, -0.36352316, 0.4295745, -0.0039318595, -0.826623, 3.3835068, -2.730678, -1.6838379, 0
1508, 1357272266, -0.32222468, 0.5010121, -0.05035803, -0.80163985, 0.009335829, 0.4291716, 0.70844746, 0
1509, 1357288933, -0.30726865, 0.52757394, -0.069115154, -0.78897345, -2.098668, 0.9569143, 1.5738535, 0
1511, 1357322267, -0.2677653, 0.59386694, -0.12270906, -0.7487126, -3.1834598, 2.8598247, 2.8557978, 0
1512, 1357338934, -0.23600951, 0.6407531, -0.15511143, -0.7139185, -7.5659933, 9.932619, 6.5668926, 0
1513, 1357355601, -0.19066098, 0.7006611, -0.1893923, -0.6609517, -11.982741, 17.490839, 18.72513, 0
1515, 1357388935, -0.0795698, 0.7927902, -0.20400174, -0.5688058, -22.912416, 64.363976, 36.476234, 1024
1516, 1357405602, -0.07706027, 0.8129668, -0.20998877, -0.53763896, 3.9595838, 34.985348, 39.018963, 1024
1518, 1357438936, -0.019521981, 0.83458966, -0.23686887, -0.49696708, -9.847108, 26.95824, 11.386227, 0
1519, 1357455603, 0.008494178, 0.8405694, -0.25475186, -0.47799236, -12.276351, 24.764612, -1.0943289, 0
1520, 1357472270, 0.04363849, 0.84418744, -0.27108425, -0.46039224, -20.063585, 22.37218, -6.976969, 0
1523, 1357522271, 0.12019776, 0.8336214, -0.30492315, -0.44458306, -7.6958604, 15.727427, -27.477442, 0
1526, 1357572272, 0.110860035, 0.81281453, -0.31990594, -0.47403255, -4.822203, 5.8081737, -20.179962, 0
1527, 1357588939, 0.10054128, 0.8030146, -0.31868857, -0.4934582, -4.0122027, 4.482171, -18.388918, 0
1528, 1357605606, 0.08883833, 0.7922704, -0.31438598, -0.51534545, -3.342855, 4.3074703, -16.84802, 0
1530, 1357638940, 0.054962553, 0.76898015, -0.29551405, -0.56420237, -3.6330855, 6.5813794, -14.223852, 0
1531, 1357655607, 0.031209182, 0.75585043, -0.2806689, -0.5907159, -4.671119, 5.9463844, -12.483285, 0
1532, 1357672274, 0.0071877213, 0.7414163, -0.25995782, -0.61860824, -5.3234735, 2.256388, -10.878072, 0
1534, 1357705608, -0.032638945, 0.7068416, -0.20519155, -0.67617315, -6.9718056, 5.669012, -4.809225, 0
1535, 1357722275, -0.05440106, 0.68415654, -0.17803678, -0.705179, -6.8894563, 3.1989071, -3.0961714, 0
1538, 1357772276, -0.10874712, 0.60007256, -0.10118242, -0.7860365, 0.024060499, 3.403788, 7.811493, 0
1539, 1357788943, -0.12889269, 0.5715588, -0.07472798, -0.8069243, 4.36244, 4.924955, 10.834782, 0
1542, 1357838944, -0.22058967, 0.49914277, 0.007824185, -0.83793765, 1.0581586, -2.918106, 12.448442, 0
1543, 1357855611, -0.2495279, 0.47487393, 0.034656547, -0.8432281, 2.0809703, -5.391032, 8.908699, 0
1545, 1357888945, -0.29145226, 0.42537108, 0.078960955, -0.85316133, 3.3966515, -6.007701, 9.128799, 0
1546, 1357905612, -0.30721974, 0.4014294, 0.10011706, -0.85700136, 4.7527547, -5.6675324, 7.4400787, 0
1547, 1357922279, -0.3221606, 0.37906885, 0.119176365, -0.8592558, 5.433736, -4.97191, 6.8634777, 0
1549, 1357955613, -0.355055, 0.3397449, 0.1501568, -0.85788494, 4.43105, -3.5605757, 4.762557, 0
1550, 1357972280, -0.3733603, 0.3223575, 0.16117468, -0.8548184, 3.7542233, -3.696834, 4.5618057, 0
1553, 1358022281, -0.43357515, 0.27574784, 0.19018944, -0.83654517, 2.8070679, -6.543262, 2.416129, 0
1554, 1358038948, -0.45209935, 0.26156315, 0.19691756, -0.8297098, 2.2037892, -7.7320724, 1.7218637, 0
1555, 1358055615, -0.46729127, 0.24853565, 0.20211154, -0.82402915, 1.2183555, -8.00225, -0.800437, 0
1558, 1358105616, -0.48738107, 0.22028399, 0.20953354, -0.81855637, 1.8860322, -7.94786, -1.1277285, 0
1559, 1358122283, -0.48816207, 0.21211557, 0.21177691, -0.8196704, 2.1594894, -7.819953, -0.52522755, 0
1561, 1358155617, -0.48853338, 0.1988508, 0.21796179, -0.8211518, 3.2383485, -4.8940263, -3.0344682, 0
1562, 1358172284, -0.48982006, 0.1947586, 0.21979333, -0.82087785, 3.4525158, -4.386601, -2.815065, 0
1563, 1358188951, -0.49226472, 0.19150151, 0.21976982, -0.8201879, 2.683591, -4.1878614, -3.448285, 0
1565, 1358222285, -0.49838546, 0.18686922, 0.21284527, -0.8193855, 1.4695345, -4.5543046, -3.2518573, 0
1567, 1358255619, -0.5021351, 0.18157369, 0.20440656, -0.82043475, 0.8054784, -5.186219, -3.3561578, 0
1569, 1358288953, -0.5030262, 0.17972676, 0.19822034, -0.82181245, 1.7118369, -4.9765816, -3.7640085, 0
1570, 1358305620, -0.5022335, 0.17958392, 0.19350527, -0.82345057, 2.1362221, -5.5412264, -3.377016, 0
1572, 1358338954, -0.49695086, 0.17928322, 0.18039599, -0.8296738, 2.2739146, -5.880619, -4.208822, 0
1574, 1358372288, -0.48970068, 0.182701, 0.16578941, -0.83626044, 3.5821428, -6.4620147, -3.9338121, 0
1576, 1358405622, -0.48306695, 0.19055721, 0.15129979, -0.84109855, 3.9802766, -7.181216, -4.032811, 0
1577, 1358422289, -0.47987705, 0.1967397, 0.14554025, -0.8425163, 4.5078926, -8.654743, -3.3728032, 0
1578, 1358438956, -0.4760379, 0.20364952, 0.14027123, -0.8439448, 4.640284, -9.722652, -4.1015253, 0
1580, 1358472290, -0.46269345, 0.22498369, 0.12825301, -0.8478517, 6.8850875, -13.326404, -4.883656, 0
1582, 1358505624, -0.4444243, 0.25260538, 0.105905086, -0.85291606, 9.608302, -14.659647, -4.026935, 0
1584, 1358538958, -0.42720398, 0.29603398, 0.06895789, -0.8515337, 15.984645, -16.540224, -3.86697, 0
1585, 1358555625, -0.41996711, 0.32720155, 0.04356733, -0.8453833, 17.590122, -18.664268, -2.288734, 0
1586, 1358572292, -0.41891944, 0.34120014, 0.033263713, -0.8408251, 18.097218, -58.86519, 47.995045, 0
1588, 1358605626, -0.4118775, 0.38821682, 0.0274213, -0.82395196, -6.2251954, 17.767557, -3.0256338, 0
1589, 1358622293, -0.39740205, 0.41861656, 0.01171259, -0.81651634, 8.292392, -7.6266975, 1.0388403, 0
1590, 1358638960, -0.3814366, 0.44872326, -0.0064953617, -0.8081556, 1.6437361, 2.5774903, -3.4050927, 0
1592, 1358672294, -0.34841087, 0.50739586, -0.049631912, -0.78657484, -0.42623848, -0.3578752, 0.88044167, 0
1593, 1358688961, -0.33041582, 0.5394497, -0.073624745, -0.7709754, -1.923074, 2.2233603, 1.5566921, 0
1594, 1358705628, -0.3098171, 0.5740742, -0.101011075, -0.7511676, -3.2801576, 2.9041317, 1.8266249, 0
1597, 1358755629, -0.18942721, 0.7376125, -0.18959898, -0.61975926, -17.987131, 27.977156, 25.808311, 0
1599, 1358788963, -0.0834139, 0.8147641, -0.21770854, -0.5308567, -23.769133, 51.670204, 50.022095, 0
1600, 1358805630, -0.085828915, 0.8131383, -0.22074267, -0.5317107, -12.984692, 22.345322, 13.236059, 0
1601, 1358822297, -0.035477147, 0.81381387, -0.24042659, -0.5278708, -5.8144445, -15.050878, 8.953386, 0
1604, 1358872298, 0.09206551, 0.8022112, -0.30842513, -0.50285107, -11.360695, 29.126087, -7.0097036, 0
1605, 1358888965, 0.12104725, 0.8008277, -0.3262583, -0.48742405, -11.54039, 29.686998, -15.806505, 0
1607, 1358922299, 0.14818372, 0.8014451, -0.35147977, -0.46064445, -8.567588, 15.2176485, -23.661476, 0
1608, 1358938966, 0.14865814, 0.8030864, -0.35853702, -0.45211536, -6.748718, 10.272698, -23.242458, 0
1609, 1358955633, 0.14295506, 0.8048492, -0.36261246, -0.4475465, -5.7116013, 6.526337, -21.857334, 0
1612, 1359005634, 0.105422854, 0.80238575, -0.35686868, -0.46659604, -5.050138, 2.5933785, -17.850426, 0
1613, 1359022301, 0.08810859, 0.7979548, -0.3498079, -0.4828493, -4.9945917, 2.7807217, -16.637596, 0
1615, 1359055635, 0.04392011, 0.7846922, -0.32876414, -0.5236865, -4.5070243, 2.254627, -14.428203, 0
1616, 1359072302, 0.018159138, 0.77506477, -0.3146391, -0.5476783, -6.398753, 4.009173, -12.531087, 0
1617, 1359088969, -0.010239005, 0.7611885, -0.29729417, -0.57628787, -7.2219286, 5.2871156, -10.575766, 0
1620, 1359138970, -0.08471956, 0.69467205, -0.2242662, -0.6782052, -5.2612257, 4.4026804, -3.476727, 0
1621, 1359155637, -0.106754765, 0.66622853, -0.19748259, -0.71115935, -5.7449, 5.1705995, 0.30676174, 0
1623, 1359188971, -0.14362372, 0.60192555, -0.13279697, -0.77422667, -0.7609187, 4.279439, 8.925053, 0
1624, 1359205638, -0.16237895, 0.5683929, -0.100900605, -0.8002412, 3.829867, 3.240431, 11.044081, 0
1627, 1359255639, -0.2493222, 0.47210264, -0.0032275962, -0.84554785, 4.8825116, -2.7269635, 13.431923, 0
1628, 1359272306, -0.2770654, 0.44407454, 0.03125624, -0.8515044, 3.3588784, -9.534011, 6.1168737, 0
1630, 1359305640, -0.30818605, 0.39928788, 0.08829175, -0.8589524, 4.631865, -10.974107, 11.29637, 0
1631, 1359322307, -0.31631416, 0.37752342, 0.10821391, -0.86354816, 6.6342583, -10.867629, 10.253632, 0
1632, 1359338974, -0.32285276, 0.35428312, 0.12555158, -0.86861414, 7.365554, -10.734841, 10.243301, 0
1634, 1359372308, -0.34543946, 0.3136893, 0.15863097, -0.87012124, 8.262616, -4.704872, 3.082034, 0
1636, 1359405642, -0.38499728, 0.2847424, 0.17811008, -0.8596394, 5.680988, -4.6653376, 1.8359213, 0
1638, 1359438976, -0.42811117, 0.26232427, 0.18347582, -0.84513164, 3.606334, -5.5211577, 0.396904, 0
1639, 1359455643, -0.44804424, 0.25279823, 0.18474057, -0.8373915, 2.001485, -7.021025, -0.004412651, 0
1642, 1359505644, -0.48845807, 0.22934201, 0.19511904, -0.8189894, -0.12815744, -6.610724, -2.9522085, 0
1643, 1359522311, -0.49294224, 0.22263171, 0.19777045, -0.8175171, 0.71353984, -5.793671, -3.5244632, 0
1644, 1359538978, -0.49391827, 0.21668985, 0.19829687, -0.81839633, 3.006234, -5.020941, -2.7727828, 0
1646, 1359572312, -0.49214622, 0.20458783, 0.19363114, -0.82367915, 3.4515376, -4.3572993, -2.4384418, 0
1647, 1359588979, -0.49229985, 0.20111936, 0.19325069, -0.8245301, 3.6049292, -4.426012, -1.5204325, 0
1648, 1359605646, -0.49455675, 0.19946682, 0.1949043, -0.82319075, 2.8251348, -3.7453866, -2.4183168, 0
1650, 1359638980, -0.5007107, 0.20019747, 0.1962347, -0.8189663, 1.2420254, -4.742909, -1.6839991, 0
1653, 1359688981, -0.49979365, 0.2000694, 0.1879427, -0.8214988, 0.37178716, -4.6269236, -1.1942806, 0
1654, 1359705648, -0.4975932, 0.19960275, 0.18581067, -0.823431, 0.0015081536, -4.6329803, -1.427865, 0
1657, 1359755649, -0.48990238, 0.19937071, 0.17505024, -0.8304266, 1.1918019, -3.946512, -2.5230412, 0
1658, 1359772316, -0.48677117, 0.19976072, 0.16712359, -0.83380055, 1.8902596, -4.016534, -2.5863295, 0
1659, 1359788983, -0.4833854, 0.20079057, 0.1579765, -0.83729887, 2.3843875, -4.3269897, -2.3167381, 0
1661, 1359822317, -0.47758973, 0.20609711, 0.14267159, -0.84206945, 2.0999138, -4.632756, -2.3537397, 0
1662, 1359838984, -0.47545514, 0.20936365, 0.13669671, -0.8434615, 2.1190255, -4.890307, -2.2000117, 0
1663, 1359855651, -0.47343582, 0.21253887, 0.1307109, -0.8447512, 2.5289755, -4.7575526, -3.008615, 0
1665, 1359888985, -0.46787685, 0.21991974, 0.11817562, -0.8478002, 3.2877965, -7.413013, -2.7008357, 0
1666, 1359905652, -0.46388614, 0.22489303, 0.11558523, -0.8490446, 4.3943057, -9.736262, -3.1692777, 0
1667, 1359922319, -0.45937762, 0.23093612, 0.11484308, -0.849974, 5.921157, -11.979253, -3.1353145, 0
1669, 1359955653, -0.44679606, 0.24623911, 0.104148075, -0.85375464, 8.477965, -16.142372, -6.983994, 0
1671, 1359988987, -0.42640486, 0.27933696, 0.070674546, -0.8574141, 15.9581995, -20.164476, -5.3520193, 0
1673, 1360022321, -0.40324518, 0.34199145, 0.040283255, -0.8478304, 15.388982, -46.876087, 53.32516, 0
1674, 1360038988, -0.4055746, 0.35022435, 0.042869616, -0.84321916, 21.298111, -29.974209, 0.50615597, 0
1675, 1360055655, -0.40063998, 0.37788603, 0.036523465, -0.83388233, -4.272277, 22.58393, -6.227026, 0
1677, 1360088989, -0.36400425, 0.4389971, -1.5374506E-4, -0.82145405, 1.9570745, 2.7200994, -1.4037294, 0
1678, 1360105656, -0.344969, 0.47419488, -0.024492245, -0.80965406, -4.7083583, -0.83558875, 0.49332714, 0
1680, 1360138990, -0.3075242, 0.55813044, -0.08411114, -0.7660604, -3.1454034, 4.4037004, 3.4962912, 0
1682, 1360172324, -0.23736355, 0.6674729, -0.15792635, -0.6878967, -8.211656, 14.630243, 12.3455715, 0
1684, 1360205658, -0.11803721, 0.78536105, -0.20836514, -0.5708445, -29.932852, 58.272766, 52.68217, 0
1686, 1360238992, -0.11787345, 0.80625767, -0.2245175, -0.53446275, 3.2524633, -15.361487, 5.6195774, 0
1688, 1360272326, -0.03413051, 0.82580066, -0.25239038, -0.5031811, -4.1999583, 32.365135, 6.520525, 0
1689, 1360288993, -0.0027320469, 0.8317509, -0.27280992, -0.4834892, -11.95447, 20.137787, -3.4117846, 0
1690, 1360305660, 0.03594896, 0.83758515, -0.2867257, -0.46362832, -15.854571, 25.886656, -10.792083, 0
1692, 1360338994, 0.09937115, 0.83499986, -0.30671108, -0.4459067, -15.888651, 19.620405, -22.893799, 0
1693, 1360355661, 0.12027258, 0.8267592, -0.31410342, -0.45093986, -10.0140705, 14.037986, -23.752003, 0
1694, 1360372328, 0.13184252, 0.81642985, -0.3233058, -0.459932, -5.3236003, 9.21123, -22.514, 0
1696, 1360405662, 0.13468155, 0.79497135, -0.34245375, -0.4822978, -3.7664316, 7.627606, -20.274696, 0
1698, 1360438996, 0.12049143, 0.7751598, -0.3457613, -0.5148422, -1.522166, 5.7364116, -18.247593, 0
1701, 1360488997, 0.065187015, 0.75438833, -0.32162791, -0.5685143, -3.9493394, 3.9599519, -14.190054, 0
1702, 1360505664, 0.042242713, 0.74668014, -0.30334616, -0.59048235, -6.4766555, 3.2826638, -12.017464, 0
1704, 1360538998, 2.717413E-5, 0.7203742, -0.251033, -0.6465658, -7.6206446, 0.7568401, -7.315797, 0
1705, 1360555665, -0.01834476, 0.7010871, -0.2242831, -0.67663974, -6.24107, 1.3288466, -4.93153, 0
1707, 1360588999, -0.0542343, 0.6518672, -0.17414159, -0.736075, -4.590224, 2.635538, 0.8607435, 0
1708, 1360605666, -0.07190048, 0.6237598, -0.1477532, -0.7641511, -1.2738549, 3.2873526, 4.6945343, 0
1709, 1360622333, -0.09207349, 0.59664875, -0.11975302, -0.78815985, 2.495556, 3.2936435, 6.2342052, 0
1711, 1360655667, -0.15024869, 0.5506599, -0.060151488, -0.8188923, 2.5000966, 2.5082803, 10.254787, 0
1712, 1360672334, -0.18603034, 0.5289728, -0.029573228, -0.82747185, 1.0961978, -1.351501, 9.873066, 0
1716, 1360739002, -0.2773232, 0.44546974, 0.06830608, -0.8485204, 4.574114, -2.9794402, 12.8690815, 0
1717, 1360755669, -0.2963258, 0.42063147, 0.08450066, -0.8533017, 5.8673034, -2.680007, 11.834293, 0
1719, 1360789003, -0.33852533, 0.37241536, 0.11396163, -0.856577, 7.3290844, -1.4639624, 6.238989, 0
1720, 1360805670, -0.36142522, 0.35151443, 0.12593408, -0.8543735, 7.2685285, -1.2364305, 5.336358, 0
1721, 1360822337, -0.38506252, 0.3332472, 0.13683194, -0.84967893, 6.9218283, -2.030637, 3.9875965, 0
1723, 1360855671, -0.4299555, 0.30420288, 0.15038319, -0.83665276, 4.799597, -3.7165585, 2.0399857, 0
1724, 1360872338, -0.44982582, 0.29267913, 0.1555277, -0.82934356, 3.2028892, -5.7997837, 4.38181, 0
1725, 1360889005, -0.46881735, 0.28180313, 0.16436626, -0.8208442, 1.473488, -7.227764, 3.8094635, 0
1727, 1360922339, -0.4969109, 0.25978133, 0.18070777, -0.80804837, -0.053117435, -7.8757534, -0.19397736, 0
1728, 1360939006, -0.50315964, 0.24867025, 0.18720391, -0.8061963, -0.17546795, -8.038593, -0.99033356, 0
1732, 1361005674, -0.495735, 0.20753795, 0.20141004, -0.8189095, 2.1984892, -7.2035766, -0.66668606, 0
1734, 1361039008, -0.4938874, 0.1939481, 0.21319824, -0.82037175, 2.674165, -5.3976736, -3.2050056, 0
1735, 1361055675, -0.4963116, 0.18876642, 0.21518837, -0.81959754, 2.671553, -6.029099, -2.3171368, 0
1736, 1361072342, -0.4995656, 0.18378536, 0.2140007, -0.81906325, 1.4097626, -6.2119846, -3.2909865, 0
1738, 1361105676, -0.5045534, 0.17625172, 0.2049599, -0.8199736, 0.8190306, -6.62809, -4.036653, 0
1739, 1361122343, -0.5060729, 0.17328732, 0.19922708, -0.8210811, 0.73144186, -7.2118325, -3.6978402, 0
1740, 1361139010, -0.50670403, 0.170813, 0.19378784, -0.8225109, 0.8251165, -7.4720316, -3.5811186, 0
1742, 1361172344, -0.50501907, 0.16823499, 0.18299451, -0.82654077, 1.6126677, -6.358685, -4.6847973, 0
1743, 1361189011, -0.50321245, 0.16780925, 0.17708062, -0.82901365, 2.3418388, -6.845813, -3.5191607, 0
1746, 1361239012, -0.49486175, 0.16929397, 0.15781093, -0.8375865, 2.5549376, -6.0078597, -4.1101685, 0
1747, 1361255679, -0.4919434, 0.17195708, 0.1513956, -0.8399439, 2.770007, -6.0505047, -3.9248004, 0
1748, 1361272346, -0.48932233, 0.17465542, 0.14457366, -0.84211725, 2.3890898, -6.191482, -3.7263122, 0
1750, 1361305680, -0.48231906, 0.1814437, 0.12897007, -0.84724087, 3.0953755, -6.8688946, -2.4946842, 0
1751, 1361322347, -0.47740886, 0.18608502, 0.12060577, -0.85024196, 3.8697119, -6.5138297, -3.4231658, 0
1752, 1361339014, -0.47167137, 0.19165304, 0.111818716, -0.8534024, 4.8934307, -7.7324586, -3.2092013, 0
1754, 1361372348, -0.45832056, 0.20634145, 0.10402978, -0.85822314, 6.716999, -10.416316, -2.0653567, 0
1755, 1361389015, -0.45003983, 0.2152225, 0.09854878, -0.86106646, 7.0165176, -10.626129, -4.6851134, 0
1756, 1361405682, -0.43965086, 0.2284128, 0.090760246, -0.86388737, 11.021753, -14.07985, -3.0839305, 0
1758, 1361439016, -0.42280123, 0.26914144, 0.05460371, -0.8636113, 22.27974, -17.923306, -3.682261, 0
1762, 1361505684, -0.3918077, 0.38585043, 0.017482113, -0.83504754, -9.244907, 13.557965, -6.899256, 0
1763, 1361522351, -0.37903476, 0.41372058, 0.001366775, -0.8277499, 4.25577, -5.5197005, 2.9803562, 0
1765, 1361555685, -0.34099498, 0.48665124, -0.051132824, -0.80267197, -3.1097867, 1.4045861, 1.8110847, 0
1766, 1361572352, -0.3176492, 0.5302875, -0.08345152, -0.7816225, -3.5776875, 2.0465972, 2.1352253, 0
1767, 1361589019, -0.290055, 0.5784152, -0.121646225, -0.7526685, -4.709583, 3.017744, 5.126112, 0
1769, 1361622353, -0.21287526, 0.6935604, -0.19655132, -0.6595677, -13.019821, 16.56566, 17.525755, 0
1770, 1361639020, -0.15986532, 0.7530771, -0.229584, -0.5954941, -18.01035, 36.863148, 31.345806, 0
1771, 1361655687, -0.12505817, 0.7883657, -0.22692177, -0.55798775, -3.5421555, 48.34335, 42.921066, 1024
1773, 1361689021, -0.107079156, 0.8274817, -0.2372354, -0.49752522, -13.194861, -16.64539, 9.524025, 0
1775, 1361722355, -0.027855149, 0.8409662, -0.26866534, -0.46885243, -10.552725, 25.06237, 0.5610018, 0
1778, 1361772356, 0.07253134, 0.84076124, -0.3068425, -0.44012636, -11.687049, 21.302301, -18.45734, 0
1779, 1361789023, 0.09262525, 0.8347787, -0.3184835, -0.43947393, -8.571632, 16.454845, -21.659624, 0
1781, 1361822357, 0.11074242, 0.8189038, -0.33940682, -0.449377, -3.2911859, 7.163649, -21.088837, 0
1782, 1361839024, 0.1142231, 0.8112769, -0.34696898, -0.45650777, -2.3421261, 4.5359983, -19.844841, 0
1783, 1361855691, 0.11500632, 0.80461377, -0.35103327, -0.464919, -2.8474221, 6.1937685, -19.14425, 0
1785, 1361889025, 0.10110203, 0.7938157, -0.35120565, -0.48610047, -2.306634, 3.1425865, -17.42031, 0
1786, 1361905692, 0.08949271, 0.7897392, -0.34698117, -0.49790663, -3.2312567, 3.7199173, -16.573637, 0
1788, 1361939026, 0.055153146, 0.7793124, -0.3238269, -0.533639, -5.4292283, 2.603645, -14.377474, 0
1790, 1361972360, 0.014690862, 0.7625526, -0.2784124, -0.5837705, -7.503956, 2.7268255, -10.326414, 0
1792, 1362005694, -0.026599247, 0.7300636, -0.22028702, -0.64635676, -7.9336915, -2.4732485, -5.64727, 0
1794, 1362039028, -0.060806792, 0.6804234, -0.16513665, -0.7113793, -4.7572637, 0.09094194, -1.6514673, 0
1796, 1362072362, -0.10084919, 0.627797, -0.110967994, -0.76379985, -2.059595, 5.436806, 2.5250168, 0
1797, 1362089029, -0.12648793, 0.60575366, -0.07781132, -0.7816729, -1.4508843, 5.6683817, 5.074814, 0
1798, 1362105696, -0.15480144, 0.58510023, -0.042984474, -0.7948902, -3.372174, 3.6262615, 9.239014, 0
1800, 1362139030, -0.20947866, 0.53400916, 0.016807348, -0.818947, -1.1049768, 0.88671, 13.922186, 0
1801, 1362155697, -0.23502652, 0.5022559, 0.040766433, -0.8311698, 1.8556201, 0.88087213, 13.18339, 0
1802, 1362172364, -0.2592834, 0.47180554, 0.063739136, -0.8403051, 5.0336123, 0.92678577, 11.882843, 0
