sep=,
DeviceTag:,Xsens_DOT_4,,,,,,,,,,,,,,,,,
FirmwareVersion:,3.0.0,,,,,,,,,,,,,,,,,
AppVersion:,2023.6.1,,,,,,,,,,,,,,,,,
SyncStatus:,Synced,,,,,,,,,,,,,,,,,
OutputRate:,60Hz,,,,,,,,,,,,,,,,,
FilterProfile:,General,,,,,,,,,,,,,,,,,
Measurement Mode:,Sensor fusion Mode - Extended (Quaternion),,,,,,,,,,,,,,,,,
StartTime:,2025-05-05 11:28:59.145 +0200,,,,,,,,,,,,,,,,,
 2025,,,,,,,,,,,,,,,,,,,

PacketCounter,SampleTimeFine,Quat_W,Quat_X,Quat_Y,Quat_Z,FreeAcc_X,FreeAcc_Y,FreeAcc_Z,Status
1, 1332155097, 0.4748929, 0.50108135, -0.4179881, 0.5904868, 0.11420238, 0.07951116, 0.07910824, 0
2, 1332171764, 0.47495857, 0.50112414, -0.41794354, 0.59042925, 0.105719395, 0.102680735, 0.06778717, 0
3, 1332188431, 0.4750248, 0.5011615, -0.41790503, 0.5903715, 0.08955158, 0.08686339, 0.0773201, 0
4, 1332205098, 0.4750785, 0.50120485, -0.41785175, 0.59032923, 0.08326886, 0.11190601, 0.0838213, 0
5, 1332221765, 0.4751537, 0.5012378, -0.41780183, 0.59027606, 0.07802122, 0.11569433, 0.064673424, 0
6, 1332238432, 0.47522116, 0.501277, -0.41775945, 0.5902186, 0.073568396, 0.10420621, 0.06909084, 0
7, 1332255099, 0.47529778, 0.50132036, -0.41771033, 0.5901547, 0.104385465, 0.08167923, 0.075366974, 0
8, 1332271766, 0.47536266, 0.5013563, -0.41766444, 0.5901043, 0.14174588, 0.08784462, 0.07490635, 0
9, 1332288433, 0.475412, 0.50139475, -0.41763005, 0.59005624, 0.0966213, 0.07419155, 0.060783386, 0
10, 1332305100, 0.47545996, 0.50142217, -0.41760564, 0.59001166, 0.049666516, 0.060447462, 0.059862137, 0
11, 1332321767, 0.47552276, 0.5014468, -0.41757956, 0.5899586, 0.052025322, 0.07966002, 0.08003044, 0
12, 1332338434, 0.47558075, 0.5014837, -0.4175379, 0.5899099, 0.066815846, 0.08505517, 0.06395626, 0
13, 1332355101, 0.47563583, 0.501507, -0.41750845, 0.5898665, 0.13353044, 0.07608694, 0.066845894, 0
14, 1332371768, 0.47566402, 0.50154865, -0.41748002, 0.5898285, 0.11162483, 0.102944925, 0.07776928, 0
15, 1332388435, 0.4757115, 0.50156987, -0.41744882, 0.58979434, 0.062358104, 0.07767254, 0.07653427, 0
16, 1332405102, 0.47575244, 0.50159633, -0.41742307, 0.589757, 0.081536636, 0.08665039, 0.08593178, 0
17, 1332421769, 0.47578827, 0.50161576, -0.4173996, 0.589728, 0.066552326, 0.09406364, 0.08150959, 0
18, 1332438436, 0.47581875, 0.5016353, -0.41738304, 0.58969855, 0.108688764, 0.096875206, 0.067790985, 0
19, 1332455103, 0.47583973, 0.50166553, -0.41738144, 0.58965707, 0.08457104, 0.06712742, 0.071331024, 0
20, 1332471770, 0.47586328, 0.5016849, -0.41736087, 0.589636, 0.060065307, 0.07873624, 0.06428814, 0
21, 1332488437, 0.4758895, 0.5017032, -0.4173495, 0.5896075, 0.09410544, 0.08436184, 0.07823181, 0
22, 1332505104, 0.47590697, 0.5017167, -0.41733176, 0.58959454, 0.12468134, 0.08025367, 0.08647728, 0
23, 1332521771, 0.47592714, 0.50171524, -0.41732907, 0.58958125, 0.09757632, 0.06683329, 0.09704304, 0
24, 1332538438, 0.47595182, 0.50171936, -0.41732857, 0.58955824, 0.054851867, 0.08894296, 0.07908058, 0
25, 1332555105, 0.47596872, 0.50173026, -0.41731873, 0.5895424, 0.06656037, 0.12250231, 0.07126045, 0
26, 1332571772, 0.4759892, 0.50173944, -0.41731644, 0.58951974, 0.078844644, 0.10705242, 0.05976963, 0
27, 1332588439, 0.47599506, 0.5017588, -0.4173056, 0.5895059, 0.07125325, 0.097892866, 0.06647301, 0
28, 1332605106, 0.47600424, 0.5017826, -0.41729057, 0.5894889, 0.10588166, 0.08109028, 0.07872963, 0
29, 1332621773, 0.4760054, 0.50178826, -0.4172896, 0.58948386, 0.15802701, 0.06880243, 0.10086727, 0
30, 1332638440, 0.47603223, 0.5017732, -0.41731235, 0.589459, 0.11388678, 0.049097527, 0.0757885, 0
31, 1332655107, 0.47605586, 0.5017598, -0.41731644, 0.5894484, 0.051881827, 0.07465601, 0.054644585, 0
32, 1332671774, 0.4760728, 0.5017685, -0.41730657, 0.5894343, 0.0691073, 0.107006155, 0.06837177, 0
33, 1332688441, 0.47609645, 0.5017859, -0.41729236, 0.5894104, 0.12785433, 0.12620547, 0.08677006, 0
34, 1332705108, 0.4761158, 0.50179887, -0.41728905, 0.5893861, 0.12215028, 0.12689725, 0.06546593, 0
35, 1332721775, 0.47614458, 0.5018066, -0.4172826, 0.5893607, 0.09378152, 0.08278132, 0.080438614, 0
36, 1332738442, 0.4761735, 0.50181437, -0.4172705, 0.5893393, 0.119257346, 0.055395003, 0.08910847, 0
37, 1332755109, 0.47621343, 0.50181603, -0.4172473, 0.58932215, 0.10690357, 0.054621425, 0.080462456, 0
38, 1332771776, 0.4762501, 0.5018316, -0.41723266, 0.5892897, 0.08367856, 0.08115398, 0.061968803, 0
39, 1332788443, 0.47629222, 0.5018468, -0.41721135, 0.5892577, 0.081839494, 0.08693939, 0.07446766, 0
40, 1332805110, 0.47632208, 0.5018799, -0.41717356, 0.5892322, 0.10968161, 0.11904255, 0.061854362, 0
41, 1332821777, 0.47636536, 0.5019039, -0.41715196, 0.58919203, 0.1354654, 0.11585571, 0.08241367, 0
42, 1332838444, 0.47639716, 0.5019371, -0.41712043, 0.5891604, 0.12629555, 0.10744357, 0.083293915, 0
43, 1332855111, 0.47644928, 0.5019544, -0.41709894, 0.58911866, 0.10914719, 0.09271161, 0.084012985, 0
44, 1332871778, 0.47650355, 0.5019789, -0.41706178, 0.5890802, 0.07851988, 0.084444314, 0.06374836, 0
45, 1332888445, 0.47656044, 0.5020146, -0.4170065, 0.58904296, 0.07505096, 0.06417549, 0.06864452, 0
46, 1332905112, 0.47662807, 0.50205076, -0.41696635, 0.58898586, 0.10858349, 0.107180946, 0.08794594, 0
47, 1332921779, 0.4767209, 0.50206876, -0.41695017, 0.5889068, 0.10012554, 0.07654425, 0.081931114, 0
48, 1332938446, 0.47678268, 0.50210845, -0.4169022, 0.5888568, 0.10215024, 0.10136598, 0.08437061, 0
49, 1332955113, 0.47684923, 0.50214267, -0.4168549, 0.58880734, 0.11607698, 0.08394208, 0.07482433, 0
50, 1332971780, 0.47689497, 0.5021991, -0.4168018, 0.5887597, 0.082339264, 0.09189713, 0.07408905, 0
51, 1332988447, 0.47695202, 0.5022474, -0.41675648, 0.5887042, 0.06413257, 0.0744135, 0.06927109, 0
52, 1333005114, 0.47701833, 0.50228477, -0.41671267, 0.58864975, 0.0967078, 0.08150758, 0.069621086, 0
53, 1333021781, 0.47707546, 0.5023233, -0.41666296, 0.5886058, 0.113717355, 0.102616586, 0.06347847, 0
54, 1333038448, 0.47712424, 0.50236976, -0.41661146, 0.58856314, 0.120996505, 0.11143417, 0.09367752, 0
55, 1333055115, 0.47718072, 0.5024038, -0.41657332, 0.5885154, 0.07503129, 0.080271326, 0.06630802, 0
56, 1333071782, 0.47725087, 0.5024333, -0.41653827, 0.588458, 0.0427169, 0.087873675, 0.06483364, 0
57, 1333088449, 0.47732776, 0.5024482, -0.41651317, 0.58840066, 0.08226417, 0.10221359, 0.06867981, 0
58, 1333105116, 0.4773769, 0.5024808, -0.41648737, 0.5883513, 0.12563306, 0.07344323, 0.07380772, 0
59, 1333121783, 0.47742277, 0.5024994, -0.41645613, 0.58832, 0.08973844, 0.07745953, 0.06979561, 0
60, 1333138450, 0.47745988, 0.502535, -0.41642258, 0.58828354, 0.094681785, 0.067515634, 0.07128525, 0
61, 1333155117, 0.47749895, 0.5025647, -0.41639102, 0.5882486, 0.07867678, 0.066477224, 0.06648922, 0
62, 1333171784, 0.4775504, 0.50257945, -0.4163721, 0.58820766, 0.07466473, 0.096817546, 0.065525055, 0
63, 1333188451, 0.47759095, 0.50259703, -0.41634858, 0.58817637, 0.07340255, 0.12651727, 0.070646286, 0
64, 1333205118, 0.47762135, 0.50261587, -0.41633093, 0.5881481, 0.08432473, 0.10920932, 0.079214096, 0
65, 1333221785, 0.47766128, 0.50262344, -0.41631398, 0.58812135, 0.09512197, 0.080184154, 0.080988884, 0
66, 1333238452, 0.47767898, 0.5026395, -0.4163126, 0.5880941, 0.09034036, 0.05399291, 0.0840044, 0
67, 1333255119, 0.47769335, 0.5026608, -0.41629192, 0.58807886, 0.08892284, 0.077268876, 0.062012672, 0
68, 1333271786, 0.47771645, 0.50267583, -0.41628852, 0.58804953, 0.10034055, 0.08129881, 0.080700874, 0
69, 1333288453, 0.47773105, 0.50268483, -0.41628373, 0.5880334, 0.06884378, 0.10709087, 0.070399284, 0
70, 1333305120, 0.47774455, 0.50268704, -0.41628656, 0.5880186, 0.07560057, 0.08319152, 0.07688236, 0
71, 1333321787, 0.47776926, 0.5026867, -0.41628665, 0.5879986, 0.08850487, 0.08523533, 0.0650835, 0
72, 1333338454, 0.47778514, 0.5026976, -0.4162814, 0.58798033, 0.10944191, 0.10832084, 0.07510471, 0
73, 1333355121, 0.47780156, 0.50270313, -0.41627294, 0.58796835, 0.109793365, 0.08898342, 0.0736599, 0
74, 1333371788, 0.4778077, 0.5027177, -0.41626447, 0.5879568, 0.082373686, 0.11236823, 0.06176281, 0
75, 1333388455, 0.4778312, 0.5027211, -0.41626352, 0.58793545, 0.1120238, 0.06965446, 0.07596111, 0
76, 1333405122, 0.4778569, 0.5027351, -0.41625658, 0.58790743, 0.10502181, 0.050772086, 0.07894516, 0
77, 1333421789, 0.47787303, 0.5027583, -0.41624466, 0.5878828, 0.09147357, 0.053574044, 0.071558, 0
78, 1333438456, 0.4779036, 0.50277245, -0.41623408, 0.5878535, 0.08683389, 0.073060796, 0.040973663, 0
79, 1333455123, 0.4779334, 0.5027908, -0.41621506, 0.587827, 0.1070142, 0.12011944, 0.08259106, 0
80, 1333471790, 0.477962, 0.50281215, -0.4162027, 0.58779436, 0.12414826, 0.09379207, 0.065280914, 0
81, 1333488457, 0.4779964, 0.5028374, -0.4161787, 0.5877616, 0.09780212, 0.08526081, 0.08520985, 0
82, 1333505124, 0.47802705, 0.50287944, -0.41613492, 0.5877317, 0.09182158, 0.09092596, 0.10055542, 0
83, 1333521791, 0.47807112, 0.5029059, -0.41610962, 0.58769125, 0.068972744, 0.10466218, 0.058060646, 0
84, 1333538458, 0.47811928, 0.5029351, -0.41607642, 0.58765066, 0.074233346, 0.06419851, 0.07288647, 0
85, 1333555125, 0.478164, 0.5029683, -0.41605005, 0.58760434, 0.12430151, 0.08994873, 0.06571007, 0
86, 1333571792, 0.4782171, 0.502986, -0.4160256, 0.5875634, 0.11491248, 0.08976101, 0.09040642, 0
87, 1333588459, 0.47825712, 0.5030151, -0.4159986, 0.58752507, 0.084089376, 0.116630174, 0.07500076, 0
88, 1333605126, 0.4782918, 0.50304735, -0.41597107, 0.5874887, 0.06590816, 0.11764269, 0.072143555, 0
89, 1333621793, 0.47834083, 0.5030707, -0.41594368, 0.58744806, 0.10415011, 0.075371474, 0.076088905, 0
90, 1333638460, 0.47837657, 0.5030962, -0.41592285, 0.5874119, 0.10633808, 0.06311224, 0.09071541, 0
91, 1333655127, 0.47841322, 0.5031128, -0.41590104, 0.5873834, 0.06940971, 0.066393405, 0.077983856, 0
92, 1333671794, 0.4784461, 0.5031387, -0.41587645, 0.5873516, 0.076759934, 0.076183945, 0.073848724, 0
93, 1333688461, 0.47848424, 0.5031578, -0.41585264, 0.5873213, 0.11184789, 0.09642595, 0.06630325, 0
94, 1333705128, 0.4785199, 0.5031729, -0.41584292, 0.587286, 0.115127504, 0.1113251, 0.082419395, 0
95, 1333721795, 0.47854805, 0.50318205, -0.41582996, 0.5872645, 0.08454064, 0.093190596, 0.08122063, 0
96, 1333738462, 0.47857633, 0.50319344, -0.41581258, 0.58724403, 0.053361036, 0.09850663, 0.06425762, 0
97, 1333755129, 0.47859734, 0.5032038, -0.41579473, 0.58723044, 0.080072284, 0.10353817, 0.07491112, 0
98, 1333771796, 0.47862864, 0.5032104, -0.41577595, 0.5872128, 0.084871896, 0.08201271, 0.07799244, 0
99, 1333788463, 0.47867405, 0.50320244, -0.41578704, 0.58717465, 0.07790276, 0.0895451, 0.0927639, 0
100, 1333805130, 0.47868872, 0.5032008, -0.41578493, 0.58716553, 0.084933355, 0.0765067, 0.07653427, 0
101, 1333821797, 0.47869346, 0.5032024, -0.41579145, 0.5871556, 0.115871355, 0.09627552, 0.07618904, 0
102, 1333838464, 0.47869965, 0.503195, -0.41581002, 0.58714384, 0.118349664, 0.08224562, 0.0725193, 0
103, 1333855131, 0.47871128, 0.50318885, -0.4158145, 0.5871365, 0.07750356, 0.041570056, 0.07151699, 0
104, 1333871798, 0.47871357, 0.50320446, -0.41580874, 0.5871254, 0.07322553, 0.045876704, 0.06406784, 0
105, 1333888465, 0.47873583, 0.50321144, -0.41582268, 0.5870912, 0.09438639, 0.07098392, 0.086499214, 0
106, 1333905132, 0.47875988, 0.50320584, -0.41583076, 0.5870707, 0.104862444, 0.093425736, 0.08448982, 0
107, 1333921799, 0.47877404, 0.5032075, -0.41582868, 0.5870592, 0.09887118, 0.08221835, 0.09190178, 0
108, 1333938466, 0.4787861, 0.50321484, -0.41581255, 0.5870545, 0.10364184, 0.113594875, 0.062265396, 0
109, 1333955133, 0.47880977, 0.50322646, -0.41580716, 0.5870292, 0.10308172, 0.108265206, 0.06972122, 0
110, 1333971800, 0.4788595, 0.5032189, -0.4158082, 0.58699423, 0.11136736, 0.05962789, 0.09098911, 0
111, 1333988467, 0.47888824, 0.5032323, -0.41578874, 0.58697313, 0.08782361, 0.0570414, 0.062472343, 0
112, 1334005134, 0.47891656, 0.5032483, -0.4157621, 0.5869553, 0.07372038, 0.071763754, 0.070430756, 0
113, 1334021801, 0.478935, 0.5032666, -0.41574663, 0.5869355, 0.10711836, 0.11922584, 0.056468964, 0
114, 1334038468, 0.4789689, 0.5032594, -0.4157593, 0.586905, 0.09697959, 0.10393599, 0.07802582, 0
115, 1334055135, 0.4789797, 0.50326574, -0.41573817, 0.5869057, 0.05624346, 0.08508155, 0.0849905, 0
116, 1334071802, 0.4789856, 0.50328237, -0.415733, 0.58689046, 0.060165666, 0.09540315, 0.06829834, 0
117, 1334088469, 0.47899136, 0.5032874, -0.41571885, 0.5868914, 0.10857209, 0.08219421, 0.0731287, 0
118, 1334105136, 0.4790063, 0.50327903, -0.41572332, 0.5868831, 0.119752206, 0.13196383, 0.07877731, 0
119, 1334121803, 0.478999, 0.5032794, -0.41572177, 0.5868899, 0.06332904, 0.11201151, 0.06822014, 0
120, 1334138470, 0.47899497, 0.50328016, -0.41573447, 0.5868836, 0.071225755, 0.09613627, 0.069514275, 0
121, 1334155137, 0.478993, 0.5032754, -0.41573468, 0.5868892, 0.114091516, 0.06249154, 0.07707119, 0
122, 1334171804, 0.4790051, 0.5032594, -0.41575685, 0.5868772, 0.12328659, 0.0369143, 0.087114334, 0
123, 1334188471, 0.4790067, 0.503244, -0.41577822, 0.58687407, 0.09328157, 0.065923356, 0.0729332, 0
124, 1334205138, 0.4789935, 0.50324017, -0.4157816, 0.58688575, 0.082070604, 0.05084875, 0.071793556, 0
125, 1334221805, 0.47899008, 0.5032362, -0.41579163, 0.58688486, 0.0884966, 0.11938162, 0.081409454, 0
126, 1334238472, 0.47898516, 0.50321835, -0.41581148, 0.5868901, 0.06998302, 0.1286458, 0.078505516, 0
127, 1334255139, 0.47895727, 0.5032223, -0.4158123, 0.5869088, 0.05857738, 0.11235639, 0.07810974, 0
128, 1334271806, 0.47893506, 0.5032202, -0.41582423, 0.5869203, 0.091872096, 0.09330079, 0.08656502, 0
129, 1334288473, 0.47890902, 0.50320506, -0.4158498, 0.58693624, 0.1063991, 0.05605504, 0.086447716, 0
130, 1334305140, 0.47887352, 0.503175, -0.4158874, 0.58696437, 0.08940898, 0.023098722, 0.047475815, 0
131, 1334321807, 0.47882566, 0.50315064, -0.41591877, 0.5870021, 0.08035425, 0.030103395, 0.05434513, 0
132, 1334338474, 0.4787932, 0.50311476, -0.41596138, 0.5870291, 0.094751835, 0.06664709, 0.07377434, 0
133, 1334355141, 0.47875237, 0.50307316, -0.41600767, 0.5870653, 0.065866366, 0.07452704, 0.06979847, 0
134, 1334371808, 0.47869518, 0.50303644, -0.41605973, 0.5871065, 0.07447474, 0.10585797, 0.08767319, 0
135, 1334388475, 0.4786564, 0.5029782, -0.41611186, 0.587151, 0.08711498, 0.13886519, 0.09662056, 0
136, 1334405142, 0.4786072, 0.5029305, -0.4161774, 0.5871856, 0.11443818, 0.15785559, 0.07697296, 0
137, 1334421809, 0.47855416, 0.5028975, -0.41622627, 0.58722264, 0.12086329, 0.12761606, 0.11622143, 0
138, 1334438476, 0.47851166, 0.5028512, -0.41626295, 0.5872708, 0.10881415, 0.046105806, 0.055488586, 0
139, 1334455143, 0.47847578, 0.50280714, -0.41630378, 0.58730876, 0.086361386, 0.05473676, 0.07260704, 0
140, 1334471810, 0.47841913, 0.50277805, -0.41633546, 0.58735734, 0.12118269, 0.0699723, 0.044174194, 0
141, 1334488477, 0.47838753, 0.5027517, -0.41636375, 0.5873856, 0.08318973, 0.06269963, 0.07163715, 0
142, 1334505144, 0.47837082, 0.50272924, -0.41639814, 0.5873941, 0.091866955, 0.11912704, 0.079361916, 0
143, 1334521811, 0.4783436, 0.5027068, -0.41642928, 0.58741343, 0.14205143, 0.15502925, 0.094880104, 0
144, 1334538478, 0.47832775, 0.5026842, -0.41645858, 0.5874248, 0.13046987, 0.14667389, 0.098537445, 0
145, 1334555145, 0.4783061, 0.5026715, -0.41647413, 0.58744234, 0.11393193, 0.10805845, 0.07370281, 0
146, 1334571812, 0.47828817, 0.50266117, -0.41648445, 0.58745843, 0.09316087, 0.071239166, 0.05446911, 0
147, 1334588479, 0.4782748, 0.5026554, -0.41650015, 0.5874631, 0.08754812, 0.053826064, 0.05641842, 0
148, 1334605146, 0.47826517, 0.50264794, -0.41651362, 0.58746773, 0.06548952, 0.03823636, 0.07136154, 0
149, 1334621813, 0.47826847, 0.5026552, -0.4165229, 0.58745223, 0.09023687, 0.025111234, 0.061515808, 0
150, 1334638480, 0.47828788, 0.5026384, -0.4165415, 0.5874376, 0.18237093, 0.052453127, 0.06868267, 0
151, 1334655147, 0.47828457, 0.50264084, -0.41653284, 0.5874444, 0.14385092, 0.10437004, 0.08542156, 0
152, 1334671814, 0.4783055, 0.5026363, -0.41654143, 0.5874251, 0.07297787, 0.1477671, 0.035271645, 0
153, 1334688481, 0.47831511, 0.5026426, -0.41654968, 0.58740604, 0.030696599, 0.20224816, 0.06277752, 0
154, 1334705148, 0.47831526, 0.5026649, -0.41654822, 0.58738774, 0.06441978, 0.20567527, 0.09855747, 0
155, 1334721815, 0.47833696, 0.50268084, -0.41653484, 0.5873662, 0.06426802, 0.14548615, 0.12400532, 0
156, 1334738482, 0.47836718, 0.50268126, -0.41652426, 0.58734876, 0.0723203, 0.05254186, 0.08444786, 0
157, 1334755149, 0.47838005, 0.5026951, -0.4164942, 0.58734757, 0.086173855, 0.01031937, 0.056479454, 0
158, 1334771816, 0.47838953, 0.5027015, -0.41648346, 0.5873419, 0.099641405, 0.015211845, 0.046085358, 0
159, 1334788483, 0.47838095, 0.5026995, -0.4164808, 0.5873526, 0.08721489, 0.055689603, 0.02395153, 0
160, 1334805150, 0.4783678, 0.50269985, -0.4164822, 0.587362, 0.10892613, 0.098037474, 0.049135208, 0
161, 1334821817, 0.47835323, 0.50267774, -0.4165044, 0.5873771, 0.14821881, 0.13293612, 0.09618378, 0
162, 1334838484, 0.47833747, 0.5026349, -0.41654038, 0.5874011, 0.10213804, 0.10770441, 0.065636635, 0
163, 1334855151, 0.47830305, 0.5026033, -0.41657573, 0.587431, 0.009598764, 0.1329093, 0.084012985, 0
164, 1334871818, 0.47826275, 0.50258344, -0.41659802, 0.587465, 0.030960567, 0.11369411, 0.07252407, 0
165, 1334888485, 0.47823504, 0.5025417, -0.4166367, 0.5874959, 0.15049641, 0.0921602, 0.0818882, 0
166, 1334905152, 0.47820184, 0.5024876, -0.41668054, 0.5875382, 0.17604685, 0.05244128, 0.11157036, 0
167, 1334921819, 0.47816825, 0.5024481, -0.41671842, 0.5875724, 0.09059673, 0.01502387, 0.043585777, 0
168, 1334938486, 0.4781378, 0.502428, -0.41674447, 0.5875959, 0.057249714, 0.053518165, 0.03845215, 0
169, 1334955153, 0.47813123, 0.50239515, -0.41678366, 0.58760154, 0.11447149, 0.09056812, 0.064733505, 0
170, 1334971820, 0.478104, 0.5023569, -0.41683286, 0.5876214, 0.14975993, 0.09796059, 0.0749197, 0
171, 1334988487, 0.47806993, 0.50233555, -0.41687167, 0.58763987, 0.12418424, 0.118680686, 0.08205223, 0
172, 1335005154, 0.47801766, 0.5023315, -0.416879, 0.5876807, 0.07800961, 0.06891027, 0.048549652, 0
173, 1335021821, 0.47800297, 0.50232357, -0.41688702, 0.58769363, 0.08871296, 0.09960318, 0.09491634, 0
174, 1335038488, 0.47800308, 0.5023198, -0.416901, 0.5876869, 0.06643833, 0.08843581, 0.035676956, 0
175, 1335055155, 0.478011, 0.5023314, -0.4168964, 0.5876738, 0.088633396, 0.10009827, 0.032735825, 0
176, 1335071822, 0.4780102, 0.50235856, -0.41687357, 0.58766747, 0.1475038, 0.08788954, 0.08267212, 0
177, 1335088489, 0.47800896, 0.5023682, -0.4168697, 0.587663, 0.119705044, 0.08561552, 0.08870411, 0
178, 1335105156, 0.47803468, 0.50236636, -0.41686904, 0.58764416, 0.06935339, 0.070719056, 0.100105286, 0
179, 1335121823, 0.4780576, 0.50238633, -0.41685537, 0.5876182, 0.076101914, 0.018641427, 0.09372425, 0
180, 1335138490, 0.478102, 0.5024046, -0.41682246, 0.5875898, 0.16598609, 0.039471492, 0.090610504, 0
181, 1335155157, 0.4781234, 0.5024522, -0.41676208, 0.5875745, 0.15517364, 0.074676126, 0.0531044, 0
182, 1335171824, 0.47817788, 0.5024849, -0.4167105, 0.58753884, 0.060609784, 0.12890059, 0.030718803, 0
183, 1335188491, 0.47823367, 0.502525, -0.41666684, 0.58749, 0.071529955, 0.13445757, 0.05546379, 0
184, 1335205158, 0.47828725, 0.50255615, -0.41662478, 0.5874495, 0.098807804, 0.16695952, 0.08335209, 0
185, 1335221825, 0.47832298, 0.502579, -0.4166046, 0.5874153, 0.087134294, 0.12721151, 0.09429264, 0
186, 1335238492, 0.4783635, 0.5025928, -0.41657946, 0.5873883, 0.072520345, 0.08018192, 0.06033802, 0
187, 1335255159, 0.47839698, 0.5026045, -0.41656035, 0.58736444, 0.1148946, 0.030693023, 0.060525894, 0
188, 1335271826, 0.4784126, 0.50261605, -0.41654992, 0.5873492, 0.11035907, 0.0218019, 0.049741745, 0
189, 1335288493, 0.4784102, 0.5026163, -0.4165293, 0.5873656, 0.06541062, 0.012642563, 0.0627861, 0
190, 1335305160, 0.47841397, 0.50260836, -0.41653922, 0.58736235, 0.03139463, 0.05444798, 0.057540894, 0
191, 1335321827, 0.4784027, 0.5025998, -0.41655853, 0.58736515, 0.057133712, 0.031524714, 0.085351944, 0
192, 1335338494, 0.47840157, 0.5025719, -0.41658247, 0.587373, 0.06463794, 0.086486325, 0.06931019, 0
193, 1335355161, 0.47837877, 0.5025338, -0.41661727, 0.58739954, 0.109776154, 0.14383349, 0.08011627, 0
194, 1335371828, 0.4783286, 0.5024739, -0.4166724, 0.5874525, 0.09668612, 0.16019888, 0.07028389, 0
195, 1335388495, 0.47825703, 0.5024162, -0.4167394, 0.5875127, 0.02955467, 0.110280626, 0.08670616, 0
196, 1335405162, 0.4781835, 0.5023483, -0.41682166, 0.587572, 0.0040695006, 0.035214465, 0.05974579, 0
197, 1335421829, 0.4781267, 0.50225705, -0.41693407, 0.58761656, 0.10263814, 0.018020768, 0.09130573, 0
198, 1335438496, 0.4780216, 0.5021621, -0.41704547, 0.5877042, 0.16366088, -0.0016363383, 0.036967278, 0
199, 1335455163, 0.47791758, 0.50205964, -0.4171716, 0.58778685, 0.07778564, 0.035587955, 0.08052158, 0
200, 1335471830, 0.47781688, 0.50197524, -0.41726986, 0.587871, 0.07728877, 0.062635705, 0.07360363, 0
201, 1335488497, 0.47771305, 0.5019027, -0.41736206, 0.5879518, 0.11804502, 0.12231143, 0.07121658, 0
202, 1335505164, 0.47761595, 0.5018257, -0.41744912, 0.5880347, 0.06964552, 0.16154645, 0.040403366, 0
203, 1335521831, 0.47752786, 0.501762, -0.4175394, 0.58809644, 0.060240094, 0.12460512, 0.037446976, 0
204, 1335538498, 0.4774296, 0.5017041, -0.4176232, 0.588166, 0.12527856, 0.083476275, 0.039967537, 0
205, 1335555165, 0.47731808, 0.50166154, -0.41769472, 0.5882421, 0.14909968, 0.0077279606, 0.085621834, 0
206, 1335571832, 0.47721642, 0.50159156, -0.41779715, 0.58831155, 0.16053103, -0.04151418, 0.07081413, 0
207, 1335588499, 0.4771097, 0.50151956, -0.41788673, 0.58839583, 0.12689747, -0.019150367, 0.10579014, 0
208, 1335605166, 0.47703975, 0.50145364, -0.4179726, 0.5884478, 0.08858109, 0.031496327, 0.09615612, 0
209, 1335621833, 0.47697556, 0.50139475, -0.41804457, 0.5884989, 0.05057683, 0.10889881, 0.11371231, 0
210, 1335638500, 0.476916, 0.50135225, -0.41810036, 0.5885438, 0.063782774, 0.17198876, 0.06916523, 0
211, 1335655167, 0.47688138, 0.50131685, -0.4181432, 0.5885713, 0.07279549, 0.2807439, 0.034726143, 0
212, 1335671834, 0.47686595, 0.50130653, -0.41815847, 0.58858204, 0.12875776, 0.28379104, 0.107847214, 0
213, 1335688501, 0.47687402, 0.5013165, -0.41814494, 0.5885765, 0.16101806, 0.18276677, 0.071858406, 0
214, 1335705168, 0.47690862, 0.5013524, -0.41810772, 0.58854425, 0.23520939, 0.096940696, 0.10021114, 0
215, 1335721835, 0.47695827, 0.5013952, -0.41806078, 0.5885009, 0.20769383, 0.05321799, 0.081217766, 0
216, 1335738502, 0.4770328, 0.50143754, -0.4180023, 0.5884459, 0.08017879, 0.029537013, 0.11371899, 0
217, 1335755169, 0.47713262, 0.501498, -0.4179244, 0.5883689, 0.029954536, 0.018666238, 0.1401329, 0
218, 1335771836, 0.47726032, 0.501573, -0.41779828, 0.58829105, 0.042150743, 0.08386407, 0.109703064, 0
219, 1335788503, 0.47740442, 0.5016583, -0.41767105, 0.5881916, 0.100976, 0.13861759, 0.030115128, 0
220, 1335805170, 0.47753623, 0.50174856, -0.4175402, 0.5881006, 0.15277155, 0.19101931, 0.057897568, 0
221, 1335821837, 0.4776765, 0.50182056, -0.41743767, 0.58799785, 0.12246744, 0.09691186, 0.01977539, 0
222, 1335838504, 0.4777719, 0.5018983, -0.41733518, 0.5879268, 0.08528876, 0.032237574, 0.018378258, 0
223, 1335855171, 0.4778558, 0.50194836, -0.41727895, 0.58785576, 0.10331864, -0.007035517, 0.05124569, 0
224, 1335871838, 0.47790083, 0.5019606, -0.41726407, 0.5878194, 0.080656886, -0.0038935957, 0.06691074, 0
225, 1335888505, 0.47790435, 0.50193864, -0.41728526, 0.58782023, -0.007931581, 0.032290917, 0.04474163, 0
226, 1335905172, 0.47786888, 0.50190717, -0.41732776, 0.58784574, -0.04443661, 0.062903695, 0.05634308, 0
227, 1335921839, 0.47779837, 0.50188375, -0.41738498, 0.5878823, 0.009159114, 0.059848722, 0.06632614, 0
228, 1335938506, 0.47772124, 0.5018207, -0.4174774, 0.58793336, 0.059091683, 0.06887596, 0.0832386, 0
229, 1335955173, 0.4775891, 0.5017154, -0.41761285, 0.58803445, 0.010104126, 0.0052610477, 0.091828346, 0
230, 1335971840, 0.4773902, 0.50159365, -0.41777515, 0.5881844, -0.04459128, -0.055991784, 0.09521866, 0
231, 1335988507, 0.47716734, 0.5014384, -0.41796446, 0.58836305, -0.038554866, 0.01998787, 0.09571457, 0
232, 1336005174, 0.4768941, 0.5012499, -0.4181843, 0.5885889, -0.053112935, 0.104494765, 0.12613773, 0
233, 1336021841, 0.47660413, 0.5010183, -0.41843876, 0.5888402, -0.13428636, 0.12488138, 0.122265816, 0
234, 1336038508, 0.4762583, 0.5007753, -0.4186944, 0.58914506, -0.13025576, 0.17857657, 0.074894905, 0
235, 1336055175, 0.4758497, 0.50048226, -0.41901985, 0.58949256, 0.016406745, 0.18399832, 0.04807663, 0
236, 1336071842, 0.47539243, 0.50013375, -0.41942847, 0.5898666, 0.09060209, 0.1162654, 0.061509132, 0
237, 1336088509, 0.4748638, 0.49975064, -0.4198675, 0.5903048, 0.0817407, 0.019259665, 0.102724075, 0
238, 1336105176, 0.474325, 0.49933496, -0.42034367, 0.59075046, 0.04612011, 0.0118383635, 0.064463615, 0
239, 1336121843, 0.4737728, 0.4989135, -0.42081794, 0.5912119, 0.13781965, 0.042434607, 0.069841385, 0
240, 1336138510, 0.4732115, 0.49848536, -0.42131236, 0.5916702, 0.120003656, 0.07998076, 0.07471657, 0
241, 1336155177, 0.47265822, 0.49808478, -0.42177683, 0.5921188, 0.07065312, 0.09473999, 0.07219982, 0
242, 1336171844, 0.4721609, 0.4977033, -0.42218766, 0.59254324, 0.12800632, 0.111197695, 0.09988403, 0
243, 1336188511, 0.47169858, 0.49738038, -0.4225465, 0.5929267, 0.15488508, 0.16566847, 0.070991516, 0
244, 1336205178, 0.47127616, 0.4970983, -0.42286563, 0.59327155, 0.17549679, 0.19646499, 0.056159973, 0
245, 1336221845, 0.4708913, 0.49684286, -0.42315367, 0.5935857, 0.22486164, 0.1517101, 0.053095818, 0
246, 1336238512, 0.4705393, 0.49659693, -0.42342064, 0.5938803, 0.21883555, 0.11369377, 0.08268452, 0
247, 1336255179, 0.4702157, 0.49639553, -0.42365763, 0.59413594, 0.10572364, 0.05487489, 0.079319, 0
248, 1336271846, 0.46992278, 0.49621132, -0.42386422, 0.59437394, 0.10255333, 0.032707993, 0.08677101, 0
249, 1336288513, 0.46966732, 0.49603766, -0.42405108, 0.5945877, 0.15829054, 0.05016927, 0.04967308, 0
250, 1336305180, 0.46942174, 0.49588245, -0.42422342, 0.59478813, 0.20696048, 0.09712733, 0.061406136, 0
251, 1336321847, 0.46918774, 0.4957361, -0.42438364, 0.59498024, 0.17824532, 0.11630541, 0.08929062, 0
252, 1336338514, 0.4689747, 0.4955861, -0.42454734, 0.59515643, 0.1571638, 0.11061768, 0.100842476, 0
253, 1336355181, 0.4687796, 0.49543688, -0.4247067, 0.5953208, 0.13691063, 0.13677786, 0.08070278, 0
254, 1336371848, 0.46860513, 0.49528825, -0.4248647, 0.595469, 0.11105934, 0.16456075, 0.07394409, 0
255, 1336388515, 0.46847418, 0.49515092, -0.42500055, 0.59558934, 0.112409584, 0.09460677, 0.08082867, 0
256, 1336405182, 0.4683334, 0.49505702, -0.42510325, 0.59570485, 0.22285202, 0.028505053, 0.10811043, 0
257, 1336421849, 0.4681924, 0.49496192, -0.42517927, 0.5958403, 0.23133591, 0.04336442, 0.11603737, 0
258, 1336438516, 0.46808743, 0.49484536, -0.42526916, 0.5959554, 0.13213572, 0.09201849, 0.07259178, 0
259, 1336455183, 0.46799, 0.4947515, -0.4253708, 0.5960373, 0.025908066, 0.18481311, -0.07801914, 0
260, 1336471850, 0.46788326, 0.49467194, -0.4254796, 0.59610945, 0.1408478, 0.118174426, -0.06812191, 0
261, 1336488517, 0.4677618, 0.4946034, -0.4256022, 0.59617424, 0.2521709, -0.02619326, 0.052304268, 0
262, 1336505184, 0.4676786, 0.49451053, -0.42574337, 0.5962157, 0.1681935, -0.124881156, 0.18181515, 0
263, 1336521851, 0.46758673, 0.49444017, -0.4258299, 0.5962842, 0.05205952, -0.108312815, 0.1867466, 0
264, 1336538518, 0.4675158, 0.4943621, -0.4258925, 0.5963599, 0.0063882237, 0.119314566, 0.12133789, 0
265, 1336555185, 0.46744186, 0.4942865, -0.42596543, 0.59642845, -0.03113513, 0.3249903, 0.15302944, 0
266, 1336571852, 0.46738222, 0.4942235, -0.4260187, 0.59648937, -0.020645222, 0.3831003, 0.08965969, 0
267, 1336588519, 0.46730548, 0.49417788, -0.4260374, 0.596574, 0.15747762, 0.30809495, 0.005221367, 0
268, 1336605186, 0.467203, 0.49412018, -0.4261117, 0.59664905, 0.25471336, 0.08954868, -0.06722832, 0
269, 1336621853, 0.46707535, 0.49404502, -0.42623064, 0.5967263, 0.24353056, -0.238875, 0.006594658, 0
270, 1336638520, 0.46694443, 0.4939492, -0.42636842, 0.5968095, 0.15670136, -0.39130682, 0.1723404, 0
271, 1336655187, 0.4668479, 0.49383292, -0.42648762, 0.5968961, 0.08435632, -0.27982768, 0.087984085, 0
272, 1336671854, 0.46674666, 0.49372253, -0.42661002, 0.5969792, 0.055803586, 0.08819151, 0.087472916, 0
273, 1336688521, 0.4666196, 0.49361297, -0.42671895, 0.5970911, -0.03384411, 0.36756146, 0.08624935, 0
274, 1336705188, 0.46648103, 0.49351603, -0.42683217, 0.59719855, -0.14821456, 0.49189165, 0.08593273, 0
275, 1336721855, 0.46632484, 0.493425, -0.4269293, 0.59732646, -0.04481837, 0.43732142, 0.0942812, 0
276, 1336738522, 0.46615002, 0.49330822, -0.42704514, 0.5974766, 0.09552027, 0.24475786, -0.00810051, 0
277, 1336755189, 0.46593982, 0.49318326, -0.42720062, 0.5976326, 0.14956035, -0.08550712, -0.052066803, 0
278, 1336771856, 0.46571967, 0.49305177, -0.4273742, 0.5977885, 0.17642191, -0.43331674, -0.0030126572, 0
279, 1336788523, 0.46549228, 0.49290144, -0.42758435, 0.59793925, 0.2359928, -0.5044938, 0.017354012, 0
280, 1336805190, 0.46524963, 0.49268964, -0.42784458, 0.5981165, 0.27146432, -0.27542898, 0.13589573, 0
281, 1336821857, 0.46493465, 0.49243927, -0.42814648, 0.5983516, 0.11223591, 0.15379569, 0.14434814, 0
282, 1336838524, 0.4646153, 0.49218503, -0.4284292, 0.5986063, -0.25997573, 0.55792475, 0.15268612, 0
283, 1336855191, 0.4642964, 0.4919838, -0.42866585, 0.5988496, -0.31640494, 0.73404604, 0.11186981, 0
284, 1336871858, 0.46398336, 0.49178916, -0.4288729, 0.5991037, -0.09473676, 0.70406085, 0.24719143, 0
285, 1336888525, 0.4636481, 0.49154082, -0.42912287, 0.5993882, 0.024344137, 0.39655736, 0.22175407, 0
286, 1336905192, 0.46328878, 0.491276, -0.429374, 0.5997033, 0.0018506873, -0.011822271, 0.06971645, 0
287, 1336921859, 0.46287432, 0.49102536, -0.42962718, 0.600047, 0.14528431, -0.39618298, -0.044898987, 0
288, 1336938526, 0.46243933, 0.49072033, -0.42994234, 0.60040617, 0.23425253, -0.6325184, 0.027054787, 0
289, 1336955193, 0.46196318, 0.49034378, -0.43033502, 0.600799, 0.06848214, -0.62160677, 0.0067329407, 0
290, 1336971860, 0.46143076, 0.4899373, -0.43076736, 0.60122967, -0.018862482, -0.23661573, 0.02426815, 0
291, 1336988527, 0.4608405, 0.48953447, -0.43120757, 0.60169494, 0.06284581, 0.22639896, 0.021043777, 0
292, 1337005194, 0.46022215, 0.48910597, -0.43168452, 0.6021744, 0.043825414, 0.5204412, 0.040496826, 0
293, 1337021861, 0.45958555, 0.4886694, -0.43217862, 0.6026603, -0.15546936, 0.4899641, 0.043261528, 0
294, 1337038528, 0.4589237, 0.4882475, -0.43264103, 0.6031746, -0.17367202, 0.24622656, 0.020380974, 0
295, 1337055195, 0.45829543, 0.4878349, -0.43309855, 0.60365766, 0.039091077, -0.0016401381, 0.017450333, 0
296, 1337071862, 0.45766538, 0.4874559, -0.43351725, 0.6041411, 0.28530633, -0.20157804, 0.2528019, 0
297, 1337088529, 0.45705143, 0.4871008, -0.4339239, 0.6046002, 0.2676447, -0.6248488, 0.3696108, 0
298, 1337105196, 0.4564811, 0.4867563, -0.43429163, 0.6050444, 0.32714608, -0.8809866, 0.5734644, 0
299, 1337121863, 0.45592427, 0.48640096, -0.43460038, 0.6055282, 0.31080326, -1.1533921, 0.43981075, 0
300, 1337138530, 0.45536065, 0.48601672, -0.43491992, 0.60603106, 0.3112981, -0.88912135, -0.04655075, 0
301, 1337155197, 0.45479348, 0.4855901, -0.43528032, 0.6065399, 0.28246605, -0.8900268, 0.3123846, 0
302, 1337171864, 0.45424345, 0.48516074, -0.43565434, 0.60702693, -0.06094304, -0.25878307, -0.1291647, 0
303, 1337188531, 0.45376703, 0.48471937, -0.43607295, 0.6074353, 0.41231367, 0.15342018, 0.041158676, 0
304, 1337205198, 0.45317885, 0.4843994, -0.43633774, 0.6079393, -0.14646189, 0.30732808, -0.44712257, 0
305, 1337221865, 0.45266846, 0.48406595, -0.43671533, 0.608314, 0.32994056, 1.1598402, 0.94505787, 0
306, 1337238532, 0.45207927, 0.48360503, -0.43713644, 0.60881585, 0.04379077, 0.98026246, -0.5795069, 0
307, 1337255199, 0.45183477, 0.48322767, -0.43719438, 0.6092552, -0.9804732, 2.0004578, -0.6180811, 0
308, 1337271866, 0.45183024, 0.48339087, -0.4369293, 0.6093193, 0.14494155, 3.233059, -0.84482384, 0
309, 1337288533, 0.45167446, 0.48381397, -0.43645778, 0.60943687, 0.05913999, 3.1174815, -0.28030682, 0
310, 1337305200, 0.4514725, 0.48383975, -0.43649387, 0.6095402, 0.482002, 2.3885324, -0.43055534, 0
311, 1337321867, 0.45107386, 0.48367423, -0.43680233, 0.60974574, -0.8350311, 1.6978194, -0.097592354, 0
312, 1337338534, 0.45075065, 0.48359364, -0.43685326, 0.61001223, -1.0637717, 1.0796018, -0.25079727, 0
313, 1337355201, 0.45051995, 0.48376438, -0.43671805, 0.61014414, -0.025150124, 1.1452094, -0.2718563, 0
314, 1337371868, 0.4503069, 0.48404932, -0.4364992, 0.6102318, 0.83753073, 0.41549987, -0.12780476, 0
315, 1337388535, 0.4502131, 0.48413134, -0.43646368, 0.61026144, 0.58365804, -0.08881444, 0.43494797, 0
316, 1337405202, 0.4501619, 0.4842722, -0.4363291, 0.6102836, 0.11263265, -0.52633524, 0.40679073, 0
317, 1337421869, 0.45015213, 0.48461306, -0.43596566, 0.61028004, 0.26917398, -0.7742723, 0.38225174, 0
318, 1337438536, 0.4502203, 0.4849658, -0.4356252, 0.61019266, 0.7056331, -1.0275779, 0.30982876, 0
319, 1337455203, 0.45038706, 0.48523837, -0.4353694, 0.6100354, 0.25912258, -1.2893767, 0.40272617, 0
320, 1337471870, 0.45061094, 0.48554847, -0.43504682, 0.60985345, 0.30480886, -1.4258806, 0.527545, 0
321, 1337488537, 0.45083112, 0.48594353, -0.43459222, 0.60970026, 0.7355249, -1.4770484, 0.35196018, 0
322, 1337505204, 0.45103276, 0.4862575, -0.43417627, 0.6095971, 0.7768944, -1.3054979, 0.44217682, 0
323, 1337521871, 0.4512077, 0.48645893, -0.43397042, 0.6094535, 0.5254937, -1.4814663, 0.14569187, 0
324, 1337538538, 0.45149416, 0.48654372, -0.43378356, 0.6093066, 0.4903425, -0.87163484, 0.76488876, 0
325, 1337555205, 0.45176455, 0.4867131, -0.4335559, 0.60913295, 0.30051586, -0.8708801, -0.28071308, 0
326, 1337571872, 0.45208126, 0.48695686, -0.4332777, 0.608901, 0.39192617, -0.33036086, 0.3924961, 0
327, 1337588539, 0.45236734, 0.4871426, -0.43306503, 0.6086913, 0.8519704, -0.11408436, -0.037438393, 0
328, 1337605206, 0.45263925, 0.48722783, -0.43297136, 0.60848755, 0.19041762, -0.019272627, 0.08167553, 0
329, 1337621873, 0.45296785, 0.48734, -0.43284678, 0.6082418, -0.14167927, 0.06198886, -0.088448524, 0
330, 1337638540, 0.4533293, 0.4875647, -0.43262148, 0.60795254, 0.027867595, 0.36914507, 0.079927444, 0
331, 1337655207, 0.45367846, 0.487787, -0.43239272, 0.6076765, 0.24631943, 0.516734, 0.102814674, 0
332, 1337671874, 0.45397842, 0.48789954, -0.432288, 0.60743654, 0.2719347, 0.64814645, 0.020066261, 0
333, 1337688541, 0.45425344, 0.48797086, -0.4322484, 0.60720176, -0.20100063, 0.5219434, -0.09612751, 0
334, 1337705208, 0.4545151, 0.48807392, -0.4321591, 0.6069866, -0.18985827, 0.5517721, -0.0041646957, 0
335, 1337721875, 0.4547406, 0.48816398, -0.43207616, 0.6068045, 0.08130127, 0.44084197, 0.034314156, 0
336, 1337738542, 0.45494127, 0.4882274, -0.43204024, 0.6066287, 0.031891163, 0.34021756, 0.081721306, 0
337, 1337755209, 0.45513293, 0.48827302, -0.4320271, 0.60645753, 0.04267421, 0.13227408, 0.16901588, 0
338, 1337771876, 0.4553141, 0.48831943, -0.43200567, 0.6062993, 0.17128737, -0.09492059, 0.12100887, 0
339, 1337788543, 0.45546535, 0.48835456, -0.43196014, 0.6061899, 0.16136965, -0.24230324, 0.18890858, 0
340, 1337805210, 0.45561182, 0.48837888, -0.4319266, 0.60608405, 0.042570278, -0.38131222, 0.16783524, 0
341, 1337821877, 0.45576987, 0.4883788, -0.4318966, 0.6059867, 0.08246555, -0.35387197, 0.105072975, 0
342, 1337838544, 0.45587537, 0.48837882, -0.43189177, 0.6059109, -0.061180413, -0.059012562, -0.17845821, 0
343, 1337855211, 0.45595127, 0.48843688, -0.43186316, 0.6058272, -0.099222206, 0.10624621, -0.30059242, 0
344, 1337871878, 0.45599675, 0.48853123, -0.43182868, 0.6057415, -0.07249654, 0.28655368, -0.21754742, 0
345, 1337888545, 0.45601407, 0.48861215, -0.43182614, 0.60566497, -0.06847208, 0.33136848, -0.033376694, 0
346, 1337905212, 0.45598796, 0.48865685, -0.43186232, 0.60562277, -0.12570329, 0.39418837, 0.0253582, 0
347, 1337921879, 0.45587125, 0.4886851, -0.4319337, 0.60563684, -0.159678, 0.49311742, -0.12968826, 0
348, 1337938546, 0.4556755, 0.4886899, -0.43204117, 0.6057039, -0.12200343, 0.59162, -0.24053192, 0
349, 1337955213, 0.45539472, 0.48864487, -0.4322276, 0.6058182, -0.039658014, 0.64262164, -0.20173454, 0
350, 1337971880, 0.4550625, 0.48856744, -0.43248644, 0.60594565, -0.13922969, 0.6261867, -0.16789246, 0
351, 1337988547, 0.45469683, 0.48850343, -0.43275505, 0.60608, -0.12701783, 0.48185885, -0.30862427, 0
352, 1338005214, 0.4542778, 0.4884364, -0.4330553, 0.6062336, 0.08218493, 0.30093783, -0.20354176, 0
353, 1338021881, 0.4538601, 0.4883391, -0.433373, 0.606398, 0.22359364, 0.025366262, 0.17207623, 0
354, 1338038548, 0.45349964, 0.48822927, -0.43367386, 0.60654086, 0.36902213, -0.17968228, 0.5626354, 0
355, 1338055215, 0.45317137, 0.4881085, -0.43392965, 0.6067005, 0.370905, -0.34959707, 0.7235775, 0
356, 1338071882, 0.45287088, 0.4880157, -0.43408895, 0.6068855, 0.27280673, -0.370582, 0.6209278, 0
357, 1338088549, 0.45265898, 0.4879205, -0.43421206, 0.60703206, 0.44035742, -0.20901568, 0.50660515, 0
358, 1338105216, 0.45255226, 0.48782888, -0.43429795, 0.60712385, 0.44335896, -0.04640387, 0.5557318, 0
359, 1338121883, 0.45248994, 0.48781914, -0.43425938, 0.6072056, 0.38622814, -0.117055744, 0.4049034, 0
360, 1338138550, 0.45253482, 0.4878376, -0.43415478, 0.60723215, 0.45936182, -0.255592, 0.22867393, 0
361, 1338155217, 0.4526526, 0.48785615, -0.43403026, 0.60721856, 0.5591201, -0.32688278, 0.19418049, 0
362, 1338171884, 0.45285407, 0.48786283, -0.4339271, 0.60713655, 0.37545907, -0.44887123, 0.1811266, 0
363, 1338188551, 0.4530901, 0.4878895, -0.43378928, 0.60703754, 0.079757914, -0.42826, 0.48282433, 0
364, 1338205218, 0.4533704, 0.4879363, -0.4336177, 0.60691303, 0.058962494, -0.6492012, 0.08999157, 0
365, 1338221885, 0.4536613, 0.48796642, -0.43348017, 0.6067699, 0.26777634, -0.5567661, 0.1276474, 0
366, 1338238552, 0.45392543, 0.48796433, -0.43337697, 0.60664773, 0.14444725, -0.27278012, 0.41642857, 0
367, 1338255219, 0.45418793, 0.48800093, -0.4332307, 0.6065264, -0.0318725, -0.35037622, -0.046178818, 0
368, 1338271886, 0.45447218, 0.4880744, -0.43303683, 0.6063926, 0.16575654, -0.11427055, -0.03349209, 0
369, 1338288553, 0.45474717, 0.48811156, -0.43289593, 0.6062572, 0.300255, -0.014277561, 0.06255913, 0
370, 1338305220, 0.45503443, 0.48809525, -0.43280053, 0.60612303, 0.06306373, -0.11385996, 0.052602768, 0
371, 1338321887, 0.45524806, 0.48813915, -0.432648, 0.60603607, -0.07171631, -0.08156817, 0.10528374, 0
372, 1338338554, 0.4554643, 0.4882257, -0.43245822, 0.6059394, 0.037756033, -0.043657668, -0.128335, 0
373, 1338355221, 0.4556912, 0.48831758, -0.43228692, 0.6058169, 0.1478033, 0.2106489, -0.157197, 0
374, 1338371888, 0.45585552, 0.48838615, -0.43216076, 0.60572815, 0.16929598, 0.2688264, -0.01505661, 0
375, 1338388555, 0.4559772, 0.4884158, -0.4320637, 0.6056818, -0.05158992, 0.21898392, 0.08937359, 0
376, 1338405222, 0.4560571, 0.48844936, -0.43197787, 0.6056556, -0.17970061, 0.22038445, 0.033740044, 0
377, 1338421889, 0.45607424, 0.48847723, -0.43192282, 0.60565966, -0.094525866, 0.26216125, -0.111094475, 0
378, 1338438556, 0.4560463, 0.48842704, -0.43196797, 0.6056888, -0.0029701518, 0.34140286, -0.09198284, 0
379, 1338455223, 0.45592475, 0.48830742, -0.43208176, 0.6057957, 0.0011260583, 0.33504838, 0.027598381, 0
380, 1338471890, 0.45572647, 0.48815706, -0.43223253, 0.60595864, -0.12984225, 0.29963788, 0.062095642, 0
381, 1338488557, 0.45547605, 0.48795548, -0.43243653, 0.6061635, -0.056444846, 0.2942955, 0.06266403, 0
382, 1338505224, 0.45519337, 0.48772225, -0.432682, 0.6063883, 0.041000098, 0.35230872, 0.110025406, 0
383, 1338521891, 0.4549298, 0.48745242, -0.43293628, 0.6066215, 0.07536449, 0.47726583, 0.106266975, 0
384, 1338538558, 0.45469064, 0.48719952, -0.43316594, 0.6068399, 0.18658482, 0.6036117, 0.085188866, 0
385, 1338555225, 0.4544672, 0.48698208, -0.43335867, 0.60704416, 0.2223517, 0.6966899, -0.037038803, 0
386, 1338571892, 0.45428014, 0.48679492, -0.43353796, 0.6072064, 0.0051675076, 0.8006408, -0.16437054, 0
387, 1338588559, 0.4541509, 0.48665297, -0.43366656, 0.6073251, -0.09427944, 0.8234396, -0.0841074, 0
388, 1338605226, 0.45408952, 0.4865648, -0.43373245, 0.6073945, 0.04415979, 0.8315453, 0.02113533, 0
389, 1338621893, 0.45406634, 0.48650655, -0.43376234, 0.6074372, 0.22807418, 0.7711794, 0.07149696, 0
390, 1338638560, 0.4540998, 0.48644927, -0.4337607, 0.60745925, 0.20445412, 0.75555915, -0.075782776, 0
391, 1338655227, 0.45417976, 0.48645076, -0.4337256, 0.6074233, 0.10892021, 0.8459364, -0.15781593, 0
392, 1338671894, 0.45428878, 0.48648825, -0.43365583, 0.60736156, 0.15600891, 0.81072307, -0.123036385, 0
393, 1338688561, 0.4543964, 0.48657683, -0.43357435, 0.60726815, 0.13920778, 0.63385075, -0.008883476, 0
394, 1338705228, 0.4545611, 0.48667544, -0.43347773, 0.6071349, -0.03608762, 0.45335335, 0.0011415482, 0
395, 1338721895, 0.45475852, 0.48681575, -0.43331784, 0.60698867, -0.055466976, 0.39521024, -0.068561554, 0
396, 1338738562, 0.45498398, 0.48698112, -0.4331402, 0.6068137, 0.005788191, 0.45843175, -0.13318062, 0
397, 1338755229, 0.4552081, 0.48715478, -0.43296748, 0.6066295, 0.12340552, 0.43789944, -0.0010795593, 0
398, 1338771896, 0.45538312, 0.4873115, -0.43284863, 0.6064572, 0.18048716, 0.16268994, 0.047519684, 0
399, 1338788563, 0.45551872, 0.48741844, -0.43275106, 0.6063391, 0.08220807, -0.06381541, 0.090177536, 0
400, 1338805230, 0.4556215, 0.4875241, -0.43265927, 0.6062425, 0.049024213, -0.08329836, 0.021959305, 0
401, 1338821897, 0.45568898, 0.48761904, -0.43260777, 0.606152, -0.018174732, -0.06880489, 0.008756638, 0
402, 1338838564, 0.45571318, 0.4876671, -0.43259984, 0.6061008, 0.027951635, -0.067752585, 0.064344406, 0
403, 1338855231, 0.45570955, 0.4876965, -0.43261576, 0.60606855, 0.027389947, -0.10301399, 0.08814144, 0
404, 1338871898, 0.4556627, 0.48773107, -0.43261102, 0.60607934, 0.08549058, -0.08366783, 0.12858295, 0
405, 1338888565, 0.45559332, 0.4877387, -0.43262926, 0.6061125, 0.17443152, -0.10501399, 0.17135811, 0
406, 1338905232, 0.45551905, 0.48770645, -0.43269566, 0.60614663, 0.07861643, -0.1208349, 0.100577354, 0
407, 1338921899, 0.45541176, 0.48769122, -0.43275926, 0.606194, 0.07080041, -0.15617052, 0.16508865, 0
408, 1338938566, 0.45531833, 0.48768324, -0.43278167, 0.60625464, 0.16482778, -0.15292956, 0.18980789, 0
409, 1338955233, 0.4552341, 0.4876534, -0.4328081, 0.606323, 0.24691945, -0.20772691, 0.17208195, 0
410, 1338971900, 0.45515227, 0.4876127, -0.43285474, 0.60638386, 0.19412816, -0.24063227, 0.22709846, 0
411, 1338988567, 0.45509306, 0.48757744, -0.43288848, 0.6064328, 0.091156185, -0.26847124, 0.27159882, 0
412, 1339005234, 0.4550557, 0.48752925, -0.4329308, 0.60646933, 0.18793014, -0.24781395, 0.16094303, 0
413, 1339021901, 0.45501956, 0.4874609, -0.4329664, 0.6065258, 0.24369998, -0.16341032, 0.07753658, 0
414, 1339038568, 0.4549729, 0.4874422, -0.4329855, 0.6065622, 0.10186603, -0.09855424, 0.096559525, 0
415, 1339055235, 0.45497513, 0.48745486, -0.43298432, 0.6065513, 0.1286563, -0.067962244, 0.17764854, 0
416, 1339071902, 0.45499286, 0.48747832, -0.43294954, 0.606544, 0.074366115, -0.12371353, 0.14375496, 0
417, 1339088569, 0.45504758, 0.4875295, -0.43287832, 0.6065126, 0.014096962, -0.18526721, 0.07554054, 0
418, 1339105236, 0.45516342, 0.48758557, -0.43278018, 0.6064507, 0.27047214, -0.051262025, 0.17331028, 0
419, 1339121903, 0.45527738, 0.4876196, -0.43269387, 0.60639936, 0.477211, 0.13114958, 0.14151955, 0
420, 1339138570, 0.45537385, 0.48766208, -0.43259406, 0.606364, 0.3155532, 0.21729252, -0.027108192, 0
421, 1339155237, 0.45547923, 0.48775885, -0.43247253, 0.6062937, 0.13737911, 0.3389404, 0.03944683, 0
422, 1339171904, 0.45560065, 0.48787716, -0.4323238, 0.6062134, 0.0039722724, 0.35303605, 0.134696, 0
423, 1339188571, 0.45577484, 0.48797742, -0.4322045, 0.60608673, -0.11687716, 0.26015052, -0.06917763, 0
424, 1339205238, 0.45595714, 0.4881099, -0.43205622, 0.6059488, -0.23416334, 0.21140794, -0.1472454, 0
425, 1339221905, 0.4561351, 0.48829177, -0.4318568, 0.6058102, 0.038634773, 0.2446841, -0.079307556, 0
426, 1339238572, 0.45629168, 0.4884746, -0.43165788, 0.60568696, 0.34275454, 0.3145679, -0.035949707, 0
427, 1339255239, 0.4564101, 0.48862705, -0.43151948, 0.6055731, 0.2850501, 0.27385077, 0.2298975, 0
428, 1339271906, 0.4565767, 0.48873103, -0.43141007, 0.60544163, -0.050884735, 0.08443828, 0.15696049, 0
429, 1339288573, 0.45671493, 0.48887601, -0.43124694, 0.60533655, 0.050435252, 0.014904291, 0.064416885, 0
430, 1339305240, 0.45684385, 0.48902893, -0.43107918, 0.60523534, 0.30256826, -0.014419938, -0.06387234, 0
431, 1339321907, 0.45695612, 0.48919195, -0.43092418, 0.6051292, 0.24226569, -0.03860851, 0.05949211, 0
432, 1339338574, 0.45709702, 0.48937246, -0.43074653, 0.6050032, 0.09015842, -0.14263815, 0.052391052, 0
433, 1339355241, 0.45722845, 0.4895917, -0.4305361, 0.60487634, 0.16568759, -0.2229884, 0.103342056, 0
434, 1339371908, 0.4574178, 0.4897835, -0.4303705, 0.60469556, 0.2909609, -0.2851793, 0.09002018, 0
435, 1339388575, 0.4576281, 0.4899642, -0.43021324, 0.604502, 0.37495416, -0.30482852, 0.14816761, 0
436, 1339405242, 0.4578298, 0.4901586, -0.43005303, 0.6043057, 0.3732644, -0.33167803, 0.1803751, 0
437, 1339421909, 0.4580222, 0.49038136, -0.42984375, 0.60412806, 0.21038425, -0.38020357, 0.13254929, 0
438, 1339438576, 0.4582694, 0.4905724, -0.42967132, 0.60390806, 0.20548306, -0.36118466, 0.14803314, 0
439, 1339455243, 0.4585373, 0.49075538, -0.42950237, 0.6036762, 0.18325067, -0.3011855, 0.12810326, 0
440, 1339471910, 0.45878533, 0.4909531, -0.42932704, 0.6034517, 0.10886198, -0.22551183, 0.16508007, 0
441, 1339488577, 0.45902827, 0.4911551, -0.42914838, 0.6032296, 0.111862645, -0.18892321, 0.17118454, 0
442, 1339505244, 0.45925897, 0.49132657, -0.42899194, 0.6030256, 0.20648015, -0.14695507, 0.12701511, 0
443, 1339521911, 0.4594616, 0.49145326, -0.4288913, 0.60283977, 0.1824438, -0.08066091, 0.09353256, 0
444, 1339538578, 0.45963654, 0.49154672, -0.42881417, 0.60268486, 0.07242669, -0.022826707, 0.09501457, 0
445, 1339555245, 0.4597788, 0.49165, -0.42874104, 0.60254425, 0.024970263, -0.025259247, 0.104073524, 0
446, 1339571912, 0.45992488, 0.49173054, -0.4286752, 0.6024138, 0.049381163, -0.04842341, 0.12775612, 0
447, 1339588579, 0.46005976, 0.49179298, -0.4286171, 0.6023012, 0.050565783, -0.013449222, 0.09920502, 0
448, 1339605246, 0.4601666, 0.4918606, -0.42856252, 0.6022032, 0.06992804, 0.057830177, 0.13785458, 0
449, 1339621913, 0.46025434, 0.49193236, -0.42850122, 0.60212106, 0.13721326, 0.07160953, 0.06387901, 0
450, 1339638580, 0.46029183, 0.49201453, -0.42843693, 0.60207105, 0.1472946, 0.051101096, 0.059423447, 0
451, 1339655247, 0.46035233, 0.49205709, -0.42841074, 0.60200864, 0.08979722, 0.0556326, 0.11900902, 0
452, 1339671914, 0.46043283, 0.49210054, -0.42838895, 0.601927, 0.008169622, -0.0017011571, 0.08002281, 0
453, 1339688581, 0.46052623, 0.49216852, -0.42832214, 0.6018475, 0.058246806, 0.02822611, 0.06989384, 0
454, 1339705248, 0.46060854, 0.49225178, -0.42822713, 0.601784, 0.16046688, 0.07942175, 0.076909065, 0
455, 1339721915, 0.4606959, 0.49230874, -0.42815998, 0.6017183, 0.18829335, 0.054112263, 0.07789421, 0
456, 1339738582, 0.46077985, 0.49236462, -0.42810953, 0.6016441, 0.13183933, 0.019474683, 0.05542946, 0
457, 1339755249, 0.46086922, 0.49243906, -0.4280445, 0.601561, 0.13001525, 0.073481, 0.08069801, 0
458, 1339771916, 0.46096927, 0.4925262, -0.42796093, 0.6014725, 0.15757701, 0.10399367, 0.042339325, 0
459, 1339788583, 0.46109167, 0.49260926, -0.42788038, 0.6013679, 0.14214441, 0.098469526, 0.023481369, 0
460, 1339805250, 0.46122888, 0.49271175, -0.4277882, 0.60124445, 0.10608506, 0.13674434, 0.07344246, 0
461, 1339821917, 0.4613755, 0.49281597, -0.42768085, 0.6011229, 0.13166009, 0.15307508, 0.09354305, 0
462, 1339838584, 0.46153465, 0.49291223, -0.42758256, 0.6009917, 0.1562778, 0.14616898, 0.04859352, 0
463, 1339855251, 0.46168518, 0.49301183, -0.42749107, 0.60085946, 0.12084474, 0.14393899, 0.051589012, 0
464, 1339871918, 0.4618288, 0.49310124, -0.4274049, 0.6007371, 0.088674515, 0.15231514, 0.09169674, 0
465, 1339888585, 0.46196103, 0.49320033, -0.42730394, 0.6006258, 0.053688034, 0.14931291, 0.08573055, 0
466, 1339905252, 0.46210715, 0.49329725, -0.427212, 0.6004993, 0.07216027, 0.083653525, 0.06800938, 0
467, 1339921919, 0.46223405, 0.49340194, -0.42710936, 0.60038865, 0.10461904, 0.059386052, 0.061972618, 0
468, 1339938586, 0.462357, 0.4935057, -0.4270149, 0.6002758, 0.14929526, 0.08509429, 0.09375763, 0
469, 1339955253, 0.46247432, 0.49358323, -0.42693427, 0.6001791, 0.1363163, 0.0914282, 0.095915794, 0
470, 1339971920, 0.46257964, 0.49366534, -0.42685038, 0.60009, 0.08424592, 0.0859577, 0.084545135, 0
471, 1339988587, 0.46269178, 0.49373952, -0.42677453, 0.5999963, 0.08096757, 0.032654572, 0.07105446, 0
472, 1340005254, 0.46279883, 0.49381056, -0.4266908, 0.59991485, 0.08534976, 0.03414138, 0.07926178, 0
473, 1340021921, 0.46287867, 0.49389204, -0.4266112, 0.5998427, 0.092484966, -0.007540433, 0.093616486, 0
474, 1340038588, 0.46295318, 0.49394956, -0.42656547, 0.5997704, 0.115187176, 0.021570342, 0.07592201, 0
475, 1340055255, 0.46301824, 0.49399683, -0.42651677, 0.5997159, 0.12821552, 0.03940623, 0.07851696, 0
476, 1340071922, 0.4630795, 0.4940373, -0.42648244, 0.5996597, 0.1526969, 0.026450746, 0.062117577, 0
477, 1340088589, 0.46312413, 0.49406695, -0.42645082, 0.5996234, 0.09103526, 0.022837212, 0.0612278, 0
478, 1340105256, 0.46318397, 0.4940834, -0.42643684, 0.59957355, 0.060209025, 0.011166931, 0.10189152, 0
479, 1340121923, 0.46321622, 0.4941231, -0.42640004, 0.59954214, 0.081102125, 0.004847102, 0.11891651, 0
480, 1340138590, 0.46326935, 0.4941324, -0.4263808, 0.5995069, 0.12028395, -4.208749E-4, 0.10205746, 0
481, 1340155257, 0.46330678, 0.49413854, -0.42636842, 0.59948176, 0.1400541, 0.04876561, 0.09393215, 0
482, 1340171924, 0.46332273, 0.49415135, -0.4263533, 0.59946966, 0.13208073, 0.06652774, 0.08665371, 0
483, 1340188591, 0.46332875, 0.49415562, -0.42636067, 0.5994562, 0.14124747, 0.07072576, 0.06526756, 0
484, 1340205258, 0.46332532, 0.49414575, -0.4263887, 0.599447, 0.07112003, 0.0480155, 0.076854706, 0
485, 1340221925, 0.4633292, 0.49412885, -0.42640808, 0.5994442, 0.07200783, 0.02572053, 0.11430645, 0
486, 1340238592, 0.4633408, 0.49410844, -0.426428, 0.59943795, 0.09703569, 0.043569606, 0.10160351, 0
487, 1340255259, 0.4633497, 0.49408972, -0.42643228, 0.5994435, 0.13247904, 0.075814925, 0.08801746, 0
488, 1340271926, 0.46335682, 0.4940676, -0.42646486, 0.59943295, 0.12956554, 0.093076386, 0.0334692, 0
489, 1340288593, 0.46335706, 0.49405947, -0.4264703, 0.5994356, 0.14768283, 0.070354946, 0.0488472, 0
490, 1340305260, 0.46336088, 0.49407005, -0.4264746, 0.5994209, 0.13626064, 0.09202207, 0.10043621, 0
491, 1340321927, 0.46336687, 0.4940873, -0.42646146, 0.5994114, 0.11228218, 0.07411935, 0.12279701, 0
492, 1340338594, 0.4634052, 0.4940928, -0.42645288, 0.5993835, 0.100752264, 0.078429356, 0.09231663, 0
493, 1340355261, 0.4634332, 0.4941005, -0.4264512, 0.5993567, 0.14673647, 0.098546416, 0.089907646, 0
494, 1340371928, 0.46345863, 0.49411148, -0.42644417, 0.59933287, 0.15586184, 0.12480427, 0.07582188, 0
495, 1340388595, 0.46347478, 0.49413407, -0.42642072, 0.5993183, 0.099004485, 0.13049021, 0.059536934, 0
496, 1340405262, 0.46349493, 0.49415082, -0.42641258, 0.5992948, 0.076588504, 0.13993432, 0.044787407, 0
497, 1340421929, 0.46353254, 0.49416822, -0.42639536, 0.59926355, 0.10692345, 0.16475117, 0.041731834, 0
498, 1340438596, 0.46357414, 0.49417594, -0.42640126, 0.59922093, 0.11617086, 0.14859521, 0.05576706, 0
499, 1340455263, 0.4636007, 0.49419925, -0.42637682, 0.5991986, 0.10565793, 0.13273339, 0.061573982, 0
500, 1340471930, 0.46364248, 0.49422684, -0.42635274, 0.5991606, 0.10226232, 0.14577985, 0.05152893, 0
501, 1340488597, 0.463702, 0.4942481, -0.4263418, 0.5991049, 0.09742304, 0.14509478, 0.046891212, 0
502, 1340505264, 0.4637282, 0.49428785, -0.42630583, 0.59907717, 0.12654833, 0.16931866, 0.063344, 0
503, 1340521931, 0.4637765, 0.49430263, -0.42628986, 0.5990391, 0.15606524, 0.15526171, 0.09015083, 0
504, 1340538598, 0.4638285, 0.4943246, -0.42626598, 0.59899765, 0.08895883, 0.12227745, 0.094851494, 0
505, 1340555265, 0.46387014, 0.4943576, -0.42623404, 0.59896094, 0.050626133, 0.05237959, 0.082120895, 0
506, 1340571932, 0.46392244, 0.49438614, -0.42620662, 0.59891635, 0.09437432, 0.11374507, 0.102565765, 0
507, 1340588599, 0.4639505, 0.49442843, -0.4261663, 0.59888834, 0.117465325, 0.1205561, 0.08140087, 0
508, 1340605266, 0.46400285, 0.4944376, -0.42614797, 0.59885323, 0.07778385, 0.10383272, 0.04273987, 0
509, 1340621933, 0.46404117, 0.49446464, -0.42611995, 0.59882116, 0.07106952, 0.0893654, 0.0483675, 0
510, 1340638600, 0.46406263, 0.4944787, -0.42609656, 0.59880954, 0.11846455, 0.102372736, 0.0692482, 0
511, 1340655267, 0.4640932, 0.49446753, -0.4261019, 0.5987913, 0.08959159, 0.09836246, 0.059926987, 0
512, 1340671934, 0.4641044, 0.49444684, -0.4261241, 0.5987839, 0.035494976, 0.111416735, 0.04918194, 0
513, 1340688601, 0.4641118, 0.4944324, -0.426151, 0.59877104, 0.025439126, 0.10297577, 0.05766678, 0
514, 1340705268, 0.46407896, 0.4944292, -0.42616132, 0.5987918, 0.096266806, 0.11406872, 0.04960823, 0
515, 1340721935, 0.46406525, 0.49439514, -0.42620257, 0.5988012, 0.1285023, 0.10894692, 0.07223797, 0
516, 1340738602, 0.46402913, 0.49438068, -0.42621526, 0.59883213, 0.11135371, 0.09788191, 0.0948534, 0
517, 1340755269, 0.46398294, 0.494374, -0.42623353, 0.5988604, 0.09590606, 0.07806436, 0.0786047, 0
518, 1340771936, 0.463962, 0.49436474, -0.42623594, 0.59888256, 0.12158568, 0.06557356, 0.09014511, 0
519, 1340788603, 0.46393907, 0.49437028, -0.42622665, 0.59890234, 0.14751743, 0.065244325, 0.08564186, 0
520, 1340805270, 0.46394292, 0.49436375, -0.4262433, 0.598893, 0.13805813, 0.04592938, 0.08752251, 0
521, 1340821937, 0.46393943, 0.49435985, -0.42625114, 0.5988931, 0.1308056, 0.074764416, 0.06513691, 0
522, 1340838604, 0.46397403, 0.49434292, -0.42627728, 0.59886175, 0.124874674, 0.06810798, 0.059308052, 0
523, 1340855271, 0.46399164, 0.49433705, -0.426274, 0.5988553, 0.14740747, 0.07870338, 0.101161, 0
524, 1340871938, 0.4640151, 0.49433205, -0.42626867, 0.5988452, 0.1477016, 0.010630053, 0.11201286, 0
525, 1340888605, 0.46402666, 0.494321, -0.4262693, 0.59884477, 0.120870665, 0.069712795, 0.11429787, 0
526, 1340905272, 0.464046, 0.4942995, -0.42628208, 0.59883845, 0.10206496, 0.05697502, -0.014529228, 0
527, 1340921939, 0.46406275, 0.49429628, -0.42628825, 0.5988237, 0.03186937, 0.007172754, 0.030322075, 0
528, 1340938606, 0.4640781, 0.49429283, -0.42629236, 0.59881186, 0.0078339055, 0.10130479, 0.124708176, 0
529, 1340955273, 0.4640846, 0.4942432, -0.42631465, 0.5988319, 0.14950044, 0.2819873, 0.12267494, 0
530, 1340971940, 0.46404415, 0.4941616, -0.4263748, 0.5988876, 0.19345717, 0.43126222, 0.030778885, 0
531, 1340988607, 0.4639625, 0.4940933, -0.42644262, 0.59895897, -0.0021342135, 0.5410576, -0.032051086, 0
532, 1341005274, 0.46390268, 0.49404272, -0.4265147, 0.5989957, -0.05399559, 0.6032049, -0.05097866, 0
533, 1341021941, 0.4638565, 0.4940262, -0.4265493, 0.5990205, 0.017551914, 0.61976635, -0.08465862, 0
534, 1341038608, 0.4638575, 0.49404487, -0.42655674, 0.59899896, 0.038544137, 0.55599207, -0.010933876, 0
535, 1341055275, 0.4639139, 0.4940932, -0.4265119, 0.5989475, 0.06821559, 0.43677023, 0.030443192, 0
536, 1341071942, 0.46396804, 0.49416104, -0.42644206, 0.5988992, 0.20315506, 0.2944211, 0.017616272, 0
537, 1341088609, 0.46400604, 0.49422622, -0.42638776, 0.59885466, 0.22769275, 0.19937445, 0.043157578, 0
538, 1341105276, 0.46404037, 0.49428594, -0.42634946, 0.598806, 0.15291683, 0.10629427, 0.056506157, 0
539, 1341121943, 0.46409178, 0.49435008, -0.42628902, 0.5987564, 0.042921863, 0.009673641, 0.08899689, 0
540, 1341138610, 0.46415648, 0.49441808, -0.4262219, 0.59869784, 0.013046004, -0.1377821, 0.100530624, 0
541, 1341155277, 0.46420535, 0.49449456, -0.42613715, 0.5986571, 0.072179265, -0.1909337, 0.12928867, 0
542, 1341171944, 0.4642646, 0.49454674, -0.42607576, 0.59861153, 0.17958193, -0.1792138, 0.1685133, 0
543, 1341188611, 0.46429268, 0.4945628, -0.4260461, 0.59859776, 0.22440231, -0.15926953, 0.14088154, 0
544, 1341205278, 0.46429417, 0.49454874, -0.4260413, 0.5986116, 0.16361082, -0.1721186, 0.15226364, 0
545, 1341221945, 0.46427068, 0.49453774, -0.4260419, 0.5986384, 0.14173827, -0.16353998, 0.10636711, 0
546, 1341238612, 0.4642555, 0.49450725, -0.4260674, 0.59865725, 0.15970582, -0.14653331, 0.10628986, 0
547, 1341255279, 0.464245, 0.49447316, -0.4260917, 0.59867626, 0.13405345, -0.12633534, 0.117673874, 0
548, 1341271946, 0.46423775, 0.49444565, -0.42609757, 0.5987004, 0.12097952, -0.10061905, 0.09189606, 0
549, 1341288613, 0.46423918, 0.49442348, -0.42610326, 0.5987136, 0.14172688, -0.054363046, 0.08643055, 0
550, 1341305280, 0.46425155, 0.4943725, -0.4261444, 0.59871674, 0.13266633, -0.014525884, 0.07163525, 0
551, 1341321947, 0.46422347, 0.4943344, -0.42617756, 0.5987465, 0.10695251, 0.02307749, 0.08898735, 0
552, 1341338614, 0.46418998, 0.49429008, -0.42620105, 0.59879225, 0.108260736, 0.068220176, 0.055500984, 0
553, 1341355281, 0.464133, 0.49425244, -0.42625147, 0.59883153, 0.10219012, 0.032281306, 0.073872566, 0
554, 1341371948, 0.46408102, 0.49419186, -0.42631245, 0.5988785, 0.06827203, -0.002712106, 0.081682205, 0
555, 1341388615, 0.46401265, 0.4941511, -0.42635247, 0.59893656, 0.064377315, 0.006709188, 0.079452515, 0
556, 1341405282, 0.4639265, 0.49412176, -0.42638507, 0.59900427, 0.13140126, 0.027387042, 0.062371254, 0
557, 1341421949, 0.463844, 0.4940789, -0.42643896, 0.59906524, 0.18419781, 0.05368347, 0.092567444, 0
558, 1341438616, 0.46376187, 0.49402252, -0.42651188, 0.5991234, 0.14221905, 0.023233278, 0.06589222, 0
559, 1341455283, 0.46368968, 0.4939752, -0.42657155, 0.5991759, 0.088223025, 0.004784742, 0.09237862, 0
560, 1341471950, 0.4636405, 0.49393904, -0.4266021, 0.5992219, 0.120068476, 0.04329133, 0.08976841, 0
561, 1341488617, 0.46359864, 0.49391213, -0.42662838, 0.5992577, 0.18737225, 0.042835586, 0.09254551, 0
562, 1341505284, 0.46356693, 0.49388406, -0.42667475, 0.5992723, 0.19088185, -0.002304195, 0.102770805, 0
563, 1341521951, 0.46354824, 0.49385983, -0.4267149, 0.59927815, 0.17780411, -0.0049052155, 0.09610367, 0
564, 1341538618, 0.46352917, 0.49385348, -0.4267372, 0.59928226, 0.14885338, -0.05810577, 0.07461071, 0
565, 1341555285, 0.463534, 0.49384004, -0.42675072, 0.59928006, 0.12359909, -0.0356606, 0.08182812, 0
566, 1341571952, 0.46354985, 0.49383292, -0.42676386, 0.59926426, 0.15712424, -0.033959664, 0.07915115, 0
567, 1341588619, 0.46358776, 0.49381632, -0.4267746, 0.599241, 0.17494516, -0.04659619, 0.092225075, 0
568, 1341605286, 0.463602, 0.49381885, -0.42678025, 0.5992238, 0.16945724, -0.051866405, 0.08413887, 0
569, 1341621953, 0.4636078, 0.493822, -0.42677432, 0.59922105, 0.11982172, 0.015335447, 0.09516716, 0
570, 1341638620, 0.46361044, 0.4938156, -0.42677188, 0.599226, 0.09673462, 0.043946713, 0.09015083, 0
571, 1341655287, 0.46362132, 0.49380466, -0.42679283, 0.59921163, 0.09004644, 0.06504898, 0.07917786, 0
572, 1341671954, 0.46362904, 0.49378273, -0.4268018, 0.5992174, 0.08280037, 0.039260276, 0.044711113, 0
573, 1341688621, 0.4636383, 0.49377108, -0.4267998, 0.5992212, 0.113746636, 0.067043826, 0.06485176, 0
574, 1341705288, 0.46364313, 0.49376443, -0.42680767, 0.59921736, 0.14105657, 0.09224626, 0.07084751, 0
575, 1341721955, 0.46364415, 0.4937418, -0.42682838, 0.59922063, 0.10220443, 0.09329386, 0.074920654, 0
576, 1341738622, 0.4636338, 0.4937348, -0.42684108, 0.59922534, 0.057578947, 0.06766408, 0.056010246, 0
577, 1341755289, 0.46360758, 0.49374017, -0.42683133, 0.5992481, 0.07755743, 0.09848383, 0.062013626, 0
578, 1341771956, 0.46360213, 0.49373502, -0.42683664, 0.59925264, 0.1440427, 0.10675672, 0.046474457, 0
579, 1341788623, 0.46359774, 0.4937176, -0.42686215, 0.5992522, 0.13237287, 0.0874899, 0.09648323, 0
580, 1341805290, 0.46360242, 0.49370533, -0.42688584, 0.5992419, 0.10256205, 0.067270696, 0.08454704, 0
581, 1341821957, 0.4636123, 0.49369627, -0.42689213, 0.5992372, 0.13513482, 0.056386285, 0.082793236, 0
582, 1341838624, 0.46362934, 0.49368444, -0.42689818, 0.5992295, 0.12934276, 0.05269024, 0.07795048, 0
583, 1341855291, 0.4636463, 0.493681, -0.42689303, 0.5992229, 0.112397514, 0.038480215, 0.07803154, 0
584, 1341871958, 0.46365055, 0.49368483, -0.4269038, 0.5992088, 0.14202796, 0.036438648, 0.09301376, 0
585, 1341888625, 0.46367595, 0.49368006, -0.42692998, 0.59917444, 0.12950161, 0.03676967, 0.041262627, 0
586, 1341905292, 0.4636892, 0.49368888, -0.42692995, 0.5991569, 0.12410892, 0.075473845, 0.073283195, 0
587, 1341921959, 0.4637134, 0.4937046, -0.42692634, 0.5991278, 0.13448931, 0.08856321, 0.09346962, 0
588, 1341938626, 0.4637415, 0.49371877, -0.42690772, 0.59910756, 0.13025641, 0.06489207, 0.08730602, 0
589, 1341955293, 0.4637812, 0.4937121, -0.42691106, 0.59908, 0.11555083, 0.011438052, 0.108184814, 0
590, 1341971960, 0.46383274, 0.4937164, -0.42688647, 0.5990541, -0.0022290947, -0.017438928, 0.18567467, 0
591, 1341988627, 0.46389434, 0.49372023, -0.4268661, 0.59901774, 0.16202901, -0.010392682, -0.060976982, 0
592, 1342005294, 0.46391338, 0.49372888, -0.42686343, 0.5989977, 0.16370827, 0.10622341, 0.069794655, 0
593, 1342021961, 0.46393502, 0.49373096, -0.4268548, 0.59898543, -0.016265485, 0.15305117, 0.16662121, 0
594, 1342038628, 0.46394178, 0.49373403, -0.42681718, 0.59900457, 0.10991216, 0.26057833, 0.030417442, 0
595, 1342055295, 0.46393132, 0.49370253, -0.42683718, 0.5990244, 0.22644757, 0.53440136, 0.017442703, 0
596, 1342071962, 0.46391496, 0.49366525, -0.42688048, 0.5990369, 0.042057987, 0.63410044, -0.025148392, 0
597, 1342088629, 0.46391276, 0.4936931, -0.4268741, 0.5990201, -0.1386348, 0.69883317, -0.0574522, 0
598, 1342105296, 0.46395183, 0.4937675, -0.4268305, 0.5989597, -0.025079494, 0.6566882, -0.06764221, 0
599, 1342121963, 0.46405625, 0.49383914, -0.4267599, 0.5988699, 0.0581203, 0.5889287, -0.0069589615, 0
600, 1342138630, 0.46416938, 0.4939425, -0.42666724, 0.5987631, 0.10676152, 0.42825574, 0.052921295, 0
601, 1342155297, 0.4642895, 0.49403626, -0.4265692, 0.59866256, 0.18313423, 0.2786136, 0.048538208, 0
602, 1342171964, 0.46438354, 0.49413487, -0.4264626, 0.59858406, 0.19050568, 0.19049205, 0.04914379, 0
603, 1342188631, 0.46449077, 0.49421898, -0.42637426, 0.59849435, 0.11508995, 0.08892731, 0.066324234, 0
604, 1342205298, 0.464598, 0.49429995, -0.42628443, 0.5984082, 0.020529889, 0.059169915, 0.09140396, 0
605, 1342221965, 0.46469605, 0.4943782, -0.4262056, 0.5983236, 0.016009785, -0.0019868067, 0.0781641, 0
606, 1342238632, 0.46478415, 0.49446127, -0.4261109, 0.598254, 0.059713498, -0.024119059, 0.10505867, 0
607, 1342255299, 0.46486312, 0.4945142, -0.4260401, 0.59819925, 0.16054597, -0.034609128, 0.10487747, 0
608, 1342271966, 0.46492743, 0.4945397, -0.42600748, 0.5981515, 0.17519906, -0.04061923, 0.09921837, 0
609, 1342288633, 0.46496284, 0.49457216, -0.42598027, 0.5981166, 0.15419555, -0.06334357, 0.1197567, 0
610, 1342305300, 0.46500355, 0.49459186, -0.4259587, 0.59808403, 0.13406105, -0.053579185, 0.089419365, 0
611, 1342321967, 0.46505454, 0.49461055, -0.42593026, 0.598049, 0.09677016, -0.03404639, 0.09195423, 0
612, 1342338634, 0.46511084, 0.49464768, -0.42588055, 0.5980099, 0.10563066, -0.028489185, 0.0736084, 0
613, 1342355301, 0.46517733, 0.49468914, -0.42582366, 0.5979646, 0.13047993, 0.011472026, 0.10422039, 0
614, 1342371968, 0.46524295, 0.4947317, -0.42576155, 0.59792244, 0.12054277, 0.0126007665, 0.11524391, 0
615, 1342388635, 0.46530306, 0.4947704, -0.42571107, 0.59787965, 0.12886773, 0.0028576131, 0.10333538, 0
616, 1342405302, 0.465362, 0.49480307, -0.42566425, 0.59783995, 0.12007831, 0.011424418, 0.11758423, 0
617, 1342421969, 0.46542537, 0.4948126, -0.4256431, 0.5977978, 0.11799428, -0.00885223, 0.093462944, 0
618, 1342438636, 0.46546486, 0.49482802, -0.42562303, 0.5977686, 0.08894855, -3.0464816E-4, 0.08091831, 0
619, 1342455303, 0.46553507, 0.49480817, -0.42563915, 0.59771895, 0.103162244, 0.011677627, 0.06562042, 0
620, 1342471970, 0.4655487, 0.49481708, -0.42563188, 0.5977062, 0.07343451, -0.044808984, 0.05431938, 0
621, 1342488637, 0.46555158, 0.4948268, -0.42564252, 0.5976883, 0.05892852, -0.07332119, 0.10827255, 0
622, 1342505304, 0.4655498, 0.4948259, -0.42565808, 0.59767926, 0.105920106, -0.06794682, 0.124557495, 0
623, 1342521971, 0.46553364, 0.49481735, -0.42566264, 0.59769565, 0.16007172, -0.081584014, 0.09102535, 0
624, 1342538638, 0.4655209, 0.49479467, -0.4256876, 0.5977065, 0.1689948, -0.048412684, 0.06542015, 0
625, 1342555305, 0.46549267, 0.49478385, -0.4257051, 0.597725, 0.14582925, -0.07822819, 0.093253136, 0
626, 1342571972, 0.46546495, 0.49477252, -0.42571938, 0.5977458, 0.12777767, -0.09143513, 0.10862541, 0
627, 1342588639, 0.46542057, 0.49477535, -0.42573568, 0.5977665, 0.10072388, -0.07298212, 0.11341858, 0
628, 1342605306, 0.46539897, 0.49476558, -0.42576298, 0.59777194, 0.12524503, -0.10393308, 0.12022877, 0
629, 1342621973, 0.46539307, 0.49472997, -0.42580017, 0.5977795, 0.1405255, -0.09593355, 0.11478233, 0
630, 1342638640, 0.4653822, 0.49470016, -0.42581195, 0.5978043, 0.14770138, -0.0418794, 0.11660099, 0
631, 1342655307, 0.4653387, 0.4946948, -0.42579764, 0.5978527, 0.17279875, 0.011935815, 0.09002781, 0
632, 1342671974, 0.46531352, 0.49466968, -0.42582154, 0.59787613, 0.16224502, 0.02884485, 0.09320831, 0
633, 1342688641, 0.46529904, 0.49463955, -0.42585984, 0.59788495, 0.10167873, 0.021038828, 0.058047295, 0
634, 1342705308, 0.4652954, 0.49461904, -0.42588857, 0.59788424, 0.07248995, 0.045323957, 0.052077293, 0
635, 1342721975, 0.46528035, 0.49458915, -0.42591673, 0.5979007, 0.13484804, 0.07413522, 0.06055832, 0
636, 1342738642, 0.4652649, 0.49455664, -0.42593923, 0.5979236, 0.12764736, 0.086948104, 0.078211784, 0
637, 1342755309, 0.4652486, 0.49452528, -0.4259726, 0.5979384, 0.08738306, 0.11581257, 0.06569004, 0
638, 1342771976, 0.46523014, 0.49450654, -0.42599672, 0.5979511, 0.09281286, 0.16352811, 0.069215775, 0
639, 1342788643, 0.4652147, 0.494481, -0.4260277, 0.59796226, 0.10143934, 0.13665113, 0.057466507, 0
640, 1342805310, 0.46521324, 0.49444532, -0.42607892, 0.5979564, 0.08407798, 0.113944, 0.06307793, 0
641, 1342821977, 0.4652028, 0.49442497, -0.42611519, 0.59795547, 0.08661887, 0.16446508, 0.062830925, 0
642, 1342838644, 0.4651865, 0.4944144, -0.42613253, 0.59796447, 0.12875463, 0.1343038, 0.059571266, 0
643, 1342855311, 0.4651638, 0.4943978, -0.42614532, 0.5979867, 0.097112134, 0.13425551, 0.053073883, 0
644, 1342871978, 0.4651451, 0.49438277, -0.42615932, 0.5980036, 0.07506433, 0.08983408, 0.05561161, 0
645, 1342888645, 0.46513, 0.49437416, -0.42617783, 0.59800947, 0.08525857, 0.08643335, 0.059309006, 0
646, 1342905312, 0.46512055, 0.4943727, -0.42618665, 0.5980118, 0.10192884, 0.08603125, 0.059906006, 0
647, 1342921979, 0.46510464, 0.49436373, -0.4261978, 0.59802365, 0.10654505, 0.076927125, 0.078084946, 0
648, 1342938646, 0.46508574, 0.4943524, -0.4262149, 0.5980355, 0.13195825, 0.08611082, 0.0681324, 0
649, 1342955313, 0.46506822, 0.49433708, -0.42625362, 0.59803414, 0.13560821, 0.09182382, 0.08622742, 0
650, 1342971980, 0.46503586, 0.494329, -0.42628393, 0.5980444, 0.11922405, 0.04505418, 0.07476139, 0
651, 1342988647, 0.4649965, 0.49431902, -0.42630568, 0.59806764, 0.099454105, 0.008415487, 0.080789566, 0
652, 1343005314, 0.46493652, 0.4943263, -0.42630744, 0.5981069, 0.08592799, 0.022235963, 0.08142376, 0
653, 1343021981, 0.46491963, 0.49430984, -0.42633444, 0.5981146, 0.14228968, -0.008606814, 0.056624413, 0
654, 1343038648, 0.46492288, 0.49428806, -0.42634514, 0.5981224, 0.08705472, -0.013713861, 0.24178314, 0
655, 1343055315, 0.4649165, 0.49426454, -0.42633712, 0.5981525, 0.13089836, -0.0284418, 0.12197018, 0
656, 1343071982, 0.46490875, 0.4942378, -0.42635265, 0.59816957, 0.17840715, -0.050736547, 0.075448036, 0
657, 1343088649, 0.46490246, 0.49417278, -0.4263798, 0.5982089, 0.11032586, 0.08424771, 0.12180519, 0
658, 1343105316, 0.46487993, 0.49409705, -0.4264216, 0.5982592, 0.08365777, 0.19115767, -0.0054483414, 0
659, 1343121983, 0.46483788, 0.4940021, -0.42647094, 0.598335, 0.08772079, 0.5844575, -0.036618233, 0
660, 1343138650, 0.46477854, 0.49390772, -0.4265432, 0.5984075, -0.043341175, 0.9062603, -0.08147621, 0
661, 1343155317, 0.4647167, 0.4938552, -0.42659777, 0.5984601, -0.1921305, 1.1420177, -0.15389347, 0
662, 1343171984, 0.46468577, 0.49385598, -0.4266333, 0.598458, -0.09017954, 1.1469012, -0.13504028, 0
663, 1343188651, 0.46467128, 0.49390852, -0.426642, 0.5984196, 0.034483355, 1.0144703, -0.049217224, 0
664, 1343205318, 0.46469897, 0.49396223, -0.42662397, 0.5983666, 0.083816126, 0.74859923, 0.019683838, 0
665, 1343221985, 0.46476603, 0.4940432, -0.42655063, 0.59830004, 0.12130853, 0.4660406, -0.027276993, 0
666, 1343238652, 0.4648421, 0.49414304, -0.4264598, 0.59822327, 0.2119618, 0.2588783, -0.01014328, 0
667, 1343255319, 0.46491826, 0.49425608, -0.42637175, 0.59813344, 0.16137457, 0.09006209, 0.032987595, 0
668, 1343271986, 0.465031, 0.4943789, -0.42628002, 0.5980098, 0.06705031, -0.08130574, 0.104444504, 0
669, 1343288653, 0.465157, 0.49450788, -0.42616943, 0.5978839, 0.046668716, -0.2299665, 0.1819582, 0
670, 1343305320, 0.46526548, 0.49464846, -0.42603505, 0.597779, 0.17657813, -0.33533046, 0.20158005, 0
671, 1343321987, 0.4653676, 0.4947452, -0.42592436, 0.59769833, 0.22487862, -0.36401364, 0.18709373, 0
672, 1343338654, 0.46547005, 0.49481028, -0.42582023, 0.59763885, 0.1669559, -0.3733176, 0.15613174, 0
673, 1343355321, 0.46556756, 0.4948541, -0.42574802, 0.5975779, 0.15106146, -0.32481864, 0.12677765, 0
674, 1343371988, 0.4656199, 0.49489552, -0.42568105, 0.5975506, 0.16484058, -0.23819597, 0.10754585, 0
675, 1343388655, 0.4656869, 0.4949115, -0.4256451, 0.5975107, 0.16230305, -0.23568055, 0.08637524, 0
676, 1343405322, 0.46568716, 0.49497378, -0.4255521, 0.5975252, 0.11218495, -0.18214406, 0.13997936, 0
677, 1343421989, 0.4657522, 0.49499887, -0.42548218, 0.5975035, 0.11612973, -0.08849504, 0.15247059, 0
678, 1343438656, 0.46578398, 0.4950131, -0.42544398, 0.5974941, 0.13946515, -0.0014190838, 0.12999439, 0
679, 1343455323, 0.46580872, 0.49499795, -0.42543262, 0.59749544, 0.05559527, 0.007098995, 0.09835243, 0
680, 1343471990, 0.46582502, 0.49498314, -0.4254369, 0.5974919, 0.02551691, 0.010990355, 0.08181858, 0
681, 1343488657, 0.46577895, 0.49499646, -0.42541468, 0.5975327, 0.111140735, 0.064429104, 0.05359173, 0
682, 1343505324, 0.46575052, 0.49496394, -0.42543778, 0.59756535, 0.14166966, 0.036482677, 0.08230305, 0
683, 1343521991, 0.46573684, 0.49491662, -0.42548245, 0.59758335, 0.07284332, -0.015428652, 0.0738287, 0
684, 1343538658, 0.465685, 0.49488506, -0.42551333, 0.59762806, 0.060915105, -0.0516078, 0.08608723, 0
685, 1343555325, 0.46562144, 0.49483097, -0.42556712, 0.5976841, 0.077328555, -0.045815907, 0.057284355, 0
686, 1343571992, 0.465545, 0.49477723, -0.42563048, 0.597743, 0.10713803, -0.025015123, 0.07275677, 0
687, 1343588659, 0.4654737, 0.49470878, -0.42570826, 0.5977997, 0.12839098, -0.056969654, 0.0848608, 0
688, 1343605326, 0.46539503, 0.49464452, -0.4257767, 0.59786546, 0.16230506, -0.094021395, 0.10611534, 0
689, 1343621993, 0.46532145, 0.49459797, -0.42582852, 0.59792423, 0.15178497, -0.11818314, 0.095487595, 0
690, 1343638660, 0.46524552, 0.4945629, -0.425867, 0.5979849, 0.15662715, -0.10777191, 0.09318924, 0
691, 1343655327, 0.46518043, 0.4945368, -0.4259059, 0.59802943, 0.1779237, -0.10284859, 0.092656136, 0
692, 1343671994, 0.46513507, 0.4945038, -0.42594638, 0.59806323, 0.17502205, -0.121594176, 0.07163143, 0
693, 1343688661, 0.46509778, 0.49448025, -0.42598745, 0.5980824, 0.1745426, -0.075752564, 0.11536121, 0
694, 1343705328, 0.4650757, 0.4944661, -0.42599925, 0.598103, 0.17032185, -0.041011717, 0.12942219, 0
695, 1343721995, 0.4650565, 0.49447718, -0.42599186, 0.59811383, 0.16113563, -0.05555839, 0.10791588, 0
696, 1343738662, 0.46507394, 0.49447128, -0.42600372, 0.5980968, 0.18237138, -0.07127314, 0.09883785, 0
697, 1343755329, 0.46509755, 0.49448782, -0.42599344, 0.5980722, 0.1810209, 0.0014074611, 0.07244396, 0
698, 1343771996, 0.4651155, 0.4944926, -0.42599213, 0.59805524, 0.1701546, 0.012212077, 0.07054424, 0
699, 1343788663, 0.465126, 0.49451277, -0.42598474, 0.59803563, 0.12557226, 0.033094447, 0.0858202, 0
700, 1343805330, 0.46514025, 0.49451444, -0.42599517, 0.5980156, 0.08385155, -0.0050493814, 0.04322052, 0
701, 1343821997, 0.46516016, 0.4945158, -0.42599648, 0.5979981, 0.097244, 0.02485263, 0.06355381, 0
702, 1343838664, 0.4651591, 0.49452043, -0.42601016, 0.5979852, 0.10852023, 0.07218843, 0.059473038, 0
703, 1343855331, 0.46514493, 0.4945139, -0.42603573, 0.59798336, 0.110110305, 0.12204478, 0.06897831, 0
704, 1343871998, 0.46511424, 0.4945089, -0.42605904, 0.5979949, 0.10716932, 0.10823749, 0.109856606, 0
705, 1343888665, 0.46508577, 0.49449632, -0.42611438, 0.59798795, 0.06712474, 0.08720939, 0.120025635, 0
706, 1343905332, 0.46504977, 0.49447212, -0.42615688, 0.5980058, 0.03824636, 0.04166903, 0.08669186, 0
707, 1343921999, 0.46500084, 0.49445057, -0.42621732, 0.59801847, 0.07301162, -0.024088439, 0.07614803, 0
708, 1343938666, 0.46494728, 0.4944073, -0.42627198, 0.59805703, 0.122209735, -0.045676436, 0.089972496, 0
709, 1343955333, 0.46489412, 0.49436444, -0.42632714, 0.5980945, 0.17628914, -0.03294983, 0.102929115, 0
710, 1343972000, 0.46483883, 0.49431664, -0.42638028, 0.59813917, 0.13609593, -0.014316228, 0.08781147, 0
711, 1343988667, 0.46479198, 0.4942743, -0.42642447, 0.5981791, 0.09693667, -0.0043108943, 0.080620766, 0
712, 1344005334, 0.46475244, 0.49424186, -0.4264536, 0.5982157, 0.13781093, 0.015800355, 0.08306217, 0
713, 1344022001, 0.46472037, 0.4942032, -0.42647657, 0.5982562, 0.15398479, 0.06600583, 0.062669754, 0
714, 1344038668, 0.4646906, 0.49417686, -0.42650005, 0.5982843, 0.12335881, 0.11259867, 0.053055763, 0
715, 1344055335, 0.46468383, 0.4941473, -0.42652652, 0.5982951, 0.112233676, 0.13306978, 0.06878376, 0
716, 1344072002, 0.46467906, 0.49413136, -0.4265384, 0.5983035, 0.14011021, 0.2004245, 0.07080364, 0
717, 1344088669, 0.46468467, 0.49412, -0.42654255, 0.5983056, 0.116882525, 0.23371856, 0.03266239, 0
718, 1344105336, 0.46470997, 0.49410206, -0.42655504, 0.5982918, 0.08525835, 0.23314771, 0.038767815, 0
719, 1344122003, 0.46473265, 0.4941151, -0.42654437, 0.598271, 0.10599153, 0.22604409, 0.03957939, 0
720, 1344138670, 0.46475536, 0.49413612, -0.42653492, 0.5982428, 0.12362703, 0.19155842, 0.06278515, 0
721, 1344155337, 0.46478814, 0.49414983, -0.42652407, 0.59821373, 0.1503822, 0.124623, 0.060922623, 0
722, 1344172004, 0.46482012, 0.4941794, -0.42650622, 0.59817725, 0.13480468, 0.10376768, 0.07925606, 0
723, 1344188671, 0.4648841, 0.49420717, -0.426482, 0.5981218, 0.13753736, 0.06072847, 0.10148907, 0
724, 1344205338, 0.46494403, 0.49425253, -0.42644465, 0.5980644, 0.118842065, 0.06059436, 0.09528446, 0
725, 1344222005, 0.46503076, 0.49430802, -0.42640096, 0.5979824, 0.16753705, 0.029611891, 0.087379456, 0
726, 1344238672, 0.4651304, 0.49435744, -0.42635176, 0.5978989, 0.14915243, 0.035762966, 0.06693268, 0
727, 1344255339, 0.4652148, 0.49442384, -0.4263025, 0.59781367, 0.104486495, 0.019850409, 0.060819626, 0
728, 1344272006, 0.46529555, 0.4944878, -0.42624536, 0.59773856, 0.08248321, -0.05300945, 0.104865074, 0
729, 1344288673, 0.4653766, 0.4945406, -0.4262111, 0.5976562, 0.1300604, -0.08038733, 0.10719776, 0
730, 1344305340, 0.46545425, 0.49458936, -0.42617062, 0.59758425, 0.13805412, -0.05861918, 0.07889271, 0
731, 1344322007, 0.46556175, 0.49462518, -0.42612678, 0.59750193, 0.11836737, -0.036299456, 0.06472111, 0
732, 1344338674, 0.4656371, 0.49467358, -0.4260827, 0.5974348, 0.10621045, 0.012299694, 0.08965397, 0
733, 1344355341, 0.46569604, 0.49469572, -0.42604768, 0.5973955, 0.100862905, -0.003511612, 0.11236477, 0
734, 1344372008, 0.46574336, 0.49471113, -0.426025, 0.59736204, 0.08254803, 4.3182704E-4, 0.13288498, 0
735, 1344388675, 0.46579924, 0.49473843, -0.42598268, 0.59732586, 0.09498786, 0.032362666, 0.10697079, 0
736, 1344405342, 0.4658647, 0.49476314, -0.42595783, 0.59727204, 0.13627271, 0.12938942, 0.10327816, 0
737, 1344422009, 0.46590912, 0.49480116, -0.4259092, 0.5972406, 0.13621059, 0.06942201, 0.068099976, 0
738, 1344438676, 0.4659455, 0.49484783, -0.42585093, 0.5972152, 0.11011902, 0.08426371, 0.07025051, 0
739, 1344455343, 0.46598387, 0.49489692, -0.4258006, 0.59718037, 0.09642394, 0.131473, 0.11701107, 0
740, 1344472010, 0.4660623, 0.49495146, -0.42574972, 0.5971103, 0.098449856, 0.08418168, -0.035897255, 0
741, 1344488677, 0.4661606, 0.4950038, -0.42570233, 0.597024, 0.27124214, 0.12526426, 0.13598156, 0
742, 1344505344, 0.4662512, 0.49504584, -0.42567322, 0.59693915, 0.09739979, 0.07281337, 0.014302254, 0
743, 1344522011, 0.46633092, 0.4951177, -0.42560798, 0.5968638, 0.06491263, 0.0715161, 0.06874943, 0
744, 1344538678, 0.46642295, 0.49518132, -0.42553085, 0.59679407, 0.13453376, 0.08147385, 0.09365845, 0
745, 1344555345, 0.46649954, 0.49524614, -0.4254735, 0.59672123, 0.08123198, 0.101694375, 0.051608086, 0
746, 1344572012, 0.4665731, 0.49530056, -0.42542315, 0.5966545, 0.07520339, 0.03909197, 0.023061752, 0
747, 1344588679, 0.46664274, 0.4953679, -0.42535448, 0.596593, 0.12137871, 0.07845171, 0.07258606, 0
748, 1344605346, 0.46672752, 0.495424, -0.42529494, 0.5965226, 0.17592213, 0.094560064, 0.08089256, 0
749, 1344622013, 0.46680728, 0.49547756, -0.42524782, 0.59644926, 0.10669592, 0.12386909, 0.09647179, 0
750, 1344638680, 0.46688563, 0.49552748, -0.4252002, 0.5963804, 0.058119405, 0.09390271, 0.051086426, 0
751, 1344655347, 0.46695706, 0.49557918, -0.42516237, 0.59630847, 0.05741869, 0.12743725, 0.059871674, 0
752, 1344672014, 0.46701142, 0.49561065, -0.42512384, 0.59626704, 0.065034226, 0.12341156, 0.14348984, 0
753, 1344688681, 0.46705896, 0.49563792, -0.4250979, 0.5962258, 0.039239712, 0.14681761, 0.053482056, 0
754, 1344705348, 0.46710068, 0.49567002, -0.4250753, 0.59618264, 0.16647893, 0.13990436, 0.039625168, 0
755, 1344722015, 0.467135, 0.49568418, -0.42507645, 0.59614307, 0.15545528, 0.120485775, 0.04698181, 0
756, 1344738682, 0.46714225, 0.49567634, -0.42509538, 0.59613043, 0.09992754, 0.05477974, 0.06911087, 0
757, 1344755349, 0.46715316, 0.49562782, -0.4251341, 0.59613466, 0.06914485, 0.044313233, 0.0707922, 0
758, 1344772016, 0.46714944, 0.49559268, -0.4251509, 0.5961548, -0.017703343, 0.077007815, 0.08532715, 0
759, 1344788683, 0.46715277, 0.4955664, -0.42517197, 0.5961591, -0.021803688, 0.101207115, 0.07563496, 0
760, 1344805350, 0.46715382, 0.49555615, -0.42516625, 0.59617084, 0.105269685, 0.09093781, 0.092069626, 0
761, 1344822017, 0.46717438, 0.49553517, -0.4251633, 0.59617424, 0.22670874, 0.1014266, 0.099226, 0
762, 1344838684, 0.4671711, 0.4955373, -0.42514834, 0.5961857, 0.15385939, 0.099830054, 0.11003399, 0
763, 1344855351, 0.46717677, 0.49555266, -0.42513067, 0.5961811, 0.055566885, 0.0161506, 0.091362, 0
764, 1344872018, 0.46721694, 0.4955588, -0.4251179, 0.5961536, 0.09565304, -0.036233686, 0.06310749, 0
765, 1344888685, 0.4672831, 0.4955784, -0.42506367, 0.5961241, 0.14958985, 0.008966669, 0.07838631, 0
766, 1344905352, 0.46738887, 0.49563342, -0.42498884, 0.59604883, 0.21564418, 0.06990256, 0.019714355, 0
767, 1344922019, 0.46751162, 0.495743, -0.4248878, 0.5959333, 0.26851842, 0.121649384, -0.0045166016, 0
768, 1344938686, 0.46763825, 0.4958738, -0.42476323, 0.59581405, 0.27448896, 0.11414256, 0.0208292, 0
769, 1344955353, 0.46778008, 0.49602982, -0.42463586, 0.5956637, 0.1914308, 0.059529547, 0.026576996, 0
770, 1344972020, 0.46795842, 0.49621513, -0.42446512, 0.5954907, 0.1306802, 0.021999262, 0.070506096, 0
771, 1344988687, 0.46821618, 0.49644974, -0.424241, 0.5952523, 0.19386865, -0.014555164, 0.0948658, 0
772, 1345005354, 0.46852222, 0.49669772, -0.4239916, 0.59498227, 0.29842892, 0.021489877, 0.09454346, 0
773, 1345022021, 0.46883598, 0.49694857, -0.42372942, 0.59471244, 0.25478444, 0.09484415, 0.09231281, 0
774, 1345038688, 0.46916562, 0.49720198, -0.4234671, 0.5944275, 0.21967681, 0.053278334, 0.08524132, 0
775, 1345055355, 0.46950054, 0.49747896, -0.42318028, 0.5941356, 0.11368785, 0.028207336, 0.106134415, 0
776, 1345072022, 0.4698457, 0.49776116, -0.42290497, 0.5938221, 0.112200595, 0.039078336, 0.13079357, 0
777, 1345088689, 0.47019607, 0.49801555, -0.42263147, 0.5935263, 0.10483495, 0.038251113, 0.051618576, 0
778, 1345105356, 0.4705486, 0.4982692, -0.42235866, 0.59322816, -0.024083074, 0.12232819, 0.06844711, 0
779, 1345122023, 0.4708688, 0.49852923, -0.42209944, 0.59294003, 0.0586726, 0.17650707, 0.0796442, 0
780, 1345138690, 0.47115067, 0.49873823, -0.42189166, 0.592688, 0.1403259, 0.11906267, 0.061418533, 0
781, 1345155357, 0.47139996, 0.49890843, -0.4217251, 0.59246504, 0.063559696, 0.110686585, 0.09196377, 0
782, 1345172024, 0.4716198, 0.49905545, -0.42158446, 0.5922663, -0.018937806, 0.11807273, 0.09038162, 0
783, 1345188691, 0.471822, 0.49918294, -0.4214493, 0.5920942, -0.038317274, 0.13632166, 0.09787083, 0
784, 1345205358, 0.4720069, 0.4992621, -0.4213638, 0.59194094, 0.040051956, 0.06215672, 0.10404301, 0
785, 1345222025, 0.47215673, 0.49930754, -0.42131606, 0.5918171, 0.023360904, 0.09018636, 0.10050392, 0
786, 1345238692, 0.47227687, 0.49932525, -0.42127466, 0.5917356, -0.011069479, 0.102092445, 0.097091675, 0
787, 1345255359, 0.47234002, 0.4993407, -0.4212408, 0.59169626, -0.006716341, 0.09840828, 0.09154701, 0
788, 1345272026, 0.47234997, 0.49933475, -0.42123586, 0.59169686, 0.018334767, 0.091640756, 0.032769203, 0
789, 1345288693, 0.47234654, 0.49929568, -0.42126584, 0.5917112, -0.056185793, 0.07944008, 0.016882896, 0
790, 1345305360, 0.47232217, 0.4992555, -0.42129728, 0.59174216, -0.078130744, 0.11276743, 0.044021606, 0
791, 1345322027, 0.4722816, 0.4992337, -0.42130744, 0.5917859, -0.012489233, 0.10050126, 0.08108044, 0
792, 1345338694, 0.47220135, 0.49920723, -0.42134202, 0.5918475, 0.08536161, 0.11112192, 0.09565449, 0
793, 1345355361, 0.47213224, 0.4991529, -0.4213942, 0.5919113, 0.13889468, 0.0745143, 0.117842674, 0
794, 1345372028, 0.47204816, 0.49909514, -0.42143115, 0.5920007, 0.17994916, 0.08987836, 0.07399559, 0
795, 1345388695, 0.47197598, 0.4990308, -0.42147565, 0.5920808, 0.17437296, 0.14052305, -0.0043411255, 0
796, 1345405362, 0.47188425, 0.4989907, -0.42151046, 0.59216285, 0.1079429, 0.18480363, 0.0041074753, 0
797, 1345422029, 0.47181782, 0.49896377, -0.4215561, 0.592206, 0.0996689, 0.18492389, 0.083254814, 0
798, 1345438696, 0.47176546, 0.49894124, -0.42159593, 0.5922384, 0.15056704, 0.10537027, 0.08311081, 0
799, 1345455363, 0.4717373, 0.49890187, -0.42166305, 0.5922463, 0.19895, -0.0011430453, 0.07841778, 0
800, 1345472030, 0.47175005, 0.49882108, -0.42173102, 0.59225583, 0.208186, -0.0052103107, 0.13024902, 0
801, 1345488697, 0.47171605, 0.49875015, -0.42179182, 0.5922994, 0.12498107, 0.047464542, 0.101239204, 0
802, 1345505364, 0.4716631, 0.49867886, -0.4218724, 0.592344, 0.009459515, 0.070428036, 0.097148895, 0
803, 1345522031, 0.47158977, 0.49862835, -0.42194068, 0.5923962, 0.03840377, 0.047515277, 0.042391777, 0
804, 1345538698, 0.47151357, 0.49856326, -0.4220179, 0.5924566, 0.089878134, 0.0023953884, 0.08832359, 0
805, 1345555365, 0.47146022, 0.49848706, -0.4220908, 0.5925115, 0.08390967, 0.022272618, 0.11352444, 0
806, 1345572032, 0.47141513, 0.49842685, -0.4221286, 0.5925709, 0.057664894, 0.09156776, 0.100912094, 0
807, 1345588699, 0.47136375, 0.49836403, -0.4221636, 0.5926397, 0.068613335, 0.12548643, 0.07050896, 0
808, 1345605366, 0.471313, 0.49830967, -0.42221725, 0.59268755, 0.124383844, 0.18406984, 0.044029236, 0
809, 1345622033, 0.4712634, 0.49823415, -0.42228383, 0.5927432, 0.11560291, 0.120105356, 0.044077873, 0
810, 1345638700, 0.47118998, 0.49818063, -0.42233068, 0.59281313, 0.03450414, 0.10429942, 0.048148155, 0
811, 1345655367, 0.4711294, 0.4981301, -0.42237467, 0.59287244, 0.06028189, 0.09617919, 0.021291733, 0
812, 1345672034, 0.4710676, 0.49808303, -0.42242542, 0.5929248, 0.13368131, 0.17551132, 0.04206562, 0
813, 1345688701, 0.4709982, 0.49803632, -0.42248324, 0.59297794, 0.17506093, 0.13580938, 0.07563114, 0
814, 1345705368, 0.47091135, 0.49797824, -0.42255744, 0.5930429, 0.15247473, 0.06633194, 0.103630066, 0
815, 1345722035, 0.47083387, 0.49789223, -0.42265138, 0.5931097, 0.09230102, 0.052908644, 0.07555485, 0
816, 1345738702, 0.47074234, 0.49782872, -0.42273766, 0.5931741, 0.0922438, 0.0022983837, 0.02692604, 0
817, 1345755369, 0.47069058, 0.49775672, -0.42282397, 0.5932141, 0.11811744, 0.0073971613, 0.033147812, 0
818, 1345772036, 0.47063372, 0.49772322, -0.42287785, 0.5932489, 0.083168425, -0.004820438, 0.10083771, 0
819, 1345788703, 0.4705973, 0.49770805, -0.4229148, 0.59326416, 0.1021177, -0.09283633, 0.16130352, 0
820, 1345805370, 0.47057402, 0.49768654, -0.4229412, 0.593282, 0.19712882, -0.10596056, 0.18236732, 0
821, 1345822037, 0.47053936, 0.49765688, -0.42296445, 0.59331775, 0.23310971, -0.058063302, 0.16702366, 0
822, 1345838704, 0.47048542, 0.49763855, -0.42295676, 0.59338135, 0.116323516, -0.019085547, 0.088415146, 0
823, 1345855371, 0.4704641, 0.49761784, -0.42296183, 0.59341204, 0.02942414, 0.06747923, 0.023143768, 0
824, 1345872038, 0.47045207, 0.49761158, -0.42295706, 0.5934302, 0.119372234, 0.09838392, 0.014515877, 0
825, 1345888705, 0.47044715, 0.49760374, -0.42297533, 0.5934278, 0.12638317, 0.1425854, 0.022273064, 0
826, 1345905372, 0.47046167, 0.49757516, -0.42299733, 0.5934243, 0.08232071, 0.14828989, 0.03246975, 0
827, 1345922039, 0.47046077, 0.49756867, -0.4229987, 0.5934296, 0.09537029, 0.14612606, 0.0686245, 0
828, 1345938706, 0.4704647, 0.49756184, -0.42301622, 0.5934198, 0.098383024, 0.14866003, 0.070456505, 0
829, 1345955373, 0.47045767, 0.49755496, -0.4230206, 0.59342796, 0.08424918, 0.17978734, 0.07280254, 0
830, 1345972040, 0.47047323, 0.4975463, -0.42302626, 0.59341884, 0.09301067, 0.19161363, 0.06363487, 0
831, 1345988707, 0.47048438, 0.49755594, -0.42301425, 0.5934105, 0.084273405, 0.23364396, 0.053569794, 0
832, 1346005374, 0.4704843, 0.49757162, -0.4230063, 0.593403, 0.124068916, 0.21430892, 0.06561279, 0
833, 1346022041, 0.47049117, 0.4975648, -0.42301926, 0.59339404, 0.09662957, 0.18767221, 0.07598019, 0
834, 1346038708, 0.47049895, 0.4975547, -0.42304212, 0.59338003, 0.0402748, 0.10574957, 0.045521736, 0
835, 1346055375, 0.47050542, 0.49755558, -0.4230439, 0.5933728, 0.068515435, 0.06148707, 0.054885864, 0
836, 1346072042, 0.4705046, 0.4975548, -0.42304668, 0.59337234, 0.15378273, 0.039373595, 0.086073875, 0
837, 1346088709, 0.47050378, 0.4975505, -0.42307627, 0.59335554, 0.1877216, -0.013797455, 0.1079483, 0
838, 1346105376, 0.47048402, 0.49752912, -0.4230958, 0.59337515, 0.108617015, -0.03395184, 0.115839005, 0
839, 1346122043, 0.47047004, 0.49750945, -0.4231168, 0.5933877, 0.066789694, 0.017573036, 0.105978966, 0
840, 1346138710, 0.4704457, 0.4974874, -0.42313755, 0.5934108, 0.045091502, -0.009450574, 0.058886528, 0
841, 1346155377, 0.47042865, 0.4974639, -0.42317295, 0.5934187, 0.05842584, -0.020056041, 0.057663918, 0
842, 1346172044, 0.47039536, 0.49744812, -0.42319807, 0.59344035, 0.1540154, -0.02016154, 0.10728264, 0
843, 1346188711, 0.47037533, 0.4974237, -0.42322454, 0.5934579, 0.21272261, 0.006351857, 0.12177658, 0
844, 1346205378, 0.47033808, 0.49738723, -0.42325222, 0.5934981, 0.14490569, -0.02400775, 0.10502434, 0
845, 1346222045, 0.4702705, 0.49735308, -0.42328975, 0.59355354, 0.036832478, -0.014971345, 0.07439327, 0
846, 1346238712, 0.47022507, 0.4973084, -0.4233314, 0.59359723, 0.0041846097, 0.030073892, 0.07218647, 0
847, 1346255379, 0.47018176, 0.4972676, -0.42337796, 0.5936326, 0.09217272, 0.07900937, 0.07049084, 0
848, 1346272046, 0.47013852, 0.49721348, -0.4234291, 0.59367573, 0.11132465, 0.07930486, 0.070877075, 0
849, 1346288713, 0.47007427, 0.49716198, -0.4234706, 0.5937402, 0.11819745, 0.102521144, 0.041217804, 0
850, 1346305380, 0.46999827, 0.4971151, -0.42351726, 0.59380615, 0.12197705, 0.0863853, 0.089422226, 0
851, 1346322047, 0.4699358, 0.49708766, -0.42354965, 0.59385544, 0.13003314, 0.09252475, 0.069532394, 0
852, 1346338714, 0.46990138, 0.49705333, -0.42357555, 0.59389293, 0.12963617, 0.08901716, 0.08762169, 0
853, 1346355381, 0.46986145, 0.4970326, -0.42360446, 0.59392136, 0.12686238, 0.10034167, 0.0917635, 0
854, 1346372048, 0.4698431, 0.49701053, -0.42363152, 0.5939351, 0.11588632, 0.12309305, 0.061055183, 0
855, 1346388715, 0.46983734, 0.49698588, -0.42364627, 0.59394974, 0.13511822, 0.13643552, 0.058906555, 0
856, 1346405382, 0.46984467, 0.49696755, -0.42367265, 0.59394044, 0.13823852, 0.124076515, 0.0703249, 0
857, 1346422049, 0.46986452, 0.496967, -0.42367125, 0.59392625, 0.13122132, 0.08715083, 0.07123852, 0
858, 1346438716, 0.46988547, 0.49698973, -0.42363465, 0.5939166, 0.14224073, 0.09220133, 0.06635761, 0
859, 1346455383, 0.4699394, 0.4970071, -0.42359686, 0.5938864, 0.18285863, 0.08557708, 0.031308174, 0
860, 1346472050, 0.46997488, 0.49704647, -0.42355195, 0.5938574, 0.15476328, 0.06114219, 0.05092621, 0
861, 1346488717, 0.47003102, 0.4970791, -0.42352122, 0.59380776, 0.10466531, 0.048609376, 0.058153152, 0
862, 1346505384, 0.47007638, 0.49712336, -0.42348284, 0.59376204, 0.09484817, 0.049094174, 0.08806038, 0
863, 1346522051, 0.47013918, 0.49714896, -0.42345783, 0.59370875, 0.109229885, 0.03971423, 0.10093403, 0
864, 1346538718, 0.47020954, 0.49715924, -0.42342436, 0.5936683, 0.10017069, 0.009271541, 0.07860565, 0
865, 1346555385, 0.4702762, 0.49719474, -0.4233866, 0.5936128, 0.14138715, 0.005101236, 0.09329319, 0
866, 1346572052, 0.47031882, 0.49723876, -0.4233579, 0.5935625, 0.15192801, 0.033745315, 0.059778214, 0
867, 1346588719, 0.47035336, 0.49726468, -0.42334968, 0.5935193, 0.109956525, -0.002932043, 0.05983925, 0
868, 1346605386, 0.47039843, 0.49727082, -0.42333618, 0.59348804, 0.047247358, -0.035660915, 0.080776215, 0
869, 1346622053, 0.470432, 0.49728695, -0.4233202, 0.5934593, 0.056321688, -0.00827065, 0.09066105, 0
870, 1346638720, 0.47046223, 0.49730873, -0.42328873, 0.5934395, 0.12003115, 0.035986256, 0.07699776, 0
871, 1346655387, 0.47048694, 0.49731952, -0.4232691, 0.5934249, 0.12121443, 0.07159723, 0.07245636, 0
872, 1346672054, 0.47049943, 0.49731943, -0.42326254, 0.5934198, 0.08247919, 0.061402585, 0.04327488, 0
873, 1346688721, 0.47046116, 0.49734327, -0.42324254, 0.5934444, 0.074443005, 0.032265436, 0.06527901, 0
874, 1346705388, 0.47047922, 0.49733722, -0.42326012, 0.59342253, 0.0754801, 0.023030551, 0.104706764, 0
875, 1346722055, 0.4704923, 0.49732518, -0.42326054, 0.593422, 0.12695357, 0.033480678, 0.08068085, 0
876, 1346738722, 0.470492, 0.49731895, -0.42325175, 0.59343374, 0.1280709, 0.08036878, 0.07382393, 0
877, 1346755389, 0.4704884, 0.49733335, -0.42325196, 0.5934243, 0.11205219, 0.11172541, 0.042788506, 0
878, 1346772056, 0.47047925, 0.49732968, -0.42325845, 0.59343, 0.10548314, 0.12055641, 0.045858383, 0
879, 1346788723, 0.470476, 0.49731982, -0.4232748, 0.5934292, 0.08242085, 0.112749994, 0.06699562, 0
880, 1346805390, 0.4704666, 0.4973109, -0.42328238, 0.5934387, 0.07609288, 0.073443964, 0.10668087, 0
881, 1346822057, 0.47048602, 0.49730742, -0.4232721, 0.5934336, 0.11832195, 0.072799064, 0.08584404, 0
882, 1346838724, 0.47049704, 0.49732345, -0.42325747, 0.593422, 0.18651888, 0.10010296, 0.06296635, 0
883, 1346855391, 0.47050896, 0.49732372, -0.42326295, 0.59340847, 0.15023267, 0.06925303, 0.037379265, 0
884, 1346872058, 0.47052982, 0.49733254, -0.42326534, 0.5933826, 0.06998816, 0.07327671, 0.060996056, 0
885, 1346888725, 0.47055453, 0.4973507, -0.42325485, 0.5933552, 0.07806503, 0.044028923, 0.09540558, 0
886, 1346905392, 0.47058728, 0.4973681, -0.4232365, 0.59332776, 0.11980652, 0.04675958, 0.09701347, 0
887, 1346922059, 0.4706057, 0.49737006, -0.42323372, 0.5933137, 0.09873707, 0.05883688, 0.10762882, 0
888, 1346938726, 0.4706527, 0.49735454, -0.42326662, 0.59326583, 0.073709875, 0.034578573, 0.07895565, 0
889, 1346955393, 0.4706693, 0.49736717, -0.42326, 0.59324676, 0.11038321, 0.038099125, 0.06127262, 0
890, 1346972060, 0.47069094, 0.49736965, -0.42325926, 0.59322804, 0.1309719, 0.04602534, 0.073703766, 0
891, 1346988727, 0.47069687, 0.49736708, -0.42325422, 0.5932291, 0.09005069, 0.04331167, 0.06667137, 0
892, 1347005394, 0.47069946, 0.49737033, -0.42325503, 0.5932238, 0.07526843, 0.050983306, 0.061312675, 0
893, 1347022061, 0.47069857, 0.49737737, -0.42325896, 0.5932158, 0.09001891, 0.06803304, 0.06938839, 0
894, 1347038728, 0.4706947, 0.4973748, -0.4232561, 0.59322304, 0.11824908, 0.024563404, 0.099823, 0
895, 1347055395, 0.4707068, 0.4973506, -0.42329508, 0.5932059, 0.12521821, 0.046325296, 0.0877285, 0
896, 1347072062, 0.47069985, 0.4973363, -0.42330915, 0.59321344, 0.12185367, 0.06915379, 0.09355545, 0
897, 1347088729, 0.47068813, 0.4973253, -0.4233219, 0.59322286, 0.09439578, 0.036960326, 0.09194183, 0
898, 1347105396, 0.470687, 0.49731785, -0.42332745, 0.5932261, 0.107144065, 0.07013948, 0.08253384, 0
899, 1347122063, 0.47067448, 0.497304, -0.42334402, 0.5932357, 0.12563507, 0.04110068, 0.07021904, 0
900, 1347138730, 0.4706586, 0.4972814, -0.42337236, 0.59324694, 0.09428737, 0.052233636, 0.06891823, 0
901, 1347155397, 0.47065142, 0.49727622, -0.4233733, 0.5932563, 0.108519115, 0.08805092, 0.05755329, 0
902, 1347172064, 0.4706506, 0.497269, -0.42338875, 0.59325194, 0.12570459, 0.08892262, 0.06594753, 0
903, 1347188731, 0.4706562, 0.4972547, -0.42340767, 0.59324604, 0.12066101, 0.079616435, 0.0697546, 0
904, 1347205398, 0.47066784, 0.49723235, -0.4234343, 0.59323657, 0.10618564, 0.08535781, 0.08245468, 0
905, 1347222065, 0.4706679, 0.49722078, -0.4234436, 0.5932396, 0.099798806, 0.069397055, 0.07283306, 0
906, 1347238732, 0.4706683, 0.49721795, -0.42344853, 0.5932381, 0.104783766, 0.075992614, 0.07182789, 0
907, 1347255399, 0.4706626, 0.49721617, -0.42345616, 0.5932388, 0.116558656, 0.06552148, 0.07847214, 0
908, 1347272066, 0.4706467, 0.49720287, -0.423482, 0.593244, 0.10304998, 0.07942913, 0.065686226, 0
909, 1347288733, 0.47064024, 0.4971803, -0.42350775, 0.59324974, 0.10697777, 0.06446002, 0.054174423, 0
910, 1347305400, 0.47061977, 0.49717245, -0.42353964, 0.5932498, 0.102792494, 0.072905235, 0.064723015, 0
911, 1347322067, 0.47061098, 0.49716756, -0.42355937, 0.59324676, 0.11222183, 0.06530825, 0.06762409, 0
912, 1347338734, 0.47060236, 0.4971525, -0.42357478, 0.5932552, 0.09511527, 0.06854203, 0.101911545, 0
913, 1347355401, 0.47059613, 0.49714148, -0.42359114, 0.5932577, 0.09015082, 0.053767607, 0.083333015, 0
914, 1347372068, 0.47058117, 0.49713513, -0.42359444, 0.59327257, 0.122169726, 0.0793842, 0.08518028, 0
915, 1347388735, 0.4705659, 0.4971062, -0.4236205, 0.5932903, 0.08120002, 0.06811356, -0.029026985, 0
916, 1347405402, 0.47056004, 0.49708578, -0.42365015, 0.59329087, 0.056318335, 0.084481195, 0.23091316, 0
917, 1347422069, 0.47055423, 0.49707624, -0.42367372, 0.59328663, 0.26627323, 0.009095636, 0.032357216, 0
918, 1347438736, 0.4705169, 0.4970507, -0.42369026, 0.5933258, 0.15746772, -0.023547241, 0.13535309, 0
919, 1347455403, 0.47048223, 0.4970064, -0.423723, 0.593367, -0.10456562, 0.016236652, 0.12990665, 0
920, 1347472070, 0.4704568, 0.4969437, -0.4237539, 0.5934176, -0.027123297, 0.14485383, 0.09682655, 0
921, 1347488737, 0.47041175, 0.49686456, -0.42380455, 0.59348327, 0.1243017, 0.4081541, 0.09443474, 0
922, 1347505404, 0.47033104, 0.49676576, -0.42389068, 0.5935686, 0.13992716, 0.43697944, -0.03498268, 0
923, 1347522071, 0.47025037, 0.4966564, -0.42397317, 0.5936651, 0.059597272, 0.5641487, -0.02946186, 0
924, 1347538738, 0.4701836, 0.49659908, -0.4240292, 0.59372604, 0.024845365, 0.58480465, -0.048425674, 0
925, 1347555405, 0.47016564, 0.49656296, -0.42406252, 0.59374654, 0.0076307324, 0.5939343, -0.044834137, 0
926, 1347572072, 0.47018948, 0.4965798, -0.4240553, 0.5937187, 0.035671216, 0.5688789, -0.009255409, 0
927, 1347588739, 0.47022438, 0.49662927, -0.42400938, 0.5936825, 0.07205901, 0.49632663, -0.040225983, 0
928, 1347605406, 0.47026968, 0.4966907, -0.42394617, 0.5936405, 0.08590408, 0.4433516, -0.008656502, 0
929, 1347622073, 0.47031587, 0.4967735, -0.42388135, 0.59358084, 0.11400815, 0.36251208, -0.016212463, 0
930, 1347638740, 0.4703663, 0.49687013, -0.42381138, 0.5935099, 0.069300056, 0.2917487, 0.020705223, 0
931, 1347655407, 0.47043806, 0.4969517, -0.42376226, 0.5934198, 0.04252222, 0.1674606, 0.08324051, 0
932, 1347672074, 0.47048548, 0.49706012, -0.42366746, 0.59335905, 0.086393796, 0.031095793, 0.113648415, 0
933, 1347688741, 0.47055763, 0.49714088, -0.423594, 0.5932867, 0.15539023, -0.075778045, 0.114216805, 0
934, 1347705408, 0.4706258, 0.4972018, -0.42352888, 0.593228, 0.15034443, -0.1330662, 0.1174345, 0
935, 1347722075, 0.47068542, 0.49726146, -0.42346394, 0.5931771, 0.08334351, -0.16313316, 0.16220856, 0
936, 1347738742, 0.47075865, 0.49730337, -0.42339393, 0.5931338, 0.09120491, -0.18297352, 0.15981007, 0
937, 1347755409, 0.47083116, 0.49733692, -0.42333043, 0.5930935, 0.21018353, -0.11516661, 0.11744404, 0
938, 1347772076, 0.47088158, 0.49737403, -0.42329064, 0.5930508, 0.2228699, -0.11965229, 0.09683037, 0
939, 1347788743, 0.4709241, 0.4974073, -0.42324623, 0.59302074, 0.1455161, -0.1669901, 0.13080883, 0
940, 1347805410, 0.47096342, 0.49744606, -0.42317933, 0.5930048, 0.09213651, -0.15339425, 0.14603043, 0
941, 1347822077, 0.47101608, 0.49746445, -0.42313507, 0.59297925, 0.12321286, -0.1417537, 0.12008381, 0
942, 1347838744, 0.47106266, 0.4974711, -0.42311764, 0.5929491, 0.13170649, -0.12113452, 0.11868954, 0
943, 1347855411, 0.4710834, 0.49746567, -0.42310652, 0.59294504, 0.11359577, -0.13669337, 0.0992794, 0
944, 1347872078, 0.4710865, 0.49745157, -0.42310265, 0.5929572, 0.07610884, -0.12517262, 0.09321499, 0
945, 1347888745, 0.4710773, 0.4974165, -0.4231217, 0.5929803, 0.099560045, -0.12697212, 0.10320473, 0
946, 1347905412, 0.4710831, 0.49734807, -0.42319158, 0.5929831, 0.120333344, -0.12523587, 0.109140396, 0
947, 1347922079, 0.47106966, 0.49728116, -0.4232653, 0.5929973, 0.10203747, -0.08227624, 0.1128397, 0
948, 1347938746, 0.47102693, 0.49722317, -0.42331728, 0.59304285, 0.120829314, -0.11331838, 0.09826851, 0
949, 1347955413, 0.47096947, 0.49716398, -0.42337713, 0.5930955, 0.13671908, -0.087411225, 0.070295334, 0
950, 1347972080, 0.4709054, 0.4970966, -0.4234483, 0.59315187, 0.11350748, -0.0769725, 0.07347679, 0
951, 1347988747, 0.47083196, 0.49703476, -0.4235097, 0.5932182, 0.11912056, -0.04327993, 0.048009872, 0
952, 1348005414, 0.47075984, 0.496988, -0.42356366, 0.59327614, 0.091003746, -0.02136851, 0.02202797, 0
953, 1348022081, 0.47068515, 0.4969384, -0.42364174, 0.59332097, 0.102476664, -0.042581007, 0.059630394, 0
954, 1348038748, 0.47059554, 0.49688578, -0.4237182, 0.59338164, 0.12063307, -0.07361802, 0.09924793, 0
955, 1348055415, 0.47051245, 0.49682668, -0.42379752, 0.5934404, 0.10307776, -0.0740045, 0.11859226, 0
956, 1348072082, 0.47043118, 0.49676752, -0.42386904, 0.59350336, 0.11340019, -0.04077323, 0.13101864, 0
957, 1348088749, 0.4703606, 0.496708, -0.4239393, 0.5935587, 0.13799533, -0.02800282, 0.10705471, 0
958, 1348105416, 0.47024024, 0.49667528, -0.42397624, 0.5936552, 0.11811721, -0.028155927, 0.07336807, 0
959, 1348122083, 0.47015375, 0.49662828, -0.42402378, 0.593729, 0.07144681, -0.029374296, 0.07043648, 0
960, 1348138750, 0.47009912, 0.49658358, -0.42409295, 0.59376025, 0.116980426, -0.011786732, 0.079826355, 0
961, 1348155417, 0.47006518, 0.49653226, -0.42415655, 0.59378463, 0.19503585, 0.03111144, 0.074453354, 0
962, 1348172084, 0.47001082, 0.49650365, -0.42420042, 0.5938201, 0.20580514, 0.0543208, 0.0843811, 0
963, 1348188751, 0.46996507, 0.4964816, -0.4242303, 0.59385353, 0.15929233, 0.066329256, 0.111418724, 0
964, 1348205418, 0.46993425, 0.49647936, -0.42424262, 0.593871, 0.12606198, 0.054817222, 0.07298374, 0
965, 1348222085, 0.46992284, 0.49646905, -0.42425993, 0.5938763, 0.09431151, 0.11042859, 0.07020092, 0
966, 1348238752, 0.46992496, 0.4964635, -0.42427847, 0.593866, 0.10487675, 0.108410716, 0.06814194, 0
967, 1348255419, 0.46989593, 0.4964793, -0.42426977, 0.59388196, 0.119383395, 0.10341793, 0.0521307, 0
968, 1348272086, 0.4699136, 0.49646935, -0.4242842, 0.59386605, 0.1348932, 0.09019843, 0.07391262, 0
969, 1348288753, 0.46990037, 0.49648607, -0.4242819, 0.593864, 0.14522597, 0.1119867, 0.07367897, 0
970, 1348305420, 0.46991378, 0.4964812, -0.4242899, 0.5938518, 0.13675193, 0.10868899, 0.061509132, 0
971, 1348322087, 0.4699266, 0.49648625, -0.4242995, 0.5938306, 0.06546851, 0.05817327, -0.15220928, 0
972, 1348338754, 0.46993354, 0.49649772, -0.424308, 0.5938094, 0.05457516, 0.057307158, 0.41218948, 0
973, 1348355421, 0.4699402, 0.4964774, -0.42432436, 0.5938095, 0.20689745, -0.09640762, 0.12814331, 0
974, 1348372088, 0.46995848, 0.49639997, -0.42436913, 0.5938277, 0.15746018, -0.060658287, 0.06921959, 0
975, 1348388755, 0.46995175, 0.49632162, -0.4244095, 0.5938697, -0.14441173, 0.101082616, 0.057702065, 0
976, 1348405422, 0.4699114, 0.49625018, -0.42445567, 0.5939283, -0.063925825, 0.22888508, 0.03730774, 0
977, 1348422089, 0.4698202, 0.4961596, -0.42454496, 0.59401244, 0.15983233, 0.45579767, 0.01177597, 0
978, 1348438756, 0.46970218, 0.49604338, -0.4246842, 0.5941032, 0.10931963, 0.5139361, -0.02946949, 0
979, 1348455423, 0.46959606, 0.49591392, -0.42482436, 0.59419495, -0.09513337, 0.55878395, -0.0181036, 0
980, 1348472090, 0.4695, 0.4958304, -0.42491552, 0.5942754, -0.15499268, 0.53439635, -9.584427E-4, 0
981, 1348488757, 0.469399, 0.49577948, -0.4249657, 0.5943618, 0.0013876802, 0.5259868, 0.0232687, 0
982, 1348505424, 0.46932057, 0.49571896, -0.42502075, 0.59443486, 0.09199435, 0.49718913, 0.068769455, 0
983, 1348522091, 0.46927604, 0.49565995, -0.42509782, 0.5944641, 0.10807376, 0.42289835, -0.011171341, 0
984, 1348538758, 0.46921453, 0.49564007, -0.42512384, 0.59451073, 0.14005713, 0.36988756, -0.05106449, 0
985, 1348555425, 0.46913865, 0.4956437, -0.42513758, 0.5945576, 0.090272635, 0.2886462, -0.033021927, 0
986, 1348572092, 0.4691084, 0.49564636, -0.42515177, 0.59456915, 0.004227077, 0.19829063, 0.020601273, 0
987, 1348588759, 0.4691185, 0.49566725, -0.42513546, 0.59455544, 0.013061427, 0.08059542, 0.08633804, 0
988, 1348605426, 0.46912864, 0.49573028, -0.42508012, 0.59453446, 0.17749521, -8.605249E-4, 0.12392616, 0
989, 1348622093, 0.46914726, 0.49578112, -0.4250159, 0.59452325, 0.2777079, 0.037764527, 0.13903904, 0
990, 1348638760, 0.46915185, 0.49582303, -0.424955, 0.59452814, 0.23435043, 0.00692689, 0.13133812, 0
991, 1348655427, 0.4691748, 0.4958528, -0.4249139, 0.59451467, 0.094218984, -0.0053873328, 0.10606003, 0
992, 1348672094, 0.46921095, 0.49589282, -0.42485973, 0.5944914, 0.071868956, -0.036125347, 0.10017109, 0
993, 1348688761, 0.4692567, 0.49593234, -0.42480627, 0.59446067, 0.15083258, -0.015495259, 0.07371235, 0
994, 1348705428, 0.4693132, 0.49597812, -0.4247592, 0.59441143, 0.179208, -0.020359572, 0.07592201, 0
995, 1348722095, 0.46933007, 0.49603137, -0.4247061, 0.59439164, 0.15315376, 0.01289871, 0.08223629, 0
996, 1348738762, 0.4693505, 0.49605554, -0.4246792, 0.5943745, 0.12612009, 0.028248684, 0.08109951, 0
997, 1348755429, 0.4693593, 0.49607122, -0.42465964, 0.59436846, 0.08544297, 0.018858459, 0.100180626, 0
998, 1348772096, 0.4693607, 0.4960753, -0.424646, 0.5943737, 0.07639583, 0.022448746, 0.10052967, 0
999, 1348788763, 0.4693619, 0.49606615, -0.42465368, 0.5943749, 0.0943808, -0.008244722, 0.07522774, 0
1000, 1348805430, 0.46936852, 0.49604985, -0.42468172, 0.5943632, 0.14275706, 0.0013752752, 0.09477329, 0
1001, 1348822097, 0.46936852, 0.49602026, -0.42471728, 0.5943625, 0.15622371, -0.01537255, 0.059957504, 0
1002, 1348838764, 0.46936914, 0.49598965, -0.42474824, 0.5943655, 0.13836056, -0.06017483, 0.0747633, 0
1003, 1348855431, 0.46937436, 0.49597228, -0.42476547, 0.59436363, 0.07303375, -0.09787454, 0.09283733, 0
1004, 1348872098, 0.4693502, 0.4959755, -0.42476177, 0.59438246, 0.07888935, -0.13014892, 0.09167862, 0
1005, 1348888765, 0.469347, 0.49595603, -0.4247809, 0.59438765, 0.11566973, -0.09819274, 0.090143204, 0
1006, 1348905432, 0.46932966, 0.4959433, -0.42478588, 0.59440833, 0.16999456, -0.17626634, 0.090836525, 0
1007, 1348922099, 0.46928713, 0.49593064, -0.4247984, 0.59444356, 0.14100985, -0.1637342, 0.10810757, 0
1008, 1348938766, 0.4692593, 0.49589756, -0.4248339, 0.5944678, 0.12631455, -0.16141905, 0.13108635, 0
1009, 1348955433, 0.46923938, 0.49586016, -0.424882, 0.59448034, 0.096746914, -0.16879341, 0.101288795, 0
1010, 1348972100, 0.46922255, 0.4958269, -0.4249107, 0.5945009, 0.09060522, -0.17146215, 0.1171484, 0
1011, 1348988767, 0.469182, 0.4958125, -0.42493042, 0.5945309, 0.13837732, -0.18120888, 0.10422802, 0
1012, 1349005434, 0.4691551, 0.4957848, -0.42496082, 0.5945534, 0.18996835, -0.15608782, 0.09836197, 0
1013, 1349022101, 0.46910635, 0.49574697, -0.4249832, 0.5946075, 0.15292287, -0.10461122, 0.11346626, 0
1014, 1349038768, 0.46906772, 0.49572372, -0.42500183, 0.5946439, 0.12770122, -0.09646551, 0.12904263, 0
1015, 1349055435, 0.46904108, 0.4957048, -0.42501357, 0.5946723, 0.13722958, -0.022657955, 0.09608841, 0
1016, 1349072102, 0.46902424, 0.49569112, -0.4250184, 0.59469354, 0.1253141, -0.001931152, 0.084854126, 0
1017, 1349088769, 0.46904102, 0.49567747, -0.42502835, 0.59468466, 0.13071124, 0.008840301, 0.06525898, 0
1018, 1349105436, 0.4690491, 0.49569452, -0.42500877, 0.59467816, 0.1677382, 0.047167268, 0.054426193, 0
1019, 1349122103, 0.4690721, 0.49571204, -0.42500162, 0.59465027, 0.17779182, 0.06344281, 0.038871765, 0
1020, 1349138770, 0.46909958, 0.4957279, -0.42500076, 0.59461606, 0.1640822, 0.07969801, 0.07261658, 0
1021, 1349155437, 0.4691048, 0.49574682, -0.42498982, 0.59460396, 0.120993376, 0.06736658, 0.07924366, 0
1022, 1349172104, 0.46912453, 0.49576563, -0.4249983, 0.5945666, 0.07806816, 0.081340834, 0.09606457, 0
1023, 1349188771, 0.4691326, 0.49578655, -0.42499158, 0.5945477, 0.09035176, 0.046312556, 0.08501053, 0
1024, 1349205438, 0.4691655, 0.49580044, -0.42499214, 0.5945097, 0.11757251, 0.06274098, 0.098008156, 0
1025, 1349222105, 0.46917135, 0.4958278, -0.42498657, 0.5944863, 0.12641692, 0.04572941, 0.082803726, 0
1026, 1349238772, 0.46917886, 0.4958363, -0.4250027, 0.5944618, 0.11008661, 0.034921218, 0.069805145, 0
1027, 1349255439, 0.46919, 0.49582607, -0.4250347, 0.5944386, 0.110150315, -0.027649, 0.100666046, 0
1028, 1349272106, 0.46918035, 0.49582908, -0.42505705, 0.59442765, 0.07744388, -0.0118254, 0.08526802, 0
1029, 1349288773, 0.46918264, 0.4958223, -0.4250725, 0.5944205, 0.09608826, 0.019468375, 0.102731705, 0
1030, 1349305440, 0.4691855, 0.49580795, -0.42509562, 0.5944136, 0.098589554, 0.019009553, 0.078318596, 0
1031, 1349322107, 0.46920422, 0.49578887, -0.42511702, 0.59439945, 0.14627157, 0.046012152, 0.16291237, 0
1032, 1349338774, 0.46919, 0.49578846, -0.42512667, 0.5944041, 0.006176557, -0.102997005, -0.03177452, 0
1033, 1349355441, 0.46920243, 0.49577564, -0.42510766, 0.5944186, 0.1221543, 0.050569136, 0.46936703, 0
1034, 1349372108, 0.4692027, 0.4957081, -0.4251384, 0.5944528, 0.3763319, -0.07098012, -0.07942104, 0
1035, 1349388775, 0.46919593, 0.49561605, -0.42518368, 0.5945027, -0.11903719, 0.08189068, -0.04068947, 0
1036, 1349405442, 0.4691721, 0.49557036, -0.42521062, 0.59454024, -0.22680306, 0.2865217, 0.034762383, 0
1037, 1349422109, 0.469128, 0.49549246, -0.42526057, 0.5946042, 0.12514155, 0.530879, 0.010915756, 0
1038, 1349438776, 0.46902737, 0.49536815, -0.42539373, 0.59469193, 0.122460514, 0.73483014, 0.03525257, 0
1039, 1349455443, 0.46890527, 0.49523336, -0.42553324, 0.59480053, -0.102834396, 0.7117493, -0.0639019, 0
1040, 1349472110, 0.46879095, 0.4951389, -0.42563787, 0.5948944, -0.18860638, 0.7702717, -0.010670662, 0
1041, 1349488777, 0.4687066, 0.49506482, -0.4257201, 0.59496367, -0.002850349, 0.7111315, -0.029622078, 0
1042, 1349505444, 0.4686245, 0.49500147, -0.42579544, 0.59502715, 0.064029716, 0.71822315, -0.013834, 0
1043, 1349522111, 0.46855885, 0.49495286, -0.42586577, 0.59506893, 0.05495055, 0.6220893, -0.0743351, 0
1044, 1349538778, 0.46848962, 0.49494696, -0.42588347, 0.59511566, 0.06894771, 0.5332715, -0.07233906, 0
1045, 1349555445, 0.4684332, 0.49495637, -0.4258924, 0.5951458, 0.074103035, 0.5458356, -0.047252655, 0
1046, 1349572112, 0.46838337, 0.49498364, -0.42588547, 0.5951674, -0.012995155, 0.45772457, 0.024550438, 0
1047, 1349588779, 0.46839258, 0.4949995, -0.42587557, 0.59515405, -0.05647077, 0.33316574, 0.08410931, 0
1048, 1349605446, 0.468401, 0.49505937, -0.42582738, 0.595132, 0.075517654, 0.2011449, 0.08486843, 0
1049, 1349622113, 0.4684319, 0.49511296, -0.4257714, 0.59510344, 0.22448479, 0.15479301, 0.07351303, 0
1050, 1349638780, 0.46840274, 0.49517086, -0.42571244, 0.5951203, 0.22263545, 0.11146457, 0.05219364, 0
1051, 1349655447, 0.46838993, 0.49519694, -0.4257012, 0.5951168, 0.048323054, 0.04426719, 0.040498734, 0
1052, 1349672114, 0.46836436, 0.49524352, -0.42568043, 0.595113, -0.012168045, -0.08207373, 0.07853031, 0
1053, 1349688781, 0.46833947, 0.4952916, -0.42565686, 0.5951094, 0.09632805, -0.19243146, 0.09668636, 0
1054, 1349705448, 0.4683076, 0.49530646, -0.4256617, 0.5951187, 0.16983506, -0.2515188, 0.12942886, 0
1055, 1349722115, 0.4682468, 0.49529064, -0.42569524, 0.5951558, 0.13414688, -0.23693469, 0.108896255, 0
1056, 1349738782, 0.4681738, 0.49523455, -0.425763, 0.5952112, 0.103771254, -0.22095262, 0.08998108, 0
1057, 1349755449, 0.46806362, 0.49516806, -0.42586356, 0.59528124, 0.1588178, -0.25094828, 0.1306839, 0
1058, 1349772116, 0.46789652, 0.49509996, -0.42597312, 0.59539086, 0.13691108, -0.3835612, 0.17292213, 0
1059, 1349788783, 0.46773648, 0.49499875, -0.42612216, 0.5954942, 0.12272806, -0.46547645, 0.18770313, 0
1060, 1349805450, 0.4675605, 0.4948662, -0.4262772, 0.5956317, 0.19426495, -0.4395834, 0.1932869, 0
1061, 1349822117, 0.46734747, 0.4947071, -0.4264476, 0.59580874, 0.14619088, -0.35111874, 0.1705141, 0
1062, 1349838784, 0.46710834, 0.49452558, -0.4266437, 0.59600663, 0.0651918, -0.3740438, 0.13659859, 0
1063, 1349855451, 0.4668463, 0.49434063, -0.4268653, 0.5962066, 0.048587695, -0.40773323, 0.08792114, 0
1064, 1349872118, 0.46656102, 0.4941579, -0.42708847, 0.5964218, 0.062939905, -0.4030227, 0.14490032, 0
1065, 1349888785, 0.46626818, 0.49396834, -0.42729145, 0.5966622, 0.06623807, -0.40547508, 0.15380478, 0
1066, 1349905452, 0.46598402, 0.49376374, -0.42749292, 0.59690917, 0.06570007, -0.34201238, 0.17720985, 0
1067, 1349922119, 0.46569422, 0.49354607, -0.42769137, 0.59717315, 0.15012263, -0.27107522, 0.15876961, 0
1068, 1349938786, 0.46539593, 0.49331525, -0.42790332, 0.59744453, 0.23152232, -0.15422639, 0.15619087, 0
1069, 1349955453, 0.46509105, 0.4930647, -0.42812648, 0.59772885, 0.25936398, -0.05998842, 0.107076645, 0
1070, 1349972120, 0.46476942, 0.4928271, -0.4283586, 0.5980087, 0.14750715, 0.0121038975, 0.08538914, 0
1071, 1349988787, 0.4644828, 0.4925894, -0.4285792, 0.59826905, 0.13911648, 0.08311664, 0.094387054, 0
1072, 1350005454, 0.4642176, 0.4923533, -0.42880833, 0.5985051, 0.2293433, 0.16838035, 0.09323883, 0
1073, 1350022121, 0.4639766, 0.49211937, -0.42904156, 0.5987172, 0.27482817, 0.20794281, 0.064992905, 0
1074, 1350038788, 0.46377045, 0.49191427, -0.42925462, 0.5988925, 0.24464834, 0.22672081, 0.042761803, 0
1075, 1350055455, 0.46360546, 0.49175265, -0.42942253, 0.59903276, 0.26131985, 0.21838713, 0.034035683, 0
1076, 1350072122, 0.46349487, 0.4916116, -0.42956772, 0.5991299, 0.28108498, 0.21512944, 0.05596447, 0
1077, 1350088789, 0.4634134, 0.4914763, -0.42971283, 0.59919995, 0.23388843, 0.16022548, 0.028471947, 0
1078, 1350105456, 0.4633561, 0.49137044, -0.42982537, 0.5992504, 0.14399062, 0.1766709, 0.0043258667, 0
1079, 1350122123, 0.4633289, 0.49128893, -0.42991045, 0.5992772, 0.19580872, 0.2357357, -0.025144577, 0
1080, 1350138790, 0.46328792, 0.49124125, -0.4300036, 0.59928095, 0.07456727, 0.121491134, -0.031104088, 0
1081, 1350155457, 0.46326926, 0.49120173, -0.43006834, 0.5992813, 0.00477826, 0.08409027, 0.16127491, 0
1082, 1350172124, 0.46324536, 0.4911753, -0.43011984, 0.5992846, 0.07195597, 0.0470801, 0.07537365, 0
1083, 1350188791, 0.46324757, 0.49111915, -0.43017018, 0.59929276, 0.079613976, 0.13718733, 0.10882568, 0
1084, 1350205458, 0.46323606, 0.49105734, -0.43022612, 0.5993121, 0.010732198, 0.2661201, 0.11807442, 0
1085, 1350222125, 0.46321502, 0.49099672, -0.43027082, 0.59934604, -0.075069286, 0.37767968, 0.09720802, 0
1086, 1350238792, 0.46315366, 0.49097398, -0.43031004, 0.5993839, -0.10354685, 0.29985112, 0.05208206, 0
1087, 1350255459, 0.46309787, 0.49093273, -0.43033707, 0.59944135, -0.04246947, 0.19368114, 0.17363548, 0
1088, 1350272126, 0.46308023, 0.49088207, -0.43034294, 0.59949225, 0.0025744222, 0.24675517, 0.1355238, 0
1089, 1350288793, 0.46308714, 0.4908662, -0.43029025, 0.59953773, 0.047170397, 0.40151554, -0.018899918, 0
1090, 1350305460, 0.4631274, 0.4908924, -0.43021423, 0.5995397, 0.111750446, 0.47157368, -0.109106064, 0
1091, 1350322127, 0.4631828, 0.49094358, -0.4301522, 0.5994995, 0.28450125, 0.4508739, 0.06422138, 0
1092, 1350338794, 0.46326837, 0.49100518, -0.43006435, 0.5994459, -0.06785781, 0.37036845, 0.13995647, 0
1093, 1350355461, 0.46344477, 0.4911352, -0.42988414, 0.5993325, 0.049984314, 0.38851267, -0.12549686, 0
1094, 1350372128, 0.46361604, 0.49131227, -0.42969573, 0.5991898, 0.3740744, 0.4941268, -0.18972588, 0
1095, 1350388795, 0.46378028, 0.49149683, -0.42955196, 0.5990145, 0.34828672, 0.3476507, -0.04987812, 0
1096, 1350405462, 0.46396822, 0.4916725, -0.42941263, 0.5988246, 0.18919389, 0.13742538, 0.17821217, 0
1097, 1350422129, 0.46422943, 0.49187332, -0.42920077, 0.5986093, 0.12550342, 0.015344164, 0.29642487, 0
1098, 1350438796, 0.4645118, 0.49206164, -0.42896432, 0.59840477, 0.32049635, 0.032779068, -0.042987823, 0
1099, 1350455463, 0.4647374, 0.49222547, -0.42881462, 0.5982021, 0.16556253, 0.12410333, 0.027401924, 0
1100, 1350472130, 0.46496135, 0.492378, -0.42866683, 0.59800845, -0.2940838, -0.077966236, 0.07826328, 0
1101, 1350488797, 0.46517742, 0.49259114, -0.4284463, 0.597823, -0.014296783, -0.07057511, 0.08096218, 0
1102, 1350505464, 0.46539158, 0.49277624, -0.4282867, 0.5976181, 0.41438317, -0.15861127, 0.09265232, 0
1103, 1350522131, 0.46558598, 0.49287978, -0.42817664, 0.59746015, 0.25052807, -0.16777061, 0.25934792, 0
1104, 1350538798, 0.46576333, 0.49295682, -0.4280608, 0.59734136, -0.052923575, -0.25526062, 0.19289589, 0
1105, 1350555465, 0.46588647, 0.49301946, -0.42793122, 0.5972863, -0.084539525, -0.055152938, 0.0799675, 0
1106, 1350572132, 0.46597013, 0.4930211, -0.42788637, 0.5972518, 0.03160317, 0.084563665, 0.011871338, 0
1107, 1350588799, 0.46601242, 0.49297136, -0.4279606, 0.5972068, 0.030838752, 0.0024783115, -0.029790878, 0
1108, 1350605466, 0.46598393, 0.4929247, -0.4280437, 0.59720796, -0.042929687, -0.044821277, 0.15077496, 0
1109, 1350622133, 0.46589476, 0.49284282, -0.42812276, 0.59728837, 0.13843611, -0.115165494, 0.29811668, 0
1110, 1350638800, 0.46576148, 0.49266914, -0.42826694, 0.5974324, 0.1634253, -0.15935111, 0.18253899, 0
1111, 1350655467, 0.46562445, 0.49246326, -0.428454, 0.5975747, -0.14928721, -0.10519436, 0.030061722, 0
1112, 1350672134, 0.46548232, 0.4922992, -0.42860028, 0.59771574, -0.19371063, -0.09986737, -0.06465626, 0
1113, 1350688801, 0.46531752, 0.49216694, -0.42872044, 0.59786683, 0.15458983, -0.042136215, -0.057662964, 0
1114, 1350705468, 0.4650973, 0.49200475, -0.4289101, 0.59803545, 0.40075, -0.09740449, 0.07538605, 0
1115, 1350722135, 0.46484673, 0.49180642, -0.4291345, 0.5982324, 0.14209367, -0.23709784, 0.23632526, 0
1116, 1350738802, 0.46461818, 0.49161875, -0.4293286, 0.5984249, -0.11566213, -0.29327074, 0.23304462, 0
1117, 1350755469, 0.4643852, 0.4914682, -0.429464, 0.59863216, -0.013542427, -0.21434557, 0.118499756, 0
1118, 1350772136, 0.46415174, 0.49127412, -0.42964897, 0.59884, 0.21627359, -0.0059749484, -0.08113766, 0
1119, 1350788803, 0.46388552, 0.49108228, -0.4298912, 0.59902966, 0.10895094, 0.082233325, -0.22517109, 0
1120, 1350805470, 0.4635788, 0.490926, -0.4301322, 0.5992222, 0.007969578, 0.05992986, -0.06164074, 0
1121, 1350822137, 0.4632587, 0.49077648, -0.43034545, 0.59943926, 0.11314874, 0.010297242, 0.253273, 0
1122, 1350838804, 0.46292514, 0.4905777, -0.43057072, 0.59969765, 0.18854524, -0.043138, 0.36915493, 0
1123, 1350855471, 0.4626262, 0.49032477, -0.43083608, 0.5999446, 0.026140511, 0.0038276594, 0.23320103, 0
1124, 1350872138, 0.4623517, 0.49012318, -0.43103942, 0.60017484, -0.08893938, 0.15106504, 0.02852726, 0
1125, 1350888805, 0.4621138, 0.48996332, -0.43119943, 0.6003735, 0.062216844, 0.33197016, -0.09717083, 0
1126, 1350905472, 0.4618482, 0.48981577, -0.43136418, 0.6005799, 0.19456948, 0.366021, -0.047844887, 0
1127, 1350922139, 0.46158388, 0.48962817, -0.43155468, 0.6007992, 0.114670195, 0.34909147, 0.11213684, 0
1128, 1350938806, 0.46130437, 0.4894519, -0.43173006, 0.6010314, -0.03774374, 0.2459798, 0.19179058, 0
1129, 1350955473, 0.46103773, 0.48928717, -0.43186626, 0.6012722, -0.05981362, 0.2341113, 0.13171577, 0
1130, 1350972140, 0.46078452, 0.48913494, -0.4319945, 0.60149807, 0.10560294, 0.23285423, 0.042800903, 0
1131, 1350988807, 0.46053508, 0.48895785, -0.43214807, 0.60172266, 0.16651748, 0.25850636, -0.030130386, 0
1132, 1351005474, 0.46029308, 0.48876208, -0.4323142, 0.6019475, 0.120287746, 0.22801317, 0.009527206, 0
1133, 1351022141, 0.46004823, 0.48858947, -0.43245512, 0.60217357, 0.06121193, 0.21761668, 0.060956, 0
1134, 1351038808, 0.45982024, 0.4884261, -0.43257976, 0.60239077, 0.13303559, 0.21629214, 0.040519714, 0
1135, 1351055475, 0.45961997, 0.48828936, -0.4327084, 0.60256207, 0.15451796, 0.2765262, 0.027983665, 0
1136, 1351072142, 0.45947662, 0.48818764, -0.43280005, 0.6026879, 0.1717601, 0.315356, 0.07106018, 0
1137, 1351088809, 0.45937905, 0.48810846, -0.432863, 0.6027813, 0.22456023, 0.34562656, 0.008593559, 0
1138, 1351105476, 0.4592821, 0.4880661, -0.4328755, 0.6028805, 0.19797693, 0.37576976, -0.006037712, 0
1139, 1351122143, 0.45920148, 0.48805267, -0.43287542, 0.6029527, 0.06677025, 0.49288496, -0.059005737, 0
1140, 1351138810, 0.4591788, 0.48807552, -0.4328549, 0.60296625, 0.042495735, 0.5637663, -0.032161713, 0
1141, 1351155477, 0.45922917, 0.4881309, -0.4328016, 0.6029213, 0.096461505, 0.5698405, 0.14318275, 0
1142, 1351172144, 0.45932552, 0.48823357, -0.43269062, 0.6028445, 0.20620926, 0.55304885, 0.04133606, 0
1143, 1351188811, 0.4594316, 0.48837814, -0.43253702, 0.6027568, 0.11681592, 0.59214884, -0.13412285, 0
1144, 1351205478, 0.45956433, 0.4885663, -0.43236807, 0.6026243, 0.03609209, 0.6798379, -0.073804855, 0
1145, 1351222145, 0.4597258, 0.48875886, -0.43219456, 0.60246944, 0.056057945, 0.6616721, 0.006187439, 0
1146, 1351238812, 0.45987886, 0.48892358, -0.43203816, 0.6023313, -0.020211605, 0.67487746, -0.0182724, 0
1147, 1351255479, 0.46001267, 0.48907813, -0.43189853, 0.6022038, -0.10569291, 0.8282221, 0.02912426, 0
1148, 1351272146, 0.4601448, 0.48923823, -0.4317174, 0.60210246, -0.16278784, 0.8928446, -0.048584938, 0
1149, 1351288813, 0.46029812, 0.4894184, -0.43151775, 0.60198206, -0.12597023, 0.9206988, -0.09843826, 0
1150, 1351305480, 0.46045792, 0.48960018, -0.43130165, 0.6018667, -0.06345857, 1.0228943, 0.023985863, 0
1151, 1351322147, 0.46061027, 0.48978066, -0.43108875, 0.60175586, -0.06316096, 1.0442469, 0.08089161, 0
1152, 1351338814, 0.46076453, 0.48997223, -0.4308547, 0.60164934, -0.11687593, 0.94087285, 0.06522274, 0
1153, 1351355481, 0.46091166, 0.49019206, -0.4306133, 0.60153043, -0.15407988, 0.71780694, 0.064608574, 0
1154, 1351372148, 0.46104002, 0.4903605, -0.43042162, 0.601432, 0.0030019342, 0.45782316, 0.096494675, 0
1155, 1351388815, 0.461119, 0.49049115, -0.4302611, 0.6013799, -0.02502384, 0.19689949, 0.042461395, 0
1156, 1351405482, 0.46116686, 0.49055043, -0.4301208, 0.60139513, -0.14705141, 0.2374662, 0.17400932, 0
