sep=,
DeviceTag:,Xsens_DOT_5,,,,,,,,,,,,,,,,,
FirmwareVersion:,3.0.0,,,,,,,,,,,,,,,,,
AppVersion:,2023.6.1,,,,,,,,,,,,,,,,,
SyncStatus:,Synced,,,,,,,,,,,,,,,,,
OutputRate:,60Hz,,,,,,,,,,,,,,,,,
FilterProfile:,General,,,,,,,,,,,,,,,,,
Measurement Mode:,Sensor fusion Mode - Extended (Quaternion),,,,,,,,,,,,,,,,,
StartTime:,2025-05-05 11:57:36.875 +0200,,,,,,,,,,,,,,,,,
 2025,,,,,,,,,,,,,,,,,,,

PacketCounter,SampleTimeFine,Quat_W,Quat_X,Quat_Y,Quat_Z,FreeAcc_X,FreeAcc_Y,FreeAcc_Z,Status
1, 3049889451, 0.45862043, -0.33613077, 0.17864065, 0.8029752, -0.08550449, 0.20169261, -0.053915024, 0
2, 3049906118, 0.45861563, -0.33615685, 0.17862187, 0.8029712, -0.098956056, 0.18219838, -0.05731678, 0
3, 3049922785, 0.45861924, -0.33621868, 0.17856438, 0.8029561, -0.09663616, 0.16884817, -0.075549126, 0
4, 3049939452, 0.4586374, -0.33625585, 0.17846712, 0.8029518, -0.063230194, 0.16315094, -0.1078043, 0
5, 3049956119, 0.4586866, -0.33621824, 0.17835757, 0.8029638, 0.0061905268, 0.15059587, -0.114961624, 0
6, 3049972786, 0.45873642, -0.33610725, 0.17826214, 0.80300295, 0.048936766, 0.17335486, -0.10064316, 0
7, 3049989453, 0.45877376, -0.33595356, 0.17816898, 0.8030665, 0.04978315, 0.18066987, -0.08198643, 0
8, 3050006120, 0.45877272, -0.3358197, 0.17807566, 0.80314386, -1.06671556E-4, 0.1730852, -0.052830696, 0
9, 3050022787, 0.45878112, -0.33574888, 0.1779848, 0.8031888, -0.034650765, 0.07702324, -0.057925224, 0
10, 3050039454, 0.45878592, -0.33572778, 0.1778683, 0.8032207, -0.042987578, 0.026633693, -0.096045494, 0
11, 3050056121, 0.4588186, -0.33573717, 0.17774667, 0.803225, 0.0019750723, 0.06903108, -0.116918564, 0
12, 3050072788, 0.4589017, -0.33572352, 0.17760396, 0.8032148, 0.07510756, 0.0880365, -0.1667347, 0
13, 3050089455, 0.45896262, -0.33567572, 0.1774408, 0.80323607, 0.14170124, 0.08749471, -0.13910675, 0
14, 3050106122, 0.4590461, -0.33560947, 0.17729759, 0.8032477, 0.095353976, 0.06748169, -0.08246517, 0
15, 3050122789, 0.4591198, -0.33558306, 0.17718548, 0.8032413, 0.046447445, -0.0011935591, -0.010396957, 0
16, 3050139456, 0.45913145, -0.3356174, 0.17706649, 0.8032466, 0.039569393, -0.0088762585, -0.045969963, 0
17, 3050156123, 0.4591847, -0.33567742, 0.17698869, 0.8032081, 0.0328516, 0.0533702, -0.0707016, 0
18, 3050172790, 0.45923045, -0.335739, 0.17688379, 0.8031794, 0.025028087, 0.10125405, -0.12891865, 0
19, 3050189457, 0.45930097, -0.3357729, 0.17677276, 0.80314934, 0.063037805, 0.1220545, -0.12265301, 0
20, 3050206124, 0.45939893, -0.33578086, 0.17662792, 0.80312186, 0.047449622, 0.09357537, -0.07651043, 0
21, 3050222791, 0.45949972, -0.33578035, 0.1764787, 0.8030972, 0.021939864, 0.05502453, -0.057587624, 0
22, 3050239458, 0.45955306, -0.33579555, 0.17634949, 0.8030887, -0.0073217256, 0.07935771, -0.025300026, 0
23, 3050256125, 0.459575, -0.3358406, 0.17621012, 0.80308783, 0.008542609, 0.111460544, -0.068449974, 0
24, 3050272792, 0.45967343, -0.3358881, 0.17607214, 0.80304193, 0.005002388, 0.11524987, -0.08710098, 0
25, 3050289459, 0.45972183, -0.33594894, 0.17588714, 0.80302924, -0.0448671, 0.104135245, -0.10165119, 0
26, 3050306126, 0.45977908, -0.3360027, 0.17571573, 0.8030115, -0.02815006, 0.13984692, -0.0959816, 0
27, 3050322793, 0.45984262, -0.33607337, 0.17554681, 0.8029825, -0.009234382, 0.13743722, -0.082048416, 0
28, 3050339460, 0.45990658, -0.33612937, 0.1753717, 0.8029608, 0.014296671, 0.1374123, -0.094023705, 0
29, 3050356127, 0.45996332, -0.33617973, 0.1752019, 0.80294424, -0.029234322, 0.10204864, -0.07450676, 0
30, 3050372794, 0.46003863, -0.33620712, 0.17504798, 0.80292326, -0.035063986, 0.09906575, -0.057925224, 0
31, 3050389461, 0.4600899, -0.33622774, 0.17485921, 0.80292636, 2.7156825E-4, 0.12290765, -0.05842781, 0
32, 3050406128, 0.46012253, -0.3362808, 0.17468616, 0.802923, 0.029610215, 0.13493007, -0.06356239, 0
33, 3050422795, 0.46014234, -0.33636105, 0.17452411, 0.8029134, 0.031132001, 0.12202835, -0.06948376, 0
34, 3050439462, 0.46015266, -0.33647525, 0.1744063, 0.80288523, 0.023558266, 0.09545724, -0.110518456, 0
35, 3050456129, 0.46016, -0.33659914, 0.17428964, 0.80285436, 0.05641607, 0.069763534, -0.13041592, 0
36, 3050472796, 0.46018943, -0.3367084, 0.17417692, 0.8028162, 0.007446502, 0.11362315, -0.11877251, 0
37, 3050489463, 0.46018687, -0.33682084, 0.17402804, 0.8028028, -0.014818797, 0.08488419, -0.09100437, 0
39, 3050522797, 0.46021855, -0.33700112, 0.17370918, 0.80277795, 0.021603253, 0.11894275, -0.060907364, 0
40, 3050539464, 0.46026292, -0.33716503, 0.1735704, 0.80271375, 0.018296603, 0.13590683, -0.034960747, 0
41, 3050556131, 0.46028295, -0.33739334, 0.17342433, 0.802638, 0.009027353, 0.061083633, 0.016786575, 0
43, 3050589465, 0.4603102, -0.33792293, 0.17315525, 0.8024577, -0.004122305, 0.16797926, -0.097724915, 0
44, 3050606132, 0.46033686, -0.33817783, 0.17304611, 0.8023584, 0.05058439, 0.23330092, -0.14606571, 0
45, 3050622799, 0.46038416, -0.33840466, 0.17293224, 0.80226016, 0.044034287, 0.20479576, -0.15989876, 0
47, 3050656133, 0.4604609, -0.33868623, 0.17263834, 0.8021607, -0.028231585, 0.18841025, -0.052991867, 0
51, 3050722801, 0.4605493, -0.33955887, 0.17209063, 0.8018586, -0.031912677, 0.22044346, -0.1469078, 0
52, 3050739468, 0.46053445, -0.33981404, 0.17193764, 0.8017919, 0.06975459, 0.26792789, -0.20558643, 0
54, 3050772802, 0.4606496, -0.33998197, 0.17168525, 0.8017085, 0.034763083, 0.21054573, -0.12830639, 0
55, 3050789469, 0.4606578, -0.3399909, 0.17157905, 0.80172276, -0.034232408, 0.17922755, -0.021654129, 0
56, 3050806136, 0.4606858, -0.3400271, 0.17150015, 0.8017083, -0.041720144, 0.1466844, 0.014483452, 0
58, 3050839470, 0.46064734, -0.34020653, 0.17140263, 0.80167514, 0.0019483624, 0.19190587, -0.16064644, 0
59, 3050856137, 0.46062085, -0.34027213, 0.17133838, 0.8016763, 0.01898195, 0.18563734, -0.13999462, 0
60, 3050872804, 0.46064588, -0.34028226, 0.17125495, 0.8016754, -0.010326131, 0.18381996, -0.1136446, 0
62, 3050906138, 0.46069455, -0.34012547, 0.17107289, 0.8017528, 0.014713299, 0.125238, -0.08788586, 0
64, 3050939472, 0.46068943, -0.33990616, 0.17096105, 0.8018727, 0.103198946, 0.16026561, -0.048882484, 0
66, 3050972806, 0.46061158, -0.33980614, 0.17085037, 0.80198324, -0.026142187, 0.026564179, -0.07697582, 0
67, 3050989473, 0.46063223, -0.33973122, 0.17077088, 0.8020201, -0.034258947, 0.029104292, -0.123298645, 0
68, 3051006140, 0.46069318, -0.33961755, 0.17066309, 0.8020562, 0.05326571, 0.052845392, -0.105508804, 0
70, 3051039474, 0.460818, -0.3394174, 0.17045149, 0.8021141, 0.08157798, 0.016039625, -0.0045928955, 0
71, 3051056141, 0.46083075, -0.33940902, 0.17040221, 0.8021208, 0.04450378, 0.009330437, 0.0075654984, 0
72, 3051072808, 0.46079725, -0.33948037, 0.17039746, 0.80211085, 0.027277019, 0.015514257, -0.051959038, 0
74, 3051106142, 0.46082413, -0.33973265, 0.17041506, 0.80198497, -0.012475432, 0.05264602, -0.12864113, 0
75, 3051122809, 0.46082953, -0.33982143, 0.17037952, 0.8019518, 0.046655647, 0.07353453, -0.12980843, 0
76, 3051139476, 0.46083295, -0.33987495, 0.17028901, 0.8019463, 0.054285094, 0.11324843, -0.13098145, 0
81, 3051222811, 0.4608843, -0.34036422, 0.1697735, 0.8018185, -0.0392957, 0.106785886, -0.10679817, 0
82, 3051239478, 0.4609334, -0.34050465, 0.16959623, 0.80176824, -0.030193303, 0.11577614, -0.13428879, 0
83, 3051256145, 0.46100664, -0.34060106, 0.16940075, 0.80172664, 0.034893837, 0.11211857, -0.1307764, 0
85, 3051289479, 0.4611901, -0.34069392, 0.16888884, 0.80168957, 0.062118888, 0.093012795, -0.08479881, 0
86, 3051306146, 0.4612625, -0.34075007, 0.16863686, 0.8016771, -0.014586902, 0.009179342, -0.030444145, 0
87, 3051322813, 0.4613085, -0.34085056, 0.1684379, 0.80164975, -0.037833255, 0.029699285, -0.003856659, 0
89, 3051356147, 0.46143082, -0.34123656, 0.16801104, 0.80150473, 0.0696929, 0.13498428, -0.19179153, 0
90, 3051372814, 0.46147662, -0.34139308, 0.16774787, 0.80146694, 0.06989021, 0.107937984, -0.19187069, 0
91, 3051389481, 0.46151277, -0.3414989, 0.16746539, 0.80145997, 0.0611147, 0.13098843, -0.099713326, 0
94, 3051439482, 0.46177188, -0.34165516, 0.16653793, 0.8014374, -0.06382485, 0.055071916, -0.08217907, 0
97, 3051489483, 0.46228492, -0.34182864, 0.16527466, 0.8013292, -0.026686274, 0.081004225, -0.104328156, 0
98, 3051506150, 0.46244767, -0.34188113, 0.16478907, 0.801313, -0.01254215, 0.10806225, -0.0020179749, 0
99, 3051522817, 0.46259028, -0.34193754, 0.16433816, 0.80129904, 0.006715279, 0.13766521, -0.007817268, 0
101, 3051556151, 0.46300668, -0.34181085, 0.16330959, 0.80132306, -0.053052757, 0.13470478, -0.26850605, 0
102, 3051572818, 0.4633168, -0.34144428, 0.16267772, 0.8014284, 0.0052845166, 0.21734735, -0.20607185, 0
103, 3051589485, 0.46365532, -0.34094775, 0.16205865, 0.80156964, 0.1347906, 0.19116907, 0.003704071, 0
105, 3051622819, 0.46421397, -0.34020895, 0.16099954, 0.80177325, -0.080860116, 0.013296786, 0.14421368, 0
106, 3051639486, 0.46439087, -0.34009236, 0.16065611, 0.80178934, -0.027190184, -0.018482175, 0.07395649, 0
109, 3051689487, 0.46451962, -0.34041482, 0.15991035, 0.8017271, 0.34240654, 0.085987225, -0.23705769, 0
110, 3051706154, 0.46458137, -0.34046772, 0.15981695, 0.8016874, 0.28530592, 0.07584935, -0.18930435, 0
113, 3051756155, 0.46443698, -0.34080037, 0.15974812, 0.8016435, -0.0033653786, 0.022272954, 0.12963581, 0
114, 3051772822, 0.46430916, -0.34105906, 0.15979664, 0.8015978, 0.0022556928, 0.096981265, -0.010580063, 0
116, 3051806156, 0.4641911, -0.341666, 0.15987878, 0.80139136, 0.025385763, 0.20430872, -0.19188595, 0
117, 3051822823, 0.4642259, -0.34183088, 0.15989573, 0.8012974, 0.07725826, 0.24689688, -0.2639761, 0
118, 3051839490, 0.46427152, -0.3419078, 0.1598857, 0.80124015, 0.06289911, 0.21837004, -0.13453388, 0
120, 3051872824, 0.46425992, -0.3421264, 0.15992354, 0.801146, -0.15820141, 0.16999513, 0.07946682, 0
121, 3051889491, 0.4641859, -0.3423888, 0.1600303, 0.8010555, -0.21166873, 0.22481179, 0.037733078, 0
124, 3051939492, 0.46400076, -0.34318215, 0.16022743, 0.8007839, -0.025405992, 0.32336122, -0.33533287, 0
125, 3051956159, 0.46400455, -0.3431354, 0.16012935, 0.80082124, -0.06840681, 0.2660736, -0.18820095, 0
126, 3051972826, 0.46405247, -0.34298667, 0.16002046, 0.80087894, -0.080438286, 0.19496934, -2.8419495E-4, 0
129, 3052022827, 0.46390212, -0.34314218, 0.16001691, 0.80090016, -0.07301481, 0.18945283, -0.028362274, 0
130, 3052039494, 0.46382672, -0.34340903, 0.1600993, 0.800813, -0.007090222, 0.19702287, -0.15817928, 0
132, 3052072828, 0.46376693, -0.34357917, 0.16007845, 0.80077887, 0.08767279, -0.20258957, -0.5861025, 0
133, 3052089495, 0.46386576, -0.3431906, 0.15987587, 0.8009286, -0.16633722, 0.60457766, -1.5143843, 0
135, 3052122829, 0.46373612, -0.34324074, 0.16003734, 0.80095, 0.278087, 0.24468578, 0.8464575, 0
136, 3052139496, 0.46346313, -0.3438133, 0.16048983, 0.800772, -0.25688052, 0.0329248, 0.15978241, 0
139, 3052189497, 0.46247014, -0.3461092, 0.16204248, 0.800044, 0.086023204, 0.5778333, -0.36180973, 0
140, 3052206164, 0.46237475, -0.3464511, 0.16247492, 0.7998634, -0.28291902, 0.3223952, -0.34694958, 0
141, 3052222831, 0.4621022, -0.3463857, 0.16295983, 0.79995066, 0.12436585, 0.4017015, -0.26487446, 0
143, 3052256165, 0.46192878, -0.34519067, 0.16375788, 0.80040425, 0.0071705193, 0.45749828, -0.12042332, 0
144, 3052272832, 0.46191037, -0.3444551, 0.1641584, 0.80064976, -0.44015855, 0.06930108, 0.16386127, 0
145, 3052289499, 0.4617602, -0.3437317, 0.16456182, 0.80096424, -0.23514132, -0.104110435, 0.16506672, 0
147, 3052322833, 0.4615581, -0.34288272, 0.16538063, 0.8012759, 0.1726623, 0.0653591, -0.33541393, 0
148, 3052339500, 0.46148342, -0.34263974, 0.16578571, 0.8013392, 0.016913729, -0.16318256, -0.37450314, 0
149, 3052356167, 0.46133602, -0.34234145, 0.16623546, 0.80145836, 0.13599545, -0.13451713, -0.21175003, 0
151, 3052389501, 0.46103573, -0.3417312, 0.16696545, 0.8017398, 0.12236787, -0.1947094, 0.117694855, 0
153, 3052422835, 0.4608359, -0.34117457, 0.16742425, 0.80199593, -0.057602305, -0.44061568, 0.03382969, 0
155, 3052456169, 0.4609702, -0.34084255, 0.16726376, 0.80209357, -0.09367757, -0.30246958, -0.08838558, 0
156, 3052472836, 0.4611791, -0.34083766, 0.16690281, 0.80205065, -0.12589312, -0.43618587, -0.13006973, 0
159, 3052522837, 0.46211687, -0.34112552, 0.1651237, 0.8017568, 0.33597624, -0.2250495, -0.12933159, 0
160, 3052539504, 0.46242642, -0.34129077, 0.16450022, 0.8016361, 0.12586305, -0.19143918, -0.099123, 0
162, 3052572838, 0.4628492, -0.34178445, 0.16348329, 0.8013898, 0.19173601, -0.042421643, -0.07306862, 0
163, 3052589505, 0.4629842, -0.3420643, 0.1631022, 0.80127007, 0.32245824, -0.012865741, -0.04844761, 0
164, 3052606172, 0.4630817, -0.3422621, 0.16281003, 0.8011885, 0.24391595, -0.03593384, -0.118540764, 0
166, 3052639506, 0.4631856, -0.34260172, 0.16239786, 0.801067, 0.054322477, -0.16097996, 0.059256554, 0
168, 3052672840, 0.46326265, -0.34301487, 0.16195741, 0.8009349, 0.12755074, -0.1477262, -0.058615685, 0
170, 3052706174, 0.463385, -0.3434115, 0.16158316, 0.80076975, 0.3259434, -0.08007418, -0.16345692, 0
171, 3052722841, 0.46344045, -0.34359178, 0.16142759, 0.8006917, 0.25842083, -0.054596502, -0.15271187, 0
172, 3052739508, 0.46349508, -0.34377456, 0.161273, 0.80061257, 0.16291305, -0.03336322, -0.15276146, 0
175, 3052789509, 0.46386078, -0.34442288, 0.16069339, 0.8002388, -0.024811335, 0.12234026, -0.07046318, 0
176, 3052806176, 0.46396387, -0.34469014, 0.16045065, 0.8001125, 0.022920638, 0.21882778, -0.06979275, 0
178, 3052839510, 0.46419254, -0.3452375, 0.16005163, 0.79982376, -0.0893141, 0.25661534, -0.028470993, 0
179, 3052856177, 0.4642514, -0.34548965, 0.15987223, 0.79971665, -0.1336166, 0.2709393, -0.07156277, 0
180, 3052872844, 0.46430153, -0.34566075, 0.15968525, 0.79965097, -0.07190613, 0.2670364, -0.08896637, 0
183, 3052922845, 0.46461695, -0.34596422, 0.15891515, 0.79949, -0.11914084, 0.101111114, 0.021320343, 0
184, 3052939512, 0.46479017, -0.3460465, 0.15857238, 0.7994216, -0.111856446, 0.10037218, -0.11871052, 0
186, 3052972846, 0.46519512, -0.34630495, 0.1576516, 0.79925627, 0.030051764, 0.03790422, -0.13908482, 0
187, 3052989513, 0.46542898, -0.3464615, 0.15711609, 0.79915774, 0.0560837, 5.3643107E-6, -0.12827015, 0
188, 3053006180, 0.4656439, -0.3466169, 0.15658997, 0.7990684, 0.12464798, 0.0021879682, -0.06522083, 0
191, 3053056181, 0.4661644, -0.3471456, 0.15521261, 0.7988041, 0.018183114, 0.101649225, -0.17585373, 0
193, 3053089515, 0.46651354, -0.3475197, 0.15429838, 0.7986146, -0.05188747, 0.101524614, -0.09300041, 0
194, 3053106182, 0.46675348, -0.34771675, 0.1538254, 0.7984799, -0.07030198, 0.09129699, -0.09611225, 0
195, 3053122849, 0.46693328, -0.34792146, 0.15327339, 0.7983919, -0.10623923, 0.15999147, -0.13433266, 0
198, 3053172850, 0.46755254, -0.34850204, 0.15171523, 0.7980737, -0.024704048, 0.27322793, 0.014141083, 0
199, 3053189517, 0.46780255, -0.3487171, 0.15126184, 0.7979194, -0.026705105, 0.2787516, -0.11953068, 0
201, 3053222851, 0.46811533, -0.34911296, 0.15023954, 0.7977559, 0.047882397, 0.17334637, -0.21283245, 0
202, 3053239518, 0.4682703, -0.34918398, 0.14979057, 0.7977184, 0.06996598, 0.12168336, -0.12156582, 0
203, 3053256185, 0.4684525, -0.3491972, 0.14944345, 0.79767066, 0.10664373, 0.15297495, -0.034811974, 0
205, 3053289519, 0.4686034, -0.34928325, 0.14883193, 0.7976587, 0.05277275, 0.09963604, -0.013636589, 0
207, 3053322853, 0.4687652, -0.34923413, 0.14830093, 0.797684, 0.13560146, -0.6891861, -0.92466736, 0
209, 3053356187, 0.4687739, -0.34950653, 0.14779876, 0.79765266, 0.5179653, 0.18894902, 2.6742344, 0
210, 3053372854, 0.46870977, -0.34990838, 0.14792259, 0.79749125, 0.3143314, 0.05420826, -0.15083599, 0
213, 3053422855, 0.46852028, -0.35131052, 0.14774238, 0.7970194, 0.025936667, 0.42711034, -0.09679127, 0
214, 3053439522, 0.468834, -0.35192725, 0.14738894, 0.7966283, -0.27631643, 0.8172918, -0.1602974, 0
216, 3053472856, 0.46863478, -0.35315114, 0.1470861, 0.7962599, 0.022178575, 0.85494435, -0.092326164, 0
217, 3053489523, 0.46857485, -0.35356256, 0.14699115, 0.79613006, 0.08232015, 1.0704992, -0.14068985, 0
218, 3053506190, 0.46873093, -0.3535962, 0.14674571, 0.7960684, -0.5134452, 0.695968, -0.47472572, 0
220, 3053539524, 0.46897936, -0.3525558, 0.14603071, 0.796515, -0.059095204, 0.48006806, 0.076135635, 0
221, 3053556191, 0.46921584, -0.35208356, 0.14562143, 0.79665947, 0.24873298, 0.3885091, 0.058779716, 0
222, 3053572858, 0.46949753, -0.35179597, 0.14525062, 0.79668826, -0.07932117, 0.27944058, -0.03027153, 0
224, 3053606192, 0.46967298, -0.35148653, 0.14478026, 0.79680705, 0.23598638, -0.11005487, -0.22932148, 0
225, 3053622859, 0.4698959, -0.3513898, 0.14452201, 0.7967652, 0.445062, -0.042331006, -0.21353054, 0
228, 3053672860, 0.47039515, -0.3510375, 0.14397718, 0.79672444, 0.24973114, -0.34178227, 0.07705879, 0
229, 3053689527, 0.47050616, -0.35104522, 0.14387435, 0.7966741, 0.1845209, -0.16443804, 6.2942505E-5, 0
230, 3053706194, 0.47067097, -0.35115123, 0.14373966, 0.7965543, -0.07959475, -0.26080206, 0.013895035, 0
232, 3053739528, 0.4707945, -0.351332, 0.1433779, 0.7964669, 0.17988735, -0.11138109, -0.27182102, 0
233, 3053756195, 0.47092742, -0.35139364, 0.14312667, 0.7964063, 0.32231435, -0.0014770854, -0.20156002, 0
234, 3053772862, 0.47111207, -0.35145447, 0.14285232, 0.79631954, 0.10456093, -0.10503511, -0.047419548, 0
237, 3053822863, 0.47116068, -0.35182628, 0.1420994, 0.7962613, 0.06462184, -0.062234163, -0.12875843, 0
238, 3053839530, 0.4712748, -0.35204002, 0.14177983, 0.79615617, 0.090743855, -0.085378595, -0.1573391, 0
240, 3053872864, 0.47141302, -0.35229006, 0.14117907, 0.79607034, 0.20716494, -0.04813888, -0.12977695, 0
243, 3053922865, 0.4714136, -0.35233864, 0.14046514, 0.7961748, -0.17998515, -0.114748985, 0.10263252, 0
244, 3053939532, 0.47151086, -0.35232928, 0.14012825, 0.7961808, 0.6742015, 0.42385554, 0.028212547, 0
245, 3053956199, 0.47166866, -0.35251367, 0.13981743, 0.79606026, 0.22638007, -0.13563381, -0.2341795, 0
247, 3053989533, 0.47154495, -0.35279894, 0.13938522, 0.7960831, -0.02367276, -0.42727643, -0.16544437, 0
248, 3054006200, 0.47160593, -0.352929, 0.13906224, 0.79604596, 0.79039377, 0.045394477, 0.05202198, 0
249, 3054022867, 0.47188982, -0.35320395, 0.13863501, 0.79583013, 0.53830475, 0.27912688, 0.10043812, 0
251, 3054056201, 0.47194722, -0.35367903, 0.1381762, 0.7956648, -0.4965174, 0.19416693, 0.052176476, 0
253, 3054089535, 0.47219753, -0.35406804, 0.13765973, 0.795433, -0.16970702, 0.583383, -0.2147255, 0
255, 3054122869, 0.4722832, -0.3541266, 0.1370432, 0.7954623, -0.13639207, 0.2983355, -0.22803974, 0
257, 3054156203, 0.4724399, -0.35404477, 0.1365811, 0.7954852, -0.031101828, 0.4134005, -0.025681496, 0
259, 3054189537, 0.47248372, -0.35411218, 0.13622051, 0.79549104, 0.116935946, 0.081141464, -0.06650257, 0
260, 3054206204, 0.47248086, -0.35422102, 0.13598399, 0.7954848, 0.29530743, 0.082252994, -0.05296135, 0
261, 3054222871, 0.47263443, -0.35436457, 0.13574658, 0.79537004, -0.03949351, 0.11881133, -0.036301613, 0
263, 3054256205, 0.47273734, -0.3545358, 0.1353982, 0.795292, 0.08314911, -0.031990852, -0.24242496, 0
264, 3054272872, 0.4727282, -0.35457003, 0.1352823, 0.7953019, 0.2839179, 0.161775, -0.091843605, 0
265, 3054289539, 0.47278824, -0.35460168, 0.13518439, 0.7952687, 0.16219413, 0.029476441, -0.028468132, 0
267, 3054322873, 0.47271547, -0.3545152, 0.13530497, 0.79533005, 0.1924004, 0.2219705, -0.10856342, 0
269, 3054356207, 0.47255194, -0.35417074, 0.13580586, 0.79549545, 0.38443792, 0.32626587, -0.13066578, 0
272, 3054406208, 0.47217005, -0.35327145, 0.13702357, 0.7959131, -0.023225455, 0.20225799, 0.006403923, 0
274, 3054439542, 0.4721349, -0.35290155, 0.13773347, 0.79597545, 0.012525443, 0.14515501, -0.05285263, 0
275, 3054456209, 0.47201738, -0.35274094, 0.1381209, 0.7960493, -0.18845227, 0.04829813, -0.01865673, 0
276, 3054472876, 0.4718265, -0.35257635, 0.13852854, 0.79616445, -0.11233571, 0.12857829, -0.04118347, 0
278, 3054506210, 0.47169033, -0.35234895, 0.13914038, 0.7962392, -0.33127308, 0.12106948, -0.08086109, 0
279, 3054522877, 0.47159994, -0.3522593, 0.13933419, 0.7962984, -0.315116, 0.21424544, -0.120905876, 0
280, 3054539544, 0.47152042, -0.35222113, 0.13944198, 0.7963435, -0.21649744, 0.33779982, -0.102788925, 0
282, 3054572878, 0.4716733, -0.3522854, 0.13946821, 0.79621994, 0.05807107, 0.3010381, -0.04976082, 0
283, 3054589545, 0.47177157, -0.35232836, 0.13945839, 0.79614437, 0.023474168, 0.2142098, -0.12510395, 0
287, 3054656213, 0.47183052, -0.3522428, 0.13991493, 0.79606724, -0.08819525, 0.23372482, -0.16313553, 0
288, 3054672880, 0.47183713, -0.3521666, 0.14010385, 0.79606384, -0.030040756, 0.1861293, -0.13238335, 0
290, 3054706214, 0.4717564, -0.35141233, 0.14034598, 0.7964022, 0.03715207, -0.039906003, -2.219602, 0
291, 3054722881, 0.47172004, -0.3517291, 0.14036243, 0.7962811, -0.3148754, 0.56813437, 0.8333225, 0
292, 3054739548, 0.4713937, -0.3514165, 0.14095594, 0.79650754, 0.2151059, 0.17810552, 2.0155687, 0
294, 3054772882, 0.47094217, -0.35241118, 0.14174289, 0.7961954, -0.9302228, 0.21967569, -0.37980366, 0
295, 3054789549, 0.47063255, -0.35271624, 0.14203002, 0.79619217, -0.26205358, -0.01978302, -0.3813038, 0
297, 3054822883, 0.47065392, -0.35296896, 0.1418978, 0.79609114, -0.053353827, 0.8746383, -0.42391777, 0
298, 3054839550, 0.47062922, -0.35293257, 0.14195658, 0.79611135, -0.28073847, 0.9982655, 0.24588966, 0
299, 3054856217, 0.47045213, -0.35290176, 0.14223008, 0.7961809, -0.30701807, 1.2056572, 0.4491539, 0
302, 3054906218, 0.47043544, -0.35226256, 0.14339212, 0.7962654, -0.35483554, 0.34263977, -0.40275002, 0
303, 3054922885, 0.47058383, -0.3516332, 0.14353618, 0.7964299, 0.25155428, -0.011530475, -0.32464027, 0
305, 3054956219, 0.47103757, -0.35044366, 0.14385407, 0.79662865, 0.562828, -0.5444093, -0.035093307, 0
306, 3054972886, 0.4711841, -0.34998262, 0.14417706, 0.79668635, 0.4803366, -0.49258748, -0.114479065, 0
307, 3054989553, 0.47118726, -0.3495253, 0.14454442, 0.7968186, 0.24096133, -0.4118025, -0.24096584, 0
309, 3055022887, 0.47126716, -0.34854305, 0.14526, 0.7970714, 0.20871802, -0.38445413, -0.009249687, 0
310, 3055039554, 0.47130257, -0.3480693, 0.14562532, 0.79719096, 0.23599118, -0.502303, -0.027199745, 0
311, 3055056221, 0.47131214, -0.34764546, 0.14601341, 0.79729915, 0.46925417, -0.5523733, 0.04092598, 0
313, 3055089555, 0.47131833, -0.34703305, 0.14680175, 0.79741746, 0.23602493, -0.58513635, -0.22904205, 0
317, 3055156223, 0.471081, -0.34563625, 0.14826035, 0.79789436, 0.19075668, 0.13143836, -0.038999557, 0
318, 3055172890, 0.47103536, -0.34535617, 0.14866568, 0.79796714, -0.06717241, -0.040228084, 0.19755077, 0
319, 3055189557, 0.47087136, -0.3451173, 0.14912793, 0.7980811, -0.083471194, 0.038627062, 0.12660313, 0
321, 3055222891, 0.47041675, -0.3447453, 0.14997652, 0.7983509, -0.032466263, -0.13815704, -0.37192345, 0
322, 3055239558, 0.47034982, -0.3445855, 0.15021884, 0.79841363, 0.031108925, -0.25991204, -0.38048744, 0
324, 3055272892, 0.47037345, -0.34428462, 0.15038586, 0.79849815, 0.21084145, -0.41692296, 0.23785877, 0
325, 3055289559, 0.4702807, -0.3442407, 0.15052155, 0.79854614, 0.09400005, -0.20344652, 0.055996895, 0
326, 3055306226, 0.47007242, -0.34416658, 0.15073013, 0.7986615, 0.034049015, -0.2819503, 0.095137596, 0
328, 3055339560, 0.4696757, -0.34409907, 0.15117037, 0.7988405, 0.35693863, -0.23718849, 0.045581818, 0
329, 3055356227, 0.46963415, -0.34422812, 0.15122825, 0.7987985, 0.7323618, -0.44788745, 0.055737495, 0
333, 3055422895, 0.4687002, -0.34679058, 0.15250647, 0.7979953, 0.06826393, 0.2129371, 0.06068325, 0
334, 3055439562, 0.46813688, -0.34816048, 0.1532638, 0.7975843, 0.18342066, 0.5945847, -0.416461, 0
336, 3055472896, 0.46740413, -0.34983033, 0.1545017, 0.7970444, -0.35327822, 0.6248946, -0.1324625, 0
337, 3055489563, 0.46724764, -0.35013807, 0.15487827, 0.7969278, -0.33193612, 0.85466117, 0.32841396, 0
338, 3055506230, 0.46686065, -0.3508942, 0.15558486, 0.7966844, -0.107543424, 0.8421751, 0.85738754, 0
340, 3055539564, 0.46425328, -0.3570649, 0.15979423, 0.79463047, -0.64968145, 1.0926685, -0.27268314, 0
341, 3055556231, 0.4624655, -0.3624264, 0.16221537, 0.7927529, -1.1267335, 0.9428666, -0.40591812, 0
342, 3055572898, 0.46076044, -0.3679871, 0.16424961, 0.79076284, -1.4429175, 1.0878593, -0.5981827, 0
344, 3055606232, 0.4586236, -0.37728643, 0.16735132, 0.78696334, -0.68790895, 2.1164517, -0.45016766, 0
346, 3055639566, 0.45675457, -0.3854417, 0.17019232, 0.78348124, -0.38037094, 2.5603204, 0.1010952, 0
349, 3055689567, 0.4496283, -0.39844775, 0.17558248, 0.7798993, -1.3914294, 2.5598984, 0.11987305, 0
350, 3055706234, 0.44663215, -0.4027691, 0.17680071, 0.77912563, -1.3061087, 2.569751, -0.368721, 0
352, 3055739568, 0.44279423, -0.41089746, 0.17861222, 0.77665466, -1.0014579, 2.9468865, -0.48248863, 0
353, 3055756235, 0.44177556, -0.4140001, 0.17951642, 0.77537775, -1.1251746, 2.5343711, -0.3947506, 0
355, 3055789569, 0.44101706, -0.41804478, 0.18155375, 0.77316165, -0.6826814, 2.9396973, -0.40731525, 0
356, 3055806236, 0.44131526, -0.41960847, 0.18256445, 0.7719055, -0.7803911, 2.7469501, -0.29783058, 0
357, 3055822903, 0.44151184, -0.4207065, 0.18361546, 0.7709456, -0.9799817, 3.0992239, -0.23680592, 0
359, 3055856237, 0.4418508, -0.4225223, 0.18475987, 0.76948357, -1.1413517, 2.7123065, -0.3481226, 0
361, 3055889571, 0.4428515, -0.42294133, 0.18560822, 0.76847327, -1.342651, 3.164012, -0.4126587, 0
363, 3055922905, 0.443891, -0.42360312, 0.18637836, 0.76732165, -0.88371366, 3.032696, -0.102311134, 0
365, 3055956239, 0.44653958, -0.42256254, 0.18594709, 0.7664628, -1.7107149, 3.4525886, -0.9130573, 0
367, 3055989573, 0.45079583, -0.41915658, 0.18398274, 0.76631564, -1.6348276, 4.1112103, -0.274436, 0
368, 3056006240, 0.45301154, -0.4173985, 0.18259884, 0.76629966, -1.2525214, 3.5187356, 0.2655592, 0
369, 3056022907, 0.45498574, -0.41572255, 0.18117133, 0.7663798, -0.5929935, 3.350108, 0.7203846, 0
371, 3056056241, 0.4581258, -0.41353366, 0.17799295, 0.7664382, -1.8410441, 3.4030929, -0.08458614, 0
372, 3056072908, 0.45975748, -0.41282278, 0.1762196, 0.76625407, -1.739403, 3.3288593, -0.6176777, 0
373, 3056089575, 0.46139327, -0.41184327, 0.1741176, 0.76627856, -1.1557729, 2.6762094, -0.029247284, 0
376, 3056139576, 0.4669032, -0.40415213, 0.16511442, 0.76902395, -1.3605082, 2.5773082, -1.277564, 0
378, 3056172910, 0.47056037, -0.39542145, 0.1576488, 0.7728906, -1.144581, 2.6890726, -0.67356396, 0
379, 3056189577, 0.4718574, -0.39201203, 0.1546898, 0.774433, -1.5958499, 1.976078, -0.69254875, 0
380, 3056206244, 0.4738108, -0.38816017, 0.15171018, 0.77576894, -1.4497957, 1.2596163, -0.2531309, 0
382, 3056239578, 0.4784545, -0.37753692, 0.14467779, 0.77949595, -1.1079212, 1.9726485, -1.3522787, 0
383, 3056256245, 0.48102498, -0.3698352, 0.13956743, 0.78253186, -0.6477681, 0.9876534, -0.53149986, 0
384, 3056272912, 0.48306623, -0.36574683, 0.13581908, 0.78385437, -1.9077836, 2.4657087, -1.2796154, 0
386, 3056306246, 0.48589933, -0.36090386, 0.12948193, 0.78541887, -1.2422044, -0.7626987, 0.5254307, 0
387, 3056322913, 0.48664656, -0.35941458, 0.12737374, 0.7859837, 0.41747347, -1.4117885, 1.1478252, 0
388, 3056339580, 0.48732165, -0.35853013, 0.12552537, 0.7862668, 1.2298805, -0.3762731, 0.47166634, 0
391, 3056389581, 0.48758486, -0.35612094, 0.12172301, 0.78779477, 1.0282629, -3.1377943, 1.4136782, 0
392, 3056406248, 0.48750174, -0.35485342, 0.12118385, 0.78850096, 2.3015134, -3.638035, 1.4486723, 0
395, 3056456249, 0.48687148, -0.3509886, 0.12087466, 0.7906648, 1.9549534, -2.9336057, -0.75126076, 0
396, 3056472916, 0.4867532, -0.35009882, 0.121796444, 0.79099065, 2.1846464, -3.9548275, -0.93352985, 0
398, 3056506250, 0.48585314, -0.34877175, 0.12443558, 0.7917191, 2.3683293, -1.7232313, -0.23135662, 0
399, 3056522917, 0.485537, -0.34808746, 0.12601534, 0.79196423, 1.2967331, -2.0724385, 0.055729866, 0
400, 3056539584, 0.48507875, -0.3473188, 0.12774305, 0.7923057, 1.0711672, -1.236789, 0.32981873, 0
402, 3056572918, 0.4840999, -0.34637418, 0.13166867, 0.7926751, 0.5337639, -0.4120277, -0.27487278, 0
403, 3056589585, 0.48383215, -0.34596187, 0.1335557, 0.792703, -0.004460816, 1.1154969, -0.27301598, 0
406, 3056639586, 0.4829167, -0.3439587, 0.14004697, 0.79301244, 1.6146082, 1.1664308, 0.22469997, 0
407, 3056656253, 0.48337376, -0.34379035, 0.14178692, 0.79249793, 0.8934487, -0.3732111, 0.27845287, 0
409, 3056689587, 0.48462895, -0.34396762, 0.14459462, 0.7911459, -0.9483141, 0.9059856, -0.07025623, 0
411, 3056722921, 0.48690096, -0.3456984, 0.14629689, 0.78867966, 1.0622472, 0.96689516, -0.84552383, 0
413, 3056756255, 0.48989224, -0.3480299, 0.14700204, 0.78566486, 0.051021304, 2.4786344, -0.40741634, 0
414, 3056772922, 0.49148777, -0.34919414, 0.14710183, 0.78413177, -0.867341, 1.7303967, -0.5141411, 0
415, 3056789589, 0.49331978, -0.35038373, 0.14703444, 0.7824615, -0.7976985, 2.1147263, -0.43851185, 0
417, 3056822923, 0.49716997, -0.35319132, 0.14677656, 0.7788022, -0.040615376, 3.0110097, 0.39204216, 0
418, 3056839590, 0.498857, -0.35440934, 0.14709309, 0.77710843, 0.23459707, 2.5384018, -0.24349117, 0
421, 3056889591, 0.50327843, -0.35745308, 0.149157, 0.77245617, -1.2567449, 2.198354, 0.46654034, 0
422, 3056906258, 0.50469637, -0.35846132, 0.1495415, 0.77098817, -2.0420191, 2.301202, -0.46455574, 0
423, 3056922925, 0.5062807, -0.359237, 0.14942743, 0.76960903, -1.455087, 2.6683142, -0.33935642, 0
425, 3056956259, 0.5091548, -0.36260566, 0.14911816, 0.76618576, -0.68516386, 2.054879, 0.2957821, 0
427, 3056989593, 0.5107593, -0.3663419, 0.14899099, 0.7633601, -0.2111233, 1.7885203, 0.47162437, 0
429, 3057022927, 0.5114391, -0.37001187, 0.14941248, 0.7610491, -0.82342833, 1.3240162, 0.23705292, 0
430, 3057039594, 0.5114809, -0.37185034, 0.14995207, 0.76001805, -1.1508521, 1.1389197, -0.4584074, 0
432, 3057072928, 0.5120952, -0.37335038, 0.14988296, 0.75888187, -0.40069664, 1.9286222, -0.7079525, 0
433, 3057089595, 0.5124512, -0.37377706, 0.14931644, 0.75854295, -0.42862117, 0.31561315, -0.01510334, 0
436, 3057139596, 0.50998485, -0.37918526, 0.15051891, 0.75728226, -0.7250985, 3.02372, 0.2061634, 0
437, 3057156263, 0.506874, -0.38522956, 0.15416697, 0.7555845, -1.2624043, 3.6459026, -1.3172169, 0
440, 3057206264, 0.50447714, -0.38528296, 0.15421005, 0.7571508, -0.9623726, 2.358215, 0.15112686, 0
441, 3057222931, 0.5053078, -0.3805102, 0.15183085, 0.7594878, -0.91071194, 3.037107, 1.7287855, 0
442, 3057239598, 0.50476426, -0.3783252, 0.15109137, 0.76108664, -1.3057557, 3.2142794, 2.3395205, 0
445, 3057289599, 0.49198595, -0.39833182, 0.16035801, 0.75734097, -2.889365, 3.9739847, -4.19373, 0
446, 3057306266, 0.4894367, -0.40217546, 0.160172, 0.7570005, -1.753596, 1.2784388, 0.4079132, 0
448, 3057339600, 0.48676383, -0.40182394, 0.15669653, 0.7596336, -0.046149224, -0.57977515, 2.6455536, 0
450, 3057372934, 0.47988915, -0.40994757, 0.1528137, 0.76045746, -5.0545254, 1.0039259, -3.3940554, 0
452, 3057406268, 0.46078807, -0.4230939, 0.14227165, 0.76708734, 1.2032355, -0.3161459, 0.07921982, 0
453, 3057422935, 0.45312026, -0.42528522, 0.13869871, 0.77108717, 2.4922311, -1.296267, -0.8881378, 0
454, 3057439602, 0.44747907, -0.4273184, 0.13708848, 0.7735417, 0.7252322, -1.7773366, -1.9601035, 0
456, 3057472936, 0.44600326, -0.42259148, 0.13602687, 0.7771695, -1.3350834, 0.6307255, -3.157813, 0
457, 3057489603, 0.447399, -0.41680735, 0.13223882, 0.7801391, -2.0557554, 1.3102256, -2.4928613, 0
459, 3057522937, 0.45242763, -0.4007124, 0.11887037, 0.78778607, -2.5069926, 4.5447903, 1.3991699, 0
460, 3057539604, 0.45456326, -0.3924649, 0.11369766, 0.7914637, -2.0626783, 3.8976278, 3.7144032, 0
461, 3057556271, 0.45521474, -0.38578162, 0.111822456, 0.7946358, -0.7504078, 1.2901905, 3.578003, 0
463, 3057589605, 0.4526763, -0.37748197, 0.11111176, 0.8001524, 1.8385843, 1.2509769, 1.5397215, 0
465, 3057622939, 0.44951358, -0.3714564, 0.110954076, 0.8047641, -2.4959576, -4.3971834, -0.939167, 0
467, 3057656273, 0.4466617, -0.3667442, 0.11081744, 0.80852324, 1.4120512, -3.4855325, 0.687623, 0
468, 3057672940, 0.44507474, -0.36542186, 0.11125021, 0.80993646, 3.6896071, -4.4895296, -0.46632576, 0
469, 3057689607, 0.44368255, -0.36365807, 0.11187712, 0.81140655, 2.1670098, -1.5756981, -1.173316, 0
471, 3057722941, 0.4409077, -0.35839418, 0.11371544, 0.8149976, 1.3817406, -1.2017001, -1.3345137, 0
472, 3057739608, 0.4399619, -0.3558021, 0.11519303, 0.8164359, 3.3744042, -3.1666577, -0.63506603, 0
475, 3057789609, 0.43942797, -0.349482, 0.120426856, 0.8186949, 1.6239388, -2.3175423, -1.2060947, 0
476, 3057806276, 0.4394911, -0.3480764, 0.12258633, 0.8189391, 1.2341154, -1.3921282, -0.8847914, 0
477, 3057822943, 0.44007862, -0.3465579, 0.12455328, 0.81897086, 2.1884902, -0.07726262, 0.2744255, 0
480, 3057872944, 0.44320062, -0.3445292, 0.1304977, 0.8172158, 1.6952642, -0.42975083, 0.20367146, 0
481, 3057889611, 0.44464144, -0.34419572, 0.1324556, 0.8162579, 0.94171417, -0.368308, 0.14632893, 0
483, 3057922945, 0.4478695, -0.34425724, 0.13629511, 0.8138315, 1.0861683, 1.8333421, -0.8129549, 0
484, 3057939612, 0.4496802, -0.34443474, 0.1380692, 0.8124577, 1.5216298, 0.98775715, -0.8663788, 0
485, 3057956279, 0.45195138, -0.34470606, 0.13948938, 0.8108382, 1.8823286, -0.2438495, 0.18745041, 0
487, 3057989613, 0.45750096, -0.34608796, 0.14115967, 0.8068384, -1.1124021, 1.7226082, -0.17881298, 0
488, 3058006280, 0.4598875, -0.3478842, 0.14224596, 0.8045152, -0.54766184, 0.91348696, 0.0026855469, 0
491, 3058056281, 0.46928108, -0.35550615, 0.14360236, 0.79546666, 0.5091207, 0.00498758, 0.07581997, 0
492, 3058072948, 0.472349, -0.35760808, 0.14315285, 0.7927853, -0.21283217, 1.0034704, -0.4751215, 0
495, 3058122949, 0.480187, -0.3670972, 0.14353375, 0.78361773, -0.4244317, 1.1325951, -1.0005655, 0
496, 3058139616, 0.48213348, -0.3711782, 0.14432636, 0.78034747, 0.5114778, 0.24531072, 0.81663036, 0
498, 3058172950, 0.48500594, -0.3793218, 0.14578019, 0.77435833, -0.08675823, 1.4528277, -0.24389744, 0
499, 3058189617, 0.48656952, -0.38238034, 0.1458942, 0.77184767, -1.1903688, 2.5063257, -0.6575222, 0
500, 3058206284, 0.48814577, -0.38490918, 0.14573158, 0.769623, -1.4681777, 1.5462983, -0.45720863, 0
502, 3058239618, 0.49121568, -0.38781527, 0.14415202, 0.76650167, 0.25419196, 1.3581831, 0.49569225, 0
503, 3058256285, 0.49221483, -0.3891826, 0.14338912, 0.76531, -0.44185668, 0.81682, -0.104641914, 0
504, 3058272952, 0.49277577, -0.39039108, 0.14276803, 0.7644492, -0.48507106, 0.8707714, 1.2146149, 0
507, 3058322953, 0.4933591, -0.39188132, 0.14060633, 0.7637107, -1.5370411, 1.2205801, -0.45841408, 0
510, 3058372954, 0.49259698, -0.39258182, 0.13844788, 0.76423705, -0.8866808, 0.723663, -1.2664814, 0
511, 3058389621, 0.49179024, -0.39393115, 0.13709697, 0.7643059, -1.0676802, 0.5628583, -0.17923355, 0
513, 3058422955, 0.49097964, -0.39365017, 0.1326982, 0.7657468, -1.5124369, 1.2276024, -0.60442257, 0
514, 3058439622, 0.49051002, -0.39318755, 0.13095029, 0.76658595, -1.0527624, 0.6187564, -0.732564, 0
515, 3058456289, 0.4903013, -0.3920107, 0.12894359, 0.7676615, -0.39784506, 0.48365745, 0.11315727, 0
517, 3058489623, 0.48963338, -0.3888422, 0.12526229, 0.77030414, -0.6592402, 0.5798694, -2.1467843, 0
518, 3058506290, 0.48876238, -0.388207, 0.123970635, 0.7713859, -0.38895953, 0.02131632, -0.52180386, 0
519, 3058522957, 0.4878748, -0.386544, 0.12320082, 0.7729048, -0.019932382, -0.72348595, 1.3718777, 0
521, 3058556291, 0.48589686, -0.38535842, 0.122302845, 0.7748828, -1.4063146, -0.106048964, 0.56861687, 0
525, 3058622959, 0.4814802, -0.3822326, 0.12125037, 0.7793406, 0.055631313, 0.12285323, 0.97823906, 0
526, 3058639626, 0.47999397, -0.381891, 0.121368475, 0.7804058, -0.70502174, 0.87151384, -0.3525076, 0
527, 3058656293, 0.47864336, -0.3818702, 0.121472105, 0.78122884, -0.924689, 0.3845802, 0.35737896, 0
529, 3058689627, 0.47629574, -0.3828596, 0.120900854, 0.7822674, -1.6619675, 1.0994421, -0.87237835, 0
530, 3058706294, 0.47478297, -0.3835067, 0.12090455, 0.7828692, -0.57192755, 0.37173042, -1.1918907, 0
531, 3058722961, 0.4732219, -0.38370645, 0.121507436, 0.78362286, 1.4656943, -0.2244421, 0.46290016, 0
533, 3058756295, 0.47130096, -0.38099146, 0.1215103, 0.78610075, -1.5272733, 4.5567613, 1.9415216, 0
534, 3058772962, 0.46927172, -0.38091955, 0.12215007, 0.78724974, -2.7474728, 3.0403328, -1.7891779, 0
535, 3058789629, 0.467574, -0.38067737, 0.12188068, 0.78841794, -3.154664, 0.48766917, -1.0800934, 0
537, 3058822963, 0.4653806, -0.38230285, 0.12091856, 0.7890769, -1.0948774, -0.8442728, 1.1787844, 0
540, 3058872964, 0.45715803, -0.40301636, 0.12538183, 0.7828551, -2.5682523, 4.566556, -1.2462025, 0
541, 3058889631, 0.45216367, -0.4152299, 0.13123126, 0.7784015, -1.6635785, 2.5618062, -2.3830428, 0
542, 3058906298, 0.4481496, -0.422309, 0.13574585, 0.7761368, -1.0038573, 0.85018903, -0.7018633, 0
544, 3058939632, 0.44299904, -0.42704082, 0.13917062, 0.77589804, 1.0077455, -1.9641008, 0.44247246, 0
545, 3058956299, 0.44104618, -0.4258259, 0.13941616, 0.77763224, 0.17162398, -2.0867867, 0.48692608, 0
546, 3058972966, 0.44041824, -0.4229314, 0.13821523, 0.77977914, 0.5519781, -1.7263281, -2.4285903, 0
548, 3059006300, 0.44175288, -0.41030383, 0.13183506, 0.78684384, 0.44752705, -0.9301254, -4.074496, 0
549, 3059022967, 0.44315648, -0.3994722, 0.12765579, 0.7922983, 1.6664116, -2.5109503, -0.046754837, 0
550, 3059039634, 0.44549856, -0.3844731, 0.12272325, 0.79915506, -0.74561626, 3.4394197, 0.41841316, 0
554, 3059106302, 0.44898555, -0.3668839, 0.11670251, 0.80634165, 2.2898366, -2.3755379, 5.67898, 0
556, 3059139636, 0.4501361, -0.3670242, 0.116544284, 0.8056591, -0.8130831, -0.3005761, -3.2814817, 0
557, 3059156303, 0.45055336, -0.36656716, 0.11653058, 0.8056358, -0.5165439, 0.21643704, -3.9774761, 0
558, 3059172970, 0.4516537, -0.3648151, 0.11598737, 0.8058934, 1.5074136, 0.42390248, 0.4733839, 0
560, 3059206304, 0.4541243, -0.36223987, 0.11531009, 0.8057637, 1.484853, -3.4684217, 1.456872, 0
561, 3059222971, 0.45470133, -0.36082542, 0.115630776, 0.80602694, 1.3206837, -1.3298261, 0.641098, 0
562, 3059239638, 0.4550239, -0.35970664, 0.11631928, 0.806246, 1.975296, -0.6336209, -0.9574652, 0
564, 3059272972, 0.45617774, -0.35706824, 0.11770067, 0.8065663, 0.44336236, -0.104114234, -0.9285221, 0
565, 3059289639, 0.45691314, -0.3552915, 0.118154064, 0.8068682, 1.0600107, -0.014000181, -0.37434196, 0
566, 3059306306, 0.4576951, -0.35384253, 0.11850034, 0.80701095, 1.0753182, -1.123066, -0.44228363, 0
571, 3059389641, 0.46359274, -0.3495173, 0.11935239, 0.80540204, 1.5599529, 0.429073, 0.5365734, 0
572, 3059406308, 0.46507913, -0.34970716, 0.11901117, 0.80451286, 1.041535, -0.9210939, 0.4029293, 0
573, 3059422975, 0.4664485, -0.34986028, 0.11876039, 0.80369025, -0.3520362, -0.49356085, -0.2540512, 0
575, 3059456309, 0.46884012, -0.35095003, 0.118839815, 0.80180943, 1.4512477, -0.84061533, -0.67217064, 0
576, 3059472976, 0.4702696, -0.35128224, 0.11867185, 0.8008513, 0.4749812, 0.2296409, 0.08232403, 0
577, 3059489643, 0.4714194, -0.35111392, 0.11871065, 0.800243, 0.288911, -0.10473593, 1.3568687, 0
579, 3059522977, 0.47338212, -0.35035467, 0.11872112, 0.7994152, -0.023771329, -1.2546927, -0.077631, 0
580, 3059539644, 0.47428653, -0.3499073, 0.11879062, 0.79906476, -0.020443305, -1.1481891, -0.9213753, 0
581, 3059556311, 0.47495443, -0.34944466, 0.11910825, 0.798823, 0.81231606, -0.31244385, -0.78201103, 0
584, 3059606312, 0.47812483, -0.34961006, 0.11879048, 0.7969044, -0.0772239, 0.6414188, -0.18624878, 0
587, 3059656313, 0.48277643, -0.35201156, 0.11679495, 0.79332983, 1.5798557, -0.09225419, 0.56239414, 0
588, 3059672980, 0.484415, -0.3532049, 0.11630765, 0.79187065, 1.0689843, -0.34012815, 0.44863796, 0
589, 3059689647, 0.48548445, -0.35454032, 0.11620004, 0.7906339, 0.38092145, 0.22336924, -0.5909748, 0
591, 3059722981, 0.48682803, -0.35767266, 0.11669599, 0.7883204, -0.53471684, 0.7023908, -0.42659187, 0
592, 3059739648, 0.4876587, -0.35863048, 0.11656815, 0.7873903, -0.96082306, 1.4656161, 0.48706532, 0
594, 3059772982, 0.4882596, -0.36051387, 0.11692618, 0.7861035, 0.18606353, 0.737582, 0.19730377, 0
595, 3059789649, 0.488254, -0.36160165, 0.117416054, 0.7855343, 0.5648095, 0.43697074, -0.4195404, 0
596, 3059806316, 0.48807347, -0.36273596, 0.118325464, 0.78498685, -0.0710541, 0.90277463, -0.3341236, 0
599, 3059856317, 0.48767397, -0.36462033, 0.119862795, 0.78412855, -1.0652654, 1.9995393, -0.07281685, 0
600, 3059872984, 0.48755106, -0.36564553, 0.12019978, 0.7836757, -0.291457, -0.16751894, -0.04273796, 0
603, 3059922985, 0.48648772, -0.3692388, 0.12098261, 0.78253055, -0.60543096, 0.91905415, -0.22540092, 0
604, 3059939652, 0.4862551, -0.37057698, 0.12094358, 0.78204846, -1.402685, 0.8772318, -0.2240696, 0
606, 3059972986, 0.48551023, -0.37353683, 0.12086645, 0.7811143, -0.63941044, 1.1746831, -0.640008, 0
607, 3059989653, 0.4849644, -0.37545717, 0.121051066, 0.7805039, 0.6644655, -0.08118571, 0.31842518, 0
608, 3060006320, 0.48440695, -0.37725276, 0.12141721, 0.77992713, 0.5367259, 0.87055635, 0.27787018, 0
610, 3060039654, 0.4824495, -0.38117895, 0.123373106, 0.77892387, -0.37936568, 0.9490581, -0.108530045, 0
611, 3060056321, 0.48150063, -0.38260064, 0.1242676, 0.77867174, -0.8249261, 1.6711969, 0.077949524, 0
614, 3060106322, 0.47903842, -0.3876579, 0.126507, 0.77732736, -0.6005555, 0.901742, -0.7408924, 0
615, 3060122989, 0.4782327, -0.3896442, 0.12681992, 0.7767793, -0.1660014, 0.5262085, -0.067902565, 0
616, 3060139656, 0.47738534, -0.39140674, 0.12727505, 0.7763399, -0.32699117, 1.1987306, -0.28217697, 0
618, 3060172990, 0.4759673, -0.39451233, 0.12757044, 0.77558964, -1.0978813, 1.3629552, -0.19537449, 0
619, 3060189657, 0.47516343, -0.39595118, 0.12741587, 0.7753746, -1.34592, 0.37664795, -0.19092464, 0
621, 3060222991, 0.4751656, -0.3964801, 0.12398147, 0.77565986, -0.7263938, 0.65232545, -0.012016296, 0
622, 3060239658, 0.47536233, -0.39682212, 0.121474266, 0.77576095, -0.39404523, 1.0234003, -0.2654972, 0
623, 3060256325, 0.47488344, -0.39855212, 0.11984195, 0.7754213, -0.4053775, 1.3415824, -1.0065575, 0
625, 3060289659, 0.47146836, -0.40843305, 0.120273665, 0.7722906, -0.0011503095, 0.46468723, 1.0017653, 0
626, 3060306326, 0.4700591, -0.41341826, 0.12008173, 0.77052486, -1.4304953, 0.42602095, 2.0027437, 0
629, 3060356327, 0.46424094, -0.43160444, 0.1212936, 0.7638614, 0.14408405, -0.049936816, 1.3051348, 0
630, 3060372994, 0.4641794, -0.4313847, 0.11924018, 0.7643459, 0.94123006, 3.0237947, -2.088502, 0
633, 3060422995, 0.46022668, -0.4264065, 0.11699385, 0.7698569, -1.7010543, 1.503231, -0.5705223, 0
634, 3060439662, 0.45812434, -0.42709088, 0.117771246, 0.7706126, -2.3958802, 1.6848906, 1.1008015, 0
635, 3060456329, 0.45628068, -0.42650792, 0.1179592, 0.7719993, -3.752162, 3.1844363, -2.0491915, 0
637, 3060489663, 0.45213634, -0.41885787, 0.115273945, 0.77900016, -0.6715561, 1.5879983, 0.91758156, 0
638, 3060506330, 0.45021486, -0.41155013, 0.11301161, 0.78432107, -0.96913874, 2.885726, -0.28094864, 0
639, 3060522997, 0.44812176, -0.4067062, 0.11190265, 0.788196, -2.4151683, 1.2261499, 2.449215, 0
641, 3060556331, 0.44220197, -0.4048515, 0.11281507, 0.7923533, -2.8693924, 3.781693, -3.0175905, 0
643, 3060589665, 0.4364922, -0.40305308, 0.11353873, 0.79632276, -0.7762111, 2.125933, -1.1340218, 0
645, 3060622999, 0.43378574, -0.39551944, 0.11208408, 0.80176663, 1.3186954, -0.27148464, 2.1344042, 0
646, 3060639666, 0.43283927, -0.3951707, 0.11215369, 0.80244, 1.1287844, -3.352118, -1.4046259, 0
649, 3060689667, 0.43746418, -0.38253933, 0.10501203, 0.80700654, 3.729969, -2.7744853, -2.571745, 0
650, 3060706334, 0.43980676, -0.37839586, 0.10148778, 0.8081368, 2.0977793, -1.3220701, -0.87894535, 0
652, 3060739668, 0.44333956, -0.37677795, 0.09540889, 0.8077028, -0.68566054, -1.4175975, 2.6084938, 0
653, 3060756335, 0.4444636, -0.37732047, 0.093207076, 0.80708873, -0.70795774, -0.6252406, 1.5012455, 0
654, 3060773002, 0.4460318, -0.3785905, 0.09087439, 0.80589396, -0.26051685, 0.8629033, 0.0016307831, 0
656, 3060806336, 0.44904622, -0.38036683, 0.08654231, 0.80385774, 0.5756023, -1.1626996, 0.9373245, 0
658, 3060839670, 0.45102322, -0.38133782, 0.08224608, 0.8027411, -0.08032849, -2.0423355, 1.6987972, 0
660, 3060873004, 0.45307982, -0.3833355, 0.0785588, 0.80099905, 0.99745214, -2.7570589, -2.0838156, 0
661, 3060889671, 0.45368087, -0.38350657, 0.07693405, 0.8007345, 1.3132702, 0.40157074, 0.103648186, 0
662, 3060906338, 0.454263, -0.38415253, 0.0753612, 0.8002444, 2.1494882, -0.80288035, -1.2388897, 0
665, 3060956339, 0.45359915, -0.38441214, 0.072087616, 0.8007976, -0.04120122, -2.851707, -0.30887604, 0
666, 3060973006, 0.4526706, -0.38403475, 0.07161002, 0.80154663, -0.3551176, -0.38338864, 0.75661755, 0
668, 3061006340, 0.45070672, -0.38350812, 0.07100693, 0.80295795, -0.6906246, -1.8587481, -0.37322998, 0
669, 3061023007, 0.44920778, -0.38299128, 0.07091383, 0.80405194, 0.37315992, -1.473252, -0.018419266, 0
670, 3061039674, 0.4477823, -0.3824948, 0.07065415, 0.8051056, 0.041427568, 0.0151262395, -0.38391113, 0
673, 3061089675, 0.44351178, -0.37949264, 0.07114439, 0.80883837, -0.35573334, -0.13793498, 0.14942932, 0
675, 3061123009, 0.44007808, -0.37473148, 0.07437154, 0.8126344, 0.14990512, -0.17187856, -0.56847954, 0
676, 3061139676, 0.43851638, -0.37244353, 0.07618906, 0.8143604, 0.6137824, -0.9032251, -0.35069752, 0
677, 3061156343, 0.43700808, -0.37009063, 0.0778313, 0.81608677, -0.06601623, -0.3036951, -0.2437973, 0
679, 3061189677, 0.4338673, -0.36565363, 0.08144821, 0.81940293, 1.1023663, 0.053698093, -1.1681967, 0
681, 3061223011, 0.43155345, -0.36265936, 0.08506277, 0.8215853, 0.1838087, -0.069500014, -0.3523569, 0
683, 3061256345, 0.4291447, -0.3594181, 0.08933317, 0.8238152, 0.98684657, 1.042999, 0.23734093, 0
684, 3061273012, 0.42833266, -0.35813758, 0.091363996, 0.82457227, 0.674915, -0.24580391, -0.747777, 0
685, 3061289679, 0.42767358, -0.35701165, 0.09343017, 0.82517093, 0.1977968, -0.13331799, 0.10666561, 0
688, 3061339680, 0.42778993, -0.35562998, 0.09741764, 0.8252461, 0.19353378, 1.3148745, -0.13675117, 0
689, 3061356347, 0.42831564, -0.35592368, 0.09802783, 0.82477427, -0.0089281695, 0.31234124, -0.35615253, 0
691, 3061389681, 0.42989367, -0.35744786, 0.0988393, 0.82319605, 0.12576294, 1.0850612, 0.4030962, 0
692, 3061406348, 0.43070793, -0.35829252, 0.099118814, 0.822369, 0.6289653, 1.2107751, -0.16474342, 0
693, 3061423015, 0.43145028, -0.35920298, 0.09935633, 0.8215536, 0.74017376, 0.9527075, -0.40146828, 0
695, 3061456349, 0.43307623, -0.36166754, 0.099533945, 0.8195932, -0.5607716, 0.48765633, -0.22114658, 0
696, 3061473016, 0.43374962, -0.3640214, 0.09902725, 0.81825525, -1.055972, 0.0878568, -0.13602066, 0
697, 3061489683, 0.43419862, -0.3666375, 0.098219134, 0.81694555, -0.5483702, 0.44614482, 0.40621948, 0
699, 3061523017, 0.4348772, -0.37092423, 0.09726522, 0.8147607, 0.030361274, 0.63277334, -0.5822773, 0
700, 3061539684, 0.43490604, -0.37190145, 0.09793025, 0.8142199, -0.52003074, 1.2939324, -0.4262371, 0
703, 3061589685, 0.4331706, -0.3751408, 0.10052759, 0.813342, -1.3394867, 1.6434188, 0.14383698, 0
704, 3061606352, 0.43264085, -0.37619776, 0.10112603, 0.81306154, -1.1870288, 0.65088826, -0.37201023, 0
706, 3061639686, 0.4317339, -0.37879995, 0.10054449, 0.8124073, -0.6925488, 1.0379894, -0.436059, 0
707, 3061656353, 0.4312348, -0.3804639, 0.09992874, 0.81197053, -0.3934703, 0.45578092, 0.35457897, 0
708, 3061673020, 0.43064693, -0.38208178, 0.09947316, 0.8115788, -1.2514287, 0.5426509, -0.48922443, 0
711, 3061723021, 0.42824826, -0.38440526, 0.099600896, 0.8117352, -0.1598498, 1.3825086, -0.3353443, 0
712, 3061739688, 0.4272401, -0.3848729, 0.099923864, 0.81200516, -0.1872542, 0.63034654, 0.3435831, 0
714, 3061773022, 0.4247393, -0.38523972, 0.10152435, 0.81294405, -0.35438794, 0.32687798, -0.43448925, 0
715, 3061789689, 0.42316538, -0.38598427, 0.10278652, 0.8132531, -0.6511347, 0.32723784, -1.0688887, 0
718, 3061839690, 0.4203226, -0.38581273, 0.10684658, 0.8142846, -0.27813563, 1.6844975, -0.27291965, 0
719, 3061856357, 0.42006913, -0.3849776, 0.10770677, 0.8146973, -0.84800166, 2.2070875, -0.19352245, 0
720, 3061873024, 0.419838, -0.38385162, 0.10846555, 0.81524706, -0.3071858, 1.3466041, -0.07643604, 0
722, 3061906358, 0.41985852, -0.3816093, 0.1099278, 0.81609267, 0.6550591, 0.2871719, 0.35546207, 0
723, 3061923025, 0.41988567, -0.3800595, 0.110570066, 0.81671506, 0.88842946, 0.32552618, 0.40879917, 0
724, 3061939692, 0.41980872, -0.37890553, 0.11126396, 0.81719655, 0.30939138, 0.8759759, -0.51278305, 0
727, 3061989693, 0.42098352, -0.37780163, 0.11314228, 0.8168452, -0.9845473, 0.39054587, -1.1525631, 0
728, 3062006360, 0.4217143, -0.3776738, 0.11355433, 0.81647, 0.34745792, 0.5612704, 0.83353424, 0
730, 3062039694, 0.42366788, -0.3770917, 0.11450814, 0.81559414, 1.2875485, 0.68907547, -0.63465977, 0
733, 3062089695, 0.42552096, -0.38126615, 0.11659015, 0.8123872, -1.811722, 1.4527832, -1.3055506, 0
734, 3062106362, 0.42646208, -0.38300395, 0.11709828, 0.8110022, -1.0202117, 2.3597672, -1.6047983, 0
735, 3062123029, 0.4273419, -0.383187, 0.117766514, 0.8103554, 1.3292422, 1.4159385, 0.427392, 0
737, 3062156363, 0.42882696, -0.37945282, 0.11846909, 0.8112252, 1.9854944, 0.51263165, 1.3840857, 0
738, 3062173030, 0.42968622, -0.3783543, 0.11862562, 0.81126076, -2.2395484, -0.29504558, -0.13231373, 0
739, 3062189697, 0.43016994, -0.37844995, 0.11884839, 0.81092715, -4.1471477, -0.139651, -0.024597168, 0
741, 3062223031, 0.4319599, -0.37693897, 0.118121035, 0.8107856, 2.067271, 3.4407349, 0.25484657, 0
743, 3062256365, 0.4339817, -0.36871383, 0.116878, 0.81366324, -0.15992315, 2.3980618, -1.9883881, 0
745, 3062289699, 0.4348907, -0.36371678, 0.1153525, 0.81564236, -2.9680772, -0.63951796, 2.446166, 0
747, 3062323033, 0.43553537, -0.36354598, 0.11476423, 0.81545734, -0.70878965, 1.912497, -0.44427776, 0
749, 3062356367, 0.4342801, -0.3628816, 0.11523799, 0.81635547, -0.36205608, 1.7427161, -2.2074084, 0
750, 3062373034, 0.4333861, -0.36250898, 0.11556235, 0.81695014, -1.5038749, -1.5544554, 0.5888519, 0
751, 3062389701, 0.4323334, -0.36194962, 0.11614993, 0.8176723, -1.1319858, -1.6491065, 0.6459074, 0
753, 3062423035, 0.42974535, -0.36075395, 0.116888255, 0.81945777, 0.13905403, -1.6672893, -2.6642513, 0
754, 3062439702, 0.4292682, -0.3581489, 0.116337046, 0.8209276, 1.1769509, -1.7374705, -1.2379093, 0
756, 3062473036, 0.4290512, -0.3529514, 0.114062555, 0.82360697, 1.0455366, -3.445294, 1.5067463, 0
757, 3062489703, 0.4288781, -0.35164803, 0.113147125, 0.8243806, 1.1639602, -1.980236, 2.1139412, 0
760, 3062539704, 0.42960227, -0.3513245, 0.11127834, 0.8243959, 2.0169885, 0.65041107, -1.4149475, 0
762, 3062573038, 0.43250304, -0.35083076, 0.10999668, 0.82326066, 3.6186683, -0.66520786, 3.0458984, 0
764, 3062606372, 0.4362123, -0.3499787, 0.10972254, 0.82170135, 2.9901402, -4.6607237, 1.718688, 0
765, 3062623039, 0.43804377, -0.34957117, 0.11005094, 0.82085603, 2.236782, -2.4564648, -1.0740471, 0
766, 3062639706, 0.43995523, -0.34903744, 0.110617995, 0.81998426, 3.1864874, -0.7033974, -1.4933491, 0
768, 3062673040, 0.4443816, -0.34756574, 0.112286985, 0.8179933, 3.5117385, -1.790577, 0.20770836, 0
769, 3062689707, 0.44656655, -0.34632486, 0.11334057, 0.8171839, 2.3863573, -1.364243, 0.3614483, 0
770, 3062706374, 0.44860676, -0.34523004, 0.1144291, 0.8163777, 1.923858, -1.8490734, -0.477643, 0
772, 3062739708, 0.45298222, -0.34325957, 0.11599634, 0.8145693, 0.64080226, 0.4115695, -0.9542446, 0
773, 3062756375, 0.45558482, -0.3429536, 0.11627206, 0.8132063, 0.3096659, -0.5002135, -0.6176233, 0
774, 3062773042, 0.45812657, -0.34311283, 0.11626968, 0.8117101, -0.17348011, -0.14923334, -0.8212681, 0
777, 3062823043, 0.46542385, -0.3466166, 0.11438744, 0.8063198, -0.15663475, 0.28025943, 0.028491974, 0
778, 3062839710, 0.46753275, -0.34775844, 0.11404028, 0.80465543, -0.38962716, 0.85303426, 0.18819332, 0
780, 3062873044, 0.47066236, -0.3490161, 0.11395324, 0.8022954, 0.23705712, 1.0578434, -0.26564884, 0
781, 3062889711, 0.47218782, -0.34946644, 0.11392586, 0.80120605, -0.06263389, -0.11203162, -0.4403515, 0
783, 3062923045, 0.47464204, -0.34961957, 0.11419931, 0.7996486, 0.36125007, 0.47300047, 0.29084778, 0
784, 3062939712, 0.47600788, -0.3497024, 0.11381068, 0.79885554, 0.34290597, 0.09706475, 0.22001076, 0
785, 3062956379, 0.4774711, -0.35013452, 0.113357924, 0.79785687, 0.10258275, -0.8096517, 0.00390625, 0
787, 3062989713, 0.4802784, -0.35239255, 0.11213944, 0.7953461, 0.28106666, -0.37811306, 0.060394287, 0
789, 3063023047, 0.48196825, -0.3558151, 0.110259175, 0.7930596, -0.05976267, 0.33165053, -0.1656971, 0
792, 3063073048, 0.4823315, -0.35741043, 0.11062394, 0.79207, 0.4333273, -0.37880784, -0.33232307, 0
793, 3063089715, 0.48233813, -0.35742038, 0.11057363, 0.7920683, 0.11955574, 0.43166846, 1.0134554, 0
795, 3063123049, 0.48233023, -0.3579974, 0.11082048, 0.79177815, -1.4514451, -0.7661833, -1.0174093, 0
796, 3063139716, 0.4817835, -0.35793608, 0.11143371, 0.7920527, 0.10180333, 0.38217688, 0.19604492, 0
797, 3063156383, 0.48150516, -0.35798538, 0.11176789, 0.79215246, 1.7896322, 1.9004451, -0.20781708, 0
799, 3063189717, 0.4815862, -0.35896242, 0.112421684, 0.7915683, -1.0151813, 0.5485674, -0.6398783, 0
800, 3063206384, 0.48149553, -0.35975286, 0.11258225, 0.7912417, -0.39420208, 0.3112618, -0.8169098, 0
801, 3063223051, 0.48157212, -0.36098862, 0.11226051, 0.7906777, -0.10155149, 0.29941192, -0.04656315, 0
803, 3063256385, 0.48247257, -0.36430785, 0.110839464, 0.7888047, -0.71146697, 0.6001996, 0.0043115616, 0
805, 3063289719, 0.48255822, -0.36928806, 0.10861789, 0.78674287, 0.35969996, -0.42073306, 0.3179016, 0
807, 3063323053, 0.48210397, -0.37446594, 0.10672562, 0.7848305, -1.0163993, 0.27290866, 0.3166933, 0
808, 3063339720, 0.4814613, -0.3757683, 0.106580466, 0.78462225, -0.3163638, 0.12836003, 0.17560291, 0
809, 3063356387, 0.48078263, -0.37648368, 0.1065201, 0.78470373, -0.0046049817, 0.3968346, 0.2976799, 0
811, 3063389721, 0.47912797, -0.37803882, 0.10681263, 0.7849283, -1.1813716, -0.635313, -0.1169548, 0
812, 3063406388, 0.4780523, -0.3788244, 0.10706113, 0.78517145, -0.7998919, -0.30323914, 0.71350384, 0
814, 3063439722, 0.4760829, -0.38066095, 0.10674814, 0.78552234, -0.87839264, 0.62321436, -0.9267378, 0
815, 3063456389, 0.47522706, -0.38170478, 0.10642672, 0.7855778, -0.69889486, -0.8910999, 0.13947868, 0
816, 3063473056, 0.47443283, -0.382411, 0.10570291, 0.7858121, -0.60790026, -0.09501189, -0.35447216, 0
818, 3063506390, 0.47293833, -0.3852907, 0.10309812, 0.7856522, -0.12024321, 0.020587778, 0.66219234, 0
820, 3063539724, 0.47123575, -0.38928333, 0.100081615, 0.78509694, -0.33996242, -0.5194638, 0.5071144, 0
822, 3063573058, 0.46899655, -0.39280596, 0.09697048, 0.7850737, -0.7061102, -0.63862175, 0.044620514, 0
823, 3063589725, 0.4679172, -0.3940508, 0.095473275, 0.7852773, -1.0203465, 0.042823855, 0.4965849, 0
824, 3063606392, 0.46695927, -0.39485204, 0.094193704, 0.7855995, -1.0404028, 0.017670153, -0.7243452, 0
826, 3063639726, 0.4642756, -0.396281, 0.0929752, 0.78661513, -0.2188768, -0.4934464, 1.357378, 0
827, 3063656393, 0.462729, -0.3952586, 0.09304455, 0.7880315, -0.56635845, 0.8765801, -0.44829082, 0
828, 3063673060, 0.46125665, -0.39507052, 0.09329779, 0.7889584, -0.5162823, 0.18022029, -0.1548872, 0
830, 3063706394, 0.45836347, -0.39287847, 0.093435034, 0.79171824, -0.45903474, -0.43263862, 0.033278465, 0
831, 3063723061, 0.4570243, -0.39207977, 0.09327726, 0.7929059, -0.12501524, 0.2333492, -0.22560883, 0
832, 3063739728, 0.45593724, -0.39117965, 0.09290905, 0.7940189, -0.6094278, 0.1164051, -0.4082346, 0
835, 3063789729, 0.4526842, -0.38877708, 0.09262608, 0.7970873, 0.10525342, -0.04562771, -0.44155312, 0
837, 3063823063, 0.4514739, -0.38710666, 0.09220282, 0.7986343, -0.4484833, 0.3645541, 0.053494453, 0
838, 3063839730, 0.45066658, -0.3868556, 0.09204032, 0.7992306, -0.15311998, -0.49252343, -0.009536743, 0
839, 3063856397, 0.4499309, -0.3868008, 0.09167451, 0.7997132, 0.084918804, -0.40150595, 0.2970276, 0
841, 3063889731, 0.44894084, -0.3881577, 0.09094708, 0.79969543, -0.07983729, -0.6985554, -1.0758209, 0
842, 3063906398, 0.448022, -0.38982067, 0.09068874, 0.79943097, -0.041681536, -0.813361, -1.084363, 0
843, 3063923065, 0.44713733, -0.39168367, 0.0902978, 0.79906005, 0.8325148, -1.059883, -0.3791933, 0
845, 3063956399, 0.4461156, -0.39204964, 0.08993851, 0.799492, -0.64193255, 0.9394764, 1.462369, 0
846, 3063973066, 0.44544595, -0.39052582, 0.089957625, 0.8006082, -0.38379607, 1.5603006, 0.35496902, 0
847, 3063989733, 0.44480503, -0.38930157, 0.089905515, 0.80156606, -0.23461929, 1.5612291, 0.06642914, 0
849, 3064023067, 0.44359428, -0.38691795, 0.09022343, 0.8033534, -0.9718647, -1.0544753, -0.70655537, 0
850, 3064039734, 0.44289786, -0.38577017, 0.09046857, 0.8042616, 0.24319537, -0.038370356, 0.03912449, 0
851, 3064056401, 0.44221696, -0.38468406, 0.09086998, 0.80511075, 0.645151, 0.32198673, -0.10904312, 0
853, 3064089735, 0.44089955, -0.38299248, 0.09233918, 0.8064714, 0.14989935, -0.08824996, 0.36565495, 0
854, 3064106402, 0.4401617, -0.3819507, 0.093147025, 0.8072752, -0.08623197, 0.71151394, 0.4518156, 0
855, 3064123069, 0.43922222, -0.3811303, 0.09394044, 0.8080824, 0.011170368, 0.7215841, -0.06903839, 0
857, 3064156403, 0.43794754, -0.38021445, 0.094841585, 0.8090997, -1.8799804, 0.20201068, -0.6798096, 0
858, 3064173070, 0.4372766, -0.37978792, 0.09569313, 0.8095624, 0.6285, -0.5496462, 0.95311356, 0
859, 3064189737, 0.43698218, -0.37887093, 0.09598968, 0.8101158, 1.1405723, 1.4892087, 0.658103, 0
862, 3064239738, 0.4345423, -0.37734413, 0.09906404, 0.8117691, -2.053967, 1.3477511, -0.4488392, 0
864, 3064273072, 0.4335268, -0.37562677, 0.100752175, 0.81289995, 0.5866838, 0.6939979, 1.2341042, 0
865, 3064289739, 0.43337768, -0.37421975, 0.10169322, 0.81351095, 0.97328806, 0.99769163, -0.03673649, 0
866, 3064306406, 0.4329487, -0.37371925, 0.102824934, 0.8138272, 1.4964863, 1.0380604, 1.5970583, 0
868, 3064339740, 0.4314738, -0.37616757, 0.10502862, 0.81320083, -2.4445076, 1.4417471, -0.52820873, 0
869, 3064356407, 0.43027526, -0.37935555, 0.10643848, 0.81217104, -3.4094977, 1.8531451, -1.6600161, 0
870, 3064373074, 0.43029895, -0.38112295, 0.106770925, 0.811287, -0.21395786, 1.2758394, -1.1955204, 0
872, 3064406408, 0.4327032, -0.38002592, 0.10557785, 0.81067866, 2.168929, 1.945035, 2.4980097, 0
873, 3064423075, 0.43387392, -0.38004446, 0.10491896, 0.8101296, -0.82923645, 2.836433, 0.7180433, 0
874, 3064439742, 0.4339057, -0.3849772, 0.105375744, 0.80772066, -2.8030005, 1.3885008, 0.5039959, 0
877, 3064489743, 0.43247417, -0.4063482, 0.1055815, 0.7979335, 0.023349393, 2.7339447, -0.63614655, 0
878, 3064506410, 0.43371716, -0.4062706, 0.10337426, 0.7975874, 1.8586756, 0.37075973, -0.02145195, 0
880, 3064539744, 0.43580773, -0.40039656, 0.09952937, 0.7999039, 1.3113081, -1.1626204, 0.2390871, 0
881, 3064556411, 0.43723476, -0.39589426, 0.09740856, 0.8016254, 0.24854124, -1.7088104, -1.472887, 0
882, 3064573078, 0.43954706, -0.38749072, 0.09418555, 0.8048458, -0.43805525, 0.9136499, -4.029295, 0
884, 3064606412, 0.442716, -0.37981236, 0.0878941, 0.80747646, -0.8210644, 0.6309193, 1.9506264, 0
885, 3064623079, 0.44365868, -0.37937912, 0.08507363, 0.8074648, -0.70223844, -3.5314837, 3.2614622, 0
886, 3064639746, 0.44481805, -0.37996906, 0.08242779, 0.8068236, -0.73696023, -3.4977994, 3.0408297, 0
888, 3064673080, 0.44698733, -0.38186052, 0.0780441, 0.8051661, 2.5291963, -0.81402457, 0.9054413, 0
889, 3064689747, 0.44777948, -0.3825613, 0.07643419, 0.80454737, 2.765952, -0.50816745, -0.86975574, 0
892, 3064739748, 0.44960836, -0.3854032, 0.07154335, 0.8026185, -0.41525227, -4.384946, -0.08419037, 0
893, 3064756415, 0.44946417, -0.38621944, 0.070648104, 0.8023862, 0.9385926, -4.7162976, -0.6493044, 0
895, 3064789749, 0.4467402, -0.38569918, 0.07046351, 0.80417204, 0.616033, -1.1080987, -0.13558102, 0
896, 3064806416, 0.44458252, -0.38452497, 0.07098133, 0.8058827, -1.1815507, -0.6890995, -0.42900467, 0
897, 3064823083, 0.44241497, -0.3831857, 0.07141725, 0.8076731, -0.6447379, -3.0193963, -0.030088425, 0
899, 3064856417, 0.43853304, -0.38000467, 0.07200145, 0.8112332, 0.45654684, -3.0700836, 0.70507336, 0
900, 3064873084, 0.43739137, -0.37979153, 0.07143741, 0.81199896, 0.6699662, -1.9495996, -0.24537277, 0
901, 3064889751, 0.43701586, -0.37978634, 0.070179045, 0.812313, 0.330054, -0.8089989, -0.7706127, 0
903, 3064923085, 0.43675238, -0.37999368, 0.067990445, 0.812544, 1.534066, -0.19084755, -0.8581629, 0
904, 3064939752, 0.4363548, -0.37926513, 0.0680831, 0.81309, 2.060536, -0.7350966, -0.019368172, 0
907, 3064989753, 0.4338859, -0.3730838, 0.07319597, 0.8168185, 1.0105461, -0.8208614, -1.0615625, 0
908, 3065006420, 0.43290588, -0.3705276, 0.07562309, 0.8182794, 1.2319784, -1.2297281, -0.61654186, 0
909, 3065023087, 0.43196797, -0.36735076, 0.07873455, 0.8199122, 0.9895167, -1.0576136, -0.019371986, 0
911, 3065056421, 0.43034738, -0.36165544, 0.085143276, 0.82265145, 1.3747904, -0.16762477, -0.9519348, 0
912, 3065073088, 0.4295897, -0.3591151, 0.08822014, 0.8238353, 0.759031, -0.06914005, -0.015331268, 0
913, 3065089755, 0.42904913, -0.35726294, 0.09095912, 0.824624, 1.054052, 0.1105808, -0.34536266, 0
915, 3065123089, 0.4285905, -0.35369393, 0.09612155, 0.8258146, 0.6739692, 0.42433488, 0.13298607, 0
916, 3065139756, 0.42852208, -0.35221323, 0.09819195, 0.82623935, 1.0234379, 0.7699427, 0.30935383, 0
918, 3065173090, 0.4294269, -0.34993547, 0.10130122, 0.82636184, 0.08266152, 1.0690256, -0.8566179, 0
919, 3065189757, 0.43034372, -0.34939894, 0.10248514, 0.82596594, 0.09016756, 0.4945974, -0.7082882, 0
920, 3065206424, 0.4312688, -0.34883845, 0.10347439, 0.825597, 0.34638098, 0.6721551, 0.47381973, 0
922, 3065239758, 0.43318513, -0.3489908, 0.10524157, 0.8243048, 0.2332679, 0.11308392, -0.862731, 0
923, 3065256425, 0.4343384, -0.3493839, 0.10608249, 0.8234233, -8.136989E-4, 0.8980104, 0.035227776, 0
924, 3065273092, 0.43533093, -0.34960452, 0.106823325, 0.82270944, 0.56663924, 1.7123793, 0.5799246, 0
926, 3065306426, 0.43721405, -0.35086176, 0.1080399, 0.82101494, -0.082660705, 0.81735456, -0.044115067, 0
927, 3065323093, 0.4381923, -0.35144007, 0.10855528, 0.8201777, -0.9695174, 0.0076915277, -0.8189621, 0
928, 3065339760, 0.43894804, -0.35171908, 0.10921012, 0.81956685, 0.088057816, 0.56145585, 0.28166103, 0
930, 3065373094, 0.4402209, -0.3519055, 0.1105359, 0.8186258, 0.5655745, 0.45145515, 0.19104862, 0
931, 3065389761, 0.4405905, -0.35204282, 0.11188479, 0.81818444, 0.011403743, 0.5759433, 0.075136185, 0
934, 3065439762, 0.44146645, -0.35324076, 0.1170384, 0.8164733, 1.027042, 1.5437945, -0.11516094, 0
935, 3065456429, 0.44253734, -0.35395578, 0.11826675, 0.8154063, 0.4600081, 1.3277662, 0.05991459, 0
936, 3065473096, 0.4436823, -0.35469508, 0.11911122, 0.81433916, 0.25932458, 0.86026603, 0.22037983, 0
938, 3065506430, 0.4472592, -0.35730326, 0.11878686, 0.8112839, 0.10940121, 0.670874, -0.38884258, 0
939, 3065523097, 0.44953182, -0.35928565, 0.11811154, 0.80924827, 0.20520714, 0.56649995, 0.36351013, 0
940, 3065539764, 0.45174888, -0.3616285, 0.11718117, 0.8071026, 0.39373466, 0.6638163, -0.16473103, 0
942, 3065573098, 0.4556921, -0.36799, 0.11554917, 0.8022311, 0.57325417, 0.35014546, -0.43527126, 0
943, 3065589765, 0.45726922, -0.37099925, 0.11492526, 0.8000342, -0.21535031, 0.38223776, -0.8819275, 0
945, 3065623099, 0.45925486, -0.3748161, 0.11383478, 0.79726905, -0.14283517, 1.0388299, -0.26731586, 0
946, 3065639766, 0.46003053, -0.37617457, 0.11303145, 0.7962957, -0.5574849, 0.07212227, 0.016989708, 0
949, 3065689767, 0.46171954, -0.37646118, 0.109989464, 0.7956083, -0.35367763, -0.21313547, -0.26943684, 0
950, 3065706434, 0.46169782, -0.3762941, 0.10937288, 0.7957849, -0.70390064, -0.010049255, 0.21113586, 0
951, 3065723101, 0.46147677, -0.37638095, 0.10903208, 0.7959189, -1.1101432, -0.23892272, -1.2961435, 0
953, 3065756435, 0.46121684, -0.3763689, 0.108086415, 0.79620415, -0.09441693, -0.3325335, 0.18130493, 0
954, 3065773102, 0.46083784, -0.3766187, 0.10766873, 0.79636204, -0.43639696, -0.6526948, -0.26055527, 0
955, 3065789769, 0.46036035, -0.37688428, 0.10732814, 0.7965586, 0.44825518, -1.1614636, 0.81041336, 0
957, 3065823103, 0.4596482, -0.37672976, 0.106543206, 0.79714805, -0.5639717, 0.355375, -0.4268198, 0
958, 3065839770, 0.45903715, -0.37710208, 0.10656706, 0.79732096, -0.42046776, -1.5541552, -0.18905163, 0
959, 3065856437, 0.45831305, -0.37781358, 0.10668107, 0.79738545, -0.020076605, -0.7321415, -0.57510185, 0
961, 3065889771, 0.45744538, -0.3789162, 0.10644112, 0.79739267, -0.110232286, 1.27971, -0.6682291, 0
963, 3065923105, 0.4565481, -0.3784132, 0.106837, 0.7980923, 0.59570146, 0.027191022, 0.4173069, 0
965, 3065956439, 0.45591462, -0.3767433, 0.1073144, 0.7991798, 0.12653753, 0.4629074, -0.3180771, 0
966, 3065973106, 0.45581722, -0.3759793, 0.10747246, 0.7995737, 0.17657238, -0.082667045, 0.39315414, 0
967, 3065989773, 0.45571825, -0.37541574, 0.10776509, 0.79985565, -0.36302856, -0.02800282, -0.1619091, 0
969, 3066023107, 0.45597103, -0.3763463, 0.10770678, 0.7992818, -0.25501147, -0.4726614, -0.28353596, 0
970, 3066039774, 0.4562669, -0.37718412, 0.10753832, 0.7987405, -0.67079926, 0.302523, -0.30262947, 0
971, 3066056441, 0.45678154, -0.37822717, 0.10698164, 0.79802763, -0.40303388, 0.34139335, -0.45009613, 0
973, 3066089775, 0.45766395, -0.37981173, 0.10521979, 0.79700303, 1.252375, 0.40026945, 0.787405, 0
974, 3066106442, 0.45801583, -0.38084513, 0.10413368, 0.79645026, 0.31294385, 0.65479976, -0.9020786, 0
976, 3066139776, 0.45819527, -0.38167813, 0.1026533, 0.79614043, -0.6855929, 0.98037934, -0.2486496, 0
978, 3066173110, 0.45799622, -0.3824204, 0.101008534, 0.796109, -1.0871768, 0.075412266, 0.13315105, 0
980, 3066206444, 0.4570283, -0.3815731, 0.09975055, 0.7972297, 0.14378965, 0.37073514, 0.27038193, 0
981, 3066223111, 0.45629585, -0.3812254, 0.09933416, 0.7978673, -0.46278486, 0.7317385, 0.4034052, 0
982, 3066239778, 0.45539194, -0.38081643, 0.09936259, 0.79857516, -1.2146336, 0.18154125, -0.58309555, 0
984, 3066273112, 0.45319825, -0.3816224, 0.099117845, 0.79946846, -1.9909703, 1.9612075, 1.2299623, 0
985, 3066289779, 0.451942, -0.3818167, 0.09925896, 0.8000689, -1.7471544, 2.69165, -0.4231701, 0
986, 3066306446, 0.45055774, -0.381953, 0.09978232, 0.8007194, -0.42479146, 1.410192, 0.0058317184, 0
988, 3066339780, 0.44719872, -0.38018557, 0.1021345, 0.80314326, 0.79093206, 0.6316245, -1.4496536, 0
989, 3066356447, 0.44545943, -0.3804093, 0.10340371, 0.8038412, -0.43979728, 1.6416156, 0.4894657, 0
990, 3066373114, 0.443368, -0.38172138, 0.1051445, 0.80414957, -2.1320288, 1.5740764, 0.90133, 0
992, 3066406448, 0.44027415, -0.38203436, 0.108112626, 0.8053065, -0.9695187, 3.8622172, -2.667451, 0
993, 3066423115, 0.4396006, -0.38021874, 0.10847264, 0.8064845, 0.22128543, 0.53972465, 0.056928635, 0
994, 3066439782, 0.43943405, -0.376356, 0.10836432, 0.80839926, 0.15249865, 1.3178649, 0.19846535, 0
996, 3066473116, 0.4381327, -0.37472367, 0.11001585, 0.8096399, -1.1372482, 1.3930216, 1.8499823, 0
997, 3066489783, 0.43611234, -0.37971514, 0.11168513, 0.8081752, -3.9157917, 3.3161197, -3.4500299, 0
999, 3066523117, 0.43284115, -0.38901484, 0.11276934, 0.80535537, -1.8475069, 0.9256484, -2.3850288, 0
1000, 3066539784, 0.43320206, -0.38876063, 0.11151822, 0.80545825, 0.8803258, -0.9750272, 0.40297413, 0
1001, 3066556451, 0.43444702, -0.38524544, 0.109460816, 0.806758, 2.199723, 0.19316906, 3.2454786, 0
1004, 3066606452, 0.43369842, -0.3778343, 0.10759823, 0.8109056, 0.13757968, -0.99480176, -3.6551871, 0
1007, 3066656453, 0.43787807, -0.3650186, 0.09859185, 0.81566054, 0.60905755, -2.0855887, 5.723096, 0
1008, 3066673120, 0.4387636, -0.36515698, 0.0959451, 0.81543845, 1.79947, -2.765359, 5.9045925, 0
1009, 3066689787, 0.43970177, -0.36626145, 0.09405249, 0.8146577, 0.98079026, -4.4532385, 3.9000692, 0
1011, 3066723121, 0.4409025, -0.36657277, 0.09321463, 0.81396496, 3.1259863, -0.49152488, -2.6178122, 0
1012, 3066739788, 0.4420071, -0.36588725, 0.09295139, 0.8137042, 3.2631083, -0.20268881, -1.2743616, 0
1013, 3066756455, 0.44336292, -0.36467507, 0.0926916, 0.81354046, 1.3976487, -2.2032416, -0.43128777, 0
1015, 3066789789, 0.44564906, -0.36319503, 0.092537336, 0.8129708, 1.765447, -2.7063634, 2.6207075, 0
1016, 3066806456, 0.44658682, -0.36378118, 0.09245759, 0.8122029, 1.8412157, -2.817332, -0.005657196, 0
1017, 3066823123, 0.4473611, -0.36446974, 0.092187345, 0.81149846, 2.3046393, -2.0884893, -0.9402914, 0
1019, 3066856457, 0.4484171, -0.36526057, 0.09242949, 0.8105318, 1.3021581, -0.868966, 0.45340443, 0
1021, 3066889791, 0.45002127, -0.3643049, 0.092274845, 0.8100904, 0.50279385, -1.8224403, -0.084033966, 0
1023, 3066923125, 0.45154607, -0.36384973, 0.091683306, 0.8095134, -0.52477026, -0.29620865, -0.37885666, 0
1024, 3066939792, 0.45215255, -0.3642227, 0.09136054, 0.8090435, -0.057193864, -1.1089478, -1.4141254, 0
1026, 3066973126, 0.45335886, -0.36512, 0.0901154, 0.8081032, 0.0306536, 0.31121776, -0.024461746, 0
1027, 3066989793, 0.45397797, -0.3657259, 0.08917313, 0.80758584, 0.32680696, -0.043387216, 0.3000641, 0
1028, 3067006460, 0.4545148, -0.36614266, 0.08817675, 0.8072045, 0.17375185, -0.4927427, 0.3460226, 0
1030, 3067039794, 0.45546582, -0.36740333, 0.087015316, 0.806221, -0.45416138, 0.0106388815, 0.53572845, 0
1031, 3067056461, 0.45604917, -0.36804533, 0.08614991, 0.8056913, -0.6543723, 0.7986248, -0.4618435, 0
1032, 3067073128, 0.45662463, -0.36916256, 0.084977925, 0.80497825, 0.44184348, 0.06327987, -0.42195702, 0
1034, 3067106462, 0.45745543, -0.3714577, 0.08274198, 0.80368274, -0.839283, -0.26582754, -0.015859604, 0
1036, 3067139796, 0.45784038, -0.37319097, 0.08071576, 0.8028662, -0.0033044436, -0.116027474, 0.2647152, 0
1038, 3067173130, 0.4575504, -0.37407538, 0.079383336, 0.80275255, -0.14839204, -0.9151739, 0.657073, 0
1039, 3067189797, 0.45716357, -0.37478372, 0.07889003, 0.8026912, -0.78715354, -0.54624766, -0.005121231, 0
1040, 3067206464, 0.45655996, -0.37580425, 0.07831883, 0.8026137, -0.005175666, -1.5152243, 0.28879738, 0
1042, 3067239798, 0.4549051, -0.37825945, 0.07710116, 0.80251783, -1.4324594, -1.2685176, -1.2712994, 0
1043, 3067256465, 0.45369726, -0.37885275, 0.07707998, 0.8029237, -0.317576, -1.2596823, -0.2700243, 0
1044, 3067273132, 0.452371, -0.37792355, 0.07737102, 0.80408114, 0.35089055, 0.4095287, 0.5044651, 0
1046, 3067306466, 0.44907466, -0.37397918, 0.0805422, 0.8074546, 0.6085292, -0.9718557, 0.86707306, 0
1047, 3067323133, 0.447389, -0.3710849, 0.08232049, 0.80954355, -0.6709041, 0.47027528, 0.73176384, 0
1048, 3067339800, 0.44548705, -0.36905536, 0.08454193, 0.8112893, -0.8344431, -0.53310287, -1.0864372, 0
1051, 3067389801, 0.44055712, -0.36279172, 0.09163483, 0.8160228, 2.2082887, 1.2782515, -0.1773653, 0
1052, 3067406468, 0.43951404, -0.3613366, 0.09344389, 0.81702495, 1.1880143, 1.2987748, -0.2106638, 0
1054, 3067439802, 0.43832558, -0.35959816, 0.09631004, 0.8180969, -0.6295057, 0.090688705, -0.16191673, 0
1055, 3067456469, 0.43804163, -0.35937145, 0.09710432, 0.81825465, 0.64548624, -0.5747413, 0.8286276, 0
1057, 3067489803, 0.43842968, -0.3611754, 0.097287595, 0.8172303, 0.13504401, 0.2818077, 0.09159851, 0
1058, 3067506470, 0.43879655, -0.36299223, 0.09678705, 0.81628704, 0.029239295, -0.37114763, -0.63268566, 0
1059, 3067523137, 0.43909827, -0.36464688, 0.09678723, 0.8153867, 0.45930028, 0.07380599, -0.08015919, 0
1061, 3067556471, 0.4393437, -0.3658772, 0.09875761, 0.81446683, 0.34854034, 1.076465, -0.10935688, 0
1062, 3067573138, 0.43956792, -0.36596167, 0.09972146, 0.81419027, -0.16188034, 1.6043507, -0.33617115, 0
1063, 3067589805, 0.43970618, -0.36648205, 0.10072646, 0.8137578, -0.33613974, 0.8467081, -0.5055752, 0
1065, 3067623139, 0.44008946, -0.36728588, 0.10189091, 0.813043, -0.33083865, 0.59207386, -0.5013075, 0
1066, 3067639806, 0.44062167, -0.36822087, 0.10182998, 0.8123392, -0.5673505, 0.50887734, -0.13831711, 0
1067, 3067656473, 0.44113445, -0.3693812, 0.101781145, 0.8115398, -0.33493733, -0.125798, -0.13283634, 0
1069, 3067689807, 0.44238028, -0.37208146, 0.10064246, 0.80976814, 0.2958685, 0.36097935, -0.26581192, 0
1070, 3067706474, 0.44297427, -0.37372783, 0.0995646, 0.8088181, 0.38713753, 0.5205229, 0.15339184, 0
1071, 3067723141, 0.44342527, -0.3756449, 0.09825781, 0.80784196, 0.10938794, 0.100533895, -0.2842312, 0
1073, 3067756475, 0.44363573, -0.37732223, 0.096951224, 0.80710226, 0.05543574, -0.19123355, 0.5773506, 0
1074, 3067773142, 0.44369262, -0.3779201, 0.09708735, 0.8067749, -0.08691547, -0.87534946, -0.37259293, 0
1075, 3067789809, 0.4437755, -0.3780475, 0.097085595, 0.80666965, 0.20607199, -0.72986746, 1.338829, 0
1078, 3067839810, 0.44259626, -0.37821448, 0.098179765, 0.8071068, 0.5548307, -0.4199435, 0.9287472, 0
1080, 3067873144, 0.44171005, -0.37687886, 0.09980304, 0.80801755, 0.4473784, 0.040144604, 0.24121094, 0
1081, 3067889811, 0.44081122, -0.37655663, 0.10113461, 0.8084927, -0.37443763, 0.3459463, -2.1460762, 0
1082, 3067906478, 0.43996307, -0.37662864, 0.10251353, 0.80874735, 0.53812826, -1.4522213, 1.0311203, 0
1084, 3067939812, 0.43903843, -0.37631485, 0.10415988, 0.8091856, -0.20227045, 0.3752682, -0.54217243, 0
1085, 3067956479, 0.43866262, -0.37647754, 0.10485243, 0.80922437, -0.1709788, 1.3207483, -0.14642334, 0
1086, 3067973146, 0.43846318, -0.37689966, 0.105278924, 0.8090806, 0.15607116, 0.44112125, -0.02244091, 0
1088, 3068006480, 0.43810478, -0.3773026, 0.10628534, 0.80895525, 0.9412265, 0.9779903, 0.54474735, 0
1089, 3068023147, 0.4377444, -0.3781153, 0.1071139, 0.8086616, 0.23696148, 1.1277782, -0.356596, 0
1090, 3068039814, 0.43744615, -0.37947935, 0.10789062, 0.8080807, 0.4302548, 0.60580736, 0.82856846, 0
1093, 3068089815, 0.4384493, -0.38451043, 0.10987983, 0.80488425, 0.09525859, 0.2885009, 1.8945551, 0
1094, 3068106482, 0.43916717, -0.38576692, 0.1101534, 0.8038536, -0.61894447, 2.010921, -1.6672173, 0
1096, 3068139816, 0.4407773, -0.39032465, 0.110428914, 0.80072826, -0.6090602, 1.3925042, -0.17886353, 0
1097, 3068156483, 0.4413779, -0.39300725, 0.110667065, 0.7990507, -0.1900141, 0.8559534, -0.21740437, 0
1098, 3068173150, 0.4418917, -0.39583167, 0.11045902, 0.79739964, -0.18975009, 1.9000229, -0.43577385, 0
1100, 3068206484, 0.4419969, -0.40225583, 0.110425286, 0.79412436, -1.0157638, 1.3565875, 0.4378929, 0
1101, 3068223151, 0.44175744, -0.40488815, 0.11081774, 0.7928642, -0.8533714, 2.1997452, 0.59512997, 0
1102, 3068239818, 0.44124728, -0.40783495, 0.11151139, 0.7915397, -0.8044013, 1.7970312, 0.38599014, 0
1104, 3068273152, 0.43899968, -0.41356158, 0.11416379, 0.7894373, -1.7883075, 1.4980786, -1.2046671, 0
1105, 3068289819, 0.4382544, -0.41486207, 0.115141116, 0.7890269, -1.4883655, 1.421756, 0.33619022, 0
1108, 3068339820, 0.4394094, -0.40606526, 0.11076166, 0.7935745, -1.4000083, 0.7038432, 2.2831411, 0
1109, 3068356487, 0.4393471, -0.4019271, 0.108976126, 0.7959593, -1.7583591, 0.9857317, 0.3667755, 0
1111, 3068389821, 0.43733147, -0.40510994, 0.10981504, 0.7953402, -2.5936098, 2.4077156, -1.3997822, 0
1112, 3068406488, 0.4363045, -0.40708402, 0.10982785, 0.79489446, -1.1208854, -0.37939805, 0.34462166, 0
1113, 3068423155, 0.4364905, -0.40572578, 0.10737992, 0.79582053, -2.7429204, 3.3244426, -4.490337, 0
1115, 3068456489, 0.43811128, -0.39431772, 0.0995625, 0.8016595, 0.949225, 0.27578112, 1.3498755, 0
1116, 3068473156, 0.43837458, -0.38587424, 0.096710585, 0.80596167, 2.4182363, -1.1246483, 0.011691093, 0
1117, 3068489823, 0.43885657, -0.37592393, 0.094945855, 0.81059843, 2.7545772, -1.6980118, -0.38854313, 0
1119, 3068523157, 0.4405538, -0.36834618, 0.09195983, 0.8134956, -0.7806419, -3.6256528, -0.0031337738, 0
1120, 3068539824, 0.4409387, -0.36671108, 0.090548806, 0.81418383, -0.36767772, -4.4847875, -0.072304726, 0
1123, 3068589825, 0.44363996, -0.36651993, 0.08835581, 0.8130427, 3.4065666, -2.9769535, 2.0943289, 0
1124, 3068606492, 0.44384354, -0.36614624, 0.08883669, 0.8130475, 3.1997836, -1.5650059, 0.69537926, 0
1125, 3068623159, 0.44434175, -0.3655554, 0.08939092, 0.81298035, 3.3220475, -1.8659445, -0.75242805, 0
1127, 3068656493, 0.44634166, -0.3637982, 0.090659216, 0.81253254, 0.026116833, -2.9932947, -0.9448919, 0
1128, 3068673160, 0.4471972, -0.36244836, 0.09142623, 0.81257945, 2.039125, -2.6567595, -0.1041708, 0
1129, 3068689827, 0.4483738, -0.3618678, 0.091935396, 0.81213224, 2.83667, -2.2028842, 0.43054867, 0
1131, 3068723161, 0.4507942, -0.36197555, 0.0923438, 0.8106967, 1.3532311, -1.3696073, -0.2553835, 0
1132, 3068739828, 0.45178097, -0.3625667, 0.09220872, 0.8098983, 1.0087639, -1.6911547, -1.4088507, 0
1133, 3068756495, 0.45284387, -0.3629, 0.09200725, 0.8091781, 1.3673192, -0.5417335, 0.6852379, 0
1135, 3068789829, 0.45528445, -0.36394432, 0.09145739, 0.80739975, 0.4575788, -2.8474715, -1.1301403, 0
1136, 3068806496, 0.45610747, -0.3638051, 0.09146197, 0.8069974, -0.22381441, -0.5405109, 0.34300804, 0
1138, 3068839830, 0.4583361, -0.3646709, 0.090422295, 0.80545956, 0.3510371, -0.111410476, 0.08192539, 0
1139, 3068856497, 0.45935467, -0.36509585, 0.08953252, 0.80478597, -0.95271635, -0.8411944, -0.70440483, 0
1140, 3068873164, 0.45992664, -0.36590484, 0.088860296, 0.8041664, -0.06269047, -1.7710378, 0.05870056, 0
1142, 3068906498, 0.46149433, -0.36759308, 0.08661181, 0.8027422, 0.52579325, -0.70870596, -0.07860851, 0
1143, 3068923165, 0.46207258, -0.36859694, 0.08555153, 0.80206275, -0.6596706, -0.89914936, -0.02815342, 0
1144, 3068939832, 0.4623358, -0.3692955, 0.0848157, 0.8016676, -0.48280418, -0.32644773, 0.60803604, 0
1146, 3068973166, 0.46302286, -0.37103203, 0.083087154, 0.8006495, 0.13493806, -0.47718328, -0.12909889, 0
1147, 3068989833, 0.4633425, -0.3718095, 0.082109444, 0.80020463, -0.88610893, -0.05398654, -1.1851673, 0
1150, 3069039834, 0.46341357, -0.3757293, 0.079717875, 0.7985729, 0.30441868, 0.5564154, 0.25157738, 0
1151, 3069056501, 0.46305147, -0.37676063, 0.07910334, 0.79835826, -0.034408703, 0.024663538, 0.14355469, 0
1152, 3069073168, 0.4623341, -0.376965, 0.07923613, 0.7986642, -1.0981547, 0.80106884, -0.11100006, 0
1154, 3069106502, 0.46072724, -0.37748912, 0.07973126, 0.79929566, -0.5858537, 0.22896756, 0.41548634, 0
1155, 3069123169, 0.46003357, -0.3780234, 0.07978819, 0.79943705, -0.39871517, 0.28985876, -0.28303528, 0
1156, 3069139836, 0.45930195, -0.378783, 0.079847775, 0.79949224, -0.36689657, 0.3965718, 0.057855606, 0
1158, 3069173170, 0.4576823, -0.37964344, 0.07998569, 0.79999894, -0.49507114, 0.5487775, -0.5938797, 0
1159, 3069189837, 0.45666936, -0.37920916, 0.081116885, 0.80066967, -0.25476876, 1.1527549, -0.40307236, 0
1161, 3069223171, 0.45455644, -0.37690976, 0.083917916, 0.8026665, 0.44934672, 0.50355715, 0.19117737, 0
1162, 3069239838, 0.4535425, -0.3761162, 0.0849006, 0.8035086, -0.21725875, 0.5115103, 0.1167717, 0
1165, 3069289839, 0.4510041, -0.37469432, 0.088021696, 0.8052638, -0.26648307, 1.8845888, -0.12064266, 0
1166, 3069306506, 0.45025897, -0.37418148, 0.08907602, 0.8058032, 0.24453801, 1.4348991, -0.8460636, 0
1167, 3069323173, 0.44951406, -0.37401706, 0.09020455, 0.80616987, 0.7102093, 0.82082444, -0.6567879, 0
1169, 3069356507, 0.44934976, -0.3727912, 0.09075682, 0.80676705, -0.4214255, 0.24977651, 0.11373043, 0
1170, 3069373174, 0.44971555, -0.37273386, 0.09021333, 0.80665064, -0.8464335, 0.47241485, 0.38968086, 0
1171, 3069389841, 0.44991174, -0.37418196, 0.089718156, 0.80592567, -1.1757421, -0.69126165, -1.125102, 0
1173, 3069423175, 0.45123294, -0.3778272, 0.08698754, 0.803783, 0.3871066, 1.0691748, -0.6370201, 0
1174, 3069439842, 0.45201042, -0.38045937, 0.08494539, 0.8023214, 1.1444553, -0.68045354, 0.21666622, 0
1175, 3069456509, 0.45247188, -0.38278335, 0.08315558, 0.80114245, -0.109369025, -0.48133716, 0.09589863, 0
1177, 3069489843, 0.45288676, -0.38510656, 0.08143967, 0.7999702, 0.26395777, -0.41194388, 0.4406786, 0
1179, 3069523177, 0.45290938, -0.3885154, 0.07976753, 0.79847616, -0.94126064, -0.40286624, -1.0090828, 0
1181, 3069556511, 0.4523573, -0.39268643, 0.07801362, 0.79692066, -0.9508212, 0.08305227, -0.94397736, 0
1182, 3069573178, 0.4520719, -0.3944578, 0.076653615, 0.7963394, -1.0122308, 0.448004, 0.6887264, 0
1183, 3069589845, 0.45137256, -0.39512843, 0.07557833, 0.79650646, -1.1003994, 0.36100304, 0.21296215, 0
1185, 3069623179, 0.4494387, -0.39644656, 0.07392134, 0.7971004, -0.55573666, -0.12737086, -0.2803831, 0
1186, 3069639846, 0.44813323, -0.39671677, 0.07360892, 0.7977296, -0.5634981, -1.2791806, 0.038672447, 0
1188, 3069673180, 0.44508797, -0.3960391, 0.073088974, 0.7998163, -1.0190437, -0.77097857, -0.61056614, 0
1189, 3069689847, 0.4435001, -0.3961568, 0.072618455, 0.8006825, -1.0486441, -0.5975813, 0.31605625, 0
1190, 3069706514, 0.4419415, -0.39567205, 0.072483025, 0.8017955, -0.8366169, -0.09741589, 0.49564075, 0
1192, 3069739848, 0.43843567, -0.39393917, 0.073682964, 0.8044596, 0.3723611, -0.67038465, 0.8556671, 0
1194, 3069773182, 0.43443656, -0.39149398, 0.07601336, 0.8075999, -0.03323171, -0.8249368, -1.0778971, 0
1196, 3069806516, 0.43159103, -0.3889658, 0.07804452, 0.8101495, -0.42035997, 0.7399925, -0.9340935, 0
1197, 3069823183, 0.42994764, -0.3885963, 0.0792312, 0.811085, -0.0030715151, 0.076378286, -0.8212013, 0
1198, 3069839850, 0.4285885, -0.3874632, 0.08052811, 0.8122179, -0.2894546, 1.5863345, -0.20611382, 0
1200, 3069873184, 0.42691433, -0.3841394, 0.08264046, 0.8144629, 1.0550547, 0.23415373, 1.0518646, 0
1201, 3069889851, 0.42625594, -0.38256338, 0.08345103, 0.81546634, -0.08761859, 0.07148503, -0.4078474, 0
1202, 3069906518, 0.42571867, -0.38149685, 0.084229656, 0.81616646, -0.17033964, -0.2511271, -0.42492867, 0
1204, 3069939852, 0.42569715, -0.37920335, 0.085390255, 0.81712526, -0.2509337, 1.3553325, -0.6303606, 0
1205, 3069956519, 0.42565104, -0.37830603, 0.08631246, 0.81746817, 1.1946399, 0.21897967, 0.31421375, 0
1206, 3069973186, 0.4254986, -0.37733838, 0.087417625, 0.81787735, 0.920962, 0.24520019, -0.17531109, 0
1208, 3070006520, 0.4257854, -0.37624186, 0.089385614, 0.81802034, 0.28250664, -0.24998125, -0.2430315, 0
1209, 3070023187, 0.4260237, -0.37532705, 0.09032446, 0.8182134, -0.46660712, -0.4717193, -0.64502335, 0
1210, 3070039854, 0.42627075, -0.3740143, 0.09133142, 0.818574, 0.79452467, -0.067782536, 0.65006256, 0
1212, 3070073188, 0.42748156, -0.37116894, 0.092468455, 0.8191099, 1.0409383, 0.33519086, -0.77712536, 0
1213, 3070089855, 0.42800823, -0.36997312, 0.093166575, 0.8192967, 0.48522595, -0.99112386, 0.29488373, 0
1216, 3070139856, 0.42922938, -0.3685006, 0.09476207, 0.8191384, 0.45522398, -0.0017969324, -0.34650803, 0
1217, 3070156523, 0.42964596, -0.36810216, 0.095562644, 0.8190062, 0.9117976, -0.41418347, -0.17219543, 0
1219, 3070189857, 0.43082964, -0.36704192, 0.09689814, 0.8187033, 0.9381088, 0.3137096, -0.1783905, 0
1220, 3070206524, 0.43152013, -0.36667192, 0.09738381, 0.8184478, 0.41536316, -0.476538, 0.45205116, 0
1223, 3070256525, 0.4345126, -0.3660359, 0.09781326, 0.817097, 1.0241953, 0.020723004, 1.1156406, 0
1224, 3070273192, 0.435398, -0.3658586, 0.098092206, 0.8166714, 0.9785558, 0.68023384, -0.59680843, 0
1225, 3070289859, 0.43626297, -0.36598313, 0.09856956, 0.81609637, 1.0685154, 0.18815455, -0.5654106, 0
1227, 3070323193, 0.43807685, -0.36554343, 0.09917223, 0.8152484, -0.64280003, 1.0625525, -1.106081, 0
1228, 3070339860, 0.43856865, -0.36589658, 0.09983652, 0.81474423, 0.20647068, -0.86711496, -0.7633915, 0
1229, 3070356527, 0.43924937, -0.3656042, 0.10022061, 0.81446165, 0.715435, -0.107602715, 1.3649626, 0
1231, 3070389861, 0.44049746, -0.366234, 0.100743234, 0.8134396, -0.08511485, 0.32485172, -0.59617805, 0
1232, 3070406528, 0.44066384, -0.3667067, 0.10120976, 0.81307834, -1.3184686, 0.5970898, -0.9838228, 0
1233, 3070423195, 0.44079182, -0.3666677, 0.101793796, 0.8129537, 0.06317479, 0.5407381, 0.54713917, 0
1235, 3070456529, 0.44119313, -0.3665482, 0.102475494, 0.81270415, -0.14388725, 1.6228695, 0.4316368, 0
1237, 3070489863, 0.44044602, -0.36673507, 0.104278, 0.8127958, -1.2291219, 1.2062198, 0.07870197, 0
1239, 3070523197, 0.43981567, -0.36759898, 0.10616023, 0.8125033, -0.47202215, 1.9220228, 0.7096195, 0
1240, 3070539864, 0.43924493, -0.3687515, 0.107394174, 0.8121276, -1.5448226, 1.9556744, -0.21001339, 0
1242, 3070573198, 0.4361328, -0.37180325, 0.11208883, 0.811779, 0.044545908, 1.312026, 0.4157467, 0
1243, 3070589865, 0.43529165, -0.37032238, 0.1133465, 0.812732, -0.11773378, 2.9423754, -0.9915838, 0
1244, 3070606532, 0.43479386, -0.36794654, 0.11443402, 0.8139244, 0.026516683, 1.3466079, -1.219739, 0
1246, 3070639866, 0.43475336, -0.361492, 0.11571506, 0.81665254, -0.45597398, 1.0218972, 0.7903929, 0
1247, 3070656533, 0.4348222, -0.36061594, 0.11631351, 0.8169182, -0.22813538, 0.9909066, -0.020392418, 0
1248, 3070673200, 0.43519703, -0.35982046, 0.11644756, 0.81705016, -0.6768109, 1.2997262, -0.046830177, 0
1250, 3070706534, 0.43564805, -0.36121598, 0.1167561, 0.81614953, -0.2882559, -0.02195389, -0.7202406, 0
1252, 3070739868, 0.43624964, -0.36176544, 0.11568554, 0.8157372, -1.1671833, 2.1031215, -1.1161375, 0
1254, 3070773202, 0.43745005, -0.36191744, 0.11371413, 0.81530404, 1.3473313, -0.85987973, 0.5350456, 0
1255, 3070789869, 0.4383059, -0.36096856, 0.11244843, 0.81544065, 0.73445326, -1.4109665, 1.7117233, 0
1256, 3070806536, 0.43872368, -0.359802, 0.111739494, 0.8158287, 0.8480739, -1.5134089, -0.6726961, 0
1258, 3070839870, 0.44104475, -0.35742277, 0.108896606, 0.81600744, -0.8043025, -1.2878023, -0.20374393, 0
1259, 3070856537, 0.44253305, -0.35709074, 0.107027575, 0.8155943, 0.49275017, -2.5709963, -0.48388863, 0
1260, 3070873204, 0.44374946, -0.35786787, 0.10546307, 0.81479627, 0.8622403, -3.1813605, -0.48228455, 0
1262, 3070906538, 0.446028, -0.3599361, 0.103643246, 0.81287235, 3.566935, -1.0942055, 2.0136528, 0
1263, 3070923205, 0.4474091, -0.36121938, 0.10302324, 0.811622, 3.741579, -1.9405934, 0.6139927, 0
1264, 3070939872, 0.44854635, -0.36168087, 0.102484986, 0.8108566, 1.8205855, -1.8260075, 0.2894516, 0
1267, 3070989873, 0.45252597, -0.36405453, 0.10162801, 0.8076847, 0.95225775, -0.5657483, 0.4685278, 0
1268, 3071006540, 0.45371747, -0.36571681, 0.10126627, 0.8063096, 1.3578538, -1.4097292, -0.917099, 0
1270, 3071039874, 0.45646134, -0.36983407, 0.09924245, 0.8031283, 0.6930129, -0.653472, 0.2624302, 0
1271, 3071056541, 0.4582135, -0.37191597, 0.098061144, 0.8013122, 0.37256825, -1.4915454, -0.34914017, 0
1273, 3071089875, 0.4600246, -0.37317437, 0.096672736, 0.79985696, -0.3886115, -0.6254929, -0.9290142, 0
1274, 3071106542, 0.46056044, -0.37328768, 0.09653755, 0.79951185, 0.48495683, -0.96043706, -0.7565737, 0
1275, 3071123209, 0.4609604, -0.37290037, 0.09652065, 0.7994642, -0.16985777, -0.15733983, -0.66621876, 0
1277, 3071156543, 0.46116173, -0.37046364, 0.096649736, 0.80046463, 0.67687124, -0.2912642, 0.17920399, 0
1278, 3071173210, 0.4611547, -0.3693712, 0.096764915, 0.8009594, -0.16845542, -0.5399553, -0.6688423, 0
1279, 3071189877, 0.461003, -0.3684412, 0.09689601, 0.80145913, -0.7235024, -0.80582947, -0.23980808, 0
1281, 3071223211, 0.46069512, -0.3669638, 0.097672954, 0.80221933, 0.072764166, 0.27252096, 0.074754715, 0
1282, 3071239878, 0.46052897, -0.3664207, 0.09811573, 0.802509, 0.41294283, -0.1098555, 0.73398113, 0
1283, 3071256545, 0.46053007, -0.3659762, 0.098135024, 0.8027086, 0.2865829, 0.9704921, 0.13937569, 0
1285, 3071289879, 0.46063063, -0.36596742, 0.09812515, 0.8026562, -0.7879784, 0.5612086, 0.2386322, 0
1286, 3071306546, 0.4607132, -0.36573702, 0.09812732, 0.8027135, -0.25158143, 1.296821, -0.48151302, 0
1287, 3071323213, 0.4606131, -0.36575526, 0.09839395, 0.80273, 0.22519162, 0.42624155, -0.87384987, 0
1289, 3071356547, 0.46075016, -0.36434934, 0.09907805, 0.8032065, 0.3308514, 1.0369756, -0.29318047, 0
1290, 3071373214, 0.46085066, -0.36429554, 0.09945875, 0.8031263, 0.6728485, -0.746896, 0.3037691, 0
1291, 3071389881, 0.46075898, -0.3645611, 0.09984863, 0.8030098, -0.3020295, -0.13614398, -0.9611988, 0
1294, 3071439882, 0.45996138, -0.3679118, 0.101567395, 0.80172247, 1.0706296, -0.18974641, 2.0670576, 0
1295, 3071456549, 0.46062583, -0.3660353, 0.100797705, 0.8022968, -0.19043247, 4.5645156, 1.592885, 0
1297, 3071489883, 0.46015933, -0.36619493, 0.102402605, 0.80228835, -0.45671946, -1.2573853, -0.50147533, 0
1298, 3071506550, 0.4598495, -0.3657589, 0.10333011, 0.8025461, 0.9819809, -0.90905994, 0.87463474, 0
1300, 3071539884, 0.4596629, -0.36547068, 0.10496855, 0.80257154, -0.2723496, -0.26908937, 0.082476616, 0
1301, 3071556551, 0.45924744, -0.3650321, 0.10587386, 0.8028901, 0.28063598, -0.37245998, -0.50682926, 0
1302, 3071573218, 0.45897436, -0.3651074, 0.10675515, 0.80289525, 0.66609836, 0.364016, -0.25458813, 0
1304, 3071606552, 0.45884407, -0.3661568, 0.108292475, 0.8022857, -0.39196375, -1.3538214, -1.4246387, 0
1305, 3071623219, 0.45970723, -0.36438897, 0.10711994, 0.80275375, 0.66436225, 1.3052775, 5.5293713, 0
1306, 3071639886, 0.46018788, -0.36465135, 0.10680036, 0.8024016, -1.0271764, 2.4107738, -2.5523415, 0
1309, 3071689887, 0.46152213, -0.3690565, 0.10609343, 0.79971063, 1.832967, -0.44574183, -1.0714979, 0
1310, 3071706554, 0.46229428, -0.37137496, 0.10606981, 0.798193, 0.7161132, 1.9934075, -1.4819708, 0
1312, 3071739888, 0.46394297, -0.37307754, 0.1048438, 0.7966029, -1.4826976, 3.207183, -1.1226711, 0
1313, 3071756555, 0.46450534, -0.3715308, 0.10488423, 0.7969927, 2.9032924, -1.5645128, 3.681203, 0
1314, 3071773222, 0.46573925, -0.3724232, 0.103654936, 0.7960163, -0.32668436, 0.4404441, -2.6162872, 0
1316, 3071806556, 0.46652403, -0.37503067, 0.101852916, 0.79456395, -1.4024597, 0.47680667, 0.18189526, 0
1317, 3071823223, 0.46725047, -0.37624303, 0.09978522, 0.79382575, 1.3905786, -0.18253475, 0.64255905, 0
1318, 3071839890, 0.46824208, -0.3791028, 0.09750657, 0.79216254, -0.34374723, 0.313914, -1.2579203, 0
1320, 3071873224, 0.4679259, -0.3815191, 0.09454867, 0.7915476, 0.34695125, -0.7663389, 0.5609131, 0
1321, 3071889891, 0.4676814, -0.38224566, 0.09365371, 0.7914477, 0.421642, 0.16521296, 0.48059177, 0
1324, 3071939892, 0.4647975, -0.38329804, 0.09349738, 0.79265547, 0.7408093, -0.47258237, 0.4148693, 0
1325, 3071956559, 0.4637064, -0.3848082, 0.09313241, 0.7926058, -1.1405356, -0.8971829, -0.3743124, 0
1327, 3071989893, 0.46066323, -0.38750616, 0.093163624, 0.7930621, -0.6869386, -0.6785597, -0.66449165, 0
1328, 3072006560, 0.45900545, -0.38888282, 0.09331187, 0.79333186, 0.31196457, 0.44810882, -0.9189167, 0
1329, 3072023227, 0.4575186, -0.38923186, 0.0936177, 0.7939833, 0.7802022, -0.46289724, 1.1256113, 0
1331, 3072056561, 0.4539986, -0.38931134, 0.094781846, 0.7958245, -1.6017444, 0.38542932, -0.539176, 0
1332, 3072073228, 0.45251063, -0.38904163, 0.09512367, 0.7967624, -1.8930837, 1.5224305, -1.7975721, 0
1333, 3072089895, 0.45115063, -0.38903755, 0.095574215, 0.79748154, -0.25774533, 1.1597329, -0.90413666, 0
1335, 3072123229, 0.44883874, -0.3843292, 0.09617002, 0.80098975, 0.09108491, 1.2653766, -0.0068712234, 0
1336, 3072139896, 0.44787887, -0.38191167, 0.096543126, 0.8026368, 0.14236379, 0.91192454, -0.023719788, 0
1339, 3072189897, 0.44576335, -0.376222, 0.09721163, 0.8064119, 0.121649355, 0.0042498754, 0.28245068, 0
1340, 3072206564, 0.44553497, -0.37493795, 0.09775482, 0.8070704, 1.2644755, -0.5755254, 1.1070118, 0
1341, 3072223231, 0.44552442, -0.37429804, 0.09828458, 0.80730885, 0.8014488, 0.43708462, -0.91952133, 0
1343, 3072256565, 0.44574082, -0.37367904, 0.099430054, 0.80733573, 0.85662645, -0.5543804, -0.17633438, 0
1344, 3072273232, 0.44618237, -0.37344196, 0.09971073, 0.80716693, 1.5182256, -0.594579, 0.9144087, 0
1345, 3072289899, 0.44679165, -0.37339965, 0.100112684, 0.80679965, 0.93716455, 0.48262984, -0.60997105, 0
1347, 3072323233, 0.44839647, -0.3736537, 0.10030584, 0.8057671, -0.30520973, 0.9836725, 0.083678246, 0
1348, 3072339900, 0.44885364, -0.3752351, 0.10087744, 0.8047057, -0.9700868, 1.4663947, -2.7414012, 0
1349, 3072356567, 0.44903812, -0.37858525, 0.10205782, 0.80288255, 0.15823376, -0.45838708, -1.4484043, 0
1351, 3072389901, 0.45026332, -0.3797418, 0.10301234, 0.8015271, 0.346862, 3.7093825, -0.55557823, 0
1352, 3072406568, 0.4506866, -0.37967554, 0.10320502, 0.8012957, 0.4056152, 2.660231, -0.7355547, 0
1354, 3072439902, 0.4503337, -0.3789134, 0.104122624, 0.80173624, -1.3523189, 0.26999316, 0.6465769, 0
1355, 3072456569, 0.45049125, -0.37964687, 0.104056954, 0.8013092, -1.6544763, 2.060999, -0.49857616, 0
1356, 3072473236, 0.45085564, -0.3811521, 0.103389405, 0.8004756, -1.6155596, 1.6765215, 0.29262543, 0
1358, 3072506570, 0.45093238, -0.38364038, 0.10254852, 0.7993511, -0.20753804, 2.1591244, -0.10413742, 0
1359, 3072523237, 0.45133457, -0.38455394, 0.101882815, 0.79877, -0.3401856, 2.4441538, 1.0560617, 0
1360, 3072539904, 0.45192605, -0.38538966, 0.10098023, 0.79814726, -2.075399, 3.6768534, -0.72262096, 0
1362, 3072573238, 0.4529715, -0.38585594, 0.09847343, 0.79764247, -1.0901004, 2.1278481, 1.2700472, 0
1363, 3072589905, 0.45362815, -0.38454247, 0.09697344, 0.7980872, -0.16022146, 3.0081697, -0.27752113, 0
1366, 3072639906, 0.45510435, -0.38352627, 0.0919662, 0.7983282, -2.5197074, 1.5859439, -2.816908, 0
1367, 3072656573, 0.45520452, -0.38280874, 0.08988769, 0.79885215, -0.8492549, -0.7770496, -1.4701376, 0
1368, 3072673240, 0.4555162, -0.3820724, 0.08753651, 0.79928815, -0.5089157, -5.443658E-4, 0.4578886, 0
1370, 3072706574, 0.45443618, -0.38254163, 0.08408075, 0.80004895, -0.24555147, -2.905595, 2.3208675, 0
1371, 3072723241, 0.45352954, -0.38314408, 0.08280192, 0.8004085, -0.068067655, -2.2367363, -0.8212366, 0
1372, 3072739908, 0.4529242, -0.38322866, 0.08149507, 0.80084485, 0.808577, -3.8026626, -1.7548523, 0
1374, 3072773242, 0.4509097, -0.38169456, 0.07898018, 0.8029635, 1.2723976, -2.5356793, -1.0176344, 0
1375, 3072789909, 0.4503318, -0.38042787, 0.077074304, 0.8040734, -0.6659282, -0.17940737, 1.6915789, 0
1376, 3072806576, 0.4500739, -0.38011703, 0.07551985, 0.8045121, -0.734956, -2.6482882, 1.4697294, 0
1378, 3072839910, 0.44948387, -0.3798871, 0.072894044, 0.80519253, 1.472598, -3.794617, 2.6046572, 0
1381, 3072889911, 0.45016763, -0.38198584, 0.06867612, 0.8041877, 1.470613, -3.9785037, -0.6948471, 0
1382, 3072906578, 0.450486, -0.38234675, 0.06736264, 0.80394906, 1.3563051, -0.8012382, -1.2699738, 0
1383, 3072923245, 0.4510327, -0.3832706, 0.06603502, 0.8033125, 2.6997688, -2.6831214, -0.22304726, 0
1385, 3072956579, 0.45159897, -0.38478348, 0.06371844, 0.80245775, 0.81945217, -3.2314641, 0.59630585, 0
1386, 3072973246, 0.4515152, -0.3861038, 0.06280104, 0.80194265, 0.31440568, -1.8665476, -0.15210056, 0
1387, 3072989913, 0.45151696, -0.387356, 0.06174833, 0.80141944, 0.31477553, -0.39721236, 0.19662762, 0
1389, 3073023247, 0.45032734, -0.38972843, 0.06049446, 0.80103433, -0.5324035, -0.7873523, -0.8079567, 0
1390, 3073039914, 0.44945848, -0.38991418, 0.059796777, 0.80148417, -1.2014456, 0.6664764, -0.7316103, 0
1391, 3073056581, 0.44843817, -0.38993233, 0.059044704, 0.80210227, -0.26705602, -1.0476073, -0.28217316, 0
1393, 3073089915, 0.44624674, -0.38929716, 0.057416778, 0.8037495, -0.26410118, -1.4157331, 0.59296227, 0
1395, 3073123249, 0.44295874, -0.38947788, 0.057484142, 0.8054739, -1.4936262, -0.6093169, -0.80041885, 0
1397, 3073156583, 0.43791822, -0.38714227, 0.059563406, 0.80919665, -1.6947643, -0.25871626, -0.41472626, 0
1398, 3073173250, 0.4353551, -0.3846573, 0.06111662, 0.81164503, -0.070638895, -0.22431011, 0.5913439, 0
1399, 3073189917, 0.43284413, -0.38191336, 0.06276256, 0.81415445, 0.034723856, -0.51823443, 0.8784752, 0
1401, 3073223251, 0.42762977, -0.37570557, 0.06654684, 0.8194804, -0.6334983, -0.98569775, -0.76404476, 0
1402, 3073239918, 0.4251379, -0.37285182, 0.069168955, 0.82185966, 0.17393097, -0.9274175, -0.44928265, 0
1404, 3073273252, 0.4211032, -0.36903894, 0.07460854, 0.8251752, 1.0098253, 0.40583727, -0.26772213, 0
1405, 3073289919, 0.41970372, -0.3676908, 0.07647644, 0.8263183, 0.8681186, 0.5409615, -0.42239285, 0
1406, 3073306586, 0.41868243, -0.36615068, 0.078053735, 0.82737225, 0.525174, 0.910062, 0.29390907, 0
1408, 3073339920, 0.417608, -0.36382973, 0.080674596, 0.82868654, 0.67008376, -0.15530865, -0.027676582, 0
1410, 3073373254, 0.4172258, -0.36092243, 0.08344623, 0.8298751, 1.8243183, 0.38852888, 0.045098305, 0
1412, 3073406588, 0.41741323, -0.35892916, 0.086041756, 0.83038026, 0.26809886, -0.40124822, -0.26177216, 0
1413, 3073423255, 0.41782185, -0.3583424, 0.08714723, 0.8303128, -0.08198327, 0.8700859, 0.04640293, 0
1414, 3073439922, 0.4185712, -0.35788184, 0.08786008, 0.83005893, 0.25897273, 0.60149133, 0.049194336, 0
1416, 3073473256, 0.41982377, -0.35666278, 0.08992527, 0.82972974, 1.250471, 0.8427113, -0.06701946, 0
1417, 3073489923, 0.42059422, -0.35651377, 0.090981565, 0.82928836, 1.5048548, 0.2513021, -0.35545444, 0
1418, 3073506590, 0.4215355, -0.3569592, 0.09191668, 0.8285154, 0.49464, -0.6559125, -0.27214718, 0
1420, 3073539924, 0.4237096, -0.3582766, 0.09247255, 0.8267739, -0.9450702, 1.2917155, -0.26887512, 0
1421, 3073556591, 0.4249985, -0.3592727, 0.0926498, 0.8256595, 0.20495448, 0.95297456, -0.5485954, 0
1422, 3073573258, 0.4264096, -0.36034825, 0.092622206, 0.8244655, 0.854834, 1.0079155, 0.124806404, 0
1424, 3073606592, 0.4283137, -0.3612546, 0.092579804, 0.8230855, 0.3693851, 1.0134817, 0.06463051, 0
1425, 3073623259, 0.42903027, -0.3617702, 0.09264728, 0.8224781, 0.34523275, -0.29269445, 0.022435188, 0
1426, 3073639926, 0.4297507, -0.36266747, 0.09279031, 0.8216904, -0.48123547, -1.3549789, -0.110853195, 0
1428, 3073673260, 0.43058193, -0.36478063, 0.092382304, 0.8203647, -0.09299874, 1.034829, 0.08500004, 0
1429, 3073689927, 0.43110445, -0.36582372, 0.09180709, 0.8196901, -0.8075159, 1.5061713, -0.25292778, 0
1430, 3073706594, 0.431399, -0.3665128, 0.092310995, 0.8191704, -0.11305975, -0.65222365, -0.34245396, 0
1432, 3073739928, 0.4312938, -0.36506805, 0.0944488, 0.8196272, 0.86818963, 0.39361325, 0.27666855, 0
1433, 3073756595, 0.43122143, -0.36438972, 0.0956847, 0.8198238, 1.2812272, 0.36451757, 0.20032501, 0
1435, 3073789929, 0.43168306, -0.3642172, 0.097561195, 0.8194364, -0.7207247, 0.5983492, -1.5595264, 0
1437, 3073823263, 0.4326264, -0.36373982, 0.09889123, 0.81899124, 1.0541784, 1.6353731, 0.19771767, 0
1439, 3073856597, 0.4342189, -0.36401632, 0.09987421, 0.81790555, 1.0449005, -0.08753147, 0.15984058, 0
1440, 3073873264, 0.43512532, -0.36318272, 0.1000787, 0.81776935, 0.5132235, 1.3759518, 0.0823822, 0
1441, 3073889931, 0.4361974, -0.36304605, 0.100518204, 0.8172049, 1.3353047, 0.01811539, -0.36836338, 0
1443, 3073923265, 0.4380417, -0.3623727, 0.1015953, 0.8163836, 0.19238146, -0.6694147, -0.04231453, 0
1444, 3073939932, 0.43853274, -0.36169264, 0.10234371, 0.81632817, 0.60226995, 0.11144948, 0.14136982, 0
1445, 3073956599, 0.43919766, -0.3616881, 0.10339588, 0.81584, 0.8534033, 0.4320224, -0.63070583, 0
1447, 3073989933, 0.44061488, -0.36175847, 0.105057076, 0.8148317, 0.06448483, 0.1772736, -0.18233395, 0
1448, 3074006600, 0.44120592, -0.3620009, 0.10569191, 0.81432205, 0.065062076, -0.1800304, -0.20286274, 0
1449, 3074023267, 0.44227016, -0.36229387, 0.105969556, 0.81357795, 0.5037685, 0.36703387, 0.59530354, 0
1452, 3074073268, 0.4450137, -0.36391205, 0.106729254, 0.8112571, 0.50579965, 1.6111299, -1.0386839, 0
1453, 3074089935, 0.44593182, -0.3648658, 0.10712552, 0.8102717, 1.0999453, -0.36259177, 0.06412506, 0
1455, 3074123269, 0.44775409, -0.36625358, 0.107430525, 0.80859864, -0.94947714, 0.94268984, -0.70642567, 0
1456, 3074139936, 0.44812623, -0.36748067, 0.107961036, 0.8077645, -0.3796362, 0.022094702, 0.06751728, 0
1458, 3074173270, 0.44926062, -0.37006515, 0.10860288, 0.80586636, -0.7823139, 2.0570674, -0.91300774, 0
1459, 3074189937, 0.4497025, -0.371548, 0.1087929, 0.80491126, -0.60948473, 0.87990224, 0.22286987, 0
1460, 3074206604, 0.4498936, -0.3725595, 0.10889219, 0.8043233, -1.2645243, 1.3128548, -0.7013788, 0
1462, 3074239938, 0.44956374, -0.37471715, 0.109654, 0.80340135, 0.30763993, 1.7136561, 1.058938, 0
1463, 3074256605, 0.44907844, -0.3757136, 0.11030828, 0.8031178, -0.6989899, 2.571455, 0.15241337, 0
1464, 3074273272, 0.44826046, -0.37676463, 0.111241005, 0.8029539, -1.4658241, 2.2548685, -0.21773338, 0
1467, 3074323273, 0.44684488, -0.37757728, 0.11129858, 0.8033531, -1.1425271, 1.497326, 1.1462374, 0
1468, 3074339940, 0.44733438, -0.37774774, 0.11044385, 0.8031184, -0.96842444, 1.4598404, -1.3436279, 0
1470, 3074373274, 0.44726202, -0.37967938, 0.10933595, 0.8023991, -1.2758229, 2.3888216, -0.11454868, 0
1471, 3074389941, 0.44620696, -0.38439366, 0.11041334, 0.8005925, -0.5587231, 1.066137, -2.5488048, 0
1472, 3074406608, 0.44466937, -0.388386, 0.11193746, 0.79930836, -1.1360202, -0.7831322, -2.992105, 0
1474, 3074439942, 0.44484368, -0.38167804, 0.10846666, 0.802913, 0.034668256, 4.3427, 0.7781496, 0
1475, 3074456609, 0.44509706, -0.37737104, 0.10651772, 0.8050666, -0.5474306, 2.1139243, 1.9270077, 0
1476, 3074473276, 0.44421282, -0.37615335, 0.10638213, 0.8061419, -2.0456257, -0.8126056, 0.7140207, 0
1478, 3074506610, 0.44127983, -0.36993822, 0.10627304, 0.8106308, 0.6944027, -1.6936761, -3.947465, 0
1479, 3074523277, 0.4410739, -0.36577633, 0.10524721, 0.8127626, 1.8886902, -1.9478859, -1.341383, 0
1482, 3074573278, 0.4401645, -0.3601551, 0.10262996, 0.81609356, -0.69971746, -2.3407986, 1.065237, 0
1483, 3074589945, 0.43978712, -0.35955417, 0.10275589, 0.8165461, 0.71827406, -2.0076592, 1.2431259, 0
1485, 3074623279, 0.438709, -0.35833803, 0.1045889, 0.8174276, 3.7436671, -2.1122332, 1.6681223, 0
1486, 3074639946, 0.43830606, -0.3576217, 0.10532319, 0.8178631, 3.4239123, -1.9334915, 0.3357916, 0
1487, 3074656613, 0.43856582, -0.35640204, 0.10563968, 0.81821525, 0.69004816, -1.1515712, -0.86939335, 0
1489, 3074689947, 0.43981516, -0.353169, 0.10651373, 0.81883305, 1.0609556, -1.9640719, -1.0646191, 0
1490, 3074706614, 0.4407341, -0.35136837, 0.10679057, 0.8190774, 3.209177, -1.3256073, 1.6575089, 0
1491, 3074723281, 0.4419716, -0.35059455, 0.10719148, 0.8186899, 3.4520378, -2.269175, 1.7854939, 0
1493, 3074756615, 0.44469944, -0.35034692, 0.108242735, 0.8171788, 0.9120932, -1.5947527, -1.0782032, 0
1494, 3074773282, 0.44618136, -0.35055956, 0.108605236, 0.81623137, 2.4789832, -0.044692867, -1.3065319, 0
1495, 3074789949, 0.44823134, -0.35015556, 0.108338036, 0.8153165, 1.6322644, 1.9120415, -0.9678993, 0
1497, 3074823283, 0.45258674, -0.34987438, 0.10785732, 0.813092, 0.889784, -1.7108917, -1.7687397, 0
1498, 3074839950, 0.45464304, -0.34947553, 0.10741025, 0.8121748, 0.989782, -0.9511897, 0.86431503, 0
1499, 3074856617, 0.45693734, -0.34965017, 0.10678466, 0.8108936, 0.94883186, 0.10489798, 0.47761917, 0
1501, 3074889951, 0.46121338, -0.35287052, 0.10468941, 0.80734324, 0.5098094, -0.51827604, -0.9197407, 0
1502, 3074906618, 0.4628396, -0.35503381, 0.103224814, 0.8056511, 0.05165161, 0.07111489, -0.41344643, 0
1503, 3074923285, 0.4642468, -0.35669962, 0.10227609, 0.80422527, -0.533525, 0.56734526, 0.4352541, 0
1505, 3074956619, 0.46674404, -0.3582451, 0.10137023, 0.8022049, 0.7730796, -1.254684, 1.0157394, 0
1506, 3074973286, 0.46770447, -0.3589009, 0.10085725, 0.80141664, 0.12953648, 0.43008274, 0.03925705, 0
1509, 3075023287, 0.47088608, -0.36323896, 0.09848993, 0.79788584, -0.7702005, 0.27387276, 0.19712067, 0
1510, 3075039954, 0.47155613, -0.36494774, 0.097296774, 0.79685616, -0.39440385, 0.6726779, 0.17403603, 0
1511, 3075056621, 0.4722396, -0.3667309, 0.096212596, 0.7957637, -0.4190558, 0.9907554, -0.47579765, 0
1513, 3075089955, 0.47316217, -0.3694167, 0.09401628, 0.7942343, -0.66327804, -0.6274249, -0.018304825, 0
1514, 3075106622, 0.47319996, -0.3703511, 0.0931111, 0.7938833, 0.74612325, 0.34380004, -0.49286175, 0
1516, 3075139956, 0.47376713, -0.37311193, 0.090811715, 0.7925173, -1.4551225, 0.04596343, -0.25825214, 0
1517, 3075156623, 0.4732989, -0.37478092, 0.08986196, 0.7921178, -1.1842391, -0.6487662, -0.53437805, 0
1518, 3075173290, 0.47263414, -0.37683082, 0.088804364, 0.7916614, 0.45142758, 0.22001643, 0.08626938, 0
1520, 3075206624, 0.47171322, -0.38059187, 0.086256884, 0.79069257, -0.9473762, -0.646165, -0.34425735, 0
1521, 3075223291, 0.47113946, -0.381639, 0.085047334, 0.79066074, -1.3646458, -0.2442762, -0.44117832, 0
1524, 3075273292, 0.46917045, -0.38497967, 0.08180117, 0.79055464, -0.85098755, -0.19485646, 0.18336105, 0
1525, 3075289959, 0.46840405, -0.38611722, 0.08096993, 0.79054004, -0.92387974, -0.16502811, -0.40473652, 0
1526, 3075306626, 0.46748704, -0.38677037, 0.080495596, 0.79081184, -0.49671045, -0.44243988, 0.5486498, 0
1528, 3075339960, 0.46568537, -0.38747337, 0.07964389, 0.79161656, -0.35876128, -1.016218, -1.021801, 0
1529, 3075356627, 0.4642951, -0.3876011, 0.079435326, 0.7923912, -0.8485177, -2.0755546, 0.50771046, 0
1530, 3075373294, 0.46252736, -0.3875009, 0.079383604, 0.7934783, -0.80237615, -0.6349479, 0.45382023, 0
1532, 3075406628, 0.45913494, -0.38840503, 0.0788892, 0.79505444, -1.550535, -0.3809194, -0.1889906, 0
1533, 3075423295, 0.45706615, -0.3892717, 0.078766696, 0.79583424, -1.2471212, -0.6938038, -0.19174385, 0
1534, 3075439962, 0.4549703, -0.38933846, 0.0784781, 0.79703015, -0.59415466, 0.22320518, 0.011665344, 0
1536, 3075473296, 0.45162928, -0.38868168, 0.07822217, 0.7992729, -0.85348946, 0.15262806, -0.029771805, 0
1539, 3075523297, 0.44642636, -0.3852548, 0.079493344, 0.80371714, -0.10587767, -0.013357582, -0.06806278, 0
1540, 3075539964, 0.44512275, -0.38455242, 0.079709016, 0.8047546, -0.43343753, -0.1873918, -0.17310143, 0
1541, 3075556631, 0.44372135, -0.38421395, 0.07983854, 0.80567694, 0.029461438, 0.18869835, -0.2668848, 0
1543, 3075589965, 0.44147375, -0.3834228, 0.079718135, 0.8072988, 0.12709388, -0.19745626, 0.22357178, 0
1544, 3075606632, 0.44065747, -0.38301283, 0.079643376, 0.8079463, -0.12689884, 0.86370206, -0.0054426193, 0
1545, 3075623299, 0.43956596, -0.38240868, 0.07999127, 0.8087923, -0.14434132, -0.6433945, -0.2601633, 0
1547, 3075656633, 0.43730202, -0.38077214, 0.08153687, 0.8106352, 0.6804079, -0.09192686, -0.47824764, 0
1548, 3075673300, 0.4365794, -0.38003308, 0.081957184, 0.8113289, 0.10702186, -0.21364988, -0.25669956, 0
1549, 3075689967, 0.43576026, -0.3795415, 0.08244188, 0.8119501, -1.1713527, -0.06172355, -0.6420984, 0
1551, 3075723301, 0.43489176, -0.3790304, 0.08293223, 0.81260437, 0.68583167, 0.004982886, 0.025569916, 0
1553, 3075756635, 0.43418163, -0.37923506, 0.08284735, 0.8128972, 0.8835599, -0.27991936, 0.3173704, 0
1555, 3075789969, 0.434139, -0.38019317, 0.08160655, 0.8125977, -0.2531687, -0.251866, -0.18333149, 0
1556, 3075806636, 0.4341591, -0.38103867, 0.080953434, 0.81225634, -0.40005293, -1.108515, -0.022931099, 0
1557, 3075823303, 0.43397823, -0.38218442, 0.08038331, 0.81187135, -0.10277053, -0.79493994, 0.0046977997, 0
1559, 3075856637, 0.43403932, -0.38429564, 0.078956544, 0.81098133, -0.32543412, 0.9109361, -1.3239985, 0
1560, 3075873304, 0.43384698, -0.3856347, 0.07845327, 0.8104974, 0.23544528, -0.97908175, 0.40270233, 0
1561, 3075889971, 0.4335252, -0.38574362, 0.07808241, 0.81065345, -0.27271947, -0.042486683, 0.6599159, 0
1563, 3075923305, 0.4334078, -0.38637778, 0.077423505, 0.8104774, -0.3830017, -0.0470839, 0.38467407, 0
1564, 3075939972, 0.4329271, -0.38626298, 0.07753493, 0.8107783, -0.59882426, -0.6135292, 0.13390255, 0
1566, 3075973306, 0.43174642, -0.38562274, 0.07754088, 0.8117118, 0.06361727, 0.35211974, -0.4574299, 0
1567, 3075989973, 0.43123567, -0.38529703, 0.077968895, 0.8120968, 0.059586626, -1.1850052, -0.15085602, 0
1568, 3076006640, 0.43050602, -0.38483256, 0.07858117, 0.81264496, -0.9335896, -0.62307465, -1.1712561, 0
1570, 3076039974, 0.4289556, -0.38170883, 0.08108997, 0.8146891, 0.93048936, 0.82422984, 1.1001596, 0
1571, 3076056641, 0.42856964, -0.37920958, 0.08244886, 0.81592196, 0.35303426, 1.3716412, -0.10539341, 0
1572, 3076073308, 0.4277867, -0.37698638, 0.08411904, 0.8171916, 0.23333366, 0.59409404, -0.74371624, 0
1574, 3076106642, 0.42634398, -0.373307, 0.087613, 0.81926495, 0.4170618, 0.30773643, -0.24981785, 0
1575, 3076123309, 0.42630002, -0.3717406, 0.08905442, 0.81984454, 0.13634375, 0.21977682, 0.05288887, 0
1576, 3076139976, 0.42624733, -0.3703371, 0.0903588, 0.8203643, 0.7918836, 0.654232, -0.46653557, 0
1578, 3076173310, 0.42679748, -0.36876363, 0.092746146, 0.8205205, 1.1900059, 0.04109621, 0.3445959, 0
1580, 3076206644, 0.4283471, -0.36842147, 0.09390139, 0.819735, -1.171673, 1.2419984, 0.09573746, 0
1582, 3076239978, 0.43022078, -0.368857, 0.09415481, 0.81852794, 1.750964, 0.7273236, 0.32032776, 0
1583, 3076256645, 0.43154347, -0.36937073, 0.09397927, 0.81761956, 1.922405, 0.9250151, -0.28533077, 0
1584, 3076273312, 0.4325361, -0.36970603, 0.093930654, 0.8169487, 0.789909, 0.005542339, -0.06671429, 0
1586, 3076306646, 0.4342985, -0.3712641, 0.09328555, 0.81537956, -2.1109817, 1.6685348, -1.2935677, 0
1587, 3076323313, 0.43523124, -0.37243673, 0.09298809, 0.81438094, -1.5997956, 0.54264677, -1.1900568, 0
1588, 3076339980, 0.435939, -0.37267956, 0.0927475, 0.8139184, 0.4529102, 0.3326902, 0.37754726, 0
1590, 3076373314, 0.43718344, -0.3717084, 0.09199451, 0.8137804, 1.4310336, 0.087101996, 0.08588123, 0
1591, 3076389981, 0.43766338, -0.3714525, 0.0918458, 0.8136561, -0.68582386, 0.09319171, 1.0361996, 0
1592, 3076406648, 0.4379168, -0.37126985, 0.09182664, 0.81360555, -2.290672, 0.927824, 0.23162746, 0
1595, 3076456649, 0.43625382, -0.37006104, 0.09268905, 0.81495064, -0.01587674, 0.6086012, -2.315061, 0
1597, 3076489983, 0.43533558, -0.3651286, 0.09281758, 0.8176473, -0.3770733, 1.5450635, 2.0468636, 0
1598, 3076506650, 0.43451852, -0.3635032, 0.0930874, 0.8187748, -2.5659752, -0.39895108, 1.9718819, 0
1599, 3076523317, 0.4329785, -0.36199227, 0.093714595, 0.8201872, -2.2969983, -2.4173543, 2.1891203, 0
1601, 3076556651, 0.42992648, -0.36025342, 0.09616231, 0.8222723, 1.3277427, 0.43869525, -1.3093929, 0
1602, 3076573318, 0.42900997, -0.35874194, 0.09705529, 0.8233064, 1.952952, 1.3017708, -1.7873154, 0
1603, 3076589985, 0.42842293, -0.35629326, 0.09741736, 0.8246316, 2.8455417, -0.09334806, -1.4763432, 0
1605, 3076623319, 0.43042648, -0.3528578, 0.096250504, 0.8252022, 1.696516, -4.821018, 1.246666, 0
1606, 3076639986, 0.43279752, -0.35269877, 0.09460534, 0.8242195, 0.93917304, -3.7829049, 0.20729542, 0
1607, 3076656653, 0.43534067, -0.3545001, 0.09313268, 0.82227296, 1.8947986, -3.9120758, -1.1353378, 0
1610, 3076706654, 0.44360313, -0.3605432, 0.08984562, 0.81556803, 3.7098641, -1.4683768, 1.3684931, 0
1611, 3076723321, 0.44532514, -0.36089766, 0.09008122, 0.8144458, 2.1984107, -0.91649175, 0.071982384, 0
1613, 3076756655, 0.44709933, -0.3599825, 0.091931485, 0.81367177, 1.0497074, -0.8297815, -0.9737568, 0
1614, 3076773322, 0.44789568, -0.35965458, 0.092912555, 0.81326723, -0.9891717, -2.1699657, -0.6962185, 0
1615, 3076789989, 0.4484156, -0.35943875, 0.0936944, 0.81298643, -1.5088226, -1.8172326, 0.84383774, 0
1617, 3076823323, 0.44971147, -0.36066017, 0.09319572, 0.8117861, 0.35212502, -1.2806138, 0.35708237, 0
1618, 3076839990, 0.45038378, -0.36216962, 0.0921633, 0.81085867, 0.007318205, -1.4246191, 0.34052658, 0
1620, 3076873324, 0.45115042, -0.36317164, 0.090998344, 0.8101156, 0.93156075, -1.4037129, -2.2118196, 0
1621, 3076889991, 0.45127475, -0.36295715, 0.09108528, 0.81013274, 1.6331003, -1.6743733, -1.3063793, 0
1622, 3076906658, 0.45131513, -0.36158168, 0.0911164, 0.81072146, 0.7848537, -0.48527232, 0.3831663, 0
1625, 3076956659, 0.45205125, -0.35881755, 0.091321245, 0.81151605, -1.2248749, -0.6699762, -1.6892595, 0
1626, 3076973326, 0.45194697, -0.35847503, 0.09145177, 0.8117109, 0.4063422, -1.4514576, -0.8077221, 0
1628, 3077006660, 0.45301253, -0.3583864, 0.09055773, 0.8112561, 0.642984, -0.7194197, 0.42019558, 0
1629, 3077023327, 0.45341465, -0.35857847, 0.09037361, 0.81096715, -0.061346315, 0.33957574, -0.13173294, 0
1630, 3077039994, 0.45338362, -0.35864934, 0.09042488, 0.81094724, 0.43937683, 0.2497041, 0.44638062, 0
1632, 3077073328, 0.4538853, -0.35926327, 0.090362094, 0.81040174, -1.0114195, 0.99560547, -0.14453602, 0
1633, 3077089995, 0.45424077, -0.35928348, 0.090263784, 0.81020457, -0.8584109, 1.4649007, -0.6223583, 0
1634, 3077106662, 0.45427403, -0.35917297, 0.09025215, 0.8102362, -0.072680354, 1.0906433, 0.09343815, 0
1636, 3077139996, 0.4545396, -0.35922456, 0.0903735, 0.8100509, 0.83450294, 0.26226196, 0.67686176, 0
1637, 3077156663, 0.45485774, -0.35953727, 0.09042259, 0.8097282, -0.40021262, -0.6301575, 0.5164032, 0
1638, 3077173330, 0.45490676, -0.35976312, 0.09036542, 0.80960655, -1.0798912, -0.054589797, 0.5598974, 0
1640, 3077206664, 0.45495912, -0.36063138, 0.09053256, 0.8091719, -0.06182399, -0.067914076, -0.1945467, 0
1641, 3077223331, 0.45525494, -0.36059678, 0.09081882, 0.80898905, 0.10738336, 1.1348798, -0.62310696, 0
1642, 3077239998, 0.45526987, -0.36047882, 0.09126022, 0.8089835, 1.9002832, -0.12089514, -0.7126179, 0
1644, 3077273332, 0.45474422, -0.35981813, 0.093050465, 0.8093693, 0.32825345, -1.0007222, 0.07476425, 0
1645, 3077289999, 0.45463327, -0.35921472, 0.09397915, 0.8095923, 0.14985985, -0.3986881, 0.3274021, 0
1647, 3077323333, 0.45439196, -0.35843307, 0.095388375, 0.8099095, -0.060002472, 0.14543664, -0.22240067, 0
1648, 3077340000, 0.4544142, -0.35849935, 0.09578094, 0.8098211, 0.28063744, -1.0728723, 0.36808014, 0
1649, 3077356667, 0.4546346, -0.35876247, 0.096011266, 0.8095535, -0.09362086, -0.5818871, 0.38091278, 0
1652, 3077406668, 0.45404664, -0.36045313, 0.09647798, 0.809077, -0.15651925, 0.3453262, 0.7412996, 0
1653, 3077423335, 0.45396295, -0.3608203, 0.09669694, 0.8089342, -1.0161531, 1.1771463, -0.65662193, 0
1655, 3077456669, 0.4536608, -0.3619428, 0.09661889, 0.80861145, -0.6216966, 0.22821231, -0.24783516, 0
1656, 3077473336, 0.4535094, -0.36241913, 0.09624922, 0.8085271, -0.8480416, 0.6159321, -0.9574003, 0
1657, 3077490003, 0.4535821, -0.36316755, 0.095705785, 0.808215, -0.69047564, 0.33213848, -0.19637585, 0
1659, 3077523337, 0.45301265, -0.36470574, 0.09454962, 0.80797774, -0.44245395, -0.7298272, -0.30097103, 0
1660, 3077540004, 0.4523965, -0.36540142, 0.093702115, 0.80810726, 0.4503721, 0.6508549, 0.4242878, 0
1661, 3077556671, 0.45206875, -0.36670682, 0.092657514, 0.8078197, -0.32471174, 0.3116612, -0.23881245, 0
1663, 3077590005, 0.4503472, -0.36770463, 0.092247546, 0.8083745, -0.8302317, -0.77620274, 0.13025665, 0
1664, 3077606672, 0.44925147, -0.36699268, 0.09260322, 0.8092667, 0.39560086, 0.35082805, 0.6483393, 0
1667, 3077656673, 0.4466282, -0.36357158, 0.09514541, 0.8119635, 0.81866944, -0.3945225, -0.013731003, 0
1668, 3077673340, 0.4456295, -0.3623244, 0.09641759, 0.8129191, 0.8165413, -0.26351428, 0.15418434, 0
1669, 3077690007, 0.44500425, -0.3613903, 0.09781699, 0.81350994, 0.9236807, -0.92937547, -0.5202942, 0
1671, 3077723341, 0.44445407, -0.3601851, 0.1005229, 0.81401515, 1.6311646, -0.05913728, 0.094846725, 0
1672, 3077740008, 0.44432512, -0.3598405, 0.10169832, 0.814092, 1.8830137, 0.8656975, -1.0497885, 0
1673, 3077756675, 0.44466847, -0.36019233, 0.1027934, 0.8136113, 1.3375769, -0.38229766, -0.28584766, 0
1675, 3077790009, 0.44601494, -0.36218598, 0.10459815, 0.8117572, 0.049931258, -0.24730825, -0.43369675, 0
1676, 3077806676, 0.4465946, -0.36330467, 0.105225876, 0.8108569, 1.2680391, 0.32808182, 0.32373524, 0
1678, 3077840010, 0.449006, -0.3661272, 0.10539559, 0.8082293, 0.30910978, 0.1887102, -0.5438261, 0
1679, 3077856677, 0.4502537, -0.36776534, 0.10519327, 0.8068165, 0.24482293, 0.0030299416, -0.33178806, 0
1682, 3077906678, 0.45379817, -0.37295341, 0.10291411, 0.8027329, -0.6912462, 1.2688123, 0.014518738, 0
1683, 3077923345, 0.45513597, -0.37415823, 0.102204956, 0.8015044, -0.46881273, 0.52589726, -0.18566418, 0
1684, 3077940012, 0.45606005, -0.37522715, 0.10157881, 0.80055857, 0.05914678, -0.22657251, 1.1372213, 0
1686, 3077973346, 0.45742553, -0.37710992, 0.09955214, 0.7991481, -1.0922887, 1.1967411, -0.060590744, 0
1687, 3077990013, 0.4577118, -0.37853622, 0.09867003, 0.79841894, -1.1652043, -0.40455732, 0.28278828, 0
1688, 3078006680, 0.45772892, -0.37970284, 0.0976519, 0.79798025, -1.5282799, 0.50258195, 0.06345463, 0
1690, 3078040014, 0.45722985, -0.38153735, 0.09551489, 0.7976499, -0.9194638, 0.5737366, -0.23684978, 0
1691, 3078056681, 0.45674378, -0.38252798, 0.09475735, 0.7975444, -0.903049, 0.22476518, -0.27996826, 0
1692, 3078073348, 0.45563468, -0.38399926, 0.09423118, 0.79753405, -1.1351327, -0.15708782, -1.2049618, 0
1694, 3078106682, 0.4537828, -0.38465828, 0.092481166, 0.7984765, -1.8174623, 1.7638462, -0.6582184, 0
1696, 3078140016, 0.4518339, -0.38391137, 0.0913132, 0.80007416, -1.7978041, 1.450392, -0.46881485, 0
1698, 3078173350, 0.4491212, -0.38151854, 0.09155848, 0.8027136, 0.59936136, 2.2670727, 0.7119446, 0
1699, 3078190017, 0.44827694, -0.3801459, 0.091855474, 0.803802, -0.7599192, 1.9375274, -0.022670746, 0
1701, 3078223351, 0.4451514, -0.37864822, 0.09341492, 0.80606306, -0.95612025, 1.7306577, -0.11625099, 0
1702, 3078240018, 0.44377273, -0.3781731, 0.094554015, 0.8069131, -1.0221617, 1.5087645, -0.35552597, 0
1703, 3078256685, 0.443048, -0.3774159, 0.09532405, 0.8075751, -0.6659034, 1.5329348, 0.8905535, 0
1705, 3078290019, 0.4415225, -0.3762082, 0.0964181, 0.80884296, -0.078535385, 1.376214, 0.20552063, 0
1706, 3078306686, 0.4409267, -0.3767858, 0.09683174, 0.80884975, -0.7993546, 1.2932084, 0.3692503, 0
1707, 3078323353, 0.4401426, -0.3787419, 0.097484276, 0.80828464, -1.6994368, 0.25013357, 0.9006767, 0
1709, 3078356687, 0.43709126, -0.38805148, 0.099404484, 0.80528516, -1.3549497, 3.0867045, -0.6398611, 0
1710, 3078373354, 0.43623182, -0.3909866, 0.09899836, 0.80438095, -0.7992422, 2.7084365, -2.8365479, 0
1711, 3078390021, 0.43582326, -0.39101106, 0.09823302, 0.80468446, -0.2346912, 0.5098556, 1.1878862, 0
1713, 3078423355, 0.43320268, -0.3940324, 0.09789183, 0.8046674, -1.4831755, -0.8714337, 1.3234138, 0
1714, 3078440022, 0.4311067, -0.3976682, 0.098214805, 0.8039646, -3.2837937, 1.5714124, -3.923036, 0
1715, 3078456689, 0.4292069, -0.39996347, 0.09811918, 0.8038543, -0.35584575, -2.4942298, -0.9961672, 0
1717, 3078490023, 0.4282004, -0.3836608, 0.093767814, 0.81280667, 2.0274913, -0.81189984, -2.1205244, 0
1718, 3078506690, 0.42724305, -0.37619343, 0.092796326, 0.8169022, 0.10151517, -3.424807, 1.2044716, 0
1719, 3078523357, 0.42655239, -0.3719976, 0.09133707, 0.8193453, -0.8751964, -3.040927, 1.61341, 0
1721, 3078556691, 0.42439634, -0.36938393, 0.09013963, 0.82177633, -0.5418254, -3.1848593, -1.6568184, 0
1723, 3078590025, 0.4233988, -0.36761534, 0.08933417, 0.8231707, 2.0311296, 1.3247381, 0.9248142, 0
1725, 3078623359, 0.42317966, -0.3650486, 0.089492604, 0.82440746, 1.5703179, -3.2405434, 0.5424833, 0
1726, 3078640026, 0.42303437, -0.36352867, 0.09019515, 0.82507694, 2.3191493, -5.2520466, 0.18735886, 0
1728, 3078673360, 0.42370084, -0.36057964, 0.092179395, 0.8258095, 2.3951693, -1.9097327, -0.0121154785, 0
1729, 3078690027, 0.42390394, -0.3595127, 0.09345106, 0.8260274, 2.6310532, -2.6604295, -1.08922, 0
1730, 3078706694, 0.4241975, -0.35834205, 0.09475278, 0.8262371, 2.7352417, -0.8742867, -1.1949482, 0
1732, 3078740028, 0.42638743, -0.35675433, 0.09651606, 0.82559276, 2.4886916, -2.001497, 0.70195484, 0
1733, 3078756695, 0.42778987, -0.35658884, 0.09704484, 0.82487625, 1.1049246, -0.82074034, -0.09991455, 0
1734, 3078773362, 0.4289611, -0.35737804, 0.097756855, 0.8238418, 1.6191328, -2.4461737, -0.78660774, 0
1736, 3078806696, 0.43190604, -0.35813883, 0.098994225, 0.8218225, 0.89464223, 0.39828187, -0.63777256, 0
1738, 3078840030, 0.43535334, -0.35844648, 0.100125745, 0.8197297, 1.589062, 0.5581425, -0.0018596649, 0
1740, 3078873364, 0.43912774, -0.35860935, 0.100703076, 0.81757164, 0.19987729, -0.10046192, 0.5948849, 0
1741, 3078890031, 0.4407508, -0.35892767, 0.10077332, 0.8165493, -0.6046011, 0.6776449, 0.23233795, 0
1742, 3078906698, 0.44210094, -0.35948396, 0.101231165, 0.8155174, -0.59865165, 0.55461776, -0.96502876, 0
1744, 3078940032, 0.44473875, -0.35958058, 0.102347605, 0.81389976, 0.39209363, 1.4783232, 0.788558, 0
