sep=,
DeviceTag:,Xsens_DOT_4,,,,,,,,,,,,,,,,,
FirmwareVersion:,3.0.0,,,,,,,,,,,,,,,,,
AppVersion:,2023.6.1,,,,,,,,,,,,,,,,,
SyncStatus:,Synced,,,,,,,,,,,,,,,,,
OutputRate:,60Hz,,,,,,,,,,,,,,,,,
FilterProfile:,General,,,,,,,,,,,,,,,,,
Measurement Mode:,Sensor fusion Mode - Extended (Quaternion),,,,,,,,,,,,,,,,,
StartTime:,2025-05-05 11:57:36.875 +0200,,,,,,,,,,,,,,,,,
 2025,,,,,,,,,,,,,,,,,,,

PacketCounter,SampleTimeFine,Quat_W,Quat_X,Quat_Y,Quat_Z,FreeAcc_X,FreeAcc_Y,FreeAcc_Z,Status
1, 3049872784, 0.75481796, 0.103751376, -0.64768153, 2.4032593E-4, 0.050179552, 0.10042448, 0.112288475, 0
2, 3049889451, 0.7548258, 0.10364724, -0.64768904, 3.183335E-4, 0.036707085, 0.08644922, 0.069924355, 0
3, 3049906118, 0.7548278, 0.103526324, -0.6477061, 3.7918985E-4, 0.064174145, 0.10882354, 0.05953026, 0
4, 3049922785, 0.7548374, 0.10344674, -0.6477073, 4.787594E-4, 0.046656094, 0.10295264, 0.047779083, 0
5, 3049939452, 0.75483674, 0.10336947, -0.6477204, 5.52848E-4, 0.055076722, 0.08030072, 0.02495861, 0
6, 3049956119, 0.75483745, 0.103314474, -0.64772844, 6.2292814E-4, 0.04880271, 0.03283439, 0.03928566, 0
7, 3049972786, 0.7548416, 0.103276394, -0.6477295, 6.8444014E-4, 0.062355198, 0.024553122, 0.0703516, 0
8, 3049989453, 0.75484, 0.103236996, -0.6477376, 7.791966E-4, 0.014835002, 0.025571447, 0.10585308, 0
9, 3050006120, 0.75484043, 0.103155896, -0.64774996, 8.638203E-4, -0.034248624, 0.03796039, 0.11498928, 0
10, 3050022787, 0.75483984, 0.10312448, -0.6477552, 0.0010149181, -0.08449818, 0.04092701, 0.10776234, 0
11, 3050039454, 0.7548511, 0.103052676, -0.6477534, 0.0011248142, -0.06546918, 0.019126674, 0.06305885, 0
12, 3050056121, 0.75484914, 0.102985084, -0.6477662, 0.0012336224, -0.06593498, -0.03899016, 0.04118061, 0
13, 3050072788, 0.75484496, 0.10290633, -0.64778346, 0.0013851821, -0.019328954, -0.055797327, 0.030251503, 0
14, 3050089455, 0.754839, 0.102779895, -0.6478102, 0.0015092939, -0.058232278, -0.06044908, 0.07418156, 0
15, 3050106122, 0.7548324, 0.102641895, -0.6478393, 0.0016583949, -0.11385705, -0.035485923, 0.14000893, 0
16, 3050122789, 0.75483835, 0.10257396, -0.6478426, 0.0018806756, -0.108991176, -0.023189133, 0.1340599, 0
17, 3050139456, 0.7548532, 0.10245689, -0.6478434, 0.002021104, -0.11720841, -0.040482778, 0.10680866, 0
18, 3050156123, 0.7548663, 0.10232548, -0.6478485, 0.0021255761, -0.023910522, -0.015920604, 0.052702904, 0
19, 3050172790, 0.75487196, 0.10225525, -0.64785236, 0.0023234636, -0.015405854, -0.021993116, 0.027197838, 0
20, 3050189457, 0.7548699, 0.10211395, -0.6478765, 0.0024594516, -0.018663779, -0.008710076, 0.054623604, 0
21, 3050206124, 0.7548725, 0.101954825, -0.647898, 0.0026061684, -0.050890844, -6.605529E-4, 0.09616947, 0
22, 3050222791, 0.7548782, 0.10180118, -0.64791495, 0.002758935, -0.09742796, 0.04687279, 0.11630249, 0
23, 3050239458, 0.754886, 0.101713665, -0.64791864, 0.002959609, -0.008012045, 0.022680307, 0.11510372, 0
24, 3050256125, 0.7548976, 0.101562954, -0.647928, 0.0031124204, 0.0050317235, 0.011729737, 0.07183647, 0
25, 3050272792, 0.7549071, 0.10147069, -0.6479303, 0.003335476, -0.0014246716, 0.053054824, 0.042107582, 0
26, 3050289459, 0.754908, 0.101346634, -0.6479477, 0.0035229027, 0.012659774, 0.07723535, 0.07296085, 0
27, 3050306126, 0.75491154, 0.10120226, -0.6479654, 0.003682986, 0.021644548, 0.03134054, 0.05676651, 0
28, 3050322793, 0.7549142, 0.10104138, -0.64798635, 0.0038316995, -2.9101386E-4, 0.013957043, 0.0810976, 0
29, 3050339460, 0.75491345, 0.100901715, -0.64800817, 0.003995076, -0.006207849, 0.044527803, 0.06015587, 0
30, 3050356127, 0.7549197, 0.10076552, -0.64802086, 0.0041550696, -0.022553798, 0.06354965, 0.08584499, 0
31, 3050372794, 0.75492036, 0.100620806, -0.64804167, 0.0043044686, -0.012082663, 0.057158746, 0.091119766, 0
32, 3050389461, 0.7549244, 0.10048513, -0.6480571, 0.0044535995, 0.0019181882, 0.01047974, 0.088178635, 0
33, 3050406128, 0.75492907, 0.10034763, -0.6480718, 0.0046141, 0.018313106, 0.006613128, 0.09701443, 0
34, 3050422795, 0.7549308, 0.10024164, -0.64808494, 0.0047923476, -0.019794755, 0.0053806272, 0.08637333, 0
35, 3050439462, 0.7549296, 0.10014235, -0.6481, 0.0049929023, -0.034285992, -0.018805597, 0.05491829, 0
36, 3050456129, 0.7549306, 0.10002052, -0.6481163, 0.005167052, -0.02909647, -0.005391021, 0.03147316, 0
37, 3050472796, 0.75492996, 0.09985304, -0.64814156, 0.005341321, -0.040078107, 0.030936204, 0.065917015, 0
38, 3050489463, 0.7549262, 0.09971084, -0.64816624, 0.005542785, -0.04964178, 0.05428895, 0.07862568, 0
39, 3050506130, 0.7549299, 0.0995607, -0.64818317, 0.0057405084, -0.041754454, 0.030805897, 0.08986378, 0
40, 3050522797, 0.7549263, 0.0993974, -0.6482106, 0.005947575, -0.017780902, -0.009880949, 0.119109154, 0
41, 3050539464, 0.7549372, 0.09922897, -0.6482217, 0.006162092, -0.031260967, 0.012632729, 0.13657951, 0
42, 3050556131, 0.75495136, 0.09905901, -0.6482293, 0.0063468814, -0.052498277, 0.06476835, 0.114359856, 0
43, 3050572798, 0.75496745, 0.09894407, -0.6482262, 0.0065510124, -0.0148805985, 0.07856916, 0.04793358, 0
44, 3050589465, 0.7549739, 0.09876828, -0.64824396, 0.006706685, 0.08437033, 0.00701026, 0.05774021, 0
45, 3050606132, 0.75497454, 0.098576516, -0.64827037, 0.00690645, 0.10148069, 0.01694731, 0.011390686, 0
46, 3050622799, 0.7549801, 0.09837987, -0.64829105, 0.007142514, 0.08572012, 0.07449016, -0.024805069, 0
47, 3050639466, 0.75497794, 0.09820161, -0.6483184, 0.007346526, 0.036786657, 0.10586903, 0.059322357, 0
48, 3050656133, 0.75497544, 0.0980284, -0.6483452, 0.007545829, 0.06323718, 0.05343256, 0.10617256, 0
49, 3050672800, 0.75498646, 0.09784329, -0.6483584, 0.007710889, 0.044671748, 0.05048107, 0.14168072, 0
50, 3050689467, 0.7550041, 0.0977049, -0.6483565, 0.007892624, 0.015032588, 0.09217127, 0.09383106, 0
51, 3050706134, 0.7550193, 0.09763303, -0.6483472, 0.00808312, 0.09060366, 0.070429936, 0.0040359497, 0
52, 3050722801, 0.7550252, 0.09753361, -0.64835346, 0.0082413405, 0.1464059, -0.016849747, -0.03208542, 0
53, 3050739468, 0.7550283, 0.09738152, -0.64837116, 0.008358732, 0.12868088, -0.019735299, -0.039050102, 0
54, 3050756135, 0.7550234, 0.09724919, -0.6483948, 0.008504748, 0.09819908, 0.04520449, -0.014467239, 0
55, 3050772802, 0.7550147, 0.09712687, -0.64842117, 0.008651018, 0.051503196, 0.06586894, 0.06881523, 0
56, 3050789469, 0.7550067, 0.09704072, -0.6484418, 0.008769318, 0.042687844, 0.054640535, 0.14162159, 0
57, 3050806136, 0.75500584, 0.09697546, -0.6484513, 0.008868843, 0.049333334, 0.046331443, 0.16994667, 0
58, 3050822803, 0.75501853, 0.09692295, -0.6484437, 0.008925483, 0.058474183, 0.031773813, 0.042279243, 0
59, 3050839470, 0.7550251, 0.0968877, -0.6484403, 0.00899075, 0.08900465, 0.03000326, -0.0110788345, 0
60, 3050856137, 0.75501937, 0.09683962, -0.6484536, 0.009042099, 0.07573155, 0.03322375, 0.018304825, 0
61, 3050872804, 0.75500375, 0.096786276, -0.64847887, 0.009104118, 0.03987918, 0.052207932, 0.041895866, 0
62, 3050889471, 0.7549981, 0.0967556, -0.6484893, 0.009148061, 0.02135845, 0.047666263, 0.064453125, 0
63, 3050906138, 0.75498605, 0.09679017, -0.64849705, 0.009219468, 0.015665576, -0.013879484, 0.060318947, 0
64, 3050922805, 0.7549801, 0.0967894, -0.6485039, 0.009244412, -0.012226606, -0.09857145, 0.08874893, 0
65, 3050939472, 0.75497144, 0.09681602, -0.64850867, 0.009329721, -0.023249818, -0.037569623, 0.11067009, 0
66, 3050956139, 0.75497913, 0.09677266, -0.6485059, 0.009343088, -0.09039758, 0.029103063, 0.09113407, 0
67, 3050972806, 0.75497746, 0.09678837, -0.648505, 0.009385556, -0.08468861, 0.037769444, 0.05634308, 0
68, 3050989473, 0.75497305, 0.09675279, -0.6485156, 0.009373635, -0.053039625, -0.006918955, 0.061491966, 0
69, 3051006140, 0.75496274, 0.09673246, -0.64853054, 0.009379178, -0.07516607, -0.067503706, 0.081092834, 0
70, 3051022807, 0.75495815, 0.09671668, -0.648538, 0.009395167, -0.10909042, -0.047980968, 0.14774418, 0
71, 3051039474, 0.75496536, 0.09670118, -0.6485318, 0.009402558, -0.11371835, -0.011359587, 0.17074299, 0
72, 3051056141, 0.75498176, 0.096683085, -0.64851546, 0.009414434, -0.11386018, -0.0043374924, 0.16252518, 0
73, 3051072808, 0.7549927, 0.09664473, -0.6485081, 0.009435862, -0.09519193, -0.0048284386, 0.104393005, 0
74, 3051089475, 0.7549995, 0.09663456, -0.6485005, 0.0095142275, -0.11388343, 0.020298775, 0.043356895, 0
75, 3051106142, 0.7550093, 0.0965855, -0.64849555, 0.009571314, -0.06561804, 0.06123305, 0.048096657, 0
76, 3051122809, 0.75500363, 0.09653423, -0.64850855, 0.009643838, -0.017582424, 0.0036766764, 0.029593468, 0
77, 3051139476, 0.7550046, 0.09643697, -0.6485206, 0.009738341, -0.0017384838, 0.01435199, 0.08166504, 0
78, 3051156143, 0.75500655, 0.09632493, -0.6485332, 0.009849265, -0.050123673, 0.061068546, 0.12611485, 0
79, 3051172810, 0.75500786, 0.0962313, -0.6485436, 0.009982854, -0.08531489, 0.07443328, 0.16955948, 0
80, 3051189477, 0.7550141, 0.096139535, -0.648548, 0.010108948, -0.052624784, 0.026791157, 0.095314026, 0
81, 3051206144, 0.75502115, 0.0960304, -0.6485542, 0.010227054, -0.029467054, 0.04917039, 0.04642868, 0
82, 3051222811, 0.7550248, 0.095912755, -0.64856476, 0.010384068, -0.0067778067, 0.0790648, 0.04394436, 0
83, 3051239478, 0.75502896, 0.09576838, -0.6485783, 0.010577172, -0.018867832, 0.08392866, 0.034487724, 0
84, 3051256145, 0.7550349, 0.09560202, -0.64859265, 0.0107705, 0.007776016, 0.0057432773, 0.022320747, 0
85, 3051272812, 0.75502867, 0.09541389, -0.6486241, 0.010981798, -0.03218229, -0.025992433, 0.038565636, 0
86, 3051289479, 0.7550229, 0.09521641, -0.6486562, 0.011200249, -0.088198215, 0.044788755, 0.12666893, 0
87, 3051306146, 0.7550226, 0.09503965, -0.64867836, 0.011429921, -0.12432372, 0.070379645, 0.15651703, 0
88, 3051322813, 0.755032, 0.09487449, -0.6486872, 0.011670724, -0.062152248, 0.029701632, 0.13232422, 0
89, 3051339480, 0.7550352, 0.094678394, -0.64870816, 0.011902437, -0.006557423, -0.019269833, 0.0070171356, 0
90, 3051356147, 0.7550273, 0.09445769, -0.64874464, 0.01215525, -0.012653069, -0.031453077, -0.0280056, 0
91, 3051372814, 0.75502217, 0.09421283, -0.6487811, 0.012418866, -0.0041819275, -0.0011773545, 0.0268116, 0
92, 3051389481, 0.7550123, 0.093973316, -0.64882183, 0.012706727, -0.0025489416, 0.062001266, 0.096961975, 0
93, 3051406148, 0.7550008, 0.09372058, -0.64886636, 0.012977645, -0.024635151, 0.067231245, 0.072146416, 0
94, 3051422815, 0.7549853, 0.09352991, -0.6489055, 0.013299003, -0.050813437, 0.09443959, 0.09557819, 0
95, 3051439482, 0.7549786, 0.09330244, -0.64893967, 0.013599157, -0.02252966, 0.048208617, 0.06774902, 0
96, 3051456149, 0.75496835, 0.09302171, -0.6489861, 0.013888419, -0.0028554301, 0.012132114, 0.0043640137, 0
97, 3051472816, 0.7549478, 0.092740886, -0.649043, 0.014211759, -0.029285561, 0.057964396, 0.033078194, 0
98, 3051489483, 0.7549237, 0.09243864, -0.64910734, 0.014521182, -0.04821577, 0.10497778, 0.13975143, 0
99, 3051506150, 0.7549079, 0.09217924, -0.6491545, 0.014871702, 0.0013822041, 0.03849508, 0.18638706, 0
100, 3051522817, 0.7548981, 0.0919023, -0.6491972, 0.015218303, 0.032467045, 0.031314276, 0.029420853, 0
101, 3051539484, 0.75487924, 0.091617934, -0.64925146, 0.015549406, 0.040143374, 0.08588195, -0.12017059, 0
102, 3051556151, 0.75483984, 0.091371536, -0.6493233, 0.015911475, 0.09986737, 0.08922827, -0.11813736, 0
103, 3051572818, 0.7547914, 0.09109066, -0.6494105, 0.016257599, 0.12380651, 0.014184579, 0.049139023, 0
104, 3051589485, 0.75474876, 0.090785645, -0.6494944, 0.01658456, 0.030394185, -0.010455601, 0.21881962, 0
105, 3051606152, 0.75472885, 0.09054913, -0.6495422, 0.016911581, -0.11400681, 0.06987317, 0.2653017, 0
106, 3051622819, 0.75473195, 0.0903727, -0.6495563, 0.017173856, -0.16096866, 0.021250159, 0.29564857, 0
107, 3051639486, 0.7547375, 0.09026846, -0.64955825, 0.01740183, -0.11998443, -0.13935597, 0.15151691, 0
108, 3051656153, 0.75474447, 0.090156294, -0.64956075, 0.017586857, -0.08794528, -0.18343166, 0.007511139, 0
109, 3051672820, 0.7547416, 0.09003078, -0.64957595, 0.017793953, -0.073096335, -0.2702902, -0.03861332, 0
110, 3051689487, 0.7547271, 0.0898646, -0.649611, 0.017966002, -0.057711046, -0.2594687, -0.0153131485, 0
111, 3051706154, 0.75470936, 0.089658715, -0.6496568, 0.018084913, -0.054788835, -0.14875849, 0.08023548, 0
112, 3051722821, 0.75470936, 0.08951768, -0.64967287, 0.018206492, -0.084511146, -0.05493904, 0.22500801, 0
113, 3051739488, 0.75471336, 0.08943183, -0.64967793, 0.018277854, -0.04865117, 0.0182172, 0.27458, 0
114, 3051756155, 0.7547388, 0.089425966, -0.64964825, 0.018308416, -0.030948944, -0.0032237275, 0.20824528, 0
115, 3051772822, 0.75477195, 0.089394756, -0.649615, 0.018273681, 0.039387453, -0.031224312, 0.031970978, 0
116, 3051789489, 0.754796, 0.089368664, -0.6495915, 0.018240482, 0.06780712, -0.0062132133, -0.023892403, 0
117, 3051806156, 0.7548158, 0.08931676, -0.64957577, 0.018238753, 0.11824014, 0.0027495446, -0.095915794, 0
118, 3051822823, 0.7548202, 0.08923787, -0.6495808, 0.018266276, 0.10964294, 0.010419839, -0.050045013, 0
119, 3051839490, 0.75482535, 0.0891462, -0.64958614, 0.018313766, 0.09782581, 0.07589986, 0.11597538, 0
120, 3051856157, 0.7548383, 0.08905907, -0.6495823, 0.018335983, 0.05275036, 0.17103414, 0.19438457, 0
121, 3051872824, 0.7548676, 0.089017406, -0.64955443, 0.018322647, 0.05469809, 0.21945049, 0.19081593, 0
122, 3051889491, 0.7549152, 0.0890199, -0.64949983, 0.018285245, 0.16072996, 0.21784511, 0.0673542, 0
123, 3051906158, 0.75493777, 0.08903752, -0.6494724, 0.018242523, 0.22184421, 0.16851749, -0.07356548, 0
124, 3051922825, 0.75495225, 0.089014664, -0.6494605, 0.01818043, 0.23087771, 0.115827434, -0.20473957, 0
125, 3051939492, 0.7549441, 0.089012854, -0.64946955, 0.018199056, 0.23405695, 0.18419144, -0.12954903, 0
126, 3051956159, 0.75493723, 0.089009, -0.64947623, 0.018265262, 0.13188113, 0.20574401, 0.08603859, 0
127, 3051972826, 0.75492984, 0.08900117, -0.6494841, 0.018328562, 0.04398109, 0.18225078, 0.23770046, 0
128, 3051989493, 0.75494224, 0.08898877, -0.6494698, 0.018386632, 0.017451445, 0.12921083, 0.2369175, 0
129, 3052006160, 0.7549651, 0.08898133, -0.6494427, 0.018438354, 0.047583226, 0.095202774, 0.16888714, 0
130, 3052022827, 0.75499386, 0.088999376, -0.6494051, 0.01849635, 0.04429133, 0.03848759, 0.043972015, 0
131, 3052039494, 0.75502014, 0.088982366, -0.6493759, 0.018534869, 0.08633233, 0.024963714, -0.061030388, 0
132, 3052056161, 0.7550338, 0.08895226, -0.6493625, 0.018589422, 0.11783871, 0.053334214, -0.093735695, 0
133, 3052072828, 0.7550124, 0.08889513, -0.64939296, 0.018666655, -0.049855597, -0.2626096, -1.2265625, 0
134, 3052089495, 0.754895, 0.08874087, -0.64954853, 0.018736154, 0.11578016, 0.20704463, 0.5043583, 0
135, 3052106162, 0.7548448, 0.08870701, -0.6496111, 0.018755645, 0.22813475, 0.05844372, 1.5330868, 0
136, 3052122829, 0.75494355, 0.08869742, -0.64949864, 0.018718496, -0.049688272, -0.13511592, 0.3217678, 0
137, 3052139496, 0.75506645, 0.088890724, -0.6493324, 0.018611997, 0.16056545, 0.46519104, -0.102106094, 0
138, 3052156163, 0.75508773, 0.08914243, -0.64927673, 0.01848811, 0.4007033, -0.08700767, -0.27702236, 0
139, 3052172830, 0.7551516, 0.08917529, -0.649202, 0.0183426, 0.60321987, -0.2787552, -0.17411995, 0
140, 3052189497, 0.7551727, 0.08917231, -0.6491844, 0.01810725, 0.37455943, 0.3083133, -0.2876606, 0
141, 3052206164, 0.7551732, 0.08945614, -0.6491553, 0.017727852, 0.27045113, 0.26252234, -0.2497263, 0
142, 3052222831, 0.7551713, 0.08989326, -0.64910936, 0.017276362, 0.6810976, -0.23168124, -0.092907906, 0
143, 3052239498, 0.7551561, 0.09023082, -0.6490927, 0.016807497, 0.60736114, -0.19808993, -0.05402565, 0
144, 3052256165, 0.75514656, 0.090536125, -0.64907455, 0.016276568, 0.14093609, 0.3112353, 0.0830822, 0
145, 3052272832, 0.75513935, 0.09101791, -0.64903134, 0.015642405, -0.1393685, 0.38705987, 0.31608772, 0
146, 3052289499, 0.7551548, 0.09165498, -0.6489395, 0.014964074, -0.1686061, -0.08098444, 0.19798279, 0
147, 3052306166, 0.75518227, 0.09221655, -0.64884377, 0.014261827, -0.05256533, -0.32072085, 0.048005104, 0
148, 3052322833, 0.7551754, 0.0926699, -0.6488027, 0.013538897, -0.29405946, -0.08319219, -0.16626644, 0
149, 3052339500, 0.7551431, 0.09323651, -0.648772, 0.012901276, -0.38737836, 0.09280682, -0.054415703, 0
150, 3052356167, 0.7550874, 0.093771204, -0.6487714, 0.012316436, -0.22000425, -0.0839727, 0.18790913, 0
151, 3052372834, 0.7550587, 0.094188415, -0.6487532, 0.011835784, -0.25002652, -0.091334544, 0.3083496, 0
152, 3052389501, 0.7550544, 0.09447842, -0.64872324, 0.01143679, -0.42749447, 0.21265191, 0.32975864, 0
153, 3052406168, 0.75505006, 0.094718516, -0.6486985, 0.011135191, -0.54768634, 0.29939762, 0.27038956, 0
154, 3052422835, 0.75507283, 0.094858624, -0.6486539, 0.010990977, -0.51660323, 0.12382718, 0.26310158, 0
155, 3052439502, 0.75510156, 0.09480913, -0.6486265, 0.011062354, -0.40067783, 0.089931, 0.2022543, 0
156, 3052456169, 0.75512254, 0.09450438, -0.64864314, 0.011262402, -0.53183836, 0.14640623, 0.115208626, 0
157, 3052472836, 0.75513935, 0.094132185, -0.6486709, 0.011653438, -0.5289166, 0.09099905, 0.11788845, 0
158, 3052489503, 0.75514364, 0.09365478, -0.6487261, 0.012129903, -0.41090927, -0.17203888, 0.063539505, 0
159, 3052506170, 0.75514805, 0.09310145, -0.6487888, 0.012747794, -0.35573608, -0.28724042, 0.0920763, 0
160, 3052522837, 0.7551572, 0.09236893, -0.648872, 0.01329492, -0.3576815, -0.14538154, 0.13027096, 0
161, 3052539504, 0.75516087, 0.09172001, -0.6489456, 0.013966307, -0.33974102, -0.04619845, 0.14413357, 0
162, 3052556171, 0.75516397, 0.091137126, -0.6490105, 0.014583886, -0.18037853, -0.16555169, 0.12419605, 0
163, 3052572838, 0.75516343, 0.090626344, -0.6490704, 0.015114024, -0.111324206, -0.2924269, 0.100515366, 0
164, 3052589505, 0.75515825, 0.09019295, -0.6491264, 0.01556927, -0.0942496, -0.2924715, 0.061187744, 0
165, 3052606172, 0.75515467, 0.0898845, -0.6491645, 0.015913248, -0.15052748, -0.1453602, 0.079257965, 0
166, 3052622839, 0.7551556, 0.08969613, -0.64918375, 0.01615335, -0.15243629, -0.09600284, 0.19377518, 0
167, 3052639506, 0.7551577, 0.08971084, -0.64917153, 0.016460076, -0.19937132, -0.09803993, 0.15009212, 0
168, 3052656173, 0.7551707, 0.08965753, -0.649161, 0.016568765, -0.2517261, -0.11872114, 0.1203661, 0
169, 3052672840, 0.75518554, 0.08965971, -0.6491408, 0.016664982, -0.2122649, -0.18169044, 0.09917259, 0
170, 3052689507, 0.75519377, 0.089629196, -0.6491347, 0.016702875, -0.19556299, -0.2393889, 0.06407738, 0
171, 3052706174, 0.7551973, 0.089555904, -0.64913833, 0.016792879, -0.22197206, -0.23757394, 0.06722736, 0
172, 3052722841, 0.75520426, 0.089389935, -0.64915, 0.016912416, -0.1899708, -0.13001223, 0.09933281, 0
173, 3052739508, 0.7552027, 0.089130856, -0.64918256, 0.01709862, -0.21113615, -0.05925574, 0.06429577, 0
174, 3052756175, 0.7551985, 0.0888086, -0.64922523, 0.01733686, -0.13708586, 0.04256715, 0.0823946, 0
175, 3052772842, 0.7551815, 0.08845572, -0.6492849, 0.017644674, -0.048888095, 0.06352227, 0.065327644, 0
176, 3052789509, 0.7551757, 0.088001646, -0.6493467, 0.017891005, 0.06870788, 0.046851892, 0.12192631, 0
177, 3052806176, 0.7551647, 0.08760263, -0.6494053, 0.018188298, 0.09897109, 0.074280955, 0.10437012, 0
178, 3052822843, 0.7551696, 0.08722826, -0.6494415, 0.018487856, 0.13095044, 0.15540174, 0.12714672, 0
179, 3052839510, 0.75517577, 0.08690388, -0.6494694, 0.01877737, 0.1565355, 0.17848705, 0.056567192, 0
180, 3052856177, 0.7551743, 0.08659326, -0.64950496, 0.019043341, 0.1665395, 0.16271955, 0.036982536, 0
181, 3052872844, 0.75517786, 0.086278245, -0.6495351, 0.01929544, 0.1726137, 0.13310242, 0.012856483, 0
182, 3052889511, 0.75517917, 0.08599324, -0.64956343, 0.019561261, 0.075595655, 0.16920646, 0.0944767, 0
183, 3052906178, 0.75518906, 0.08574619, -0.64957625, 0.019836262, -0.005836914, 0.1663363, 0.1525116, 0
184, 3052922845, 0.7552094, 0.085509636, -0.6495762, 0.020091876, -0.0119043, 0.12965775, 0.09620762, 0
185, 3052939512, 0.7552143, 0.085246675, -0.64959717, 0.020337552, -0.037801404, 0.04967553, -0.022942543, 0
186, 3052956179, 0.7552059, 0.084978014, -0.6496328, 0.020633876, -0.06266901, 0.03499464, 0.01482296, 0
187, 3052972846, 0.755193, 0.084673, -0.6496782, 0.02093473, -0.10812841, 0.018345607, 0.059001923, 0
188, 3052989513, 0.7551805, 0.084333494, -0.6497259, 0.021269426, -0.14707644, 0.014539294, 0.123298645, 0
189, 3053006180, 0.7551789, 0.08395384, -0.6497644, 0.021650761, -0.13169384, -0.0075044474, 0.12857914, 0
190, 3053022847, 0.7551835, 0.08353957, -0.64979684, 0.022114664, -0.12762411, 0.030482026, 0.15046024, 0
191, 3053039514, 0.75518, 0.08303591, -0.6498494, 0.022578731, -0.104116805, 0.039452944, 0.04417038, 0
192, 3053056181, 0.75516146, 0.082519025, -0.6499191, 0.023083046, -0.047091052, 0.056990217, 0.020000458, 0
193, 3053072848, 0.75515395, 0.08200674, -0.64997274, 0.023636252, -0.029484935, 0.046826746, 0.074902534, 0
194, 3053089515, 0.75512624, 0.081517786, -0.65004593, 0.024193957, -0.024148786, 0.08494844, 0.048869133, 0
195, 3053106182, 0.7551054, 0.08100935, -0.6501141, 0.024713278, -0.00443289, 0.14020126, 0.019005775, 0
196, 3053122849, 0.7550761, 0.08054744, -0.65018517, 0.025243953, 0.11296568, 0.14097252, 0.04749012, 0
197, 3053139516, 0.75506306, 0.08009554, -0.6502362, 0.025754169, 0.1833821, 0.13587464, 0.13558483, 0
198, 3053156183, 0.75506777, 0.07964937, -0.65026593, 0.026247308, 0.183961, 0.11157275, 0.15031147, 0
199, 3053172850, 0.75507873, 0.07919128, -0.6502899, 0.026718527, 0.17686982, 0.07901328, 0.093372345, 0
200, 3053189517, 0.75507313, 0.07872325, -0.65033484, 0.027163953, 0.12689814, 0.03370743, -0.05757618, 0
201, 3053206184, 0.7550708, 0.07828766, -0.6503695, 0.027650997, 0.0483083, -0.014035719, -0.068427086, 0
202, 3053222851, 0.7550474, 0.07784244, -0.6504332, 0.028047487, 0.02716487, -0.02276446, 0.01701641, 0
203, 3053239518, 0.7550219, 0.07750071, -0.65048814, 0.028401673, 0.038930144, -0.06752997, 0.03713894, 0
204, 3053256185, 0.75500745, 0.07725097, -0.6505214, 0.02870281, 0.058133036, -0.12696005, 0.16353989, 0
205, 3053272852, 0.75500774, 0.07704058, -0.65053594, 0.02892834, 0.042960532, -0.06407423, 0.1503067, 0
206, 3053289519, 0.7550111, 0.07696182, -0.65052956, 0.029193804, -0.038749546, -0.02154095, 0.10361099, 0
207, 3053306186, 0.7550025, 0.07686651, -0.65054244, 0.029378206, -0.0537579, -0.046059567, 0.049681664, 0
208, 3053322853, 0.75492406, 0.0766595, -0.6506507, 0.029537216, -0.31046352, -0.6730525, -2.0589786, 0
209, 3053339520, 0.7547864, 0.07639646, -0.6508343, 0.02969648, 0.16707727, 0.82596153, 2.370739, 0
210, 3053356187, 0.7548052, 0.07614694, -0.6508343, 0.029856145, 0.26006538, -0.50104576, 0.8757782, 0
211, 3053372854, 0.7549382, 0.07588426, -0.6507002, 0.030081049, -0.11188477, 0.5460266, -0.48780823, 0
212, 3053389521, 0.75496054, 0.0758497, -0.650666, 0.030350879, 0.47457656, 0.8205062, -0.44338894, 0
213, 3053406188, 0.7548941, 0.07559545, -0.65076, 0.030617967, 0.5529192, 0.0247687, -0.049217224, 0
214, 3053422855, 0.754926, 0.074962765, -0.65078443, 0.03086774, 0.5638137, 0.03986823, -0.037517548, 0
215, 3053439522, 0.7549217, 0.07448363, -0.6508267, 0.031241372, 0.43190572, 0.8561325, 0.091236115, 0
216, 3053456189, 0.7549153, 0.074328676, -0.6508366, 0.03155513, 0.4953731, 0.3823009, -0.039484978, 0
217, 3053472856, 0.75493693, 0.07419895, -0.6508156, 0.031774536, 1.0717465, -0.124067575, 0.018540382, 0
218, 3053489523, 0.7549264, 0.07394729, -0.65084946, 0.031920984, 0.9016276, 0.26049352, -0.45612335, 0
219, 3053506190, 0.75488794, 0.07388548, -0.6508972, 0.03199765, 0.49641377, 0.9266187, -0.2823286, 0
220, 3053522857, 0.75483227, 0.07404674, -0.6509462, 0.031938374, 0.49919024, 0.45481956, 0.1274662, 0
221, 3053539524, 0.7548198, 0.07419068, -0.6509474, 0.031873807, 0.39568722, -0.23696777, 0.1726532, 0
222, 3053556191, 0.75484043, 0.07417364, -0.65092695, 0.03184603, 0.21437351, -0.08051473, 0.22280025, 0
223, 3053572858, 0.7548286, 0.07418479, -0.6509394, 0.03184378, -0.26166797, 0.32735395, 0.15879154, 0
224, 3053589525, 0.7548239, 0.07427935, -0.65093195, 0.03188853, -0.34406155, -0.026574573, 0.05235195, 0
225, 3053606192, 0.7548091, 0.07421055, -0.65095216, 0.031985804, -0.15938038, -0.42794114, 0.04548645, 0
226, 3053622859, 0.75479174, 0.073875904, -0.6510051, 0.03209485, -0.3272203, -0.33435112, 0.07570362, 0
227, 3053639526, 0.7547733, 0.07358902, -0.6510497, 0.032279655, -0.48951617, -0.023856543, 0.2281599, 0
228, 3053656193, 0.7547617, 0.0734225, -0.6510728, 0.0324658, -0.48459217, -0.08797738, 0.3051834, 0
229, 3053672860, 0.75476855, 0.07325763, -0.6510737, 0.03265974, -0.32686356, -0.34189993, 0.23972034, 0
230, 3053689527, 0.7547854, 0.072992705, -0.6510741, 0.03285341, -0.29270944, -0.049308077, 0.20538425, 0
231, 3053706194, 0.75480545, 0.07278146, -0.6510653, 0.033037454, -0.4595395, 0.20838828, 0.09836769, 0
232, 3053722861, 0.75481015, 0.0726773, -0.65106344, 0.033195972, -0.28767386, -0.02114395, -0.075024605, 0
233, 3053739528, 0.75479347, 0.072555594, -0.6510867, 0.03338422, -0.1059894, -0.31586662, -0.028623581, 0
234, 3053756195, 0.75477946, 0.0723259, -0.65111804, 0.033586383, -0.16401514, -0.18341093, 0.066765785, 0
235, 3053772862, 0.75475544, 0.0721286, -0.6511577, 0.03378412, -0.36960503, 0.15326563, 0.19443893, 0
236, 3053789529, 0.7547468, 0.07203204, -0.6511662, 0.03401445, -0.3759716, 0.10305154, 0.11735153, 0
237, 3053806196, 0.7547289, 0.07193883, -0.651184, 0.034266025, -0.16089311, -0.056850966, 0.11707592, 0
238, 3053822863, 0.7547068, 0.071743116, -0.6512167, 0.03454657, -0.17880902, -0.11724886, 0.06635475, 0
239, 3053839530, 0.7546867, 0.071484335, -0.6512541, 0.034812167, -0.23807795, 0.03887494, -0.004647255, 0
240, 3053856197, 0.75462806, 0.07129685, -0.6513276, 0.0350962, -0.21520722, 0.00803965, -0.021065712, 0
241, 3053872864, 0.75457686, 0.071108654, -0.6513907, 0.035401657, -0.09360454, -0.18389753, 0.1464529, 0
242, 3053889531, 0.75453967, 0.07084705, -0.6514448, 0.035721257, -0.1982922, -0.08668626, 0.08279514, 0
243, 3053906198, 0.7545219, 0.0707433, -0.65145767, 0.03606966, -0.2662254, 0.52681935, 0.1230669, 0
244, 3053922865, 0.7544938, 0.070599265, -0.65149075, 0.036340147, -0.0030442465, -0.34940708, 0.35519505, 0
245, 3053939532, 0.7544606, 0.07016846, -0.6515579, 0.036658704, 0.14638594, -0.6497203, 0.04046917, 0
246, 3053956199, 0.7544532, 0.06988768, -0.6515745, 0.037049934, -0.4140609, 0.2568708, -0.024149895, 0
247, 3053972866, 0.75439787, 0.06977182, -0.6516345, 0.03733951, -0.64972174, 0.4523025, -0.060931206, 0
248, 3053989533, 0.7543621, 0.06960438, -0.6516799, 0.03758025, -0.08362067, -0.7688389, 0.18170929, 0
249, 3054006200, 0.754345, 0.06919412, -0.65172905, 0.037829295, 0.2893469, -0.8411724, 0.3947649, 0
250, 3054022867, 0.754342, 0.06861173, -0.6517798, 0.03807269, -0.29608762, 0.32816607, 0.19323349, 0
251, 3054039534, 0.7543641, 0.068357766, -0.6517616, 0.038403064, -0.15803617, 0.73639137, 0.099226, 0
252, 3054056201, 0.7543779, 0.06824741, -0.65173787, 0.03872946, 0.37933815, 0.15475288, 0.120093346, 0
253, 3054072868, 0.75440925, 0.067892015, -0.65172607, 0.03894025, 0.553372, -0.0124084335, -0.10097885, 0
254, 3054089535, 0.7544137, 0.06763674, -0.65173256, 0.03918986, 0.3665903, 0.3851935, -0.14404964, 0
255, 3054106202, 0.75438476, 0.06762223, -0.6517577, 0.039351255, 0.13180335, 0.4686898, -0.16144753, 0
256, 3054122869, 0.7543723, 0.06771566, -0.6517554, 0.039467424, 0.4189093, 0.014645239, 0.017691612, 0
257, 3054139536, 0.7543485, 0.06767082, -0.6517829, 0.039547443, 0.45566013, -0.07359952, 0.12905025, 0
258, 3054156203, 0.75433195, 0.067552336, -0.65180755, 0.03965929, 0.030167097, 0.243415, 0.12694645, 0
259, 3054172870, 0.7543139, 0.06750582, -0.6518233, 0.03982207, -0.1168642, 0.23171711, 0.12104797, 0
260, 3054189537, 0.7543002, 0.0673983, -0.6518342, 0.040085644, 5.7666344E-5, -0.23604164, 0.16177368, 0
261, 3054206204, 0.75430757, 0.06706934, -0.6518401, 0.040401354, 0.040665947, -0.1621592, 0.17636395, 0
262, 3054222871, 0.75429535, 0.0666653, -0.6518795, 0.040659055, -0.11438276, 0.22838934, 0.0034227371, 0
263, 3054239538, 0.75428444, 0.066504315, -0.6518937, 0.040898502, -0.24121071, 0.15727735, -0.027511597, 0
264, 3054256205, 0.75427264, 0.06646956, -0.65189976, 0.041075006, 0.044018194, -0.25302908, 0.0027179718, 0
265, 3054272872, 0.7542542, 0.06638145, -0.6519243, 0.041167855, 0.08476014, -0.34287012, 0.12143421, 0
266, 3054289539, 0.75426006, 0.06631032, -0.6519246, 0.041167945, -0.04646298, -0.04098948, 0.08424282, 0
267, 3054306206, 0.7542704, 0.06640999, -0.6519079, 0.04108329, 0.022526978, 0.009995164, 0.066446304, 0
268, 3054322873, 0.7542644, 0.06661965, -0.6519054, 0.040893927, 0.15551674, -0.36222777, 7.0858E-4, 0
269, 3054339540, 0.7542711, 0.06676333, -0.65190107, 0.040602624, 0.30360883, -0.49257785, 0.06371498, 0
270, 3054356207, 0.7542818, 0.066869214, -0.6518984, 0.04027377, 0.12481153, -0.100537695, -0.014360428, 0
271, 3054372874, 0.75428104, 0.06718547, -0.65188956, 0.039900392, -0.09406677, 0.5148738, 0.0744915, 0
272, 3054389541, 0.7542883, 0.06768731, -0.6518595, 0.039402157, 0.05155684, 0.20536035, 0.12635517, 0
273, 3054406208, 0.7542933, 0.06813637, -0.65183705, 0.03890215, 0.2510417, -0.2500063, 0.1708126, 0
274, 3054422875, 0.7543229, 0.06837282, -0.65180826, 0.038392797, 0.1065969, -0.06485418, 0.13927937, 0
275, 3054439542, 0.75435084, 0.068691075, -0.65176463, 0.038015604, -0.12648599, 0.3358574, 0.124248505, 0
276, 3054456209, 0.7543702, 0.06907181, -0.6517237, 0.037640065, -0.06287643, 0.31887946, 0.12524986, 0
277, 3054472876, 0.7543976, 0.06938694, -0.65167546, 0.03734821, 0.106819525, 0.05374503, 0.09740353, 0
278, 3054489543, 0.7544361, 0.069526166, -0.65162915, 0.037115708, 0.0063030655, 0.30264056, 0.03945923, 0
279, 3054506210, 0.7544818, 0.069650255, -0.65157133, 0.036969677, -0.04401596, 0.5378045, 0.010871887, 0
280, 3054522877, 0.75451726, 0.06968391, -0.6515314, 0.036884993, 0.1406366, 0.36019996, 0.029994965, 0
281, 3054539544, 0.7545458, 0.06966158, -0.6514991, 0.036913022, 0.25015166, 0.116418734, 0.09053421, 0
282, 3054556211, 0.7545795, 0.06949779, -0.65147567, 0.036946684, 0.28710034, -0.050410993, 0.14957237, 0
283, 3054572878, 0.75462997, 0.06936546, -0.6514267, 0.03702894, 0.124056846, 0.038425453, 0.011094093, 0
284, 3054589545, 0.7546653, 0.06931845, -0.6513896, 0.03704925, 0.057109796, 0.061304014, 0.056747437, 0
285, 3054606212, 0.7547099, 0.069283, -0.65134513, 0.036989614, 0.061913982, -0.06285531, 0.09838009, 0
286, 3054622879, 0.7547527, 0.06921856, -0.6513049, 0.036944836, 0.16987655, -0.05308634, 0.07643318, 0
287, 3054639546, 0.75480604, 0.069143064, -0.6512551, 0.03687431, 0.1223349, 0.10728924, -0.036684036, 0
288, 3054656213, 0.75483435, 0.0691307, -0.65122914, 0.03677419, 0.047884073, 0.15218025, 0.0072460175, 0
289, 3054672880, 0.7548542, 0.06921914, -0.6512009, 0.03669992, 0.037298948, 0.07760236, 0.014260292, 0
290, 3054689547, 0.75487274, 0.0693194, -0.6511746, 0.036598027, -0.14443094, -0.022004962, -0.58383846, 0
291, 3054706214, 0.7547238, 0.06942077, -0.6513355, 0.036613956, -0.270891, -0.12407741, -1.5787907, 0
292, 3054722881, 0.75462395, 0.069467224, -0.6514542, 0.03647007, 0.48842633, 0.74872357, 2.96597, 0
293, 3054739548, 0.75472414, 0.06938528, -0.65134734, 0.036465526, 0.36192873, -0.47086403, 0.3274927, 0
294, 3054756215, 0.754824, 0.06928852, -0.651241, 0.03647928, 0.119448885, 0.74409187, -0.33487225, 0
295, 3054772882, 0.7548373, 0.069381915, -0.6512166, 0.03646323, -0.05049381, 0.5775377, -0.22742462, 0
296, 3054789549, 0.7548898, 0.06939754, -0.651154, 0.03646314, 0.3392976, -0.16619998, -0.38252735, 0
297, 3054806216, 0.7548986, 0.06919217, -0.6511647, 0.036481857, 0.6988982, -0.038656343, -0.41557884, 0
298, 3054822883, 0.75488794, 0.06907339, -0.65119123, 0.036453858, 0.7791166, 0.39616734, 0.008349419, 0
299, 3054839550, 0.7549055, 0.06918861, -0.6511657, 0.036327377, 1.0520183, 0.44138902, 0.3932047, 0
300, 3054856217, 0.7549531, 0.0693803, -0.6511043, 0.0360761, 1.076509, 0.32146752, 0.24926758, 0
301, 3054872884, 0.75503355, 0.06957932, -0.6510059, 0.035779014, 0.8438034, 0.4465494, -0.08875656, 0
302, 3054889551, 0.75509053, 0.069821596, -0.650931, 0.035465613, 0.42534873, 0.52327067, -0.2797823, 0
303, 3054906218, 0.755096, 0.070081, -0.6509163, 0.035108298, 0.06395734, 0.014289295, -0.23317242, 0
304, 3054922885, 0.755096, 0.07028292, -0.6509112, 0.034797505, -0.28209615, -0.4632877, 0.10979843, 0
305, 3054939552, 0.7551308, 0.07040759, -0.65087795, 0.034408033, -0.555693, -0.59753865, 0.22832108, 0
306, 3054956219, 0.7551864, 0.07061272, -0.6508121, 0.034015357, -0.67353797, -0.48921165, 0.2156496, 0
307, 3054972886, 0.7552454, 0.07082962, -0.6507425, 0.033582464, -0.6204504, -0.20935135, 0.08360195, 0
308, 3054989553, 0.75529075, 0.07106605, -0.6506834, 0.033205688, -0.52880573, -0.13242674, 0.080449104, 0
309, 3055006220, 0.7553205, 0.07125273, -0.6506459, 0.032860205, -0.4375798, -0.15289125, 0.29529, 0
310, 3055022887, 0.7553461, 0.07140219, -0.6506207, 0.03244455, -0.56178284, -0.21189286, 0.16268158, 0
311, 3055039554, 0.7553642, 0.07168592, -0.6505899, 0.03201124, -0.60294545, -0.3917517, 0.29358387, 0
312, 3055056221, 0.7553967, 0.07199429, -0.65054315, 0.031497672, -0.5831252, -0.57851523, 0.20075607, 0
313, 3055072888, 0.7554407, 0.07227057, -0.6504879, 0.030946106, -0.6147411, -0.43548828, 0.07457161, 0
314, 3055089555, 0.7554723, 0.07255761, -0.6504465, 0.030370459, -0.6576319, -0.0415201, 0.06464672, 0
315, 3055106222, 0.7554769, 0.07289128, -0.65043193, 0.029766455, -0.4629843, 0.13246071, -0.06689358, 0
316, 3055122889, 0.7554643, 0.073319905, -0.65042126, 0.029261917, -0.15549886, -0.11622819, 0.061118126, 0
317, 3055139556, 0.7554482, 0.07363988, -0.6504257, 0.028766438, 0.030885467, -0.22870997, 0.14095974, 0
318, 3055156223, 0.7554412, 0.07390895, -0.65042704, 0.028226137, -0.10272611, 0.10191766, 0.27171898, 0
319, 3055172890, 0.755444, 0.07432543, -0.65039945, 0.027683452, -0.13480419, 0.2576885, 0.31898212, 0
320, 3055189557, 0.7554482, 0.074802294, -0.65036285, 0.027141318, -0.16364323, 0.20086204, 0.17911911, 0
321, 3055206224, 0.75544107, 0.075282656, -0.65033513, 0.026672408, -0.27378103, 0.09658006, -0.008683205, 0
322, 3055222891, 0.7554051, 0.07562875, -0.6503528, 0.026279286, -0.32624665, -0.01994149, -0.1821127, 0
323, 3055239558, 0.75534534, 0.07582131, -0.6504115, 0.025983378, -0.39462957, -0.118113525, -0.009963989, 0
324, 3055256225, 0.75530446, 0.07594284, -0.6504529, 0.02578047, -0.47619882, -0.13391869, 0.34955692, 0
325, 3055272892, 0.7552976, 0.076107726, -0.65044904, 0.025595278, -0.44602993, -0.040823635, 0.2768774, 0
326, 3055289559, 0.75528014, 0.07634034, -0.6504518, 0.025346324, -0.3921794, 0.12119923, 0.3739767, 0
327, 3055306226, 0.7552634, 0.07668946, -0.6504397, 0.025099918, -0.3907449, -0.11890833, 0.083465576, 0
328, 3055322893, 0.75523454, 0.07695341, -0.65045273, 0.024821177, -0.21786836, -0.2675582, 0.20966053, 0
329, 3055339560, 0.75520325, 0.07704975, -0.6504862, 0.024596214, -0.3911383, -0.6213088, 0.3433981, 0
330, 3055356227, 0.75524956, 0.07697205, -0.65044415, 0.024527937, -0.7734684, -0.36020097, 0.28566742, 0
331, 3055372894, 0.7553196, 0.07693616, -0.65036935, 0.024466336, -0.8834305, 0.254846, 0.37639618, 0
332, 3055389561, 0.75542104, 0.0770067, -0.65024596, 0.024394467, -0.4534144, -0.071710385, 0.36870193, 0
333, 3055406228, 0.75553805, 0.077013925, -0.6501119, 0.024322212, -0.12153785, -0.11101643, 0.35830784, 0
334, 3055422895, 0.75565386, 0.076994605, -0.64997977, 0.024318099, 0.056567106, -0.06365626, -0.013662338, 0
335, 3055439562, 0.7557432, 0.07695084, -0.64987946, 0.024359494, 0.6031828, 0.15884161, -0.5778208, 0
336, 3055456229, 0.7557723, 0.07691546, -0.64985025, 0.024349272, 0.76567674, 0.35407984, -0.31269932, 0
337, 3055472896, 0.75579095, 0.07689496, -0.64983493, 0.024240151, 0.78334945, 0.44560447, 0.09390259, 0
338, 3055489563, 0.7558396, 0.07690943, -0.6497832, 0.02406703, 0.5582053, 0.23358333, 0.7132988, 0
339, 3055506230, 0.75597036, 0.076990835, -0.6496288, 0.023866788, 0.40507567, 0.02423942, 0.6220436, 0
340, 3055522897, 0.75614625, 0.07715286, -0.64941186, 0.02367188, 0.35193858, -0.13104777, -0.103048325, 0
341, 3055539564, 0.75632334, 0.077350795, -0.6491902, 0.023446277, 0.56370103, 0.2345859, -0.3175888, 0
342, 3055556231, 0.7564683, 0.07748053, -0.64901745, 0.02311723, 0.93059486, 0.9998128, -0.5409584, 0
343, 3055572898, 0.7565588, 0.077640794, -0.6489058, 0.022753477, 1.4458702, 1.3218077, -0.52401924, 0
344, 3055589565, 0.75662565, 0.07779342, -0.6488229, 0.022370398, 2.0020428, 1.1125443, -0.4490919, 0
345, 3055606232, 0.75664896, 0.077922955, -0.648791, 0.02205588, 2.1099687, 0.9194781, -0.50351906, 0
346, 3055622899, 0.75665593, 0.07798566, -0.64878285, 0.021834403, 2.0761364, 0.75209314, -0.20084286, 0
347, 3055639566, 0.7566899, 0.077912815, -0.64875984, 0.021600798, 1.9794372, 0.74609095, 0.09509182, 0
348, 3055656233, 0.75677836, 0.07779505, -0.6486787, 0.021361202, 1.9619751, 1.0205779, 0.033971786, 0
349, 3055672900, 0.7568704, 0.07781624, -0.6485765, 0.021124363, 2.0911772, 1.5715249, -0.107302666, 0
350, 3055689567, 0.756926, 0.07793209, -0.64850485, 0.02090256, 2.4625404, 1.4359629, -0.40778065, 0
351, 3055706234, 0.7569774, 0.07771475, -0.6484776, 0.020694405, 2.7322485, 0.8664429, -0.91880035, 0
352, 3055722901, 0.75703704, 0.07705721, -0.64849246, 0.020506576, 3.0842292, 1.0730553, -0.6071129, 0
353, 3055739568, 0.7570496, 0.076423325, -0.6485582, 0.020336866, 2.9306474, 1.5109437, -0.33318233, 0
354, 3055756235, 0.75707483, 0.07607497, -0.64857733, 0.020087436, 2.5860364, 1.4711522, -0.49937057, 0
355, 3055772902, 0.7571067, 0.07579675, -0.6485858, 0.01966378, 3.070359, 0.8440933, -0.15156937, 0
356, 3055789569, 0.75713503, 0.075340144, -0.64862055, 0.019175276, 2.7697575, 0.77467644, -0.71806335, 0
357, 3055806236, 0.7572254, 0.07474449, -0.648601, 0.01859048, 2.8153963, 1.3415838, -0.31187057, 0
358, 3055822903, 0.75725466, 0.07414383, -0.6486525, 0.017997101, 3.0891838, 1.2277533, -0.64831734, 0
359, 3055839570, 0.757237, 0.07352378, -0.648757, 0.017514229, 2.678885, 1.4372377, -0.4949093, 0
360, 3055856237, 0.7572433, 0.072789885, -0.6488444, 0.017059177, 2.607914, 1.4364164, -0.18281269, 0
361, 3055872904, 0.75728005, 0.07180144, -0.6489214, 0.016685724, 3.097044, 1.4485798, 0.10258007, 0
362, 3055889571, 0.75728446, 0.07068574, -0.64904654, 0.016376242, 2.2537732, 1.5869061, -1.1166992, 0
363, 3055906238, 0.75725555, 0.06955938, -0.649207, 0.01618655, 3.2535741, 1.3916308, -0.13027954, 0
364, 3055922905, 0.7572382, 0.068234354, -0.649369, 0.016134828, 3.20054, 1.304244, -0.21368504, 0
365, 3055939572, 0.7572817, 0.06657135, -0.64948857, 0.0162265, 3.0432158, 1.8504468, -1.2414732, 0
366, 3055956239, 0.75726986, 0.06466735, -0.64968973, 0.016416937, 3.607055, 2.2235017, -0.37892818, 0
367, 3055972906, 0.75719064, 0.06270253, -0.649968, 0.01667726, 4.015278, 1.8358924, -0.6276579, 0
368, 3055989573, 0.75704056, 0.060817726, -0.65031517, 0.016943961, 3.4257336, 1.6398891, -0.45928764, 0
369, 3056006240, 0.7569895, 0.05908458, -0.65053064, 0.017084137, 3.339052, 1.1004051, 0.1621437, 0
370, 3056022907, 0.75707656, 0.057419725, -0.6505771, 0.01712948, 3.3981464, 1.1104947, -0.09328461, 0
371, 3056039574, 0.75709116, 0.05588466, -0.65069395, 0.01711829, 3.0400748, 1.8233097, -0.59018993, 0
372, 3056056241, 0.75706404, 0.05439534, -0.6508509, 0.017148837, 3.0823073, 1.9334478, -0.90114784, 0
373, 3056072908, 0.7570675, 0.052793823, -0.650975, 0.01728946, 2.801212, 1.8198104, -0.58348465, 0
374, 3056089575, 0.75709563, 0.05118434, -0.65106547, 0.017488673, 3.4658613, 1.9623543, 0.17987156, 0
375, 3056106242, 0.7569206, 0.049569167, -0.65138704, 0.017750233, 3.180874, 1.484425, -0.67383766, 0
376, 3056122909, 0.7568307, 0.047974415, -0.6515974, 0.018229812, 2.3751938, 1.897368, -1.4996376, 0
377, 3056139576, 0.75666434, 0.046396114, -0.65188825, 0.018816248, 2.7716541, 1.723082, 0.6025467, 0
378, 3056156243, 0.75645655, 0.044549435, -0.65223527, 0.019593403, 2.337947, 1.2354133, -0.17154789, 0
379, 3056172910, 0.75625867, 0.042589888, -0.6525658, 0.020557106, 1.3050992, 1.3591357, -0.8109617, 0
380, 3056189577, 0.7560425, 0.040731564, -0.65289927, 0.021660179, 1.4084151, 1.8609653, -0.8534689, 0
381, 3056206244, 0.7558199, 0.039112173, -0.6532157, 0.022838518, 1.4617746, 1.8227386, -0.5668793, 0
382, 3056222911, 0.75549227, 0.037462287, -0.6536461, 0.024096042, 1.8176912, 1.5835092, -1.8953376, 0
383, 3056239578, 0.755046, 0.035596512, -0.65421194, 0.025514781, 1.0899796, 1.0509315, -0.6543093, 0
384, 3056256245, 0.7545542, 0.033755958, -0.6548117, 0.027131185, 0.7118675, 0.52116686, -1.77495, 0
385, 3056272912, 0.7539469, 0.03208223, -0.65551674, 0.028956667, -0.059217077, 1.1331728, 0.789217, 0
386, 3056289579, 0.7533869, 0.03094726, -0.6561446, 0.030507311, -1.301751, 1.7338854, 1.3216105, 0
387, 3056306246, 0.75291806, 0.030294344, -0.6566552, 0.031724945, -1.5522367, 0.087006554, 0.69728756, 0
388, 3056322913, 0.75259024, 0.029711545, -0.657005, 0.032794908, -0.8692526, -1.1873584, 1.0805473, 0
389, 3056339580, 0.75228894, 0.029202245, -0.6573164, 0.033906847, -0.91847956, -0.79103434, 1.0819407, 0
390, 3056356247, 0.75206196, 0.02914057, -0.6575278, 0.034882605, -1.6747768, -0.52978826, 0.45895958, 0
391, 3056372914, 0.75183004, 0.029493265, -0.6577445, 0.035493433, -2.1471205, -0.87171686, 1.2857094, 0
392, 3056389581, 0.75178725, 0.030112445, -0.65776175, 0.035559967, -2.9892144, -1.7937493, 1.7809906, 0
393, 3056406248, 0.7518527, 0.030910835, -0.6576649, 0.035280764, -3.2561507, -2.8660114, 1.3463974, 0
394, 3056422915, 0.7520027, 0.031781025, -0.6574746, 0.03485498, -4.001078, -3.4966142, 1.0949802, 0
395, 3056439582, 0.75223, 0.03256531, -0.6572038, 0.034329608, -4.0088935, -2.8011954, 0.40064144, 0
396, 3056456249, 0.7523508, 0.033222698, -0.6570712, 0.03358516, -4.1042514, -2.0456855, 0.5088377, 0
397, 3056472916, 0.7524954, 0.033879884, -0.6569178, 0.032679036, -2.6592665, -1.6514214, 0.33398724, 0
398, 3056489583, 0.75251657, 0.034477644, -0.6569101, 0.031699926, -1.9079568, -2.2231295, -0.19752789, 0
399, 3056506250, 0.7526438, 0.034964234, -0.6567858, 0.030710146, -2.2473934, -1.7643558, 0.6434336, 0
400, 3056522917, 0.75277555, 0.035579592, -0.6566548, 0.029556066, -1.2662572, -0.8903283, 0.91479206, 0
401, 3056539584, 0.7528572, 0.03637269, -0.65657455, 0.028264493, -1.1433305, -0.86749536, 0.024752617, 0
402, 3056556251, 0.75305796, 0.03707722, -0.6563644, 0.026843354, -0.9458013, -0.94210285, -0.5347338, 0
403, 3056572918, 0.7532771, 0.037557885, -0.6561456, 0.025334075, 0.51490545, -0.26322013, 0.60483456, 0
404, 3056589585, 0.75331205, 0.03813117, -0.6561317, 0.023752898, 0.58030355, 0.36777258, -0.35510635, 0
405, 3056606252, 0.7533408, 0.038950346, -0.65611047, 0.02203539, 0.23813115, -0.08553975, -0.6071291, 0
406, 3056622919, 0.7533634, 0.03942491, -0.6561088, 0.0204086, 1.144301, -1.180691, 1.0024261, 0
407, 3056639586, 0.75344914, 0.039091393, -0.6560674, 0.019175157, 0.2536434, -1.1609985, 0.017292023, 0
408, 3056656253, 0.7537062, 0.038273342, -0.6558491, 0.018170312, -0.5833514, 0.6706134, 0.44891453, 0
409, 3056672920, 0.7539168, 0.037498236, -0.6556794, 0.017135292, 0.6247938, 0.933668, 0.18436813, 0
410, 3056689587, 0.7539729, 0.036628917, -0.65569264, 0.016003847, 0.7372861, 0.16971797, -0.5170727, 0
411, 3056706254, 0.7540382, 0.035405457, -0.6557116, 0.0148693025, 0.84130234, -0.5664515, -1.0479603, 0
412, 3056722921, 0.75418705, 0.03371559, -0.65565073, 0.0139042735, 1.3118825, -0.56896764, 0.47590256, 0
413, 3056739588, 0.75428313, 0.031840704, -0.6556487, 0.013184831, 2.2110546, -0.26452586, -0.6865616, 0
414, 3056756255, 0.7543365, 0.029956058, -0.6556888, 0.012539983, 1.6851276, 0.3904592, -0.31338882, 0
415, 3056772922, 0.7543774, 0.028032757, -0.65574336, 0.011637151, 1.9619266, 0.66619706, -0.54053974, 0
416, 3056789589, 0.7543761, 0.026065424, -0.6558448, 0.010520935, 1.7066205, 0.5534104, -0.38262844, 0
417, 3056806256, 0.7543485, 0.024254084, -0.65596426, 0.009314761, 2.2545323, 0.5476412, -0.039836884, 0
418, 3056822923, 0.75422746, 0.022528894, -0.6561805, 0.008134767, 2.4219599, 0.41057682, -0.1344986, 0
419, 3056839590, 0.7541833, 0.020733401, -0.65630394, 0.006981045, 1.915617, 0.29380724, -0.24010468, 0
420, 3056856257, 0.75434345, 0.018859237, -0.6561866, 0.0059465915, 1.890705, 0.24295914, -0.50748825, 0
421, 3056872924, 0.75447845, 0.017025217, -0.65608877, 0.0050904155, 1.9072543, 1.7031276, 0.9840889, 0
422, 3056889591, 0.75455916, 0.015344039, -0.6560432, 0.004269585, 1.9734476, 1.8799601, -1.0479202, 0
423, 3056906258, 0.7544992, 0.013714813, -0.6561527, 0.003525257, 2.423775, 1.9929293, 0.19297981, 0
424, 3056922925, 0.75441366, 0.011997923, -0.6562882, 0.002809018, 1.6100562, 1.0263518, -0.70571613, 0
425, 3056939592, 0.7544084, 0.010266706, -0.65632564, 0.0022592694, 1.7077508, 1.332373, 0.21155834, 0
426, 3056956259, 0.75440884, 0.008795656, -0.6563476, 0.0018989295, 1.7109241, 1.1553465, 0.25438118, 0
427, 3056972926, 0.75443155, 0.007338114, -0.6563398, 0.0017180741, 1.2329596, 0.9242352, 0.2302866, 0
428, 3056989593, 0.7544766, 0.0058669, -0.65630305, 0.0016437769, 1.7738893, 1.1037856, -0.6332731, 0
429, 3057006260, 0.754457, 0.0044658706, -0.6563366, 0.0016801208, 1.4878762, 1.3877115, 0.036182404, 0
430, 3057022927, 0.7545507, 0.0033239722, -0.6562356, 0.0016734004, 0.84504926, 1.3500081, -1.1384048, 0
431, 3057039594, 0.7546535, 0.002410531, -0.656121, 0.0018065125, 1.4256383, 1.4725807, 1.0818882, 0
432, 3057056261, 0.75470275, 0.0014567971, -0.6560667, 0.0019757748, 1.0933025, 1.0187559, -1.13976, 0
433, 3057072928, 0.7546726, 4.6387315E-4, -0.6561021, 0.0022362918, 0.96862024, 0.7250501, -0.026379585, 0
434, 3057089595, 0.7547539, -2.1973997E-4, -0.656007, 0.0026849508, 1.0585225, 2.0918043, 0.42761707, 0
435, 3057106262, 0.75485635, -5.6423247E-4, -0.65588737, 0.0030712485, 0.17657031, 1.2257657, 1.1214676, 0
436, 3057122929, 0.75511336, -6.6230446E-4, -0.65558946, 0.0034247339, 0.7562588, 0.36319792, 0.7387209, 0
437, 3057139596, 0.7552232, -6.2446296E-4, -0.65546155, 0.0036578327, 1.9800785, 1.4501181, -0.10164547, 0
438, 3057156263, 0.75505286, -4.2750686E-4, -0.65565735, 0.0037808567, 3.084267, 1.6120944, -2.978537, 0
439, 3057172930, 0.75474495, 9.267032E-5, -0.6560104, 0.0040180385, 3.1332388, 2.0730245, -2.0448885, 0
440, 3057189597, 0.754451, 6.381646E-4, -0.6563471, 0.0042028427, 3.3640883, 2.5187514, -0.1673994, 0
441, 3057206264, 0.7542356, 9.630546E-4, -0.65659267, 0.004432693, 2.7672362, 1.5092773, 0.88409615, 0
442, 3057222931, 0.7542072, 0.0012741536, -0.65662116, 0.004944429, 1.6816297, 1.305522, 1.8610954, 0
443, 3057239598, 0.7543794, 0.0018214211, -0.65641737, 0.0055474937, 0.66464347, 1.6441202, 1.3490686, 0
444, 3057256265, 0.7545825, 0.0027118847, -0.6561757, 0.0061056614, 0.40533206, 1.826057, 0.1925993, 0
445, 3057272932, 0.75459826, 0.0038170218, -0.65614945, 0.0063747764, 3.0019073, 2.442883, -4.2202835, 0
446, 3057289599, 0.75421673, 0.0049797148, -0.65657955, 0.0064440668, 4.543569, 2.688928, -2.143311, 0
447, 3057306266, 0.7538105, 0.0064549446, -0.65703154, 0.006599769, 4.096413, 3.5948966, 1.4894676, 0
448, 3057322933, 0.7538414, 0.008186594, -0.6569723, 0.00703454, -0.19565609, 1.4908077, 0.6000681, 0
449, 3057339600, 0.754307, 0.009702571, -0.6564084, 0.007789016, -0.029199285, 0.56611717, 3.83152, 0
450, 3057356267, 0.7546886, 0.0110348165, -0.6559379, 0.008639142, -1.8511463, 1.3358321, -3.0578823, 0
451, 3057372934, 0.7548382, 0.012622155, -0.65572673, 0.009396344, -1.7919693, 2.2276862, -3.4904928, 0
452, 3057389601, 0.754675, 0.014363386, -0.65586615, 0.01023984, 0.9851946, 1.8468616, 0.22962189, 0
453, 3057406268, 0.7545036, 0.015760459, -0.6560106, 0.011480898, 0.034559574, 0.24543421, 0.9297476, 0
454, 3057422935, 0.754551, 0.016772702, -0.655898, 0.01323466, -1.6457434, -0.18710622, -1.9661064, 0
455, 3057439602, 0.75460404, 0.017187372, -0.6557809, 0.0153235495, 0.18998332, 0.4755009, 0.9373474, 0
456, 3057456269, 0.75449246, 0.01680497, -0.655862, 0.017607108, 0.37538132, 0.41763672, -2.7158647, 0
457, 3057472936, 0.7541283, 0.016126253, -0.65623254, 0.019877419, 1.6365197, 1.902243, -2.7391152, 0
458, 3057489603, 0.7535568, 0.015623391, -0.65682405, 0.022276103, 2.9727294, 2.241248, -3.1969762, 0
459, 3057506270, 0.75281525, 0.015135959, -0.65759534, 0.024786934, 3.3002007, 2.645072, -0.61355877, 0
460, 3057522937, 0.7520026, 0.0144313425, -0.65844494, 0.027202547, 3.751598, 2.983073, 2.917903, 0
461, 3057539604, 0.75143987, 0.014022715, -0.65901357, 0.029126853, 1.1488245, 1.8957422, 2.1536703, 0
462, 3057556271, 0.75135016, 0.014578924, -0.6590371, 0.030600235, 1.2187272, 0.11909843, 3.6288147, 0
463, 3057572938, 0.75132126, 0.016283773, -0.6589779, 0.031705692, 1.5607494, -0.99419546, 2.5884933, 0
464, 3057589605, 0.7513579, 0.018456966, -0.6588333, 0.03263767, -0.3487839, -1.3476819, -0.1762991, 0
465, 3057606272, 0.75151855, 0.020672068, -0.6585658, 0.033005446, -2.7985544, 0.8573794, -1.5691948, 0
466, 3057622939, 0.75174284, 0.023394495, -0.65822476, 0.032883346, -4.5764546, 1.6868507, 1.4582224, 0
467, 3057639606, 0.75188607, 0.026361063, -0.65796655, 0.03253202, -3.985202, -0.2072003, 1.8675404, 0
468, 3057656273, 0.7521925, 0.028987847, -0.6575151, 0.032342, -4.1158657, -2.7518775, 0.5849104, 0
469, 3057672940, 0.75268614, 0.031129085, -0.65684664, 0.03244765, -2.8091154, -2.933109, -0.9464388, 0
470, 3057689607, 0.75287116, 0.033038303, -0.65653104, 0.032655507, -2.32891, -1.4910275, 0.96988297, 0
471, 3057706274, 0.7527341, 0.03479003, -0.6566031, 0.032546967, -0.9968901, -1.5260999, -0.18202305, 0
472, 3057722941, 0.75255185, 0.036377423, -0.6567566, 0.03192471, -2.7808735, -3.2021816, -0.9938469, 0
473, 3057739608, 0.7526151, 0.037781768, -0.6566578, 0.030812845, -2.5553226, -4.409257, 0.6830816, 0
474, 3057756275, 0.7526293, 0.03876365, -0.6566491, 0.029401287, -1.0948036, -4.0824323, 1.8512974, 0
475, 3057772942, 0.7526414, 0.039465465, -0.6566615, 0.02783683, -2.088248, -2.7287674, -0.43602276, 0
476, 3057789609, 0.7527149, 0.040118575, -0.6566181, 0.02587244, -1.8369964, -1.6443751, -0.88752747, 0
477, 3057806276, 0.75264174, 0.040529132, -0.6567649, 0.023528904, -0.3635286, -2.320891, 0.8750572, 0
478, 3057822943, 0.75250226, 0.04043948, -0.65701544, 0.021011084, 0.5025045, -2.6254852, -0.35037708, 0
479, 3057839610, 0.75241387, 0.040128343, -0.65720963, 0.018562064, -0.81040746, -1.9742336, 0.37997818, 0
480, 3057856277, 0.7524854, 0.039619774, -0.6572225, 0.016138718, -0.6465403, -1.7448416, 0.5644207, 0
481, 3057872944, 0.75257117, 0.038692586, -0.65723544, 0.013674602, -0.30528563, -1.2940445, 0.8300743, 0
482, 3057889611, 0.75267524, 0.037560053, -0.6572307, 0.01108788, -0.05438562, -1.1059611, 0.33438206, 0
483, 3057906278, 0.75275433, 0.036351413, -0.6572473, 0.008447096, 1.0318735, -0.8147739, 0.107008934, 0
484, 3057922945, 0.75271565, 0.034948803, -0.657395, 0.0059607774, 0.72552705, -1.3182083, -1.2599964, 0
485, 3057939612, 0.752791, 0.033066437, -0.6574228, 0.0036756098, 0.3021247, -1.6649033, -0.1307888, 0
486, 3057956279, 0.7530011, 0.030436352, -0.657317, 0.0017604381, 0.7564076, -0.67679197, 2.2101269, 0
487, 3057972946, 0.7531778, 0.027386203, -0.6572512, 1.3262033E-4, 0.7678756, 0.7914405, -0.21859741, 0
488, 3057989613, 0.7533019, 0.024539262, -0.65722, -0.0013481677, 0.39344493, 0.93029726, -0.30146503, 0
489, 3058006280, 0.75342804, 0.021490939, -0.65717846, -0.0026148856, 1.2656032, -0.08746621, 1.2484531, 0
490, 3058022947, 0.7535299, 0.01773759, -0.65716803, -0.0037547946, 1.0832055, -0.8301163, -0.95325565, 0
491, 3058039614, 0.7536628, 0.013822198, -0.6571037, -0.0046875626, 0.4917978, 0.11378832, -0.3294449, 0
492, 3058056281, 0.7539424, 0.010166086, -0.65684414, -0.005390644, 0.9351688, 0.96045274, 0.6357002, 0
493, 3058072948, 0.7542433, 0.0066225827, -0.65654033, -0.0058303922, 0.89073014, 0.3886837, -0.87744904, 0
494, 3058089615, 0.754333, 0.0031179339, -0.65646005, -0.006171003, 1.4831488, 0.74314994, -0.37469673, 0
495, 3058106282, 0.7542282, -3.3012778E-4, -0.6565836, -0.006602362, 1.1126267, 0.4734737, -2.0208974, 0
496, 3058122949, 0.7541778, -0.0035051256, -0.6566282, -0.006984845, 0.31683007, 0.5028452, 0.7580986, 0
497, 3058139616, 0.7542743, -0.0063744485, -0.6564933, -0.007224068, 1.0960275, 0.24179906, 0.26322746, 0
498, 3058156283, 0.7543374, -0.009264447, -0.6563853, -0.0073111057, 1.523733, 0.32283357, -0.5739403, 0
499, 3058172950, 0.75440335, -0.012182094, -0.6562628, -0.0072214454, 2.0368168, 1.5460432, -0.7511406, 0
500, 3058189617, 0.7543646, -0.01483205, -0.65625405, -0.0071002096, 1.7342808, 1.8252655, -0.618371, 0
501, 3058206284, 0.7543321, -0.017115109, -0.6562371, -0.0069901943, 1.9355226, 1.697055, 0.49187088, 0
502, 3058222951, 0.75424945, -0.019198209, -0.6562759, -0.0068439543, 1.4797022, 0.8052249, 0.3309536, 0
503, 3058239618, 0.7542783, -0.021181256, -0.65618473, -0.0065535903, 0.7163604, 0.99548155, 0.46900654, 0
504, 3058256285, 0.75439227, -0.022873431, -0.6560012, -0.0061149895, 0.6797159, 1.5508168, 0.08985329, 0
505, 3058272952, 0.75448936, -0.024351187, -0.65584207, -0.0054551363, 0.9471344, 1.4516134, 0.49366856, 0
506, 3058289619, 0.7545349, -0.025557779, -0.65574926, -0.0047371984, 1.2246282, 1.8793359, -0.54355335, 0
507, 3058306286, 0.75444573, -0.026412457, -0.6558233, -0.003982231, 0.95093364, 2.27863, -0.6234627, 0
508, 3058322953, 0.7543432, -0.02705098, -0.65591943, -0.0032099485, 0.34572223, 1.5710158, -0.16764355, 0
509, 3058339620, 0.7543678, -0.027530432, -0.6558748, -0.0023317486, -0.043867994, 1.2160274, 0.98289394, 0
510, 3058356287, 0.7544931, -0.027884178, -0.65571845, -0.0013268739, 0.12494866, 0.89963424, -0.4354887, 0
511, 3058372954, 0.7546184, -0.028124735, -0.6555653, -1.5172362E-4, 0.10975693, 1.4239866, -0.686039, 0
512, 3058389621, 0.7546948, -0.02845408, -0.6554619, 0.0012339354, 0.7019098, 1.9123033, 0.47946358, 0
513, 3058406288, 0.7546889, -0.028812401, -0.6554488, 0.0027110577, 0.5025725, 1.9090883, -0.27020836, 0
514, 3058422955, 0.75463456, -0.029035576, -0.655493, 0.004287079, 0.61443686, 1.4220593, -1.792985, 0
515, 3058439622, 0.7546156, -0.029152714, -0.6554971, 0.0059001893, 0.5264879, 1.1339818, 0.3863573, 0
516, 3058456289, 0.7546367, -0.029187337, -0.65545505, 0.0075007826, 0.7067082, 0.7093867, 0.9689808, 0
517, 3058472956, 0.754583, -0.029157557, -0.65549797, 0.0090991855, 0.057922713, 0.9996977, -1.9285054, 0
518, 3058489623, 0.75465006, -0.028898947, -0.65540946, 0.010601655, 0.05723108, 0.77166724, -0.8952322, 0
519, 3058506290, 0.75478435, -0.02836413, -0.6552525, 0.012083307, -0.7680701, 0.6795837, 1.0183287, 0
520, 3058522957, 0.75497776, -0.027742922, -0.65503067, 0.013399854, 0.3504491, 0.39799812, -0.34771538, 0
521, 3058539624, 0.7550431, -0.026828483, -0.65497196, 0.014410898, 0.2940997, 1.4857821, -0.58073044, 0
522, 3058556291, 0.75506014, -0.025370784, -0.6549962, 0.015047982, 0.3137277, 1.2478533, 1.4682693, 0
523, 3058572958, 0.75501394, -0.023821145, -0.65509653, 0.015521973, 0.63010937, 0.2029663, -0.73780346, 0
524, 3058589625, 0.7549958, -0.02230794, -0.65516174, 0.015892237, 0.22147764, 1.0909986, 0.5853901, 0
525, 3058606292, 0.7551091, -0.020681754, -0.655073, 0.016364157, -0.17159224, 0.56573725, 0.8792057, 0
526, 3058622959, 0.7552801, -0.01899147, -0.6549128, 0.016925812, -0.053496484, 0.6127766, 0.45298767, 0
527, 3058639626, 0.7554301, -0.017429173, -0.65477145, 0.017374218, 0.13087444, 0.6961668, 0.04227829, 0
528, 3058656293, 0.75556934, -0.016070165, -0.6546353, 0.017751679, 0.8483828, 1.3378679, -0.2580366, 0
529, 3058672960, 0.75559974, -0.014624819, -0.654625, 0.018084764, 1.0560172, 2.188776, -1.1813622, 0
530, 3058689627, 0.75577533, -0.013030171, -0.65444535, 0.018471807, 0.33110136, 1.4126897, -1.5837212, 0
531, 3058706294, 0.7562301, -0.011540107, -0.65393347, 0.01897122, 0.101046376, 0.058987226, -0.47365952, 0
532, 3058722961, 0.7568128, -0.0105642155, -0.6532557, 0.019639254, 1.0398878, -0.9190262, 2.9053583, 0
533, 3058739628, 0.75671387, -0.009697422, -0.65335757, 0.020491034, 3.190382, 1.5769532, 4.6623373, 0
534, 3058756295, 0.7561572, -0.008233383, -0.654002, 0.021115273, 2.1474948, 1.9582909, -2.5136962, 0
535, 3058772962, 0.7552956, -0.0063101053, -0.6550025, 0.021596774, 1.7102635, 3.0271027, -0.15302277, 0
536, 3058789629, 0.75479424, -0.00434348, -0.65558934, 0.021803334, -0.08794139, 2.0628026, -3.6828213, 0
537, 3058806296, 0.75456995, -0.0026303232, -0.65585756, 0.021775201, -0.5800872, 1.6653881, 0.12833786, 0
538, 3058822963, 0.75470656, -0.0011096969, -0.65570223, 0.021843016, -0.106876746, 0.8444866, 1.3456306, 0
539, 3058839630, 0.7550725, 3.606081E-4, -0.65526587, 0.022317275, 0.41676584, -0.3897372, 2.109149, 0
540, 3058856297, 0.75542736, 0.0017442852, -0.6548291, 0.023047134, 1.6396656, 0.870366, 0.71737003, 0
541, 3058872964, 0.75535375, 0.0031227916, -0.65488464, 0.023725927, 1.4980806, 1.9332907, -4.013859, 0
542, 3058889631, 0.75501543, 0.004657842, -0.6552525, 0.024086148, 2.4591298, 3.0703323, -0.49817944, 0
543, 3058906298, 0.7545709, 0.0065746903, -0.6557374, 0.024361879, 2.5568726, 1.5303912, -1.195282, 0
544, 3058922965, 0.75424534, 0.008514732, -0.65607303, 0.024811849, -0.18235618, -0.11466656, -0.5085087, 0
545, 3058939632, 0.7542527, 0.010559231, -0.6560225, 0.025135353, -1.4807899, 1.1106373, 1.2421608, 0
546, 3058956299, 0.75418967, 0.0126779005, -0.65605485, 0.025197655, -0.83253527, -0.6990927, -0.5301256, 0
547, 3058972966, 0.7540452, 0.014665604, -0.65618426, 0.025075316, -1.3147559, -1.2078389, -1.6692429, 0
548, 3058989633, 0.7539683, 0.016706757, -0.6562381, 0.024698943, -0.96347296, 0.2476328, -1.0360899, 0
549, 3059006300, 0.7537347, 0.018677287, -0.6564684, 0.02429834, -2.1154957, -0.79369074, -3.1310186, 0
550, 3059022967, 0.753397, 0.020199083, -0.65681547, 0.024173036, 1.0701139, 0.98067296, 2.6219788, 0
551, 3059039634, 0.75237995, 0.020794198, -0.65795416, 0.024376884, 1.4468837, 0.18189211, -1.6597509, 0
552, 3059056301, 0.75142014, 0.020576254, -0.6590319, 0.025044397, -0.074991725, -0.72637945, -0.73955345, 0
553, 3059072968, 0.7507941, 0.020190239, -0.6597275, 0.025807723, -0.1209518, 0.43222722, 4.0153875, 0
554, 3059089635, 0.75084203, 0.019502982, -0.65967053, 0.026390776, -2.2964842, -2.735244, 5.8174257, 0
555, 3059106302, 0.7513132, 0.018470727, -0.65914464, 0.02686119, -2.0392263, -1.6614646, 4.8249865, 0
556, 3059122969, 0.7517857, 0.017652526, -0.6586233, 0.026978508, -1.0487112, 0.5166474, -0.55682373, 0
557, 3059139636, 0.75209117, 0.017545216, -0.65828645, 0.026757643, -0.098164655, 0.58326256, -4.953003, 0
558, 3059156303, 0.75211084, 0.017676115, -0.6582766, 0.026354536, 0.12846407, -0.95744705, -1.0265198, 0
559, 3059172970, 0.7520252, 0.017332472, -0.65839756, 0.026006266, 0.059159856, -1.3027568, 1.1538506, 0
560, 3059189637, 0.75208604, 0.01679235, -0.65835744, 0.025614351, -2.5628095, -1.0519398, 1.9350023, 0
561, 3059206304, 0.75245714, 0.01666364, -0.65795654, 0.025090665, -2.6195338, -1.0871825, 1.4249601, 0
562, 3059222971, 0.75281626, 0.016898148, -0.6575625, 0.024487436, -1.3778639, -1.7224752, 0.0653553, 0
563, 3059239638, 0.7531274, 0.01688651, -0.65723395, 0.023740634, -0.7672583, -1.6409905, -1.0682268, 0
564, 3059256305, 0.75330967, 0.016785055, -0.6570588, 0.022858322, -0.38680214, -0.42747986, -1.3733788, 0
565, 3059272972, 0.7532823, 0.016762607, -0.6571235, 0.021902516, -0.26189685, -0.6163481, -0.054558754, 0
566, 3059289639, 0.7531819, 0.016708717, -0.65727085, 0.020945683, -0.5402858, -1.3018152, 0.08373451, 0
567, 3059306306, 0.75311106, 0.016589671, -0.65738624, 0.019936219, -1.1214883, -0.728203, 0.37264633, 0
568, 3059322973, 0.7530562, 0.016129844, -0.6574974, 0.018677622, -0.9671536, -0.85846686, 0.24609756, 0
569, 3059339640, 0.7529176, 0.015502721, -0.6577054, 0.017445326, -0.07886655, -0.5000956, 0.7965956, 0
570, 3059356307, 0.7527252, 0.014739625, -0.65796995, 0.016403362, -0.17956717, -0.47684562, -1.3810616, 0
571, 3059372974, 0.7525594, 0.013640508, -0.65820193, 0.015635103, 0.016539512, -0.86884433, 1.2045956, 0
572, 3059389641, 0.75245607, 0.012095086, -0.6583614, 0.015158221, 0.15036298, -1.1752446, 0.5287266, 0
573, 3059406308, 0.7524981, 0.010385841, -0.6583521, 0.014730245, -1.3979238, 0.1547987, 0.2239027, 0
574, 3059422975, 0.75265217, 0.009023696, -0.65820843, 0.014170364, -0.95855767, 0.25433227, -0.68963146, 0
575, 3059439642, 0.7529724, 0.0077423453, -0.6578718, 0.013538152, -1.4002731, -1.159158, -0.47992516, 0
576, 3059456309, 0.7533036, 0.006269239, -0.65752, 0.012952283, -0.21413435, -0.4077397, 0.35522842, 0
577, 3059472976, 0.7534118, 0.00490617, -0.65741634, 0.012502089, -0.5385701, 0.23199303, 1.1872435, 0
578, 3059489643, 0.7533692, 0.0037493855, -0.65747887, 0.012168661, 0.14790925, 0.29587942, 1.4693604, 0
579, 3059506310, 0.7532926, 0.00265491, -0.6575772, 0.011901066, -1.0734742, 0.07205074, 0.2696247, 0
580, 3059522977, 0.75330466, 0.001577422, -0.6575721, 0.011596039, -1.3359596, 0.09494082, -0.44361973, 0
581, 3059539644, 0.7532442, 6.4522773E-4, -0.65764755, 0.011320099, -1.5028512, -0.28867328, -0.5855675, 0
582, 3059556311, 0.7531305, -2.547577E-4, -0.657781, 0.011146352, -0.4474832, -0.4801739, 0.34300613, 0
583, 3059572978, 0.7530966, -0.0016996711, -0.65781754, 0.011156216, -0.41143146, -1.4126858, 0.29688835, 0
584, 3059589645, 0.75316924, -0.0037670135, -0.65772045, 0.011484712, -0.12015565, -0.50750536, 0.65154076, 0
585, 3059606312, 0.75311244, -0.005926758, -0.65776265, 0.011857256, -0.26004973, 0.43690446, 0.19061756, 0
586, 3059622979, 0.7530237, -0.008020967, -0.6578368, 0.012155995, -0.05425017, -0.33676407, -0.8423004, 0
587, 3059639646, 0.7529432, -0.010475121, -0.65788853, 0.012463331, -0.1554336, -1.3637681, 0.65390587, 0
588, 3059656313, 0.7529103, -0.013143398, -0.65787333, 0.012730405, -0.7533442, -0.8549679, 0.8170147, 0
589, 3059672980, 0.7529693, -0.015355289, -0.6577553, 0.012857005, -0.33329538, -0.17817526, -0.04775715, 0
590, 3059689647, 0.75309265, -0.016935289, -0.65757555, 0.012840882, -0.2374995, -0.043005403, -1.2782393, 0
591, 3059706314, 0.7533705, -0.018197633, -0.657226, 0.012714997, 0.09989464, 0.19565184, -0.6278591, 0
592, 3059722981, 0.7535399, -0.019441992, -0.65700066, 0.012472734, 1.0930928, 1.2112491, 1.2334461, 0
593, 3059739648, 0.7535667, -0.02038011, -0.65694827, 0.012118131, 0.958166, 1.2621417, -1.0821905, 0
594, 3059756315, 0.75360113, -0.020806782, -0.65690154, 0.011778876, 0.48270753, 0.7687086, 0.45405865, 0
595, 3059772982, 0.7536429, -0.021135606, -0.65684766, 0.011518016, 0.38506857, 0.12973915, -0.15118313, 0
596, 3059789649, 0.7538212, -0.021557406, -0.65663314, 0.011298269, 0.014711623, 0.19966418, -0.44281864, 0
597, 3059806316, 0.75396645, -0.021794252, -0.6564606, 0.011182174, 0.8121102, 1.2093419, 0.2072258, 0
598, 3059822983, 0.75387543, -0.02189079, -0.65656286, 0.011119261, 1.7103565, 1.5730947, -0.40866852, 0
599, 3059839650, 0.75353676, -0.022032045, -0.6569486, 0.011022478, 1.7513411, 1.3894205, -0.19413757, 0
600, 3059856317, 0.75312537, -0.022234298, -0.65741354, 0.011002973, 0.54476947, 0.79744864, -0.60838985, 0
601, 3059872984, 0.7530003, -0.02243451, -0.65754753, 0.011151984, -0.7741608, 0.47182852, 1.3668175, 0
602, 3059889651, 0.75314504, -0.02263745, -0.6573679, 0.011554003, -0.069630094, 0.66772693, 0.88287735, 0
603, 3059906318, 0.75333685, -0.022929877, -0.65712845, 0.012083232, 0.30840763, 0.8137407, 0.117198944, 0
604, 3059922985, 0.7534506, -0.023263782, -0.65697795, 0.012530282, 0.6948513, 1.2695366, -0.20325851, 0
605, 3059939652, 0.7534689, -0.023319952, -0.65694785, 0.012897924, 0.18998757, 1.1002461, 0.118245125, 0
606, 3059956319, 0.7534713, -0.023208998, -0.65694225, 0.013220102, 0.66072935, 0.91520816, -0.29828644, 0
607, 3059972986, 0.7533788, -0.023092449, -0.65704674, 0.013509944, -0.0067076236, 0.22671975, 0.07584095, 0
608, 3059989653, 0.7533911, -0.023077697, -0.65702546, 0.013880581, 0.5165617, 0.023427231, 0.4987526, 0
609, 3060006320, 0.7534752, -0.023144238, -0.65691817, 0.014274716, 0.027359774, 0.15376133, -0.7054577, 0
610, 3060022987, 0.7536063, -0.022927083, -0.65676713, 0.014653787, 0.58577514, 0.69137543, -0.046564102, 0
611, 3060039654, 0.7536476, -0.02242408, -0.6567299, 0.014970273, 1.1855333, 0.8586786, 0.4448166, 0
612, 3060056321, 0.75353414, -0.021832861, -0.6568763, 0.015132949, 1.2827835, 0.9668317, -1.0125866, 0
613, 3060072988, 0.75333786, -0.021383062, -0.65711576, 0.015156269, 0.9589488, 1.1279619, 0.5183592, 0
614, 3060089655, 0.7531755, -0.020874918, -0.6573171, 0.01519914, 0.5214347, 0.97449213, -0.7733679, 0
615, 3060106322, 0.7530349, -0.020169415, -0.65749663, 0.015348062, 0.45178092, 0.63186777, -0.04092598, 0
616, 3060122989, 0.7529618, -0.019530304, -0.6575965, 0.015484393, 0.6297969, 0.66836333, -0.38411522, 0
617, 3060139656, 0.7528432, -0.019086048, -0.6577397, 0.015723214, 0.9051939, 0.5861613, 0.10874367, 0
618, 3060156323, 0.75273836, -0.018754318, -0.65786016, 0.016101643, 0.894995, 1.278998, 0.25717545, 0
619, 3060172990, 0.75256073, -0.018291116, -0.65806574, 0.016532108, 0.98011434, 1.7507936, -0.88060856, 0
620, 3060189657, 0.7524535, -0.017726928, -0.6581895, 0.0170888, 0.9221939, 1.2485709, 0.98737526, 0
621, 3060206324, 0.7524534, -0.017432854, -0.65818083, 0.017715856, 0.5468982, 1.0919056, 0.19432163, 0
622, 3060222991, 0.7523587, -0.017457478, -0.6582715, 0.018334076, 0.6469654, 0.9610357, 0.17100239, 0
623, 3060239658, 0.75226486, -0.017420389, -0.65835893, 0.019068643, 0.1616544, 0.7271791, -0.7599411, 0
624, 3060256325, 0.7522812, -0.017217651, -0.6583176, 0.020010903, -0.6765549, 0.31714657, -1.3467331, 0
625, 3060272992, 0.75251627, -0.017186686, -0.65801483, 0.021126747, -0.509711, 0.05738287, 0.37696648, 0
626, 3060289659, 0.7525843, -0.01753056, -0.65788424, 0.022447184, 1.0093613, 1.1230305, 3.260044, 0
627, 3060306326, 0.75246996, -0.01780232, -0.6579612, 0.023772702, 0.15994208, 2.5259097, -1.9685259, 0
628, 3060322993, 0.7524183, -0.017210849, -0.6579979, 0.024797961, -0.7965765, 3.1293592, -2.7017083, 0
629, 3060339660, 0.75253063, -0.015979998, -0.6578704, 0.02559115, 1.6839032, 2.4027061, 2.283308, 0
630, 3060356327, 0.7526079, -0.0149641335, -0.65777504, 0.026375875, 2.4851012, 0.44512078, -0.96024036, 0
631, 3060372994, 0.7525298, -0.014434181, -0.6578348, 0.027381688, 1.3914872, 0.7966149, -2.5822716, 0
632, 3060389661, 0.75239605, -0.013567604, -0.6579465, 0.028776988, 0.5298576, 2.7287085, 1.9399767, 0
633, 3060406328, 0.7526841, -0.012180887, -0.65757126, 0.030401573, -0.21996893, 0.96601045, 0.7982006, 0
634, 3060422995, 0.7529675, -0.010895915, -0.65719426, 0.031980976, 0.5999146, 0.76433045, 0.5339384, 0
635, 3060439662, 0.75305206, -0.009592369, -0.65706366, 0.03307125, 2.7495677, 3.3801138, -0.5553837, 0
636, 3060456329, 0.7528093, -0.0073591694, -0.6573319, 0.03383474, 2.3816621, 4.2294793, -3.3051858, 0
637, 3060472996, 0.7525635, -0.0041103736, -0.6576114, 0.034415424, 2.610681, 3.339762, -0.29503155, 0
638, 3060489663, 0.75237054, -6.3120574E-4, -0.65781164, 0.035041288, 2.862568, 1.4105235, 0.34831238, 0
639, 3060506330, 0.75232583, 0.0022409186, -0.65781736, 0.03582023, 1.1739303, 0.97809136, 0.37686443, 0
640, 3060522997, 0.7524669, 0.0049459934, -0.65760523, 0.036476344, -0.15932809, 3.079026, 3.076973, 0
641, 3060539664, 0.75257295, 0.00840883, -0.6574328, 0.036759734, 1.5413814, 2.2163742, -1.1515179, 0
642, 3060556331, 0.7523518, 0.012214154, -0.65762216, 0.03683108, 3.1597195, 1.1969025, -2.1629314, 0
643, 3060572998, 0.7520738, 0.01561185, -0.65787387, 0.036729783, 2.910519, 1.6390964, -1.470974, 0
644, 3060589665, 0.75182736, 0.018455327, -0.6580879, 0.03662339, 0.7628904, 0.5452185, 0.940156, 0
645, 3060606332, 0.75190043, 0.020662844, -0.65792376, 0.03689468, 0.12770994, -0.82690364, 3.7996588, 0
646, 3060622999, 0.75214744, 0.021982007, -0.6575645, 0.03749457, -2.898388, -2.687499, 0.0706768, 0
647, 3060639666, 0.752373, 0.022518419, -0.6572526, 0.038117483, -3.537516, -1.0509404, -1.1647816, 0
648, 3060656333, 0.751999, 0.022806615, -0.6576575, 0.038340658, -2.8574982, -1.2826382, -3.4382029, 0
649, 3060673000, 0.75130934, 0.022818461, -0.6584406, 0.03841102, -2.6592958, -3.4137428, -1.8260727, 0
650, 3060689667, 0.7506162, 0.022173367, -0.65924203, 0.03859833, -2.681344, -3.3922167, -1.072053, 0
651, 3060706334, 0.74993056, 0.020771153, -0.6600378, 0.03909868, -2.5687795, -2.3051856, 1.4484501, 0
652, 3060723001, 0.7494615, 0.019126996, -0.6605718, 0.03990531, -2.221502, 0.34207016, 2.4567795, 0
653, 3060739668, 0.7491693, 0.017518722, -0.66089046, 0.04084322, -1.068843, 1.1974638, 2.1599922, 0
654, 3060756335, 0.74895144, 0.015535034, -0.6611227, 0.04187025, 0.27782795, 0.24131945, 0.8710098, 0
655, 3060773002, 0.7486058, 0.013155453, -0.6614854, 0.043118685, 0.8003626, 0.9556321, -0.05214691, 0
656, 3060789669, 0.7483841, 0.010936901, -0.66168654, 0.044479117, -0.5809361, 0.6948555, 1.0155945, 0
657, 3060806336, 0.7484619, 0.009298541, -0.6615194, 0.04600106, -1.7619687, -0.008846084, 1.021533, 0
658, 3060823003, 0.7487741, 0.007858664, -0.6610754, 0.047548637, -2.2168014, -0.56369406, 2.2788486, 0
659, 3060839670, 0.7491059, 0.006248787, -0.660614, 0.048951685, -2.8681102, -0.3480042, 0.8697462, 0
660, 3060856337, 0.74956405, 0.004911341, -0.66001385, 0.050171375, -3.488046, -0.27313384, -1.3667469, 0
661, 3060873004, 0.74992484, 0.0040625706, -0.65953463, 0.05114843, -1.5267066, -0.54912424, 0.19381809, 0
662, 3060889671, 0.74982214, 0.0034858882, -0.6595745, 0.05217369, -0.70394737, -2.1975648, -1.0030222, 0
663, 3060906338, 0.74977213, 0.002700895, -0.65954137, 0.053345382, -2.3699522, -1.1938612, 1.6227236, 0
664, 3060923005, 0.7497586, 0.0023413524, -0.6594666, 0.05446276, -2.4594176, 0.9851291, -1.3891487, 0
665, 3060939672, 0.74985063, 0.0028976947, -0.6592782, 0.055442944, -3.4600885, 0.6962747, -0.30042934, 0
666, 3060956339, 0.74996465, 0.0039621815, -0.6590826, 0.05615683, -1.2093781, 0.042047706, 1.1196022, 0
667, 3060973006, 0.74989504, 0.0049620196, -0.65911186, 0.056659624, -1.2056186, -0.06631142, 1.1709566, 0
668, 3060989673, 0.74999356, 0.0062149614, -0.6589605, 0.056989953, -2.0649488, 0.8243283, -0.039150238, 0
669, 3061006340, 0.75017047, 0.008027062, -0.6587233, 0.05717945, -1.8149234, 0.64402753, 0.14198685, 0
670, 3061023007, 0.75025123, 0.010100111, -0.6585816, 0.05742161, -0.6724584, -0.30126557, 0.34876633, 0
671, 3061039674, 0.75025016, 0.012007564, -0.6585291, 0.057671472, -0.96124476, 0.13097557, -0.26083374, 0
672, 3061056341, 0.7502546, 0.013922095, -0.6584851, 0.057685107, -1.171886, 0.7093532, 0.77917004, 0
673, 3061073008, 0.7501646, 0.016246058, -0.6585374, 0.05764924, -0.39807343, 0.6441828, 0.35257816, 0
674, 3061089675, 0.75011, 0.018724978, -0.6585394, 0.05758466, -0.91047287, -0.35158443, 0.08432388, 0
675, 3061106342, 0.750148, 0.02099853, -0.65844417, 0.057394966, -0.5725785, -0.36514395, -0.3125267, 0
676, 3061123009, 0.75015515, 0.023208976, -0.6583918, 0.057050437, -0.77202356, -0.46356264, -0.41674805, 0
677, 3061139676, 0.75023675, 0.025440522, -0.65826076, 0.056534976, -0.6578679, 0.021817882, 0.26724815, 0
678, 3061156343, 0.75026256, 0.027901493, -0.65818816, 0.05587329, -0.48323902, 0.12386775, 0.09553146, 0
679, 3061173010, 0.7502646, 0.030297808, -0.6581483, 0.05506015, -0.4499848, -1.4299576, -0.43065834, 0
680, 3061189677, 0.7503699, 0.032295264, -0.6580139, 0.05408947, -0.7201093, -1.4398153, 0.07412624, 0
681, 3061206344, 0.7504674, 0.03420175, -0.6579019, 0.05291359, -0.4758461, -0.31900617, -0.117754936, 0
682, 3061223011, 0.7505053, 0.036265276, -0.6578544, 0.051577196, -0.52879095, -0.88347197, -0.058674812, 0
683, 3061239678, 0.75052416, 0.038160995, -0.6578293, 0.050237164, 0.80963457, -1.2776825, 1.0353966, 0
684, 3061256345, 0.75044835, 0.039676838, -0.65793097, 0.048846543, 0.30791146, -0.9746927, -0.5342941, 0
685, 3061273012, 0.75051415, 0.04100745, -0.6578862, 0.04731375, -0.50830555, -0.5951266, -0.333642, 0
686, 3061289679, 0.7505777, 0.04215777, -0.65785617, 0.04568349, 0.3817789, -0.31789097, 0.19303322, 0
687, 3061306346, 0.7506951, 0.04288706, -0.6577845, 0.044077232, 0.19797124, -0.8121257, 0.49948788, 0
688, 3061323013, 0.75086963, 0.043154314, -0.65766025, 0.042678475, 0.73681, -0.43710405, -0.041773796, 0
689, 3061339680, 0.75093937, 0.043063335, -0.6576561, 0.04159245, 0.50310934, 0.114797704, 0.35441494, 0
690, 3061356347, 0.7510884, 0.04251831, -0.65757877, 0.04067424, 0.07434086, 0.13085254, -0.48580933, 0
691, 3061373014, 0.7512197, 0.04158084, -0.65753555, 0.039911732, 0.74069333, 0.121892005, 1.0318651, 0
692, 3061389681, 0.75124097, 0.040522926, -0.65761673, 0.039256975, 1.0164723, -0.14569661, -0.23440838, 0
693, 3061406348, 0.7513356, 0.039484143, -0.6576049, 0.03869772, 0.87574524, -0.49044895, -0.20652866, 0
694, 3061423015, 0.75146294, 0.038411014, -0.6575467, 0.038291305, 0.6341943, -0.36513597, 0.30755043, 0
695, 3061439682, 0.7515784, 0.03711012, -0.6575056, 0.038011953, 0.15231335, 0.41658792, 0.6280451, 0
696, 3061456349, 0.75175595, 0.03584519, -0.65738624, 0.03778054, 0.22031538, 0.97685635, -0.21744537, 0
697, 3061473016, 0.75195783, 0.034881808, -0.65721285, 0.037683442, -0.1422043, 1.1176482, 0.08264446, 0
698, 3061489683, 0.7520542, 0.03406912, -0.6571491, 0.037611812, 0.9229623, 0.7098024, 0.8535414, 0
699, 3061506350, 0.7520903, 0.03321193, -0.6571561, 0.0375344, 1.0018709, -0.14481024, -0.8577719, 0
700, 3061523017, 0.7521211, 0.03252367, -0.6571631, 0.037398994, 0.633716, 0.7854262, -0.115698814, 0
701, 3061539684, 0.75204426, 0.032089837, -0.6572743, 0.03736429, 0.5351088, 0.5714622, -1.1021471, 0
702, 3061556351, 0.75213087, 0.031784616, -0.657181, 0.03752546, -0.04232352, 0.6126717, -0.40937042, 0
703, 3061573018, 0.75211805, 0.03146501, -0.657194, 0.037817627, 1.2053736, 1.2226182, 0.9740877, 0
704, 3061589685, 0.7520064, 0.031005956, -0.65733236, 0.03801386, 0.6531024, 1.0233978, -1.1841993, 0
705, 3061606352, 0.75191206, 0.030684046, -0.6574452, 0.038189918, 1.0497402, 1.2520933, 0.8829279, 0
706, 3061623019, 0.75171906, 0.030627452, -0.65765744, 0.038378984, 0.8575611, 0.9781791, -0.554554, 0
707, 3061639686, 0.7515962, 0.030747794, -0.65777963, 0.038595274, 0.49758947, 0.41855752, 0.3588934, 0
708, 3061656353, 0.7515045, 0.03077697, -0.65786374, 0.038924694, 0.6180781, 1.2982373, -0.26043224, 0
709, 3061673020, 0.7513104, 0.03090424, -0.658055, 0.03933263, -2.968252E-4, 1.4702188, 0.16625595, 0
710, 3061689687, 0.751121, 0.031185709, -0.658234, 0.039732113, 0.20238875, 0.86700094, 0.49655533, 0
711, 3061706354, 0.7509244, 0.031538963, -0.658421, 0.040069044, 1.0891308, 0.010531371, -0.29280853, 0
712, 3061723021, 0.7505908, 0.03199532, -0.65876603, 0.040284097, 0.5779227, 0.66864395, 0.24146366, 0
713, 3061739688, 0.7504062, 0.03269712, -0.6589383, 0.040343508, 0.2294888, 0.61575115, -0.26145267, 0
714, 3061756355, 0.75037897, 0.033434317, -0.65892774, 0.04041812, 0.23166269, 0.103831604, 0.022027016, 0
715, 3061773022, 0.75039744, 0.034342304, -0.6588516, 0.040556327, 0.012662456, 0.82168216, -1.3649788, 0
716, 3061789689, 0.7505834, 0.035269707, -0.65859056, 0.0405595, -0.010807745, 0.07309198, -1.0238676, 0
717, 3061806356, 0.75087845, 0.035942197, -0.65822446, 0.040449783, 0.57511884, -0.12161336, 0.79407024, 0
718, 3061823023, 0.75112236, 0.036454, -0.65793324, 0.040201828, 1.4314293, 0.08921073, 1.013051, 0
719, 3061839690, 0.75111675, 0.03713233, -0.6579259, 0.039799675, 1.7004561, 0.47879615, -0.45071602, 0
720, 3061856357, 0.7508895, 0.038066573, -0.6581668, 0.03922023, 1.7885935, 0.51669747, 0.15524292, 0
721, 3061873024, 0.7507118, 0.03883777, -0.65836453, 0.03854227, 1.0524827, -0.11575032, -0.4065609, 0
722, 3061889691, 0.75067574, 0.039227575, -0.65842277, 0.037847474, 0.29058695, -0.26564604, -0.031565666, 0
723, 3061906358, 0.750728, 0.03946992, -0.658381, 0.03728193, 0.08791301, -0.00978752, 0.52979565, 0
724, 3061923025, 0.75090384, 0.03971979, -0.65819097, 0.03682904, 0.5323037, -0.6043133, 0.23169708, 0
725, 3061939692, 0.75105816, 0.03981722, -0.6580331, 0.036394075, 0.64349246, -0.6391249, -0.32563305, 0
726, 3061956359, 0.7510874, 0.03970643, -0.6580378, 0.035820633, 0.69516957, 0.36544222, 0.8344765, 0
727, 3061973026, 0.75104976, 0.039590873, -0.6581285, 0.035062894, 0.21530177, 0.7068466, -1.6422586, 0
728, 3061989693, 0.751022, 0.03972297, -0.65819657, 0.034223855, 0.5565491, 0.3861859, 0.6472063, 0
729, 3062006360, 0.750943, 0.039714076, -0.6583281, 0.033424273, 1.0956417, -0.5312251, 1.293006, 0
730, 3062023027, 0.75094247, 0.03916578, -0.6584027, 0.032609165, 0.54554504, -1.2882764, -0.590024, 0
731, 3062039694, 0.7511429, 0.03834746, -0.6582582, 0.031872764, 0.0030625744, -0.90954065, -0.22329712, 0
732, 3062056361, 0.7514404, 0.037844583, -0.65797454, 0.031312034, 0.08651739, 0.3984506, 1.0486145, 0
733, 3062073028, 0.75162315, 0.037753835, -0.65780354, 0.030623138, 0.548364, 1.154934, -0.7841997, 0
734, 3062089695, 0.75159645, 0.037540868, -0.6578942, 0.029574156, 2.1160338, 1.045461, -1.20331, 0
735, 3062106362, 0.75140923, 0.037307553, -0.65817195, 0.028425217, 1.4850394, 0.72068566, -1.2973194, 0
736, 3062123029, 0.7512419, 0.03716512, -0.6584117, 0.027464971, 1.8037093, -0.60630894, 1.1446409, 0
737, 3062139696, 0.75103414, 0.03665419, -0.65869874, 0.026945844, 1.6429883, -1.7476251, 0.8593073, 0
738, 3062156363, 0.75110453, 0.035828702, -0.6586731, 0.026715532, -0.2811717, -0.16290797, 0.4008503, 0
739, 3062173030, 0.75113827, 0.035423867, -0.6586742, 0.026278898, -0.6306901, 3.3124056, 0.24177551, 0
740, 3062189697, 0.7510035, 0.035732366, -0.6588474, 0.025353953, 0.7723736, 2.5703132, -0.45658875, 0
741, 3062206364, 0.7507956, 0.035970055, -0.65911454, 0.024204463, 3.0971408, -0.2430057, -0.32692719, 0
742, 3062223031, 0.7505646, 0.03540258, -0.6594357, 0.023446292, 4.039064, -0.7924222, 0.3262949, 0
743, 3062239698, 0.7503489, 0.034580387, -0.6597265, 0.023401454, 2.360269, 0.4753352, -1.9983988, 0
744, 3062256365, 0.75017923, 0.03412711, -0.6599232, 0.023951352, 0.78401124, 2.019503, -1.8833966, 0
745, 3062273032, 0.7501697, 0.03378287, -0.6599296, 0.024551675, -0.49141604, 2.295519, 1.698389, 0
746, 3062289699, 0.7503825, 0.03338802, -0.6597012, 0.024727434, -0.4940973, 1.6826048, 2.332137, 0
747, 3062306366, 0.750462, 0.033260986, -0.6596278, 0.024445027, 1.0740571, 1.2721578, 1.1513014, 0
748, 3062323033, 0.7505406, 0.03393141, -0.65951663, 0.024108887, 1.4684913, 0.38745207, -2.5173364, 0
749, 3062339700, 0.75053436, 0.03495404, -0.6594721, 0.02406308, 1.1554418, 0.40412596, -1.8555918, 0
750, 3062356367, 0.75037485, 0.035853364, -0.6596024, 0.02413705, -0.101110555, 1.5836178, -0.7970791, 0
751, 3062373034, 0.75033796, 0.037025735, -0.6595787, 0.024164662, -1.5870699, 1.569963, 1.3063211, 0
752, 3062389701, 0.7504414, 0.038448974, -0.65937877, 0.024184003, -3.0416064, 0.54706436, 0.069169044, 0
753, 3062406368, 0.7505154, 0.039973505, -0.6592093, 0.02404061, -1.7691861, 2.75815E-4, -1.2805405, 0
754, 3062423035, 0.75035286, 0.041540213, -0.6592999, 0.023968413, -1.2250988, -0.59490544, -1.5199633, 0
755, 3062439702, 0.7500176, 0.042765014, -0.65959585, 0.024165273, -2.25651, -0.90563035, -1.2087364, 0
756, 3062456369, 0.7497118, 0.043611914, -0.65987223, 0.024587303, -3.4337633, -1.1769526, 1.0892048, 0
757, 3062473036, 0.74944746, 0.04416153, -0.660112, 0.025221527, -2.1888123, -1.002309, 2.6513367, 0
758, 3062489703, 0.7493623, 0.044098236, -0.66018903, 0.025841564, -2.6432755, -1.273103, 1.7585468, 0
759, 3062506370, 0.74934125, 0.043648288, -0.6602204, 0.026411742, -1.4460783, -0.9796651, 0.6566076, 0
760, 3062523037, 0.7490765, 0.042765602, -0.66055876, 0.026899248, 0.28836212, -1.7549602, -0.42476177, 0
761, 3062539704, 0.7488321, 0.041254684, -0.66091627, 0.027279675, -0.11549004, -2.8242276, -1.7675714, 0
762, 3062556371, 0.74879336, 0.03942147, -0.6610596, 0.027577937, -0.21278434, -2.9724004, 1.897954, 0
763, 3062573038, 0.74870074, 0.037402518, -0.6612876, 0.02743785, -0.22444858, -3.1860714, 3.739687, 0
764, 3062589705, 0.7488717, 0.035460137, -0.6612275, 0.0267926, -3.3027136, -3.4865456, 2.7496204, 0
765, 3062606372, 0.74949735, 0.03385281, -0.6606473, 0.025665, -3.042233, -2.4331143, 0.4182949, 0
766, 3062623039, 0.7500894, 0.032414198, -0.66010314, 0.024186209, -1.9823165, -2.815297, -0.79312515, 0
767, 3062639706, 0.7504016, 0.030796647, -0.6598827, 0.022573844, -0.48784497, -3.4047701, -0.6945677, 0
768, 3062656373, 0.75052583, 0.028874792, -0.65988266, 0.020923361, -1.0355346, -3.6743248, 0.2448597, 0
769, 3062673040, 0.7506588, 0.026901528, -0.6598675, 0.019195199, -1.9431027, -2.4542782, 1.0949965, 0
770, 3062689707, 0.75078404, 0.025131643, -0.6598418, 0.017503425, -2.073155, -1.6637762, 0.17801666, 0
771, 3062706374, 0.75096303, 0.023358166, -0.6597457, 0.015825346, -2.0049787, -1.3212838, -0.17875004, 0
772, 3062723041, 0.75102496, 0.021379888, -0.65977967, 0.014181986, -0.07336634, -1.2017363, -0.15634632, 0
773, 3062739708, 0.7509694, 0.01909212, -0.6599447, 0.01261276, -0.12591513, -0.64714754, -0.46073723, 0
774, 3062756375, 0.7509508, 0.016757764, -0.6600565, 0.011115238, -0.20996897, 0.23671609, -0.7906151, 0
775, 3062773042, 0.75097317, 0.014622457, -0.6601041, 0.009694323, -0.29584935, 0.07213423, -0.2692604, 0
776, 3062789709, 0.7510594, 0.012449019, -0.66006655, 0.008533463, 0.43315917, -0.392068, -0.017585754, 0
777, 3062806376, 0.75115466, 0.009860307, -0.66001385, 0.007563323, 0.09462644, 0.29877937, 0.0030736923, 0
778, 3062823043, 0.75125575, 0.0072622597, -0.65994066, 0.006801769, 0.29927447, 1.1813272, -0.059598923, 0
779, 3062839710, 0.7512364, 0.0050560012, -0.65998805, 0.0063268095, 0.856541, 0.8348072, 1.0747929, 0
780, 3062856377, 0.7511983, 0.0030235276, -0.6600464, 0.0060367286, 0.92322963, 0.089870535, 0.052419662, 0
781, 3062873044, 0.7512581, 8.9772046E-4, -0.6599858, 0.0059149414, 0.39819503, 0.1943686, 0.015449524, 0
782, 3062889711, 0.75135267, -0.0010996684, -0.65987885, 0.0058282763, 0.68888104, 0.98583454, -1.2378197, 0
783, 3062906378, 0.75131726, -0.0027824268, -0.6599141, 0.0058238804, 0.0068363673, 0.5236837, -0.08512688, 0
784, 3062923045, 0.7513047, -0.0044516176, -0.65991855, 0.005920857, 0.19526672, -0.07862258, 0.81454086, 0
785, 3062939712, 0.75129485, -0.006143689, -0.659915, 0.0060204417, -0.708756, 0.05712924, 0.27274227, 0
786, 3062956379, 0.7513775, -0.007849909, -0.6598032, 0.0059755296, -0.75026864, 0.2540937, -0.042822838, 0
787, 3062973046, 0.7514964, -0.0094732195, -0.6596472, 0.00590612, -0.46870622, -0.24218227, -0.09162235, 0
788, 3062989713, 0.751574, -0.010891512, -0.65953594, 0.006007299, 0.078882195, 0.10765764, 0.6719942, 0
789, 3063006380, 0.7515733, -0.012090579, -0.65951395, 0.006205857, 0.55745023, 0.44581038, 0.23763943, 0
790, 3063023047, 0.75155663, -0.01310017, -0.6595118, 0.006419286, -0.43340907, 0.680355, -0.41707993, 0
791, 3063039714, 0.7515004, -0.013794437, -0.65955985, 0.0065933466, 0.005074638, 1.0175391, 0.5325222, 0
792, 3063056381, 0.75149745, -0.014062807, -0.65955573, 0.0067756623, -0.45911857, 0.5327996, -0.877265, 0
793, 3063073048, 0.75157505, -0.014222413, -0.6594612, 0.007033631, -0.021265917, 0.036235027, 0.98173046, 0
794, 3063089715, 0.75157154, -0.0145813, -0.6594532, 0.007414475, 0.64435077, 0.65587854, 0.7405491, 0
795, 3063106382, 0.75162005, -0.014886595, -0.65938854, 0.0076421797, -0.5528479, 1.4741317, -1.2488384, 0
796, 3063123049, 0.7517299, -0.014584638, -0.65926856, 0.0077623427, -0.5807032, 1.4277122, -0.17545986, 0
797, 3063139716, 0.75171524, -0.014367685, -0.6592865, 0.008062184, 0.9958226, -0.98350716, 0.7159252, 0
798, 3063156383, 0.7516789, -0.01485087, -0.6593103, 0.00861907, 1.060962, -0.829379, -0.578537, 0
799, 3063173050, 0.75165737, -0.015513934, -0.6593114, 0.00921689, 0.23550218, 1.1338696, -0.34101677, 0
800, 3063189717, 0.7516693, -0.016031086, -0.6592776, 0.009754628, 0.048011478, 0.8402254, -1.0128555, 0
801, 3063206384, 0.7517497, -0.016593784, -0.6591629, 0.0103569925, 0.32435396, 0.056577556, -0.1716423, 0
802, 3063223051, 0.75173914, -0.017436825, -0.65914214, 0.01102826, 1.1900988, 0.52949435, 0.44251633, 0
803, 3063239718, 0.75163776, -0.018534437, -0.6592178, 0.011621147, 0.43614486, 0.6551746, -0.49987316, 0
804, 3063256385, 0.7515521, -0.01935029, -0.65928125, 0.0122115165, 0.43409914, 1.0046763, 0.26868153, 0
805, 3063273052, 0.7515112, -0.019951254, -0.6592968, 0.012896761, 0.074154444, 0.3675914, -0.19827557, 0
806, 3063289719, 0.75165296, -0.020667799, -0.6591001, 0.013554096, -0.37905562, 0.36668015, 0.41925144, 0
807, 3063306386, 0.7517851, -0.021110259, -0.65892047, 0.014252186, -0.2355983, 1.4961095, 0.5664635, 0
808, 3063323053, 0.7518212, -0.021106951, -0.6588654, 0.014885798, 0.07313165, 1.5477087, -0.4765501, 0
809, 3063339720, 0.7518762, -0.020844668, -0.658795, 0.015577942, -0.07403599, 0.52716637, 0.8008537, 0
810, 3063356387, 0.75189865, -0.020453088, -0.65876245, 0.016376123, -0.22986877, 0.80185467, 0.10901356, 0
811, 3063373054, 0.75196534, -0.019980922, -0.658682, 0.017119706, -0.5702343, 1.4486457, -0.33807564, 0
812, 3063389721, 0.75213706, -0.019294858, -0.6584889, 0.01777266, -0.7102844, 1.310462, 0.48743343, 0
813, 3063406388, 0.7522175, -0.018499173, -0.6583985, 0.018548489, 0.09258309, 0.8626986, 0.6410818, 0
814, 3063423055, 0.75229055, -0.017824285, -0.6583081, 0.019432113, 0.26119545, 0.67113894, -0.71212673, 0
815, 3063439722, 0.7523186, -0.017282404, -0.6582634, 0.020326674, -0.36701095, 1.1328489, -0.6996298, 0
816, 3063456389, 0.75247, -0.01683499, -0.6580713, 0.021294728, -0.15576532, 1.2208086, 0.642437, 0
817, 3063473056, 0.752596, -0.01644472, -0.65789825, 0.022462696, -0.3499091, 0.34996334, -1.0200396, 0
818, 3063489723, 0.7526322, -0.016156413, -0.65781945, 0.023735777, -0.22226486, 0.504817, 0.98771286, 0
819, 3063506390, 0.7525872, -0.015918538, -0.657829, 0.025018781, 0.053077176, 0.7317165, -0.69341946, 0
820, 3063523057, 0.75253564, -0.015672527, -0.6578476, 0.026212543, -0.65171283, 0.86839205, 0.10434151, 0
821, 3063539724, 0.75249195, -0.015329063, -0.6578579, 0.027383178, -0.15164371, 1.0561824, 0.52076626, 0
822, 3063556391, 0.75246876, -0.014656909, -0.6578451, 0.028666988, -0.42170504, 0.68385947, 0.5324993, 0
823, 3063573058, 0.7524733, -0.013817653, -0.6578021, 0.029924214, -0.44848546, 1.3099922, 0.603508, 0
824, 3063589725, 0.7523293, -0.013078488, -0.65793, 0.031038314, -0.33133382, 1.3436748, -0.10100174, 0
825, 3063606392, 0.7522547, -0.012226306, -0.65798223, 0.032071456, -0.72911, 1.0209506, -1.7143173, 0
826, 3063623059, 0.7521754, -0.01094237, -0.6580434, 0.033122644, -0.5820479, 1.0627191, 1.2338629, 0
827, 3063639726, 0.75200504, -0.009440444, -0.6582066, 0.034194976, 0.25800905, 0.86405694, 0.5141592, 0
828, 3063656393, 0.75184375, -0.008094408, -0.6583585, 0.035147533, 0.19778438, 0.5401636, -0.9584675, 0
829, 3063673060, 0.75172937, -0.0067827627, -0.6584577, 0.036002845, -0.31032866, 1.2686079, 0.4463768, 0
830, 3063689727, 0.7516382, -0.005217783, -0.6585344, 0.0367586, -0.22812983, 0.9896253, 0.50734806, 0
831, 3063706394, 0.7515943, -0.0035058185, -0.6585542, 0.037498355, 0.21067616, -0.16673557, -0.18455029, 0
832, 3063723061, 0.7514493, -0.0020580739, -0.6586835, 0.03823182, -0.12960577, 0.33969003, 0.15633869, 0
833, 3063739728, 0.75130355, -6.534532E-4, -0.6588145, 0.038879246, -1.3430809, 1.0145282, -1.1872988, 0
834, 3063756395, 0.75125474, 7.1588904E-4, -0.6588393, 0.0394011, -0.37370965, 0.005215004, 1.8991671, 0
835, 3063773062, 0.750998, 0.001978062, -0.65909547, 0.039963603, 0.090528555, -0.76406986, -1.5036087, 0
836, 3063789729, 0.7508491, 0.0029943436, -0.6592389, 0.040331647, -0.4333952, -0.40467545, 1.2217884, 0
837, 3063806396, 0.75074726, 0.0039325655, -0.6593293, 0.04066758, -0.23769173, 0.77518123, 0.845335, 0
838, 3063823063, 0.75060534, 0.0049364567, -0.65946877, 0.04091321, -0.8870974, 0.10596917, -0.450552, 0
839, 3063839730, 0.75045323, 0.0060492307, -0.65962213, 0.041085407, -0.03107903, -0.043041553, 1.0855093, 0
840, 3063856397, 0.7502321, 0.0070120543, -0.65986127, 0.0411295, 0.029629324, -0.32451516, -0.16895199, 0
841, 3063873064, 0.7500908, 0.0077491403, -0.660014, 0.041124478, -0.8406394, 0.19515455, -0.6260061, 0
842, 3063889731, 0.7501516, 0.008649461, -0.6599273, 0.041227356, -1.3877798, 0.6933634, -1.3443928, 0
843, 3063906398, 0.75040466, 0.0095349625, -0.6596128, 0.041457206, -1.2370628, -0.3804562, -0.7684746, 0
844, 3063923065, 0.75081944, 0.010079548, -0.65910834, 0.041838884, -0.30349484, -0.19821683, 0.26743412, 0
845, 3063939732, 0.7511095, 0.010429263, -0.65874755, 0.04222642, 0.30384663, 1.0077771, 1.804657, 0
846, 3063956399, 0.7511025, 0.011078216, -0.65872574, 0.04252836, 1.1777966, 1.215688, 0.4589548, 0
847, 3063973066, 0.75099504, 0.012000762, -0.6588122, 0.042836234, 1.3897365, 0.29214618, 0.5685415, 0
848, 3063989733, 0.7507765, 0.012794197, -0.6590315, 0.043059826, 0.48282108, 0.44819993, -0.4428625, 0
849, 3064006400, 0.7506158, 0.013749525, -0.6591962, 0.04304777, -0.767379, 0.7903083, -0.3244896, 0
850, 3064023067, 0.7504963, 0.014990926, -0.6593137, 0.042916805, -0.6193473, 0.4261421, -0.36520004, 0
851, 3064039734, 0.75039697, 0.016214736, -0.659417, 0.04262182, -0.035262745, -0.12359417, 0.21001339, 0
852, 3064056401, 0.7503735, 0.017289758, -0.6594401, 0.04225409, 0.04416437, -0.6912799, 0.0053749084, 0
853, 3064073068, 0.7504907, 0.018269174, -0.6593065, 0.0418438, -0.006762608, -0.2910042, 0.28605938, 0
854, 3064089735, 0.7505923, 0.019270115, -0.6591889, 0.041421607, 0.12329307, 0.36148012, 0.58933735, 0
855, 3064106402, 0.750685, 0.020378515, -0.65907294, 0.04105681, 0.25849587, 0.2180465, 0.28360367, 0
856, 3064123069, 0.75067794, 0.021467559, -0.6590629, 0.040789932, 0.83841366, 0.72350854, 0.46160126, 0
857, 3064139736, 0.7505254, 0.022531055, -0.65923154, 0.040294886, 0.50575215, 1.7302805, -0.7996359, 0
858, 3064156403, 0.75058615, 0.023678541, -0.6591666, 0.03956063, -0.8848896, -0.07056572, -0.5027914, 0
859, 3064173070, 0.7507393, 0.024631672, -0.65898854, 0.039032504, 1.2003857, -0.35193703, 2.1705017, 0
860, 3064189737, 0.75068957, 0.025202677, -0.65904206, 0.038721934, 1.6375941, 0.2864413, -0.2932968, 0
861, 3064206404, 0.7505784, 0.025765106, -0.65915537, 0.03857769, 0.9522486, 0.34155333, -1.6737823, 0
862, 3064223071, 0.750364, 0.026546113, -0.6593776, 0.038421914, 1.8810061, 1.3590813, 0.059267044, 0
863, 3064239738, 0.7499093, 0.027636841, -0.6598768, 0.037956446, 2.4379091, 1.7642995, -1.8186421, 0
864, 3064256405, 0.7494948, 0.028761595, -0.6603546, 0.03698665, 1.319565, 0.547147, -0.3457899, 0
865, 3064273072, 0.7494016, 0.029665194, -0.6604794, 0.035914212, 1.5515487, -0.44824132, 0.8323078, 0
866, 3064289739, 0.7495895, 0.030439563, -0.660275, 0.035098106, 0.17223231, -1.2001016, 0.107536316, 0
867, 3064306406, 0.74975336, 0.031004675, -0.66008353, 0.034700125, 1.6509959, 0.11128207, 1.9915485, 0
868, 3064323073, 0.74990153, 0.031062588, -0.6599279, 0.034404576, 0.87954223, 0.66401106, -0.4903221, 0
869, 3064339740, 0.7500057, 0.031023525, -0.6598386, 0.033879325, 1.2683337, 2.4247692, -1.5605259, 0
870, 3064356407, 0.74993795, 0.031325534, -0.6599397, 0.03312494, 2.372624, 1.9114138, -1.7083826, 0
871, 3064373074, 0.7499337, 0.031316124, -0.6599764, 0.03249234, 3.1585393, 0.12827957, -1.2905092, 0
872, 3064389741, 0.7499106, 0.03043773, -0.66004866, 0.032393083, 2.0743902, -0.95495105, 0.45880604, 0
873, 3064406408, 0.7499437, 0.028800651, -0.6600617, 0.03285338, 2.179945, 0.03590613, 2.7045498, 0
874, 3064423075, 0.7499316, 0.02692122, -0.66011393, 0.033663884, 0.50858897, 0.80390257, 0.5387049, 0
875, 3064439742, 0.74989873, 0.02556859, -0.66016877, 0.034369543, -0.40658236, 2.3002286, -1.3310995, 0
876, 3064456409, 0.7497232, 0.024634026, -0.6603844, 0.034734398, 1.9191113, 2.4755752, -1.3985968, 0
877, 3064473076, 0.7491576, 0.02346906, -0.66105413, 0.035006523, 4.7316003, 2.2754002, -1.308115, 0
878, 3064489743, 0.7488881, 0.022194877, -0.6613769, 0.035504684, 2.2696254, 1.3169351, -1.5145521, 0
879, 3064506410, 0.7490201, 0.021057524, -0.66120946, 0.036516145, 0.83823234, 0.32676494, 1.7671738, 0
880, 3064523077, 0.7492063, 0.019910753, -0.6609608, 0.0378173, -0.5150561, -0.7538996, 0.3966322, 0
881, 3064539744, 0.74954736, 0.018692866, -0.660539, 0.03903219, -1.1242281, -0.8418171, 0.80700874, 0
882, 3064556411, 0.74946994, 0.017547987, -0.6606119, 0.03980823, -0.07438221, 0.22452933, -3.0747104, 0
883, 3064573078, 0.7490225, 0.016744107, -0.661099, 0.040481344, -2.1900651, -0.5523212, -4.822157, 0
884, 3064589745, 0.74836653, 0.015890658, -0.66180027, 0.04148613, 0.09274893, 0.25809544, 0.9700947, 0
885, 3064606412, 0.74752486, 0.015155703, -0.6626822, 0.042837515, -1.958712, 1.4857193, 2.838459, 0
886, 3064623079, 0.7471534, 0.013933852, -0.6630371, 0.044218093, -4.0302477, 0.5019152, 3.7310982, 0
887, 3064639746, 0.7471871, 0.012307122, -0.66293484, 0.04564327, -2.6329143, 0.50353605, 1.651125, 0
888, 3064656413, 0.74730015, 0.010755457, -0.66273695, 0.047036484, -1.6940097, -1.0665042, 1.319108, 0
889, 3064673080, 0.7472687, 0.0093073845, -0.662684, 0.04856506, -0.22217187, -2.3946555, -0.27877712, 0
890, 3064689747, 0.7473526, 0.007966913, -0.6625004, 0.049999297, -3.72665, -2.6197338, -0.79955006, 0
891, 3064706414, 0.7476944, 0.007198952, -0.6620483, 0.05098377, -3.5193517, -0.15385619, 2.4016523, 0
892, 3064723081, 0.7477923, 0.0072370917, -0.66189736, 0.05150053, -3.5594673, 0.57350856, 1.2757349, 0
893, 3064739748, 0.7480359, 0.008044779, -0.66161466, 0.05147347, -5.20029, -0.26139146, 0.062376022, 0
894, 3064756415, 0.74850327, 0.009896137, -0.66107666, 0.051267624, -3.1658006, 0.18745048, -1.030364, 0
895, 3064773082, 0.74873465, 0.012474939, -0.6607802, 0.051149145, -2.4039614, 0.013752305, 0.17687416, 0
896, 3064789749, 0.7486714, 0.015287146, -0.66079164, 0.051162556, -0.5542942, 0.35966644, 0.056227684, 0
897, 3064806416, 0.7484998, 0.018259436, -0.6608954, 0.051358923, -2.0378377, 1.0176008, -0.09020233, 0
898, 3064823083, 0.748489, 0.021035656, -0.6608056, 0.05161096, -2.984681, 1.4749806, 0.84035206, 0
899, 3064839750, 0.74858624, 0.023366474, -0.6605911, 0.05194153, -2.311926, -0.08286609, 1.5458231, 0
900, 3064856417, 0.7488131, 0.025243342, -0.660213, 0.052596897, -2.208088, -1.8419782, 0.2622776, 0
901, 3064873084, 0.7489864, 0.026446208, -0.6599087, 0.053351656, -1.4114088, -0.4995214, 0.63697624, 0
902, 3064889751, 0.7489247, 0.027206898, -0.65990937, 0.053826004, -1.324909, -0.72838753, -1.0266294, 0
903, 3064906418, 0.7488882, 0.028020218, -0.6599011, 0.05401881, 0.08843341, -1.7517021, -0.23190022, 0
904, 3064923085, 0.74869716, 0.02899579, -0.6600771, 0.054000184, -0.6543664, -2.2469006, -0.1959343, 0
905, 3064939752, 0.7485925, 0.03011842, -0.66017115, 0.05368489, -1.4003162, -1.7596387, 0.9881363, 0
906, 3064956419, 0.74843204, 0.03150697, -0.6603467, 0.05296123, -1.2191952, -0.8339348, 1.5443869, 0
907, 3064973086, 0.7482422, 0.03321804, -0.66057056, 0.051794216, -0.7862278, -1.0258667, -0.49909115, 0
908, 3064989753, 0.7481899, 0.03518559, -0.6606355, 0.050402775, -0.8808167, -1.3335418, -0.6926794, 0
909, 3065006420, 0.7482715, 0.03714203, -0.6605599, 0.048750803, -1.2745643, -0.9737865, -0.22475338, 0
910, 3065023087, 0.74835956, 0.038956292, -0.6604831, 0.04699233, -0.5017562, -0.9325839, 1.1850929, 0
911, 3065039754, 0.7484974, 0.04060489, -0.660353, 0.045195177, -0.4938568, -1.4865952, -0.8579483, 0
912, 3065056421, 0.74863493, 0.04217852, -0.66021943, 0.04339096, -0.7486799, -0.8909277, 0.49788475, 0
913, 3065073088, 0.74873525, 0.043615185, -0.66013545, 0.041476294, 0.13210331, -1.4057679, -0.49842453, 0
914, 3065089755, 0.74887866, 0.04473062, -0.66001856, 0.03951229, -0.45012468, -1.1327059, 0.4474373, 0
915, 3065106422, 0.7490526, 0.04562512, -0.65987945, 0.037465677, -0.17941296, -0.5101947, 0.33309555, 0
916, 3065123089, 0.7491549, 0.046448737, -0.65981543, 0.03548065, 0.7374108, -0.79667974, 0.87582684, 0
917, 3065139756, 0.74914587, 0.04708293, -0.65987945, 0.033597857, 1.4943916, -0.39163494, 0.044771194, 0
918, 3065156423, 0.74904823, 0.04727996, -0.660065, 0.03180185, 0.9043513, -0.3789708, -0.32587624, 0
919, 3065173090, 0.7490771, 0.046899885, -0.66013557, 0.03017889, 0.40323615, 0.17042539, -1.0830145, 0
920, 3065189757, 0.7491853, 0.046279177, -0.6601186, 0.02878964, 0.34644017, 0.13119026, 0.655591, 0
921, 3065206424, 0.74915916, 0.04559105, -0.6602456, 0.02763328, 1.4598123, 0.24103235, 0.7557459, 0
922, 3065223091, 0.74920595, 0.044616245, -0.66030574, 0.026497006, 0.49493524, -0.34167162, -1.768096, 0
923, 3065239758, 0.7494637, 0.04324703, -0.66014427, 0.025484815, 0.39408553, -0.022225123, 0.21409416, 0
924, 3065256425, 0.74963164, 0.041860417, -0.6600727, 0.024698451, 1.04697, 0.29668897, 1.1613865, 0
925, 3065273092, 0.7497754, 0.040493794, -0.66001654, 0.024108425, 1.3456306, -0.42616764, -0.5145407, 0
926, 3065289759, 0.7499727, 0.039044738, -0.65989584, 0.023661628, 1.1124333, -0.10156999, 0.14494038, 0
927, 3065306426, 0.75015765, 0.037533842, -0.65978867, 0.023228899, 0.42655972, 0.9603304, -0.6947956, 0
928, 3065323093, 0.7503994, 0.03630785, -0.6596002, 0.022711352, -0.25383738, 0.5980349, -0.44429398, 0
929, 3065339760, 0.750532, 0.035400733, -0.6595164, 0.022192225, 1.27212, 0.040088948, 1.1765137, 0
930, 3065356427, 0.7505265, 0.034531087, -0.6595883, 0.02160208, 0.8616107, -0.6615376, -0.07249546, 0
931, 3065373094, 0.7505495, 0.03375139, -0.6596251, 0.020899415, 0.15514928, 0.005624033, 0.014965057, 0
932, 3065389761, 0.750531, 0.033199698, -0.6596995, 0.020087838, 0.49432662, -0.04607943, 0.08222866, 0
933, 3065406428, 0.750547, 0.03265457, -0.6597369, 0.019132793, 0.48598018, -1.0080587, -0.5732708, 0
934, 3065423095, 0.75054044, 0.03185071, -0.6598105, 0.018188909, 1.8633453, -1.325707, 0.3615303, 0
935, 3065439762, 0.75050443, 0.030512922, -0.6599376, 0.017328829, 1.6994808, -0.58197045, -0.19521046, 0
936, 3065456429, 0.75048465, 0.028888501, -0.66005117, 0.016626209, 0.80323356, 0.049355127, 0.0029592514, 0
937, 3065473096, 0.7504218, 0.027060866, -0.66021115, 0.016188845, 1.2442648, -0.4262814, 0.54836273, 0
938, 3065489763, 0.7503183, 0.024714783, -0.6604291, 0.015840381, 0.7142495, -0.5510295, -0.22128677, 0
939, 3065506430, 0.75028324, 0.021939144, -0.66057503, 0.015504822, 0.4172093, -0.2572292, 0.3188858, 0
940, 3065523097, 0.75020254, 0.019144475, -0.66075796, 0.015312642, 0.8642692, -0.040681705, 0.4019766, 0
941, 3065539764, 0.75019574, 0.016525358, -0.660838, 0.01524125, 0.34851626, -0.52040714, -0.67528725, 0
942, 3065556431, 0.75024325, 0.013967, -0.66084313, 0.015242249, -0.0064970744, -0.22377972, -0.33285904, 0
943, 3065573098, 0.75036603, 0.011512481, -0.66074973, 0.015297025, 0.16319261, 0.53077155, -0.94128704, 0
944, 3065589765, 0.7504764, 0.009336665, -0.66065514, 0.015445784, 0.1749816, 1.1015146, -0.20019531, 0
945, 3065606432, 0.7504757, 0.007677838, -0.66066927, 0.01578854, 0.55025315, 0.8728629, -0.06317711, 0
946, 3065623099, 0.75041497, 0.0063026994, -0.6607437, 0.016170025, 0.4163215, 1.0240462, -0.13430214, 0
947, 3065639766, 0.75035214, 0.005053118, -0.66081965, 0.016420424, 0.29096022, 1.2392344, 0.41602612, 0
948, 3065656433, 0.7502417, 0.0041472763, -0.66094315, 0.016743928, -0.21948346, 0.95402795, 0.31725788, 0
949, 3065673100, 0.75021106, 0.003638126, -0.66096854, 0.017217577, -0.7066916, 1.1018394, 0.12223244, 0
950, 3065689767, 0.75018436, 0.0033376142, -0.6609851, 0.017803058, -0.3175654, 0.9984194, 0.65378475, 0
951, 3065706434, 0.7500863, 0.0031542778, -0.66107935, 0.018458396, -0.3787865, 0.8268728, -1.0963936, 0
952, 3065723101, 0.75013435, 0.0030767769, -0.66100794, 0.019062504, -1.5688913, 0.36428162, -0.6357899, 0
953, 3065739768, 0.75022405, 0.0029719546, -0.66088897, 0.019668043, -0.28385872, 0.6303638, 1.6067553, 0
954, 3065756435, 0.75032157, 0.0030493438, -0.6607581, 0.020328492, -0.7315731, 0.39716575, -0.9965172, 0
955, 3065773102, 0.75054055, 0.0032758191, -0.6604879, 0.02097179, -1.2775701, 0.19929454, 0.47214222, 0
956, 3065789769, 0.75072145, 0.0033789277, -0.66025764, 0.021714896, -0.7064967, 0.1831882, 2.1820793, 0
957, 3065806436, 0.750829, 0.003437817, -0.6601082, 0.022517368, -0.18252783, -0.015971398, -0.5081749, 0
958, 3065823103, 0.7508957, 0.0036161318, -0.6600084, 0.023183942, -0.94559616, 0.73598033, -0.3415079, 0
959, 3065839770, 0.7511488, 0.0040033385, -0.6596994, 0.023708716, -1.0406713, 0.26599538, -0.034611702, 0
960, 3065856437, 0.7513549, 0.0043990314, -0.65944237, 0.024253562, -0.7723191, -0.47699648, 0.08987236, 0
961, 3065873104, 0.7514269, 0.004678525, -0.659342, 0.024697408, 0.68310434, 0.07584459, 0.20753098, 0
962, 3065889771, 0.75129914, 0.004951149, -0.6594744, 0.024988875, 1.0556312, 0.16802916, -0.88280106, 0
963, 3065906438, 0.7511696, 0.0053954795, -0.65961516, 0.025078118, 0.072548285, 0.023716178, 0.80309486, 0
964, 3065923105, 0.75108606, 0.005957626, -0.659706, 0.025063768, 0.21568553, -0.5457398, 0.07465744, 0
965, 3065939772, 0.7511061, 0.006432228, -0.6596823, 0.024972558, 0.0409364, -0.67168427, -0.27546597, 0
966, 3065956439, 0.75104773, 0.0068256482, -0.65975094, 0.024802923, 0.03533796, -0.23721431, 0.60431767, 0
967, 3065973106, 0.750948, 0.0071644187, -0.65987045, 0.024545774, -0.19880494, 0.48046926, 0.37145042, 0
968, 3065989773, 0.750781, 0.0074108094, -0.6600698, 0.024222016, -0.23357104, -0.37036696, -0.24643135, 0
969, 3066006440, 0.7506926, 0.00744617, -0.6601782, 0.023998082, -0.2328035, -0.23722218, 0.16478443, 0
970, 3066023107, 0.75064224, 0.00735572, -0.6602416, 0.023854703, -0.4749941, 0.59786755, -0.5121908, 0
971, 3066039774, 0.7505065, 0.0069926083, -0.66040516, 0.023705631, 0.35153806, 0.64457583, 0.39491558, 0
972, 3066056441, 0.7503894, 0.006612934, -0.6605436, 0.023661911, 0.6895777, 0.71749884, -0.34798717, 0
973, 3066073108, 0.75027823, 0.0062273666, -0.6606679, 0.023823887, -0.01186675, 0.08812166, 0.8279047, 0
974, 3066089775, 0.7502371, 0.0055150464, -0.66070765, 0.024190292, 0.42048106, -0.5163699, -0.70109653, 0
975, 3066106442, 0.7501463, 0.0048400015, -0.6607975, 0.024693936, -0.53443646, 0.53534037, -0.3734436, 0
976, 3066123109, 0.750191, 0.00447239, -0.6607312, 0.02517426, -0.20809905, 0.83367616, 0.5663748, 0
977, 3066139776, 0.7499899, 0.0042470023, -0.6609423, 0.025658458, 0.15830708, 0.83066887, -1.100296, 0
978, 3066156443, 0.7497809, 0.004287325, -0.6611633, 0.02606006, 0.2938648, 1.4860225, 0.38774204, 0
979, 3066173110, 0.749613, 0.004580125, -0.6613395, 0.02636753, -0.3767445, 1.2168647, 0.09643841, 0
980, 3066189777, 0.74955297, 0.0050540566, -0.66138655, 0.026802927, -0.021435786, 0.5577504, 0.7351799, 0
981, 3066206444, 0.7495643, 0.005557187, -0.66134024, 0.027523533, 0.8824019, 0.7351663, 0.5935631, 0
982, 3066223111, 0.7495948, 0.0058352724, -0.66126573, 0.028410375, -0.342606, 1.0071381, -0.66737556, 0
983, 3066239778, 0.7498114, 0.00624609, -0.66097724, 0.029307067, -0.29890165, 1.3214782, -0.26452255, 0
984, 3066256445, 0.7499684, 0.0070241615, -0.6607548, 0.030113682, 0.8302992, 1.9448224, 1.4380093, 0
985, 3066273112, 0.7498542, 0.008029446, -0.6608479, 0.030665219, 2.47087, 1.659054, -0.40755844, 0
986, 3066289779, 0.7496875, 0.009238131, -0.66100764, 0.030952841, 1.90942, 0.9455387, -0.45751476, 0
987, 3066306446, 0.7495788, 0.010617457, -0.6611037, 0.031090766, 1.6420017, 1.293101, -0.051465034, 0
988, 3066323113, 0.7497835, 0.012189761, -0.6608413, 0.031158656, 0.15586586, -0.50364, -2.2411022, 0
989, 3066339780, 0.7502438, 0.013826132, -0.6602855, 0.031175405, 1.2447401, -0.34857783, 0.6011801, 0
990, 3066356447, 0.75068164, 0.015306897, -0.6597657, 0.030945659, 1.0988319, 1.0266703, 0.16576481, 0
991, 3066373114, 0.75085115, 0.017095894, -0.65956086, 0.030259103, 2.6006706, 2.0868106, 1.9771528, 0
992, 3066389781, 0.75058335, 0.019238472, -0.6598566, 0.02914989, 3.9687912, 1.2975332, -2.370192, 0
993, 3066406448, 0.7501328, 0.021361902, -0.6603543, 0.027976409, 2.0119004, 0.5949854, -1.8161464, 0
994, 3066423115, 0.7499081, 0.023261376, -0.660591, 0.02687329, 1.8775764, 1.1520083, 0.5211878, 0
995, 3066439782, 0.7498923, 0.024730064, -0.6605968, 0.025837779, 0.27029288, -0.42429978, 1.2060747, 0
996, 3066456449, 0.7501535, 0.025905095, -0.6602902, 0.02493219, 0.73351765, -0.95967615, 2.3786364, 0
997, 3066473116, 0.75024754, 0.027361386, -0.66015774, 0.024034187, 0.79712856, 1.8339208, -0.41160107, 0
998, 3066489783, 0.75004077, 0.029189363, -0.66035485, 0.02288872, 0.06761759, 2.002507, -4.229453, 0
999, 3066506450, 0.7495721, 0.030933976, -0.6608435, 0.021828488, 2.6572752, 3.1859896, -1.1525364, 0
1000, 3066523117, 0.74905777, 0.03203126, -0.6613968, 0.021128997, 0.67972213, 1.7750311, -1.4231405, 0
1001, 3066539784, 0.7487997, 0.0322403, -0.66168004, 0.02109377, -0.26734117, 0.5988226, 3.0532703, 0
1002, 3066556451, 0.7487297, 0.03180652, -0.66175365, 0.02190964, -1.3100885, -1.4189048, 1.3375998, 0
1003, 3066573118, 0.7489875, 0.031334564, -0.66143745, 0.023285672, -3.0481536, -0.8348873, -0.2029419, 0
1004, 3066589785, 0.74915904, 0.031186074, -0.6612092, 0.024423778, -1.3920959, 0.53046453, -1.5047369, 0
1005, 3066606452, 0.7487764, 0.030937642, -0.6616209, 0.02530627, -0.48158482, -0.9472933, -5.006318, 0
1006, 3066623119, 0.7480317, 0.030380316, -0.6624503, 0.026290566, 0.17807522, -0.12216419, -4.5377316, 0
1007, 3066639786, 0.74727714, 0.029524349, -0.6632857, 0.027620524, -2.33174, 0.59381, 3.7228556, 0
1008, 3066656453, 0.7468341, 0.028328829, -0.66376907, 0.029204294, -2.3220716, -0.5742222, 6.5182457, 0
1009, 3066673120, 0.74679154, 0.026528582, -0.6638128, 0.030938283, -3.2512712, -1.4662312, 5.8880053, 0
1010, 3066689787, 0.7471764, 0.024805158, -0.66338027, 0.03231977, -2.912159, -0.500915, 1.1560287, 0
1011, 3066706454, 0.74761945, 0.023489341, -0.66288275, 0.03325221, -1.0998616, -2.298929, -1.7823954, 0
1012, 3066723121, 0.7479686, 0.022128858, -0.662499, 0.033972368, 0.26091248, -3.880969, -2.1753511, 0
1013, 3066739788, 0.7481386, 0.02081281, -0.6623235, 0.034483403, -1.1253202, -2.0259044, 0.110684395, 0
1014, 3066756455, 0.7483784, 0.019780368, -0.66208804, 0.0344055, -4.5753074, -1.6962117, -0.34034634, 0
1015, 3066773122, 0.7487163, 0.019027084, -0.66174966, 0.03398773, -3.7786527, -1.4403266, 4.039777, 0
1016, 3066789789, 0.7488897, 0.018236041, -0.66160387, 0.033432156, -2.4308214, -2.1004124, 1.2057695, 0
1017, 3066806456, 0.7491147, 0.017435417, -0.6613957, 0.032932043, -3.3664713, -1.9037313, 0.56655693, 0
1018, 3066823123, 0.7494345, 0.016718023, -0.66106826, 0.032607555, -0.95176154, -0.9497393, -2.287518, 0
1019, 3066839790, 0.7495957, 0.016049266, -0.6609175, 0.03229125, -1.4375191, -0.60843426, -0.58240795, 0
1020, 3066856457, 0.7496712, 0.015294492, -0.6608614, 0.032050386, 0.85985565, -0.51274747, 0.7965183, 0
1021, 3066873124, 0.7494213, 0.0144930035, -0.6611718, 0.031864792, -0.8641968, -0.010743486, 0.41374493, 0
1022, 3066889791, 0.74943054, 0.013821878, -0.661186, 0.03164932, -1.4278156, -0.09157494, 0.1725254, 0
1023, 3066906458, 0.7494167, 0.013224803, -0.66122437, 0.031431884, -0.52241504, 0.26906925, 0.64991856, 0
1024, 3066923125, 0.74934566, 0.012600996, -0.66132265, 0.031314746, -1.2908021, 0.09446697, -1.3560715, 0
1025, 3066939792, 0.74935603, 0.012017377, -0.6613261, 0.03122361, -0.4494546, 0.22353554, -0.35011196, 0
1026, 3066956459, 0.7492681, 0.011356495, -0.6614317, 0.031344846, -0.18633068, 0.33242545, -0.26865292, 0
1027, 3066973126, 0.7492215, 0.010483511, -0.6614828, 0.03167756, -0.20805256, 0.07018139, 0.14445972, 0
1028, 3066989793, 0.7490904, 0.009625696, -0.66161877, 0.03220953, 0.24782702, 0.1370745, 1.2144566, 0
1029, 3067006460, 0.7490986, 0.008808203, -0.661592, 0.032793924, -0.81943023, -0.21140487, -1.0237675, 0
1030, 3067023127, 0.7492865, 0.007848218, -0.66136134, 0.033395663, -0.92103654, 0.32999653, 0.8823614, 0
1031, 3067039794, 0.7493011, 0.006841898, -0.6613262, 0.03398086, 0.717946, 0.99879354, -0.2741604, 0
1032, 3067056461, 0.7491815, 0.0059342086, -0.66143614, 0.034641847, 0.13491197, -0.0057701548, 0.07733059, 0
1033, 3067073128, 0.7491592, 0.0050337017, -0.66142416, 0.03548692, 0.13847521, 0.41652036, -0.6570511, 0
1034, 3067089795, 0.7491191, 0.004256852, -0.6614272, 0.036364615, -0.49224392, 1.091642, 0.5148802, 0
1035, 3067106462, 0.7490609, 0.0035939887, -0.6614552, 0.03711641, 0.08053887, 0.74390876, -0.20663929, 0
1036, 3067123129, 0.74902946, 0.0032500476, -0.661454, 0.037797153, -0.33782777, 0.212536, 0.2846794, 0
1037, 3067139796, 0.74898833, 0.0032747164, -0.6614599, 0.038499385, -0.62293464, 0.1219024, 0.49010658, 0
1038, 3067156463, 0.748994, 0.0033584312, -0.6614134, 0.03917806, -0.67974937, 0.59135795, 0.7188606, 0
1039, 3067173130, 0.74892026, 0.003461875, -0.6614593, 0.03979899, -0.99926966, 0.8275455, -0.11334419, 0
1040, 3067189797, 0.74897337, 0.0038313642, -0.661359, 0.04042606, -1.4204178, 0.38302502, 0.58654785, 0
1041, 3067206464, 0.749034, 0.0045019537, -0.6612482, 0.04104361, -0.61158735, 0.7502711, 0.96216106, 0
1042, 3067223131, 0.74904567, 0.005518146, -0.66119754, 0.041519523, -0.7214469, 1.3540894, -0.82652664, 0
1043, 3067239798, 0.7491572, 0.006938681, -0.66104245, 0.041763753, -1.8241469, 1.1959698, -1.3658161, 0
1044, 3067256465, 0.7491555, 0.008635782, -0.66101676, 0.04188408, 0.19086441, 0.6425603, 1.5847712, 0
1045, 3067273132, 0.74896425, 0.010500081, -0.6611908, 0.042128682, -0.20189568, -0.5739527, -0.82445717, 0
1046, 3067289799, 0.74905574, 0.012394354, -0.661033, 0.042462394, -1.0793343, -0.26925677, 0.15680599, 0
1047, 3067306466, 0.7490147, 0.014450334, -0.66102266, 0.042700037, 0.29395753, 0.5174402, 2.4479895, 0
1048, 3067323133, 0.74888146, 0.016796336, -0.66112274, 0.04262671, -0.20666254, 0.102259636, -1.6071386, 0
1049, 3067339800, 0.74880993, 0.019263282, -0.6611652, 0.04217848, -0.23141727, 0.7669727, 0.058329582, 0
1050, 3067356467, 0.7487994, 0.02166, -0.6611534, 0.041380256, -0.33161566, 0.10343447, -1.5043974, 0
1051, 3067373134, 0.74888736, 0.023675703, -0.66103685, 0.040539518, 0.23243158, -1.8724701, 0.70609665, 0
1052, 3067389801, 0.74889547, 0.02527219, -0.6610125, 0.039816126, 1.7721524, -1.6024144, 0.14576817, 0
1053, 3067406468, 0.7488747, 0.02650325, -0.6610365, 0.038997367, 0.05143167, -0.9803174, -0.87648296, 0
1054, 3067423135, 0.74893796, 0.027471587, -0.66098315, 0.038005814, -0.10796972, 0.21484435, 0.20830822, 0
1055, 3067439802, 0.7488766, 0.02824004, -0.66108376, 0.036882684, -0.1854791, -0.1443791, 0.93999004, 0
1056, 3067456469, 0.7489012, 0.028798096, -0.66109294, 0.03577164, 0.80355185, -1.1592776, 0.74758816, 0
1057, 3067473136, 0.748882, 0.029088251, -0.661161, 0.034662098, 0.25370866, -0.7725738, 0.5369215, 0
1058, 3067489803, 0.74894166, 0.02921328, -0.66114557, 0.033547178, -0.30590832, 0.12582482, -0.23657322, 0
1059, 3067506470, 0.7490709, 0.029173106, -0.6610523, 0.03251891, -0.45014256, 0.32361022, -0.21255493, 0
1060, 3067523137, 0.7491921, 0.028902918, -0.66096884, 0.031653374, 0.14040145, -0.24795863, -0.38774776, 0
1061, 3067539804, 0.7493561, 0.02858457, -0.6608275, 0.031002015, 0.8885668, -0.5291856, -0.3008232, 0
1062, 3067556471, 0.74937457, 0.028164014, -0.6608495, 0.03047143, 1.0940186, 0.3162564, 0.40612125, 0
1063, 3067573138, 0.7493887, 0.027638294, -0.6608769, 0.03000468, 0.967449, 0.7457701, -1.2079477, 0
1064, 3067589805, 0.74947387, 0.02704978, -0.6608195, 0.02968292, 0.47823325, 0.52578855, 0.7727833, 0
1065, 3067606472, 0.74961495, 0.026409179, -0.6606876, 0.029625937, 0.7272264, 0.2432094, -0.56419563, 0
1066, 3067623139, 0.7497935, 0.025477715, -0.6605171, 0.029722586, 0.28317124, 0.44935244, 0.40983295, 0
1067, 3067639806, 0.7499712, 0.024389893, -0.66035044, 0.029857978, -0.09559381, 0.5761242, -0.5383549, 0
1068, 3067656473, 0.75011826, 0.023331761, -0.66021526, 0.029999807, 0.70671934, 0.34636518, 0.8497, 0
1069, 3067673140, 0.7501913, 0.022363894, -0.66015726, 0.030187547, 0.0412064, -0.08062649, -0.79409504, 0
1070, 3067689807, 0.7502615, 0.021325126, -0.6601009, 0.03042695, 0.22114149, 0.08194834, 0.369977, 0
1071, 3067706474, 0.7502816, 0.020240925, -0.660096, 0.030770823, 0.39257726, 0.15918615, 0.33882046, 0
1072, 3067723141, 0.75024676, 0.01937259, -0.6601401, 0.031231001, -0.29904604, 0.49674892, -0.3711424, 0
1073, 3067739808, 0.7501631, 0.01891128, -0.66022825, 0.03166209, -0.52755183, 0.6550684, 0.9348211, 0
1074, 3067756475, 0.7501933, 0.018381506, -0.6601923, 0.032002047, -0.6405367, 0.10257725, -0.67552567, 0
1075, 3067773142, 0.7503197, 0.017917097, -0.66004986, 0.03223911, -0.7245749, -0.056325823, 1.3815517, 0
1076, 3067789809, 0.7503545, 0.017995775, -0.6599971, 0.03246346, 0.26804343, 0.55110794, 0.2752123, 0
1077, 3067806476, 0.75034666, 0.018415809, -0.6599903, 0.03254527, -0.754751, 0.28127137, -1.4298573, 0
1078, 3067823143, 0.7504002, 0.018785313, -0.6599188, 0.03255512, -0.51165915, -0.16865271, 0.7488241, 0
1079, 3067839810, 0.75037456, 0.01899954, -0.65994436, 0.03250189, -0.25518832, -0.2629093, 0.20370865, 0
1080, 3067856477, 0.7504292, 0.019473463, -0.6598739, 0.032389536, -0.53992504, -0.2365299, 0.2086401, 0
1081, 3067873144, 0.75042677, 0.020252295, -0.65986085, 0.03223048, -0.03143218, 0.39177954, -1.3734703, 0
1082, 3067889811, 0.75049025, 0.0209741, -0.6597835, 0.031875536, -1.0902274, -0.3541001, -0.25546074, 0
1083, 3067906478, 0.750574, 0.021692194, -0.6596827, 0.03150703, 0.53492594, 0.018143218, 0.9489651, 0
1084, 3067923145, 0.7505563, 0.022266954, -0.6597055, 0.031047434, 0.1954357, -0.19064006, -1.1255541, 0
1085, 3067939812, 0.7504989, 0.022828832, -0.6597797, 0.030445099, 0.65596044, 0.4520982, 0.105724335, 0
1086, 3067956479, 0.7503395, 0.023295179, -0.6599732, 0.029822126, 1.1527368, -0.16968952, 0.16771221, 0
1087, 3067973146, 0.7502407, 0.023573652, -0.6601017, 0.029238716, 0.23785801, -0.10134468, 0.09297466, 0
1088, 3067989813, 0.750217, 0.023734719, -0.66014564, 0.028716952, 0.54963803, -0.24559045, 1.0587664, 0
1089, 3068006480, 0.7501828, 0.023657113, -0.6602057, 0.028290033, 0.72167057, -0.6415121, -0.13895035, 0
1090, 3068023147, 0.7501002, 0.023485824, -0.6603208, 0.027936265, 0.7919532, -0.3030007, 0.31289196, 0
1091, 3068039814, 0.75005895, 0.023101993, -0.6603981, 0.02753298, 1.3477899, -0.15351613, 0.81104755, 0
1092, 3068056481, 0.75000733, 0.022373334, -0.6605005, 0.027081743, 0.63748735, -0.20828591, -1.6316528, 0
1093, 3068073148, 0.7500192, 0.021607742, -0.66052866, 0.02668725, 0.7706423, 0.83312476, 1.6249161, 0
1094, 3068089815, 0.74999464, 0.020949326, -0.66059244, 0.026320577, 1.337316, 0.6008451, -0.010083199, 0
1095, 3068106482, 0.7499887, 0.02016411, -0.6606358, 0.026009232, 0.8017311, -0.48691782, -1.2553091, 0
1096, 3068123149, 0.7500667, 0.01931914, -0.66058284, 0.025750548, 1.3059961, 0.7741587, 0.9611473, 0
1097, 3068139816, 0.7501613, 0.018474981, -0.6605088, 0.025513187, 0.27912924, 0.48636845, -0.9963093, 0
1098, 3068156483, 0.7503249, 0.017602473, -0.66035336, 0.025334015, 1.333886, 0.5070375, 0.13259888, 0
1099, 3068173150, 0.7503204, 0.016901813, -0.6603779, 0.025310233, 1.8723906, 1.0312438, -0.2550726, 0
1100, 3068189817, 0.7502184, 0.016457446, -0.6605065, 0.025268033, 0.9488494, 1.1586046, -0.9664564, 0
1101, 3068206484, 0.75020725, 0.016187526, -0.6605282, 0.025207862, 2.0423853, 1.5981102, 1.2332249, 0
1102, 3068223151, 0.75009155, 0.015885815, -0.6606659, 0.025227785, 1.6708363, 1.2215804, -0.21205139, 0
1103, 3068239818, 0.7499747, 0.015890218, -0.66078925, 0.025471926, 1.4254369, 1.6824213, 0.46690655, 0
1104, 3068256485, 0.7497621, 0.01617068, -0.6610079, 0.025878593, 1.4359266, 2.422912, -1.2307396, 0
1105, 3068273152, 0.74968034, 0.01645641, -0.6610782, 0.026267365, 1.8256829, 2.0885375, -0.3909626, 0
1106, 3068289819, 0.7494531, 0.016605735, -0.661309, 0.026842594, 3.3611145, 2.2622519, 0.1473732, 0
1107, 3068306486, 0.74916315, 0.016440414, -0.66161025, 0.027607903, 2.3113472, 1.5644431, -2.8078938, 0
1108, 3068323153, 0.7489851, 0.016180962, -0.66176945, 0.028746888, 0.98957145, 2.183928, 0.7777214, 0
1109, 3068339820, 0.7487228, 0.016289756, -0.66201, 0.029959992, 0.82530147, 1.805579, 1.3789139, 0
1110, 3068356487, 0.74870884, 0.016507015, -0.66196907, 0.031069025, -0.18921444, -0.19687502, 0.44092655, 0
1111, 3068373154, 0.7488751, 0.016794175, -0.66172194, 0.0321566, 0.933036, 1.7399529, -1.077404, 0
1112, 3068389821, 0.748819, 0.017304346, -0.6617284, 0.033047423, 0.69274485, 1.7053846, -0.6815758, 0
1113, 3068406488, 0.74877375, 0.017906599, -0.66172004, 0.03390652, 3.5193388, 2.896077, -1.0216169, 0
1114, 3068423155, 0.7483074, 0.018377647, -0.6621944, 0.03468114, 0.9002054, 1.4606831, -3.8127337, 0
1115, 3068439822, 0.74812806, 0.018902987, -0.6623419, 0.03544177, 0.5214441, 1.248361, 2.2065744, 0
1116, 3068456489, 0.74799055, 0.019669577, -0.6624475, 0.035949185, -0.303713, -1.1250308, 0.5167122, 0
1117, 3068473156, 0.74794906, 0.020623595, -0.6624497, 0.036236435, -1.7684193, -2.8887568, 0.7058058, 0
1118, 3068489823, 0.7478472, 0.021313563, -0.66252416, 0.036577016, -1.9825165, -3.787402, -1.9177294, 0
1119, 3068506490, 0.7475643, 0.02141717, -0.6628129, 0.037064016, -3.571619, -0.86742336, -0.09155083, 0
1120, 3068523157, 0.7472564, 0.021839283, -0.66312855, 0.03738065, -4.6349006, 0.823603, -0.32812595, 0
1121, 3068539824, 0.74693996, 0.021858774, -0.6634794, 0.037466675, -3.5454457, -1.6745129, 2.8530378, 0
1122, 3068556491, 0.7467776, 0.020880073, -0.663692, 0.037498847, -1.9638505, -3.0276568, 1.5292358, 0
1123, 3068573158, 0.74683434, 0.019706175, -0.6636601, 0.037567973, -3.0780296, -2.5517485, 3.2776194, 0
1124, 3068589825, 0.7471601, 0.018967457, -0.66331047, 0.037646383, -2.1150208, -2.2441823, 1.600029, 0
1125, 3068606492, 0.7473623, 0.018257402, -0.6631031, 0.03763552, -1.5904565, -3.691192, 0.23578453, 0
1126, 3068623159, 0.74765867, 0.017108038, -0.6628086, 0.037475795, -1.5999134, -2.612963, -0.10145283, 0
1127, 3068639826, 0.74783015, 0.01620499, -0.6626763, 0.036790043, -2.6927176, -0.20311259, -0.94841576, 0
1128, 3068656493, 0.7480355, 0.015997157, -0.66251546, 0.0355822, -3.1089904, -1.2117447, 0.4592104, 0
1129, 3068673160, 0.7483087, 0.015853293, -0.6622818, 0.03422804, -1.8507409, -3.0019515, 0.66028404, 0
1130, 3068689827, 0.74859136, 0.015324235, -0.6620433, 0.032870084, -2.5953784, -2.3383343, 1.4267769, 0
1131, 3068706494, 0.7489158, 0.014890522, -0.6617471, 0.03162159, -2.4001374, -0.8702634, 0.5909586, 0
1132, 3068723161, 0.74918467, 0.014500797, -0.6614995, 0.030600429, -2.0006518, -0.37165338, -0.92478466, 0
1133, 3068739828, 0.7494876, 0.013830289, -0.6612103, 0.02973251, -1.4890848, -1.2157164, 0.1245718, 0
1134, 3068756495, 0.7495299, 0.012841009, -0.66120744, 0.029167235, 0.45853862, -0.53104514, 1.3508215, 0
1135, 3068773162, 0.74956846, 0.011722967, -0.66120636, 0.0286697, -2.405898, -0.4177588, -2.3765326, 0
1136, 3068789829, 0.7498389, 0.0109754875, -0.6609333, 0.028184697, -1.77124, 0.4782482, 0.7817478, 0
1137, 3068806496, 0.7498586, 0.010284878, -0.66093963, 0.027767435, 0.29920876, -0.60965234, 0.84649944, 0
1138, 3068823163, 0.7498262, 0.009198777, -0.6610016, 0.02754587, -1.1435938, -0.730383, 0.20205021, 0
1139, 3068839830, 0.74975926, 0.008108966, -0.6610903, 0.027583405, -0.6459025, 1.7237461, 0.013750076, 0
1140, 3068856497, 0.74976873, 0.007205516, -0.6610859, 0.027682245, -1.3718193, 0.66408616, -0.54259205, 0
1141, 3068873164, 0.7498459, 0.0062774643, -0.6609893, 0.028118998, -0.0057523292, -0.5819675, 0.38120937, 0
1142, 3068889831, 0.74968964, 0.004928611, -0.6611403, 0.028992116, -0.49916032, -0.14090748, 0.85933876, 0
1143, 3068906498, 0.7496247, 0.0033392683, -0.6611809, 0.029956102, -1.0693539, 0.8835284, -0.33402252, 0
1144, 3068923165, 0.7495426, 0.002063699, -0.66123295, 0.030960768, -0.6298014, 0.573586, 0.6938267, 0
