sep=,
DeviceTag:,Xsens_DOT_3,,,,,,,,,,,,,,,,,
FirmwareVersion:,3.0.0,,,,,,,,,,,,,,,,,
AppVersion:,2023.6.1,,,,,,,,,,,,,,,,,
SyncStatus:,Synced,,,,,,,,,,,,,,,,,
OutputRate:,60Hz,,,,,,,,,,,,,,,,,
FilterProfile:,General,,,,,,,,,,,,,,,,,
Measurement Mode:,Sensor fusion Mode - Extended (Quaternion),,,,,,,,,,,,,,,,,
StartTime:,2025-05-05 11:57:36.875 +0200,,,,,,,,,,,,,,,,,
 2025,,,,,,,,,,,,,,,,,,,

PacketCounter,SampleTimeFine,Quat_W,Quat_X,Quat_Y,Quat_Z,FreeAcc_X,FreeAcc_Y,FreeAcc_Z,Status
1, 3049872784, -0.54200524, 0.30442482, 0.41301513, 0.665572, -0.004498198, -0.104872726, -0.024842262, 0
2, 3049889451, -0.5419666, 0.3044654, 0.41294318, 0.6656295, -0.08787591, -0.07176465, -0.090013504, 0
3, 3049906118, -0.5419941, 0.30447698, 0.41288635, 0.6656371, -0.09110232, -0.06850303, -0.11014557, 0
4, 3049922785, -0.5419897, 0.30455595, 0.41279608, 0.66566044, -0.037728988, -0.068491854, -0.08732414, 0
5, 3049939452, -0.54196477, 0.30465448, 0.41272828, 0.6656777, -0.0060718413, -0.1262495, -0.056829453, 0
6, 3049956119, -0.5418402, 0.30481395, 0.4126189, 0.66577387, -0.0427587, -0.1760767, -0.0028104782, 0
7, 3049972786, -0.54179084, 0.30487847, 0.41257095, 0.66581416, -0.05113373, -0.16060132, 0.01121521, 0
8, 3049989453, -0.5417855, 0.3048877, 0.41254002, 0.6658334, -0.06815424, -0.14512171, 0.0044078827, 0
9, 3050006120, -0.5418278, 0.30485457, 0.4125429, 0.6658124, -0.07803229, -0.11094819, -0.056904793, 0
10, 3050022787, -0.54186195, 0.30484566, 0.4125488, 0.665785, -0.07150313, -0.072729774, -0.13936615, 0
11, 3050039454, -0.5420929, 0.30476543, 0.41263404, 0.66558087, -0.12829599, -0.069045834, -0.14601517, 0
12, 3050056121, -0.5423663, 0.3047515, 0.41270602, 0.6653198, -0.109038785, -0.12516077, -0.046767235, 0
13, 3050072788, -0.5426333, 0.3047697, 0.41273618, 0.6650751, -0.0840031, -0.22601116, 0.01618576, 0
14, 3050089455, -0.5429324, 0.30469978, 0.41276133, 0.6648474, -0.041926112, -0.21813837, 0.027558327, 0
15, 3050106122, -0.5431565, 0.3046196, 0.412781, 0.6646887, -0.00470383, -0.20661694, 0.0073537827, 0
16, 3050122789, -0.5433228, 0.3045826, 0.41285527, 0.6645237, -0.030739514, -0.12546654, -0.0367136, 0
17, 3050139456, -0.5434755, 0.30453816, 0.4129584, 0.66435516, -0.08640619, -0.06704874, -0.06918335, 0
18, 3050156123, -0.543663, 0.30447417, 0.41306245, 0.6641663, -0.1378382, -0.07480085, -0.06133747, 0
19, 3050172790, -0.54393333, 0.30434066, 0.41318062, 0.6639327, -0.12092397, -0.110210665, -0.025135994, 0
20, 3050189457, -0.54418695, 0.30418393, 0.4132287, 0.6637668, -0.06816441, -0.15907149, -0.021421432, 0
23, 3050239458, -0.5447133, 0.30376357, 0.41319102, 0.66355103, 0.027459797, -0.10022622, -0.023852348, 0
25, 3050272792, -0.5450878, 0.30349454, 0.4132261, 0.6633448, -0.10241409, -0.0858455, -0.088840485, 0
29, 3050339460, -0.5457911, 0.3027489, 0.41319185, 0.6631284, -0.060717408, -0.10478768, -0.050652504, 0
30, 3050356127, -0.5458318, 0.30261463, 0.41321024, 0.66314465, -0.07468641, -0.12975039, -0.091340065, 0
31, 3050372794, -0.5459168, 0.30244, 0.4132384, 0.66313684, -0.03779604, -0.13485721, -0.053940773, 0
34, 3050422795, -0.54639024, 0.30195034, 0.41335902, 0.66289485, -0.07955273, -0.112908795, -0.092710495, 0
37, 3050472796, -0.54696417, 0.30172205, 0.4134427, 0.66247314, -0.03175795, -0.19565162, 0.014848709, 0
41, 3050539464, -0.54799163, 0.30103672, 0.41371143, 0.6617678, 0.048196994, -0.13146439, -0.06182289, 0
42, 3050556131, -0.54818636, 0.30096257, 0.41366774, 0.66166764, 0.08424022, -0.0818899, -0.14460182, 0
45, 3050606132, -0.5481496, 0.3012753, 0.4134248, 0.6617076, 0.08499996, -0.19954097, -0.002005577, 0
46, 3050622799, -0.54784656, 0.3014905, 0.41333914, 0.661914, 0.056332864, -0.27939343, 0.030623436, 0
49, 3050672800, -0.54664177, 0.30207813, 0.41293675, 0.6628924, 0.023433322, -0.12752509, -0.029305458, 0
50, 3050689467, -0.5462887, 0.30220127, 0.41282067, 0.66319954, -0.109726086, -0.07671054, -0.04994011, 0
51, 3050706134, -0.5459933, 0.30236107, 0.41272202, 0.66343147, -0.16861616, -0.053773977, -0.10870552, 0
53, 3050739468, -0.5456313, 0.3026005, 0.41241923, 0.6638082, -0.01660433, -0.17958573, -0.10608959, 0
61, 3050872804, -0.5440941, 0.30439794, 0.41113782, 0.665042, -0.01428136, -0.0790353, -0.028162956, 0
64, 3050922805, -0.5434847, 0.3051422, 0.4105688, 0.66555053, -0.08307831, -0.085081436, -0.015180588, 0
66, 3050956139, -0.5433517, 0.30549622, 0.4103089, 0.6656569, -0.07345619, -0.022833971, -0.037511826, 0
68, 3050989473, -0.5430672, 0.30599102, 0.4102416, 0.6657034, -0.13504742, -0.047348984, -0.081124306, 0
69, 3051006140, -0.5429752, 0.3061328, 0.41024014, 0.6657142, -0.04656356, -0.097938016, -0.014647484, 0
70, 3051022807, -0.54280216, 0.30622664, 0.41005793, 0.6659243, 0.06559904, -0.11273178, 0.018918991, 0
72, 3051056141, -0.54246557, 0.306275, 0.40984553, 0.666307, 0.035313483, -0.033187874, -0.09392357, 0
73, 3051072808, -0.54241276, 0.30627215, 0.40971637, 0.6664307, -0.07246223, 0.007958514, -0.109158516, 0
77, 3051139476, -0.5426353, 0.30651808, 0.40936407, 0.666353, -0.041328553, -0.14957878, 0.046168327, 0
78, 3051156143, -0.5426872, 0.3065557, 0.40930533, 0.6663295, 0.022096602, -0.12492061, 0.014995575, 0
80, 3051189477, -0.54271996, 0.30646116, 0.40930128, 0.66634864, 0.02457145, -0.011775333, -0.09020901, 0
81, 3051206144, -0.5427387, 0.3064133, 0.40936637, 0.66631544, -0.06681372, -0.019341582, -0.13424587, 0
84, 3051256145, -0.54293454, 0.3059421, 0.40926874, 0.6664325, -0.07829189, -0.1724522, 0.01583767, 0
85, 3051272812, -0.5430149, 0.30578876, 0.4092696, 0.666437, -0.015335559, -0.14111245, 0.019122124, 0
87, 3051306146, -0.543098, 0.30552638, 0.4091898, 0.6665385, 0.03770764, -0.08864166, -0.028390884, 0
88, 3051322813, -0.5432257, 0.30537823, 0.40917975, 0.66650844, -0.029037798, -0.05991075, -0.05583, 0
89, 3051339480, -0.5434371, 0.30526882, 0.40924278, 0.6663475, -0.09672691, -0.08501952, -0.14854813, 0
91, 3051372814, -0.5439827, 0.3050906, 0.4092125, 0.6660027, 0.03076527, -0.10864905, -0.1118145, 0
92, 3051389481, -0.5442599, 0.3049637, 0.4092088, 0.66583645, 0.04909261, -0.11821902, -0.021874428, 0
93, 3051406148, -0.54449236, 0.3049661, 0.4093091, 0.66558355, -0.053577285, -0.15555497, 0.0024757385, 0
95, 3051439482, -0.54534054, 0.30469942, 0.40967602, 0.6647852, -0.17516844, -0.12773944, 0.10631943, 0
99, 3051506150, -0.5465162, 0.30417347, 0.4102559, 0.6637019, 0.16383332, -0.12034821, -0.12334919, 0
101, 3051539484, -0.54682076, 0.30402273, 0.41053182, 0.6633492, -0.09792829, -0.10490011, 0.025407791, 0
103, 3051572818, -0.5464369, 0.30419722, 0.41090077, 0.6633573, -0.041180473, -0.18151364, 0.16540337, 0
104, 3051589485, -0.5459982, 0.3041353, 0.41119412, 0.6635652, 0.016884057, -0.08550656, 0.14975643, 0
106, 3051622819, -0.5452802, 0.30369514, 0.41200298, 0.6638553, -0.1700444, 0.08369577, -0.10104942, 0
107, 3051639486, -0.5452993, 0.30322945, 0.41249332, 0.6637481, -0.3292232, 0.17716688, -0.20452785, 0
108, 3051656153, -0.5455613, 0.302845, 0.412882, 0.6634667, -0.31513602, 0.1758281, -0.34418678, 0
110, 3051689487, -0.5465118, 0.30246738, 0.41330802, 0.66259074, -0.080401525, -0.08006614, -0.25643444, 0
111, 3051706154, -0.5470035, 0.3024951, 0.41345686, 0.66207933, -0.011481078, -0.19943056, -0.063238144, 0
112, 3051722821, -0.54747415, 0.30251765, 0.413569, 0.6616098, -0.030645415, -0.12765685, 0.062314034, 0
114, 3051756155, -0.54855824, 0.3018688, 0.41383797, 0.6608394, -0.19961059, -0.0167818, 0.14320183, 0
115, 3051772822, -0.549352, 0.30126816, 0.41412297, 0.6602754, -0.26287013, -0.024629675, 0.04104805, 0
116, 3051789489, -0.5501791, 0.30064097, 0.4142967, 0.65976334, -0.19675723, -0.10787942, -0.042625427, 0
118, 3051822823, -0.5518392, 0.29953966, 0.41479844, 0.65856147, 0.025597375, -0.27692148, -0.035707474, 0
119, 3051839490, -0.55240583, 0.29904383, 0.41510117, 0.6581209, 0.06498673, -0.22427726, -0.03691864, 0
120, 3051856157, -0.55289525, 0.2984399, 0.41532937, 0.65783995, 0.10858371, -0.16475564, -0.010680199, 0
122, 3051889491, -0.55386233, 0.29710978, 0.41576242, 0.65735483, 0.06930589, -0.13761368, -0.15415382, 0
123, 3051906158, -0.5544977, 0.29639223, 0.41594353, 0.6570285, -0.0021029217, -0.14041084, -0.1137619, 0
124, 3051922825, -0.55517465, 0.2958585, 0.41609356, 0.6566025, -0.030558646, -0.2651784, -0.06951237, 0
126, 3051956159, -0.5560605, 0.29526675, 0.41617593, 0.6560666, 0.11097307, -0.37394288, 0.18108559, 0
128, 3051989493, -0.5557288, 0.29459554, 0.41632894, 0.6565521, 0.15058236, -0.053147692, -0.07883835, 0
130, 3052022827, -0.5553712, 0.29375118, 0.4162944, 0.6572546, 0.052101206, 0.08814312, -0.34744072, 0
131, 3052039494, -0.5553032, 0.29338536, 0.41599774, 0.6576632, -0.049354903, -0.013594058, -0.28874397, 0
132, 3052056161, -0.5546878, 0.2935772, 0.4158206, 0.6582086, -0.37925142, -0.07174241, -0.061519623, 0
134, 3052089495, -0.55430543, 0.2880059, 0.4116525, 0.6635903, -0.9602946, 9.148024, 8.51866, 0
137, 3052139496, -0.5335712, 0.3073395, 0.41270116, 0.67121804, 2.0772874, -4.682736, -2.7091231, 0
138, 3052156163, -0.53922015, 0.30522153, 0.40469578, 0.67254317, 3.2538676, 0.9032785, 0.14129257, 0
139, 3052172830, -0.5417652, 0.30809605, 0.40440816, 0.6693525, 0.19509451, -1.5109477, 2.158207, 0
141, 3052206164, -0.5414004, 0.30622128, 0.40950325, 0.66740775, -2.2258518, 0.3819662, 0.52162266, 0
142, 3052222831, -0.54304916, 0.29992354, 0.40762615, 0.6700718, -1.3024089, 0.016627688, 0.5522022, 0
145, 3052272832, -0.5442183, 0.2964381, 0.40087712, 0.6747295, 1.2655419, 0.187561, -1.053421, 0
146, 3052289499, -0.54378533, 0.29633778, 0.40052092, 0.67533416, 0.72527426, 0.2875713, -0.8796158, 0
147, 3052306166, -0.5432678, 0.2962639, 0.4001305, 0.676014, 0.5820921, 0.45886427, -1.1577225, 0
149, 3052339500, -0.54178303, 0.29680914, 0.3993125, 0.6774487, 0.17461503, -0.0151290335, -0.53090954, 0
150, 3052356167, -0.54072887, 0.29757988, 0.39873546, 0.67829204, 0.04895761, -0.1464287, -0.24130344, 0
151, 3052372834, -0.53980666, 0.29822868, 0.3982784, 0.67901003, 0.26348725, 0.013964978, -0.02521038, 0
153, 3052406168, -0.5371403, 0.29931194, 0.39744377, 0.6811332, 0.3937401, -0.4033745, 0.7722578, 0
154, 3052422835, -0.5355156, 0.30014837, 0.39719373, 0.6821896, -0.01620346, -0.68242854, 1.4238272, 0
155, 3052439502, -0.5340384, 0.30110067, 0.39715913, 0.6829477, -0.27891332, -0.24303581, 1.0217905, 0
157, 3052472836, -0.5316178, 0.3027979, 0.3965358, 0.68444645, -0.012983088, 0.3078695, -0.22570038, 0
160, 3052522837, -0.52814716, 0.30480066, 0.39468297, 0.6873094, -0.020788828, 0.5912878, -0.75339127, 0
161, 3052539504, -0.5273761, 0.30489105, 0.39409152, 0.6882001, -0.21900749, 0.4937238, -0.6084852, 0
162, 3052556171, -0.52724195, 0.3047637, 0.39358822, 0.68864733, -0.40068027, 0.5807222, -0.5322733, 0
164, 3052589505, -0.5291755, 0.3038148, 0.39257193, 0.68816334, -0.5377534, 0.23753482, -0.07711792, 0
165, 3052606172, -0.53063774, 0.3032471, 0.39244354, 0.6873606, -0.4391243, 0.050033376, 0.18851471, 0
166, 3052622839, -0.5316438, 0.3032226, 0.39205882, 0.6868131, -0.10985394, -0.2769987, 0.5029068, 0
168, 3052656173, -0.5341135, 0.3020926, 0.3926735, 0.6850416, 0.35497165, -0.4463366, 0.50035095, 0
169, 3052672840, -0.5350269, 0.30132225, 0.39352632, 0.6841782, 0.2691763, -0.13401625, 0.026249886, 0
170, 3052689507, -0.5357866, 0.3004667, 0.39440113, 0.68345577, 0.17735027, 0.013902282, -0.17833996, 0
172, 3052722841, -0.5372943, 0.2990565, 0.39588928, 0.68202883, 0.2486081, 0.080132075, -0.24372101, 0
174, 3052756175, -0.5383299, 0.2991321, 0.3969441, 0.68056446, 0.23680626, 0.15640733, -0.3513193, 0
176, 3052789509, -0.5378485, 0.29987657, 0.39744082, 0.68032765, 0.1511055, 0.18067156, -0.2680359, 0
177, 3052806176, -0.5374899, 0.29988554, 0.39759368, 0.68051755, -0.038180035, 0.22634174, -0.31824875, 0
178, 3052822843, -0.53724873, 0.29985592, 0.39785716, 0.6805669, -0.33401084, 0.26338643, -0.35231686, 0
180, 3052856177, -0.5385765, 0.29927272, 0.39809608, 0.679634, -0.38205057, 0.037576217, 0.11831379, 0
181, 3052872844, -0.539649, 0.2990708, 0.39788643, 0.6789945, 0.024661414, -0.40504336, 0.52457047, 0
182, 3052889511, -0.54101974, 0.29856116, 0.3978932, 0.67812335, 0.22683917, -0.56647146, 0.6600208, 0
184, 3052922845, -0.5439909, 0.2969426, 0.39857453, 0.6760538, 0.008786295, -0.19360581, -0.013767242, 0
185, 3052939512, -0.5451558, 0.2959563, 0.39920822, 0.6751735, 0.047132622, -0.27429712, -0.046341896, 0
186, 3052956179, -0.5461444, 0.29499584, 0.39995286, 0.6743537, 0.07933536, -0.25907856, -0.07629776, 0
188, 3052989513, -0.5477515, 0.2937521, 0.4014253, 0.6727163, 0.05521787, -0.17778802, -0.20170975, 0
189, 3053006180, -0.54855406, 0.29327613, 0.40194607, 0.6719589, -0.17860976, -0.11902825, -0.12369537, 0
191, 3053039514, -0.550162, 0.29246455, 0.4025883, 0.6706123, -0.10654561, -0.22290634, 0.03990078, 0
193, 3053072848, -0.5510534, 0.2920483, 0.40302202, 0.6698006, 0.12678337, -0.13501178, -0.121543884, 0
195, 3053106182, -0.55153406, 0.2919985, 0.4032445, 0.6692926, -0.14645965, 0.07735415, -0.26858902, 0
196, 3053122849, -0.5516914, 0.29185382, 0.4033387, 0.6691693, -0.43200415, -0.009091725, -0.14692497, 0
197, 3053139516, -0.5521434, 0.29145503, 0.4033969, 0.66893506, -0.45257014, -0.029155143, 0.12381172, 0
200, 3053189517, -0.55544615, 0.2894898, 0.40467006, 0.6662799, -0.38815594, -0.1426453, -0.044831276, 0
201, 3053206184, -0.5567627, 0.28863886, 0.40520734, 0.66522306, -0.0041694106, -0.15630987, -0.19729137, 0
204, 3053256185, -0.5598688, 0.2870524, 0.4061985, 0.66269326, 0.19034575, -0.30522248, -0.028424263, 0
205, 3053272852, -0.56039923, 0.2867923, 0.40651482, 0.6621632, 0.05749256, -0.3205682, 0.14056492, 0
207, 3053306186, -0.559972, 0.28726107, 0.40705547, 0.66198945, 0.210613, 0.1492626, 0.25447083, 0
208, 3053322853, -0.5632904, 0.28346446, 0.41780135, 0.6540683, -5.0978484, 0.28987977, 7.8185234, 1024
209, 3053339520, -0.54461706, 0.3035578, 0.41493618, 0.66263443, -1.0154159, -0.0048688943, -8.253339, 0
211, 3053372854, -0.5401079, 0.29612833, 0.41522267, 0.66947246, -0.8394101, -0.5062039, -3.2053351, 0
212, 3053389521, -0.54589266, 0.29048237, 0.4154458, 0.6671113, 2.2236245, 0.9620608, -0.5770712, 0
213, 3053406188, -0.5454614, 0.29318416, 0.41044384, 0.6693747, 0.8318379, 0.06218488, -1.8072424, 0
215, 3053439522, -0.5447245, 0.29604015, 0.41138795, 0.66813725, -1.4424132, -1.2569236, 3.9923573, 0
216, 3053456189, -0.54501253, 0.29709265, 0.41044518, 0.66801465, -0.9363427, -0.2743578, 0.8922262, 0
219, 3053506190, -0.5472248, 0.29574737, 0.40499315, 0.67012733, 0.5544458, 0.10101567, -0.68055534, 0
220, 3053522857, -0.54665947, 0.29565564, 0.40378645, 0.6713563, 0.74424314, 0.047980074, -0.6097441, 0
222, 3053556191, -0.5440905, 0.29398152, 0.40210745, 0.6751752, 0.3810916, 0.82334775, -0.8369312, 0
223, 3053572858, -0.54343426, 0.29252842, 0.39999223, 0.67758685, 0.14494962, 0.44892007, -0.6616163, 0
224, 3053589525, -0.5434728, 0.29134232, 0.39755327, 0.6794997, 0.037596334, 0.27737802, -0.12633514, 0
226, 3053622859, -0.54248255, 0.2919989, 0.39304775, 0.68262327, 0.27206042, -0.16860846, 0.061442375, 0
227, 3053639526, -0.54122704, 0.29302424, 0.3907758, 0.6844822, 0.64544874, -0.3241367, -0.06715107, 0
228, 3053656193, -0.53957045, 0.29406384, 0.38878322, 0.6864761, 0.6070662, -0.26065856, -0.17516422, 0
230, 3053689527, -0.5354987, 0.2962388, 0.38622284, 0.6901646, -0.10096963, -0.019690597, -0.1539011, 0
231, 3053706194, -0.53363955, 0.2971327, 0.3852551, 0.6917593, -0.5520809, 0.006861289, 0.019345284, 0
234, 3053756195, -0.530211, 0.2998736, 0.38295716, 0.6944836, -0.6200301, -0.15860078, 0.24973583, 0
235, 3053772862, -0.5297798, 0.3006268, 0.38248217, 0.6947489, -0.39397857, -0.08095639, 0.06992245, 0
236, 3053789529, -0.52957034, 0.30131903, 0.38216853, 0.69478106, -0.28659177, 0.037092533, -0.15552998, 0
238, 3053822863, -0.5296226, 0.3022055, 0.38203496, 0.69442964, -0.60341346, 0.16850922, -0.29337788, 0
239, 3053839530, -0.52994996, 0.30228513, 0.3821412, 0.69408673, -0.63608694, 0.11327893, -0.07029343, 0
241, 3053872864, -0.53149116, 0.30233952, 0.38208547, 0.69291425, -0.3225207, -0.10716619, 0.13717556, 0
242, 3053889531, -0.5325736, 0.30225477, 0.3820539, 0.6921371, -0.2997853, -0.075440764, 0.13015938, 0
243, 3053906198, -0.53358996, 0.30184716, 0.3821983, 0.691452, -0.38488686, -0.061830167, 0.05201435, 0
245, 3053939532, -0.5362044, 0.3001413, 0.38293624, 0.6897619, -0.38793847, 0.087427765, -0.121302605, 0
246, 3053956199, -0.5380556, 0.29886508, 0.38355628, 0.68852895, -0.4166096, -0.004907339, -0.18256283, 0
249, 3054006200, -0.5450436, 0.29553038, 0.38497767, 0.68366146, 0.410102, -0.034203853, -0.1104126, 0
250, 3054022867, -0.5471748, 0.2945226, 0.38534695, 0.6821843, 0.45313352, -0.07786599, 0.03371334, 0
251, 3054039534, -0.5490185, 0.2934737, 0.38579535, 0.68090034, 0.2225714, -0.14269145, 0.16048336, 0
253, 3054072868, -0.55183405, 0.29127407, 0.38698044, 0.67889357, -0.38379118, -0.15041293, 0.3349161, 0
254, 3054089535, -0.5529897, 0.28998566, 0.38761866, 0.67814016, -0.43659234, -0.200471, 0.15123177, 0
255, 3054106202, -0.5540249, 0.28885418, 0.38814843, 0.67747474, -0.082444094, -0.18450692, -0.06628132, 0
257, 3054139536, -0.5559477, 0.28700683, 0.38898587, 0.6762034, 0.48531222, -0.11732922, -0.34869194, 0
258, 3054156203, -0.5567788, 0.2861702, 0.3892273, 0.6757349, 0.4214701, -0.03834633, -0.34187698, 0
259, 3054172870, -0.55738825, 0.28553078, 0.38933104, 0.6754433, 0.20213863, 0.0016148811, -0.252038, 0
261, 3054206204, -0.5580444, 0.28477097, 0.38920584, 0.67529416, 0.14734477, -0.1808811, -0.040987015, 0
262, 3054222871, -0.5581106, 0.28445864, 0.38913476, 0.67541206, 0.11463063, -0.16552822, 0.015985489, 0
263, 3054239538, -0.5580825, 0.28417563, 0.3891039, 0.6755721, -0.05451023, -0.18107153, 0.058786392, 0
265, 3054272872, -0.5580549, 0.28389868, 0.3890588, 0.67573726, -0.17404093, -0.2295203, 0.12379646, 0
266, 3054289539, -0.5581351, 0.28374124, 0.38902393, 0.67575735, -0.13408609, -0.17285798, 0.072154045, 0
267, 3054306206, -0.55819345, 0.28358313, 0.38894293, 0.67582226, -0.08772783, -0.10284412, -0.05632019, 0
269, 3054339540, -0.5582722, 0.28337646, 0.38862246, 0.67602825, 0.04293125, -0.13940547, -0.13317585, 0
270, 3054356207, -0.558191, 0.2833979, 0.3884576, 0.6761811, 0.03192782, -0.12741636, -0.11519909, 0
272, 3054389541, -0.5576364, 0.28333697, 0.3882956, 0.67675686, -0.100969404, -0.037649527, 0.030501366, 0
273, 3054406208, -0.55728257, 0.2831052, 0.3884074, 0.67708117, -0.122164175, 0.02335112, -0.026637077, 0
276, 3054456209, -0.5565564, 0.28224385, 0.38838512, 0.6780501, -0.02579429, -0.04005296, -0.098181725, 0
277, 3054472876, -0.55634314, 0.2820703, 0.38845313, 0.67825836, -0.23200656, -0.042781387, -0.065532684, 0
278, 3054489543, -0.55622554, 0.28186217, 0.38863873, 0.67833513, -0.33716595, -0.0077174553, 0.008156776, 0
280, 3054522877, -0.55638677, 0.28097078, 0.3889241, 0.6784089, -0.17611246, -0.09583453, -0.003417015, 0
281, 3054539544, -0.55656266, 0.2803971, 0.38900846, 0.6784537, 0.059626885, -0.10936701, -0.061095238, 0
282, 3054556211, -0.5566758, 0.27984583, 0.38905153, 0.6785637, 0.14196548, -0.15338019, -0.086265564, 0
284, 3054589545, -0.5561866, 0.27918965, 0.38950184, 0.6789769, -0.23551549, -0.07436176, -0.06772232, 0
285, 3054606212, -0.55576503, 0.278877, 0.3896582, 0.67936087, -0.21439105, -0.07965756, 0.016147614, 0
286, 3054622879, -0.5553268, 0.27863792, 0.38978994, 0.67974156, -0.058034692, -0.14354897, 0.012296677, 0
288, 3054656213, -0.55425406, 0.278486, 0.39004815, 0.6805309, 0.0779317, -0.17948347, -0.10429859, 0
290, 3054689547, -0.53564614, 0.30040312, 0.4095988, 0.67459726, -14.277577, -9.588389, 1.1643524, 1024
292, 3054722881, -0.5313277, 0.29814437, 0.40325075, 0.6827893, -6.8771544, -1.2098119, -17.133419, 0
293, 3054739548, -0.5288131, 0.29202238, 0.39623308, 0.69144094, 15.247464, 5.6399794, 9.902229, 0
295, 3054772882, -0.5351016, 0.29076257, 0.39465722, 0.68802667, 4.64939, 1.5524074, -5.8767548, 0
296, 3054789549, -0.5365864, 0.29367715, 0.39535263, 0.6852275, 1.5275629, -0.26329133, -1.1245317, 0
297, 3054806216, -0.5370498, 0.29367098, 0.39946645, 0.6824758, -8.19349, 0.48337358, 2.7495403, 0
299, 3054839550, -0.5350504, 0.29378054, 0.3990113, 0.6842629, -1.3918971, -0.38736048, 2.481701, 0
300, 3054856217, -0.53642315, 0.29097247, 0.39583668, 0.68622893, -0.8822643, 0.00817711, 1.3356199, 0
301, 3054872884, -0.53840935, 0.28730685, 0.3931895, 0.6877382, 0.32928276, 0.10520062, -0.121082306, 0
303, 3054906218, -0.5413916, 0.2849531, 0.39199084, 0.6870602, 0.6335065, -0.17079452, -0.15676975, 0
305, 3054939552, -0.54261655, 0.28342703, 0.3914196, 0.6870508, 1.2874975, 0.27712226, -0.96105385, 0
307, 3054972886, -0.54230785, 0.28328463, 0.39067683, 0.6877757, 0.2505434, 0.32561713, -0.40213394, 0
308, 3054989553, -0.5414707, 0.28376573, 0.38983282, 0.688715, 0.16013741, -0.2367856, 0.35734844, 0
309, 3055006220, -0.5401909, 0.28419372, 0.38891542, 0.690061, 0.30731243, -0.70774496, 0.96237946, 0
311, 3055039554, -0.5368924, 0.28525996, 0.38760072, 0.692929, 0.4444327, -0.15998979, 0.20749187, 0
312, 3055056221, -0.5353376, 0.28580606, 0.38697872, 0.69425327, 0.20051771, 0.12530069, -0.28495502, 0
313, 3055072888, -0.53408515, 0.28614163, 0.38633513, 0.695437, -0.10255847, 0.27330482, -0.36230278, 0
315, 3055106222, -0.5320874, 0.28641856, 0.38562125, 0.6972482, -0.15326451, 0.40115434, -0.43110657, 0
316, 3055122889, -0.5312853, 0.286462, 0.3856057, 0.69785035, -0.03164798, 0.5239618, -0.61518097, 0
317, 3055139556, -0.53065926, 0.28654873, 0.3857078, 0.69823474, -0.03387361, 0.5518352, -0.4206581, 0
320, 3055189557, -0.53037, 0.28572282, 0.3862559, 0.6984897, -0.097481824, 0.3796087, -0.06835365, 0
321, 3055206224, -0.5306933, 0.28489953, 0.38668033, 0.6983457, -0.10461278, 0.50129473, -0.3236208, 0
323, 3055239558, -0.5317872, 0.28301033, 0.38697624, 0.69811785, 0.10572677, 0.19695012, -0.3015623, 0
324, 3055256225, -0.5322891, 0.28215796, 0.38698065, 0.69807804, 0.40536746, 0.040761612, -0.0257864, 0
326, 3055289559, -0.5332041, 0.2800748, 0.3873293, 0.698025, -0.11256425, 0.3025459, 0.020393372, 0
327, 3055306226, -0.53356004, 0.27893656, 0.3872778, 0.6982376, -0.4786646, 0.3195833, 0.122291565, 0
328, 3055322893, -0.53382254, 0.27757788, 0.38695648, 0.69875616, -0.5509226, -0.020241445, 0.2192316, 0
330, 3055356227, -0.53445756, 0.27393925, 0.38629252, 0.7000729, -0.52403593, -0.33354872, 0.26520538, 0
331, 3055372894, -0.5347476, 0.27164918, 0.38603002, 0.70088816, -0.63067603, -0.28571025, -0.03292942, 0
332, 3055389561, -0.53519166, 0.2688259, 0.3859184, 0.7016989, -0.84228843, -0.14720932, -0.19350815, 0
334, 3055422895, -0.5369156, 0.26202384, 0.38563728, 0.7031078, -1.1318, -0.3831657, -0.008526802, 0
335, 3055439562, -0.53829384, 0.25876948, 0.38539696, 0.703391, -1.0393828, -0.6314068, 0.03416252, 0
336, 3055456229, -0.53953385, 0.25554433, 0.38521257, 0.703721, -1.1347548, -0.88953733, 0.09826279, 0
338, 3055489563, -0.5408351, 0.24729371, 0.38411146, 0.7062672, -0.46204364, -1.1129644, 0.94637203, 0
339, 3055506230, -0.5414105, 0.2414215, 0.38409925, 0.7078628, -0.14111091, -0.8285319, 0.76613235, 0
340, 3055522897, -0.5424895, 0.234575, 0.3843821, 0.70918393, -0.17161314, -0.59187585, 0.2306385, 0
342, 3055556231, -0.5446087, 0.2229144, 0.3827188, 0.71221364, -0.5813905, -1.0203646, -0.5648136, 0
343, 3055572898, -0.54521847, 0.2187252, 0.3810179, 0.7139559, -0.52163666, -1.1223849, -0.5883064, 0
344, 3055589565, -0.544642, 0.21490666, 0.37921607, 0.7165104, -0.67052376, -1.293514, -0.44956684, 0
347, 3055639566, -0.54071116, 0.20672129, 0.3732955, 0.72495514, -0.16132808, -1.2887598, -0.3088274, 0
348, 3055656233, -0.5393851, 0.20431939, 0.37138283, 0.7276013, -0.647205, -1.0414693, -0.12859821, 0
350, 3055689567, -0.5369665, 0.20004977, 0.3669776, 0.73279333, -0.7433259, -0.9651096, -0.30524635, 0
351, 3055706234, -0.53569496, 0.19808218, 0.3648451, 0.73531914, -0.71152747, -1.2494526, -0.44792557, 0
353, 3055739568, -0.5339457, 0.19449021, 0.36020878, 0.7398221, -0.8584459, -1.6172262, -0.5218029, 0
354, 3055756235, -0.53324616, 0.19324213, 0.3578196, 0.74181044, -0.78868794, -1.4078509, -0.57627964, 0
355, 3055772902, -0.53258073, 0.19226068, 0.35530803, 0.7437481, -1.0866783, -1.3907894, -0.5607424, 0
357, 3055806236, -0.5314461, 0.18985412, 0.35102707, 0.74720263, -1.2504121, -1.4980547, -0.45556736, 0
358, 3055822903, -0.53127325, 0.1884433, 0.34902695, 0.7486185, -1.0744443, -1.4055927, -0.5633898, 0
359, 3055839570, -0.5310219, 0.18693562, 0.34655163, 0.7503229, -0.98895943, -1.6330054, -0.25245, 0
362, 3055889571, -0.5298879, 0.18397889, 0.33655357, 0.75638205, -0.5685693, -2.1399217, -0.5357866, 0
363, 3055906238, -0.5291346, 0.18279284, 0.33353192, 0.75853246, -0.5705822, -1.7985386, -1.051712, 0
365, 3055939572, -0.5273116, 0.18058503, 0.32814747, 0.762668, -1.0936531, -1.5308454, -1.0640125, 0
366, 3055956239, -0.5263367, 0.17958522, 0.3257464, 0.7646042, -1.3540863, -1.6498994, -0.8045063, 0
367, 3055972906, -0.525776, 0.17870636, 0.32303226, 0.7663455, -1.326143, -1.6842624, -0.8152609, 0
369, 3056006240, -0.5257157, 0.17585516, 0.31759876, 0.76931167, -1.140299, -1.5085218, -0.67493725, 0
370, 3056022907, -0.52634454, 0.17465803, 0.31425306, 0.7705276, -1.2468771, -1.7292248, -0.45263672, 0
371, 3056039574, -0.52709615, 0.17375894, 0.31086305, 0.77159137, -1.1464467, -1.8601698, -0.46809483, 0
373, 3056072908, -0.52814287, 0.17214037, 0.30361465, 0.77412057, -1.625257, -2.0927043, -0.73741436, 0
374, 3056089575, -0.52843344, 0.17196324, 0.29945537, 0.7755803, -1.6704483, -2.1094701, -1.0337706, 0
377, 3056139576, -0.52458894, 0.17076385, 0.29158717, 0.7814311, -2.5457172, -2.29652, -0.92337704, 0
378, 3056156243, -0.5226619, 0.17004724, 0.290463, 0.7832952, -2.7638521, -2.4577, -0.403924, 0
380, 3056189577, -0.5190933, 0.16751152, 0.28940353, 0.7866, -3.5718915, -3.4821918, 1.2663479, 0
381, 3056206244, -0.51723236, 0.16709493, 0.2883918, 0.78828394, -4.023596, -3.3721132, 1.9426594, 0
382, 3056222911, -0.5156634, 0.16682714, 0.28590453, 0.7902722, -4.4416246, -3.1613426, 2.725768, 0
384, 3056256245, -0.5132737, 0.16736183, 0.2812926, 0.79336405, -2.6764035, -3.8942215, 3.6284933, 0
385, 3056272912, -0.51245606, 0.16725522, 0.28106305, 0.7939958, -1.7440811, -3.9661534, 3.5991325, 0
386, 3056289579, -0.51285255, 0.1669046, 0.28280604, 0.7931944, -1.1724153, -2.2665486, 2.507615, 0
388, 3056322913, -0.5169428, 0.16765592, 0.28956717, 0.78792393, -0.39910334, 1.5250062, 1.3377047, 0
389, 3056339580, -0.51912844, 0.16746126, 0.29109144, 0.78596437, -0.48331803, 1.1638759, 2.4944468, 0
392, 3056389581, -0.5311893, 0.16832586, 0.2935174, 0.77676487, -0.30092084, 0.5739883, 3.489976, 0
393, 3056406248, -0.53724825, 0.16921489, 0.29315263, 0.77253073, -0.81238556, 0.56359696, 2.7141695, 0
394, 3056422915, -0.54342747, 0.17132933, 0.29167855, 0.768289, -0.7191562, 0.51959366, 1.4559488, 0
396, 3056456249, -0.5543005, 0.1790764, 0.2859776, 0.7608621, 0.23127595, -0.020114489, -0.03309536, 0
397, 3056472916, -0.55811226, 0.18518655, 0.28351134, 0.7575286, 0.9308482, -0.87814075, -0.20699024, 0
398, 3056489583, -0.5606451, 0.19201352, 0.28261444, 0.7542868, 1.4559919, -1.251232, 0.13847733, 0
400, 3056522917, -0.56166196, 0.20765539, 0.28287983, 0.74927014, 0.040158797, -0.5002595, -1.0148144, 0
401, 3056539584, -0.5607381, 0.21517915, 0.2837318, 0.74751514, -0.061692424, -0.47008076, -0.795454, 0
402, 3056556251, -0.55967396, 0.22210407, 0.28557155, 0.74558383, -0.7435055, -0.1977208, -0.99468994, 0
404, 3056589585, -0.5580981, 0.23723076, 0.28797823, 0.74116683, -0.36351818, 0.17898303, -0.8199501, 0
405, 3056606252, -0.55741596, 0.24536853, 0.2887696, 0.73871887, -0.8468053, -0.091576256, -1.1529589, 0
407, 3056639586, -0.5554734, 0.26185188, 0.28979304, 0.73410803, -0.90357476, -0.26430696, -0.9911165, 0
408, 3056656253, -0.5526184, 0.2699521, 0.29109555, 0.73281246, -1.1846399, -0.040880855, -1.4070082, 0
409, 3056672920, -0.54985917, 0.27786413, 0.29227942, 0.7314579, -0.93193835, 0.48738235, -1.5054646, 0
411, 3056706254, -0.5425263, 0.29583618, 0.2933888, 0.72943866, 0.2642636, -0.07361545, -1.7996426, 0
412, 3056722921, -0.5376701, 0.30596736, 0.29350334, 0.7288087, 0.9645574, -0.44828928, -2.3311915, 0
413, 3056739588, -0.53287107, 0.31497306, 0.29379436, 0.7283796, 0.7115955, -0.60687387, -2.2340097, 0
415, 3056772922, -0.5226935, 0.32948983, 0.2971168, 0.72798437, -0.33640164, 0.42772824, -1.7565098, 0
416, 3056789589, -0.5183846, 0.33575934, 0.2998377, 0.72708464, -0.98702663, 1.4716004, -1.1050692, 0
419, 3056839590, -0.50705796, 0.35823578, 0.3036958, 0.72273076, 0.68445194, 2.0377295, -0.2977152, 0
420, 3056856257, -0.50360256, 0.3661836, 0.30333826, 0.7213123, 1.100065, 1.3576986, -0.37039852, 0
421, 3056872924, -0.50007397, 0.3728127, 0.30226782, 0.7208208, 1.2474597, 0.7802028, -0.022662163, 0
423, 3056906258, -0.4910748, 0.38125423, 0.29917216, 0.72387743, 1.5316207, 0.18302917, 0.073218346, 0
424, 3056922925, -0.4868048, 0.38243893, 0.29767746, 0.72674704, 0.8103224, 0.6013771, 0.57633114, 0
425, 3056939592, -0.48309666, 0.38255063, 0.29646757, 0.72965133, 0.02444198, 1.3590498, 1.0917072, 0
427, 3056972926, -0.4778995, 0.38315618, 0.2943033, 0.7336216, -1.4862101, 1.417036, 1.1090193, 0
428, 3056989593, -0.47652644, 0.38380557, 0.2926113, 0.7348511, -1.4038687, 1.2810211, 0.84294415, 0
430, 3057022927, -0.47469223, 0.38353166, 0.28731138, 0.7382645, -0.16893695, 0.54689664, 0.116288185, 0
431, 3057039594, -0.4742779, 0.38204122, 0.28450912, 0.7403859, -0.049692295, 0.46401224, -0.32685947, 0
434, 3057089595, -0.47385383, 0.37477618, 0.27570036, 0.74766725, 0.08279054, 1.446507, -0.85811424, 0
435, 3057106262, -0.47392148, 0.36893833, 0.27271426, 0.75161266, 0.07098173, 1.53832, -0.7437086, 0
436, 3057122929, -0.47598296, 0.36008266, 0.27086312, 0.7552651, 0.52192384, 1.4159678, -0.3922577, 0
438, 3057156263, -0.48470294, 0.3406379, 0.26865518, 0.7595163, -0.28459352, 0.74071735, -3.1514745, 0
439, 3057172930, -0.48731363, 0.3338163, 0.26530477, 0.76204807, -1.2009858, -0.13468695, -2.796967, 0
440, 3057189597, -0.49087736, 0.32595792, 0.26103848, 0.7646315, -0.77408975, -0.7464112, -2.0715814, 0
442, 3057222931, -0.5028032, 0.30084258, 0.25667122, 0.76864445, 0.15935178, -0.028584402, -3.3962836, 0
443, 3057239598, -0.51124847, 0.28275472, 0.25941187, 0.7690201, 0.6540315, 0.96836126, -3.966156, 0
444, 3057256265, -0.51727974, 0.26737294, 0.26015133, 0.7702378, -0.42199063, 1.7729809, -4.9137945, 0
446, 3057289599, -0.5279191, 0.252608, 0.24502428, 0.7729589, -0.25126517, -0.16237736, -2.8176427, 0
448, 3057322933, -0.53299403, 0.24203737, 0.22543357, 0.7787983, 1.2770073, -4.3356423, -1.921732, 0
450, 3057356267, -0.53231776, 0.22444217, 0.22095782, 0.7857816, -4.226703, -3.4310246, -0.97575665, 0
451, 3057372934, -0.5283144, 0.2200718, 0.22177932, 0.7894796, -7.060104, -3.8449168, 1.1185989, 0
452, 3057389601, -0.52540094, 0.21660623, 0.22332366, 0.791943, -8.553735, -6.656572, 3.093649, 0
454, 3057422935, -0.5259151, 0.21140374, 0.22739774, 0.7918482, -6.49258, -7.0264874, 7.781887, 0
455, 3057439602, -0.52489585, 0.21025997, 0.2275735, 0.79277796, -5.9378505, -8.644199, 8.054163, 0
456, 3057456269, -0.5213802, 0.20872103, 0.22759815, 0.7954929, -5.842009, -8.429068, 7.618828, 0
458, 3057489603, -0.5158448, 0.20913798, 0.23096922, 0.79801655, -3.1883252, -5.1296353, 4.8576126, 0
459, 3057506270, -0.5146746, 0.2102547, 0.23092884, 0.79849005, -2.5237396, -3.893001, 4.875046, 0
461, 3057539604, -0.51117104, 0.21414302, 0.23771338, 0.7977161, 2.7530725, 1.4224852, 2.5285358, 0
463, 3057572938, -0.51215386, 0.21937865, 0.24610057, 0.79310644, 4.8171763, 5.901403, -0.008008957, 0
465, 3057606272, -0.5245162, 0.21547842, 0.24250609, 0.78718114, -2.126774, 1.8043696, 2.0071802, 0
466, 3057622939, -0.53021204, 0.21412122, 0.23820277, 0.7850469, -2.1292892, -1.1313053, 2.7796354, 0
467, 3057639606, -0.5355645, 0.21402128, 0.23499836, 0.78240204, -0.29744977, -2.70524, 2.8321342, 0
469, 3057672940, -0.541519, 0.21538663, 0.23786095, 0.7770455, 1.9352534, -1.3147689, -0.7877903, 0
470, 3057689607, -0.54363644, 0.21606947, 0.24217474, 0.774039, 0.6174749, -0.18874982, -1.529789, 0
471, 3057706274, -0.54546136, 0.21701375, 0.24512702, 0.7715577, 0.30617604, 0.80586416, -1.2848139, 0
473, 3057739608, -0.5491661, 0.22076239, 0.24834675, 0.76682204, 0.44217768, -0.26325193, -1.0669775, 0
474, 3057756275, -0.5515045, 0.22535062, 0.24906777, 0.7635685, 0.51183915, -0.1065403, -1.1900406, 0
475, 3057772942, -0.55296916, 0.23004952, 0.2510301, 0.76045895, 0.9645373, -0.1928748, -1.3329802, 0
477, 3057806276, -0.55470383, 0.24305552, 0.2537797, 0.75421166, 0.27207428, 0.01659444, -1.7775841, 0
478, 3057822943, -0.55509496, 0.24934071, 0.2561742, 0.75105613, -0.102916874, 0.47021398, -1.0431585, 0
479, 3057839610, -0.55433977, 0.25732216, 0.2562175, 0.7489039, 0.3933605, 0.29003784, -1.213521, 0
481, 3057872944, -0.5510245, 0.2729879, 0.25844395, 0.7450289, 0.32418022, -0.029374296, -0.91815853, 0
482, 3057889611, -0.5492435, 0.28017265, 0.261106, 0.742745, -0.2533933, 0.1330158, -0.75324726, 0
483, 3057906278, -0.54716796, 0.28724158, 0.2640065, 0.74054825, -1.2417835, 0.379401, -0.45553875, 0
485, 3057939612, -0.54128414, 0.30435786, 0.26694465, 0.7369735, -1.204098, -0.082038194, -0.6540079, 0
486, 3057956279, -0.53856957, 0.31354374, 0.26718488, 0.7350216, -0.2126828, -0.11873835, -0.49909687, 0
488, 3057989613, -0.53291607, 0.33185598, 0.27014607, 0.7300031, -0.067374684, 0.6158071, -0.5283222, 0
490, 3058022947, -0.5262274, 0.3505418, 0.27054226, 0.7259638, 0.012674637, 1.1627456, -1.1243744, 0
492, 3058056281, -0.5132781, 0.37099454, 0.26768553, 0.72612995, 0.69519717, -0.70147026, -1.7619009, 0
493, 3058072948, -0.5065303, 0.37977165, 0.2667712, 0.72666717, 0.8792013, -0.64939487, -1.1528692, 0
494, 3058089615, -0.50032717, 0.38685563, 0.26604655, 0.72749317, 0.94947284, -0.11574216, -1.1976318, 0
496, 3058122949, -0.48989415, 0.39740434, 0.26513952, 0.7292368, 0.56166744, 1.724582, -1.436636, 0
497, 3058139616, -0.48483503, 0.40324348, 0.26417878, 0.7297609, 0.18524916, 2.0198858, -1.0410681, 0
498, 3058156283, -0.4801317, 0.40974402, 0.26316464, 0.729616, -0.20483403, 2.068115, -0.61447334, 0
500, 3058189617, -0.47172326, 0.42309302, 0.25969037, 0.72872627, -0.22119603, 0.90139735, -0.096961975, 0
501, 3058206284, -0.4684006, 0.42862862, 0.2569921, 0.72859114, -0.06684289, 0.7348199, 0.4858799, 0
502, 3058222951, -0.46658763, 0.43325594, 0.2549974, 0.72771794, 0.5571765, 1.2421703, 0.89054203, 0
505, 3058272952, -0.4628718, 0.4458664, 0.2516867, 0.7236148, -0.06088521, 1.1185611, 0.8206396, 0
506, 3058289619, -0.46160108, 0.45002472, 0.25099683, 0.7220902, 0.07906424, 0.7432471, 0.9126606, 0
508, 3058322953, -0.45805824, 0.45862666, 0.24889517, 0.71965766, 0.37532258, 0.6628173, 0.7504282, 0
509, 3058339620, -0.45723963, 0.46272954, 0.24835435, 0.717736, 0.32299122, 0.43657377, 0.16372585, 0
511, 3058372954, -0.4561519, 0.47192982, 0.24661753, 0.71302116, 0.03696376, 0.21881293, -0.16615868, 0
512, 3058389621, -0.45542186, 0.4759242, 0.24532643, 0.7112761, -0.51691353, 0.059064973, -0.560729, 0
513, 3058406288, -0.4549387, 0.47911072, 0.2436665, 0.7100156, -0.37811968, -0.07947506, -0.6812496, 0
515, 3058439622, -0.45687616, 0.481412, 0.24358273, 0.7072382, -0.47409958, 0.5110136, -0.38293362, 0
516, 3058456289, -0.45838726, 0.48193407, 0.2438273, 0.70581913, -0.49923128, 0.86229444, -0.22557259, 0
517, 3058472956, -0.46001694, 0.48299718, 0.24403667, 0.70395744, 0.47249186, 0.9336677, -0.090117455, 0
520, 3058522957, -0.46398446, 0.4845351, 0.24543133, 0.6997994, 0.24731967, -0.6440224, -0.08610535, 0
521, 3058539624, -0.46617118, 0.48271537, 0.24625461, 0.69931436, -0.14692286, -0.8775548, 0.5404291, 0
523, 3058572958, -0.46999288, 0.4782772, 0.24601217, 0.6998909, -0.2503837, -0.4654852, 0.6753254, 0
524, 3058589625, -0.4721354, 0.475142, 0.24650866, 0.7004093, -0.3334987, 0.11563644, 0.24787426, 0
525, 3058606292, -0.47412276, 0.4716529, 0.24717306, 0.7011905, -0.3775807, 0.3964779, 0.12840271, 0
527, 3058639626, -0.4777853, 0.46233183, 0.24802932, 0.70460176, -0.47157243, 0.41484362, -0.15296555, 0
528, 3058656293, -0.48005658, 0.45706135, 0.2481724, 0.70644367, -0.4743547, -0.010534165, -0.2727213, 0
529, 3058672960, -0.48325357, 0.4515352, 0.24709953, 0.7081917, -0.2036901, -0.47091776, -0.0446558, 0
531, 3058706294, -0.48794034, 0.4409594, 0.24324691, 0.71295977, 0.34790158, -0.77950555, -1.3909922, 0
532, 3058722961, -0.49057978, 0.43459883, 0.24037108, 0.71602297, -0.073297694, -0.75493425, -1.7477207, 0
535, 3058772962, -0.5019916, 0.40490246, 0.2412777, 0.7251586, -1.5032983, 0.99992865, -1.4881458, 0
536, 3058789629, -0.5070252, 0.39464214, 0.24127242, 0.72731173, -1.4297624, 0.6084947, -1.5020142, 0
537, 3058806296, -0.512249, 0.38465524, 0.23966038, 0.7295313, -0.54549557, 0.749656, -2.7822099, 0
539, 3058839630, -0.5231905, 0.36073843, 0.23290673, 0.7361423, -0.19244236, -0.51581454, -3.990995, 0
540, 3058856297, -0.53034335, 0.34564108, 0.23008408, 0.73914874, -1.017073, -1.062748, -6.2779226, 0
542, 3058889631, -0.54446214, 0.3138085, 0.2293258, 0.7433078, -0.42238095, 0.7594241, -5.1878777, 0
543, 3058906298, -0.5467436, 0.30367932, 0.22960946, 0.74574894, -1.3442639, 0.6294261, -2.38861, 0
544, 3058922965, -0.5462785, 0.2938081, 0.22999476, 0.74991375, -2.9936755, -3.2775376, 3.796382, 0
546, 3058956299, -0.5441375, 0.2708822, 0.23086166, 0.7597709, -1.5154322, -9.380691, 9.107155, 0
547, 3058972966, -0.540735, 0.26226008, 0.23050332, 0.76531374, -2.5966628, -9.164425, 8.936792, 0
548, 3058989633, -0.5376637, 0.25290942, 0.23331288, 0.7697605, -4.9215317, -6.2855835, 7.151682, 0
550, 3059022967, -0.5361793, 0.24677682, 0.23175228, 0.77325, -4.3309355, -4.392918, 2.9007826, 0
551, 3059039634, -0.5385995, 0.24328636, 0.23132235, 0.7728026, -1.1218761, -2.5188193, 2.4950342, 0
552, 3059056301, -0.54060435, 0.24082074, 0.23610458, 0.7707259, 2.043529, -0.2259735, 2.0319471, 0
554, 3059089635, -0.5421357, 0.24605243, 0.24378991, 0.76558816, 4.3861814, 6.447344, -0.66324234, 0
555, 3059106302, -0.5410676, 0.24682668, 0.24403656, 0.7660157, 3.293364, 4.3534617, 0.7782316, 0
556, 3059122969, -0.5393097, 0.24358016, 0.24418676, 0.7682435, -1.2056154, 1.9363289, 3.1837702, 0
558, 3059156303, -0.54035306, 0.23634711, 0.24012005, 0.7710465, -0.22776736, -1.0984384, 2.5817785, 0
559, 3059172970, -0.54152596, 0.2355618, 0.23559305, 0.77186, 1.7145607, -2.5830493, 2.5619545, 0
562, 3059222971, -0.54304695, 0.23959166, 0.23677322, 0.7691852, 1.6274203, 1.2615565, -2.3176908, 0
563, 3059239638, -0.5424899, 0.24196024, 0.23654047, 0.7689084, -0.23311809, 0.8916451, -2.0310764, 0
565, 3059272972, -0.54230386, 0.24700122, 0.2341239, 0.7681762, -0.8068188, 0.013578077, -1.10853, 0
566, 3059289639, -0.54115146, 0.250571, 0.23314872, 0.76812935, -0.7741934, -0.6180108, -0.9337425, 0
567, 3059306306, -0.5404626, 0.25560448, 0.23271364, 0.7670871, -0.4528738, -0.6640367, -0.7925081, 0
569, 3059339640, -0.53876907, 0.26652625, 0.23332448, 0.764371, 0.008498969, 0.7154331, -1.7168293, 0
570, 3059356307, -0.5366386, 0.27323854, 0.23282108, 0.76365274, 1.3182151, 1.1652954, -1.876853, 0
571, 3059372974, -0.5346634, 0.27832007, 0.23210278, 0.7634219, -0.19999537, 0.69110674, -1.538743, 0
573, 3059406308, -0.5301203, 0.28927317, 0.23242024, 0.762421, -0.13137811, 0.59303504, -0.48881912, 0
574, 3059422975, -0.52806807, 0.29469278, 0.2332765, 0.76150763, -0.28847042, 0.90403134, -0.48634434, 0
577, 3059472976, -0.51987875, 0.3138777, 0.23158525, 0.7599913, -0.26106665, 0.32225433, -0.99129677, 0
578, 3059489643, -0.5174229, 0.31934258, 0.23093235, 0.75958925, 0.29228315, 0.091755085, -0.4150114, 0
579, 3059506310, -0.5158924, 0.32357103, 0.23239335, 0.7583943, -0.12660757, 0.4106686, -0.35316467, 0
581, 3059539644, -0.5138094, 0.33341154, 0.23625809, 0.754341, -0.72298247, 1.4644463, -0.46940136, 0
582, 3059556311, -0.51319826, 0.3396672, 0.23651731, 0.7518811, -0.6805318, 1.1502197, -0.60344505, 0
583, 3059572978, -0.5123623, 0.34634843, 0.2364111, 0.7494325, -0.5424341, 0.83120686, -0.7159548, 0
585, 3059606312, -0.5104425, 0.3583158, 0.23761863, 0.74471945, 0.5353593, 0.3052776, 0.08755016, 0
586, 3059622979, -0.507705, 0.3649958, 0.23813042, 0.7431819, 0.049005795, -0.051362764, -0.044002533, 0
587, 3059639646, -0.50454825, 0.3721882, 0.23801818, 0.7417992, 0.69517285, -0.33258694, -0.13693428, 0
589, 3059672980, -0.4994374, 0.38537145, 0.2376232, 0.73864603, 1.1914963, -0.29903272, -0.69492817, 0
591, 3059706314, -0.4925149, 0.3963152, 0.23609264, 0.7379941, 0.6427855, -0.034397863, -1.2694273, 0
593, 3059739648, -0.48469973, 0.4068457, 0.23472261, 0.737875, 0.57492673, 0.3926252, -0.4504881, 0
594, 3059756315, -0.48139316, 0.41164866, 0.2351819, 0.7372293, 0.24732901, 0.8235694, -0.38479233, 0
596, 3059789649, -0.47734857, 0.41979247, 0.23770776, 0.7344517, -0.17433849, 1.4509354, 0.13398838, 0
597, 3059806316, -0.47568268, 0.42492792, 0.23834668, 0.7323695, -0.3863072, 1.1388142, 0.13205242, 0
598, 3059822983, -0.47464168, 0.42985037, 0.23979884, 0.72969323, -0.34053507, 1.0864879, 0.29753494, 0
600, 3059856317, -0.4734432, 0.43995035, 0.24116784, 0.7239785, 0.37510026, -0.17510664, 0.04180813, 0
601, 3059872984, -0.4734493, 0.44470885, 0.2425541, 0.7205963, 0.4865764, 0.54423213, 0.04097271, 0
602, 3059889651, -0.4728817, 0.4494414, 0.243373, 0.717751, 0.24021311, 0.28250283, -0.05415058, 0
604, 3059922985, -0.4698946, 0.45604157, 0.24519765, 0.714923, -0.49224058, -0.3776715, 0.8620882, 0
606, 3059956319, -0.4690519, 0.4585209, 0.24813274, 0.712875, -0.042065836, -0.24345411, 1.381691, 0
608, 3059989653, -0.4695283, 0.4612879, 0.2500635, 0.71009594, 0.25017503, 0.4534109, 0.68263435, 0
609, 3060006320, -0.4705869, 0.46369493, 0.2505135, 0.70766497, 0.36683592, 0.63325936, 0.19039822, 0
610, 3060022987, -0.47206444, 0.466624, 0.25077942, 0.7046548, 0.4309868, 0.6405965, -0.22306347, 0
612, 3060056321, -0.47650415, 0.47136188, 0.25148126, 0.69823396, 0.5422273, 0.36103982, -0.43197346, 0
613, 3060072988, -0.47864375, 0.47288346, 0.25209782, 0.6955141, 0.44729272, 0.37129337, -0.4039545, 0
614, 3060089655, -0.4802883, 0.47425243, 0.25301188, 0.693112, 0.3532377, 0.29362583, -0.19690037, 0
616, 3060122989, -0.48318273, 0.47513437, 0.25584027, 0.6894485, 0.09321418, 0.28184134, 0.13175297, 0
617, 3060139656, -0.48450893, 0.4751419, 0.25688475, 0.68812275, 0.12800291, 0.14484914, 0.068823814, 0
618, 3060156323, -0.48544934, 0.47507825, 0.25693715, 0.6874841, 0.32104927, 0.39756295, -0.22326088, 0
620, 3060189657, -0.48550063, 0.47420675, 0.25528383, 0.68866473, 0.1972341, -0.17722388, -0.11837959, 0
621, 3060206324, -0.48569953, 0.47226202, 0.2545902, 0.6901158, 0.29190642, 0.009863627, 0.31202126, 0
623, 3060239658, -0.48739493, 0.46629858, 0.25431207, 0.69307196, 0.397714, 1.0499486, 0.4271679, 0
624, 3060256325, -0.4891074, 0.46151698, 0.2541994, 0.69510454, 0.098544516, 1.1714734, 0.74924564, 0
625, 3060272992, -0.49094456, 0.456672, 0.2536745, 0.697198, 0.43891445, 1.5400196, -0.76004505, 0
627, 3060306326, -0.49486727, 0.4455645, 0.24971735, 0.7030159, 0.14764741, 0.13000306, -0.50115967, 0
628, 3060322993, -0.49673834, 0.4395821, 0.24709225, 0.70638204, 0.8754778, -0.36572275, -0.9485712, 0
629, 3060339660, -0.4986527, 0.4336684, 0.24361111, 0.7098891, 0.13934566, -1.5770491, -2.0469565, 0
631, 3060372994, -0.50269467, 0.4209655, 0.23981833, 0.71595013, -0.74724346, -1.1823575, -0.50556946, 0
633, 3060406328, -0.5100838, 0.4019739, 0.23732528, 0.7224401, -0.13727419, 0.45350906, -1.6445875, 0
635, 3060439662, -0.5196177, 0.37749353, 0.23403412, 0.72988737, -0.6618329, 1.3820558, -2.2422514, 0
636, 3060456329, -0.5229648, 0.3668151, 0.23003139, 0.7342015, -1.1494856, -0.07433807, -1.6568995, 0
637, 3060472996, -0.5262614, 0.3559196, 0.2263146, 0.738352, 0.15962829, -0.7874368, -2.8145971, 0
639, 3060506330, -0.53500724, 0.32562134, 0.22403431, 0.74669826, -0.10255258, -0.07209455, -2.3718853, 0
640, 3060522997, -0.54054123, 0.30905646, 0.22390047, 0.74978626, -0.59189695, 0.76858777, -3.2707825, 0
641, 3060539664, -0.5461112, 0.29394737, 0.22260301, 0.75220805, -0.9847214, 1.0488856, -3.3078732, 0
643, 3060572998, -0.5566538, 0.27122808, 0.21531218, 0.7551319, -0.1663209, -0.55262417, 0.28028584, 0
644, 3060589665, -0.5599512, 0.26370153, 0.20549084, 0.7580906, 0.6426816, -3.5214972, 2.2711, 0
645, 3060606332, -0.56174296, 0.25689155, 0.1964468, 0.7614931, 0.080405936, -5.893138, 3.6861887, 0
648, 3060656333, -0.55403876, 0.23148713, 0.19365619, 0.7758631, -6.3545303, -4.839959, 5.9152527, 0
650, 3060689667, -0.5486393, 0.22919375, 0.19266343, 0.78061366, -1.7882514, -6.6360726, 2.8405857, 0
651, 3060706334, -0.54546344, 0.22951235, 0.19066787, 0.7832312, -0.6178137, -7.34542, 2.8256817, 0
652, 3060723001, -0.54202926, 0.22632432, 0.19421199, 0.7856684, 0.3361268, -4.512824, 3.218275, 0
654, 3060756335, -0.5360578, 0.22976424, 0.21541075, 0.7832371, 3.7259793, 6.7492437, -0.3939314, 0
655, 3060773002, -0.5323653, 0.23363754, 0.21749309, 0.78403383, 2.0697193, 7.786385, -0.044958115, 0
656, 3060789669, -0.53001523, 0.23473969, 0.21392334, 0.7862759, -0.34069443, 3.1799462, 2.9065123, 0
658, 3060823003, -0.53291565, 0.23646903, 0.20786345, 0.785422, -0.80442894, -1.5615026, 3.7911968, 0
659, 3060839670, -0.53604174, 0.23760298, 0.2082865, 0.78283626, -0.04971599, -1.147332, 2.6904898, 0
660, 3060856337, -0.53942406, 0.2389693, 0.20922714, 0.7798403, 0.41214308, 0.1309605, 0.4904356, 0
663, 3060906338, -0.54279935, 0.25205505, 0.20116493, 0.7754879, 1.7979409, -1.4659339, -0.9403763, 0
664, 3060923005, -0.5428999, 0.2560285, 0.2001755, 0.7743709, 1.9654518, -1.4778783, -0.9573364, 0
666, 3060956339, -0.5422648, 0.26393226, 0.20225537, 0.77161723, 0.4651953, 0.45499492, -1.755063, 0
667, 3060973006, -0.54190767, 0.2679727, 0.20413804, 0.7699778, -0.12660411, 1.2905662, -0.9305229, 0
668, 3060989673, -0.5412663, 0.2719155, 0.20565388, 0.7686422, -0.42297375, 1.3860611, -1.0053377, 0
670, 3061023007, -0.5417023, 0.28015578, 0.20591867, 0.7652977, 0.17534272, 0.48740324, -0.5140171, 0
671, 3061039674, -0.5419679, 0.28535977, 0.20516108, 0.7633879, -0.08491844, -0.31155214, -0.6980362, 0
672, 3061056341, -0.5420668, 0.29113188, 0.20567667, 0.7609957, 0.6789597, -0.54734254, -0.7387991, 0
674, 3061089675, -0.5431362, 0.30126938, 0.21244621, 0.7543992, 1.0252428, 0.46163085, -1.1683712, 0
675, 3061106342, -0.5429713, 0.30796424, 0.21555403, 0.7509251, 2.1492279, 0.6815053, -1.324009, 0
678, 3061156343, -0.54225755, 0.3283642, 0.22028366, 0.7413639, 0.53674436, -0.02070054, -1.4091253, 0
679, 3061173010, -0.5421176, 0.33438885, 0.2229923, 0.7379557, 0.4386358, 0.012312993, -1.0483999, 0
681, 3061206344, -0.5400945, 0.34821564, 0.22970745, 0.7309513, 0.584587, 0.3381999, -1.2470713, 0
682, 3061223011, -0.5392966, 0.35603663, 0.23217206, 0.72698355, 0.67152894, 0.13288203, -1.5927486, 0
683, 3061239678, -0.53922963, 0.36154887, 0.23616499, 0.7230156, 0.3727102, 0.6907569, -1.3268709, 0
685, 3061273012, -0.537835, 0.3724856, 0.24399358, 0.7158678, 0.20148824, 0.57755035, -0.7846279, 0
686, 3061289679, -0.5373842, 0.37808865, 0.24758725, 0.7120248, -0.07217194, 0.55645406, -0.21058464, 0
687, 3061306346, -0.53680557, 0.38360584, 0.25145555, 0.70814407, -0.29258108, 0.3926556, 0.061014175, 0
689, 3061339680, -0.5342764, 0.3949396, 0.25873363, 0.70117044, 0.85240686, -0.08569956, -0.0074596405, 0
690, 3061356347, -0.5325317, 0.40052074, 0.2620374, 0.6980984, 0.90047085, 0.25097722, -0.07663822, 0
691, 3061373014, -0.5304557, 0.4064554, 0.2643349, 0.6953771, 0.93119997, -0.01026975, -0.12276173, 0
693, 3061406348, -0.5246952, 0.41820133, 0.26791695, 0.6914004, 0.2012799, -0.35189143, -0.12484455, 0
694, 3061423015, -0.5212778, 0.42326826, 0.2687487, 0.69057894, -0.010047075, -0.4182238, 0.08045864, 0
695, 3061439682, -0.51786625, 0.42793742, 0.26913723, 0.6901165, 0.07977541, -0.11613096, 0.40972996, 0
697, 3061473016, -0.5122198, 0.43606874, 0.27042478, 0.68873596, -0.64352536, 0.5714091, 0.3506403, 0
698, 3061489683, -0.50964105, 0.44061774, 0.27083224, 0.68759245, -0.6472936, 0.5743912, 0.3104725, 0
700, 3061523017, -0.5050416, 0.45026967, 0.27400783, 0.6834628, -0.83984685, 0.98152125, 0.036035538, 0
701, 3061539684, -0.5033269, 0.45539498, 0.2764374, 0.68034655, -0.20899965, 0.8812792, -0.2433567, 0
702, 3061556351, -0.5023807, 0.4600328, 0.27952582, 0.6766536, -0.450571, 1.2644627, -0.5645323, 0
705, 3061606352, -0.5003303, 0.4741317, 0.28882295, 0.66442585, -0.25479397, 0.49637333, -0.7238884, 0
706, 3061623019, -0.50000334, 0.4782377, 0.2925241, 0.66009593, -0.21145035, 0.37165835, -0.10674763, 0
708, 3061656353, -0.4970556, 0.48603037, 0.29906124, 0.6536697, 0.17638575, -0.73998165, 1.1776505, 0
709, 3061673020, -0.49532664, 0.48885307, 0.30192345, 0.6515581, -0.10665323, 0.025192592, 0.7326479, 0
710, 3061689687, -0.4939298, 0.49105248, 0.30416209, 0.64992154, -0.21419956, -0.08204065, 0.8818283, 0
712, 3061723021, -0.49235398, 0.49385592, 0.30756673, 0.6473856, -0.4715765, 0.3445612, 0.94658566, 0
713, 3061739688, -0.49224532, 0.4945839, 0.30924287, 0.64611286, -0.24936843, 0.58898044, 0.83369255, 0
714, 3061756355, -0.49273956, 0.49496943, 0.31072947, 0.6447262, 0.03606717, 0.46284738, 0.6579504, 0
716, 3061789689, -0.4943272, 0.49617538, 0.3125702, 0.6416869, 0.49099874, 0.3024858, -0.12206364, 0
717, 3061806356, -0.49545538, 0.49652568, 0.31282288, 0.6404215, 0.44374573, 0.24593276, -0.48683167, 0
720, 3061856357, -0.49916124, 0.49341533, 0.31294987, 0.63988554, -0.11409375, 0.21566129, 0.48356247, 0
721, 3061873024, -0.4999066, 0.49203038, 0.31286043, 0.6404136, 0.0711962, 0.16739869, 0.5764675, 0
722, 3061889691, -0.50038457, 0.4910426, 0.31279314, 0.6408309, 0.46780908, 0.08926012, 0.31588554, 0
724, 3061923025, -0.50024754, 0.48884827, 0.31018773, 0.64387506, 0.66579497, -0.13614744, 0.2216196, 0
725, 3061939692, -0.4998385, 0.48707986, 0.30783516, 0.6466561, 0.14819255, -0.14167649, 0.0655756, 0
726, 3061956359, -0.5000617, 0.484084, 0.3057875, 0.6496972, -0.1652615, 0.07175146, 0.15265751, 0
728, 3061989693, -0.49988118, 0.4773014, 0.3023947, 0.6564077, -0.15352076, 0.71027446, 0.23741055, 0
729, 3062006360, -0.5000433, 0.47467726, 0.29997244, 0.6592925, 0.2713023, 0.59043247, 0.20164776, 0
731, 3062039694, -0.50260717, 0.46744016, 0.2952876, 0.66460717, -0.47589657, 0.38203785, 0.010314941, 0
732, 3062056361, -0.50537956, 0.46127412, 0.29294223, 0.667843, -0.60672027, 1.1761767, 0.42822838, 0
735, 3062106362, -0.5094177, 0.4492588, 0.27769235, 0.6793811, 0.5325801, -0.42575568, -0.82999134, 0
736, 3062123029, -0.5100036, 0.44594762, 0.2710535, 0.6837898, 0.32325557, -0.9867022, -1.1780052, 0
737, 3062139696, -0.51139855, 0.44021758, 0.2650031, 0.6888141, -0.30447796, -0.49065197, -1.5097923, 0
739, 3062173030, -0.5178949, 0.4216392, 0.2551009, 0.69924265, -0.16452101, 2.4396007, -1.631258, 0
740, 3062189697, -0.5191177, 0.41439468, 0.25005, 0.7044716, -0.072433785, 1.8453645, -2.1510196, 0
741, 3062206364, -0.5216539, 0.40591204, 0.24468176, 0.7094045, -1.0977188, 0.30821833, -1.0015669, 0
743, 3062239698, -0.5279565, 0.3839664, 0.2350435, 0.72013736, -0.3781788, 0.36267817, -1.560832, 0
744, 3062256365, -0.5319712, 0.37084487, 0.23046729, 0.7255186, -0.78325784, 0.68509495, -1.5911779, 0
745, 3062273032, -0.53629714, 0.35771832, 0.22417602, 0.73087585, -0.54758394, 0.44910705, -1.9675465, 0
747, 3062306366, -0.5422139, 0.32866183, 0.21226099, 0.74360114, 0.08122676, 1.2210797, -3.5123887, 0
749, 3062339700, -0.54513687, 0.2952368, 0.20905921, 0.756285, -1.2446809, 0.8183538, -5.003976, 0
751, 3062373034, -0.5451294, 0.26569703, 0.20918974, 0.7671312, -3.537139, -0.80369806, -2.1401768, 0
752, 3062389701, -0.5446459, 0.25274983, 0.2064666, 0.77256817, -3.7019956, -4.4866586, 1.5826559, 0
753, 3062406368, -0.54460704, 0.24075554, 0.20475966, 0.7768689, -2.4828212, -6.1367736, 3.8228922, 0
755, 3062439702, -0.53996795, 0.21733198, 0.20659856, 0.7864668, -4.5120263, -5.484744, 4.924611, 0
756, 3062456369, -0.5392015, 0.20674106, 0.21086116, 0.7887136, -4.106639, -3.2009647, 3.8132086, 0
758, 3062489703, -0.54123807, 0.19304127, 0.22102788, 0.78800684, -1.0572473, -2.2697504, 2.9837027, 0
759, 3062506370, -0.54426897, 0.18791494, 0.22651936, 0.78559536, 1.296528, -1.3356416, 3.2251396, 0
760, 3062523037, -0.546974, 0.1862442, 0.2328656, 0.7822518, 3.283713, 3.0731184, 2.2978182, 0
762, 3062556371, -0.5522961, 0.18640605, 0.23847517, 0.7767646, 0.6619236, 2.7123282, 4.014717, 0
763, 3062573038, -0.5539426, 0.18571663, 0.24169172, 0.77476037, -0.34050086, 0.66009814, 5.4250374, 0
764, 3062589705, -0.5566101, 0.18527208, 0.24587414, 0.77163273, 0.35612005, 0.45403227, 4.1304674, 0
766, 3062623039, -0.56431186, 0.18944725, 0.24844167, 0.7641664, 1.2249178, -0.7613826, 2.3133783, 0
767, 3062639706, -0.5671166, 0.19415756, 0.24687111, 0.7614118, 1.0999982, -1.9847727, 2.2632103, 0
768, 3062656373, -0.56804043, 0.19961415, 0.24626675, 0.7595055, 1.6417665, -2.2395203, 1.7957373, 0
770, 3062689707, -0.56366825, 0.21339664, 0.24650533, 0.75893795, 2.805537, -1.3187816, -0.15606403, 0
771, 3062706374, -0.55999, 0.2198803, 0.24674353, 0.7597324, 1.7295725, -0.43591797, -0.9501457, 0
772, 3062723041, -0.5559292, 0.22680199, 0.24652475, 0.7607501, 0.6141585, 0.5713424, -1.5273104, 0
774, 3062756375, -0.54736316, 0.24392708, 0.24570629, 0.7619273, -0.3979015, 1.5992365, -2.2797422, 0
776, 3062789709, -0.5384275, 0.2645496, 0.24151757, 0.76275176, 0.03275912, 0.9589969, -1.910295, 0
778, 3062823043, -0.52666783, 0.28670728, 0.2369231, 0.76439434, 0.32101947, 0.40726915, -1.545371, 0
779, 3062839710, -0.52043116, 0.29778007, 0.23616064, 0.7646685, 0.3919148, 0.7843361, -1.7691956, 0
780, 3062856377, -0.5148439, 0.30797562, 0.23651251, 0.76430374, -0.27085787, 1.0734448, -1.5127487, 0
782, 3062889711, -0.50371575, 0.33011854, 0.23624761, 0.7625555, -0.40891168, 0.7931537, -1.8399734, 0
783, 3062906378, -0.49949515, 0.34031868, 0.23589802, 0.76095444, -1.0027337, 0.6506585, -0.8658619, 0
785, 3062939712, -0.49480152, 0.35796788, 0.23683324, 0.7556136, -1.6359046, 0.33075145, -0.3896513, 0
786, 3062956379, -0.49288666, 0.36551154, 0.23809719, 0.7528516, -1.5104431, 0.937129, -0.46985817, 0
787, 3062973046, -0.4891851, 0.37426803, 0.23785987, 0.7510364, -0.38998002, 0.32183295, -0.8329172, 0
789, 3063006380, -0.484353, 0.39070123, 0.2390677, 0.74539447, -0.116504595, 0.12757136, -0.6112671, 0
791, 3063039714, -0.48124838, 0.40560532, 0.24161986, 0.73859066, -0.19744395, 0.09402408, -0.54553413, 0
793, 3063073048, -0.47709516, 0.41874325, 0.24350071, 0.7333168, -0.39792112, 0.026689235, -0.47916985, 0
794, 3063089715, -0.47644603, 0.4243941, 0.2446405, 0.7301035, -0.23830917, 0.6581291, 0.6712961, 0
795, 3063106382, -0.4760788, 0.43014094, 0.24623832, 0.72643363, -0.5528434, 0.6935093, 0.1882515, 0
797, 3063139716, -0.47632372, 0.4408364, 0.24969992, 0.71863806, -0.5592632, 1.1078472, 0.15211391, 0
798, 3063156383, -0.4771294, 0.4458661, 0.25130135, 0.7144299, -0.18148448, 0.77824306, -0.14266968, 0
799, 3063173050, -0.47808135, 0.45124766, 0.25297263, 0.7098101, -0.17930216, 0.8722588, -0.27557373, 0
801, 3063206384, -0.47987646, 0.46279, 0.25488842, 0.70041955, 1.5050503, -0.032406762, -1.5437965, 0
802, 3063223051, -0.48045838, 0.4674269, 0.25562912, 0.6966616, 0.66375405, 0.25721446, -0.6672516, 0
803, 3063239718, -0.4798178, 0.47226453, 0.25640947, 0.69354653, 1.2071198, 0.27253628, -1.197092, 0
806, 3063289719, -0.47534108, 0.48333162, 0.26007673, 0.68761414, 0.48986307, -0.23546676, 0.003047943, 0
807, 3063306386, -0.47239137, 0.4869617, 0.26092836, 0.68676233, 0.2970459, -0.7169223, 0.6491461, 0
809, 3063339720, -0.46482235, 0.49441153, 0.261545, 0.6863695, 0.3450979, -0.91480446, 0.9133549, 0
810, 3063356387, -0.46186972, 0.49659395, 0.26112765, 0.6869459, -0.46761113, -0.14830643, 2.0458717, 0
812, 3063389721, -0.45523757, 0.50183684, 0.26122737, 0.6875248, 0.19931044, 1.1123613, -0.51967525, 0
813, 3063406388, -0.45400858, 0.503816, 0.26119155, 0.6869034, -0.018248826, 1.2919065, 0.30284023, 0
814, 3063423055, -0.45387125, 0.5061165, 0.26155382, 0.6851629, 0.020598842, 1.2301617, -0.0868206, 0
816, 3063456389, -0.45490667, 0.510657, 0.26318657, 0.6804657, 0.867947, 0.519309, -0.6828642, 0
817, 3063473056, -0.4558913, 0.5115976, 0.26386434, 0.6788358, 0.3121096, -0.10069537, 0.51294136, 0
818, 3063489723, -0.4562176, 0.5127956, 0.26494223, 0.6772912, 0.62931323, -0.30911306, -0.054205894, 0
821, 3063539724, -0.45913124, 0.5134843, 0.2665261, 0.674172, -0.3206765, 0.12751448, 0.34607792, 0
822, 3063556391, -0.46007907, 0.51382077, 0.2668422, 0.6731437, -0.35319322, 0.028769583, 0.53810596, 0
824, 3063589725, -0.46138865, 0.51463544, 0.26795495, 0.6711801, 0.19988582, -0.32296246, 0.71824837, 0
825, 3063606392, -0.4621594, 0.515189, 0.26828146, 0.6700937, 0.09091951, -0.4705462, 0.5199423, 0
826, 3063623059, -0.4632281, 0.5155673, 0.26800746, 0.66917384, 0.11053881, -0.39245644, 0.33150005, 0
828, 3063656393, -0.4665804, 0.5147828, 0.26742917, 0.66767853, 0.05661569, 0.3872656, -0.17071342, 0
829, 3063673060, -0.4690417, 0.5142981, 0.2677978, 0.6661782, 0.06556395, 0.67845863, -0.1757679, 0
830, 3063689727, -0.47144985, 0.514253, 0.26825207, 0.66432774, 0.36449784, 0.3819178, -0.2683897, 0
832, 3063723061, -0.4750636, 0.5157267, 0.2702555, 0.65978336, 0.69054383, -0.29506883, -0.6115265, 0
833, 3063739728, -0.4768022, 0.5153868, 0.2708335, 0.6585567, -0.10544204, -0.28224164, 0.16280365, 0
835, 3063773062, -0.48026192, 0.5130471, 0.27177975, 0.6574789, 0.5239166, -0.30535144, 0.46387863, 0
836, 3063789729, -0.48172742, 0.51202583, 0.27163208, 0.65726393, 0.60213345, -0.34189224, 0.27446842, 0
837, 3063806396, -0.48289543, 0.5114123, 0.27118737, 0.65706813, 0.6738924, -0.3398718, 0.06823349, 0
839, 3063839730, -0.4843352, 0.51060355, 0.27104643, 0.6566951, 0.2712378, -0.15015522, -0.0059633255, 0
840, 3063856397, -0.4846084, 0.5101059, 0.27122527, 0.6568066, 0.30158597, 0.09382951, -0.008364677, 0
841, 3063873064, -0.48446786, 0.50935745, 0.2715435, 0.65735954, 0.2980434, 0.15664458, 0.10641384, 0
843, 3063906398, -0.48340845, 0.5086147, 0.27252036, 0.6583096, 0.49096242, -0.23390463, -0.06450844, 0
844, 3063923065, -0.48322788, 0.50842386, 0.2722604, 0.6586972, 0.30755892, -0.06398148, -0.5394802, 0
845, 3063939732, -0.48343545, 0.5080348, 0.2717142, 0.6590702, 0.13034186, 0.08878415, -0.6387701, 0
848, 3063989733, -0.48612702, 0.50425076, 0.27003, 0.66068685, -0.15467365, 0.35533285, 0.80279255, 0
849, 3064006400, -0.48682928, 0.5028131, 0.2703205, 0.6611465, 0.015447483, 0.37683302, 1.0715075, 0
851, 3064039734, -0.4876629, 0.49962854, 0.2702187, 0.6629854, 0.6795886, 0.4769039, 0.2618618, 0
852, 3064056401, -0.48832476, 0.4978569, 0.26961356, 0.66407645, 0.86861587, 0.61033016, -0.21486187, 0
853, 3064073068, -0.48917833, 0.4962528, 0.2688644, 0.664952, 0.8517107, 0.56674236, -0.36284828, 0
855, 3064106402, -0.49087584, 0.49252668, 0.26771018, 0.66693413, 0.3029865, 0.17266007, 0.7688379, 0
856, 3064123069, -0.49211085, 0.4899403, 0.2684337, 0.6676381, 9.376927E-4, 0.6456375, 0.39307594, 0
857, 3064139736, -0.49402344, 0.4869537, 0.26902008, 0.6681742, 0.020614265, 0.92388654, 0.38080597, 0
859, 3064173070, -0.49707443, 0.48160383, 0.26795396, 0.67021406, 0.14240374, 0.21691474, 0.4841442, 0
860, 3064189737, -0.49975744, 0.4767633, 0.26681173, 0.67213273, 0.063241705, 0.21736613, 1.0031013, 0
863, 3064239738, -0.51117414, 0.45427147, 0.26563463, 0.67955005, 0.22432676, 0.9506129, -1.1477013, 0
864, 3064256405, -0.51599944, 0.4467151, 0.2635343, 0.6817267, 0.09330151, 0.4524548, -1.4869022, 0
866, 3064289739, -0.5246643, 0.43144852, 0.26090363, 0.685945, -0.57442474, 0.1834153, -1.4595623, 0
867, 3064306406, -0.5306857, 0.4191217, 0.26018876, 0.68921924, 0.2168146, 0.2521152, -1.0587301, 0
868, 3064323073, -0.53583175, 0.40522504, 0.26062697, 0.6933701, 0.77326226, 0.698072, -2.4010153, 0
870, 3064356407, -0.5452829, 0.38005668, 0.25872654, 0.7009247, -0.59375626, -0.6674174, -2.4164314, 0
871, 3064373074, -0.5497309, 0.36917004, 0.25448516, 0.70481086, -0.2505562, -1.4538518, -2.3730278, 0
872, 3064389741, -0.55283016, 0.35793248, 0.25023946, 0.7096867, 0.98006755, -1.0248123, -4.1635056, 0
874, 3064423075, -0.55845666, 0.32964697, 0.24455296, 0.7208776, -0.4255588, -0.48663214, -4.949416, 0
875, 3064439742, -0.56172365, 0.31511852, 0.24389282, 0.72504807, -2.1368563, -0.4858546, -6.205271, 0
878, 3064489743, -0.5643749, 0.28375152, 0.23877299, 0.7375398, -2.8154619, -1.3374488, 2.019082, 0
879, 3064506410, -0.562492, 0.27266374, 0.23662576, 0.74382585, -1.8270369, -4.979419, 4.418068, 0
880, 3064523077, -0.5621836, 0.26170534, 0.23453662, 0.7486415, -2.278023, -5.9724855, 5.9497223, 0
882, 3064556411, -0.5597974, 0.24838722, 0.2287105, 0.7567258, -4.2320776, -5.5170054, 4.9341497, 0
883, 3064573078, -0.55984247, 0.24320723, 0.22847292, 0.7584447, -3.8768566, -3.7787533, 3.5248928, 0
884, 3064589745, -0.55992365, 0.2402, 0.22920072, 0.75912327, -2.7360754, -2.1674151, 2.8229322, 0
886, 3064623079, -0.5584753, 0.23400576, 0.23110041, 0.7615448, 3.0646546, 0.9684287, 2.3161001, 0
887, 3064639746, -0.5574006, 0.23149838, 0.23605374, 0.7615795, 4.3295546, 3.1451964, 1.2545538, 0
888, 3064656413, -0.5561494, 0.22976968, 0.2386727, 0.7622012, 1.898155, 2.5825531, 2.4198408, 0
890, 3064689747, -0.5564717, 0.22696716, 0.2408894, 0.76210827, -1.6027541, 0.36091107, 3.2630415, 0
893, 3064739748, -0.56042415, 0.22681879, 0.2364525, 0.7606443, 1.6177455, -1.7221154, 2.503603, 0
894, 3064756415, -0.5600472, 0.22908089, 0.2343664, 0.7608897, 1.4588927, -0.93727005, 1.6852207, 0
895, 3064773082, -0.5590573, 0.23161405, 0.23131624, 0.76178354, 0.7684566, -1.0245401, 1.308032, 0
897, 3064806416, -0.5581362, 0.2359997, 0.22744207, 0.76227933, 0.6848614, 0.6210594, 0.5953636, 0
898, 3064823083, -0.55875343, 0.237968, 0.22715329, 0.7613008, -0.5040518, 1.6926992, -0.03617382, 0
899, 3064839750, -0.55997986, 0.24043015, 0.22683957, 0.759718, -0.7698986, 1.9188632, -0.4185772, 0
901, 3064873084, -0.5659262, 0.24567175, 0.22640625, 0.7537404, 0.20863219, 0.8556818, -0.7878113, 0
902, 3064889751, -0.5687934, 0.24947062, 0.22517091, 0.7506983, 0.74354666, 0.12383674, -1.1193771, 0
903, 3064906418, -0.57062817, 0.2545156, 0.22377792, 0.7480243, 1.3431184, -0.2547784, -1.1610746, 0
905, 3064939752, -0.5719322, 0.26754946, 0.22397202, 0.7424007, 1.241394, -0.053699322, -1.3254576, 0
906, 3064956419, -0.5721168, 0.2746832, 0.22638899, 0.738912, 1.4425318, 0.10877605, -1.6699133, 0
907, 3064973086, -0.5719533, 0.28086665, 0.23067605, 0.7353797, 1.5215094, 0.6176249, -1.862154, 0
909, 3065006420, -0.5695264, 0.29458082, 0.23733428, 0.72975737, -0.3507613, 0.46930277, -1.3414803, 0
910, 3065023087, -0.5678172, 0.30238914, 0.23932633, 0.72724056, -0.5950052, 0.1653892, -0.35163975, 0
911, 3065039754, -0.56641614, 0.31111434, 0.24098146, 0.7240996, -0.22168651, -0.37758413, -0.14780521, 0
913, 3065073088, -0.56327665, 0.32812363, 0.2457768, 0.7173981, 0.18155757, -0.026262997, -1.2026367, 0
914, 3065089755, -0.56194985, 0.33639953, 0.24809986, 0.71379673, 0.52628416, -0.0929682, -1.4826689, 0
915, 3065106422, -0.5599122, 0.34469146, 0.25065055, 0.71054363, 1.2410045, 0.13383251, -1.6646585, 0
917, 3065139756, -0.5554839, 0.35947475, 0.2580791, 0.7040045, -0.011333839, 0.6825556, -1.1280422, 0
920, 3065189757, -0.5447504, 0.3813951, 0.26764584, 0.6972532, -0.23786445, 0.1614157, -0.38091946, 0
921, 3065206424, -0.5409236, 0.38797483, 0.27043834, 0.69552267, -0.08581976, 0.3726665, -0.08354378, 0
922, 3065223091, -0.5368675, 0.3950611, 0.27246588, 0.69388306, 0.17997739, -0.033551306, -0.27794647, 0
924, 3065256425, -0.52959514, 0.40881068, 0.27782163, 0.6893692, 0.021349287, 0.5592223, -0.8318863, 0
925, 3065273092, -0.52598, 0.41580096, 0.28009725, 0.68703115, -0.26761368, 0.5299051, -0.69299793, 0
926, 3065289759, -0.52228415, 0.4223758, 0.2824582, 0.68487, -0.6224853, 0.47837842, -0.47929192, 0
928, 3065323093, -0.51234293, 0.43574867, 0.28574583, 0.68263376, -1.1597543, 0.506454, 0.39661217, 0
929, 3065339760, -0.50687003, 0.44307005, 0.28605506, 0.68187666, 0.07250325, -0.38938862, 0.3306694, 0
930, 3065356427, -0.5026979, 0.4485659, 0.2872589, 0.6808653, -0.44843483, -0.065553665, 0.45750618, 0
932, 3065389761, -0.49671495, 0.45619556, 0.28912625, 0.67939496, -1.2177846, 0.8414858, 0.581275, 0
934, 3065423095, -0.4937242, 0.4635139, 0.29181987, 0.6754584, -0.78942937, 1.1831119, 0.08024025, 0
936, 3065456429, -0.49262252, 0.47231913, 0.2954966, 0.6685291, 0.63289016, 0.5031899, -0.55201244, 0
937, 3065473096, -0.49111855, 0.47648832, 0.29705137, 0.6659832, 0.20483577, 0.03442111, -0.6603565, 0
938, 3065489763, -0.49141663, 0.47969764, 0.298501, 0.66280353, 0.33756563, 0.48013052, 0.11312771, 0
940, 3065523097, -0.49023563, 0.48634672, 0.29968077, 0.6582849, 0.24885352, 0.15351753, 0.63770866, 0
941, 3065539764, -0.48807853, 0.49013665, 0.29885787, 0.65745044, 0.23241593, -0.02600305, 0.95576096, 0
942, 3065556431, -0.4854737, 0.4934447, 0.29824668, 0.6571821, 0.04130855, 0.07330242, 0.8983612, 0
944, 3065589765, -0.47939554, 0.4990919, 0.2945901, 0.65902615, -0.43180162, 0.14390233, 0.22767448, 0
945, 3065606432, -0.4768347, 0.50152326, 0.29207337, 0.66015744, -0.1994814, 0.1247028, -0.44046307, 0
947, 3065639766, -0.47317624, 0.5044567, 0.2872284, 0.66267574, -0.5936791, 1.1618471, -0.77186775, 0
949, 3065673100, -0.47369397, 0.50638616, 0.2833057, 0.66252273, -0.6229351, 1.4612659, -0.2438879, 0
951, 3065706434, -0.47404104, 0.50776976, 0.28282413, 0.6614204, -0.260357, 0.673739, 0.12943745, 0
952, 3065723101, -0.4734649, 0.50846845, 0.28275824, 0.6613247, -0.12506685, -0.10919077, 0.4319315, 0
953, 3065739768, -0.4724567, 0.5090584, 0.28187555, 0.6619682, 0.35915712, -0.592734, 0.7389364, 0
955, 3065773102, -0.4714356, 0.5086781, 0.2774716, 0.66484284, 0.38857085, -0.31333086, 0.54705334, 0
956, 3065789769, -0.47153994, 0.5082139, 0.274893, 0.6661937, 0.003063692, 0.28513166, 0.54919815, 0
957, 3065806436, -0.4717716, 0.5076367, 0.27241445, 0.66748667, -0.37063596, 0.4208816, 0.6000223, 0
959, 3065839770, -0.47217923, 0.50636226, 0.2688184, 0.66962093, -0.12083658, 0.45668256, 0.36709118, 0
960, 3065856437, -0.47231942, 0.5053323, 0.26720288, 0.6709455, 0.27514127, 0.34305516, -1.1634827E-4, 0
961, 3065873104, -0.4720996, 0.5048947, 0.26572335, 0.6720164, 0.7456363, 0.24745052, -0.3269949, 0
964, 3065923105, -0.4739939, 0.50448996, 0.26262987, 0.67220294, 0.37476987, 0.35333565, -0.32397556, 0
965, 3065939772, -0.47479147, 0.50488937, 0.26191583, 0.67161864, 0.43804297, 0.36478364, 0.13050175, 0
967, 3065973106, -0.47560793, 0.5068589, 0.26051313, 0.67010117, 0.48157206, -0.21788065, 0.082551, 0
968, 3065989773, -0.47666866, 0.5069454, 0.25956863, 0.6696485, -0.0932584, -0.14953889, 0.19886589, 0
970, 3066023107, -0.47909415, 0.5050207, 0.2579136, 0.6700113, -0.11638806, 0.47736958, 0.23124695, 0
971, 3066039774, -0.48006102, 0.5033689, 0.25716, 0.67085147, 0.1293808, 0.67181724, 0.1975851, 0
972, 3066056441, -0.48051387, 0.5021833, 0.25620046, 0.67178226, 0.50777954, 0.73048973, -0.047551155, 0
974, 3066089775, -0.48125035, 0.50066453, 0.25406358, 0.6731986, 0.51063627, 0.23521374, -0.5430107, 0
975, 3066106442, -0.48174828, 0.49942443, 0.25336063, 0.674028, 0.16811273, 0.30129692, -0.48274612, 0
976, 3066123109, -0.482425, 0.49751195, 0.2529446, 0.6751138, 0.22431771, 0.50404763, -0.032740593, 0
978, 3066156443, -0.48427415, 0.49254984, 0.25247318, 0.6776004, -0.088280015, 0.8474108, 0.22380352, 0
979, 3066173110, -0.4850938, 0.4904159, 0.2518667, 0.67878634, 0.15656753, 0.70152336, 0.46480083, 0
980, 3066189777, -0.48578405, 0.48834753, 0.25144333, 0.6799401, 0.37743834, 0.53576076, 0.5394697, 0
982, 3066223111, -0.4865504, 0.48210776, 0.25148457, 0.6838186, 0.44417998, 0.77231663, 0.62849426, 0
983, 3066239778, -0.4877428, 0.47670266, 0.2516715, 0.68668395, 0.26022038, 0.7597833, 0.6870909, 0
984, 3066256445, -0.49018723, 0.46972933, 0.25174043, 0.68971664, 0.30045277, 1.3372612, 0.13089085, 0
986, 3066289779, -0.4945358, 0.45668703, 0.24883112, 0.69639504, 1.0040447, 0.8100314, -0.34996796, 0
987, 3066306446, -0.49505448, 0.45217222, 0.24648823, 0.69979763, 0.73156327, -0.22663163, -0.8625927, 0
988, 3066323113, -0.49772918, 0.44488505, 0.24418126, 0.70337045, 0.52858293, -0.59259087, -0.56536674, 0
991, 3066373114, -0.51424885, 0.40883735, 0.23685488, 0.7157595, 1.2482349, 1.3303038, -2.7746158, 0
992, 3066389781, -0.5193762, 0.39807045, 0.23392442, 0.7190822, 0.16139156, 0.59645665, -2.265727, 0
994, 3066423115, -0.5320797, 0.37449393, 0.23006183, 0.7236911, -1.1378523, -1.253713, -2.5869246, 0
995, 3066439782, -0.53979784, 0.36028364, 0.22788131, 0.7258759, -0.5134066, 0.061315022, -3.6892767, 0
996, 3066456449, -0.5468567, 0.34587216, 0.22457384, 0.72862774, -0.874732, 0.33985898, -4.1241517, 0
998, 3066489783, -0.55827975, 0.31678092, 0.22329417, 0.7335699, -3.0509987, 0.051483415, -6.5380526, 0
999, 3066506450, -0.5622734, 0.3030384, 0.22468969, 0.73589575, -3.1795294, 0.57950646, -5.1856146, 0
1001, 3066539784, -0.564578, 0.2796682, 0.22483155, 0.7433033, -2.3020399, -3.3241866, 1.7898417, 0
1002, 3066556451, -0.56460744, 0.2672991, 0.2261563, 0.7474187, -0.5788609, -6.6161447, 5.700879, 0
1003, 3066573118, -0.5640181, 0.2558266, 0.22628006, 0.751828, 0.04393818, -6.915419, 5.7085733, 0
1006, 3066623119, -0.553028, 0.2299009, 0.23546684, 0.7654233, -4.8853173, -2.3211658, 2.7459955, 0
1007, 3066639786, -0.5534822, 0.22381425, 0.23593442, 0.7667537, -2.0958145, -2.0308387, 3.6510983, 0
1009, 3066673120, -0.55312604, 0.2195254, 0.24322644, 0.7659717, 6.2713175, 3.772044, 3.7959814, 0
1010, 3066689787, -0.5532446, 0.22045946, 0.2457115, 0.7648238, 5.512781, 5.586574, 2.7330027, 0
1011, 3066706454, -0.5529316, 0.21979627, 0.24624318, 0.76506996, 1.0291256, 3.252776, 2.381116, 0
1013, 3066739788, -0.5560608, 0.2154151, 0.24788252, 0.7635172, -2.6042044, -0.63334364, 3.1812572, 0
1014, 3066756455, -0.5617274, 0.21609095, 0.24539378, 0.7599739, 0.3981039, -1.7823882, 2.6018105, 0
1015, 3066773122, -0.56504834, 0.21902663, 0.24276814, 0.75751096, 2.1733735, -2.129111, 1.5256062, 0
1017, 3066806456, -0.56587875, 0.2245023, 0.24123669, 0.75577545, 2.765369, -1.6928849, 0.83812904, 0
1018, 3066823123, -0.5638205, 0.22750613, 0.24102518, 0.7564826, 1.6312327, -0.45326862, 0.34797192, 0
1021, 3066873124, -0.55327356, 0.23977673, 0.23666322, 0.7618384, 1.4148754, 0.18129349, -0.46243, 0
1022, 3066889791, -0.54904765, 0.24532995, 0.23571032, 0.7634214, 1.156739, 0.69772005, -1.2089281, 0
1023, 3066906458, -0.5447802, 0.25159448, 0.23493028, 0.76467913, 0.44625172, 1.2136333, -1.6468534, 0
1025, 3066939792, -0.5368682, 0.26577523, 0.23248397, 0.766224, -0.77138233, 0.8285255, -1.7415895, 0
1026, 3066956459, -0.53399074, 0.27438173, 0.23009863, 0.76592106, -0.1477891, 0.61808604, -1.5512114, 0
1028, 3066989793, -0.52754116, 0.2921788, 0.22751924, 0.76457745, 0.14959605, 0.6384988, -1.1666946, 0
1029, 3067006460, -0.5245329, 0.30070496, 0.22804484, 0.76318336, -0.25924194, 0.7060805, -1.1343298, 0
1030, 3067023127, -0.5199887, 0.31111136, 0.22794366, 0.7621515, 0.7035185, 0.3589921, -1.5268164, 0
1032, 3067056461, -0.5134967, 0.32919648, 0.22902542, 0.7586236, -0.0264272, 0.14606366, -0.90542793, 0
1033, 3067073128, -0.5098342, 0.3387955, 0.2285874, 0.756998, 0.45660183, -0.31966007, -0.94406414, 0
1036, 3067123129, -0.49551103, 0.366993, 0.23308647, 0.75197554, -0.511077, 0.053297, -0.5757551, 0
1037, 3067139796, -0.49119532, 0.37580487, 0.23609842, 0.74951124, -0.13038237, 0.16435444, -0.60065556, 0
1038, 3067156463, -0.4870739, 0.38438603, 0.23951636, 0.7467595, -0.55164474, 0.55919546, -0.605196, 0
1040, 3067189797, -0.4813708, 0.40086988, 0.24585646, 0.739697, -0.29094464, 0.6997694, -0.3612709, 0
1041, 3067206464, -0.47980112, 0.40809894, 0.24884772, 0.735753, -0.5775386, 0.5972357, -0.10709953, 0
1042, 3067223131, -0.47734967, 0.41562983, 0.25082314, 0.7324538, 0.19336617, -0.29101074, -0.19162941, 0
1044, 3067256465, -0.47247517, 0.4291815, 0.25580162, 0.7260493, -0.10361703, -0.9316715, -0.45061684, 0
1045, 3067273132, -0.47134328, 0.4345169, 0.25836807, 0.7226951, -0.09283502, -0.58993214, -0.3549986, 0
1046, 3067289799, -0.47078162, 0.43862718, 0.26092696, 0.7196523, -0.20070684, -0.14762516, -0.5819864, 0
1048, 3067323133, -0.47246963, 0.4441123, 0.26713416, 0.712873, -0.31017345, 1.3575811, -0.38846207, 0
1049, 3067339800, -0.4749754, 0.44589385, 0.27111268, 0.7085805, -0.44171268, 2.0726397, 0.07297993, 0
1050, 3067356467, -0.47767097, 0.44856647, 0.27512616, 0.7035167, 0.21106887, 1.7399094, 0.17645836, 0
1052, 3067389801, -0.48139656, 0.4561024, 0.28167045, 0.6934704, 0.7700199, 0.737803, 0.058919907, 0
1053, 3067406468, -0.48341483, 0.4600942, 0.2845966, 0.6882149, 1.8768207, 0.26163253, -1.0174894, 0
1055, 3067439802, -0.48614347, 0.46614203, 0.2886242, 0.68050283, 1.124743, -0.7846822, -0.68288326, 0
1056, 3067456469, -0.48588967, 0.469028, 0.28905785, 0.6785138, 0.98284256, -0.9745528, -0.11346626, 0
1057, 3067473136, -0.48459485, 0.47094858, 0.28963974, 0.677861, 0.4752339, -0.80434936, 0.8203058, 0
1059, 3067506470, -0.47903654, 0.47535756, 0.29212463, 0.67766786, -0.23471873, -0.09978334, 1.1187162, 0
1060, 3067523137, -0.476045, 0.47844896, 0.2921233, 0.677601, -0.08874968, 0.105094224, 1.0250454, 0
1063, 3067573138, -0.4694454, 0.4872178, 0.29004657, 0.6768488, 0.45878002, 0.8735579, -0.9371433, 0
1064, 3067589805, -0.4690979, 0.4888444, 0.28921494, 0.6762725, -0.3682591, 0.90819347, -0.029128075, 0
1065, 3067606472, -0.46992487, 0.49056506, 0.28864554, 0.67469376, -0.14008565, 1.3515877, -0.47616482, 0
1067, 3067639806, -0.47116575, 0.49398726, 0.28903383, 0.671156, -0.16022113, 1.2499167, 0.20024967, 0
1068, 3067656473, -0.47081476, 0.49572825, 0.2900264, 0.6696887, -0.12745005, 0.75100756, 0.44829273, 0
1069, 3067673140, -0.46970585, 0.4980091, 0.29094043, 0.6683775, 0.04943844, 0.4357365, 0.41092777, 0
1071, 3067706474, -0.46728653, 0.50159574, 0.29241687, 0.6667451, 0.34282812, -0.71065986, 0.1718998, 0
1072, 3067723141, -0.46702933, 0.5025112, 0.29213226, 0.66636074, 0.094227254, -0.44640476, 0.21985054, 0
1073, 3067739808, -0.46698308, 0.5035689, 0.29102236, 0.66608024, -0.24560475, -0.002682826, 0.14970684, 0
1075, 3067773142, -0.46785206, 0.5051866, 0.28847638, 0.6653525, -0.6870237, 0.30840755, 0.29638386, 0
1077, 3067806476, -0.4660551, 0.5067124, 0.28811496, 0.6656098, -0.9196093, 0.10882354, 0.25181007, 0
1079, 3067839810, -0.46486956, 0.5088463, 0.28849614, 0.66464525, 0.50697654, -0.17107178, -0.74041367, 0
1080, 3067856477, -0.46559018, 0.5087827, 0.2885234, 0.6641776, -0.27557924, 0.14529449, -0.2623787, 0
1082, 3067889811, -0.46775964, 0.5087655, 0.2890745, 0.66242445, -0.13038668, 0.5221315, -0.27497482, 0
1083, 3067906478, -0.4683355, 0.50910145, 0.29004192, 0.6613357, 0.119240865, 0.359403, -0.3175459, 0
1084, 3067923145, -0.4690523, 0.5090773, 0.291279, 0.6603016, 0.09171239, 0.15121925, -0.59107304, 0
1086, 3067956479, -0.47130796, 0.5076483, 0.29401043, 0.6585828, 0.37011957, 0.5845019, -0.06099701, 0
1087, 3067973146, -0.47197986, 0.5073824, 0.2954793, 0.6576485, 0.64659333, 0.597215, 0.28511333, 0
1088, 3067989813, -0.47215903, 0.5077333, 0.29718536, 0.65647936, 0.72471625, 0.20964476, 0.583992, 0
1090, 3068023147, -0.47336137, 0.507327, 0.30096138, 0.6542033, -0.03975988, 0.004389571, 0.7236738, 0
1092, 3068056481, -0.47557098, 0.5046741, 0.30281436, 0.65379775, 0.008526516, 0.49699882, 1.4324055, 0
1094, 3068089815, -0.4768666, 0.50149184, 0.30107445, 0.65610206, 0.90836656, 0.38502464, 0.7876663, 0
1095, 3068106482, -0.4775182, 0.4993303, 0.29958373, 0.6579565, 0.8848265, 0.35284504, 0.306736, 0
1096, 3068123149, -0.4784862, 0.49663734, 0.2977641, 0.660114, 0.66349137, 0.50565803, -0.15711212, 0
1098, 3068156483, -0.48162138, 0.48790038, 0.29399136, 0.666014, 0.16956218, 1.4090618, -0.2688036, 0
1099, 3068173150, -0.48277974, 0.48251504, 0.29199684, 0.6699647, 0.3743527, 1.4779919, -0.44680595, 0
1100, 3068189817, -0.48443615, 0.4762921, 0.28978205, 0.67417, 0.31496307, 1.3827171, -0.5626888, 0
1102, 3068223151, -0.49018165, 0.46419844, 0.28368652, 0.68101066, 0.7312373, 0.7078847, -0.9802494, 0
1103, 3068239818, -0.4941014, 0.45715278, 0.27984157, 0.6845257, 0.7555234, 1.0210532, -1.2289972, 0
1105, 3068273152, -0.50459033, 0.43842873, 0.27025506, 0.6929233, 0.28745046, 0.45433563, -2.356607, 0
1107, 3068306486, -0.5155462, 0.4185896, 0.25881213, 0.7014433, 0.25343645, -0.5434322, -2.422358, 0
1109, 3068339820, -0.52532476, 0.3952418, 0.24560101, 0.71239704, -0.31239736, -0.13082772, -3.7288327, 0
1110, 3068356487, -0.52884513, 0.38114747, 0.24024293, 0.71926665, -1.5811708, -0.31961703, -3.7317805, 0
1111, 3068373154, -0.53250134, 0.36617357, 0.23758566, 0.7252062, -2.302183, 0.22253765, -4.490862, 0
1113, 3068406488, -0.54287434, 0.33049083, 0.24282585, 0.7328782, -6.024555, 1.0739808, -5.074559, 0
1114, 3068423155, -0.5456849, 0.3130958, 0.24722111, 0.7369479, -4.5227246, 2.0088344, -1.1628704, 0
1115, 3068439822, -0.54954976, 0.30001932, 0.24613312, 0.739874, -3.5928044, -0.35034785, 2.4905376, 0
1117, 3068473156, -0.55846584, 0.2786029, 0.23580557, 0.74491864, 0.015087237, -8.778661, 6.1749716, 0
1118, 3068489823, -0.56062096, 0.2673774, 0.23282236, 0.7483441, 1.0823543, -9.0147, 5.2776003, 0
1119, 3068506490, -0.5610193, 0.25229692, 0.2378043, 0.7517075, -1.4362949, -4.7057676, 3.3564072, 0
1121, 3068539824, -0.5647818, 0.23637, 0.24381962, 0.75214, -0.3690728, -0.031099929, 3.45082, 0
1122, 3068556491, -0.5668407, 0.23641455, 0.2443293, 0.7504095, 4.638176, 1.3804051, 1.9646854, 0
1123, 3068573158, -0.56655455, 0.23769502, 0.24738024, 0.74922067, 5.9980783, 2.615592, 1.0642939, 0
1125, 3068606492, -0.56240284, 0.23699269, 0.25318056, 0.7506323, -0.08054144, 0.5066538, 3.8430557, 0
1126, 3068623159, -0.56046635, 0.23597965, 0.2553485, 0.75166464, -3.2976205, -0.2420509, 4.90133, 0
1127, 3068639826, -0.56060076, 0.23647916, 0.2563892, 0.751053, -0.9835642, -0.21651085, 3.400836, 0
1129, 3068673160, -0.5619618, 0.23904675, 0.2542891, 0.7499363, 1.1931199, -1.657724, 2.5245829, 0
1130, 3068689827, -0.56155145, 0.24137694, 0.25221974, 0.7501959, 1.708038, -2.1642668, 2.3316002, 0
1131, 3068706494, -0.56047475, 0.24453586, 0.25086063, 0.7504337, 2.5557187, -0.93340015, 1.1956797, 0
1134, 3068756495, -0.5499791, 0.2555058, 0.24467935, 0.75656027, 0.8987141, 0.4578413, -0.36844063, 0
1136, 3068789829, -0.5412705, 0.2667754, 0.24196884, 0.7598156, -0.42837968, 1.0617114, -2.0875053, 0
1137, 3068806496, -0.5375456, 0.2735703, 0.24053688, 0.7604982, -0.3950832, 0.92707723, -1.423192, 0
1138, 3068823163, -0.53495634, 0.2810027, 0.23925453, 0.7600186, -0.53210485, 0.8357553, -1.2205095, 0
1140, 3068856497, -0.5298289, 0.29838312, 0.23419948, 0.75855845, -0.418389, 0.8034917, -1.4680767, 0
1141, 3068873164, -0.5270543, 0.30752367, 0.23120308, 0.75775963, -0.2207866, 0.30814123, -1.5224094, 0
1142, 3068889831, -0.5247389, 0.31604052, 0.22913358, 0.75648993, -0.47410813, 0.16393378, -1.3779974, 0
1144, 3068923165, -0.5221521, 0.33137003, 0.2297075, 0.75153005, -0.4145607, 0.42859352, -1.3305702, 0
1145, 3068939832, -0.52029043, 0.33950293, 0.23034936, 0.7489903, 0.73941654, 0.226772, -1.2901974, 0
1146, 3068956499, -0.5201846, 0.34530276, 0.23294726, 0.7456013, -0.21936114, 1.2450775, -0.6587124, 0
1149, 3069006500, -0.5127236, 0.37023866, 0.23252274, 0.73890656, 0.025242323, -0.4581677, -1.2823095, 0
1150, 3069023167, -0.5099552, 0.37832668, 0.23363031, 0.73637146, 0.20123138, -1.0452065, -1.2139997, 0
1152, 3069056501, -0.5069978, 0.3909993, 0.23953143, 0.72986937, 0.13930045, 0.18286735, -0.9703531, 0
1153, 3069073168, -0.50648665, 0.39631733, 0.2434439, 0.7260513, -0.17961384, 0.8981248, -0.76954746, 0
1154, 3069089835, -0.50629103, 0.4017684, 0.24737456, 0.7218511, -0.4137615, 1.6790127, -0.5387821, 0
1156, 3069123169, -0.5041431, 0.41475698, 0.25358334, 0.71380913, -0.2450462, 1.030983, 0.25372982, 0
1157, 3069139836, -0.5037926, 0.4209545, 0.25636116, 0.7094229, -0.34757996, 0.6254316, 0.328557, 0
1158, 3069156503, -0.5041961, 0.4263588, 0.2592026, 0.7048617, 0.33497915, 0.031578694, 0.38894463, 0
1160, 3069189837, -0.5058005, 0.4357194, 0.26484597, 0.69583255, 0.6553443, 0.014234311, -0.018471718, 0
1161, 3069206504, -0.50718784, 0.43988264, 0.2671277, 0.6913163, 0.56658995, 0.23989892, 0.104192734, 0
1164, 3069256505, -0.5102686, 0.44983026, 0.2725247, 0.6804561, 0.47219715, 0.99170387, -0.15009117, 0
1165, 3069273172, -0.51089776, 0.45251292, 0.27458313, 0.67737085, 0.8577383, 0.77552533, -0.5885172, 0
1167, 3069306506, -0.5114167, 0.45722866, 0.27891022, 0.6720234, 1.129131, -0.57236373, -0.10842991, 0
1168, 3069323173, -0.51099825, 0.4604105, 0.28016603, 0.6696427, 0.77565515, -0.7223618, -0.3177824, 0
1169, 3069339840, -0.51007414, 0.46357545, 0.28028464, 0.66811246, 1.1196828, -1.088926, -0.51228714, 0
1171, 3069373174, -0.50905085, 0.4660154, 0.2799416, 0.66733897, 0.021339787, -0.018469434, 0.0012521744, 0
1172, 3069389841, -0.5078295, 0.46638888, 0.27995822, 0.66800123, -0.2927251, 0.36650604, 0.45363808, 0
1173, 3069406508, -0.505601, 0.46776992, 0.28029507, 0.66858435, -0.0653938, 0.41429064, 0.8968134, 0
1175, 3069439842, -0.49929303, 0.47320098, 0.27912998, 0.669989, 0.52249795, -0.47416708, 0.16850281, 0
1176, 3069456509, -0.49608016, 0.47593775, 0.27747905, 0.6711221, 0.3921997, -0.50696886, 0.13028336, 0
1179, 3069506510, -0.49014562, 0.48203167, 0.27352548, 0.67275393, -0.3865233, 0.4807081, -0.19794369, 0
1180, 3069523177, -0.4897012, 0.4832553, 0.2731883, 0.67233676, -0.67621815, 0.9175313, 0.3179121, 0
1181, 3069539844, -0.48971406, 0.4845538, 0.27344945, 0.671286, -0.5325659, 0.93147147, -0.09342575, 0
1183, 3069573178, -0.49046654, 0.48656633, 0.27454528, 0.6688291, -0.30780935, 0.27264714, 0.059310913, 0
1184, 3069589845, -0.4913351, 0.48724017, 0.27548838, 0.6673113, 0.26760787, 0.13863894, -0.1093874, 0
1185, 3069606512, -0.4923755, 0.48762575, 0.27651286, 0.66583776, 0.26715386, 0.16228561, 0.11466789, 0
1187, 3069639846, -0.49451905, 0.48770916, 0.27867067, 0.6632835, 0.1809281, 0.2590506, 0.08597946, 0
1188, 3069656513, -0.4959635, 0.48725888, 0.27971455, 0.6620954, 0.20145133, 0.32869783, 0.008319855, 0
1190, 3069689847, -0.49936175, 0.48530424, 0.28120777, 0.6603418, 0.53178835, -0.036831696, 0.48399448, 0
1191, 3069706514, -0.50108945, 0.48429316, 0.28206038, 0.6594112, 0.4732218, -0.12584807, 0.563612, 0
1192, 3069723181, -0.50263125, 0.4835757, 0.28294986, 0.6583825, 0.37268293, -0.061247915, 0.42461586, 0
1194, 3069756515, -0.50623834, 0.48134422, 0.28501034, 0.6563622, 0.39322203, -0.105682515, 0.04596424, 0
1195, 3069773182, -0.5083957, 0.47980767, 0.28599954, 0.6553887, 0.43018615, -0.07025113, -0.01613903, 0
1196, 3069789849, -0.5106163, 0.47812942, 0.2867244, 0.6545717, 0.6812265, 0.24035744, -0.017394066, 0
1198, 3069823183, -0.51359767, 0.47595042, 0.28751296, 0.6534804, 0.89251375, 0.23055351, -0.44118404, 0
1199, 3069839850, -0.51441467, 0.47541475, 0.2877522, 0.65312237, 0.84139544, -0.06941709, -0.7298784, 0
1200, 3069856517, -0.51475066, 0.4751867, 0.28753626, 0.65311855, 0.8600973, -0.12469095, -0.9496536, 0
1202, 3069889851, -0.51493067, 0.473292, 0.28726298, 0.65447116, 0.331425, 0.23916434, 0.1043272, 0
1203, 3069906518, -0.514324, 0.47215754, 0.28761137, 0.6556139, 0.34359992, 0.5741724, 0.6710882, 0
1206, 3069956519, -0.50929236, 0.47179773, 0.2872382, 0.65995014, 0.20611627, -0.42226538, 0.73759174, 0
1207, 3069973186, -0.50813794, 0.47154176, 0.28596595, 0.6615732, -0.059184276, -0.16323408, 0.6514168, 0
1208, 3069989853, -0.5068985, 0.47148317, 0.28394547, 0.6634337, -0.02684424, -0.13813648, 0.36493397, 0
1210, 3070023187, -0.5043577, 0.47188273, 0.278072, 0.66756094, -0.04861155, -0.15013298, -0.43213844, 0
1211, 3070039854, -0.5032326, 0.4726645, 0.27496067, 0.66914386, -0.33965006, -0.2865788, -0.7157669, 0
1212, 3070056521, -0.50205326, 0.4735393, 0.27179775, 0.67070156, -0.51706004, -0.29003453, -0.66762924, 0
1214, 3070089855, -0.5002701, 0.47308302, 0.26758546, 0.67404145, -0.78139335, 0.5187624, -0.08227348, 0
1215, 3070106522, -0.49914914, 0.47234833, 0.2661659, 0.6759472, -0.44514784, 0.8322791, -0.15430355, 0
1217, 3070139856, -0.49704903, 0.4717943, 0.26468378, 0.6784588, -0.27062982, 0.6467381, -0.43314838, 0
1218, 3070156523, -0.49635988, 0.47213176, 0.26450348, 0.678799, -0.26928282, 0.34270504, -0.5730696, 0
1221, 3070206524, -0.49596155, 0.47125718, 0.26413843, 0.67983913, -0.18406287, 0.3306092, 0.19494534, 0
1222, 3070223191, -0.49575067, 0.47027206, 0.26420295, 0.68064946, -0.21153171, 0.6603997, 0.6144409, 0
1223, 3070239858, -0.49538827, 0.4695093, 0.2646575, 0.6812631, -0.29433253, 0.8842792, 0.83632755, 0
1225, 3070273192, -0.49382907, 0.46942836, 0.26612857, 0.6818775, 0.010570263, 0.32426143, 0.55842876, 0
1226, 3070289859, -0.49297193, 0.46937189, 0.26651055, 0.68238723, 0.28378686, 0.28409973, 0.20632076, 0
1227, 3070306526, -0.4922511, 0.46901125, 0.2657038, 0.6834695, 0.7937108, 0.23001371, -0.028271675, 0
1229, 3070339860, -0.49229038, 0.46696842, 0.26337734, 0.6857366, 0.45348397, 1.1208351, -0.26302052, 0
1230, 3070356527, -0.4930454, 0.46555683, 0.26255554, 0.68646866, 0.47392592, 1.5259156, -0.26568985, 0
1231, 3070373194, -0.49387074, 0.46384424, 0.2630331, 0.68685186, -0.029179448, 1.8212574, -0.05837059, 0
1233, 3070406528, -0.4957928, 0.4600823, 0.2646451, 0.68737787, 0.34957114, 1.4892999, -0.18640232, 0
1235, 3070439862, -0.4986567, 0.45400655, 0.2636924, 0.6897082, 0.7519923, 1.0873907, -0.19013882, 0
1237, 3070473196, -0.5019986, 0.44392228, 0.25983053, 0.6952914, -0.67075825, 0.11201911, -0.100001335, 0
1238, 3070489863, -0.50602823, 0.43489662, 0.25703835, 0.6991017, -0.21767524, 0.5291686, -0.39108753, 0
1239, 3070506530, -0.51038235, 0.42461818, 0.25432387, 0.7032355, 0.69947994, 1.0505666, -1.1945915, 0
1241, 3070539864, -0.5215622, 0.40077403, 0.24936453, 0.71076155, 0.586765, 0.5902836, -1.433219, 0
1242, 3070556531, -0.5282546, 0.38822407, 0.24702525, 0.7135961, 0.3662231, -0.4895182, -1.9074984, 0
1244, 3070589865, -0.5410286, 0.36614275, 0.23833519, 0.71863437, 0.24463019, -0.7763594, -1.6017675, 0
1245, 3070606532, -0.5453532, 0.3567274, 0.23167491, 0.7222699, 0.5301629, -0.45350713, -1.9351935, 0
1246, 3070623199, -0.5485466, 0.34660318, 0.22396347, 0.72719646, 0.4900023, -1.3171687, -1.6379948, 0
1248, 3070656533, -0.5506836, 0.31949654, 0.21130137, 0.74164206, -0.9881707, -0.085016504, -2.526276, 0
1250, 3070689867, -0.5489301, 0.29340574, 0.19860554, 0.75707066, -2.1362572, 0.023650913, -4.052522, 0
1252, 3070723201, -0.54630625, 0.26769257, 0.19305721, 0.76982516, -4.3002024, -0.4989083, -1.7158499, 0
1253, 3070739868, -0.5447053, 0.25794354, 0.1935682, 0.7741474, -3.7113721, 0.4588512, 3.4142303, 0
1254, 3070756535, -0.5444118, 0.25274265, 0.19166839, 0.7765383, -3.53665, -1.3042569, 6.7016563, 0
1256, 3070789869, -0.5435253, 0.2448643, 0.18408501, 0.7815025, -2.2587466, -7.0912657, 6.836891, 0
1257, 3070806536, -0.54092747, 0.23748901, 0.182887, 0.78585005, -3.6576312, -6.473701, 4.6913137, 0
1258, 3070823203, -0.54004455, 0.22850867, 0.18709807, 0.7881253, -5.5744734, -3.4923475, 1.6271143, 0
1260, 3070856537, -0.55019623, 0.21826819, 0.1944982, 0.7821925, -2.2713223, -1.1932583, 1.7613983, 0
1261, 3070873204, -0.5551231, 0.21878257, 0.1968326, 0.77797246, 2.3670106, 1.415989, 1.8563385, 0
1262, 3070889871, -0.55829644, 0.22564186, 0.19610487, 0.7739156, 6.009247, 4.36264, 1.2210932, 0
1264, 3070923205, -0.5535197, 0.23690373, 0.19507946, 0.77424026, 5.1278505, -0.33395395, 0.24847317, 0
1265, 3070939872, -0.55365694, 0.2338652, 0.19944288, 0.77395415, 0.7637273, -0.5741444, 2.3863306, 0
1266, 3070956539, -0.5516274, 0.23344912, 0.20263845, 0.77469873, -3.7112086, -0.52136755, 4.549473, 0
1268, 3070989873, -0.54589117, 0.24321917, 0.20378956, 0.7754538, 0.42665398, -0.16521654, 1.1903753, 0
1269, 3071006540, -0.5441345, 0.24828571, 0.2040829, 0.77500546, 0.78409606, -0.15514347, 0.5028887, 0
1271, 3071039874, -0.5394754, 0.25710037, 0.20435768, 0.77531636, 0.9669896, -0.34961605, 0.40736294, 0
1272, 3071056541, -0.53677034, 0.2605022, 0.20569497, 0.7757045, 0.7474112, 0.26362902, -0.58473396, 0
1273, 3071073208, -0.5353055, 0.2640373, 0.20649296, 0.77530926, 0.41177982, 1.1143193, -0.8172865, 0
1275, 3071106542, -0.53366756, 0.27484456, 0.20672199, 0.77261704, 0.4458106, 1.9100405, -2.3224673, 0
1277, 3071139876, -0.5317929, 0.2878416, 0.20201299, 0.77041936, 0.7667803, 1.0423203, -2.1512656, 0
1279, 3071173210, -0.528453, 0.30008295, 0.20159265, 0.76815337, 0.7594444, 0.5592556, -1.8387747, 0
1280, 3071189877, -0.5255548, 0.30771807, 0.20130086, 0.76719725, 0.95399654, 0.64590526, -2.3826814, 0
1281, 3071206544, -0.52327675, 0.31429067, 0.20313172, 0.7656056, 0.9939096, 1.007737, -1.6764135, 0
1283, 3071239878, -0.5199345, 0.32737103, 0.20777243, 0.7611429, 0.79298574, 1.3293489, -1.0066175, 0
1284, 3071256545, -0.51811874, 0.3343124, 0.20975374, 0.75881684, 0.85831743, 1.3180978, -0.66056156, 0
1285, 3071273212, -0.5159136, 0.34200412, 0.21167761, 0.7563535, 0.35835135, 1.1578052, -0.8903284, 0
1287, 3071306546, -0.5118039, 0.35805893, 0.21482506, 0.7508079, 0.29738468, 0.16186932, -0.58287907, 0
1288, 3071323213, -0.50942355, 0.36602685, 0.21727535, 0.7478736, 0.35337746, -0.1409086, -0.5608902, 0
1289, 3071339880, -0.506963, 0.37417385, 0.22013828, 0.74466985, 0.5934734, -0.066598035, -0.5101547, 0
1292, 3071389881, -0.5016483, 0.39657494, 0.23224707, 0.7329054, -0.34266856, 1.0210276, -0.35973072, 0
1293, 3071406548, -0.49848968, 0.40403163, 0.23665008, 0.72957176, -0.34075537, 0.1488137, -0.37286854, 0
1295, 3071439882, -0.49360406, 0.41659456, 0.24409196, 0.72334963, 0.022392198, 0.20337075, 0.02230072, 0
1296, 3071456549, -0.4912679, 0.42103755, 0.24738517, 0.7212458, 0.4812809, -0.67666554, 0.7018595, 0
1298, 3071489883, -0.48711684, 0.43026337, 0.25495064, 0.71596277, 0.13202438, -0.40253845, 0.67648125, 0
1299, 3071506550, -0.4866994, 0.43507817, 0.2571534, 0.7125408, -0.26930043, 0.23834819, 0.7904644, 0
1300, 3071523217, -0.4861943, 0.43961492, 0.2591812, 0.7093593, -0.17564, 0.03620351, 0.69964695, 0
1302, 3071556551, -0.4848702, 0.44676435, 0.26124948, 0.70502687, 0.33781132, 0.23519799, -0.3608694, 0
1303, 3071573218, -0.48384345, 0.45016024, 0.26112854, 0.7036154, 0.4512688, -0.18850826, -0.49993515, 0
1304, 3071589885, -0.48316, 0.4532311, 0.26140624, 0.70200884, 0.27998507, -0.103467725, -0.010475159, 0
1307, 3071639886, -0.47923383, 0.45976138, 0.26199347, 0.7002325, -0.71179277, 0.6610474, 0.9564047, 0
1308, 3071656553, -0.47806844, 0.46135738, 0.2635764, 0.6993847, -0.47168213, 0.8879698, 1.6311579, 0
1310, 3071689887, -0.47517222, 0.46799752, 0.26156962, 0.6976981, 0.91100794, 0.04480809, 0.2326622, 0
1311, 3071706554, -0.47296244, 0.47262084, 0.25974262, 0.6967651, 1.0694607, -0.24535163, -0.8715534, 0
1312, 3071723221, -0.47109482, 0.47732052, 0.25733954, 0.69571733, 1.3314497, -0.50260764, -1.9394336, 0
1314, 3071756555, -0.47111976, 0.48255676, 0.25350326, 0.6934931, 0.30941236, 1.0613513, -1.7396603, 0
1315, 3071773222, -0.47255588, 0.48320928, 0.25321594, 0.6921654, -0.6849329, 1.8464401, -0.9234762, 0
1316, 3071789889, -0.47317418, 0.48428294, 0.25472206, 0.6904379, -1.4027054, 2.063494, 0.6240063, 0
1318, 3071823223, -0.46969044, 0.4897431, 0.25744343, 0.68795127, -0.43213922, -0.19680248, 1.4337521, 0
1319, 3071839890, -0.46763209, 0.49173665, 0.2593053, 0.68723184, 0.013003117, -1.0924742, 0.7234268, 0
1322, 3071889891, -0.46817663, 0.49416107, 0.26017058, 0.68479085, -0.6252952, -0.0255729, 1.0623178, 0
1323, 3071906558, -0.46941712, 0.4949413, 0.2602268, 0.68335515, -0.7252301, 0.6377142, 0.898015, 0
1325, 3071939892, -0.4713385, 0.49684247, 0.2608295, 0.6804168, -0.1408672, 0.36594245, 0.49682903, 0
1326, 3071956559, -0.47203663, 0.49763584, 0.26292008, 0.67854595, -0.11910673, 0.039714787, 0.5059643, 0
1327, 3071973226, -0.47249067, 0.4986595, 0.26432487, 0.6769306, 0.13850757, -0.77226573, 0.49778652, 0
1329, 3072006560, -0.4741634, 0.4988304, 0.264888, 0.67541313, 0.48441848, -0.35844722, -0.12747669, 0
1330, 3072023227, -0.4762238, 0.49807653, 0.26387239, 0.6749177, 0.4542629, 0.28118423, -0.8017006, 0
1331, 3072039894, -0.47927648, 0.49705702, 0.2633198, 0.673723, 0.07241831, 1.1057085, -1.0967627, 0
1333, 3072073228, -0.48321402, 0.4967364, 0.2630564, 0.6712451, 0.3736038, 0.45420504, -1.0790796, 0
1334, 3072089895, -0.48437935, 0.4967027, 0.26306376, 0.6704268, 0.77934086, -0.2802174, -1.004653, 0
1335, 3072106562, -0.48586437, 0.49585825, 0.26294777, 0.6700227, 1.133755, -0.4486629, -0.8381176, 0
1337, 3072139896, -0.48985913, 0.49272606, 0.2632705, 0.6692977, 0.47816104, 0.83511484, -0.038327217, 0
1338, 3072156563, -0.49125782, 0.49153706, 0.26393664, 0.6688843, 0.3014016, 0.8926212, 0.32755375, 0
1339, 3072173230, -0.49213892, 0.4903098, 0.265374, 0.6685686, 0.34182763, 0.7872846, 0.86514664, 0
1341, 3072206564, -0.49166796, 0.48731077, 0.26783562, 0.6701243, 0.73530716, -0.38365617, 1.6802473, 0
1342, 3072223231, -0.4909013, 0.48598793, 0.26764384, 0.67172164, 1.0963523, -0.47653767, 0.6517029, 0
1343, 3072239898, -0.49055305, 0.48470706, 0.26673502, 0.6732613, 1.2425789, -0.9312769, 0.14891529, 0
1345, 3072273232, -0.49096304, 0.48243272, 0.262151, 0.6763892, 0.3506388, -0.89510673, 0.48929596, 0
1346, 3072289899, -0.4911989, 0.48097536, 0.2592675, 0.67836446, 0.009946299, -0.635739, 0.40313244, 0
1349, 3072339900, -0.49293303, 0.4686704, 0.25404382, 0.68763256, -0.46708396, 1.1527873, -0.721817, 0
1350, 3072356567, -0.4933273, 0.4648249, 0.25207815, 0.69067657, -0.08596571, 0.63995636, -1.4663105, 0
1352, 3072389901, -0.49545842, 0.45391154, 0.24826396, 0.6977549, 0.56762064, 0.51032746, -1.3945885, 0
1353, 3072406568, -0.4969929, 0.44703892, 0.24805622, 0.70116633, 0.09769483, 0.77010036, -1.442522, 0
1354, 3072423235, -0.49999976, 0.4386372, 0.24836688, 0.70421815, 0.15327552, 1.1706989, -0.92233944, 0
1356, 3072456569, -0.50921637, 0.42099893, 0.24735439, 0.70872134, -0.11668751, 1.0515462, -0.8219423, 0
1357, 3072473236, -0.512983, 0.41292965, 0.2454699, 0.7114026, 0.056319732, 0.94915146, -0.92274, 0
1358, 3072489903, -0.51777065, 0.40319243, 0.24219643, 0.71463436, 0.29628983, 0.45521396, -0.6626167, 0
1360, 3072523237, -0.52711815, 0.38307643, 0.23272896, 0.7219749, 1.2731656, 0.60517097, -1.3251724, 0
1361, 3072539904, -0.53135127, 0.37331858, 0.22636232, 0.72599655, 0.9312055, -0.07528777, -1.3446217, 0
1364, 3072589905, -0.54149485, 0.34057257, 0.20126258, 0.74182117, 0.23486358, 0.14123046, -3.216176, 0
1365, 3072606572, -0.54336464, 0.3280768, 0.19331421, 0.7481723, -0.8595639, -0.4490752, -2.790371, 0
1366, 3072623239, -0.5456353, 0.3170033, 0.1860554, 0.7531178, -1.259556, 0.26470426, -4.3711295, 0
1368, 3072656573, -0.546058, 0.2970466, 0.17560804, 0.76338536, -3.8578086, -1.3796765, -3.6773767, 0
1369, 3072673240, -0.5431664, 0.28721648, 0.17881766, 0.7684485, -4.0722036, 0.023988975, 0.19734192, 0
1370, 3072689907, -0.54039675, 0.27765572, 0.18274617, 0.77297735, -4.8780518, -1.2192872, 3.0866232, 0
1372, 3072723241, -0.5397451, 0.26456815, 0.18002647, 0.7786405, -0.6502039, -8.008782, 6.1001053, 0
1373, 3072739908, -0.53842366, 0.26084894, 0.17868903, 0.7811144, -1.0322323, -7.8421183, 5.303523, 0
1374, 3072756575, -0.53668165, 0.2567916, 0.18263751, 0.7827426, -2.1984437, -3.6731281, 3.7284422, 0
1376, 3072789909, -0.53851986, 0.25273293, 0.18797988, 0.7815354, 1.1119429, 0.058243565, 5.309288, 0
1379, 3072839910, -0.536613, 0.25551012, 0.19580257, 0.7800218, 1.9939524, 2.8953006, 2.5558443, 0
1380, 3072856577, -0.53681237, 0.25488898, 0.19611248, 0.78001, -1.6901985, 1.7509129, 3.1203861, 0
1381, 3072873244, -0.5372134, 0.253926, 0.19672543, 0.77989376, -3.057064, 0.45903036, 2.0266933, 0
1383, 3072906578, -0.542541, 0.25774828, 0.19325429, 0.77580893, 0.30548272, -1.9121534, 0.44489384, 0
1384, 3072923245, -0.5438855, 0.26094368, 0.19172207, 0.7741777, 1.3404846, -2.8277533, 0.7329588, 0
1385, 3072939912, -0.54415447, 0.2649833, 0.19039576, 0.77294296, 1.8468715, -2.576187, 0.49446964, 0
1387, 3072973246, -0.54045254, 0.27272978, 0.19182268, 0.77249295, 2.187266, 0.22712564, -1.3591213, 0
1388, 3072989913, -0.53806233, 0.275604, 0.19265431, 0.77293426, 1.2992853, 0.7647239, -0.9599409, 0
1389, 3073006580, -0.53653574, 0.2792507, 0.19191708, 0.77286994, 0.12170035, 0.7905099, -1.0539246, 0
1391, 3073039914, -0.53428674, 0.28893146, 0.19009879, 0.7713172, 0.19710228, 0.7636045, -1.5018234, 0
1393, 3073073248, -0.53389394, 0.29858416, 0.18879084, 0.76822805, 0.9995037, 0.49583143, -1.0883093, 0
1395, 3073106582, -0.5329181, 0.3084279, 0.18854022, 0.76507187, 1.3484777, 0.6185773, -1.2237625, 0
1396, 3073123249, -0.5325585, 0.3129212, 0.18893072, 0.76339936, -0.015118109, 0.57150376, -1.2248373, 0
1397, 3073139916, -0.53087616, 0.31910247, 0.1883936, 0.76214415, 0.28529468, 0.604003, -1.8738527, 0
1399, 3073173250, -0.52906173, 0.3293017, 0.19269736, 0.75797975, 0.32399902, 0.54327804, -1.1791639, 0
1400, 3073189917, -0.52922386, 0.33457407, 0.19632578, 0.7546191, 0.68978065, 0.32747877, -1.1735544, 0
1401, 3073206584, -0.5301051, 0.33841676, 0.20208132, 0.75075793, 0.3333366, 0.8111811, -0.8164768, 0
1403, 3073239918, -0.5304632, 0.34970352, 0.20943245, 0.7432804, 0.63629615, 0.0816656, -0.7685127, 0
1404, 3073256585, -0.5314088, 0.35393992, 0.21449831, 0.73914355, 0.6598116, -0.0029853508, -0.13572407, 0
1406, 3073289919, -0.5321555, 0.36296597, 0.22526312, 0.7309818, 0.6595658, 0.4125087, -0.42831707, 0
1407, 3073306586, -0.5323, 0.36806062, 0.22993009, 0.7268644, 0.74847305, 0.5636541, -0.34023, 0
1408, 3073323253, -0.53188264, 0.3735636, 0.23409279, 0.7230238, 0.52580225, 0.18985415, -0.8750105, 0
1410, 3073356587, -0.53142726, 0.38320833, 0.24327788, 0.715237, 0.4473521, -0.10804828, -0.81374073, 0
1411, 3073373254, -0.5308365, 0.3878735, 0.24852055, 0.71134794, 0.33961263, -0.28309736, -0.43513966, 0
1412, 3073389921, -0.53054553, 0.392312, 0.25351852, 0.7073563, -0.29117212, 0.3058509, -0.31555462, 0
1414, 3073423255, -0.5283638, 0.40277663, 0.2598149, 0.7007928, -0.19463581, 0.7124359, 0.2532406, 0
1415, 3073439922, -0.52630156, 0.40768355, 0.26214302, 0.6986369, 0.20564455, 0.054259893, 0.2773304, 0
1416, 3073456589, -0.5241678, 0.41184098, 0.26468408, 0.6968424, 0.35060063, -0.11868359, 0.5265045, 0
1418, 3073489923, -0.5196208, 0.41983598, 0.26875815, 0.6939113, 0.45286626, -0.4764097, 0.411911, 0
1420, 3073523257, -0.51535153, 0.42614737, 0.27024037, 0.69267094, 0.37702674, 0.018052025, -0.1255722, 0
1422, 3073556591, -0.510793, 0.4328841, 0.2702832, 0.6918529, -0.024794962, 0.528917, -0.2216816, 0
1423, 3073573258, -0.50727063, 0.43709058, 0.27015775, 0.6918487, 0.0042489814, 0.6153259, -0.1976366, 0
1424, 3073589925, -0.5031343, 0.44147822, 0.27009854, 0.6921065, -0.08205686, 0.5143318, -0.20161724, 0
1426, 3073623259, -0.49504304, 0.44798222, 0.27041423, 0.69363695, -0.23778929, 1.0671251, 0.12402058, 0
1427, 3073639926, -0.49195898, 0.4505738, 0.2715437, 0.69371134, -0.65491414, 0.9810138, 0.14526749, 0
1428, 3073656593, -0.48945734, 0.45314065, 0.2728534, 0.69329506, -0.73298824, 1.0031651, 0.39046574, 0
1430, 3073689927, -0.4851163, 0.45933467, 0.27546126, 0.6912358, -0.56583554, 0.57653344, 0.60591984, 0
1431, 3073706594, -0.4834208, 0.46319002, 0.27661663, 0.6893868, -0.542503, 0.08448924, 0.632411, 0
1433, 3073739928, -0.48229444, 0.4695963, 0.27941322, 0.684698, -0.4685592, 0.5894449, -0.032813072, 0
1435, 3073773262, -0.48354942, 0.4734828, 0.2830001, 0.67964435, -0.24893655, 0.7854653, -0.13451004, 0
1437, 3073806596, -0.48591343, 0.47834694, 0.28665954, 0.6729861, 0.0018835437, 0.8793809, -0.3349228, 0
1438, 3073823263, -0.4866811, 0.481459, 0.28825375, 0.66952235, 0.21829052, 0.28805423, -0.4744339, 0
1439, 3073839930, -0.4861923, 0.48508465, 0.28919208, 0.66685045, 0.9698859, -0.64115876, -0.40929317, 0
1441, 3073873264, -0.4836982, 0.49121422, 0.2892349, 0.6641533, 0.6606705, -0.7453029, -0.28352642, 0
1442, 3073889931, -0.48165512, 0.49343327, 0.28880447, 0.6641805, 0.3005467, -0.0052863047, 0.021922112, 0
1443, 3073906598, -0.47871697, 0.49545535, 0.28827327, 0.6650295, -0.005709247, 0.32992536, 0.5377226, 0
1445, 3073939932, -0.4718453, 0.49982837, 0.288326, 0.66664326, -0.26349658, 0.39084214, 0.14467716, 0
1446, 3073956599, -0.46903986, 0.5013716, 0.28797472, 0.6676153, -0.5800335, -0.09172189, 0.6114731, 0
1447, 3073973266, -0.46733105, 0.5020645, 0.28747773, 0.6685066, -0.7765988, 0.08279434, 0.74130154, 0
1450, 3074023267, -0.46732563, 0.5006244, 0.285639, 0.670376, -0.53199005, 0.8283448, 0.74282837, 0
1451, 3074039934, -0.46846938, 0.4998337, 0.2848442, 0.670506, -0.3091016, 0.7577973, 0.4056902, 0
1453, 3074073268, -0.470231, 0.49745402, 0.283287, 0.671701, -0.083961025, 0.45085502, 0.0203619, 0
1454, 3074089935, -0.47094232, 0.49465823, 0.28268304, 0.67351943, 0.2285814, 0.5258367, 0.33568954, 0
1455, 3074106602, -0.4717421, 0.49083745, 0.28189158, 0.6760819, 0.35784787, 0.58365065, 0.26119232, 0
1457, 3074139936, -0.47402805, 0.48061228, 0.28093702, 0.6821988, 0.09241562, 0.85245526, -0.31579685, 0
1458, 3074156603, -0.4760253, 0.4758296, 0.27927166, 0.6848396, -0.25818053, 0.80347633, -0.496109, 0
1460, 3074189937, -0.47901434, 0.46666846, 0.27527207, 0.6906539, 0.13695282, 0.68546504, -0.034397125, 0
1461, 3074206604, -0.48128206, 0.46129906, 0.27242714, 0.6938052, 0.3192056, 0.41078633, -0.019077301, 0
1462, 3074223271, -0.48362595, 0.4553461, 0.2691982, 0.6973592, 0.71639615, 0.41143182, -0.73899937, 0
1465, 3074273272, -0.49136555, 0.43524966, 0.25950515, 0.7083686, -0.44532895, 0.77723104, -0.97334766, 0
1466, 3074289939, -0.49477354, 0.42851037, 0.25609478, 0.7113403, -0.39750937, 0.3937069, -1.0319862, 0
1468, 3074323273, -0.5040139, 0.4106024, 0.2482568, 0.7181614, -0.059068102, 0.7403291, -1.2782898, 0
1469, 3074339940, -0.5088523, 0.39944768, 0.24405032, 0.7224694, -0.029192664, 0.48064885, -1.8168759, 0
1470, 3074356607, -0.514419, 0.38686845, 0.23925048, 0.726964, 0.16541232, -0.0020698418, -2.5585828, 0
1472, 3074389941, -0.5240519, 0.36161116, 0.22917932, 0.7362713, -0.69411016, -0.22084421, -4.2702103, 0
1473, 3074406608, -0.52811575, 0.34933057, 0.2255789, 0.740397, -2.704954, -1.4100217, -5.374198, 0
1474, 3074423275, -0.53265804, 0.3344161, 0.22496942, 0.74420553, -2.5775645, -0.74469143, -3.038579, 0
1476, 3074456609, -0.5363336, 0.30355817, 0.233634, 0.75208074, -3.551578, -0.24332348, 1.5852108, 0
1477, 3074473276, -0.5374287, 0.28933343, 0.23580569, 0.75621676, -1.9150133, -2.1228178, 3.3834486, 0
1478, 3074489943, -0.53722787, 0.27717796, 0.23553307, 0.7609825, -2.9728131, -5.768984, 5.5072365, 0
1480, 3074523277, -0.5389166, 0.25869069, 0.23564124, 0.7662459, -3.3438404, -4.903372, 3.1009712, 0
1481, 3074539944, -0.54268324, 0.24910912, 0.23836055, 0.7659213, -2.7562482, -2.8218212, 2.644679, 0
1482, 3074556611, -0.54665756, 0.24168384, 0.24125446, 0.7645668, -0.015571868, -0.37829533, 2.3251753, 0
1484, 3074589945, -0.54911745, 0.23817906, 0.24476054, 0.7627874, 6.4436564, 2.7579474, 0.75861645, 0
1485, 3074606612, -0.5498122, 0.23634464, 0.24822752, 0.7617366, 4.63584, 3.2307918, 0.5590515, 0
1487, 3074639946, -0.55005544, 0.23277214, 0.25408953, 0.7607273, -4.3652525, 0.38903347, 3.3103685, 0
1488, 3074656613, -0.5518489, 0.23022422, 0.25532958, 0.75978816, -1.7792447, -0.41878673, 2.247981, 0
1489, 3074673280, -0.55492836, 0.2292149, 0.25546813, 0.75780123, -0.12055579, -1.036339, 1.4112511, 0
1492, 3074723281, -0.5547498, 0.23463014, 0.25277442, 0.7571776, 3.56824, -1.834724, 1.6663818, 0
1493, 3074739948, -0.5536928, 0.23707561, 0.25342467, 0.7569722, 2.8487713, -0.4062023, 1.0739117, 0
1495, 3074773282, -0.54735273, 0.24402328, 0.25091618, 0.7602041, 1.7111642, 0.86863875, -0.57608604, 0
1496, 3074789949, -0.542958, 0.24776326, 0.24848586, 0.7629392, 0.3336887, 0.23015319, -0.58278084, 0
1497, 3074806616, -0.5383782, 0.25265324, 0.24611658, 0.7653453, 0.31210378, 0.33326435, -0.95281696, 0
1499, 3074839950, -0.52853775, 0.2664446, 0.239373, 0.7696539, 0.440395, 0.07718288, -0.59896755, 0
1500, 3074856617, -0.52401596, 0.2737221, 0.23657039, 0.77105737, 0.3379161, 0.24586895, -0.58143806, 0
1501, 3074873284, -0.5200973, 0.2798197, 0.23490623, 0.77203006, -0.7762883, 0.9480547, -1.1869354, 0
1503, 3074906618, -0.5093336, 0.29488143, 0.22748977, 0.7758119, -1.0335304, 1.0864193, -1.3709726, 0
1504, 3074923285, -0.5051049, 0.3020717, 0.22451416, 0.77667665, -0.62249756, 1.1153945, -0.8279648, 0
1507, 3074973286, -0.49415618, 0.3271939, 0.2198425, 0.7748771, 0.7411322, 0.6124701, -0.64640236, 0
1508, 3074989953, -0.49174097, 0.33550483, 0.2187933, 0.77315474, 0.18327716, 0.7918745, -0.5213051, 0
1509, 3075006620, -0.49053702, 0.34397694, 0.21711765, 0.7706653, -0.20528966, 0.24851623, -0.1800499, 0
1511, 3075039954, -0.48775065, 0.36085325, 0.21536815, 0.7651876, -0.65717256, 0.2921032, -0.31185913, 0
1512, 3075056621, -0.4849888, 0.36926928, 0.21492364, 0.76305014, -0.025899647, -0.35249054, -0.6092539, 0
1514, 3075089955, -0.47877005, 0.3861024, 0.21476908, 0.75867647, -0.1096202, -0.2193906, -0.87875557, 0
1515, 3075106622, -0.47654688, 0.39364824, 0.21550515, 0.7559851, -0.114320785, 2.742504E-4, -0.743556, 0
1516, 3075123289, -0.4757673, 0.40032825, 0.21763206, 0.75235003, 0.2759729, 0.46399176, -0.79255295, 0
1518, 3075156623, -0.47513008, 0.4124867, 0.22238263, 0.74475753, -0.18434161, 0.3962885, -0.6761589, 0
1519, 3075173290, -0.47575265, 0.41837844, 0.22448339, 0.7404308, -0.03401166, 0.39627373, -0.30649853, 0
1522, 3075223291, -0.47515658, 0.4358774, 0.2280884, 0.72953707, 0.30995026, 0.11219769, -0.5344486, 0
1523, 3075239958, -0.47595853, 0.43974844, 0.22965243, 0.72619295, 0.036547974, 0.3121439, 0.043631554, 0
1524, 3075256625, -0.4758402, 0.44298455, 0.23118532, 0.7238133, 0.33707312, 0.13164087, 0.011924744, 0
1526, 3075289959, -0.47500765, 0.44786993, 0.23541418, 0.71998066, 0.40424538, 0.46412936, 0.60037804, 0
1527, 3075306626, -0.4746781, 0.45106024, 0.23742193, 0.7175429, 0.7054265, 0.41352355, 0.5264597, 0
1528, 3075323293, -0.4743076, 0.45513934, 0.23826435, 0.71492803, 1.3054532, -0.14440413, -0.13971615, 0
1530, 3075356627, -0.47536394, 0.46079773, 0.23877847, 0.710416, 0.60439503, -0.2751059, 0.05735874, 0
1531, 3075373294, -0.4770248, 0.46173775, 0.23927206, 0.70852375, 0.42633805, 0.08958366, 0.31174374, 0
1532, 3075389961, -0.47861516, 0.46208373, 0.2404787, 0.706815, 0.37730983, 0.5920828, 0.40371895, 0
1534, 3075423295, -0.48156434, 0.46382362, 0.24503957, 0.7020902, 0.8150172, 1.1417009, -0.12850666, 0
1536, 3075456629, -0.48371744, 0.46742415, 0.2486047, 0.69695026, 0.64314085, -0.01720938, 0.30515862, 0
1538, 3075489963, -0.48869365, 0.4678238, 0.2515713, 0.6921291, 1.4872996, 0.2300782, -0.04107666, 0
1539, 3075506630, -0.4902897, 0.46868375, 0.2531043, 0.68985605, 1.4090974, -0.084282935, -0.18013096, 0
1541, 3075539964, -0.49374375, 0.47130036, 0.25651821, 0.6843268, 0.49297228, 0.106382, -0.6686287, 0
1542, 3075556631, -0.49565148, 0.47195917, 0.25868928, 0.681671, 0.48370963, 0.22343886, -0.65813065, 0
1543, 3075573298, -0.49640876, 0.4721596, 0.26148945, 0.6799106, 0.532528, 0.09055743, -0.28419876, 0
1545, 3075606632, -0.4953092, 0.47356585, 0.26785275, 0.6772522, 0.530141, -0.77749383, 0.45296383, 0
1546, 3075623299, -0.49469376, 0.4745021, 0.27097437, 0.67580324, 0.22314942, -0.49372616, 0.67732143, 0
1547, 3075639966, -0.49383277, 0.47564146, 0.2730172, 0.67480934, 0.42187628, -0.38707438, 0.41776466, 0
1549, 3075673300, -0.49355954, 0.47780296, 0.27577996, 0.67235446, 0.4569914, 0.2754613, -0.24812317, 0
1550, 3075689967, -0.4938525, 0.47891086, 0.27657795, 0.6710218, 0.60959363, 0.30645972, -0.43167496, 0
1551, 3075706634, -0.49426177, 0.4801989, 0.277516, 0.6694106, 0.4225386, 0.21126355, -0.26859474, 0
1553, 3075739968, -0.4934707, 0.48393238, 0.27964628, 0.6664125, 0.1922725, -0.14002874, -0.09424877, 0
1554, 3075756635, -0.4923894, 0.48544806, 0.2809865, 0.6655457, 0.121683076, -0.012161898, -0.07840347, 0
1555, 3075773302, -0.49090523, 0.48660466, 0.2824077, 0.6651959, 0.30246857, -0.24895957, 0.18837166, 0
1557, 3075806636, -0.48821196, 0.4887172, 0.28351122, 0.6651599, -0.17301528, 0.071557336, 0.6436033, 0
1558, 3075823303, -0.48632905, 0.48982024, 0.28369427, 0.6656495, -0.10494235, 0.014691283, 0.4994974, 0
1559, 3075839970, -0.48471123, 0.49037585, 0.28420192, 0.6662036, -0.17001127, -0.0030654802, 0.5967226, 0
1561, 3075873304, -0.48318762, 0.4903687, 0.28460664, 0.6671425, -0.32640004, 0.25634512, 0.30835533, 0
1563, 3075906638, -0.4840767, 0.48887137, 0.2843239, 0.6677169, -0.3688792, 0.67051965, 0.2623844, 0
1565, 3075939972, -0.48620743, 0.48856258, 0.285855, 0.66573834, -0.13897845, 0.41659743, 0.13491344, 0
1566, 3075956639, -0.48785466, 0.48786998, 0.28716433, 0.66447634, -0.3151636, 0.330924, 0.20072842, 0
1568, 3075989973, -0.49106258, 0.4850444, 0.28837734, 0.6636562, -0.10051171, 0.36833414, 0.44073677, 0
1569, 3076006640, -0.49230665, 0.48408887, 0.28902286, 0.66315114, 0.43232676, 0.36404583, -0.26432133, 0
1570, 3076023307, -0.4932961, 0.48353776, 0.28912094, 0.66277504, 0.7439323, -0.056276985, -0.60956573, 0
1572, 3076056641, -0.49735963, 0.48036438, 0.28938055, 0.66193205, -0.31170833, -0.16322403, 0.3030367, 0
1573, 3076073308, -0.50001854, 0.47744697, 0.28919214, 0.6621217, -0.17019176, 0.5873527, -0.07233238, 0
1574, 3076089975, -0.50266004, 0.47462964, 0.2890062, 0.6622284, 0.2981708, 1.0522512, -0.38243008, 0
1576, 3076123309, -0.5065828, 0.47046393, 0.28889433, 0.6622607, 0.8484555, 0.4429267, -0.1827097, 0
1578, 3076156643, -0.5094973, 0.4649071, 0.28902653, 0.66388965, 0.2549328, 0.030900778, 0.28922653, 0
1580, 3076189977, -0.51276475, 0.45581615, 0.28699377, 0.66854346, 0.80329764, 0.42503, -0.006430626, 0
1581, 3076206644, -0.5133751, 0.45184898, 0.28487596, 0.6716665, 0.64560556, 0.29022565, 0.33734512, 0
1582, 3076223311, -0.5136843, 0.44848365, 0.28202522, 0.6748809, 0.6194968, -0.02889553, 0.08984947, 0
1584, 3076256645, -0.514971, 0.43922472, 0.27533886, 0.68270546, -0.41383177, -0.1695273, 0.12990761, 0
1585, 3076273312, -0.51610315, 0.43212706, 0.27180737, 0.68777615, -0.37323546, 0.79987466, -0.050697327, 0
1586, 3076289979, -0.5177735, 0.4243327, 0.2679326, 0.69287527, -0.14645077, 0.8199514, -0.6396036, 0
1588, 3076323313, -0.52038485, 0.41289753, 0.25780708, 0.70161414, -0.056522403, 0.23371275, -1.0349369, 0
1589, 3076339980, -0.52184516, 0.40854988, 0.25146818, 0.7053652, -0.32786864, -0.06627125, -0.581192, 0
1590, 3076356647, -0.52349126, 0.40289116, 0.24601144, 0.7093135, -0.42546827, -0.06276177, -0.5645218, 0
1593, 3076406648, -0.5338501, 0.37125608, 0.2338669, 0.72283524, -0.9834139, 0.76375943, -1.3385296, 0
1595, 3076439982, -0.53980136, 0.35279182, 0.2200422, 0.73194635, -0.70803034, -0.37139517, -1.680377, 0
1596, 3076456649, -0.54015833, 0.3461822, 0.21193619, 0.737212, -0.7611726, -1.6433399, -2.1350741, 0
1597, 3076473316, -0.54026514, 0.33576706, 0.20735422, 0.7432293, -1.1891158, -1.0828688, -1.6592932, 0
1599, 3076506650, -0.54093844, 0.3071389, 0.21033567, 0.7542028, -3.4201295, 1.2614717, -2.1262536, 0
1600, 3076523317, -0.5439596, 0.29328793, 0.21336949, 0.75668705, -2.8630614, 2.3785853, -1.7300673, 0
1601, 3076539984, -0.54617894, 0.28451172, 0.21254967, 0.7586672, -1.7772487, 2.409841, 0.2680416, 0
1603, 3076573318, -0.55027765, 0.28200668, 0.19642958, 0.7609821, 1.5357097, -6.9310565, 7.928459, 0
1604, 3076589985, -0.55198824, 0.27971536, 0.18945684, 0.76235557, 2.6239586, -9.167385, 4.94604, 0
1605, 3076606652, -0.5498465, 0.27224478, 0.1871353, 0.76716584, -0.57856035, -6.502327, 3.0611944, 0
1608, 3076656653, -0.5516659, 0.25626424, 0.196822, 0.7689382, 0.008786909, 0.9914261, -0.23223686, 0
1609, 3076673320, -0.5516578, 0.2554154, 0.19850513, 0.76879376, 1.7312462, 2.8186846, -0.8353138, 0
1611, 3076706654, -0.55039304, 0.26237348, 0.19846028, 0.7673676, 1.808556, 2.552403, -0.6094694, 0
1612, 3076723321, -0.54855114, 0.26516062, 0.20062348, 0.76716566, -0.30217934, 0.813408, -0.5472841, 0
1613, 3076739988, -0.54689366, 0.26578197, 0.20415528, 0.7672023, -3.395966, -0.4375912, 1.2433872, 0
1615, 3076773322, -0.54821515, 0.26940277, 0.20754766, 0.76407975, -1.1715851, -1.4181211, 1.8304358, 0
1616, 3076789989, -0.5528196, 0.27402663, 0.2062799, 0.75944734, 1.1653824, -1.0653405, 1.6036043, 0
1617, 3076806656, -0.55689454, 0.277984, 0.2059978, 0.75509584, 1.4430636, 0.48885888, 1.8118954, 0
1619, 3076839990, -0.5588744, 0.28214607, 0.20548224, 0.75222445, 2.5257576, 1.2339268, -0.57554436, 0
1620, 3076856657, -0.55840176, 0.28447777, 0.20297441, 0.7523782, 2.390777, 0.41082743, -0.82553005, 0
1622, 3076889991, -0.5576848, 0.28926077, 0.20063269, 0.75171417, 1.6672977, 0.50237787, -2.7418208, 0
1623, 3076906658, -0.55669403, 0.2938082, 0.19969577, 0.7509339, 1.7415428, 0.86825496, -2.6194005, 0
1624, 3076923325, -0.55445707, 0.2982639, 0.19978529, 0.7508085, 2.079922, 1.2531835, -2.962884, 0
1626, 3076956659, -0.55091476, 0.30515376, 0.20081758, 0.750372, -1.0154048, 1.5950799, -1.459755, 0
1627, 3076973326, -0.5496194, 0.30909953, 0.1997864, 0.749982, -1.088857, 1.6081293, -0.7999544, 0
1628, 3076989993, -0.5478263, 0.31364408, 0.19856703, 0.7497309, 0.060882583, 1.2915617, -0.39487267, 0
1630, 3077023327, -0.54458064, 0.32697976, 0.19633767, 0.7469802, 1.1646632, 0.92190164, -0.8711729, 0
1631, 3077039994, -0.5418414, 0.33366156, 0.19666353, 0.7459308, 1.2121012, 1.2396742, -0.464118, 0
1632, 3077056661, -0.53845185, 0.34093648, 0.19723743, 0.74494356, 1.1015575, 1.4283652, -0.6348314, 0
1635, 3077106662, -0.5266651, 0.3654229, 0.20238957, 0.74036473, 1.0098839, 0.5929937, -0.6579056, 0
1636, 3077123329, -0.52391815, 0.37291008, 0.20631428, 0.7374915, 0.677989, 0.6300776, -0.6599312, 0
1638, 3077156663, -0.5179763, 0.38476643, 0.21603641, 0.73279953, -0.14813016, 0.2555381, 0.643939, 0
1639, 3077173330, -0.5140755, 0.3903324, 0.22064754, 0.73122734, -0.6191544, 0.3160148, 1.0382786, 0
1640, 3077189997, -0.51103336, 0.39551932, 0.22510567, 0.72921085, -0.43263152, 0.1258616, 1.079484, 0
1642, 3077223331, -0.5067628, 0.40632012, 0.23324586, 0.72367346, -0.30459398, -0.25854897, 0.2832775, 0
1643, 3077239998, -0.5052141, 0.41201547, 0.23656666, 0.7204511, 0.20215957, -0.3181288, -0.07696724, 0
1644, 3077256665, -0.5034491, 0.4185741, 0.23896426, 0.71710706, 0.7804775, -0.5299336, -0.7467079, 0
1646, 3077289999, -0.50137544, 0.42932817, 0.24477424, 0.71020937, 0.05354303, -0.5939282, -0.8287649, 0
1647, 3077306666, -0.50114846, 0.43292302, 0.24901211, 0.7067052, -0.4795132, 0.30522683, -0.13082695, 0
1650, 3077356667, -0.4983725, 0.44278532, 0.25619116, 0.69995993, 0.19080664, -0.3883857, 1.3338594, 0
1651, 3077373334, -0.49678925, 0.44589093, 0.25764802, 0.69857746, -0.21130165, -0.18406604, 0.6179867, 0
1653, 3077406668, -0.49253482, 0.45160073, 0.2583608, 0.6976586, 0.18868838, -0.4125951, 0.39356327, 0
1654, 3077423335, -0.4901897, 0.45432067, 0.2579832, 0.6976841, -0.21757656, -0.23967864, -0.043717384, 0
1655, 3077440002, -0.48815697, 0.45676112, 0.25740644, 0.6977287, -0.20146017, 0.028127877, -0.31662464, 0
1657, 3077473336, -0.48602778, 0.4600137, 0.25577772, 0.6976773, 0.055582307, 0.40981492, -0.5400562, 0
1658, 3077490003, -0.4853806, 0.46144548, 0.25492334, 0.6974951, 0.15263902, 0.9714406, -0.757946, 0
1659, 3077506670, -0.48458982, 0.462998, 0.25403476, 0.6973403, -0.0047714356, 1.2005459, -0.7279701, 0
1661, 3077540004, -0.48191014, 0.46703348, 0.25369096, 0.6966311, -0.097882666, 0.49580896, -0.36181068, 0
1662, 3077556671, -0.48027152, 0.4685905, 0.25455502, 0.696402, -0.3286779, 0.23374046, -0.28597832, 0
1665, 3077606672, -0.47624314, 0.47186968, 0.25810832, 0.69564587, -0.1928299, 0.09147156, 0.42527866, 0
1666, 3077623339, -0.47569788, 0.47324055, 0.25928634, 0.6946488, -0.30541977, 0.20783599, 0.5738621, 0
1667, 3077640006, -0.4756934, 0.47477764, 0.2610014, 0.69295883, -0.63256395, 0.28919268, 0.9129486, 0
1669, 3077673340, -0.4768706, 0.47570843, 0.26423973, 0.6902788, -0.07946484, -0.16955715, 1.0515966, 0
1670, 3077690007, -0.47749132, 0.47623366, 0.26551944, 0.68899524, 0.50569034, -0.38468948, 0.5227127, 0
1671, 3077706674, -0.47808003, 0.47714275, 0.2662992, 0.6876558, 0.9528879, -0.32165134, -0.2662592, 0
1673, 3077740008, -0.4798118, 0.47845647, 0.26696664, 0.68527406, 0.6589203, -0.27707896, -0.90344334, 0
1674, 3077756675, -0.4808086, 0.47907832, 0.26719475, 0.68405104, 0.5745188, -0.12547012, -0.67166615, 0
1676, 3077790009, -0.4815619, 0.48140532, 0.26834044, 0.6814338, -0.13023207, -0.018365836, -0.13275146, 0
1677, 3077806676, -0.48078495, 0.48311868, 0.26832145, 0.68077713, -0.16973974, -0.18679269, -0.15829468, 0
1680, 3077856677, -0.47718343, 0.48780107, 0.2667034, 0.6806078, 0.11425454, 0.1671297, -0.36096287, 0
1681, 3077873344, -0.47625822, 0.48940012, 0.26600796, 0.68038005, -0.059111968, 0.6088443, -0.3939705, 0
1682, 3077890011, -0.47550496, 0.4909243, 0.26510358, 0.6801618, -0.3831455, 0.76234615, -0.3602848, 0
1684, 3077923345, -0.4734675, 0.49393368, 0.2631835, 0.6801499, -0.045424037, 0.6943878, 0.23396778, 0
1685, 3077940012, -0.47237533, 0.4951111, 0.26245302, 0.6803356, 0.18815215, 0.69294894, 0.57304955, 0
1686, 3077956679, -0.4715958, 0.49584943, 0.2619689, 0.6805252, 0.010715546, 0.5055543, 0.8080826, 0
1688, 3077990013, -0.4712567, 0.49599513, 0.26237124, 0.6804991, -0.068845175, 0.5823612, 1.6131554, 0
1689, 3078006680, -0.4714784, 0.49557996, 0.2625295, 0.6805868, -0.030574393, 0.45221588, 1.739254, 0
1690, 3078023347, -0.47244298, 0.49436393, 0.26227283, 0.6809012, 0.16609952, 0.5649671, 1.6050749, 0
1692, 3078056681, -0.47574973, 0.48993364, 0.26038384, 0.6825239, 0.29424375, 1.0698069, 0.5945816, 0
1693, 3078073348, -0.4777422, 0.48720986, 0.25887972, 0.6836532, 0.6783784, 1.3779143, -0.17483902, 0
1694, 3078090015, -0.48021752, 0.4840805, 0.25741398, 0.6846946, 0.5869727, 1.239533, -0.31617928, 0
1696, 3078123349, -0.48502862, 0.47749463, 0.25621298, 0.68637645, 0.18540092, 0.72587824, -0.39330387, 0
1697, 3078140016, -0.488455, 0.47363254, 0.25520146, 0.6869992, 0.26309258, 0.76553476, -0.024983406, 0
1698, 3078156683, -0.49155772, 0.46983328, 0.2546012, 0.6876173, 0.49675614, 0.62868273, -0.66448784, 0
1700, 3078190017, -0.4996753, 0.45802, 0.254058, 0.6899337, 0.5938947, 0.5085394, -0.57930946, 0
1701, 3078206684, -0.5052836, 0.45067695, 0.25381005, 0.69077563, 0.5555543, 0.45819217, -0.7346287, 0
1703, 3078240018, -0.5181432, 0.4350011, 0.24990761, 0.6927188, -0.07812236, -0.33494645, -0.7498884, 0
1704, 3078256685, -0.5244158, 0.42640853, 0.24628147, 0.69463736, 0.5611549, -0.5137448, -1.7704725, 0
1707, 3078306686, -0.5416523, 0.39182267, 0.23731792, 0.70482594, 0.091945045, -0.7278278, -3.6492615, 0
1708, 3078323353, -0.54723275, 0.37866148, 0.23433502, 0.70869637, -0.5688447, -0.13215193, -4.3760533, 0
1709, 3078340020, -0.55314475, 0.3663912, 0.23057896, 0.71178186, -1.3216147, -0.06057117, -5.0714893, 0
1711, 3078373354, -0.5632967, 0.34330183, 0.22529295, 0.7170045, -2.200912, -1.1842729, -6.5521154, 0
1712, 3078390021, -0.5685921, 0.32888225, 0.22849315, 0.71856946, -4.216291, -1.5586499, -6.7104263, 0
1713, 3078406688, -0.5740154, 0.31158304, 0.23674865, 0.7192944, -6.083185, -1.3939161, -5.5897574, 0
1715, 3078440022, -0.5765298, 0.2856539, 0.24932742, 0.72378355, -3.2398033, -0.0021870742, 2.1196833, 0
1716, 3078456689, -0.5743887, 0.27680618, 0.24654593, 0.72985107, -0.92924005, -3.700929, 7.721388, 0
1717, 3078473356, -0.5717164, 0.2716477, 0.23991689, 0.7360701, -0.4088329, -9.6723175, 12.7241535, 0
