sep=,
DeviceTag:,Xsens_DOT_1,,,,,,,,,,,,,,,,,
FirmwareVersion:,3.0.0,,,,,,,,,,,,,,,,,
AppVersion:,2023.6.1,,,,,,,,,,,,,,,,,
SyncStatus:,Synced,,,,,,,,,,,,,,,,,
OutputRate:,60Hz,,,,,,,,,,,,,,,,,
FilterProfile:,General,,,,,,,,,,,,,,,,,
Measurement Mode:,Sensor fusion Mode - Extended (Quaternion),,,,,,,,,,,,,,,,,
StartTime:,2025-05-05 11:33:38.317 +0200,,,,,,,,,,,,,,,,,
 2025,,,,,,,,,,,,,,,,,,,

PacketCounter,SampleTimeFine,Quat_W,Quat_X,Quat_Y,Quat_Z,FreeAcc_X,FreeAcc_Y,FreeAcc_Z,Status
1, 1611327347, -0.41879702, 0.18471648, -0.26687223, -0.8481303, -0.1304046, -0.17470063, 0.3063326, 0
2, 1611344014, -0.41890278, 0.18499042, -0.26677692, -0.84804845, -0.14805748, -0.17540269, 0.32224178, 0
3, 1611360681, -0.41903594, 0.18531106, -0.26667506, -0.84794486, -0.18460941, -0.12763819, 0.2929697, 0
4, 1611377348, -0.41909283, 0.18562622, -0.26665106, -0.8478552, -0.2739132, -0.09455973, 0.2872219, 0
5, 1611394015, -0.4190284, 0.185942, -0.26673353, -0.8477919, -0.22211711, -0.14057937, 0.26895332, 0
6, 1611410682, -0.418948, 0.18630533, -0.2668726, -0.84770805, -0.18617941, -0.15713698, 0.30456066, 0
7, 1611427349, -0.41889346, 0.18670921, -0.26706862, -0.84758437, -0.20362961, -0.149368, 0.29680824, 0
8, 1611444016, -0.41886652, 0.1870941, -0.26729885, -0.84744024, -0.16967209, -0.14454627, 0.29800224, 0
9, 1611460683, -0.41887894, 0.18747428, -0.2675014, -0.84728616, -0.155143, -0.14883728, 0.3054762, 0
10, 1611477350, -0.41890833, 0.18784629, -0.2676998, -0.8471267, -0.17054781, -0.116996296, 0.29398346, 0
11, 1611494017, -0.4189221, 0.18815331, -0.26791656, -0.8469831, -0.21177833, -0.10210429, 0.26977825, 0
12, 1611510684, -0.41887173, 0.1883428, -0.2681736, -0.8468845, -0.19689097, -0.1032004, 0.263278, 0
13, 1611527351, -0.41880625, 0.18850218, -0.2684011, -0.8468094, -0.12268389, -0.12569095, 0.2944746, 0
14, 1611544018, -0.41879347, 0.18867192, -0.26855493, -0.84672916, -0.14450826, -0.14839864, 0.30507088, 0
15, 1611560685, -0.41881147, 0.18877734, -0.26867664, -0.8466581, -0.17640537, -0.10180523, 0.29674625, 0
16, 1611577352, -0.418775, 0.1887675, -0.268784, -0.8466443, -0.20569922, -0.07317479, 0.29476166, 0
17, 1611594019, -0.4186753, 0.18867888, -0.26885578, -0.84669054, -0.17585038, -0.12265519, 0.29706287, 0
18, 1611610686, -0.4186003, 0.18858027, -0.26889214, -0.8467381, -0.13471676, -0.17467101, 0.29592037, 0
19, 1611627353, -0.4185848, 0.1884851, -0.26891455, -0.84675986, -0.16640833, -0.13119574, 0.28511143, 0
20, 1611644020, -0.41856444, 0.18835843, -0.26894432, -0.84678864, -0.1818761, -0.1104249, 0.28097725, 0
21, 1611660687, -0.41847175, 0.18820097, -0.26900902, -0.84684885, -0.20866027, -0.10372856, 0.29325104, 0
22, 1611677354, -0.41833764, 0.18804908, -0.2690872, -0.84692395, -0.16201921, -0.14067839, 0.29691124, 0
23, 1611694021, -0.41821748, 0.18790804, -0.2691039, -0.8470093, -0.14473894, -0.1413724, 0.3070135, 0
24, 1611710688, -0.41808176, 0.18774709, -0.2691311, -0.84710336, -0.1999836, -0.11621283, 0.29396057, 0
25, 1611727355, -0.41788933, 0.18752134, -0.26922566, -0.84721816, -0.19316135, -0.10683394, 0.29163742, 0
26, 1611744022, -0.41768724, 0.18727712, -0.26933277, -0.84733784, -0.12346554, -0.15544868, 0.2811041, 0
27, 1611760689, -0.41750675, 0.18705207, -0.26941463, -0.84745055, -0.15404086, -0.14696379, 0.3092518, 0
28, 1611777356, -0.41732976, 0.18683645, -0.26949742, -0.84755903, -0.1484563, -0.12646799, 0.31132603, 0
29, 1611794023, -0.41717577, 0.18661287, -0.26950824, -0.8476807, -0.11537635, -0.13630758, 0.3026886, 0
30, 1611810690, -0.41711202, 0.18641946, -0.2693966, -0.84779, -0.05418946, -0.18220374, 0.30645847, 0
31, 1611827357, -0.41722196, 0.18627013, -0.26912528, -0.84785485, -0.03618102, -0.19223265, 0.29039478, 0
32, 1611844024, -0.41744006, 0.18617815, -0.26877788, -0.847878, -0.10951185, -0.16062702, 0.2991705, 0
33, 1611860691, -0.4176713, 0.18609717, -0.26849237, -0.8478723, -0.17845984, -0.16061674, 0.29228878, 0
34, 1611877358, -0.41786793, 0.18608658, -0.26823774, -0.8478584, -0.15654352, -0.1809258, 0.28531933, 0
35, 1611894025, -0.41805083, 0.18611786, -0.26799276, -0.8478389, -0.16353926, -0.1744903, 0.3088007, 0
36, 1611910692, -0.41818142, 0.1861687, -0.26780885, -0.84782135, -0.19185136, -0.13935485, 0.29683495, 0
37, 1611927359, -0.41826978, 0.18623485, -0.26765794, -0.84781086, -0.13925545, -0.14379181, 0.29572678, 0
38, 1611944026, -0.41842845, 0.18635647, -0.2674688, -0.8477655, -0.11141506, -0.18726799, 0.28085136, 0
39, 1611960693, -0.41863278, 0.18652715, -0.2673532, -0.8476636, -0.18987136, -0.1488916, 0.2829609, 0
40, 1611977360, -0.41877118, 0.18668488, -0.2673517, -0.847561, -0.21271826, -0.14620787, 0.29370308, 0
41, 1611994027, -0.4188124, 0.18685341, -0.26741782, -0.84748256, -0.19664527, -0.13186437, 0.30799007, 0
42, 1612010694, -0.41880473, 0.18704993, -0.2675098, -0.847414, -0.14701271, -0.1410141, 0.30901814, 0
43, 1612027361, -0.4187856, 0.18724632, -0.2676292, -0.8473425, -0.14414786, -0.11933692, 0.27121925, 0
44, 1612044028, -0.41872188, 0.18738858, -0.26776013, -0.847301, -0.17416456, -0.09963526, 0.28036118, 0
47, 1612094029, -0.41842353, 0.18728815, -0.26788834, -0.84743, -0.11294942, -0.09415215, 0.3049059, 0
48, 1612110696, -0.41835085, 0.18713155, -0.26785815, -0.8475101, -0.14545266, -0.11677784, 0.29323673, 0
49, 1612127363, -0.41828892, 0.18696049, -0.26781672, -0.8475915, -0.13388178, -0.14676508, 0.30455208, 0
51, 1612160697, -0.41822216, 0.18656431, -0.2676889, -0.8477522, -0.13832915, -0.12909013, 0.28993702, 0
52, 1612177364, -0.41815764, 0.18634556, -0.2675956, -0.84786165, -0.148133, -0.106715925, 0.2873497, 0
53, 1612194031, -0.41809085, 0.1861085, -0.26751098, -0.8479732, -0.13265117, -0.12998061, 0.28824806, 0
55, 1612227365, -0.4179565, 0.18558647, -0.26735747, -0.84820235, -0.14704476, -0.11696109, 0.28685474, 0
56, 1612244032, -0.41786268, 0.18529524, -0.26725268, -0.8483453, -0.138189, -0.10610462, 0.28436375, 0
58, 1612277366, -0.4176767, 0.18460454, -0.26703164, -0.8486571, -0.124599814, -0.11134231, 0.30659962, 0
59, 1612294033, -0.41759688, 0.18424705, -0.2668813, -0.84882104, -0.11627158, -0.11855965, 0.30039978, 0
62, 1612344034, -0.41732806, 0.18299633, -0.26634377, -0.84939253, -0.15612946, -0.113753565, 0.3099432, 0
63, 1612360701, -0.4172192, 0.18258414, -0.26616982, -0.84958917, -0.1342361, -0.1653627, 0.29274464, 0
64, 1612377368, -0.41712317, 0.18222532, -0.26599333, -0.8497685, -0.1154683, -0.14922105, 0.30451488, 0
66, 1612410702, -0.41681746, 0.1815492, -0.26581454, -0.8501193, -0.16871394, -0.11729301, 0.30282116, 0
67, 1612427369, -0.4165923, 0.1812311, -0.2658056, -0.8503003, -0.13571566, -0.16687253, 0.29037094, 0
68, 1612444036, -0.4164285, 0.18097773, -0.265792, -0.8504386, -0.04901491, -0.2190998, 0.27502918, 0
70, 1612477370, -0.41638133, 0.18069714, -0.2656506, -0.8505657, -0.12046973, -0.1431548, 0.29928303, 0
71, 1612494037, -0.41639346, 0.18060505, -0.26553556, -0.85061526, -0.10900802, -0.17596225, 0.29907322, 0
72, 1612510704, -0.41642785, 0.18058854, -0.26543558, -0.850633, -0.120208025, -0.17685586, 0.29574776, 0
74, 1612544038, -0.41642115, 0.18060243, -0.26535624, -0.8506582, -0.16925693, -0.11368271, 0.31768513, 0
75, 1612560705, -0.41634023, 0.18056524, -0.26535136, -0.8507072, -0.1382451, -0.1422157, 0.28965855, 0
76, 1612577372, -0.4162687, 0.18055637, -0.26534432, -0.8507463, -0.099825524, -0.15428485, 0.29158592, 0
78, 1612610706, -0.4161402, 0.18054426, -0.26536068, -0.8508066, -0.14130603, -0.087620765, 0.28877163, 0
79, 1612627373, -0.4160487, 0.1804677, -0.26538318, -0.8508605, -0.1252059, -0.14641294, 0.28168583, 0
80, 1612644040, -0.41599417, 0.18037298, -0.2654207, -0.8508955, -0.07466189, -0.14587674, 0.2831974, 0
82, 1612677374, -0.4160097, 0.17999926, -0.26529813, -0.8510053, -0.14077649, -0.14036803, 0.27570248, 0
83, 1612694041, -0.41599607, 0.1797491, -0.26524177, -0.85108256, -0.13683291, -0.10520911, 0.29241276, 0
85, 1612727375, -0.41583094, 0.1789733, -0.26515687, -0.85135305, -0.13379608, -0.11548792, 0.29676342, 0
86, 1612744042, -0.4156866, 0.17856058, -0.26511946, -0.85152185, -0.12870577, -0.14088838, 0.2949505, 0
89, 1612794043, -0.41513544, 0.17756286, -0.26523092, -0.85196453, -0.09508666, -0.14848268, 0.3027258, 0
90, 1612810710, -0.41499937, 0.17735718, -0.26527253, -0.85206085, -0.02877693, -0.21613245, 0.32111835, 0
91, 1612827377, -0.41500443, 0.17729881, -0.26527467, -0.85206974, -0.06569451, -0.20596361, 0.29346657, 0
93, 1612860711, -0.41517815, 0.17743549, -0.2651623, -0.85199165, -0.07702233, -0.15583804, 0.28644753, 0
94, 1612877378, -0.41528094, 0.17756458, -0.26500392, -0.85196394, -0.062523514, -0.1444895, 0.2773733, 0
95, 1612894045, -0.41539124, 0.1777172, -0.26481616, -0.8519367, -0.092030495, -0.16656442, 0.29671764, 0
97, 1612927379, -0.41556355, 0.1781254, -0.26468304, -0.85180867, -0.08881739, -0.18565209, 0.30148697, 0
98, 1612944046, -0.4157138, 0.17841062, -0.2646563, -0.8516841, -0.122700736, -0.14409053, 0.29827023, 0
99, 1612960713, -0.41579315, 0.17859602, -0.2646404, -0.8516115, -0.20808877, -0.046881843, 0.31885815, 0
101, 1612994047, -0.41564736, 0.1787575, -0.26463053, -0.8516518, -0.11082253, -0.1342421, 0.2941475, 0
103, 1613027381, -0.41561872, 0.17892018, -0.26451278, -0.8516681, -0.07181732, -0.12770413, 0.29894638, 0
105, 1613060715, -0.4157076, 0.17889193, -0.26429257, -0.8516991, -0.16347669, -0.08011732, 0.3189001, 0
106, 1613077382, -0.41566283, 0.17880355, -0.2642447, -0.8517543, -0.13876833, -0.119628154, 0.29936886, 0
107, 1613094049, -0.4155666, 0.17871983, -0.26422676, -0.8518244, -0.107585855, -0.12155428, 0.30463028, 0
109, 1613127383, -0.41526312, 0.17830734, -0.26434386, -0.8520225, -0.17868516, -0.09551569, 0.3288126, 0
110, 1613144050, -0.41503784, 0.1780006, -0.2644941, -0.8521497, -0.08510626, -0.14816618, 0.3156271, 0
112, 1613177384, -0.41459218, 0.17718562, -0.2649117, -0.8524068, -0.17031091, -0.035380535, 0.29553127, 0
113, 1613194051, -0.41425118, 0.1766036, -0.26512563, -0.8526269, -0.055091992, -0.12177679, 0.29381657, 0
114, 1613210718, -0.41394866, 0.17604865, -0.26520726, -0.85286325, 0.0072234496, -0.18870339, 0.319726, 0
116, 1613244052, -0.41369215, 0.17486238, -0.2647914, -0.8533608, -0.040248748, -0.07435315, 0.3163767, 0
118, 1613277386, -0.41370586, 0.1736818, -0.2638406, -0.8538896, -0.02661053, -0.21955097, 0.34161186, 0
120, 1613310720, -0.41402003, 0.17314923, -0.26285145, -0.8541504, -0.1941754, -0.114935085, 0.3318138, 0
121, 1613327387, -0.414059, 0.1729581, -0.26257762, -0.8542545, -0.17503892, -0.13270634, 0.31097507, 0
122, 1613344054, -0.41400704, 0.17287959, -0.262462, -0.854331, -0.15705058, -0.18390714, 0.29938602, 0
124, 1613377388, -0.4137067, 0.17298764, -0.26280367, -0.8543496, -0.19408815, -0.08355462, 0.28673363, 0
125, 1613394055, -0.41339976, 0.17299758, -0.26319605, -0.85437536, -0.10650575, -0.11288645, 0.30963707, 0
126, 1613410722, -0.41321954, 0.1730862, -0.2635389, -0.85433894, -0.0020814226, -0.191368, 0.2987194, 0
128, 1613444056, -0.41280895, 0.17360926, -0.2642701, -0.8542055, -0.07276311, -0.16695535, 0.29217148, 0
129, 1613460723, -0.4126477, 0.17395942, -0.26465476, -0.85409296, -0.07801354, -0.14032133, 0.2998743, 0
130, 1613477390, -0.41249835, 0.17434278, -0.26497227, -0.8539885, -0.009793821, -0.15240599, 0.29226303, 0
133, 1613527391, -0.41214252, 0.17473726, -0.26562133, -0.8538781, -0.052725617, -0.015228273, 0.28396416, 0
134, 1613544058, -0.4120632, 0.17454688, -0.26562116, -0.85395527, 0.04527551, -0.15096724, 0.28542423, 0
136, 1613577392, -0.41222778, 0.17409019, -0.26548055, -0.85401297, -0.18812984, -0.07303207, 0.30050945, 0
138, 1613610726, -0.4121659, 0.17379084, -0.26576546, -0.8540151, -0.09688925, -0.20741656, 0.33278084, 0
140, 1613644060, -0.4119711, 0.17374799, -0.26656914, -0.8538674, -0.17241564, -0.07986084, 0.32583523, 0
141, 1613660727, -0.41177544, 0.17371887, -0.26698685, -0.85383713, -0.008848584, -0.17832188, 0.28531265, 0
143, 1613694061, -0.41170067, 0.17366692, -0.2672177, -0.8538115, 0.035771716, -0.10148176, 0.298419, 0
144, 1613710728, -0.41179496, 0.17363614, -0.26704022, -0.8538279, 0.007985112, -0.19098489, 0.29131413, 0
145, 1613727395, -0.41195115, 0.17369726, -0.26678202, -0.8538207, -0.0087525295, -0.20751669, 0.30046654, 0
147, 1613760729, -0.41236565, 0.1739092, -0.2663554, -0.85371065, -0.22845644, -0.017900929, 0.3097372, 0
148, 1613777396, -0.41235176, 0.17382374, -0.26627252, -0.8537607, -0.110585995, -0.09396529, 0.3178501, 0
149, 1613794063, -0.4123483, 0.17378923, -0.26620972, -0.8537889, -0.061598103, -0.17747778, 0.30718708, 0
151, 1613827397, -0.41239014, 0.17389974, -0.2660548, -0.8537946, -0.05606806, -0.13524467, 0.30647373, 0
152, 1613844064, -0.41241473, 0.17402649, -0.2659393, -0.85379285, -0.034041107, -0.15583804, 0.3182583, 0
153, 1613860731, -0.4124928, 0.17421278, -0.26576686, -0.85377085, -0.03548866, -0.1757745, 0.28972244, 0
155, 1613894065, -0.4128094, 0.17455864, -0.26554096, -0.85361737, -0.12032472, -0.0908702, 0.3114376, 0
156, 1613910732, -0.4129204, 0.17467265, -0.2654613, -0.8535652, -0.024724737, -0.14561176, 0.28964615, 0
157, 1613927399, -0.41310197, 0.17485702, -0.2653209, -0.8534833, 0.038567998, -0.21086279, 0.2603197, 0
160, 1613977400, -0.41395622, 0.17539784, -0.2647618, -0.8531319, -0.041069333, -0.1569062, 0.3187437, 0
163, 1614027401, -0.4147132, 0.17594598, -0.26430833, -0.85279197, -0.13723448, -0.13126928, 0.31169128, 0
164, 1614044068, -0.41484994, 0.17615537, -0.26431507, -0.8526802, -0.07809476, -0.16054042, 0.29885006, 0
166, 1614077402, -0.41523942, 0.1765975, -0.26433876, -0.8523917, -0.07092928, -0.10457076, 0.3020897, 0
167, 1614094069, -0.41545063, 0.176758, -0.26430002, -0.8522675, -0.050829776, -0.09171169, 0.29158306, 0
168, 1614110736, -0.41566506, 0.17692412, -0.2641585, -0.8521725, -0.019987129, -0.14375973, 0.3224411, 0
170, 1614144070, -0.41627255, 0.17736691, -0.26351163, -0.851984, -0.11225853, -0.12588406, 0.31045437, 0
171, 1614160737, -0.41655147, 0.17753658, -0.2633071, -0.85187554, -0.13342884, -0.09033723, 0.3072052, 0
172, 1614177404, -0.41677985, 0.17770356, -0.26315865, -0.851775, -0.051392864, -0.14265133, 0.31503677, 0
174, 1614210738, -0.41711622, 0.17805116, -0.26300243, -0.85158587, -0.10914941, -0.11906792, 0.30370617, 0
175, 1614227405, -0.4172433, 0.17825639, -0.26300967, -0.85147846, -0.03832835, -0.15070562, 0.2871046, 0
178, 1614277406, -0.4183536, 0.17956236, -0.26241526, -0.8508426, -0.03890711, -0.12349057, 0.2841034, 0
179, 1614294073, -0.4188329, 0.1799899, -0.26216823, -0.8505924, -0.17624442, -0.08435111, 0.2796173, 0
180, 1614310740, -0.41913947, 0.1803628, -0.26205945, -0.8503959, -0.13367909, -0.14137563, 0.2828083, 0
182, 1614344074, -0.41963422, 0.18112212, -0.26207718, -0.84998494, -0.06668499, -0.17965245, 0.2803154, 0
184, 1614377408, -0.42018422, 0.18201661, -0.26260787, -0.849358, -0.10610687, -0.11551205, 0.26613235, 0
186, 1614410742, -0.42029968, 0.18273632, -0.26375327, -0.84879136, -0.18114157, -0.050644126, 0.26291847, 0
187, 1614427409, -0.42012107, 0.18289351, -0.26461634, -0.8485774, -0.15291134, -0.04836161, 0.28337097, 0
188, 1614444076, -0.41988218, 0.18298125, -0.26541704, -0.84842664, 0.011787305, -0.113471605, 0.29317856, 0
190, 1614477410, -0.41953474, 0.18297121, -0.26651785, -0.8482555, 0.044766754, -0.11925947, 0.3238268, 0
193, 1614527411, -0.4194983, 0.18256554, -0.26657438, -0.84834313, -0.03304611, -0.084244825, 0.29470444, 0
195, 1614560745, -0.41956684, 0.18201932, -0.26619104, -0.848547, -0.094048634, -0.10055055, 0.29402637, 0
197, 1614594079, -0.41956124, 0.18127608, -0.26582593, -0.8488232, -0.082695015, -0.08267319, 0.29498005, 0
198, 1614610746, -0.41950434, 0.18084915, -0.26563823, -0.84900117, -0.0029933692, -0.15992486, 0.29973316, 0
199, 1614627413, -0.41955256, 0.18050979, -0.26542783, -0.8491154, 0.041300934, -0.19062147, 0.2932949, 0
201, 1614660747, -0.41964528, 0.1798919, -0.26500314, -0.8493334, -0.10674336, -0.12795904, 0.28251934, 0
202, 1614677414, -0.4195435, 0.17966264, -0.26490784, -0.8494618, -0.07041154, -0.18935694, 0.30164146, 0
205, 1614727415, -0.41926932, 0.17945752, -0.2647231, -0.84969807, -0.05830327, -0.12355226, 0.30059814, 0
206, 1614744082, -0.4192337, 0.1793958, -0.26470298, -0.8497349, -0.0454331, -0.14293028, 0.3260603, 0
207, 1614760749, -0.41919073, 0.17938302, -0.264583, -0.84979624, 0.0057212473, -0.13820621, 0.30162144, 0
209, 1614794083, -0.41916665, 0.17939132, -0.26427162, -0.8499032, -1.1442466E-4, -0.15233481, 0.31114197, 0
211, 1614827417, -0.41935918, 0.17953357, -0.26362118, -0.84998024, 0.0032644626, -0.16976357, 0.29891205, 0
213, 1614860751, -0.4197579, 0.17980352, -0.26308823, -0.84989154, -0.10065121, -0.13068768, 0.27707195, 0
214, 1614877418, -0.41988748, 0.17998113, -0.2630272, -0.84980893, -0.06778958, -0.14275393, 0.30106258, 0
215, 1614894085, -0.4200296, 0.18026799, -0.26297078, -0.8496953, 0.041642267, -0.21397689, 0.31879616, 0
217, 1614927419, -0.42045864, 0.180825, -0.26285747, -0.8493998, -0.14700137, -0.050429218, 0.2661972, 0
218, 1614944086, -0.42046994, 0.18096423, -0.26287204, -0.84936005, -0.07498486, -0.12286887, 0.29536438, 0
220, 1614977420, -0.42048174, 0.18116623, -0.2628837, -0.84930754, -0.07181512, -0.12331724, 0.30625057, 0
221, 1614994087, -0.42045894, 0.18120693, -0.26293877, -0.849293, -0.096988276, -0.101473205, 0.30836105, 0
222, 1615010754, -0.42035323, 0.18122977, -0.2630444, -0.84930766, -0.064876914, -0.13730758, 0.3094883, 0
224, 1615044088, -0.42016023, 0.18120208, -0.26334107, -0.8493172, -0.097845785, -0.12144722, 0.31213856, 0
225, 1615060755, -0.4200277, 0.18110727, -0.26352558, -0.8493457, -0.027628757, -0.103044055, 0.3021326, 0
226, 1615077422, -0.41987446, 0.18089855, -0.26363105, -0.8494333, -0.054346576, -0.06834255, 0.27993488, 0
229, 1615127423, -0.41965267, 0.17937332, -0.26298177, -0.8500674, -0.10149584, -0.1031367, 0.30563736, 0
232, 1615177424, -0.4202549, 0.1787338, -0.26133126, -0.8504135, 0.08787128, -0.13946751, 0.26776218, 0
234, 1615210758, -0.4214222, 0.1781331, -0.25954157, -0.8505099, 0.075149775, -0.26568997, 0.28014565, 0
236, 1615244092, -0.4226292, 0.17819594, -0.2581117, -0.8503329, -0.26639202, -0.14242972, 0.28705025, 0
237, 1615260759, -0.42293602, 0.17859808, -0.2581317, -0.8500899, -0.22775857, -0.21402416, 0.3363104, 0
238, 1615277426, -0.423034, 0.1793842, -0.25845057, -0.84977865, -0.16907817, -0.23308098, 0.36031914, 0
240, 1615310760, -0.4228643, 0.18182474, -0.2598893, -0.8489052, -0.14180501, -0.17014164, 0.3365488, 0
242, 1615344094, -0.42258328, 0.18460841, -0.2612961, -0.84801215, 0.12182825, -0.14688087, 0.2863531, 0
244, 1615377428, -0.422713, 0.18684056, -0.26188722, -0.8472759, -0.009455045, -0.10609333, 0.2788105, 0
245, 1615394095, -0.4228606, 0.18771476, -0.26218888, -0.8469156, 0.087074585, -0.13679686, 0.2864189, 0
248, 1615444096, -0.42462328, 0.18960306, -0.26038194, -0.8461702, 0.56551516, -0.39593253, 0.51677895, 0
249, 1615460763, -0.4263915, 0.18970078, -0.25793812, -0.8460077, 0.34048408, -0.14095767, 0.4742384, 0
251, 1615494097, -0.42981264, 0.18910041, -0.25396696, -0.8456123, -0.5435018, 0.020646004, 0.13953114, 0
252, 1615510764, -0.43068504, 0.18889755, -0.25329372, -0.8454154, -0.42263547, -0.07662114, 0.24295235, 0
253, 1615527431, -0.4310514, 0.18881454, -0.25337106, -0.8452242, -0.43597057, -0.08213598, 0.23534393, 0
255, 1615560765, -0.43092206, 0.18913148, -0.25512576, -0.8446914, -0.07424332, -0.14276801, 0.30591583, 0
256, 1615577432, -0.4307677, 0.1894854, -0.25628677, -0.8443393, 0.06949384, -0.18702078, 0.3421669, 0
259, 1615627433, -0.43057305, 0.19088997, -0.25958753, -0.84311277, -0.078283206, -0.106118925, 0.2735529, 0
260, 1615644100, -0.43041006, 0.19147506, -0.26028, -0.84284997, 0.05731174, -0.19785993, 0.34910583, 0
261, 1615660767, -0.43034235, 0.19206546, -0.26077905, -0.8425959, 0.05035272, -0.09925048, 0.30650425, 0
263, 1615694101, -0.43030593, 0.19301149, -0.26158017, -0.84214985, 0.050176375, -0.106280625, 0.2875147, 0
264, 1615710768, -0.43024, 0.19331959, -0.26183808, -0.8420327, -0.022170082, -0.08216672, 0.28867435, 0
265, 1615727435, -0.43005982, 0.19345082, -0.26204818, -0.8420292, -0.051951256, -0.03161267, 0.23927498, 0
267, 1615760769, -0.42923847, 0.19319692, -0.26276433, -0.84228337, -0.03364619, -0.08420403, 0.27844715, 0
268, 1615777436, -0.4287254, 0.19288406, -0.26323628, -0.84246904, -0.010598482, -0.09177934, 0.29022312, 0
269, 1615794103, -0.428192, 0.19247572, -0.26373935, -0.8426762, -0.05703735, -0.08836048, 0.2769432, 0
271, 1615827437, -0.42725146, 0.19170019, -0.26451, -0.84308887, 0.101943955, -0.2632864, 0.37299824, 0
274, 1615877438, -0.42744347, 0.19107413, -0.26385683, -0.8433384, -0.009877149, -0.15625836, 0.28373814, 0
275, 1615894105, -0.42759457, 0.19085892, -0.26356867, -0.8434004, -0.100509584, -0.13141623, 0.29317188, 0
276, 1615910772, -0.427613, 0.19063021, -0.2634318, -0.8434856, -0.12813, -0.12676917, 0.26123238, 0
278, 1615944106, -0.42731833, 0.19030419, -0.26345783, -0.84370047, -0.0119361505, -0.14238524, 0.28015518, 0
279, 1615960773, -0.42713577, 0.19018908, -0.2635487, -0.84379053, -0.011309337, -0.15155642, 0.29833508, 0
280, 1615977440, -0.42697993, 0.1900472, -0.26366517, -0.8438648, -0.007927055, -0.14026769, 0.26263142, 0
282, 1616010774, -0.426333, 0.1897743, -0.26424608, -0.8440716, -0.07284706, -0.11354101, 0.26507568, 0
283, 1616027441, -0.42576692, 0.18962955, -0.264783, -0.84422153, -0.18303435, -0.041240487, 0.27330685, 0
284, 1616044108, -0.42491072, 0.18942545, -0.26587227, -0.84435654, -0.3002642, -0.023722213, 0.24640751, 0
287, 1616094109, -0.42104185, 0.18891038, -0.26996064, -0.84511244, -0.04799337, -0.047566514, 0.3108425, 0
290, 1616144110, -0.41741052, 0.18824767, -0.2722723, -0.8463191, 0.2859703, -0.24178357, 0.30369186, 0
292, 1616177444, -0.41657034, 0.1878278, -0.27228704, -0.8468215, 0.07035352, -0.16589803, 0.32078266, 0
294, 1616210778, -0.416442, 0.18750934, -0.27142558, -0.8472316, 0.2003329, -0.24365114, 0.35075665, 0
295, 1616227445, -0.41678002, 0.18757969, -0.2704505, -0.8473618, 0.16737427, -0.22172809, 0.2849493, 0
296, 1616244112, -0.41717333, 0.18759006, -0.269529, -0.84745944, -0.10037358, -0.095724456, 0.29935932, 0
298, 1616277446, -0.4175979, 0.18748534, -0.2681188, -0.84772086, -0.12578781, -0.13259973, 0.26162624, 0
299, 1616294113, -0.4175293, 0.18744189, -0.26771253, -0.84789264, -0.13939802, -0.1222855, 0.2917366, 0
301, 1616327447, -0.41714194, 0.18708366, -0.26758602, -0.84820235, 0.03102142, -0.14103332, 0.29037857, 0
302, 1616344114, -0.41707775, 0.18685775, -0.2674643, -0.84832203, 0.06992838, -0.17051211, 0.28730774, 0
303, 1616360781, -0.41710007, 0.18663013, -0.26721236, -0.8484405, 0.011764772, -0.15906478, 0.29901695, 0
305, 1616394115, -0.41698173, 0.18616118, -0.26699242, -0.848671, -0.08791586, -0.14914863, 0.2939415, 0
306, 1616410782, -0.4167901, 0.18603438, -0.26706526, -0.8487699, -6.954047E-5, -0.22700612, 0.27956104, 0
307, 1616427449, -0.41665885, 0.18598464, -0.26716137, -0.84881496, 0.058529884, -0.17663334, 0.28166866, 0
309, 1616460783, -0.4167592, 0.1857589, -0.26705426, -0.8488488, 0.038203616, -0.12233713, 0.2851467, 0
310, 1616477450, -0.4168702, 0.18557343, -0.2668771, -0.8488908, 0.018733375, -0.123716876, 0.24146843, 0
311, 1616494117, -0.4171471, 0.18521467, -0.26651233, -0.84894776, -0.031424314, -0.16813311, 0.29308414, 0
313, 1616527451, -0.4166757, 0.18433172, -0.26590464, -0.8495617, 0.18699248, -0.31651983, 0.31215477, 0
314, 1616544118, -0.4168202, 0.18411313, -0.26557398, -0.84964144, 0.20036931, -0.29521623, 0.28154182, 0
315, 1616560785, -0.4173659, 0.18398568, -0.26490882, -0.8496088, 0.27738595, -0.27304465, 0.24172306, 0
318, 1616610786, -0.41994822, 0.18392557, -0.26113236, -0.8495186, 0.010046964, -0.22865577, 0.31346798, 0
319, 1616627453, -0.42069793, 0.18398356, -0.26038978, -0.84936297, -0.24913958, -0.1755407, 0.33004475, 0
322, 1616677454, -0.4224061, 0.18642163, -0.25961873, -0.8482188, -0.17254451, -0.17676812, 0.32798004, 0
323, 1616694121, -0.4226739, 0.18776113, -0.25999483, -0.8476746, -0.27292603, -0.06760071, 0.30467415, 0
326, 1616744122, -0.4231107, 0.1918419, -0.2617267, -0.8460084, -0.010216246, -0.019115163, 0.21931458, 0
329, 1616794123, -0.42362854, 0.19406642, -0.26273212, -0.84492946, 0.28067628, -0.21962371, 0.36379623, 0
330, 1616810790, -0.42426485, 0.1946788, -0.26211825, -0.84466004, 0.21760148, -0.11971387, 0.34265327, 0
332, 1616844124, -0.425637, 0.19491142, -0.2606947, -0.84435654, -0.043772552, -0.047406986, 0.31273937, 0
333, 1616860791, -0.4261962, 0.19469471, -0.25998977, -0.8443418, -0.099815354, -0.08274818, 0.27671528, 0
334, 1616877458, -0.4266656, 0.19443919, -0.25930065, -0.8443755, -0.012889266, -0.17530937, 0.29864502, 0
337, 1616927459, -0.42817304, 0.19361213, -0.2579261, -0.8442235, -0.065594204, -0.11804971, 0.2632227, 0
338, 1616944126, -0.42846662, 0.19338292, -0.25799435, -0.8441063, -0.11965609, -0.20647612, 0.31384087, 0
340, 1616977460, -0.42868, 0.19325303, -0.2588696, -0.8437596, -0.0411515, -0.15719275, 0.2822237, 0
341, 1616994127, -0.42875525, 0.19330886, -0.25948173, -0.8435205, 0.094741665, -0.19337904, 0.3181553, 0
342, 1617010794, -0.42888445, 0.19343212, -0.26001388, -0.8432627, 0.08106052, -0.14892824, 0.29930782, 0
344, 1617044128, -0.42898703, 0.1936612, -0.2609745, -0.84286106, -0.051351514, -0.09748261, 0.25554848, 0
345, 1617060795, -0.4288978, 0.19375849, -0.26140442, -0.8427509, 0.071874, -0.16420737, 0.31036663, 0
346, 1617077462, -0.42887977, 0.19383964, -0.2616581, -0.8426627, 0.099792525, -0.12608646, 0.3009224, 0
349, 1617127463, -0.42822146, 0.19366786, -0.26302078, -0.84261274, -0.043061614, -0.13625103, 0.27981663, 0
350, 1617144130, -0.42760083, 0.19362968, -0.26385406, -0.84267634, -0.078357525, -0.114012845, 0.27146626, 0
353, 1617194131, -0.4252181, 0.19362366, -0.26721382, -0.8428246, 0.08090417, -0.22774617, 0.33909988, 0
355, 1617227465, -0.4240058, 0.1939934, -0.26900604, -0.8427802, 0.013012924, -0.11962726, 0.29776, 0
356, 1617244132, -0.4234457, 0.1941195, -0.26972297, -0.84280366, 0.012549303, -0.10724789, 0.28583145, 0
357, 1617260799, -0.42295796, 0.19413008, -0.27025375, -0.8428761, 0.054643106, -0.12311831, 0.30410385, 0
359, 1617294133, -0.42237443, 0.19389015, -0.27028853, -0.8432126, 0.2055102, -0.19923006, 0.32852936, 0
360, 1617310800, -0.42243809, 0.19368228, -0.27001184, -0.8433173, 0.18366826, -0.25375092, 0.33002853, 0
361, 1617327467, -0.4226345, 0.19340064, -0.2697002, -0.84338325, 0.004765995, -0.07160584, 0.28653145, 0
363, 1617360801, -0.4227472, 0.19256312, -0.26916695, -0.8436886, -0.023298236, -0.12518491, 0.2822733, 0
364, 1617377468, -0.42265952, 0.19216163, -0.26896608, -0.84388804, -0.059519183, -0.16510433, 0.27779293, 0
365, 1617394135, -0.42251107, 0.19183835, -0.2688272, -0.84408027, -0.011399524, -0.16941892, 0.30562687, 0
368, 1617444136, -0.42205805, 0.19122058, -0.26836404, -0.84459424, 0.020556822, -0.20646897, 0.29813576, 0
369, 1617460803, -0.421936, 0.19110091, -0.26837486, -0.844679, -0.022377195, -0.17153144, 0.27401066, 0
371, 1617494137, -0.4212226, 0.19080839, -0.26902962, -0.8448928, -0.038511004, -0.13655926, 0.27930164, 0
372, 1617510804, -0.42078477, 0.19062747, -0.26945785, -0.84501547, 0.038690485, -0.17051055, 0.29706573, 0
373, 1617527471, -0.42040342, 0.19045655, -0.2697866, -0.84513867, 0.10635155, -0.1848983, 0.288455, 0
375, 1617560805, -0.4197676, 0.18993346, -0.27011883, -0.84546626, 0.025782052, -0.09433822, 0.27712154, 0
376, 1617577472, -0.4194996, 0.18953623, -0.27002895, -0.8457172, 0.09839677, -0.17226714, 0.2847967, 0
377, 1617594139, -0.4193612, 0.18911341, -0.26969323, -0.84598744, 0.1601412, -0.19543839, 0.2892151, 0
379, 1617627473, -0.41948223, 0.18809444, -0.2686484, -0.84648705, -0.012310535, -0.084378265, 0.31074905, 0
380, 1617644140, -0.41951823, 0.18746209, -0.2680762, -0.8467908, 0.024332738, -0.13537408, 0.3024702, 0
382, 1617677474, -0.41954923, 0.18623133, -0.26709712, -0.8473562, -0.091394894, -0.11118741, 0.2819214, 0
383, 1617694141, -0.41937214, 0.18559718, -0.2669473, -0.8476302, -0.0945652, -0.13927038, 0.31017113, 0
384, 1617710808, -0.4190794, 0.18501927, -0.26689932, -0.84791636, -0.018954905, -0.17907825, 0.31263256, 0
386, 1617744142, -0.4185191, 0.18393587, -0.2668779, -0.8484354, -0.08576896, -0.10528388, 0.37333202, 0
387, 1617760809, -0.4181442, 0.1832181, -0.26687202, -0.8487774, 0.003541395, -0.046636984, 0.31622124, 0
388, 1617777476, -0.41763246, 0.18239185, -0.2667149, -0.8492565, 0.09351649, -0.10453366, 0.24544239, 0
390, 1617810810, -0.41689038, 0.18067825, -0.2657905, -0.8502766, 0.17092529, -0.18463624, 0.30627918, 0
391, 1617827477, -0.41681194, 0.17977938, -0.26505157, -0.85073614, 0.119387254, -0.16564299, 0.2979393, 0
392, 1617844144, -0.41680962, 0.17894295, -0.2641054, -0.85120785, 0.12580343, -0.19411676, 0.30836582, 0
395, 1617894145, -0.4166866, 0.17652129, -0.26174554, -0.85250145, -0.04771053, -0.18770093, 0.27189636, 0
396, 1617910812, -0.41647923, 0.17581986, -0.26132804, -0.85287577, -0.017524213, -0.18898925, 0.2813778, 0
398, 1617944146, -0.4158561, 0.17459789, -0.2606406, -0.853641, 0.035394784, -0.2079569, 0.2759447, 0
399, 1617960813, -0.4156068, 0.17395127, -0.26043338, -0.8539575, 0.12847948, -0.0148708755, 0.5071831, 0
400, 1617977480, -0.41526976, 0.17315644, -0.2605166, -0.8542576, -0.34644082, -0.0037694343, 0.1459589, 0
402, 1618010814, -0.41361666, 0.17170276, -0.26115602, -0.85515743, 0.08296699, -0.22215389, 0.29172897, 0
403, 1618027481, -0.4129892, 0.17116871, -0.26135308, -0.8555074, 0.25706923, -0.23443525, 0.2806921, 0
404, 1618044148, -0.41289318, 0.17078038, -0.2611065, -0.8557066, 0.38250488, -0.34087133, 0.24277782, 0
406, 1618077482, -0.41385752, 0.17075703, -0.2593379, -0.8557832, 0.4885012, -0.54253435, 0.14703369, 0
407, 1618094149, -0.41488543, 0.17106245, -0.25815907, -0.85558087, 0.09529118, -0.15459351, 0.325202, 0
410, 1618144150, -0.41709203, 0.17180777, -0.25611073, -0.85497403, -0.2959144, -0.031256832, 0.356225, 0
411, 1618160817, -0.4171573, 0.17211081, -0.2560816, -0.85489005, -0.17682739, -0.10267403, 0.36437893, 0
413, 1618194151, -0.41730717, 0.17299032, -0.25621098, -0.85460055, 0.044118203, -0.11474753, 0.36828995, 0
414, 1618210818, -0.41752174, 0.17345075, -0.2561703, -0.85441464, 0.099886015, -0.15747806, 0.33963585, 0
415, 1618227485, -0.4178569, 0.17384332, -0.25603047, -0.8542129, 0.07624722, -0.11654089, 0.3045683, 0
417, 1618260819, -0.41860667, 0.1740934, -0.2555237, -0.85394645, 0.04109044, -0.0638771, 0.29046726, 0
418, 1618277486, -0.4190712, 0.17389885, -0.25486898, -0.85395396, 0.22485127, -0.15736106, 0.3294363, 0
419, 1618294153, -0.4198395, 0.17346177, -0.2538523, -0.8539684, 0.2918888, -0.100928955, 0.3353281, 0
421, 1618327487, -0.42204154, 0.17181118, -0.250817, -0.8541134, 0.05264546, -0.039383877, 0.30607796, 0
422, 1618344154, -0.42323068, 0.17066146, -0.24896689, -0.8542968, 0.15423696, -0.18527894, 0.34601974, 0
425, 1618394155, -0.42762202, 0.16640332, -0.24231768, -0.8548617, 0.17716667, -0.29265064, 0.33943558, 0
426, 1618410822, -0.42956826, 0.16499494, -0.23959072, -0.85492754, 0.29414663, -0.29134533, 0.31179237, 0
427, 1618427489, -0.4314486, 0.16371846, -0.23727235, -0.85487264, -0.27520123, -0.010885081, 0.27675056, 0
429, 1618460823, -0.4337528, 0.16152091, -0.2338734, -0.85506135, -0.14821354, -0.1926276, 0.28708935, 0
430, 1618477490, -0.4344675, 0.16067284, -0.23270077, -0.8551781, -0.06361103, -0.15090913, 0.31202412, 0
431, 1618494157, -0.43504474, 0.15992206, -0.23172224, -0.85529125, 0.043013785, -0.13208242, 0.2903347, 0
433, 1618527491, -0.4363612, 0.1584011, -0.22921439, -0.8555792, 0.2223932, -0.14490502, 0.2576723, 0
434, 1618544158, -0.43707484, 0.15746725, -0.22767791, -0.8557975, 0.019870805, 0.028932746, 0.30019283, 0
436, 1618577492, -0.43801606, 0.15543056, -0.22467881, -0.8564812, -0.0122439, -0.08208312, 0.32977962, 0
437, 1618594159, -0.43819752, 0.15441328, -0.22337721, -0.85691255, -0.089645825, -0.019013576, 0.3323574, 0
440, 1618644160, -0.4372572, 0.15053275, -0.21936828, -0.8591163, 0.1078255, 0.07530084, 0.40560246, 0
441, 1618660827, -0.43680423, 0.1486802, -0.21757625, -0.86012435, 0.22036858, 0.16917539, 0.41821766, 0
442, 1618677494, -0.43626082, 0.14625946, -0.21529773, -0.8613877, 0.28203127, 0.40071973, 0.4131136, 0
444, 1618710828, -0.43492007, 0.13884386, -0.2082099, -0.86502755, 0.46445757, 0.8973419, 0.8752413, 0
445, 1618727495, -0.4336492, 0.13300727, -0.20295808, -0.8678263, 0.38060674, 0.789117, 0.6408024, 0
446, 1618744162, -0.432136, 0.12668552, -0.19698554, -0.87089777, 0.31026447, -1.1276218, 0.18211651, 0
448, 1618777496, -0.4294658, 0.116169184, -0.18801832, -0.8756541, -0.098460734, 0.038424447, 0.6724348, 0
449, 1618794163, -0.42804405, 0.11213572, -0.18498601, -0.87751985, -0.49813277, -0.7589709, 0.25694752, 0
450, 1618810830, -0.42666978, 0.10916267, -0.18382035, -0.8788079, -0.13953015, -0.7303492, 0.46547222, 0
452, 1618844164, -0.42321268, 0.10474669, -0.18405128, -0.88096607, 0.6449074, -0.50279665, 0.21576881, 0
453, 1618860831, -0.42123452, 0.102412105, -0.18427263, -0.8821417, 0.2870093, -0.00789336, 0.29227257, 0
454, 1618877498, -0.4192094, 0.09993087, -0.18476579, -0.8832871, -0.42154995, -0.09232896, 0.23350048, 0
456, 1618910832, -0.4146916, 0.09445627, -0.18674763, -0.8856022, 0.36724928, -0.30416593, 2.0980835E-5, 0
457, 1618927499, -0.412307, 0.09218979, -0.18789053, -0.88671196, -0.98563814, -0.008936159, 0.27825546, 0
458, 1618944166, -0.4102549, 0.090003364, -0.18918231, -0.8876134, 0.10603253, -0.25446704, 0.281559, 0
460, 1618977500, -0.4055692, 0.08596103, -0.19185078, -0.8895925, 0.10472061, -0.0836276, 0.3958435, 0
461, 1618994167, -0.4033543, 0.0839891, -0.1931343, -0.8905096, -0.11047742, -0.19496141, 0.3372345, 0
463, 1619027501, -0.3991558, 0.08030078, -0.1944148, -0.89246094, -0.14773284, -0.09168255, 0.19238281, 0
464, 1619044168, -0.39772108, 0.078504026, -0.19454005, -0.89323354, -0.93460184, -0.027358769, 0.17307663, 0
467, 1619094169, -0.3943076, 0.073243655, -0.19482104, -0.89513063, 0.1187035, 0.06798784, 0.57486343, 0
468, 1619110836, -0.39333794, 0.07139484, -0.19394505, -0.89589643, 0.51031184, -0.15586564, 0.3787117, 0
469, 1619127503, -0.39243266, 0.069992125, -0.19210804, -0.89679945, 0.9891284, -0.21156575, 0.37259674, 0
471, 1619160837, -0.39021742, 0.068068, -0.18677564, -0.89903784, -0.20176396, -0.08197203, 0.24101734, 0
472, 1619177504, -0.38911965, 0.067302495, -0.1840941, -0.90012366, 0.22393493, 0.003934275, 0.32641125, 0
473, 1619194171, -0.38751614, 0.066987306, -0.18156467, -0.9013519, 0.64372617, -0.33738145, -0.06526947, 0
475, 1619227505, -0.38452756, 0.06761909, -0.17687899, -0.9035137, -0.24025229, -0.43764386, -0.1585207, 0
476, 1619244172, -0.38309044, 0.06896408, -0.17457744, -0.9044696, 1.0090592, -0.47079742, -0.063384056, 0
477, 1619260839, -0.3812049, 0.07076689, -0.17214386, -0.9055928, 0.33467734, -0.027560601, 0.113863945, 0
479, 1619294173, -0.37920555, 0.07450281, -0.16815297, -0.9068816, -1.7530222, -0.21394594, 0.25779724, 0
481, 1619327507, -0.37899792, 0.078455344, -0.1658814, -0.90705353, -0.16365866, -0.14455332, 0.09536934, 0
483, 1619360841, -0.3802583, 0.084081165, -0.1649394, -0.9061933, -1.205169, -0.59022355, -1.0251875, 0
484, 1619377508, -0.3814494, 0.089176536, -0.16634594, -0.9049475, -0.22694343, -1.4995741, -2.2898755, 0
485, 1619394175, -0.38180655, 0.09665502, -0.16735807, -0.90384185, 0.7018318, -0.39765543, 0.9445629, 0
487, 1619427509, -0.38292226, 0.10879455, -0.15931997, -0.9034425, 1.1057773, -0.7511352, -0.08869362, 0
488, 1619444176, -0.38252544, 0.11817928, -0.15874743, -0.90253204, 0.6113539, -0.9876841, 1.018713, 0
490, 1619477510, -0.37739503, 0.142004, -0.16590327, -0.89996725, -1.0393963, -1.3699167, 1.922492, 0
491, 1619494177, -0.3752061, 0.15753323, -0.17427419, -0.8967103, 0.40294665, -2.0666418, 1.4527521, 0
492, 1619510844, -0.3747208, 0.17815101, -0.18564272, -0.89075255, 0.8784905, -2.5861454, 1.5661802, 0
494, 1619544178, -0.3758021, 0.24291208, -0.21185485, -0.8688735, 0.5804346, -2.019014, 1.049489, 0
496, 1619577512, -0.3767813, 0.32290798, -0.22025608, -0.83982766, 1.7336103, 1.2632375, -0.9482384, 0
498, 1619610846, -0.38432994, 0.3691742, -0.21465921, -0.8185226, -0.46097976, 5.8462963, -1.3083925, 0
499, 1619627513, -0.38743356, 0.37443554, -0.21342516, -0.81498474, -2.3091307, 3.6780066, -0.16246891, 0
500, 1619644180, -0.38748, 0.37253302, -0.21522284, -0.8153616, -1.3777473, 0.3449044, 1.2825994, 0
502, 1619677514, -0.3849847, 0.37935972, -0.21849805, -0.81252, 2.1793685, -5.24113, 1.6363087, 0
503, 1619694181, -0.3840661, 0.4015524, -0.21573362, -0.80297256, 1.2807748, -6.823347, 2.4019566, 0
504, 1619710848, -0.3821424, 0.43966132, -0.21223599, -0.7846516, 0.26345673, -6.462321, 2.4593735, 0
506, 1619744182, -0.37771043, 0.5407661, -0.21461102, -0.72035134, -1.058233, -5.618505, 7.947918, 0
507, 1619760849, -0.3793575, 0.58592916, -0.22723694, -0.6791136, 3.8582895, -16.563202, 7.2910957, 0
508, 1619777516, -0.38597822, 0.62721306, -0.24331969, -0.63125056, 0.61841387, -9.195617, 5.3517513, 0
511, 1619827517, -0.36929846, 0.6801522, -0.24055049, -0.5858365, 9.922218, -20.776588, 0.65143013, 0
512, 1619844184, -0.3532214, 0.6882419, -0.2254178, -0.59228504, -4.591296, 1.4359946, -9.672726, 0
514, 1619877518, -0.35319132, 0.69185627, -0.22677507, -0.5875551, 7.5217323, -20.038754, -5.2899885, 0
515, 1619894185, -0.34924293, 0.68731225, -0.2258808, -0.5955385, 3.7746925, -16.860931, -8.065905, 0
517, 1619927519, -0.34808558, 0.66876614, -0.22931044, -0.6156802, -0.06696471, -12.202637, -8.923724, 0
518, 1619944186, -0.35251242, 0.6553364, -0.23061743, -0.62701035, -0.15543203, -13.039707, -7.43054, 0
519, 1619960853, -0.3603538, 0.6374779, -0.23057383, -0.64082754, -0.31932625, -11.696942, -7.492754, 0
521, 1619994187, -0.38514912, 0.59026647, -0.22877188, -0.67154, -1.5663359, -10.287344, -5.695692, 0
522, 1620010854, -0.40230352, 0.5594151, -0.22763257, -0.68807495, -1.3225, -9.172437, -4.0863433, 0
523, 1620027521, -0.42033035, 0.5249971, -0.2252931, -0.70498276, 0.0032912283, -7.811006, -1.8532357, 0
525, 1620060855, -0.45255494, 0.44734585, -0.22200578, -0.738814, -0.20077533, -2.844377, -0.7181902, 0
526, 1620077522, -0.4640219, 0.40833244, -0.22407106, -0.75352347, -0.49140185, -0.55871844, -0.20860004, 0
527, 1620094189, -0.46917403, 0.37013525, -0.22862694, -0.76854587, -0.20190357, -0.5286012, 3.8947134, 0
529, 1620127523, -0.451096, 0.29909402, -0.23204812, -0.8082488, -1.683549, 2.13941, 6.824705, 0
530, 1620144190, -0.4306808, 0.26576254, -0.2316599, -0.8308281, -3.7253938, 5.2782273, 7.3017654, 0
531, 1620160857, -0.40816498, 0.23408872, -0.22957043, -0.8520318, -5.5875697, 8.012008, 7.3566494, 0
533, 1620194191, -0.37504333, 0.17402741, -0.21936658, -0.8837377, -7.4069037, 9.723871, 5.556617, 0
534, 1620210858, -0.36782223, 0.14719377, -0.21290304, -0.8931799, -5.6692224, 9.808215, 4.0548725, 0
535, 1620227525, -0.36512825, 0.12445006, -0.20581941, -0.8993826, -3.5276043, 9.540638, 2.4326649, 0
538, 1620277526, -0.3599688, 0.07772995, -0.19626069, -0.908801, 1.711855, 9.446765, 2.0063353, 0
539, 1620294193, -0.35139465, 0.06593642, -0.19873561, -0.9125434, 1.9254419, 8.984783, -2.0869427, 0
541, 1620327527, -0.32797608, 0.061907392, -0.21026027, -0.91893786, -0.37748688, 11.483202, -7.636015, 0
542, 1620344194, -0.31941396, 0.07285394, -0.21617803, -0.9197778, -2.4999692, 12.515517, -9.724848, 0
543, 1620360861, -0.31566265, 0.09121923, -0.22562812, -0.91716146, -4.2826285, 14.35179, -10.024845, 0
545, 1620394195, -0.31946707, 0.12201718, -0.26078507, -0.90282935, -2.8684607, 18.473791, -1.7005205, 0
546, 1620410862, -0.32831165, 0.13413689, -0.27521843, -0.8936055, -2.9857779, 18.17392, -5.1557903, 0
548, 1620444196, -0.36259657, 0.16094297, -0.29510754, -0.8692466, 2.078774, 24.418856, 9.127977, 0
549, 1620460863, -0.38490522, 0.18309003, -0.28208616, -0.85954094, 21.381184, 31.490772, 7.308449, 0
550, 1620477530, -0.38936317, 0.21041396, -0.24626195, -0.8622844, 2.449521, 5.3108654, 8.535257, 0
553, 1620527531, -0.3975682, 0.22553076, -0.24311961, -0.8555846, -3.6521912, -0.6541738, -0.4228611, 0
554, 1620544198, -0.3894612, 0.23172632, -0.25137097, -0.85527337, -2.2294908, 1.2613546, 0.03851223, 0
556, 1620577532, -0.38231772, 0.24735302, -0.26730558, -0.849267, 2.4645374, -2.3989258, 0.67974854, 0
557, 1620594199, -0.38614962, 0.26139525, -0.27109745, -0.84209514, 1.611527, -2.5114062, 1.3641214, 0
558, 1620610866, -0.3911761, 0.28012797, -0.2722564, -0.83333254, -0.53889644, -0.8978028, 0.5075655, 0
560, 1620644200, -0.3927928, 0.3169461, -0.27384648, -0.81873333, 0.5976511, 2.2595277, 0.01864624, 0
561, 1620660867, -0.39310157, 0.32858124, -0.27108014, -0.81490993, 1.8672197, 1.7947356, 0.46089458, 0
562, 1620677534, -0.39586383, 0.33770436, -0.26588485, -0.81154776, 0.9899846, 0.11869924, 0.58335304, 0
564, 1620710868, -0.40241367, 0.36256313, -0.2533987, -0.8015345, -0.42553803, -2.827686, 0.86279106, 0
565, 1620727535, -0.40257263, 0.38623446, -0.24746475, -0.79219735, -0.291576, -4.1404, 1.0140228, 0
568, 1620777536, -0.39156878, 0.52280027, -0.23440444, -0.7200454, -1.2562594, -10.56435, 6.9888287, 0
569, 1620794203, -0.38864845, 0.5774721, -0.24253285, -0.6758057, -0.9230513, -11.643867, 12.271561, 0
571, 1620827537, -0.40432283, 0.66075987, -0.2833048, -0.5654335, 10.292239, -37.018787, 27.366524, 0
572, 1620844204, -0.40782237, 0.6780008, -0.27705407, -0.5452466, 18.043797, -29.2907, 5.127002, 0
573, 1620860871, -0.40308, 0.6815388, -0.2650934, -0.5502852, 5.984671, -18.274384, 2.6000319, 0
575, 1620894205, -0.41484153, 0.69649374, -0.26174736, -0.523783, 11.360111, -17.849009, -5.4740047, 0
576, 1620910872, -0.41367012, 0.70201147, -0.26261735, -0.5168618, 5.9932694, -14.097736, -8.990372, 0
577, 1620927539, -0.41191554, 0.7066944, -0.26574856, -0.51023847, 1.0196643, -13.887366, -8.073245, 0
579, 1620960873, -0.41471788, 0.70641303, -0.2695709, -0.5063382, -1.7380222, -14.118627, -13.0982065, 0
580, 1620977540, -0.41711733, 0.70239305, -0.26908246, -0.5102046, -2.2118149, -14.931479, -14.684038, 0
583, 1621027541, -0.42654285, 0.65810424, -0.26387733, -0.5615922, -1.4184463, -10.844445, -7.6929297, 0
584, 1621044208, -0.4350133, 0.6313968, -0.26239586, -0.5859242, -0.49950272, -11.738435, -2.1873012, 0
585, 1621060875, -0.44438624, 0.5982627, -0.25876495, -0.61457336, 1.1854173, -8.9349985, -0.94779396, 0
587, 1621094209, -0.45936626, 0.5317834, -0.25686413, -0.66352624, -1.6697916, 0.5952447, -1.9137273, 0
588, 1621110876, -0.46561295, 0.5005152, -0.260724, -0.68173975, -0.7790479, -1.0405107, 1.995409, 0
589, 1621127543, -0.4691261, 0.4705879, -0.26199666, -0.6999162, -0.3443825, -0.5426948, 4.7905445, 0
591, 1621160877, -0.47234035, 0.4147544, -0.2592947, -0.73327816, -0.6369965, 4.3555155, 5.1376867, 0
592, 1621177544, -0.47158778, 0.39135444, -0.25437182, -0.74819684, -0.5103028, 5.292723, 3.203762, 0
593, 1621194211, -0.46966714, 0.37172005, -0.24896137, -0.76112574, -1.3946964, 4.7844996, 0.80217075, 0
595, 1621227545, -0.46127233, 0.34113902, -0.24014512, -0.78309596, -0.8931763, 2.630769, 2.7782001, 0
596, 1621244212, -0.4546256, 0.3283997, -0.23585257, -0.7936623, -0.5621092, 2.4895236, 3.6606865, 0
598, 1621277546, -0.43858004, 0.30504936, -0.22256747, -0.8155448, -0.1229043, 1.5515478, 1.9579048, 0
599, 1621294213, -0.42928594, 0.29586336, -0.21455392, -0.8259552, 0.27808824, 0.5767303, -0.065927505, 0
600, 1621310880, -0.4185667, 0.28843993, -0.20732105, -0.8358704, 0.986766, -0.7294873, 0.18826771, 0
602, 1621344214, -0.39216983, 0.2734645, -0.19306439, -0.8568567, 1.9520768, -1.9908558, 2.113412, 0
603, 1621360881, -0.37771478, 0.26327002, -0.18622075, -0.8679858, 0.9561282, -1.8271562, 2.2141447, 0
604, 1621377548, -0.36319658, 0.2508785, -0.18109691, -0.8788681, 1.0195762, -1.7600563, 1.4734259, 0
606, 1621410882, -0.33561057, 0.2239417, -0.17311774, -0.8985004, 0.5152213, -1.1075752, 2.1267204, 0
607, 1621427549, -0.3239546, 0.20843326, -0.1698789, -0.9070872, -0.6395804, -0.36254808, 2.787961, 0
610, 1621477550, -0.30632874, 0.15130858, -0.1693404, -0.92447233, -1.5614548, 1.8728421, 2.3805037, 0
611, 1621494217, -0.30537787, 0.13054527, -0.17085347, -0.92766833, -1.8276473, 2.7654784, 2.2412815, 0
612, 1621510884, -0.3061292, 0.10877047, -0.17358159, -0.9297205, -1.9890094, 4.307095, 2.5636168, 0
614, 1621544218, -0.30985945, 0.062328763, -0.17479022, -0.93252766, -0.8390133, 7.4787393, 0.521019, 0
615, 1621560885, -0.31181195, 0.041715704, -0.17303659, -0.9333533, -1.200372, 8.707796, -1.562623, 0
616, 1621577552, -0.3127295, 0.022388425, -0.17269082, -0.933774, -1.0303965, 10.135702, -1.6520004, 0
618, 1621610886, -0.310866, -0.008254327, -0.17213696, -0.93472993, -1.3902996, 10.801015, -4.169104, 0
619, 1621627553, -0.30988303, -0.019202985, -0.17216139, -0.93489105, -1.5026761, 11.999381, -3.180873, 0
620, 1621644220, -0.30993864, -0.02716688, -0.17154235, -0.93478894, -0.82014674, 10.8749275, -4.9891543, 0
622, 1621677554, -0.31117013, -0.033091903, -0.17233166, -0.93404317, 0.15755881, 10.009207, -4.602369, 0
625, 1621727555, -0.30236426, -0.018753476, -0.18406184, -0.93509495, -0.024673805, 11.338355, -4.5421467, 0
626, 1621744222, -0.29839095, -0.007399924, -0.19217922, -0.93489695, -0.5411233, 12.696803, -6.6592884, 0
627, 1621760889, -0.29633674, 0.009068154, -0.20564243, -0.9326685, -1.2882739, 16.31239, -6.7516747, 0
629, 1621794223, -0.30607936, 0.05565093, -0.23208167, -0.92163646, -1.7212107, 22.158615, -3.510119, 0
630, 1621810890, -0.3204433, 0.08676058, -0.24398562, -0.91121733, -0.38775685, 26.213127, -0.55681133, 0
631, 1621827557, -0.34005287, 0.12995964, -0.21335185, -0.9066492, 7.6037874, 23.784637, 28.731346, 0
633, 1621860891, -0.36774343, 0.16530861, -0.18595466, -0.8960557, 10.558643, -10.0246315, -3.8254857, 0
634, 1621877558, -0.3703922, 0.1913123, -0.18828769, -0.8892773, -7.5379243, 1.1174588, 4.869788, 0
635, 1621894225, -0.36875662, 0.21808499, -0.19599512, -0.8821, -1.776543, 0.8867408, 1.7260885, 0
637, 1621927559, -0.36569762, 0.27730978, -0.20828708, -0.86373496, 2.8937035, 1.2619131, -0.1058712, 0
639, 1621960893, -0.3706723, 0.32173336, -0.21020754, -0.84555274, -0.6757409, 0.2702019, 0.500556, 0
641, 1621994227, -0.37235692, 0.3694381, -0.21623492, -0.823508, -0.34493604, -2.8240862, 1.3545551, 0
642, 1622010894, -0.37047163, 0.40303534, -0.21875766, -0.8077843, -0.032963578, -4.2346272, 1.3690529, 0
643, 1622027561, -0.36546978, 0.4457541, -0.21979667, -0.78707147, 0.74257064, -4.446172, 1.212245, 0
645, 1622060895, -0.35110545, 0.55356, -0.21679854, -0.7234305, -0.95162874, -9.111223, 7.9827614, 0
646, 1622077562, -0.34586257, 0.6116967, -0.2276001, -0.6741376, 2.4133043, -17.681963, 15.511341, 0
647, 1622094229, -0.35122478, 0.6619594, -0.25136042, -0.6126384, 5.9412107, -20.475302, 12.611479, 0
649, 1622127563, -0.35138902, 0.7262301, -0.28708804, -0.51648164, 45.21051, -43.560574, 10.784857, 0
650, 1622144230, -0.32506412, 0.7306571, -0.2857147, -0.5281079, 9.141847, 7.2616577, -0.94048977, 0
651, 1622160897, -0.33773974, 0.7387934, -0.30410653, -0.49768707, 1.646557, 5.775708, -1.531395, 0
654, 1622210898, -0.35293528, 0.7524556, -0.3472256, -0.4344407, -7.445273, -20.031328, -10.2352295, 0
656, 1622244232, -0.37325433, 0.7465128, -0.35614014, -0.42026308, -6.127745, -20.471207, -12.831642, 0
657, 1622260899, -0.38816404, 0.7369908, -0.35373145, -0.42556354, -5.23298, -17.05661, -13.020687, 0
658, 1622277566, -0.40374053, 0.72501326, -0.34606493, -0.4377734, -4.272891, -15.228535, -12.517146, 0
660, 1622310900, -0.4341476, 0.69470036, -0.31673902, -0.4781639, -1.291733, -11.010831, -11.062527, 0
661, 1622327567, -0.4465272, 0.6782262, -0.29509968, -0.5035834, -0.273876, -9.587299, -10.353449, 0
662, 1622344234, -0.45772058, 0.6597192, -0.27153498, -0.5306489, -0.57938176, -8.723296, -9.049572, 0
664, 1622377568, -0.48472923, 0.60653275, -0.2312523, -0.58628917, 0.35532928, -6.834166, -6.9053087, 0
665, 1622394235, -0.5001625, 0.57365555, -0.21613848, -0.61163557, 0.3668154, -4.2119117, -5.9474936, 0
666, 1622410902, -0.51596004, 0.5384986, -0.20631588, -0.63347876, 1.4505936, -3.8486338, -3.996951, 0
668, 1622444236, -0.533679, 0.4672429, -0.20217568, -0.67531693, 2.7553108, -4.3809047, -0.6545687, 0
669, 1622460903, -0.5337442, 0.43190747, -0.20737237, -0.6968695, 2.6946766, -3.3219957, 4.6279125, 0
670, 1622477570, -0.52900666, 0.3979857, -0.21251145, -0.71878743, 2.1012034, -0.7123852, 6.784191, 0
672, 1622510904, -0.5071893, 0.3332343, -0.2189815, -0.7640798, 1.5650494, 1.4852287, 8.928572, 0
673, 1622527571, -0.4899144, 0.3027165, -0.21978903, -0.787462, 1.5208093, 2.8976476, 7.1567974, 0
674, 1622544238, -0.46917477, 0.27432576, -0.21828032, -0.81057453, 0.50315785, 2.943662, 7.44314, 0
676, 1622577572, -0.42815426, 0.2156578, -0.21506584, -0.8508698, -2.442732, 4.4783654, 6.9445934, 0
677, 1622594239, -0.41222885, 0.18832354, -0.20862566, -0.8666798, -1.6264267, 4.712818, 5.8119545, 0
679, 1622627573, -0.3898716, 0.13872214, -0.19073974, -0.8901864, -0.2830379, 5.11868, 5.808422, 0
681, 1622660907, -0.3724207, 0.0909021, -0.18249579, -0.90542364, 0.121913046, 6.309498, 4.2538614, 0
683, 1622694241, -0.35377306, 0.05024498, -0.17828038, -0.91683877, -1.4199955, 8.761531, 0.23536682, 0
684, 1622710908, -0.3462666, 0.034073744, -0.17656747, -0.9207711, -1.8428515, 9.663897, -0.7685766, 0
685, 1622727575, -0.34021008, 0.02018397, -0.17405263, -0.92391145, -1.5303888, 10.525373, -0.8467779, 0
687, 1622760909, -0.331435, 0.0034910887, -0.16998065, -0.92806375, -1.92197, 10.028984, -3.4458513, 0
688, 1622777576, -0.32755893, -0.002202332, -0.17024918, -0.9293937, -1.7233267, 10.1974745, -2.4100852, 0
689, 1622794243, -0.3238062, -0.0061529055, -0.17154734, -0.9304516, -2.0189202, 8.702205, -4.075899, 0
691, 1622827577, -0.3170038, -0.0063353777, -0.17584163, -0.9319899, -2.3069553, 7.706187, -2.8892322, 0
692, 1622844244, -0.31421596, -0.0037980303, -0.17826165, -0.9324879, -2.5672731, 7.5382204, -1.7733774, 0
693, 1622860911, -0.3120911, -4.68567E-4, -0.18140846, -0.93260217, -1.9393864, 7.962488, -0.4689188, 0
696, 1622910912, -0.30671358, 0.007971883, -0.19336925, -0.9319489, -1.0351943, 6.74656, -2.1357374, 0
697, 1622927579, -0.3037183, 0.012349077, -0.19890037, -0.931718, -0.81240857, 6.96727, -2.137601, 0
699, 1622960913, -0.2955838, 0.025524288, -0.21208057, -0.9311594, -0.64009917, 11.05522, -5.1465287, 0
700, 1622977580, -0.29178935, 0.036767036, -0.22187468, -0.92969656, -1.1618024, 14.877167, -5.559863, 0
701, 1622994247, -0.28870603, 0.05125655, -0.23301348, -0.9272449, -1.936945, 17.355223, -6.1299086, 0
703, 1623027581, -0.2963142, 0.09704557, -0.2563342, -0.914948, -4.172239, 24.016224, -2.9418626, 0
704, 1623044248, -0.3098443, 0.1238326, -0.2658148, -0.9044676, -2.047299, 25.97719, 3.9731445, 0
706, 1623077582, -0.35623398, 0.19670953, -0.24222203, -0.8807885, 7.1709366, 33.89039, 16.94761, 0
707, 1623094249, -0.37254602, 0.23044403, -0.22097816, -0.8713959, -20.739376, 0.84659356, 10.127377, 0
708, 1623110916, -0.39483845, 0.2511381, -0.2246841, -0.85475516, 7.6793704, -10.390622, -1.8140593, 0
711, 1623160917, -0.39003184, 0.35739827, -0.22084323, -0.8194065, 0.022666616, 3.388563, -1.7893028, 0
712, 1623177584, -0.3880844, 0.38368863, -0.2218622, -0.808089, 3.4489403, 2.458381, -0.8049431, 0
714, 1623210918, -0.39107504, 0.42636, -0.22135289, -0.7850717, -1.5338682, -1.9056348, 2.0915976, 0
715, 1623227585, -0.38826585, 0.45365775, -0.22458035, -0.77010715, -0.81667477, -4.8584414, 1.568202, 0
716, 1623244252, -0.3825816, 0.49126536, -0.22671632, -0.74896365, 0.07182813, -5.898293, 2.007719, 0
718, 1623277586, -0.3615698, 0.5959785, -0.2306411, -0.6789247, -2.4700265, -11.2748995, 10.167479, 0
719, 1623294253, -0.3504721, 0.653016, -0.24148436, -0.62648386, 7.625486, -27.987036, 16.935778, 0
720, 1623310920, -0.3542673, 0.70417726, -0.26462677, -0.5555706, 12.407276, -20.887821, 16.862858, 0
722, 1623344254, -0.346928, 0.74084866, -0.30414343, -0.4881986, 43.090115, -35.35391, 12.217932, 0
723, 1623360921, -0.33893853, 0.7454341, -0.32364875, -0.4740856, -6.1651306, 20.185146, 2.8573408, 0
726, 1623410922, -0.36308458, 0.7658186, -0.36848444, -0.3820572, -5.3458877, -23.13716, -9.304586, 0
727, 1623427589, -0.36724082, 0.7705567, -0.37427634, -0.36242378, -3.9236822, -29.366413, -17.034159, 0
728, 1623444256, -0.36832437, 0.7703783, -0.37783104, -0.35798764, -3.6567695, -29.429182, -21.497055, 0
730, 1623477590, -0.35974467, 0.7603065, -0.3733672, -0.3913716, -3.3549268, -21.280247, -20.578938, 0
731, 1623494257, -0.3529824, 0.75093263, -0.3651303, -0.4221854, -1.4113292, -18.415379, -17.94265, 0
733, 1623527591, -0.3485068, 0.71755105, -0.3446892, -0.49488372, -2.4946814, -16.399937, -11.402301, 0
734, 1623544258, -0.35560203, 0.68956476, -0.33485344, -0.53476906, -2.8593607, -12.132735, -9.899598, 0
735, 1623560925, -0.37017548, 0.655473, -0.326918, -0.57140815, -5.370224, -10.503397, -7.3054457, 0
737, 1623594259, -0.4194697, 0.57220715, -0.31490606, -0.6304883, -7.745494, -7.412971, -0.6289644, 0
738, 1623610926, -0.44687372, 0.52508765, -0.3094655, -0.65488565, -6.1079044, -9.677237, 5.193343, 0
739, 1623627593, -0.4695369, 0.4752559, -0.30187535, -0.68014365, -5.002675, -3.883964, 8.555616, 0
741, 1623660927, -0.49094975, 0.37874418, -0.29146978, -0.7284391, -0.88377154, 9.235044, 15.08848, 0
742, 1623677594, -0.49129605, 0.33753312, -0.28520644, -0.75060904, -8.969234, 29.446821, 24.385769, 0
743, 1623694261, -0.48711747, 0.3057927, -0.2702813, -0.7721479, 0.69510996, 17.386007, 4.1890497, 0
745, 1623727595, -0.4593022, 0.26768684, -0.24690929, -0.81023335, -2.1528773, 12.395422, 5.9269724, 0
746, 1623744262, -0.44883335, 0.25168976, -0.2318686, -0.8255271, -3.2651472, 10.706762, 4.1358786, 0
747, 1623760929, -0.44166607, 0.23476231, -0.21784395, -0.83810437, -2.2010376, 8.266667, 4.252466, 0
749, 1623794263, -0.43279123, 0.19450493, -0.18756528, -0.86007905, -1.1488159, 7.455781, 2.2780561, 0
750, 1623810930, -0.43332088, 0.17536336, -0.16987962, -0.8675705, 0.1709878, 6.7693706, -0.047097206, 0
753, 1623860931, -0.4314691, 0.12671883, -0.13461624, -0.8830131, 4.9825506, 3.8170073, -2.935092, 0
754, 1623877598, -0.4251397, 0.11534387, -0.12984513, -0.8883409, 3.9839785, 3.601013, -2.6068707, 0
755, 1623894265, -0.41730538, 0.10515189, -0.12830336, -0.8935292, 2.308767, 3.036352, -1.1295195, 0
757, 1623927599, -0.39716402, 0.089678034, -0.1316118, -0.903855, 0.7025351, 2.7411273, -1.0862436, 0
758, 1623944266, -0.38687053, 0.08583475, -0.13193178, -0.9086335, -0.030214397, 3.3891306, 1.4434052, 0
760, 1623977600, -0.37309045, 0.07485539, -0.12953037, -0.9156851, -2.1377907, 2.5364788, -1.1118641, 0
761, 1623994267, -0.37070796, 0.07027945, -0.12842159, -0.9171703, -1.5551158, 2.3971813, -0.5317669, 0
762, 1624010934, -0.37042663, 0.06637248, -0.12548159, -0.9179816, -0.6094268, 2.1236956, 0.36652565, 0
764, 1624044268, -0.37376478, 0.05878227, -0.1203023, -0.9178393, -0.8806682, 1.2779816, -1.8284421, 0
765, 1624060935, -0.3754837, 0.055805232, -0.12001648, -0.9173608, -0.04070402, 1.7826394, 0.23402023, 0
768, 1624110936, -0.372605, 0.044268083, -0.119435206, -0.91923785, 0.385445, 3.747688, -1.0742903, 0
769, 1624127603, -0.36951983, 0.040104028, -0.12023455, -0.92056906, 0.46607178, 5.16674, 0.6445961, 0
770, 1624144270, -0.3665864, 0.03517066, -0.120921545, -0.92185277, -0.19819061, 5.112531, -1.9882174, 0
772, 1624177604, -0.36198604, 0.029878637, -0.12575069, -0.92321026, 1.1343265, 5.9426246, -2.0232944, 0
773, 1624194271, -0.35810676, 0.027646426, -0.13124382, -0.92402774, 2.3772867, 6.714583, -1.9323883, 0
774, 1624210938, -0.3519236, 0.027109817, -0.13871396, -0.9253271, 3.536613, 6.4645357, -4.348048, 0
776, 1624244272, -0.3320339, 0.03429514, -0.160234, -0.9289562, 2.9787734, 8.8460865, -2.5232277, 0
777, 1624260939, -0.32102376, 0.039630834, -0.17252171, -0.93041193, 1.491017, 10.236685, -4.966039, 0
778, 1624277606, -0.31300196, 0.04818783, -0.18705899, -0.929932, 0.14357969, 14.307838, -6.598609, 0
780, 1624310940, -0.30766696, 0.076781005, -0.22114106, -0.9222794, 1.3955503, 25.474302, -4.53756, 0
782, 1624344274, -0.32696, 0.13367118, -0.24839275, -0.9019907, -2.455751, 31.027096, -2.3834362, 0
784, 1624377608, -0.3789628, 0.2163977, -0.2250079, -0.87119913, -19.760263, 41.523746, 35.263798, 0
785, 1624394275, -0.3937337, 0.24527067, -0.21708542, -0.8589221, -3.2521713, -13.244636, -2.3412924, 0
787, 1624427609, -0.3881851, 0.31140584, -0.2200341, -0.8390355, 0.49752218, -0.21027629, -0.3989706, 0
788, 1624444276, -0.3844615, 0.3413436, -0.22543292, -0.8275933, 0.4817167, -0.13116232, 1.0436411, 0
789, 1624460943, -0.3821526, 0.3720832, -0.23281135, -0.81324625, -0.7457188, -1.308625, 2.2542677, 0
791, 1624494277, -0.3724786, 0.46580917, -0.24231942, -0.7652581, 0.0174685, -7.418804, 4.371563, 0
792, 1624510944, -0.36473823, 0.531175, -0.2432514, -0.7250551, -0.16085288, -13.19079, 10.418995, 0
793, 1624527611, -0.35832804, 0.5990428, -0.2516689, -0.6704242, 3.2407455, -21.500723, 18.396976, 0
795, 1624560945, -0.36603373, 0.71743655, -0.29711908, -0.51291454, 36.54842, -36.858486, 32.25127, 0
797, 1624594279, -0.30795562, 0.7607363, -0.31647837, -0.47575432, -2.6811721, 9.366465, 2.4089231, 0
799, 1624627613, -0.34103808, 0.77906644, -0.3660735, -0.37788334, 0.5930138, -46.03373, -8.453453, 0
800, 1624644280, -0.35131308, 0.7825997, -0.37478274, -0.3517269, -11.156255, -26.810476, -13.660254, 0
801, 1624660947, -0.3754706, 0.78035283, -0.38028145, -0.32482994, -13.561127, -21.955196, -18.998093, 0
803, 1624694281, -0.42774254, 0.76500684, -0.36825466, -0.3102361, -7.6904373, -23.705027, -27.41508, 0
804, 1624710948, -0.44882488, 0.75038934, -0.35361376, -0.33239484, -5.9927015, -18.895247, -22.787487, 0
805, 1624727615, -0.46632698, 0.7323152, -0.33511025, -0.3660761, -3.8034132, -15.802704, -17.85784, 0
807, 1624760949, -0.49218327, 0.68358624, -0.28808594, -0.4555536, -1.5793656, -11.695653, -9.681783, 0
808, 1624777616, -0.50556296, 0.6510827, -0.2626406, -0.501572, -2.313174, -7.2173905, -6.4044495, 0
809, 1624794283, -0.5208845, 0.61295944, -0.24031243, -0.54338497, -1.5601833, -5.8717766, -4.932591, 0
811, 1624827617, -0.54263556, 0.5339524, -0.201668, -0.61630225, 0.14694022, -1.5905807, -4.5843825, 0
812, 1624844284, -0.5547021, 0.496743, -0.19166239, -0.63943297, 1.7687515, -1.537181, 0.90681267, 0
814, 1624877618, -0.5691354, 0.4235892, -0.17625701, -0.6823838, 10.268144, -4.3852625, 5.2846727, 0
815, 1624894285, -0.5628443, 0.39100283, -0.17634244, -0.70660007, 9.532929, -2.6998086, 5.7992744, 0
816, 1624910952, -0.5474966, 0.3604014, -0.1822646, -0.73293585, 7.021881, 0.43859568, 6.374983, 0
818, 1624944286, -0.5016733, 0.3125874, -0.19178623, -0.7835102, 2.0190725, 2.057722, 7.097069, 0
819, 1624960953, -0.4783265, 0.28957248, -0.19404091, -0.80607486, 0.43565312, 3.3389213, 7.5054226, 0
820, 1624977620, -0.4581097, 0.26773265, -0.19256441, -0.8254881, -0.6833164, 4.594705, 5.4727154, 0
822, 1625010954, -0.4322863, 0.2232806, -0.18700734, -0.85343987, 0.17074384, 4.1357684, 3.9769382, 0
824, 1625044288, -0.41835287, 0.18305713, -0.18147823, -0.87097275, -1.2755702, 5.0200987, 1.6321669, 0
826, 1625077622, -0.40963167, 0.14989981, -0.17466046, -0.88276994, 0.9841649, 5.064488, 4.574815, 0
827, 1625094289, -0.40393522, 0.13328253, -0.17072952, -0.8888085, 1.7761484, 4.194654, 3.275591, 0
828, 1625110956, -0.39534074, 0.118000835, -0.16719972, -0.8954791, 2.9459326, 3.7163963, 3.0365906, 0
830, 1625144290, -0.36803293, 0.09343127, -0.16039227, -0.9111277, 0.90570354, 4.156638, 2.366212, 0
831, 1625160957, -0.3522022, 0.08250606, -0.1588328, -0.9186814, -1.5377283, 5.5277996, 2.3367348, 0
832, 1625177624, -0.33773082, 0.069817655, -0.15881562, -0.9251477, -3.0466194, 6.53224, 2.4670877, 0
834, 1625210958, -0.3176017, 0.046335924, -0.15943335, -0.933606, -3.9487891, 6.710636, -0.23964596, 0
835, 1625227625, -0.31258786, 0.0366085, -0.15857059, -0.93587446, -3.8819664, 7.8428335, 1.3930998, 0
836, 1625244292, -0.30993038, 0.026219182, -0.15730174, -0.9373201, -3.402014, 7.6462994, 0.13231564, 0
839, 1625294293, -0.3054244, 0.0037135668, -0.1575382, -0.939117, -1.6339186, 6.956249, -1.0051289, 0
840, 1625310960, -0.30180037, -0.0017852858, -0.15766875, -0.94027174, -1.2376678, 7.178822, -0.5072737, 0
842, 1625344294, -0.2932636, -0.009143822, -0.15485287, -0.9433932, -1.3779784, 6.3133945, -1.5390291, 0
843, 1625360961, -0.2890151, -0.011812791, -0.15321997, -0.94494, -1.6712359, 6.5642943, -0.88575745, 0
845, 1625394295, -0.2814782, -0.017014913, -0.15274057, -0.94721067, -1.688149, 5.669876, -2.3809938, 0
846, 1625410962, -0.27907234, -0.018694248, -0.15400434, -0.9476861, -1.7008845, 6.62457, -1.7362518, 0
847, 1625427629, -0.2777232, -0.021138392, -0.15653507, -0.94761634, -1.8250375, 7.178506, -2.3967028, 0
849, 1625460963, -0.2774201, -0.021893263, -0.16695842, -0.94590735, -2.2097018, 7.0481215, -5.1297345, 0
850, 1625477630, -0.2774858, -0.019197375, -0.17324877, -0.9448148, -2.1337392, 9.279046, -3.3139048, 0
851, 1625494297, -0.2775006, -0.014797725, -0.17721997, -0.94415295, -1.7563045, 9.711003, -5.1421547, 0
854, 1625544298, -0.2785958, 0.026942845, -0.19517976, -0.9400108, -4.730535, 14.267007, -4.2252192, 0
855, 1625560965, -0.28190804, 0.044992123, -0.20770217, -0.93563914, -5.097665, 17.033098, -4.8254437, 0
857, 1625594299, -0.30496553, 0.09635345, -0.22955902, -0.9192778, -2.5007858, 27.369648, 0.8409014, 0
858, 1625610966, -0.32148302, 0.13124773, -0.23749621, -0.907235, -1.9675553, 29.407667, -3.7578301, 0
859, 1625627633, -0.3383805, 0.1768708, -0.2478826, -0.89040804, -3.058738, 29.842781, -2.371171, 0
861, 1625660967, -0.3672263, 0.23220679, -0.21883768, -0.87372315, -4.7765307, -13.426555, -12.392087, 0
862, 1625677634, -0.37252864, 0.2622851, -0.21789515, -0.86313826, -2.7021685, 1.0318395, 4.042568, 0
863, 1625694301, -0.3716918, 0.2955479, -0.2220608, -0.85161185, -1.8090999, -2.861989, -0.5139494, 0
865, 1625727635, -0.3708555, 0.37917215, -0.23014951, -0.8159553, 0.67389137, -3.161485, 2.479126, 0
866, 1625744302, -0.36750072, 0.43147507, -0.23121151, -0.79080385, -0.3596357, -4.8226767, 1.7648201, 0
869, 1625794303, -0.34526065, 0.61802816, -0.24458405, -0.66262513, 5.5051336, -25.719908, 17.723413, 0
870, 1625810970, -0.34664363, 0.6779206, -0.267277, -0.5906622, 10.343136, -20.07841, 15.137407, 0
872, 1625844304, -0.30880648, 0.7533018, -0.3094238, -0.49141505, 47.07157, -63.028492, 26.283398, 0
873, 1625860971, -0.28202122, 0.75728166, -0.32698423, -0.49002725, -6.842519, 14.79625, 2.8088093, 0
874, 1625877638, -0.3006046, 0.7671685, -0.36200207, -0.43600565, -4.7628837, -12.496056, 5.1068134, 0
876, 1625910972, -0.3295178, 0.7759279, -0.38815802, -0.37248367, -9.93283, -23.556717, -10.002301, 0
877, 1625927639, -0.35576668, 0.7760365, -0.39170212, -0.34325492, -9.651264, -23.370281, -13.532259, 0
878, 1625944306, -0.38451868, 0.77258635, -0.38926616, -0.32215616, -4.774248, -25.69187, -19.16656, 0
880, 1625977640, -0.42980152, 0.7584537, -0.36560413, -0.3262041, -3.8151917, -18.633978, -18.460514, 0
881, 1625994307, -0.44805664, 0.7482295, -0.34777778, -0.34424588, -2.2231493, -15.814997, -17.113974, 0
882, 1626010974, -0.46211338, 0.73604465, -0.32674766, -0.3714599, -0.2721324, -16.403748, -15.688261, 0
884, 1626044308, -0.47846556, 0.70639086, -0.28205618, -0.43884385, -0.5941239, -5.573122, -14.103011, 0
885, 1626060975, -0.48537424, 0.68805045, -0.2635826, -0.47072262, -0.68882626, -7.2545867, -12.412474, 0
886, 1626077642, -0.49184692, 0.6651476, -0.24847987, -0.5039644, -0.85384536, -8.58217, -11.16267, 0
888, 1626110976, -0.50824255, 0.60186696, -0.228084, -0.5722592, -2.8236132, -6.3999734, -5.5718246, 0
889, 1626127643, -0.5199418, 0.5647328, -0.22094777, -0.60164475, -2.9026542, -3.9138951, -3.7902899, 0
890, 1626144310, -0.5323841, 0.52579606, -0.21284352, -0.628379, -1.0853528, -7.9479957, 1.2313156, 0
892, 1626177644, -0.5567191, 0.4394378, -0.19796754, -0.6766269, 1.4759085, -3.938571, 5.5753183, 0
893, 1626194311, -0.56281894, 0.39676553, -0.19366911, -0.69882834, 5.7573047, -4.3504834, 7.2248363, 0
896, 1626244312, -0.5210355, 0.28204, -0.19940862, -0.7805565, 2.2285848, 0.81636876, 11.106695, 0
897, 1626260979, -0.4959709, 0.24633533, -0.20342758, -0.8074689, 1.763199, 2.6655414, 11.014158, 0
899, 1626294313, -0.4494039, 0.1836473, -0.19679049, -0.85184526, 2.0603826, 6.5203967, 8.73332, 0
900, 1626310980, -0.42908758, 0.15807754, -0.18796523, -0.86926496, 3.5265052, 6.3843217, 7.528734, 0
901, 1626327647, -0.40833083, 0.1348362, -0.17965287, -0.8847977, 3.6465268, 6.6032305, 6.9778347, 0
903, 1626360981, -0.3628992, 0.09478473, -0.16598973, -0.91204417, 1.0187651, 7.2180824, 3.9920826, 0
904, 1626377648, -0.34189698, 0.078260936, -0.16250852, -0.9222958, -3.529153, 8.090773, 1.5486965, 0
905, 1626394315, -0.32649064, 0.06582047, -0.1604023, -0.9291929, -4.5414615, 7.911754, -0.1005373, 0
907, 1626427649, -0.31526613, 0.04874048, -0.15186673, -0.9355346, -5.3623652, 9.204148, 1.6190319, 0
908, 1626444316, -0.3165476, 0.039206274, -0.14987516, -0.9358711, -3.8611994, 9.1941595, 0.3916397, 0
911, 1626494317, -0.32400945, 0.017267328, -0.1515798, -0.93370247, 0.17755285, 9.10576, 0.421278, 0
912, 1626510984, -0.3238347, 0.012138236, -0.14789805, -0.93443394, -0.44098708, 7.6750317, -0.15441418, 0
913, 1626527651, -0.32169, 0.008309294, -0.14423092, -0.93578887, -0.27580413, 5.5577483, -1.6584749, 0
915, 1626560985, -0.31399798, 0.0045658536, -0.13798857, -0.9393617, -0.5301223, 5.792651, 0.7007446, 0
916, 1626577652, -0.3092047, 0.0010087565, -0.13617873, -0.9412246, -1.1377788, 5.2842927, 0.121902466, 0
917, 1626594319, -0.30531603, -0.0023607723, -0.13484684, -0.9426822, -1.8574852, 4.974027, -1.1230183, 0
919, 1626627653, -0.30147624, -0.012046348, -0.13403057, -0.9439596, -2.1767337, 6.2959466, -0.6970148, 0
920, 1626644320, -0.30192676, -0.017235693, -0.13285753, -0.94390094, -1.3325682, 5.192391, -2.7763886, 0
922, 1626677654, -0.30424565, -0.023681492, -0.13215506, -0.9431149, -0.03902961, 5.905783, -3.0199156, 0
923, 1626694321, -0.30459434, -0.025913637, -0.13335001, -0.9427755, 0.21265508, 5.8706098, -3.7553158, 0
926, 1626744322, -0.30259523, -0.023353137, -0.14800926, -0.9412974, -0.7322965, 7.589276, -4.853227, 0
927, 1626760989, -0.29979774, -0.02183253, -0.15676242, -0.94081193, -0.24984597, 9.945574, -4.169279, 0
928, 1626777656, -0.2962711, -0.01904045, -0.16413867, -0.9407318, 0.21223457, 10.914286, -7.2077656, 0
930, 1626810990, -0.29067183, -3.2359362E-4, -0.18280539, -0.9392278, -1.4240532, 17.135002, -8.0757475, 0
931, 1626827657, -0.28837425, 0.012261517, -0.19499916, -0.93740183, -0.8075729, 19.371061, -6.1142707, 0
932, 1626844324, -0.28756332, 0.027665041, -0.20832467, -0.93445146, -1.5218711, 21.196785, -6.146983, 0
934, 1626877658, -0.29954118, 0.07431503, -0.23517963, -0.9216832, 0.09628001, 25.789145, -2.0836582, 0
935, 1626894325, -0.31152892, 0.11117264, -0.24960762, -0.91013366, 1.2647753, 26.705791, -2.5160074, 0
936, 1626910992, -0.32201773, 0.15666866, -0.26788634, -0.894457, 0.97531307, 26.9705, 3.6911955, 0
938, 1626944326, -0.36958155, 0.21879122, -0.21545008, -0.877028, -10.829866, -9.863586, -12.482477, 0
940, 1626977660, -0.3786278, 0.28687194, -0.21497557, -0.8533393, -5.082567, -2.26748, 0.365901, 0
942, 1627010994, -0.37525445, 0.38002276, -0.22447744, -0.81512797, 1.8424419, -4.7643123, 3.1263456, 0
943, 1627027661, -0.37370074, 0.43759024, -0.22543077, -0.7861937, -0.63400185, -4.046508, 2.0446978, 0
944, 1627044328, -0.36856842, 0.50092554, -0.22474875, -0.750184, -1.1280292, -8.318181, 5.807686, 0
946, 1627077662, -0.34933063, 0.62837875, -0.24744566, -0.6495658, 2.9270742, -27.018293, 13.494886, 0
947, 1627094329, -0.3433733, 0.69246924, -0.27204013, -0.57326466, 10.53048, -26.384758, 18.171406, 0
948, 1627110996, -0.32222176, 0.7473074, -0.29562455, -0.50036776, 54.58337, -37.319965, 34.3507, 0
950, 1627144330, -0.23058335, 0.78239685, -0.32752526, -0.47693878, -16.177578, 17.204206, 4.581172, 0
951, 1627160997, -0.25427425, 0.79353404, -0.36029357, -0.41939706, 0.26087627, -23.162876, 5.2981033, 0
953, 1627194331, -0.29960093, 0.79490733, -0.3929338, -0.3521669, -11.556297, -25.704384, -11.0968485, 0
954, 1627210998, -0.337568, 0.7891436, -0.39872652, -0.32307017, -5.314365, -27.030094, -14.090792, 0
955, 1627227665, -0.36697033, 0.7849543, -0.39470443, -0.30568755, -0.2705973, -25.344715, -19.787704, 0
957, 1627260999, -0.3987409, 0.77629507, -0.37425172, -0.31363073, -2.429611, -17.75743, -20.282364, 0
958, 1627277666, -0.40953296, 0.76797414, -0.36120597, -0.33479214, -1.9677958, -15.512992, -18.546154, 0
959, 1627294333, -0.41648576, 0.757823, -0.34536138, -0.36472806, -1.3063803, -12.049778, -16.81442, 0
961, 1627327667, -0.4268636, 0.73081565, -0.30903184, -0.43388066, -2.6419241, -7.63786, -12.596097, 0
962, 1627344334, -0.43532354, 0.7095461, -0.2912901, -0.47142816, -3.122837, -7.9025965, -11.007809, 0
963, 1627361001, -0.4464828, 0.68292344, -0.27434444, -0.5089799, -3.8197658, -4.30761, -10.175218, 0
965, 1627394335, -0.48070276, 0.61570114, -0.24388798, -0.57481515, -2.4565485, -5.9187927, -6.011633, 0
967, 1627427669, -0.5113054, 0.53470266, -0.22059572, -0.6356528, -0.07970382, -5.308554, -2.7151556, 0
969, 1627461003, -0.5264108, 0.44688112, -0.21578422, -0.6904224, 2.9487958, -8.255671, 5.4008007, 0
970, 1627477670, -0.5243473, 0.4011144, -0.21631682, -0.719327, 2.4028826, -8.789316, 11.2770195, 0
971, 1627494337, -0.51741326, 0.35223338, -0.21643846, -0.7492838, 0.9978034, -4.8291297, 13.130993, 0
973, 1627527671, -0.49982402, 0.25482053, -0.20933881, -0.8009224, -0.55319655, 3.4362378, 11.714317, 0
974, 1627544338, -0.4927314, 0.20970696, -0.20339999, -0.81970984, 2.4513433, 4.74953, 11.541693, 0
976, 1627577672, -0.47107208, 0.13549384, -0.18887249, -0.8509505, 6.348182, 5.687423, 9.579561, 0
977, 1627594339, -0.4543782, 0.10301571, -0.18623422, -0.86504436, 5.2739882, 8.2539215, 7.4540577, 0
978, 1627611006, -0.4356816, 0.075237356, -0.1846559, -0.8777698, 4.2527986, 9.458833, 5.284562, 0
980, 1627644340, -0.39552528, 0.039816096, -0.1734251, -0.9010855, 0.36168146, 8.489764, 3.505599, 0
982, 1627677674, -0.3531954, 0.027653452, -0.1556868, -0.9221208, -3.7708678, 12.576529, 6.3185616, 0
984, 1627711008, -0.32543597, 0.0010482743, -0.14607237, -0.9342431, -8.812473, 11.358463, -3.2401776, 0
985, 1627727675, -0.3220918, -0.008856956, -0.14465246, -0.9355805, -7.3102803, 10.381047, -4.913602, 0
986, 1627744342, -0.32332718, -0.014972679, -0.14317481, -0.9353038, -5.1752043, 11.1827345, -3.238988, 0
988, 1627777676, -0.33283353, -0.021806117, -0.14119104, -0.93213105, -1.8984202, 9.837898, -2.3451066, 0
989, 1627794343, -0.33781728, -0.022069216, -0.13926356, -0.93062085, 0.6686344, 7.7923555, -1.4127216, 0
990, 1627811010, -0.33902964, -0.021114301, -0.13450763, -0.93090165, 1.6541505, 5.702778, -0.79163074, 0
992, 1627844344, -0.32736376, -0.018517446, -0.12282874, -0.9367284, -0.7546895, 4.0710773, -1.4314098, 0
993, 1627861011, -0.3194424, -0.016035121, -0.11660259, -0.940298, -1.7664965, 4.7723784, -1.5541096, 0
994, 1627877678, -0.31312898, -0.013158608, -0.111929424, -0.9430301, -2.5212395, 4.872312, -2.1885562, 0
997, 1627927679, -0.3056586, -0.009210378, -0.10420545, -0.9464069, -0.85030127, 4.6027727, -1.1763449, 0
998, 1627944346, -0.306371, -0.008904744, -0.102725446, -0.94634134, -0.37112498, 4.0380063, -2.601634, 0
1000, 1627977680, -0.30959317, -0.0074283853, -0.105612405, -0.9449867, 0.62561005, 4.2713137, -2.7497635, 0
1003, 1628027681, -0.31358385, 5.8344007E-4, -0.12172129, -0.9417567, 2.6983504, 5.8472543, -0.88664913, 0
1004, 1628044348, -0.31375968, 8.6727366E-4, -0.12849584, -0.94079745, 2.8788707, 5.253418, -2.3983812, 0
1005, 1628061015, -0.313285, 9.5749274E-4, -0.13556081, -0.9399637, 1.9891907, 5.2297406, -4.423845, 0
1007, 1628094349, -0.31171596, 0.003399644, -0.15499608, -0.93747246, 1.4367869, 9.862331, -5.160901, 0
1008, 1628111016, -0.31236547, 0.0046311542, -0.1669622, -0.93519354, 1.2713586, 15.029985, -5.030884, 0
1009, 1628127683, -0.31392428, 0.006499648, -0.17989627, -0.9322572, 2.111205, 17.771702, -8.566246, 0
1011, 1628161017, -0.32202366, 0.03356327, -0.2096345, -0.9226509, 1.669647, 24.191849, -8.366337, 0
1013, 1628194351, -0.33856645, 0.094180055, -0.24769741, -0.90288746, 1.5070924, 29.098492, -3.039298, 0
1015, 1628227685, -0.37362152, 0.19662893, -0.2373793, -0.8749012, -24.840923, 59.73688, 87.33313, 0
1016, 1628244352, -0.39626044, 0.20683676, -0.2063557, -0.8704426, -9.59198, -12.841267, -22.23309, 0
1017, 1628261019, -0.40536618, 0.23915917, -0.20369372, -0.85851437, -4.373833, 0.42263752, 5.528329, 0
1019, 1628294353, -0.39575413, 0.33554852, -0.2231482, -0.82525605, -1.5229669, -3.4118695, 3.2283945, 0
1020, 1628311020, -0.39134723, 0.3964759, -0.23368114, -0.79693425, 0.55471456, -7.895456, 4.117141, 0
1021, 1628327687, -0.38410634, 0.468953, -0.23949142, -0.7584498, -1.5323212, -9.355297, 9.390987, 0
1023, 1628361021, -0.3648424, 0.61116564, -0.2610595, -0.6521284, 3.7703655, -20.836891, 10.932198, 0
1024, 1628377688, -0.35500175, 0.68658674, -0.28191847, -0.56846404, 22.867199, -20.219078, 28.57066, 0
1025, 1628394355, -0.31679362, 0.7534479, -0.30474296, -0.4890263, 48.92102, -48.122665, 42.759434, 0
1027, 1628427689, -0.23602523, 0.7941793, -0.32577994, -0.4555168, -19.605852, 7.113511, 6.9831905, 0
1028, 1628444356, -0.2630061, 0.8051492, -0.3553507, -0.3954055, -4.919251, -25.26421, 5.391508, 0
1031, 1628494357, -0.35481578, 0.8095998, -0.36783946, -0.28879908, -3.7915268, -23.065098, -17.837818, 0
1032, 1628511024, -0.38884732, 0.8040212, -0.36273274, -0.26613826, -0.86767906, -24.95359, -25.823107, 0
1034, 1628544358, -0.43945435, 0.78593564, -0.34065205, -0.2705517, -3.7055738, -16.671392, -23.407215, 0
1035, 1628561025, -0.45761907, 0.77549577, -0.3242646, -0.2900008, -1.8506985, -16.400835, -21.43497, 0
1038, 1628611026, -0.47919637, 0.7352464, -0.25758266, -0.40434098, -2.0036657, -4.4996333, -13.59137, 0
1039, 1628627693, -0.4903915, 0.71169794, -0.2403278, -0.44192952, -1.5812391, -5.4902906, -12.1284485, 0
1040, 1628644360, -0.5020528, 0.68374765, -0.2255159, -0.4791989, -0.23200645, -7.8462954, -11.335682, 0
1043, 1628694361, -0.53626055, 0.5796737, -0.19385482, -0.5821343, -1.1691457, -5.1794934, -4.078737, 0
1044, 1628711028, -0.5473608, 0.542701, -0.18325244, -0.6102025, 2.1208858, -11.68277, 1.7411261, 0
1046, 1628744362, -0.5653026, 0.46158856, -0.16342178, -0.6638669, 6.7261353, -7.678017, 3.972515, 0
1047, 1628761029, -0.56789076, 0.41870415, -0.16049542, -0.690279, 8.613492, -6.706227, 4.5710335, 0
1048, 1628777696, -0.5631145, 0.37734026, -0.16257611, -0.7170371, 8.347659, -4.954149, 4.711977, 0
1050, 1628811030, -0.5359484, 0.29861277, -0.17731968, -0.76954824, 4.4641786, -2.6524162, 8.843658, 0
1051, 1628827697, -0.51656675, 0.26134378, -0.1848634, -0.7941917, 2.4567137, -1.2651225, 9.345053, 0
1052, 1628844364, -0.49485606, 0.22660653, -0.19134316, -0.81683016, 0.960494, -0.305059, 9.940445, 0
1054, 1628877698, -0.45100108, 0.16418418, -0.19463739, -0.8554617, 1.7349714, 4.013246, 14.089739, 0
1055, 1628894365, -0.43286982, 0.13625732, -0.18755473, -0.8711704, 0.71380144, 7.6719623, 13.067509, 0
1058, 1628944366, -0.3963748, 0.060681723, -0.17857854, -0.8985385, -3.9404793, 10.983346, 0.14692974, 0
1059, 1628961033, -0.39095157, 0.047010764, -0.17941728, -0.90156156, -3.8483434, 11.193617, -0.48346043, 0
1061, 1628994367, -0.38699043, 0.03172447, -0.17934486, -0.90394926, -1.4820898, 12.133808, 2.6059065, 0
1062, 1629011034, -0.38454384, 0.025335792, -0.1775905, -0.9055401, -0.8956688, 11.514978, 1.9203157, 0
1063, 1629027701, -0.38041365, 0.019230373, -0.17668037, -0.9076104, -0.86655337, 10.23887, -0.7076216, 0
1065, 1629061035, -0.36987963, 0.013590999, -0.17574869, -0.91223556, 0.019966524, 6.848128, -1.9966478, 0
1066, 1629077702, -0.3638137, 0.015689898, -0.17201656, -0.9153472, 0.7545578, 5.650593, 0.13228703, 0
1067, 1629094369, -0.35717797, 0.019028094, -0.16514653, -0.91915476, 0.747124, 5.0015845, 1.2715387, 0
1069, 1629127703, -0.3411469, 0.017064612, -0.15785715, -0.9265342, -0.35534382, 4.513245, 0.5094757, 0
1070, 1629144370, -0.33253044, 0.013337277, -0.1564555, -0.9299593, -0.15827961, 4.4440174, -0.021615982, 0
1073, 1629194371, -0.31486428, 0.004087057, -0.15160196, -0.9369725, -1.1522404, 5.255473, -1.5599022, 0
1074, 1629211038, -0.31192583, 0.0017221011, -0.15123129, -0.9380221, -1.2576027, 5.0800405, -1.11481, 0
1075, 1629227705, -0.30927113, -0.0010915846, -0.15193534, -0.9387879, -1.5941371, 4.6253324, -1.165556, 0
1077, 1629261039, -0.3064243, -0.008125458, -0.15469286, -0.9392365, -2.8154242, 5.472721, -0.7665796, 0
1078, 1629277706, -0.30697808, -0.013044402, -0.15643913, -0.9387108, -2.818217, 4.962145, -1.7752571, 0
1079, 1629294373, -0.3084928, -0.017176226, -0.15819103, -0.9378538, -2.270836, 3.4761176, -3.3292065, 0
1081, 1629327707, -0.31012765, -0.020442236, -0.16059235, -0.9368404, -1.8670346, 4.477964, -2.2998462, 0
1082, 1629344374, -0.30934998, -0.021285105, -0.16167332, -0.936893, -1.524044, 5.5283875, -2.6318164, 0
1084, 1629377708, -0.30549362, -0.020077225, -0.16327143, -0.93790734, -0.72990054, 7.8429837, -4.328552, 0
1085, 1629394375, -0.30197534, -0.017304637, -0.16378091, -0.9390122, -0.6038859, 10.677925, -4.877279, 0
1088, 1629444376, -0.2861086, 0.013269741, -0.17534192, -0.94195426, -2.2762551, 17.022614, -7.013994, 0
1090, 1629477710, -0.27697796, 0.05130038, -0.19732553, -0.9390268, -2.7204056, 20.981972, -5.0458746, 0
1092, 1629511044, -0.28619924, 0.11178331, -0.22452822, -0.924791, -1.6594349, 25.614086, -2.2469335, 0
1093, 1629527711, -0.29825482, 0.15364619, -0.23751524, -0.9116361, -1.9346535, 26.009537, -1.0670443, 0
1094, 1629544378, -0.32411733, 0.21262893, -0.22909988, -0.89292055, -4.5365324, 59.17196, 50.441013, 0
1096, 1629577712, -0.36047283, 0.2570789, -0.19688101, -0.87479395, 0.86488885, -19.659863, -5.8956113, 0
1097, 1629594379, -0.3635707, 0.30168134, -0.19925117, -0.85858047, -7.196202, 3.2386565, 1.4415102, 0
1098, 1629611046, -0.35826823, 0.35113144, -0.20797443, -0.83973455, 0.7376389, -2.8211894, 1.528058, 0
1100, 1629644380, -0.34715372, 0.46830732, -0.21458617, -0.7836977, 0.68472636, -4.792344, 4.7961016, 0
1101, 1629661047, -0.34142637, 0.53101957, -0.21740179, -0.74447286, -0.7138682, -8.661415, 7.0386715, 0
1102, 1629677714, -0.3327815, 0.59471375, -0.22848707, -0.6952861, -1.3679973, -16.15062, 12.036747, 0
1104, 1629711048, -0.32955766, 0.71133626, -0.2872584, -0.5503926, 16.764523, -36.33154, 38.55427, 0
1105, 1629727715, -0.2965678, 0.75761414, -0.30685797, -0.4939266, 58.2697, -53.62277, 39.36816, 0
1106, 1629744382, -0.25024807, 0.7706868, -0.3088121, -0.49810645, 8.764405, 0.90200263, 13.406609, 0
1108, 1629777716, -0.2809571, 0.80029947, -0.3645664, -0.38435945, 18.630053, -44.274075, 5.394455, 0
1109, 1629794383, -0.2833712, 0.81152666, -0.3794192, -0.34237885, -3.961008, -32.11403, -4.1309977, 0
1111, 1629827717, -0.32735556, 0.8153101, -0.40396005, -0.25491363, -4.695116, -33.055367, -19.38398, 0
1112, 1629844384, -0.3544303, 0.81041735, -0.40726608, -0.22758345, -6.459428, -26.320826, -22.973444, 0
1113, 1629861051, -0.38438076, 0.8020513, -0.4048725, -0.21236868, -7.239951, -21.943518, -23.318632, 0
1116, 1629911052, -0.44347042, 0.7825676, -0.3557784, -0.25377247, -1.6014699, -14.81191, -20.015175, 0
1117, 1629927719, -0.45000428, 0.7787675, -0.3309139, -0.28560492, -2.051295, -8.8818, -17.436453, 0
1119, 1629961053, -0.46567488, 0.7621689, -0.28579116, -0.3473124, -1.6942738, -8.344676, -16.073004, 0
1120, 1629977720, -0.471094, 0.74782, -0.26591444, -0.38494432, -1.066976, -8.779219, -15.505997, 0
1121, 1629994387, -0.4746349, 0.7292205, -0.24856113, -0.4257152, -2.2676537, -4.2848177, -13.462874, 0
1123, 1630027721, -0.487992, 0.6760527, -0.22900252, -0.5024256, -2.9681804, -5.900877, -9.145381, 0
1124, 1630044388, -0.49561074, 0.64247113, -0.22297883, -0.540313, -2.7844589, -7.2009344, -6.6705523, 0
1125, 1630061055, -0.50479436, 0.60521716, -0.21862802, -0.5754595, -4.3865485, -6.3602366, -3.8391337, 0
1127, 1630094389, -0.53175735, 0.516466, -0.20590541, -0.6388716, -2.8071532, -7.7710357, 5.11963, 0
1128, 1630111056, -0.5489831, 0.46601707, -0.19901437, -0.6647524, 0.41855863, -6.403426, 7.0771465, 0
1131, 1630161057, -0.56242985, 0.31728435, -0.205096, -0.7355241, 3.442925, -1.711394, 14.4317665, 0
1132, 1630177724, -0.5561868, 0.2708695, -0.21090159, -0.75687736, 2.2626991, 2.439189, 16.679304, 0
1133, 1630194391, -0.54578686, 0.22733077, -0.21378893, -0.7776816, 2.852371, 3.6516216, 15.564594, 0
1135, 1630227725, -0.5087707, 0.15271106, -0.21197893, -0.82033753, 1.7140259, 7.3314705, 11.550619, 0
1136, 1630244392, -0.48493123, 0.12076594, -0.20735557, -0.8410219, 0.26662022, 8.827149, 11.675158, 0
1137, 1630261059, -0.45972458, 0.091413245, -0.20009577, -0.860416, 0.0638515, 9.61776, 9.657934, 0
1139, 1630294393, -0.4142222, 0.04892374, -0.17616393, -0.8916557, 0.76592827, 9.741592, 1.4830532, 0
1140, 1630311060, -0.3966557, 0.039291102, -0.16621587, -0.90197, -0.4619081, 9.223661, -3.3102617, 0
1142, 1630344394, -0.37261757, 0.032330103, -0.14968328, -0.9152938, 0.09577952, 14.606148, 7.4413795, 0
1143, 1630361061, -0.36465752, 0.021404661, -0.14231838, -0.91998327, -2.0242424, 12.789565, 0.07321453, 0
1146, 1630411062, -0.36197162, 0.0055885725, -0.13808602, -0.9219189, 2.4009511, 9.121528, -1.5190048, 0
1147, 1630427729, -0.36256677, 0.008058798, -0.13034886, -0.9227929, 2.1175532, 5.6426516, -2.7905855, 0
1148, 1630444396, -0.36221474, 0.01272364, -0.12316571, -0.9238646, 1.7864348, 4.310295, -2.2782102, 0
1150, 1630477730, -0.35360858, 0.013821203, -0.122461125, -0.92727035, 2.4796634, 3.2351055, 0.4076643, 0
1151, 1630494397, -0.34634614, 0.012354396, -0.123896256, -0.9298378, 1.3674653, 3.3476596, 0.10172939, 0
1152, 1630511064, -0.3395091, 0.010471765, -0.12554745, -0.93215805, 0.11085957, 4.288062, 0.17285442, 0
1154, 1630544398, -0.3336705, 0.0048715435, -0.12899807, -0.9338398, -1.076008, 3.4881995, -0.70554924, 0
1155, 1630561065, -0.3335881, 9.127371E-4, -0.13141434, -0.9335446, -0.8808966, 3.6564937, 0.30480003, 0
1156, 1630577732, -0.33341226, -0.0047944933, -0.13350148, -0.93329936, 0.08163285, 3.5923488, 0.30543327, 0
1158, 1630611066, -0.33034012, -0.017532315, -0.13894928, -0.9334442, -0.6605041, 5.1737075, -1.5671959, 0
1160, 1630644400, -0.32707345, -0.026547395, -0.14525175, -0.9334222, 0.13178225, 7.223244, -4.8245845, 0
1162, 1630677734, -0.320414, -0.02850296, -0.15915175, -0.9334078, -0.5309226, 10.224049, -4.8638034, 0
1163, 1630694401, -0.31383526, -0.02956364, -0.16563831, -0.93448067, 0.28721794, 11.869308, -4.777141, 0
1165, 1630727735, -0.30144066, -0.018039398, -0.16994202, -0.93807507, -1.5959392, 16.376715, -8.629699, 0
1166, 1630744402, -0.29620713, -0.008040473, -0.1745137, -0.9390414, -1.62227, 18.629309, -9.533692, 0
1167, 1630761069, -0.29245272, 0.0069194958, -0.1820206, -0.9388019, -2.2920823, 19.38152, -10.820943, 0
1169, 1630794403, -0.2915574, 0.04548345, -0.21020103, -0.9320934, -2.273919, 23.47488, -5.7781744, 0
1170, 1630811070, -0.29934317, 0.074895635, -0.22742169, -0.92364526, -1.6451174, 25.020136, -6.5075035, 0
1171, 1630827737, -0.30945894, 0.113550715, -0.24618092, -0.9114785, 0.67034674, 27.353525, -0.38772392, 0
1173, 1630861071, -0.35062274, 0.19665238, -0.21243845, -0.8906843, -33.23411, 56.028713, 53.70775, 0
1174, 1630877738, -0.37039596, 0.21170217, -0.20233902, -0.88153553, 9.096701, -21.955164, -2.7416368, 0
1175, 1630894405, -0.3809407, 0.24471474, -0.20363638, -0.86809456, -9.958484, 3.6513994, 8.829504, 0
1177, 1630927739, -0.37309083, 0.35288894, -0.22756979, -0.8273703, -1.1188841, -4.6243963, 4.0627384, 0
1178, 1630944406, -0.36853403, 0.4224341, -0.23478577, -0.79414403, 0.75688905, -7.247411, 3.2311535, 0
1179, 1630961073, -0.36270538, 0.49721825, -0.23937991, -0.75098145, -0.9126423, -11.528154, 11.006046, 0
1181, 1630994407, -0.34508264, 0.64087325, -0.26707247, -0.63160807, 4.7218432, -22.475332, 10.0010395, 0
1182, 1631011074, -0.33848, 0.70570594, -0.29204187, -0.5497081, 15.956123, -34.358677, 26.802673, 0
1183, 1631027741, -0.30229968, 0.76277673, -0.30994987, -0.4803901, 51.827957, -60.2436, 36.768597, 0
1185, 1631061075, -0.24167652, 0.78927195, -0.3272651, -0.45999634, -21.100414, 15.165204, 3.5100555, 0
1187, 1631094409, -0.2943074, 0.80235493, -0.3624189, -0.37191284, 6.249575, -35.449097, -5.912752, 0
1189, 1631127743, -0.36248136, 0.7957202, -0.3765431, -0.30611908, -3.4221656, -25.129854, -12.580054, 0
1190, 1631144410, -0.40156153, 0.78606343, -0.37564498, -0.2824898, -0.5244141, -25.511078, -19.49591, 0
1192, 1631177744, -0.44935086, 0.76990473, -0.35597673, -0.28047776, -3.8140416, -17.064342, -20.76715, 0
1193, 1631194411, -0.46646032, 0.7593001, -0.34292495, -0.29721603, -4.357812, -15.726969, -18.961826, 0
1194, 1631211078, -0.48008066, 0.74602294, -0.32804108, -0.32468212, -3.234425, -15.328622, -17.169521, 0
1196, 1631244412, -0.49740645, 0.7139013, -0.29122797, -0.3977121, -2.7907734, -6.7330303, -13.621319, 0
1197, 1631261079, -0.50539976, 0.69302934, -0.2731355, -0.43558627, -3.627948, -5.0097456, -12.137018, 0
1198, 1631277746, -0.51423776, 0.66751957, -0.2584889, -0.47245896, -3.6581943, -4.7098217, -11.504193, 0
1200, 1631311080, -0.52883327, 0.6081631, -0.2368246, -0.5426271, -4.0764976, -5.4718432, -7.533471, 0
1202, 1631344414, -0.5398372, 0.53989786, -0.22147521, -0.6067057, -3.5983481, -8.10405, -0.5042963, 0
1204, 1631377748, -0.5572491, 0.46123433, -0.19596714, -0.66211045, 2.789968, -6.894456, 4.223605, 0
1205, 1631394415, -0.56452477, 0.41904622, -0.18508077, -0.686669, 5.1351995, -5.530502, 4.3984747, 0
1206, 1631411082, -0.5673108, 0.3759675, -0.18183644, -0.7097883, 6.0228415, -2.4192836, 4.2774925, 0
1208, 1631444416, -0.5571168, 0.29594597, -0.1901928, -0.7522769, 4.8152866, -1.5603642, 10.772169, 0
1209, 1631461083, -0.54502404, 0.25550416, -0.19650187, -0.77402234, 4.3500896, -0.38987902, 12.415312, 0
1210, 1631477750, -0.5282814, 0.2164258, -0.20039359, -0.7962274, 3.4495146, 1.3601524, 12.153177, 0
1212, 1631511084, -0.4857896, 0.14363323, -0.20001438, -0.83870673, 2.8858674, 4.182156, 10.867691, 0
1213, 1631527751, -0.46173695, 0.11146088, -0.19550174, -0.8580276, 2.2162774, 5.27572, 9.220873, 0
1214, 1631544418, -0.4366845, 0.08496077, -0.18841636, -0.8755824, 1.6557517, 5.544654, 7.853113, 0
1217, 1631594419, -0.37576115, 0.020696715, -0.16554438, -0.91160685, -4.928088, 11.791918, -1.1643715, 0
1219, 1631627753, -0.36402795, -0.008091547, -0.17886697, -0.9140469, -2.3152697, 12.799412, -1.1369677, 0
1220, 1631644420, -0.36429423, -0.015409231, -0.18065472, -0.91349506, -1.0441948, 13.716468, 0.007925034, 0
1221, 1631661087, -0.36635965, -0.020636812, -0.17808855, -0.9130697, -1.0037701, 13.149652, -1.6806211, 0
1223, 1631694421, -0.36880755, -0.024144508, -0.16978467, -0.9135798, 3.1342776, 7.4832954, -2.851766, 0
1224, 1631711088, -0.36588, -0.01934671, -0.16173778, -0.9163271, 4.0404525, 5.354395, -1.7316046, 0
1225, 1631727755, -0.35847527, -0.013848934, -0.15450023, -0.9205924, 0.84937584, 3.8394613, -1.556634, 0
1227, 1631761089, -0.3348788, -0.010021124, -0.15421183, -0.929533, -2.6938512, 3.622053, -0.09908104, 0
1228, 1631777756, -0.32554457, -0.009586748, -0.15406886, -0.9328712, -3.9473867, 4.44312, 0.064888, 0
1229, 1631794423, -0.32076335, -0.00973605, -0.15272391, -0.93474513, -4.0946264, 4.0109096, -0.27642918, 0
1232, 1631844424, -0.32293484, -0.014639117, -0.15066221, -0.93426794, 0.028912015, 4.2140965, 0.058462143, 0
1233, 1631861091, -0.32331148, -0.018014524, -0.15131526, -0.9339731, 1.0307333, 3.7930539, -0.451272, 0
1235, 1631894425, -0.31968635, -0.023318157, -0.15092595, -0.9351659, 0.787097, 3.2927792, -1.5638218, 0
1236, 1631911092, -0.31651062, -0.025087964, -0.15054077, -0.93626183, -0.13651018, 3.697233, -2.1053934, 0
1237, 1631927759, -0.31355393, -0.026103407, -0.15102345, -0.9371507, -0.6153768, 3.7866058, -2.7982917, 0
1239, 1631961093, -0.30896235, -0.025211487, -0.1546582, -0.9381069, -0.97939396, 4.620528, -2.7694888, 0
1240, 1631977760, -0.30659923, -0.024665423, -0.15642871, -0.938603, -0.46098635, 6.410081, -1.5530987, 0
1241, 1631994427, -0.3033987, -0.025461659, -0.15646139, -0.9396157, -0.96227235, 7.021304, -2.15666, 0
1243, 1632027761, -0.29578328, -0.02370748, -0.15491106, -0.94234276, -0.9953234, 9.07532, -5.9204507, 0
1244, 1632044428, -0.2925079, -0.019377317, -0.15455388, -0.9435221, -0.6184906, 11.759313, -6.6335135, 0
1245, 1632061095, -0.28880113, -0.014189724, -0.155334, -0.9446273, -0.7069305, 15.206561, -6.817576, 0
1247, 1632094429, -0.27919894, -0.0011891052, -0.16822346, -0.94541216, -4.320872, 21.040768, -15.08885, 0
1248, 1632111096, -0.27902406, 0.015198261, -0.18393587, -0.9424112, -4.6723723, 27.18031, -14.070418, 0
1250, 1632144430, -0.293035, 0.072223805, -0.21884558, -0.92794275, -3.2208812, 34.772186, -7.7756386, 0
1251, 1632161097, -0.30730993, 0.11473698, -0.24105155, -0.9134259, -1.0229716, 36.219124, -0.89041615, 0
1252, 1632177764, -0.3293031, 0.1775322, -0.22642574, -0.89934987, 17.194853, 42.642193, 60.33685, 0
1254, 1632211098, -0.36221194, 0.20285197, -0.18538629, -0.8906977, -0.7917966, -12.999008, -2.0593085, 0
1255, 1632227765, -0.36440495, 0.25118122, -0.19564405, -0.8751556, -7.9126964, -1.197929, 2.308608, 0
1256, 1632244432, -0.3595136, 0.31290156, -0.20841855, -0.8540851, 2.5662436, -4.589724, 0.1035347, 0
1259, 1632294433, -0.34994546, 0.5152753, -0.22498797, -0.7493109, 0.6212641, -10.86973, 7.0200996, 0
1260, 1632311100, -0.34843087, 0.5795, -0.24336821, -0.6954167, 1.2163897, -17.333845, 12.742931, 0
1262, 1632344434, -0.34792107, 0.707285, -0.2901472, -0.54274344, 25.60983, -31.732697, 27.427174, 0
1263, 1632361101, -0.30752283, 0.76087916, -0.3144076, -0.4771765, 48.10914, -51.88043, 41.012314, 0
1264, 1632377768, -0.24417077, 0.78324264, -0.3148269, -0.47733915, 13.233841, -29.529009, 14.875275, 0
1266, 1632411102, -0.24671133, 0.8166059, -0.35003304, -0.3870688, 13.843929, -28.928057, 6.537218, 0
1267, 1632427769, -0.25053617, 0.82681704, -0.36375427, -0.34834623, 10.426118, -36.745064, -5.21275, 0
1268, 1632444436, -0.26169828, 0.83026946, -0.38032722, -0.31237003, -4.378725, -26.594122, -10.556427, 0
1270, 1632477770, -0.32430452, 0.81522286, -0.40843877, -0.25193846, -7.389723, -28.422071, -26.239954, 0
1271, 1632494437, -0.35835108, 0.8015717, -0.40943083, -0.24797277, -9.194159, -22.610283, -24.8247, 0
1274, 1632544438, -0.44079354, 0.7575059, -0.36589754, -0.31314856, -2.902269, -17.26428, -17.53402, 0
1275, 1632561105, -0.4538734, 0.74360013, -0.3397748, -0.35449654, -2.6877506, -9.386409, -15.512638, 0
1277, 1632594439, -0.47467896, 0.70609605, -0.29193813, -0.43696386, -1.5107348, -6.9049525, -13.458696, 0
1278, 1632611106, -0.47860357, 0.6851958, -0.270772, -0.47768697, -1.7137556, -3.8693905, -13.056813, 0
1279, 1632627773, -0.48156866, 0.6621525, -0.25343618, -0.5152404, -2.978559, -4.474262, -10.30282, 0
1281, 1632661107, -0.48645297, 0.60668254, -0.23271097, -0.5841254, -2.4769816, -7.43306, -6.6235666, 0
1282, 1632677774, -0.49029976, 0.57403105, -0.22485551, -0.6161099, -4.2206483, -10.060242, -0.38393593, 0
1283, 1632694441, -0.49893925, 0.53624094, -0.2130075, -0.646676, -1.6001517, -9.655074, 3.6246977, 0
1285, 1632727775, -0.51828027, 0.45562834, -0.18029645, -0.70095533, 6.8561454, -6.696939, 3.5069485, 0
1286, 1632744442, -0.5205742, 0.41570818, -0.17105785, -0.7259376, 10.626682, -6.9196415, 3.1687489, 0
1289, 1632794443, -0.48502547, 0.2942414, -0.19339049, -0.8005183, 1.5155696, -3.4603915, 14.982443, 0
1290, 1632811110, -0.47155857, 0.25009805, -0.20251177, -0.82105386, 0.44839403, 0.26502332, 17.950762, 0
1291, 1632827777, -0.46309817, 0.20614585, -0.20420693, -0.8374965, -2.402726, 4.7335706, 15.171637, 0
1293, 1632861111, -0.45169482, 0.12255683, -0.1994831, -0.86093843, 2.0547311, 4.423969, 11.430811, 0
1294, 1632877778, -0.43946376, 0.08761794, -0.19345826, -0.8728262, 3.9900684, 4.8749266, 10.515423, 0
1295, 1632894445, -0.42069983, 0.0588283, -0.18543349, -0.8861277, 3.8998318, 6.8631682, 7.8944817, 0
1297, 1632927779, -0.36881632, 0.016697347, -0.16753505, -0.91415787, -0.03272157, 10.989055, 4.3540134, 0
1298, 1632944446, -0.34275305, 0.0038517155, -0.15938789, -0.9258282, -5.6075516, 11.573748, -0.41408253, 0
1300, 1632977780, -0.31305537, -0.012929294, -0.15388577, -0.9371261, -8.434538, 15.041115, 1.8162327, 0
1301, 1632994447, -0.30915898, -0.023372583, -0.15226406, -0.93848133, -7.4353867, 14.81263, 0.26066494, 0
1304, 1633044448, -0.31742716, -0.046280157, -0.13524643, -0.9374772, -1.5166045, 10.7227745, -4.285689, 0
1305, 1633061115, -0.32175198, -0.04674015, -0.12756053, -0.9370573, 0.9450653, 7.722867, -4.0898952, 0
1306, 1633077782, -0.32426026, -0.044227045, -0.11948199, -0.9373795, 1.5963523, 6.1449723, -2.9704342, 0
1308, 1633111116, -0.31738913, -0.043257147, -0.11143679, -0.94076127, 1.0091707, 5.753667, -0.5928812, 0
1309, 1633127783, -0.3114744, -0.043736737, -0.10849482, -0.94305706, -0.22524817, 4.444233, -2.1599727, 0
1310, 1633144450, -0.30668318, -0.043863602, -0.10673812, -0.9448203, -1.2908484, 4.58904, -2.267365, 0
1312, 1633177784, -0.30158192, -0.04731905, -0.10673478, -0.94629484, -0.96105766, 4.857463, -2.695674, 0
1313, 1633194451, -0.30068856, -0.048553288, -0.10625461, -0.94657063, -0.6063967, 5.534421, -2.5700498, 0
1314, 1633211118, -0.30028677, -0.050210144, -0.10605281, -0.9466343, -0.36001182, 6.4221263, -2.4589138, 0
1316, 1633244452, -0.30124706, -0.055020206, -0.10994006, -0.9456178, -0.6342833, 6.7529616, -4.2682986, 0
1317, 1633261119, -0.30303258, -0.05631353, -0.11404389, -0.9444846, -0.06442521, 7.1127844, -4.7665706, 0
1318, 1633277786, -0.30594754, -0.055612482, -0.11864185, -0.9430187, 0.6501911, 8.054814, -5.0761995, 0
1320, 1633311120, -0.3136589, -0.05052109, -0.13312373, -0.9388295, 1.6704941, 9.927712, -5.210395, 0
1321, 1633327787, -0.31600097, -0.04901625, -0.14400333, -0.9365152, 2.1192536, 12.589275, -2.9028535, 0
1322, 1633344454, -0.31492832, -0.05047323, -0.15280202, -0.9354043, 2.6118152, 14.190244, -2.886311, 0
1324, 1633377788, -0.30419293, -0.043806415, -0.15923312, -0.938216, -0.36013508, 16.497389, -14.718769, 0
1325, 1633394455, -0.29721743, -0.027608857, -0.16743316, -0.93963957, -3.4520552, 20.343412, -18.172565, 0
1327, 1633427789, -0.28527665, 0.025276933, -0.19102946, -0.9389051, -5.038349, 31.367887, -11.056477, 0
1328, 1633444456, -0.28415698, 0.06661788, -0.2050175, -0.9342599, -8.2519245, 33.795, -11.248644, 0
1332, 1633511124, -0.32262087, 0.17760518, -0.16249499, -0.91543674, -7.177186, -10.36998, 8.326515, 0
1333, 1633527791, -0.3276641, 0.22521389, -0.18087804, -0.89958596, -2.8053722, -7.552294, 5.8537264, 0
1335, 1633561125, -0.32716367, 0.38782257, -0.22031058, -0.8331133, 3.2637863, -10.264645, 10.227533, 0
1336, 1633577792, -0.3292131, 0.46979374, -0.23582277, -0.7844471, 3.8682332, -11.056075, 8.917469, 0
1337, 1633594459, -0.3350786, 0.5491941, -0.25514048, -0.7218507, 2.8301895, -10.306141, 9.395737, 0
1339, 1633627793, -0.32126194, 0.71591043, -0.315481, -0.5336588, 29.232563, -8.201911, 36.33165, 0
1340, 1633644460, -0.29785168, 0.76122427, -0.35430706, -0.4542526, 13.998622, -62.698036, 35.177902, 0
1341, 1633661127, -0.27781287, 0.7780802, -0.36443108, -0.4297188, -10.549227, -46.39641, 10.480827, 0
1343, 1633694461, -0.31424177, 0.79665065, -0.36387593, -0.36640298, 2.450647, -16.585583, 0.37951565, 0
1344, 1633711128, -0.32983977, 0.8078995, -0.36000264, -0.33008933, 12.404857, -29.442385, -7.819686, 0
1348, 1633777796, -0.39674243, 0.8030889, -0.34716743, -0.2778046, -3.9578526, -18.3915, -19.285984, 0
1349, 1633794463, -0.42100704, 0.79440796, -0.3310212, -0.28662002, -2.905694, -16.09982, -18.652737, 0
1351, 1633827797, -0.45579308, 0.77789617, -0.2819333, -0.32817805, -0.38590315, -12.3876, -18.024242, 0
1352, 1633844464, -0.4661479, 0.7689874, -0.25405344, -0.3561997, 0.31988102, -8.59299, -17.149963, 0
1354, 1633877798, -0.48214772, 0.7430853, -0.19976732, -0.41893646, 2.1034374, -11.070563, -15.759237, 0
1355, 1633894465, -0.48815644, 0.7228228, -0.17518815, -0.4567238, 2.7917347, -8.645252, -14.67218, 0
1356, 1633911132, -0.49266428, 0.6984136, -0.15449408, -0.4956702, 3.7831829, -5.9492674, -13.758285, 0
1358, 1633944466, -0.49885127, 0.6424583, -0.13515423, -0.5658488, 3.1375432, -2.815563, -10.805553, 0
1359, 1633961133, -0.49974698, 0.6135086, -0.13706364, -0.59592843, 4.1465874, -9.097684, -6.667403, 0
1360, 1633977800, -0.5002453, 0.5812129, -0.13927682, -0.62658215, 2.6454785, -11.807482, 0.32815456, 0
1363, 1634027801, -0.51027143, 0.46041143, -0.1361788, -0.71355206, 4.048349, -5.6642385, 2.1698303, 0
1364, 1634044468, -0.5135516, 0.41653788, -0.14236929, -0.73657906, 4.1955833, -4.9231386, 4.683689, 0
1366, 1634077802, -0.5093309, 0.33469754, -0.15647568, -0.77725923, 7.2179694, -6.8938665, 9.555372, 0
1367, 1634094469, -0.49851897, 0.29503644, -0.165166, -0.7982539, 5.5073977, -3.6911552, 13.984209, 0
1368, 1634111136, -0.48371688, 0.2565897, -0.17241624, -0.8188463, 5.2324653, 1.2610078, 11.872007, 0
1370, 1634144470, -0.44872648, 0.19325306, -0.17765023, -0.8542806, 3.7064445, 4.489202, 8.302891, 0
1371, 1634161137, -0.4264682, 0.16966476, -0.17725985, -0.87061733, 2.9905744, 4.123741, 7.954214, 0
1372, 1634177804, -0.40074578, 0.150931, -0.17571607, -0.88645554, 0.48567137, 5.462205, 6.81275, 0
1375, 1634227805, -0.34358197, 0.10370782, -0.17226763, -0.9173751, -7.513035, 8.497087, 6.0668497, 0
1376, 1634244472, -0.33630118, 0.08729274, -0.17276369, -0.9216785, -6.394307, 8.563711, 4.4346886, 0
1379, 1634294473, -0.3352988, 0.04280637, -0.17033759, -0.9256264, -2.221247, 10.566786, 4.066473, 0
1381, 1634327807, -0.33647135, 0.016459417, -0.16706368, -0.9266406, 0.6364575, 7.1646023, 0.1536808, 0
1382, 1634344474, -0.3338324, 0.0068814345, -0.165001, -0.92808414, -0.11851512, 6.468155, 0.16483307, 0
1383, 1634361141, -0.3277699, -0.0025802404, -0.16414364, -0.9304161, -0.4587573, 6.708991, 0.115694046, 0
1385, 1634394475, -0.3108505, -0.017451193, -0.15929085, -0.93688357, -2.637208, 7.115592, -2.6199121, 0
1386, 1634411142, -0.30233324, -0.022831425, -0.15666917, -0.9399921, -2.938119, 7.5169454, -2.5882487, 0
1387, 1634427809, -0.294883, -0.027448133, -0.15322053, -0.94279957, -4.2730446, 7.4362316, -2.8612304, 0
1389, 1634461143, -0.2835589, -0.03373734, -0.14888442, -0.94675577, -5.016342, 6.8246937, -3.4094753, 0
1390, 1634477810, -0.28063577, -0.03456821, -0.14714351, -0.9478683, -5.066927, 6.937614, -2.598947, 0
1391, 1634494477, -0.27894565, -0.035751034, -0.14641146, -0.94843656, -5.059042, 7.110021, -1.8558655, 0
1393, 1634527811, -0.27919254, -0.038738295, -0.1454525, -0.9483941, -4.56762, 5.722261, -3.123201, 0
1394, 1634544478, -0.2813285, -0.037885085, -0.1430457, -0.94816333, -3.9899905, 6.1578255, -2.5972214, 0
1395, 1634561145, -0.2839231, -0.037684154, -0.141529, -0.9476254, -4.0651846, 6.848893, -2.1859956, 0
1397, 1634594479, -0.29003665, -0.03551267, -0.13959323, -0.9461439, -2.2085485, 6.9144707, -2.9330797, 0
1398, 1634611146, -0.29332784, -0.03213406, -0.13870876, -0.94537985, -1.6012481, 7.6466413, -3.0099816, 0
1399, 1634627813, -0.29608393, -0.02748444, -0.13780299, -0.9447996, -0.5021251, 8.099212, -3.072061, 0
1401, 1634661147, -0.29663634, -0.012267787, -0.14049271, -0.94455034, -0.32567716, 8.899459, -4.460575, 0
1402, 1634677814, -0.29315883, -0.0044920444, -0.14615434, -0.9448457, -0.6667938, 12.658738, -1.3112192, 0
1403, 1634694481, -0.28785658, 9.4560906E-4, -0.15177998, -0.94559896, -0.54637593, 14.03036, -2.8632498, 0
1406, 1634744482, -0.28457052, 0.033336762, -0.18174043, -0.9407102, -2.555638, 22.57206, -7.303256, 0
1408, 1634777816, -0.30914897, 0.07684135, -0.21804762, -0.9225153, 2.134664, 26.677933, -5.0355353, 0
1409, 1634794483, -0.32830858, 0.11229252, -0.23932458, -0.9068542, 3.7757225, 28.445202, -2.0641122, 0
1410, 1634811150, -0.3473748, 0.1582471, -0.26246744, -0.8862597, 2.6442275, 27.018198, -4.3611445, 0
1412, 1634844484, -0.3799657, 0.23852922, -0.23417085, -0.86252594, -29.72712, 26.711649, 49.774937, 0
1413, 1634861151, -0.38850695, 0.2565726, -0.22849847, -0.85503113, -1.1211095, -13.921367, 9.593126, 0
1414, 1634877818, -0.39073315, 0.29528707, -0.23190954, -0.8404807, -5.1369452, -7.385563, 3.2399797, 0
1416, 1634911152, -0.38521904, 0.41964465, -0.2603619, -0.7795981, -1.9471669, -9.471045, 6.1934757, 0
1417, 1634927819, -0.37857676, 0.49519575, -0.27411452, -0.7323789, 0.080424435, -15.9803, 12.806673, 0
1420, 1634977820, -0.33903044, 0.72362506, -0.31466118, -0.5123186, 29.049747, -11.536512, 25.584877, 0
1422, 1635011154, -0.25565413, 0.7884333, -0.32249606, -0.45723867, 0.8276479, -18.254705, 5.76824, 0
1424, 1635044488, -0.27276066, 0.8193731, -0.33813384, -0.37410128, 9.788111, -36.09509, -1.5210266, 0
1425, 1635061155, -0.2789005, 0.8280548, -0.3365057, -0.3512278, 4.306517, -28.36229, -8.92928, 0
1426, 1635077822, -0.29779246, 0.83132523, -0.33659562, -0.32707566, -5.2967587, -18.84386, -10.936927, 0
1428, 1635111156, -0.37587765, 0.8153069, -0.32931036, -0.29257855, -1.585397, -25.69413, -16.704712, 0
1429, 1635127823, -0.41601712, 0.7999687, -0.3167238, -0.2944874, -0.29933032, -20.397898, -17.169594, 0
1430, 1635144490, -0.4489128, 0.78484, -0.29879895, -0.30541715, 0.65141195, -17.24678, -17.268, 0
1432, 1635177824, -0.48452908, 0.75967765, -0.25377426, -0.35181984, 1.5767044, -11.684537, -17.258644, 0
1433, 1635194491, -0.49020633, 0.7497119, -0.23189607, -0.37935597, 0.33595148, -7.061588, -16.512583, 0
1434, 1635211158, -0.49335295, 0.7384243, -0.21375713, -0.40705967, 0.35864934, -8.837691, -15.703918, 0
1437, 1635261159, -0.4896721, 0.67715245, -0.18335766, -0.5178059, -0.56086344, -7.296237, -10.421317, 0
1439, 1635294493, -0.49132156, 0.61428136, -0.18174987, -0.59015703, -3.0247972, -7.2051563, -3.176556, 0
1440, 1635311160, -0.49707037, 0.5772679, -0.17918657, -0.622601, -2.8029976, -9.249449, 0.6248102, 0
1441, 1635327827, -0.50756174, 0.53649825, -0.17087543, -0.65223414, -0.95187664, -8.360361, 4.989748, 0
1443, 1635361161, -0.5330616, 0.444702, -0.15091842, -0.7038222, 10.000573, -6.048254, 4.0726786, 0
1444, 1635377828, -0.53338224, 0.39979863, -0.15120605, -0.72997105, 12.05227, -5.657325, 4.9199047, 0
1445, 1635394495, -0.52093756, 0.35573548, -0.16108805, -0.75906754, 10.814182, -4.393832, 6.9503994, 0
1447, 1635427829, -0.4729597, 0.27021298, -0.18987691, -0.81688297, 0.1333818, -0.46118525, 14.568325, 0
1448, 1635444496, -0.44600207, 0.22750139, -0.20012179, -0.8422193, -0.59144056, 1.0843726, 15.497055, 0
1449, 1635461163, -0.41917393, 0.18803507, -0.20164321, -0.8650624, -1.7236444, 3.608436, 16.040834, 0
1452, 1635511164, -0.35795718, 0.08997488, -0.1768998, -0.9124333, -4.255835, 9.962782, 3.852377, 0
1453, 1635527831, -0.34918267, 0.06958849, -0.1722318, -0.91848904, -4.4524355, 10.093069, 0.58508015, 0
1455, 1635561165, -0.34804282, 0.042045105, -0.16512729, -0.9218939, -3.8170054, 13.779135, 3.4604454, 0
1456, 1635577832, -0.34980252, 0.026284274, -0.16322796, -0.9221501, -2.219761, 13.939438, 0.63124466, 0
1457, 1635594499, -0.35020152, 0.012563147, -0.16140276, -0.9226089, -0.6655152, 11.912783, -3.6078405, 0
1459, 1635627833, -0.3432104, 0.0031615943, -0.15644915, -0.9261626, 1.0405684, 8.622059, -2.2071838, 0
1460, 1635644500, -0.33511874, 0.005775403, -0.14949696, -0.9302524, 1.1970798, 6.7542458, -1.0017166, 0
1462, 1635677834, -0.3121984, 0.014477391, -0.13610756, -0.94013524, -1.5516703, 5.109089, 1.003911, 0
1463, 1635694501, -0.3007206, 0.016039498, -0.13188455, -0.94444335, -3.541378, 4.9896717, 1.262083, 0
1464, 1635711168, -0.29156026, 0.014369283, -0.12961137, -0.9476518, -4.2681804, 4.9252453, 1.2138119, 0
1466, 1635744502, -0.2854282, 0.0065847114, -0.12582906, -0.95011115, -4.087532, 4.858196, -0.21529007, 0
1467, 1635761169, -0.28767425, 0.0016722679, -0.12472567, -0.9496005, -2.656874, 4.9572577, -0.7058897, 0
1468, 1635777836, -0.29153332, -0.0029204264, -0.123832755, -0.94853675, -0.775379, 5.234274, -1.0838213, 0
1470, 1635811170, -0.29756632, -0.011288203, -0.12346214, -0.9466471, 0.9598265, 5.9799595, -1.5672827, 0
1471, 1635827837, -0.29765978, -0.015346598, -0.12423455, -0.94645965, 0.8102595, 5.3530526, -3.2355347, 0
1472, 1635844504, -0.2960898, -0.0176268, -0.1262189, -0.9466498, 0.21575071, 5.0721526, -3.6032734, 0
1474, 1635877838, -0.29216295, -0.017493796, -0.1286111, -0.94754994, -0.9868126, 6.299118, -1.9429317, 0
1475, 1635894505, -0.29071066, -0.017321184, -0.12999253, -0.94781125, -1.3933558, 6.3438816, -2.15099, 0
1476, 1635911172, -0.29016736, -0.01645581, -0.13150987, -0.94778377, -1.5516635, 6.152591, -2.7315507, 0
1479, 1635961173, -0.28911856, -0.011802219, -0.14011696, -0.9469398, -1.5981272, 8.624675, -3.5537891, 0
1480, 1635977840, -0.2872147, -0.008545179, -0.14392534, -0.9469831, -1.3120517, 10.029187, -3.6849065, 0
1482, 1636011174, -0.28105024, 0.0026986338, -0.14734943, -0.9483399, -1.5490487, 12.960515, -4.4634194, 0
1483, 1636027841, -0.2763707, 0.011341315, -0.14822891, -0.9495134, -1.1637925, 12.561764, -7.520941, 0
1484, 1636044508, -0.27097306, 0.026130684, -0.14901707, -0.9506533, -0.7449401, 12.982182, -7.9786, 0
1486, 1636077842, -0.25601798, 0.061013173, -0.15314889, -0.9525411, -1.472348, 16.208479, -1.0582819, 0
1489, 1636127843, -0.2486276, 0.11891517, -0.16912383, -0.9463074, -2.7452326, 20.100681, -5.9109583, 0
1490, 1636144510, -0.25918126, 0.15007554, -0.1819907, -0.9366102, -2.4069045, 23.021803, -5.4812727, 0
1491, 1636161177, -0.2745326, 0.18675901, -0.19777907, -0.9223304, 0.86419374, 24.413784, -1.3893566, 0
1493, 1636194511, -0.30689067, 0.22416052, -0.17855346, -0.90760446, -18.101053, 8.57859, 0.43344784, 0
1495, 1636227845, -0.3202071, 0.29254276, -0.18759146, -0.8813356, -5.468408, -5.391823, 2.8481874, 0
1497, 1636261179, -0.31761, 0.41345656, -0.21200988, -0.8266113, 0.5861529, -8.965619, 5.2754335, 0
1498, 1636277846, -0.3168672, 0.48494, -0.22170685, -0.7844305, 1.2037313, -13.99039, 9.126898, 0
1499, 1636294513, -0.31413838, 0.55820346, -0.24274139, -0.7286011, 2.0095634, -17.334549, 11.7237, 0
1501, 1636327847, -0.3008323, 0.7106079, -0.28346455, -0.56942165, 20.295483, -11.01943, 20.79582, 0
1502, 1636344514, -0.27541643, 0.7695993, -0.31737354, -0.48082602, 39.24733, -52.568443, 52.494072, 0
1503, 1636361181, -0.2258089, 0.7934218, -0.32179925, -0.46475178, 18.330133, -42.8502, 8.940498, 0
1505, 1636394515, -0.2210368, 0.82706755, -0.36374393, -0.36721814, -0.4551421, -33.270496, 0.50130653, 0
1506, 1636411182, -0.23424193, 0.8339893, -0.37779862, -0.3269828, -0.7893369, -43.54492, -13.601483, 0
1507, 1636427849, -0.2571466, 0.83323425, -0.38946033, -0.29660404, -8.920527, -29.298492, -17.986534, 0
1510, 1636477850, -0.36814493, 0.80043054, -0.38448662, -0.27569374, -3.953251, -20.716902, -20.011889, 0
1511, 1636494517, -0.394767, 0.7909191, -0.3630457, -0.29472166, -0.52677447, -16.126722, -18.341728, 0
1513, 1636527851, -0.41428167, 0.78269625, -0.30397677, -0.3513011, 3.9191146, -11.854505, -17.941643, 0
1514, 1636544518, -0.41568923, 0.7765554, -0.27663308, -0.38431138, 3.606226, -9.4188, -16.943188, 0
1516, 1636577852, -0.42376596, 0.73726714, -0.2519729, -0.46198073, 4.1107674, -12.040616, -13.788352, 0
1517, 1636594519, -0.42682472, 0.7051164, -0.24874796, -0.5087365, 1.3791188, -9.526024, -10.355894, 0
1518, 1636611186, -0.43412787, 0.66602254, -0.24782151, -0.55370414, -4.287891, -4.663654, -6.306418, 0
1520, 1636644520, -0.46608305, 0.57976514, -0.24321, -0.62253094, -4.160375, -8.463542, -0.38533592, 0
1521, 1636661187, -0.48322076, 0.53436285, -0.23236619, -0.6534653, -3.6023965, -11.186825, 4.574603, 0
1522, 1636677854, -0.5008704, 0.48334435, -0.21919937, -0.6837511, 0.4768052, -9.290348, 7.5366516, 0
1525, 1636727855, -0.52162665, 0.33166075, -0.20208132, -0.7596888, 6.3977466, -6.4272847, 11.746325, 0
1526, 1636744522, -0.5108211, 0.28460756, -0.2045415, -0.785035, 6.96861, -5.729678, 16.360167, 0
1528, 1636777856, -0.4678233, 0.1934965, -0.20667021, -0.8372843, 4.379444, 2.0719004, 17.39804, 0
1529, 1636794523, -0.4409861, 0.15043187, -0.20458694, -0.8608733, 3.1072624, 5.7445583, 15.14362, 0
1530, 1636811190, -0.4128526, 0.11146258, -0.20057797, -0.88145006, 1.3650432, 8.401932, 12.662615, 0
1532, 1636844524, -0.36299384, 0.0573819, -0.18338718, -0.9117945, -4.259573, 12.688829, 3.845911, 0
1533, 1636861191, -0.3510854, 0.039706513, -0.17532521, -0.91895616, -7.258327, 15.897555, 3.3357277, 0
1534, 1636877858, -0.348336, 0.020807933, -0.17029631, -0.92156667, -6.3663282, 17.807299, 2.9871788, 0
1536, 1636911192, -0.3559293, -0.013321973, -0.16300388, -0.92012155, -2.3546076, 15.269375, -7.1869555, 0
1537, 1636927859, -0.36169145, -0.021730892, -0.1614613, -0.9179838, -0.48102123, 13.463022, -7.6403227, 0
1538, 1636944526, -0.3654585, -0.024493296, -0.15997952, -0.9166807, 2.3418517, 11.156591, -4.251991, 0
1540, 1636977860, -0.35978848, -0.013236288, -0.14400545, -0.92178977, 3.436874, 4.5265827, -1.3443756, 0
1541, 1636994527, -0.348265, -0.006848596, -0.13792954, -0.9271984, 1.6093394, 4.3409176, 0.61986256, 0
1542, 1637011194, -0.33266467, -0.0042894334, -0.13476916, -0.9333863, -0.020509828, 4.458084, 1.908351, 0
1544, 1637044528, -0.30252513, -0.0063260086, -0.130821, -0.9441298, -3.8865685, 5.066612, -0.7162552, 0
1545, 1637061195, -0.29351443, -0.008972209, -0.1295454, -0.9471239, -4.5418205, 5.295512, -1.4685564, 0
1547, 1637094529, -0.28951922, -0.017274208, -0.12512186, -0.9488318, -2.832738, 6.463628, -1.9561324, 0
1548, 1637111196, -0.2916988, -0.02181052, -0.123679996, -0.9482597, -1.492871, 6.197067, -3.445528, 0
1549, 1637127863, -0.29468274, -0.025555868, -0.12423316, -0.9471705, -0.2776502, 6.5892167, -2.9158115, 0
1552, 1637177864, -0.3005422, -0.03759639, -0.13514143, -0.943427, -0.5594843, 5.4254823, -5.0978646, 0
1553, 1637194531, -0.30044916, -0.038350694, -0.13869902, -0.94290984, -0.94576347, 6.2459073, -3.8921175, 0
1555, 1637227865, -0.3000846, -0.033633843, -0.14054431, -0.9429328, -1.8913487, 7.17674, -3.196403, 0
1556, 1637244532, -0.3000615, -0.029772852, -0.14258362, -0.9427638, -1.9756706, 7.833672, -2.2309852, 0
1557, 1637261199, -0.2990214, -0.025496699, -0.14474688, -0.9428899, -0.8062711, 6.6961155, -1.8329568, 0
1559, 1637294533, -0.29374355, -0.008581728, -0.14531933, -0.9447647, -1.6441401, 5.7476497, -1.7386522, 0
1560, 1637311200, -0.28892353, -3.5419315E-4, -0.14938438, -0.94565547, -2.4658113, 7.64017, -0.2763977, 0
1561, 1637327867, -0.282677, 0.0055958293, -0.15662004, -0.94635594, -2.3465497, 7.973688, -2.156085, 0
1563, 1637361201, -0.27058697, 0.025323328, -0.17112027, -0.94705653, -1.3697548, 14.07781, -2.6677947, 0
1564, 1637377868, -0.2655435, 0.03818421, -0.17803635, -0.94677806, -1.3150505, 18.223087, -4.189894, 0
1567, 1637427869, -0.27667397, 0.11320258, -0.20956801, -0.9310074, -3.2548048, 28.488064, -2.7307596, 0
1568, 1637444536, -0.29276952, 0.15141135, -0.22429903, -0.91711915, -3.8464282, 29.413467, 0.2549982, 0
1571, 1637494537, -0.34810928, 0.2600443, -0.2118801, -0.87542033, -11.625297, 14.209339, 27.554123, 0
1572, 1637511204, -0.35712826, 0.2808258, -0.20816319, -0.8662109, -2.396707, -10.32116, -1.7082787, 0
1574, 1637544538, -0.35485053, 0.35448462, -0.22523798, -0.8353121, -1.8009919, -3.8055308, 2.0448446, 0
1575, 1637561205, -0.3487816, 0.40646654, -0.23759252, -0.8103968, 0.1901143, -7.263841, 4.2651653, 0
1576, 1637577872, -0.34091717, 0.46982038, -0.24282593, -0.77726245, 0.016672501, -7.885309, 5.2228546, 0
1578, 1637611206, -0.31762552, 0.61783934, -0.25731367, -0.6717403, 8.616337, -29.39804, 16.90654, 0
1579, 1637627873, -0.3153534, 0.6913453, -0.27640042, -0.58843327, 15.091638, -16.24195, 15.799778, 0
1580, 1637644540, -0.3069353, 0.75228965, -0.30320436, -0.49797115, 52.03153, -30.998247, 38.075504, 0
1583, 1637694541, -0.25613666, 0.798774, -0.38041973, -0.38947648, -16.446827, -22.186031, 4.359132, 0
1584, 1637711208, -0.27625102, 0.805437, -0.39293882, -0.34729302, -4.2184386, -48.397392, -10.0027275, 0
1586, 1637744542, -0.33376276, 0.8055677, -0.38994998, -0.2960726, -6.904041, -20.865925, -15.528969, 0
1587, 1637761209, -0.36719006, 0.80036235, -0.38276732, -0.27953127, -0.555267, -25.33593, -20.73734, 0
1588, 1637777876, -0.3911326, 0.7936121, -0.3710364, -0.2821064, -0.93227434, -24.660517, -21.48676, 0
1590, 1637811210, -0.42682907, 0.77101874, -0.3412238, -0.3270631, -3.0465553, -14.434274, -16.730215, 0
1591, 1637827877, -0.44080555, 0.7557591, -0.32380873, -0.36017174, -2.1750052, -12.695244, -15.102598, 0
1592, 1637844544, -0.45156312, 0.7384486, -0.30435377, -0.3977561, -2.052373, -10.002392, -13.611507, 0
1594, 1637877878, -0.4656258, 0.69748914, -0.26713377, -0.47476098, -2.1688356, -6.23893, -12.200588, 0
1595, 1637894545, -0.4720615, 0.6718153, -0.2530382, -0.5117135, -3.0464945, -6.4624248, -10.14417, 0
1598, 1637944546, -0.49923888, 0.57456934, -0.22231093, -0.6093155, -2.095774, -10.159379, -1.5446119, 0
1599, 1637961213, -0.5090663, 0.5350987, -0.21040362, -0.640553, -1.1540973, -7.4346066, -0.1767559, 0
1601, 1637994547, -0.531107, 0.44980586, -0.19262195, -0.6917759, 4.131846, -6.303642, 4.3421535, 0
1602, 1638011214, -0.53607225, 0.40638363, -0.1893124, -0.7153295, 5.5671077, -5.3483887, 7.0726547, 0
1603, 1638027881, -0.534359, 0.36303076, -0.18985522, -0.7393788, 7.540782, -5.073052, 10.33618, 0
1605, 1638061215, -0.50602216, 0.28003713, -0.19296342, -0.79268074, 6.870668, -2.5028265, 11.810974, 0
1606, 1638077882, -0.4808676, 0.24028683, -0.19495001, -0.82041454, 5.7418585, -0.61403924, 11.800785, 0
1607, 1638094549, -0.4508323, 0.20344648, -0.19487002, -0.8470196, 4.5358396, 1.5550858, 11.713175, 0
1609, 1638127883, -0.38452706, 0.13832928, -0.18694426, -0.8933716, 1.6627661, 4.991259, 12.737135, 0
1610, 1638144550, -0.3521308, 0.109299034, -0.18062891, -0.91185933, -0.7866902, 7.753974, 11.054493, 0
1611, 1638161217, -0.32553005, 0.08438419, -0.17225257, -0.9259026, -3.8833873, 9.590038, 6.047858, 0
1613, 1638194551, -0.30621594, 0.04961197, -0.15357123, -0.93821293, -7.7483387, 10.907115, 1.3925438, 0
1614, 1638211218, -0.3106722, 0.034556955, -0.1498118, -0.93803084, -5.541317, 12.266381, 2.65275, 0
1615, 1638227885, -0.3187779, 0.018198289, -0.1482301, -0.9360205, -3.0853517, 13.134517, 2.016385, 0
1617, 1638261219, -0.33257714, -0.011730034, -0.14212689, -0.9322616, 2.6759374, 10.174973, -2.9577155, 0
1618, 1638277886, -0.3341416, -0.01915599, -0.13497534, -0.93264186, 4.117367, 7.871083, -3.795228, 0
1619, 1638294553, -0.33006698, -0.022153247, -0.12722763, -0.9351123, 3.9888031, 7.009722, -3.0905948, 0
1621, 1638327887, -0.3075563, -0.025475658, -0.1175588, -0.9439262, 0.89157003, 6.9641314, -1.8784723, 0
1622, 1638344554, -0.29423818, -0.027091492, -0.114877015, -0.94844604, -1.0184005, 6.824626, -2.2471561, 0
1625, 1638394555, -0.26880637, -0.03477384, -0.10613504, -0.9567268, -3.8520114, 6.4351087, -2.182507, 0
1626, 1638411222, -0.2669881, -0.03777103, -0.10327654, -0.95743495, -2.7477667, 6.258439, -2.4674354, 0
1628, 1638444556, -0.2669229, -0.044874553, -0.10096628, -0.95739293, -1.0891984, 6.900139, -2.1694574, 0
1629, 1638461223, -0.26654315, -0.04865568, -0.10206398, -0.95719755, -1.0873702, 6.6260633, -3.4550138, 0
1630, 1638477890, -0.26604584, -0.05101604, -0.10342914, -0.9570664, -1.0600464, 7.36251, -3.3414736, 0
1632, 1638511224, -0.26575726, -0.051508896, -0.106459916, -0.95678794, -2.2396152, 5.445604, -5.095523, 0
1633, 1638527891, -0.26593235, -0.048091713, -0.10900903, -0.9566301, -1.8630348, 5.6715403, -3.896439, 0
1634, 1638544558, -0.26676223, -0.042175945, -0.10970943, -0.956598, -0.97273755, 5.7193913, -2.3724341, 0
1636, 1638577892, -0.26719648, -0.029469486, -0.110564604, -0.9568541, -0.21892974, 4.7735, -1.6453962, 0
1637, 1638594559, -0.2647768, -0.023261666, -0.11261739, -0.95745826, -0.024921471, 3.5793693, -1.9749484, 0
1640, 1638644560, -0.25347155, 0.0028667264, -0.1152502, -0.9604782, -1.5518088, 4.154874, -1.2405052, 0
1641, 1638661227, -0.25226662, 0.013964027, -0.11680105, -0.9605108, -0.063117854, 5.393066, -0.6056948, 0
1642, 1638677894, -0.2518033, 0.02694577, -0.1172662, -0.96029925, 1.7350539, 5.6043715, -1.4436398, 0
1644, 1638711228, -0.24393788, 0.056539547, -0.12239477, -0.96040297, 1.2131864, 5.2693124, -1.8404422, 0
1645, 1638727895, -0.23619056, 0.072580054, -0.12693933, -0.9606714, 0.76080936, 4.7780523, -0.7500086, 0
1646, 1638744562, -0.22846991, 0.08972545, -0.13135943, -0.9604959, -0.15235774, 5.221397, 0.7385988, 0
1648, 1638777896, -0.21700338, 0.11098539, -0.14605583, -0.9588098, -1.1586426, 7.443526, 2.9555607, 0
1649, 1638794563, -0.21469223, 0.11763227, -0.15400556, -0.95729256, -1.8402741, 6.7828207, -2.080091, 0
1650, 1638811230, -0.21514624, 0.12474301, -0.16426782, -0.95458066, -3.1406221, 9.749742, -1.457963, 0
1652, 1638844564, -0.23177978, 0.1446877, -0.18661956, -0.9437021, -4.7102757, 14.243841, -7.8163476, 0
1655, 1638894565, -0.30149952, 0.22370455, -0.21516299, -0.90156317, -1.0748711, 37.97102, 4.938425, 0
1656, 1638911232, -0.3275058, 0.25547445, -0.19811904, -0.8878506, -0.9579603, 66.78904, 18.915714, 0
1657, 1638927899, -0.34306762, 0.28206587, -0.20194256, -0.8729373, 0.19648175, -26.833227, 7.008936, 0
1659, 1638961233, -0.35101557, 0.37767637, -0.20718533, -0.83143234, -0.45997414, -4.791292, -0.7937212, 0
1660, 1638977900, -0.34594256, 0.42822456, -0.21509117, -0.8066846, -3.6879919, -3.7894213, 3.3099165, 0
1661, 1638994567, -0.33888417, 0.4857219, -0.2217538, -0.7746701, 0.04617398, -7.145277, 7.3652287, 0
1663, 1639027901, -0.32738754, 0.6122193, -0.2489609, -0.6753372, 4.858313, -23.080502, 13.836103, 0
1664, 1639044568, -0.33003426, 0.677856, -0.2756683, -0.59636617, 10.871085, -16.437405, 18.314415, 0
1665, 1639061235, -0.33142617, 0.733322, -0.30550945, -0.50903475, 37.825043, -14.985447, 37.88069, 0
1667, 1639094569, -0.26990727, 0.7836491, -0.33769792, -0.44616273, -1.9808306, 1.0915054, 10.200289, 0
1669, 1639127903, -0.29718012, 0.8081747, -0.38759273, -0.3291905, 9.528135, -46.674282, -4.4178867, 0
1671, 1639161237, -0.32685474, 0.8108486, -0.41618544, -0.2500747, -6.720732, -26.069847, -17.392431, 0
1672, 1639177904, -0.3492562, 0.80670273, -0.42335227, -0.21927294, -3.2893972, -26.043943, -28.44554, 0
1673, 1639194571, -0.36898583, 0.7998489, -0.42510837, -0.20840116, -6.973266, -22.823996, -29.35742, 0
1675, 1639227905, -0.41674024, 0.77193785, -0.42310855, -0.22688241, -3.7479162, -15.145111, -23.49261, 0
1676, 1639244572, -0.43519974, 0.7544427, -0.41936612, -0.25613773, -2.530695, -19.959772, -21.449177, 0
1678, 1639277906, -0.45059144, 0.7137361, -0.39984205, -0.35739526, -5.1069875, -6.4107046, -12.338198, 0
1679, 1639294573, -0.46313766, 0.6862384, -0.3892541, -0.40387917, -6.7709055, -3.716417, -9.809869, 0
1680, 1639311240, -0.4770246, 0.65684044, -0.37597525, -0.44688654, -5.323017, -6.183654, -8.900939, 0
1682, 1639344574, -0.5006916, 0.5993852, -0.33981878, -0.5240472, -5.735795, -6.483694, -5.333507, 0
1684, 1639377908, -0.5216588, 0.53705895, -0.2975514, -0.59241855, -4.397849, -7.9143114, 0.95247364, 0
1686, 1639411242, -0.54659915, 0.4655117, -0.24617681, -0.6511392, 5.1701903, -9.610118, 3.1206675, 0
1687, 1639427909, -0.55154717, 0.4273615, -0.22757116, -0.6792837, 7.9008102, -9.471431, 3.0750494, 0
1688, 1639444576, -0.5483478, 0.3882841, -0.21814542, -0.70782745, 7.971007, -8.765123, 4.7449856, 0
