sep=,
DeviceTag:,Xsens_DOT_4,,,,,,,,,,,,,,,,,
FirmwareVersion:,3.0.0,,,,,,,,,,,,,,,,,
AppVersion:,2023.6.1,,,,,,,,,,,,,,,,,
SyncStatus:,Synced,,,,,,,,,,,,,,,,,
OutputRate:,60Hz,,,,,,,,,,,,,,,,,
FilterProfile:,General,,,,,,,,,,,,,,,,,
Measurement Mode:,Sensor fusion Mode - Extended (Quaternion),,,,,,,,,,,,,,,,,
StartTime:,2025-05-05 11:33:38.317 +0200,,,,,,,,,,,,,,,,,
 2025,,,,,,,,,,,,,,,,,,,

PacketCounter,SampleTimeFine,Quat_W,Quat_X,Quat_Y,Quat_Z,FreeAcc_X,FreeAcc_Y,FreeAcc_Z,Status
1, 1611327347, -0.4785846, 0.4886576, 0.5104999, 0.5211091, -0.04644644, 1.3333731, -0.07721996, 0
2, 1611344014, -0.47863588, 0.48856094, 0.5103822, 0.5212679, -0.04368069, 1.2778479, -0.034623146, 0
3, 1611360681, -0.47865745, 0.48840553, 0.5103099, 0.52146447, -0.010952582, 1.2640027, 0.012694359, 0
4, 1611377348, -0.4786254, 0.48821887, 0.51028466, 0.5216933, -0.027553113, 1.2799306, -0.031069756, 0
5, 1611394015, -0.47855923, 0.48799965, 0.5102823, 0.52196145, -0.015325165, 1.2714541, -0.048576355, 0
6, 1611410682, -0.47845665, 0.48774537, 0.5103202, 0.52225614, 0.043051276, 1.2563411, 0.04585743, 0
7, 1611427349, -0.4783181, 0.4874472, 0.51040155, 0.5225816, 0.04339325, 1.3351128, 0.0020923615, 0
8, 1611444016, -0.47817183, 0.4871268, 0.5104923, 0.52292556, 0.008134307, 1.3354441, -0.0065784454, 0
9, 1611460683, -0.47801995, 0.48680928, 0.5105803, 0.52327436, 0.085263714, 1.309788, -0.02900219, 0
10, 1611477350, -0.47786844, 0.48649493, 0.5106779, 0.5236096, 0.1559309, 1.2747183, -0.033810616, 0
11, 1611494017, -0.47770542, 0.48618108, 0.5107836, 0.5239468, 0.14915243, 1.3140588, -0.023947716, 0
12, 1611510684, -0.47755203, 0.48588288, 0.51086736, 0.524281, 0.11685897, 1.3325635, -0.01259613, 0
13, 1611527351, -0.47742838, 0.48559576, 0.51092714, 0.52460134, 0.14893651, 1.2832093, -0.01831913, 0
14, 1611544018, -0.47731537, 0.48533848, 0.5109773, 0.52489334, 0.16276482, 1.300701, -0.024158478, 0
15, 1611560685, -0.47722876, 0.4851097, 0.5110099, 0.52515197, 0.08329903, 1.3078078, 0.035307884, 0
16, 1611577352, -0.47715783, 0.48488057, 0.51102346, 0.52541476, 0.10257814, 1.3341318, 0.033765793, 0
17, 1611594019, -0.47709376, 0.48465985, 0.51103264, 0.52566767, 0.14700782, 1.3488363, -0.0521183, 0
18, 1611610686, -0.47703657, 0.48443618, 0.51104474, 0.5259139, 0.16365753, 1.3470159, -0.051695824, 0
19, 1611627353, -0.47699046, 0.48423213, 0.51105464, 0.52613395, 0.1365796, 1.367554, -0.014381409, 0
20, 1611644020, -0.4769621, 0.48406494, 0.511032, 0.5263354, 0.1255184, 1.3855662, 0.06154442, 0
21, 1611660687, -0.47696793, 0.48390424, 0.5109833, 0.52652526, 0.16257259, 1.4490201, 0.052537918, 0
22, 1611677354, -0.47701007, 0.48374417, 0.5109234, 0.5266921, 0.17216107, 1.4148406, -0.0035715103, 0
23, 1611694021, -0.47706643, 0.4836206, 0.51084864, 0.5268272, 0.16188261, 1.3833009, -0.045487404, 0
24, 1611710688, -0.47712773, 0.48352462, 0.5107549, 0.52695054, 0.13034761, 1.38552, 0.02071476, 0
25, 1611727355, -0.47719836, 0.48344618, 0.5106418, 0.52706814, 0.105362155, 1.4415264, -0.015240669, 0
26, 1611744022, -0.47730166, 0.4833439, 0.5105172, 0.52718914, 0.15243159, 1.4042901, -0.024019241, 0
27, 1611760689, -0.4774156, 0.48326007, 0.5104007, 0.52727544, 0.1325168, 1.3768318, -0.0017757416, 0
28, 1611777356, -0.47753978, 0.48320037, 0.5102567, 0.52735716, 0.056593034, 1.4415386, 0.020648956, 0
29, 1611794023, -0.47768134, 0.48316026, 0.51008767, 0.5274293, 0.08360994, 1.3878132, -0.08458805, 0
30, 1611810690, -0.47783154, 0.4831295, 0.5099157, 0.52748775, 0.16808398, 1.3049362, -0.032711983, 0
31, 1611827357, -0.4779901, 0.48309827, 0.50974876, 0.52753407, 0.14463747, 1.2849275, -0.0025510788, 0
32, 1611844024, -0.47814122, 0.4830672, 0.5095849, 0.5275838, 0.050821483, 1.2978828, 0.029899597, 0
33, 1611860691, -0.47829804, 0.4830374, 0.5094061, 0.5276417, 0.03397263, 1.3183284, -0.008211136, 0
34, 1611877358, -0.4784581, 0.48300803, 0.50923115, 0.52769226, 0.05363551, 1.2422137, -0.0138549805, 0
35, 1611894025, -0.47860533, 0.48297673, 0.509075, 0.5277381, 0.11998243, 1.2280486, -0.008796692, 0
36, 1611910692, -0.47875237, 0.48292175, 0.508923, 0.52780163, 0.045769196, 1.2054375, -0.039232254, 0
37, 1611927359, -0.47886103, 0.48286805, 0.5087931, 0.52787757, 0.030513722, 1.1937828, -0.112713814, 0
38, 1611944026, -0.47896206, 0.4827941, 0.5086695, 0.5279724, 0.0954968, 1.1265264, 0.016415596, 0
39, 1611960693, -0.47903177, 0.48270515, 0.50858086, 0.52807593, 0.062963374, 1.1608541, 0.055698395, 0
40, 1611977360, -0.4791027, 0.4826044, 0.5084938, 0.52818763, -0.014267726, 1.2058265, 0.04214382, 0
41, 1611994027, -0.47917327, 0.48249787, 0.508401, 0.5283101, 0.010221471, 1.2067357, -0.010743141, 0
42, 1612010694, -0.47921902, 0.48238817, 0.5083269, 0.5284401, 0.09108421, 1.1788361, -0.012499809, 0
43, 1612027361, -0.4792535, 0.48224664, 0.5082795, 0.5285835, 0.08045818, 1.1854707, 0.0060863495, 0
44, 1612044028, -0.4792559, 0.4820912, 0.50824916, 0.5287524, -0.0048643122, 1.2508818, -0.021510124, 0
45, 1612060695, -0.47925913, 0.48191485, 0.50821596, 0.52894205, 0.024054687, 1.2793243, -0.015604019, 0
46, 1612077362, -0.47925174, 0.48174587, 0.5081845, 0.52913296, 0.08896017, 1.2501857, -0.019574165, 0
47, 1612094029, -0.47924307, 0.4815699, 0.5081672, 0.5293176, 0.055279225, 1.2209663, 0.004746437, 0
48, 1612110696, -0.47921976, 0.48140907, 0.5081486, 0.5295027, -1.1957943E-4, 1.254777, 0.03916645, 0
49, 1612127363, -0.4792018, 0.4812513, 0.5081148, 0.5296948, 0.046219572, 1.2440126, 0.008423805, 0
50, 1612144030, -0.47917607, 0.48106104, 0.5081075, 0.529898, 0.12433838, 1.1714988, -0.0063762665, 0
51, 1612160697, -0.4791244, 0.48085657, 0.5081251, 0.5301132, 0.076360516, 1.1755579, -0.019124031, 0
52, 1612177364, -0.47908115, 0.4806528, 0.5081389, 0.53032386, 0.04036309, 1.1921743, 0.035204887, 0
53, 1612194031, -0.47904035, 0.48043826, 0.5081488, 0.5305456, 0.07965555, 1.226476, 0.002087593, 0
54, 1612210698, -0.4789941, 0.4802299, 0.508166, 0.5307596, 0.08439916, 1.1647339, 0.013754845, 0
55, 1612227365, -0.47894177, 0.48002645, 0.5081836, 0.5309738, 0.080782056, 1.1604663, 0.02459526, 0
56, 1612244032, -0.47890413, 0.47983882, 0.50818527, 0.5311758, 0.096962824, 1.1501567, -0.015709877, 0
57, 1612260699, -0.47886848, 0.4796559, 0.5081879, 0.5313707, 0.10861143, 1.1626834, 0.034518242, 0
58, 1612277366, -0.47884414, 0.47945717, 0.5081914, 0.5315684, 0.13430424, 1.1984953, -0.011130333, 0
59, 1612294033, -0.47882393, 0.47927934, 0.50818604, 0.531752, 0.07350894, 1.2132695, -0.044218063, 0
60, 1612310700, -0.47881216, 0.47911134, 0.50817204, 0.5319274, 0.043427672, 1.1923077, 0.04252243, 0
61, 1612327367, -0.4788119, 0.47895998, 0.5081419, 0.53209287, 0.11778261, 1.1816493, 0.037672043, 0
62, 1612344034, -0.47880805, 0.47880483, 0.5081149, 0.5322617, 0.12349266, 1.1654929, 0.048290253, 0
63, 1612360701, -0.478812, 0.47863382, 0.50809515, 0.53243065, 0.08896911, 1.1937574, -0.081053734, 0
64, 1612377368, -0.47880962, 0.4784879, 0.508068, 0.5325899, -0.015858468, 1.0894827, 0.030783653, 0
65, 1612394035, -0.47881, 0.47833973, 0.5080308, 0.5327582, 0.06799354, 1.1361885, 0.019845963, 0
66, 1612410702, -0.47881114, 0.47816876, 0.50800765, 0.53293276, 0.09594674, 1.1481657, 0.003777504, 0
67, 1612427369, -0.47880563, 0.4779889, 0.5080002, 0.53310597, 0.07261265, 1.16927, 0.020007133, 0
68, 1612444036, -0.47880113, 0.47781983, 0.50798434, 0.53327674, 0.05807962, 1.1572164, -0.029148102, 0
69, 1612460703, -0.47879016, 0.47766104, 0.5079695, 0.5334428, 0.07146112, 1.1550597, 0.036250114, 0
70, 1612477370, -0.47877756, 0.47751972, 0.5079432, 0.53360575, 0.058932096, 1.1610265, -0.014192581, 0
71, 1612494037, -0.4787869, 0.47736314, 0.5079087, 0.5337703, 0.06368711, 1.1017745, -0.012720108, 0
72, 1612510704, -0.47878596, 0.47722042, 0.50788707, 0.5339194, 0.0948513, 1.0899849, 0.017027855, 0
73, 1612527371, -0.47877935, 0.47708136, 0.50785697, 0.53407806, 0.075393155, 1.0890962, 0.0529747, 0
74, 1612544038, -0.47877055, 0.4769426, 0.5078183, 0.5342467, 0.060910553, 1.128908, 0.050683975, 0
75, 1612560705, -0.47877413, 0.47678557, 0.5077942, 0.53440654, 0.0975453, 1.1420984, 0.0070028305, 0
76, 1612577372, -0.47878587, 0.47663513, 0.50775963, 0.5345631, 0.105622835, 1.10926, 0.05001545, 0
77, 1612594039, -0.47879666, 0.4765016, 0.5077204, 0.53470963, 0.06691039, 1.1213241, 0.055891037, 0
78, 1612610706, -0.4788069, 0.4763676, 0.5076808, 0.5348574, 0.06054251, 1.1066372, 0.03066349, 0
79, 1612627373, -0.47881913, 0.4762224, 0.5076382, 0.53501624, 0.036174454, 1.0865613, -0.011727333, 0
80, 1612644040, -0.47883743, 0.47607884, 0.50759983, 0.53516376, 0.05808856, 1.0468134, 0.011424065, 0
81, 1612660707, -0.4788468, 0.4759528, 0.5075679, 0.5352978, 0.085527904, 1.036069, 0.009563446, 0
82, 1612677374, -0.47885114, 0.4758339, 0.5075291, 0.5354365, 0.04157676, 1.0490882, -0.0049037933, 0
83, 1612694041, -0.47884974, 0.47569403, 0.50749475, 0.5355945, 0.056857225, 1.0360733, 0.037169456, 0
84, 1612710708, -0.4788273, 0.47552904, 0.5074893, 0.53576624, 0.07441395, 1.0446558, -1.9073486E-4, 0
85, 1612727375, -0.4788026, 0.47535288, 0.50749063, 0.5359435, 0.042888336, 1.083185, -0.0020999908, 0
86, 1612744042, -0.4787608, 0.4751935, 0.507487, 0.5361255, 0.045446664, 1.1039019, -0.018214226, 0
87, 1612760709, -0.47872674, 0.47503555, 0.50747985, 0.5363027, 0.11039872, 1.1610582, 0.028155327, 0
88, 1612777376, -0.47870597, 0.47485933, 0.50748384, 0.5364736, 0.10918585, 1.1569641, 0.05930233, 0
89, 1612794043, -0.4787004, 0.47468403, 0.50748384, 0.53663355, 0.07485605, 1.1855972, 0.092785835, 0
90, 1612810710, -0.47872168, 0.47452813, 0.50744134, 0.53679264, 0.11284141, 1.1954749, 0.008237839, 0
91, 1612827377, -0.47874448, 0.4744106, 0.5073823, 0.53693205, 0.13974611, 1.1528586, 0.09888649, 0
92, 1612844044, -0.47879013, 0.47431844, 0.5072958, 0.5370545, 0.14256193, 1.1603601, 0.08011055, 0
93, 1612860711, -0.47886848, 0.47423598, 0.50719494, 0.5371526, 0.050093055, 1.1263596, -0.021425247, 0
94, 1612877378, -0.47897997, 0.47418776, 0.50706017, 0.53722304, 0.07289115, 1.0775065, -0.041015625, 0
95, 1612894045, -0.4790858, 0.4741678, 0.50691974, 0.5372789, 0.10765457, 1.0028161, -0.0034542084, 0
96, 1612910712, -0.4792039, 0.474145, 0.50678277, 0.53732294, 0.1376062, 1.0148492, 0.03308201, 0
97, 1612927379, -0.47931916, 0.4741165, 0.5066444, 0.5373757, 0.08007128, 1.0164156, 0.02021122, 0
98, 1612944046, -0.4794315, 0.474063, 0.5065277, 0.53743255, -0.003535081, 0.9639162, 0.020362854, 0
99, 1612960713, -0.47952196, 0.47400618, 0.5064322, 0.5374919, -0.012857258, 0.9649103, -0.0051174164, 0
100, 1612977380, -0.47959733, 0.47391993, 0.50635576, 0.5375728, 9.009807E-4, 1.0091436, 0.026351929, 0
101, 1612994047, -0.47962958, 0.47379994, 0.5063263, 0.5376776, 0.07203353, 1.0594012, 0.046517372, 0
102, 1613010714, -0.47964174, 0.4736393, 0.50631416, 0.5378197, 0.00462873, 1.072151, 6.980896E-4, 0
103, 1613027381, -0.47963762, 0.47347558, 0.506313, 0.53796864, 0.014446313, 1.0166154, 0.06601143, 0
104, 1613044048, -0.4796341, 0.47332188, 0.5063007, 0.5381185, 0.02775204, 1.0727167, 0.056720734, 0
105, 1613060715, -0.47964, 0.47316962, 0.5062737, 0.5382725, 0.07778028, 1.0208669, 0.10708332, 0
106, 1613077382, -0.47965416, 0.47300452, 0.5062611, 0.5384168, 0.122217335, 0.99737895, 0.08268452, 0
107, 1613094049, -0.47968233, 0.47284085, 0.5062386, 0.5385567, 0.15682295, 0.9464674, 0.052355766, 0
108, 1613110716, -0.47970062, 0.47268862, 0.5062086, 0.5387022, 0.04072518, 0.9402356, 0.022539139, 0
109, 1613127383, -0.47972277, 0.4725721, 0.50614804, 0.53884155, -0.0011678552, 0.9821005, -0.006960869, 0
110, 1613144050, -0.47977173, 0.47247663, 0.5060633, 0.5389614, 0.054445073, 0.9087543, 0.035824776, 0
111, 1613160717, -0.47984928, 0.4723959, 0.50596416, 0.539056, 0.102916315, 0.8443043, 0.0667305, 0
112, 1613177384, -0.47993773, 0.47231823, 0.5058714, 0.53913236, 0.09415678, 0.86814773, 0.0054063797, 0
113, 1613194051, -0.48003304, 0.47227162, 0.5057492, 0.53920305, 0.14481874, 0.8693183, -0.058517456, 0
114, 1613210718, -0.48014224, 0.47223854, 0.5056156, 0.5392601, 0.22114082, 0.8002242, -0.102433205, 0
115, 1613227385, -0.48023924, 0.47221985, 0.50550276, 0.539296, 0.083882846, 0.828985, -0.00802803, 0
116, 1613244052, -0.48035625, 0.4722087, 0.50538456, 0.53931224, -0.06545622, 0.9604231, -0.011076927, 0
117, 1613260719, -0.48049596, 0.47219503, 0.50525796, 0.5393183, 0.0506011, 0.99470663, 0.10031605, 0
118, 1613277386, -0.48062873, 0.47215167, 0.5051403, 0.53934824, 0.17652138, 0.9429285, 0.090153694, 0
119, 1613294053, -0.48073822, 0.47209933, 0.5050368, 0.5393935, 0.051942624, 0.9072458, 0.048651695, 0
120, 1613310720, -0.48081565, 0.47204173, 0.50495476, 0.5394515, -0.08586407, 0.9341775, -0.030402184, 0
121, 1613327387, -0.48086876, 0.47196332, 0.5048853, 0.53953785, -0.1385787, 0.9463071, -0.022110939, 0
122, 1613344054, -0.48090544, 0.47187677, 0.5048146, 0.539647, -0.13111314, 1.0030674, 0.0024318695, 0
123, 1613360721, -0.4809188, 0.47176307, 0.50476617, 0.53977984, -0.054623436, 0.9609316, 0.0901556, 0
124, 1613377388, -0.48088354, 0.47161788, 0.5047626, 0.5399415, -0.060771313, 0.9907786, 0.080041885, 0
125, 1613394055, -0.48081014, 0.4714364, 0.50479066, 0.54013884, -0.07664684, 0.9699886, -0.11954689, 0
126, 1613410722, -0.48069727, 0.47123256, 0.5048303, 0.54038024, -0.061445724, 0.857026, -0.08905506, 0
127, 1613427389, -0.48056236, 0.47104165, 0.50486976, 0.54062986, 0.0627649, 0.79027814, 0.1425972, 0
128, 1613444056, -0.48040724, 0.4708, 0.504945, 0.5409078, 0.12601861, 0.8439798, 0.108584404, 0
129, 1613460723, -0.480258, 0.47051156, 0.50505024, 0.541193, -0.028864464, 0.84697574, 0.06006813, 0
130, 1613477390, -0.48009714, 0.4702517, 0.50513655, 0.54148084, -0.040823523, 0.7613837, -0.058704376, 0
131, 1613494057, -0.47994202, 0.47003055, 0.50519866, 0.5417522, 0.06424947, 0.69107324, 0.0076770782, 0
132, 1613510724, -0.47977942, 0.4698157, 0.5052816, 0.5420053, 0.11522562, 0.77558994, 0.016926765, 0
133, 1613527391, -0.47961897, 0.46956092, 0.5054011, 0.54225653, 0.16536807, 0.85727006, -0.04518032, 0
134, 1613544058, -0.47945184, 0.4692869, 0.5055355, 0.54251635, 0.19814938, 0.8833532, 0.005235672, 0
135, 1613560725, -0.47928125, 0.46904284, 0.5056398, 0.5427808, 0.1433782, 0.92988294, 0.13213444, 0
136, 1613577392, -0.4791184, 0.46882117, 0.50574404, 0.54301894, 0.05337713, 1.0026717, 0.17119026, 0
137, 1613594059, -0.47899768, 0.46857238, 0.5058505, 0.5432409, 0.120509386, 1.1012936, 0.048529625, 0
138, 1613610726, -0.47891137, 0.46830422, 0.50595677, 0.5434493, 0.13210286, 0.968303, 0.04016781, 0
139, 1613627393, -0.47883984, 0.4681049, 0.50601494, 0.54362994, 0.045434598, 0.9231635, 0.05708599, 0
140, 1613644060, -0.4788117, 0.4679649, 0.50600415, 0.54378533, 0.075984344, 0.9806524, 0.01739502, 0
141, 1613660727, -0.47882566, 0.4678487, 0.5059731, 0.5439017, 0.20108724, 0.96517587, 0.060647964, 0
142, 1613677394, -0.47888672, 0.46773636, 0.5059328, 0.54398197, 0.2233603, 1.0325637, 0.07615566, 0
143, 1613694061, -0.47898093, 0.46768263, 0.50583524, 0.5440359, 0.066320315, 1.0555934, 0.009592056, 0
144, 1613710728, -0.4791151, 0.46772265, 0.5056507, 0.5440552, 0.10638144, 1.0079902, -0.00568676, 0
145, 1613727395, -0.47928587, 0.46779475, 0.5054302, 0.54404753, 0.18019436, 0.9441297, 0.028248787, 0
146, 1613744062, -0.47949028, 0.46788126, 0.50522566, 0.5439831, 0.052729387, 0.86207515, 0.10265446, 0
147, 1613760729, -0.47972542, 0.4679941, 0.5049804, 0.54390645, -0.119171746, 0.8152693, 0.087163925, 0
148, 1613777396, -0.47997755, 0.4681399, 0.5046888, 0.54382914, 0.07355633, 0.7995141, -0.061458588, 0
149, 1613794063, -0.480212, 0.46828315, 0.504413, 0.5437546, 0.301076, 0.7544332, 0.05121994, 0
150, 1613810730, -0.4804268, 0.46839055, 0.50417435, 0.5436939, 0.14627716, 0.8703465, 0.0670414, 0
151, 1613827397, -0.48063326, 0.46847826, 0.50395066, 0.5436431, -0.08035336, 0.9051318, 0.083642006, 0
152, 1613844064, -0.48083383, 0.4685677, 0.5037297, 0.54359365, -0.07752077, 0.948019, -0.022447586, 0
153, 1613860731, -0.4810383, 0.4686487, 0.5035187, 0.5435382, 0.04777813, 0.880038, 0.013035774, 0
154, 1613877398, -0.48123887, 0.46871352, 0.5033295, 0.5434801, 0.06270075, 0.86892, 0.12992859, 0
155, 1613894065, -0.48143947, 0.4687531, 0.5031378, 0.5434457, 0.05186618, 0.9193839, -0.0044498444, 0
156, 1613910732, -0.48161513, 0.4688041, 0.5029564, 0.54341406, 0.010020533, 0.903432, -0.0073184967, 0
157, 1613927399, -0.48177055, 0.46886054, 0.50277674, 0.54339385, 0.07643763, 0.9109702, -0.004342079, 0
158, 1613944066, -0.48193094, 0.46889985, 0.50260586, 0.54337573, 0.064945266, 0.86345315, 0.081609726, 0
159, 1613960733, -0.48211157, 0.46894032, 0.50243586, 0.5433378, -0.019049786, 0.9128303, 0.0431633, 0
160, 1613977400, -0.4823138, 0.4690142, 0.5022309, 0.5432841, 0.027138943, 0.87398463, -0.011947632, 0
161, 1613994067, -0.4825198, 0.46911532, 0.502007, 0.54322094, 0.14340155, 0.8008523, 0.1333313, 0
162, 1614010734, -0.48273134, 0.4692039, 0.50178295, 0.54316336, 0.12346766, 0.8649556, 0.0881443, 0
163, 1614027401, -0.48293853, 0.46927905, 0.50156903, 0.543112, 0.0166839, 0.8315297, 0.044861794, 0
164, 1614044068, -0.4831586, 0.46935433, 0.5013502, 0.54305315, 0.011421959, 0.8420095, -0.039957047, 0
165, 1614060735, -0.4833775, 0.4694388, 0.5011266, 0.5429919, 0.07813633, 0.7943552, 0.00646019, 0
166, 1614077402, -0.48359075, 0.46953875, 0.5008962, 0.542928, 0.11592253, 0.78711337, 0.08157349, 0
167, 1614094069, -0.48381433, 0.4696249, 0.5006701, 0.5428629, 0.057772286, 0.83915526, -0.0012607574, 0
168, 1614110736, -0.48405567, 0.46972105, 0.5004365, 0.54277986, 0.022382364, 0.7857947, -0.035942078, 0
169, 1614127403, -0.48429355, 0.4698513, 0.50019765, 0.5426749, 0.06332882, 0.7356942, 0.046611786, 0
170, 1614144070, -0.48453957, 0.47000274, 0.49992895, 0.5425718, 0.07244502, 0.7449367, 0.047225952, 0
171, 1614160737, -0.48480272, 0.4701408, 0.49966085, 0.5424641, 0.0272545, 0.782389, 0.07823849, 0
172, 1614177404, -0.48504943, 0.4702696, 0.49940926, 0.5423636, 0.09804083, 0.8238357, 0.029136658, 0
173, 1614194071, -0.48528165, 0.47038734, 0.49916846, 0.54227555, 0.027300095, 0.8213663, 0.087641716, 0
174, 1614210738, -0.48550448, 0.4705145, 0.49892125, 0.5421933, -0.07814594, 0.8594002, 0.050100327, 0
175, 1614227405, -0.48572338, 0.4706159, 0.4986942, 0.54211813, -0.027669339, 0.8432359, -0.024845123, 0
176, 1614244072, -0.4859159, 0.47070137, 0.49849343, 0.54205585, 0.005353582, 0.8132595, -0.048443794, 0
177, 1614260739, -0.4860858, 0.47076556, 0.49831828, 0.5420088, -0.01346062, 0.7958353, -0.0031166077, 0
178, 1614277406, -0.4862269, 0.47082475, 0.49814963, 0.5419859, -0.08509496, 0.8642622, 0.078271866, 0
179, 1614294073, -0.48633343, 0.47086576, 0.49800465, 0.541988, -0.08970648, 0.9130918, 0.1146574, 0
180, 1614310740, -0.48639798, 0.47082967, 0.4979128, 0.5420458, -0.035686973, 0.9643169, 0.028949738, 0
181, 1614327407, -0.4863946, 0.47073627, 0.49787995, 0.5421602, -0.07025705, 0.9280245, -0.01899147, 0
182, 1614344074, -0.48635074, 0.4706374, 0.497857, 0.54230624, -0.12839277, 0.90711147, 0.053622246, 0
183, 1614360741, -0.48627368, 0.47052518, 0.49785137, 0.5424779, -0.01951514, 0.8979928, 0.101465225, 0
184, 1614377408, -0.48617268, 0.47035882, 0.49789482, 0.5426728, 0.056731388, 0.9481916, 0.10406399, 0
185, 1614394075, -0.48604432, 0.47014105, 0.49797633, 0.5429018, -0.07090144, 0.8717602, 0.17406368, 0
186, 1614410742, -0.48590282, 0.4699146, 0.49803954, 0.5431664, -0.09390356, 0.8777509, 0.11310291, 0
187, 1614427409, -0.4857666, 0.46967658, 0.4981023, 0.54343647, 0.106709555, 0.7533538, 0.11990261, 0
188, 1614444076, -0.485594, 0.46939874, 0.49823043, 0.5437133, 0.18866862, 0.7201259, -0.0022001266, 0
189, 1614460743, -0.4854278, 0.46911043, 0.49836326, 0.5439887, 0.029672015, 0.7094793, 0.020876884, 0
190, 1614477410, -0.48529202, 0.4688771, 0.4984455, 0.5442355, 0.058765355, 0.7012795, -0.016903877, 0
191, 1614494077, -0.48517463, 0.46867165, 0.49851042, 0.54445785, 0.2801594, 0.6870301, 0.0018539429, 0
192, 1614510744, -0.4850663, 0.46846047, 0.49860716, 0.54464734, 0.21386278, 0.72617775, 0.07484341, 0
193, 1614527411, -0.48500276, 0.46827203, 0.49865678, 0.54482067, 0.08415017, 0.840489, 0.0013246536, 0
194, 1614544078, -0.48497564, 0.46813235, 0.4986684, 0.54495406, 0.06985652, 0.7855267, 0.02139473, 0
195, 1614560745, -0.48497596, 0.46804595, 0.49865025, 0.5450446, 0.12090151, 0.7453558, 0.079333305, 0
196, 1614577412, -0.48503163, 0.46796903, 0.4986114, 0.54509664, 0.16594653, 0.7557362, 0.10923958, 0
197, 1614594079, -0.48512378, 0.46790567, 0.49855545, 0.54512024, 0.17327842, 0.7513473, 0.07647991, 0
198, 1614610746, -0.4852524, 0.46786687, 0.49846038, 0.545126, 0.16614008, 0.7600558, -0.0053949356, 0
199, 1614627413, -0.4854061, 0.46787357, 0.49832636, 0.5451058, 0.15772295, 0.75109434, 0.024291992, 0
200, 1614644080, -0.4855809, 0.46792176, 0.4981736, 0.5450485, 0.0987735, 0.84524643, 0.08302021, 0
201, 1614660747, -0.48577902, 0.46798372, 0.498005, 0.5449729, 0.0059923823, 0.90630746, 0.09368515, 0
202, 1614677414, -0.4860079, 0.4680696, 0.4978087, 0.5448744, 0.045676883, 0.9549611, -0.0178833, 0
203, 1614694081, -0.4862554, 0.46818405, 0.49757823, 0.5447658, 0.06970989, 0.88242465, 0.06564331, 0
204, 1614710748, -0.4865062, 0.4683161, 0.49734786, 0.5446387, -0.011955261, 0.8813239, 0.10013771, 0
205, 1614727415, -0.4867733, 0.46844798, 0.49710014, 0.5445125, -0.02667426, 0.9009711, 0.05590439, 0
206, 1614744082, -0.48702806, 0.46856335, 0.49685213, 0.5444119, 0.039764296, 0.8360779, 0.033162117, 0
207, 1614760749, -0.48729184, 0.46865836, 0.49662343, 0.54430294, 0.079280496, 0.7466973, -0.011177063, 0
208, 1614777416, -0.48752373, 0.46877605, 0.49640182, 0.54419595, 0.013735989, 0.68004864, 0.04425621, 0
209, 1614794083, -0.4877446, 0.46886793, 0.49620208, 0.5441012, -0.017311301, 0.7490923, 0.01367569, 0
210, 1614810750, -0.4879448, 0.46895203, 0.49600288, 0.5440306, -0.020014914, 0.76044095, -0.05716324, 0
211, 1614827417, -0.48813367, 0.469028, 0.49581724, 0.54396504, -0.05446505, 0.68176836, 0.064349174, 0
212, 1614844084, -0.48829487, 0.46910536, 0.4956371, 0.5439177, -0.04254234, 0.6899715, 0.11779308, 0
213, 1614860751, -0.48843277, 0.46915832, 0.4954702, 0.5439004, -0.08294521, 0.70153296, 0.05389881, 0
214, 1614877418, -0.48854733, 0.46916443, 0.49533886, 0.54391176, -0.1068991, 0.68630165, -0.050512314, 0
215, 1614894085, -0.48860514, 0.46912336, 0.49526948, 0.5439584, -0.06968776, 0.629111, -0.013171196, 0
216, 1614910752, -0.48860207, 0.46906438, 0.4952436, 0.5440356, -0.104736604, 0.6149691, 0.065963745, 0
217, 1614927419, -0.48855218, 0.4689538, 0.49524742, 0.5441723, -0.13111627, 0.69399095, 0.026325226, 0
218, 1614944086, -0.48846546, 0.46880278, 0.49527845, 0.54435205, -0.09015261, 0.64443344, 0.056969643, 0
219, 1614960753, -0.48833755, 0.46861994, 0.49534386, 0.5445648, 0.030628428, 0.63085747, 0.051213264, 0
220, 1614977420, -0.48818251, 0.46841934, 0.49544108, 0.5447876, -0.0054313648, 0.6478872, 0.08446503, 0
221, 1614994087, -0.4880027, 0.4682186, 0.49553367, 0.5450369, -0.022213388, 0.6601699, 0.13817883, 0
222, 1615010754, -0.4878506, 0.46799216, 0.4956316, 0.5452784, 0.07919936, 0.6783073, 0.07672882, 0
223, 1615027421, -0.48770267, 0.4677659, 0.49573725, 0.54550904, 0.10453232, 0.5933234, 0.14180183, 0
224, 1615044088, -0.48755965, 0.46756417, 0.49581844, 0.54573613, 0.07482184, 0.66537446, 0.074230194, 0
225, 1615060755, -0.4874396, 0.46739283, 0.49587068, 0.5459425, 0.054140873, 0.63907117, 0.059393883, 0
226, 1615077422, -0.4873654, 0.46721724, 0.4959155, 0.5461183, 0.16276571, 0.5848523, 0.06742382, 0
227, 1615094089, -0.48731488, 0.46705315, 0.49595007, 0.54627246, 0.29588354, 0.61150664, -0.108818054, 0
228, 1615110756, -0.4872953, 0.46692634, 0.49595273, 0.5463957, 0.16813695, 0.6254892, 0.23973656, 0
229, 1615127423, -0.4873424, 0.4668815, 0.4958615, 0.5464748, -0.09635465, 0.8146379, 0.16114616, 0
230, 1615144090, -0.4874658, 0.46690765, 0.49570146, 0.5464877, 0.07703307, 0.7600862, -0.056179047, 0
231, 1615160757, -0.48762003, 0.4669309, 0.4955622, 0.54645646, 0.27394485, 0.60465664, 0.005293846, 0
232, 1615177424, -0.48778144, 0.4669491, 0.49543154, 0.54641527, 0.010210742, 0.41941828, 0.1598959, 0
233, 1615194091, -0.487952, 0.46700975, 0.49526048, 0.54636633, -0.07068754, 0.27019632, -0.19999027, 0
234, 1615210758, -0.48811617, 0.467116, 0.49506623, 0.546305, 0.052145798, 0.025997238, -0.1332283, 0
235, 1615227425, -0.4882764, 0.46720284, 0.49491245, 0.54622674, 0.09199257, -0.115954496, 0.028961182, 0
236, 1615244092, -0.48840103, 0.4672684, 0.49479333, 0.5461671, -0.029597597, 0.102268696, -0.019024849, 0
237, 1615260759, -0.48848614, 0.46730864, 0.4946589, 0.5461784, -0.2527802, 0.25896278, 0.14624977, 0
238, 1615277426, -0.4885295, 0.46731865, 0.49454215, 0.5462368, -0.22639628, 0.44464216, 0.08964348, 0
239, 1615294093, -0.4885092, 0.4672569, 0.49448994, 0.54635507, -0.122652955, 0.54959375, -0.009961128, 0
240, 1615310760, -0.4884189, 0.4671161, 0.49452674, 0.5465229, -0.22340702, 0.6370656, -0.009152412, 0
241, 1615327427, -0.48826337, 0.46691132, 0.494611, 0.5467605, -0.28048775, 0.69733495, -0.0015087128, 0
242, 1615344094, -0.48801443, 0.4666962, 0.494712, 0.54707515, -0.11951774, 0.6945864, 0.04365635, 0
243, 1615360761, -0.48770028, 0.466423, 0.49488986, 0.54742706, -0.08877733, 0.7182283, 0.07608986, 0
244, 1615377428, -0.4873918, 0.4660896, 0.4951057, 0.54779047, -0.18270083, 0.78382325, 0.058216095, 0
245, 1615394095, -0.48707172, 0.4657866, 0.4952801, 0.54817516, -0.09382493, 0.7455134, 0.024609566, 0
246, 1615410762, -0.4867542, 0.46553993, 0.49539894, 0.5485592, 0.066568196, 0.67902565, -0.038970947, 0
247, 1615427429, -0.48643047, 0.46532208, 0.4954969, 0.54894274, 0.2232539, 0.6187422, -0.008366585, 0
248, 1615444096, -0.48613656, 0.46510452, 0.4956131, 0.5492824, 0.14032553, 0.6262091, 0.02982521, 0
249, 1615460763, -0.48588914, 0.46492672, 0.4957003, 0.54957294, -0.014487886, 0.60442287, 0.19968224, 0
250, 1615477430, -0.48566633, 0.4647737, 0.49575534, 0.5498495, 0.09052766, 0.580268, 0.0736742, 0
251, 1615494097, -0.48545814, 0.46461654, 0.4958247, 0.55010366, 0.15741324, 0.5582978, 0.0932188, 0
252, 1615510764, -0.4852862, 0.46443576, 0.49589854, 0.55034155, 0.26787826, 0.6373474, 0.12866116, 0
253, 1615527431, -0.48514587, 0.46426854, 0.49595177, 0.5505584, 0.23739177, 0.6727711, 0.13694954, 0
254, 1615544098, -0.48503923, 0.46412882, 0.49598545, 0.5507396, 0.3213734, 0.63589215, 0.20583439, 0
255, 1615560765, -0.4849645, 0.4639701, 0.49602535, 0.5509032, 0.20618735, 0.6636294, 0.16228867, 0
256, 1615577432, -0.4849054, 0.4638064, 0.49608162, 0.5510424, 0.044667725, 0.6607834, 0.075470924, 0
257, 1615594099, -0.4848726, 0.46364316, 0.4961302, 0.5511649, 0.008141012, 0.64103025, 0.06381798, 0
258, 1615610766, -0.48485357, 0.4635015, 0.4961647, 0.5512697, 0.12158255, 0.66207105, -0.03686905, 0
259, 1615627433, -0.4848519, 0.46337536, 0.4961832, 0.55136067, 0.08030128, 0.7051789, -0.021826744, 0
260, 1615644100, -0.4848634, 0.46330827, 0.4961472, 0.5514393, 0.056556825, 0.7430686, 0.010195732, 0
261, 1615660767, -0.4849288, 0.46327788, 0.49608615, 0.55146223, 0.17841879, 0.76648897, 0.081754684, 0
262, 1615677434, -0.48499435, 0.4633088, 0.4959875, 0.5514674, 0.1274596, 0.8430075, 0.0072050095, 0
263, 1615694101, -0.48511633, 0.46336335, 0.49585095, 0.55143696, 0.027408723, 0.9118638, -0.020700455, 0
264, 1615710768, -0.48523927, 0.46347737, 0.49566615, 0.5513992, -0.040522676, 0.9014101, 0.052241325, 0
265, 1615727435, -0.4853849, 0.4635964, 0.49547896, 0.55133915, -0.03258081, 0.912008, 4.415512E-4, 0
266, 1615744102, -0.48554546, 0.46371785, 0.49530727, 0.55125, -0.02331486, 0.982704, 0.046829224, 0
267, 1615760769, -0.48564628, 0.46384862, 0.49513248, 0.55120826, 0.010405199, 1.1082622, 0.06627464, 0
268, 1615777436, -0.4857069, 0.4639273, 0.49498826, 0.55121803, 0.017502628, 1.1829604, 0.16292858, 0
269, 1615794103, -0.4857245, 0.4639565, 0.49488565, 0.5512701, -0.06600874, 1.2329944, 0.185359, 0
270, 1615810770, -0.4857159, 0.46393952, 0.4948147, 0.5513557, -0.08653282, 1.2160088, 0.08397865, 0
271, 1615827437, -0.48572677, 0.46389523, 0.4947518, 0.5514398, -0.06258161, 1.1230824, 0.031172752, 0
272, 1615844104, -0.48573312, 0.46385184, 0.49469975, 0.55151725, 0.08049774, 0.9718343, 0.13041687, 0
273, 1615860771, -0.4857038, 0.46378195, 0.4946789, 0.55162054, 0.13953121, 0.940377, 0.17419815, 0
274, 1615877438, -0.48565066, 0.4636512, 0.494711, 0.5517484, 0.037583034, 0.9464996, 0.09516144, 0
275, 1615894105, -0.48560208, 0.4634992, 0.4947369, 0.5518956, -0.009358487, 0.8228882, 0.06531429, 0
276, 1615910772, -0.4855511, 0.46336994, 0.49476585, 0.552023, 0.058412876, 0.7212374, 0.15361404, 0
277, 1615927439, -0.48551077, 0.4632592, 0.49477887, 0.55213976, 0.14859387, 0.746789, 0.062437057, 0
278, 1615944106, -0.4854777, 0.4631507, 0.49477184, 0.55226624, 0.14080131, 0.6256081, 0.10526466, 0
279, 1615960773, -0.48547286, 0.46305716, 0.4947674, 0.5523529, 0.16352566, 0.59923285, 0.060863495, 0
280, 1615977440, -0.4855038, 0.46297342, 0.4947524, 0.5524094, 0.19800857, 0.5644082, 0.055386543, 0
281, 1615994107, -0.48556435, 0.4629036, 0.4947317, 0.5524333, 0.060247023, 0.57555974, 0.053494453, 0
282, 1616010774, -0.48563743, 0.46284434, 0.49471453, 0.552434, 0.07213613, 0.62484926, 0.051735878, 0
283, 1616027441, -0.48571676, 0.4627694, 0.4947003, 0.55243987, 0.14195777, 0.6455765, 0.090688705, 0
284, 1616044108, -0.48577154, 0.46269855, 0.49470085, 0.55245054, 0.13067864, 0.7121471, 0.08589935, 0
285, 1616060775, -0.48587418, 0.4626298, 0.49467853, 0.55243784, 0.08341369, 0.75739866, 0.030656815, 0
286, 1616077442, -0.4860119, 0.46260345, 0.49462533, 0.55238646, 0.15684661, 0.75253123, 0.045895576, 0
287, 1616094109, -0.4861382, 0.4626384, 0.49453965, 0.5523226, 0.115406, 0.77543885, 0.111266136, 0
288, 1616110776, -0.48632187, 0.46265984, 0.4944587, 0.55221546, -0.010951911, 0.79314756, -0.02251339, 0
289, 1616127443, -0.48653775, 0.4627116, 0.4943392, 0.552089, -0.048313666, 0.7309969, 0.037765503, 0
290, 1616144110, -0.48674327, 0.46281886, 0.4941743, 0.5519654, 0.08599438, 0.66255677, 0.067168236, 0
291, 1616160777, -0.4869825, 0.46291864, 0.49400982, 0.55181813, 0.060842685, 0.60822505, 0.12694836, 0
292, 1616177444, -0.48726174, 0.46303186, 0.49381053, 0.55165493, -0.02910921, 0.55591005, 6.67572E-4, 0
293, 1616194111, -0.48755592, 0.46321598, 0.4935575, 0.5514669, 0.08410547, 0.40277684, 0.0060510635, 0
294, 1616210778, -0.48785222, 0.46339202, 0.49330342, 0.55128425, 0.15195327, 0.34952173, 0.0017709732, 0
295, 1616227445, -0.4881001, 0.46359766, 0.4930414, 0.55112624, -0.04564626, 0.3744877, -0.02576065, 0
296, 1616244112, -0.48836508, 0.4637855, 0.49279228, 0.55095625, -0.253906, 0.42615002, 0.11924744, 0
297, 1616260779, -0.48860875, 0.46394962, 0.49254116, 0.55082655, -0.085613064, 0.41902354, 0.09809971, 0
298, 1616277446, -0.48882583, 0.464057, 0.49235138, 0.55071324, 0.05982926, 0.39407527, 0.071567535, 0
299, 1616294113, -0.48899445, 0.46412048, 0.49222308, 0.55062455, -0.04566839, 0.34812656, 0.054995537, 0
300, 1616310780, -0.48911506, 0.4641584, 0.4921179, 0.5505796, -0.11388589, 0.3718444, -0.0047397614, 0
301, 1616327447, -0.48920032, 0.46417257, 0.4920338, 0.55056703, -0.01036899, 0.36723715, 0.0011787415, 0
302, 1616344114, -0.48927882, 0.46413556, 0.49198854, 0.550569, 0.077670306, 0.3387167, 0.081186295, 0
303, 1616360781, -0.4893371, 0.46409532, 0.4919513, 0.55058426, -0.037080128, 0.40546635, 0.08017063, 0
304, 1616377448, -0.48938385, 0.46407804, 0.4919001, 0.55060303, -0.07993181, 0.40073615, 0.095080376, 0
305, 1616394115, -0.48943955, 0.46403962, 0.49186543, 0.55061674, 0.021655276, 0.44787884, 0.0072813034, 0
306, 1616410782, -0.48953074, 0.46395093, 0.49185568, 0.55061907, 0.06792693, 0.43707064, 0.038134575, 0
307, 1616427449, -0.48958844, 0.46390542, 0.4918181, 0.55064, 0.01265821, 0.41507316, 0.07180214, 0
308, 1616444116, -0.48964757, 0.46389732, 0.49175093, 0.5506541, -0.028355524, 0.45442152, 0.026504517, 0
309, 1616460783, -0.48974034, 0.46389464, 0.49167702, 0.5506399, 0.0094955005, 0.44596466, 0.044573784, 0
310, 1616477450, -0.48983166, 0.46391007, 0.49158496, 0.55062795, 0.11814246, 0.50455123, 0.0072193146, 0
311, 1616494117, -0.4899419, 0.46389705, 0.49149895, 0.55061764, 0.14856797, 0.634019, 0.15698528, 0
312, 1616510784, -0.49008158, 0.46391293, 0.49137473, 0.5505907, -0.24843845, 0.8350006, 0.31269836, 0
313, 1616527451, -0.4902589, 0.46400437, 0.49117357, 0.5505353, -0.2994137, 0.7132352, 0.23929787, 0
314, 1616544118, -0.49046367, 0.46405667, 0.4909951, 0.55046815, 0.357901, 0.5519829, -0.038645744, 0
315, 1616560785, -0.49061716, 0.46405515, 0.4908725, 0.5504418, 0.22065914, 0.16112691, -0.0020933151, 0
316, 1616577452, -0.49075043, 0.464113, 0.49071646, 0.55041337, -0.24852316, -0.03637338, -0.32063293, 0
317, 1616594119, -0.4909526, 0.46428606, 0.49045134, 0.55032355, -0.3352122, -0.42165518, -0.3128395, 0
318, 1616610786, -0.4912477, 0.46455204, 0.49012282, 0.5501284, 0.2955, -0.853393, 0.026337624, 0
319, 1616627453, -0.49157068, 0.46478787, 0.4898551, 0.54987895, 0.6694747, -0.71415585, 0.018133163, 0
320, 1616644120, -0.49189398, 0.46505085, 0.48957017, 0.5496212, 0.097189024, -0.27686706, -0.01399231, 0
321, 1616660787, -0.49222475, 0.46538904, 0.48917666, 0.54938936, -0.14881448, 0.00686833, 0.23325443, 0
322, 1616677454, -0.49252802, 0.46569827, 0.48880452, 0.5491866, 0.103967495, 0.18860202, 0.09212303, 0
323, 1616694121, -0.4928076, 0.46586812, 0.48856962, 0.54900056, -0.10526292, 0.33177233, 0.044088364, 0
324, 1616710788, -0.49303567, 0.4659692, 0.48839983, 0.5488611, -0.47564653, 0.5197646, -0.042105675, 0
325, 1616727455, -0.49318635, 0.466032, 0.48825347, 0.5488027, -0.2684813, 0.5687906, 0.04395199, 0
326, 1616744122, -0.49317342, 0.46599883, 0.4882281, 0.54886484, -0.1269786, 0.63192904, -0.06598759, 0
327, 1616760789, -0.49303403, 0.46579117, 0.48839128, 0.5490213, -0.25729716, 0.7173346, 0.03632641, 0
328, 1616777456, -0.49279043, 0.46544495, 0.48868087, 0.549276, -0.4414325, 0.87895864, 0.0012979507, 0
329, 1616794123, -0.49244392, 0.4650901, 0.4889759, 0.54962456, -0.45563048, 0.94253874, -0.15323353, 0
330, 1616810790, -0.49203137, 0.46473002, 0.48927292, 0.5500343, -0.18813756, 0.80438715, 0.1397152, 0
331, 1616827457, -0.49154553, 0.46434152, 0.4896075, 0.5504987, -0.041270327, 0.84434545, 0.119805336, 0
332, 1616844124, -0.4910384, 0.46391377, 0.4899634, 0.5509951, -0.20871572, 0.8679598, 0.1560154, 0
333, 1616860791, -0.490474, 0.46354115, 0.4902584, 0.5515488, -0.35860777, 0.8709464, 0.1503067, 0
334, 1616877458, -0.48989195, 0.46319696, 0.49049944, 0.55214065, -0.12673967, 0.8354199, 0.11427307, 0
335, 1616894125, -0.4893038, 0.4627614, 0.49082837, 0.55273473, 0.142626, 0.7074983, 0.16112041, 0
336, 1616910792, -0.4886946, 0.46221793, 0.49125963, 0.5533449, 0.04018383, 0.6345926, 0.19093609, 0
337, 1616927459, -0.48805133, 0.46166995, 0.49167678, 0.5539993, -0.07869712, 0.5423236, 0.078769684, 0
338, 1616944126, -0.48739272, 0.46113446, 0.49207667, 0.55466944, 0.22550379, 0.3913189, 0.024582863, 0
339, 1616960793, -0.48673302, 0.46058813, 0.49250156, 0.5553252, 0.30411083, 0.32137787, 0.042956352, 0
340, 1616977460, -0.4861718, 0.46005777, 0.492922, 0.5558834, 0.23576258, 0.31887588, 0.09428692, 0
341, 1616994127, -0.4856978, 0.45960143, 0.49327043, 0.5563658, 0.24918275, 0.309221, 0.11226463, 0
342, 1617010794, -0.48531833, 0.45923594, 0.49354228, 0.5567576, 0.34714153, 0.33274463, -0.011834145, 0
343, 1617027461, -0.48500288, 0.4589426, 0.49376, 0.5570811, 0.3908562, 0.34813932, 0.12575912, 0
344, 1617044128, -0.4847734, 0.458675, 0.49394783, 0.55733466, 0.29937303, 0.44163612, 0.081920624, 0
345, 1617060795, -0.48464084, 0.45843413, 0.49409786, 0.5575151, 0.16317026, 0.5020072, 0.007675171, 0
346, 1617077462, -0.4845553, 0.45828593, 0.49417078, 0.5576467, 0.13664845, 0.44864368, -0.0068483353, 0
347, 1617094129, -0.48447967, 0.45822302, 0.49421218, 0.5577274, 0.19631232, 0.48370773, 0.0602026, 0
348, 1617110796, -0.4844689, 0.458149, 0.4942512, 0.55776304, 0.078458846, 0.62876457, 0.05237007, 0
349, 1617127463, -0.48449138, 0.45809448, 0.49424905, 0.5577902, 0.04188186, 0.69809175, 0.059329987, 0
350, 1617144130, -0.48453853, 0.45809332, 0.49420616, 0.55778813, 0.14833504, 0.6995162, 0.13109016, 0
351, 1617160797, -0.48459613, 0.45810455, 0.4941648, 0.55776554, 0.16639243, 0.77153814, 0.15675735, 0
352, 1617177464, -0.4846523, 0.45810333, 0.49413493, 0.55774415, 0.03305399, 0.8834989, 0.1251154, 0
353, 1617194131, -0.48472118, 0.45808178, 0.49410066, 0.5577324, -0.065591216, 0.8896019, 0.115392685, 0
354, 1617210798, -0.48477018, 0.45806456, 0.49405664, 0.557743, -0.030275501, 0.87411046, 0.09001064, 0
355, 1617227465, -0.48483157, 0.45802033, 0.49403685, 0.5577435, -0.07150626, 0.8787982, 0.10289192, 0
356, 1617244132, -0.484871, 0.45799163, 0.493994, 0.5577705, -0.119818814, 0.8802778, 0.08692455, 0
357, 1617260799, -0.48492306, 0.45797557, 0.49393153, 0.55779386, -0.05496161, 0.8387954, 0.06462288, 0
358, 1617277466, -0.48494494, 0.45798528, 0.49384314, 0.5578451, 0.04662972, 0.8037434, 0.044251442, 0
359, 1617294133, -0.48497996, 0.45798877, 0.49375373, 0.55789113, 0.053268056, 0.7943914, -0.009884834, 0
360, 1617310800, -0.4850032, 0.4580149, 0.4936659, 0.557927, -0.0015852823, 0.71482193, 0.08207893, 0
361, 1617327467, -0.4850284, 0.45804274, 0.4935737, 0.55796385, -0.023429299, 0.67548877, 0.07789993, 0
362, 1617344134, -0.48503515, 0.45809218, 0.49346554, 0.55801296, -0.028811043, 0.6110015, 0.12733078, 0
363, 1617360801, -0.4850418, 0.45809153, 0.49339837, 0.5580674, -0.002975628, 0.6921349, 0.07605171, 0
364, 1617377468, -0.4850329, 0.4580376, 0.4933727, 0.55814207, -0.022234622, 0.5958491, 0.1374569, 0
365, 1617394135, -0.48494565, 0.45799214, 0.49333975, 0.55828404, -0.03484835, 0.61984545, 0.07120228, 0
366, 1617410802, -0.4848644, 0.4579066, 0.49334776, 0.5584179, 0.011771757, 0.5979097, 0.076989174, 0
367, 1617427469, -0.48476854, 0.4577845, 0.4934006, 0.5585545, 0.11876249, 0.57426894, 0.10104656, 0
368, 1617444136, -0.48464882, 0.45763066, 0.49347582, 0.5587181, 0.073852256, 0.5652399, 0.1091423, 0
369, 1617460803, -0.48452464, 0.45746368, 0.49356794, 0.558881, -0.013374568, 0.5074214, 0.1511488, 0
370, 1617477470, -0.48441032, 0.4572788, 0.49366364, 0.5590469, 0.018443394, 0.5637435, 0.056194305, 0
371, 1617494137, -0.4843032, 0.45706004, 0.49379778, 0.5592, 0.05071643, 0.4821758, 0.03138733, 0
372, 1617510804, -0.48419973, 0.4568697, 0.4939045, 0.559351, 0.084870555, 0.46060365, 0.012296677, 0
373, 1617527471, -0.48413122, 0.45669135, 0.4939986, 0.55947286, 0.12433883, 0.40599698, 0.08697319, 0
374, 1617544138, -0.48407552, 0.45655584, 0.49407944, 0.5595601, 0.12424124, 0.45007375, 0.104372025, 0
375, 1617560805, -0.48403725, 0.45644492, 0.49413112, 0.5596381, 0.052567117, 0.5466624, 0.061899185, 0
376, 1617577472, -0.4840342, 0.45634502, 0.49416423, 0.5596929, 0.07013747, 0.52070606, 0.012044907, 0
377, 1617594139, -0.48407793, 0.4562961, 0.49415433, 0.55970377, 0.080473825, 0.48548958, 0.07348919, 0
378, 1617610806, -0.48415604, 0.45629877, 0.49409503, 0.55968636, 0.10549722, 0.47319102, 0.16881657, 0
379, 1617627473, -0.48426843, 0.45629972, 0.49402544, 0.5596498, 0.089349754, 0.49737957, 0.10322857, 0
380, 1617644140, -0.48441046, 0.4563132, 0.49393672, 0.5595942, 0.07850848, 0.44676888, 0.07703018, 0
381, 1617660807, -0.48456043, 0.45634314, 0.49384037, 0.5595251, 0.09514075, 0.43311065, 0.07428169, 0
382, 1617677474, -0.48473302, 0.45637247, 0.4937432, 0.5594372, 0.018013356, 0.4139411, 0.08102512, 0
383, 1617694141, -0.4848869, 0.45641768, 0.49362108, 0.5593747, -0.047008574, 0.43555835, 0.037035942, 0
384, 1617710808, -0.48502952, 0.45646077, 0.49350977, 0.55931425, -0.022697965, 0.4391131, 0.044158936, 0
385, 1617727475, -0.48516828, 0.4565038, 0.49342114, 0.55923706, 0.012415623, 0.43449762, 0.07623291, 0
386, 1617744142, -0.48530167, 0.4565468, 0.49331868, 0.55917645, -0.016031913, 0.42022315, 0.088157654, 0
387, 1617760809, -0.48543215, 0.45657966, 0.4932237, 0.5591202, -0.009893578, 0.41782483, 0.045093536, 0
388, 1617777476, -0.4855584, 0.45658734, 0.49314743, 0.5590715, -0.0033824216, 0.4322642, -0.0065603256, 0
389, 1617794143, -0.48567057, 0.4565933, 0.4930681, 0.5590393, -0.08323868, 0.42421976, -0.026824951, 0
390, 1617810810, -0.48574325, 0.45662656, 0.49298453, 0.55902267, -0.13152218, 0.4113036, 0.07121277, 0
391, 1617827477, -0.48581916, 0.45664525, 0.49290004, 0.5590159, -0.07667903, 0.47401577, -0.0060167313, 0
392, 1617844144, -0.4858752, 0.45666733, 0.4928347, 0.5590068, -0.0072487486, 0.42644483, 0.030574799, 0
393, 1617860811, -0.4858889, 0.45666656, 0.49280953, 0.55901766, -0.03913466, 0.4552646, 0.12249088, 0
394, 1617877478, -0.48586285, 0.45663866, 0.49278817, 0.5590819, -0.09629318, 0.5061887, 0.08466816, 0
395, 1617894145, -0.48581582, 0.45656562, 0.4928038, 0.55916864, -0.008185492, 0.53547, 0.06259632, 0
396, 1617910812, -0.48573375, 0.45645383, 0.49286345, 0.5592787, -0.017316889, 0.49738672, 0.15175343, 0
397, 1617927479, -0.48565927, 0.45631462, 0.49293998, 0.55938953, -0.04867844, 0.5401508, 0.101306915, 0
398, 1617944146, -0.48558626, 0.45619044, 0.49298567, 0.55951405, -0.029195745, 0.481945, 0.12545013, 0
399, 1617960813, -0.48550773, 0.45605716, 0.49303842, 0.55964416, 0.039683383, 0.5019976, 0.061567307, 0
400, 1617977480, -0.48542517, 0.45588577, 0.49310943, 0.5597929, 0.1380986, 0.6140949, 0.11923313, 0
401, 1617994147, -0.48537683, 0.45573553, 0.4931414, 0.559929, -0.17663938, 0.63844395, 0.289649, 0
402, 1618010814, -0.48537678, 0.45566294, 0.49310538, 0.5600198, -0.10209401, 0.5611192, 0.2423954, 0
403, 1618027481, -0.4854416, 0.45553914, 0.49308595, 0.5600815, 0.3149092, 0.33560202, 0.061448097, 0
404, 1618044148, -0.48547274, 0.45538092, 0.49312592, 0.56014806, 0.25986353, 0.04665319, 0.015863419, 0
405, 1618060815, -0.48554295, 0.4552692, 0.49312449, 0.56017905, -0.22363052, -0.21060754, -0.09076691, 0
406, 1618077482, -0.4856652, 0.45532262, 0.4929865, 0.5601511, -0.123297796, -0.5015416, -0.41294575, 0
407, 1618094149, -0.48582825, 0.45543888, 0.49284205, 0.5600423, 0.34007674, -0.7791715, -0.25218678, 0
408, 1618110816, -0.48603472, 0.45553267, 0.49274522, 0.55987215, 0.2151842, -0.77615434, 0.07158184, 0
409, 1618127483, -0.48628923, 0.45562685, 0.4926131, 0.55969083, 0.03103008, -0.5414521, 0.042398453, 0
410, 1618144150, -0.48649347, 0.45576376, 0.4924325, 0.5595607, 0.16648726, -0.42549327, 0.02591896, 0
411, 1618160817, -0.48665088, 0.455851, 0.49232426, 0.559448, 0.15062381, -0.27066347, 0.035595894, 0
412, 1618177484, -0.48679373, 0.45585614, 0.49228346, 0.55935544, -0.1675138, -0.05059931, 0.061203957, 0
413, 1618194151, -0.4869462, 0.4558418, 0.4922261, 0.5592849, -0.3594855, 0.09508509, 0.013932228, 0
414, 1618210818, -0.48706493, 0.45585805, 0.49215892, 0.55922735, -0.14202483, 0.14389451, 0.04243183, 0
415, 1618227485, -0.4871413, 0.45584962, 0.49211687, 0.55920476, -0.074513406, 0.21126355, 0.02586174, 0
416, 1618244152, -0.4871944, 0.45580205, 0.49211952, 0.55919486, -0.18733224, 0.2720499, 0.010068893, 0
417, 1618260819, -0.48722598, 0.45575392, 0.49211743, 0.5592084, -0.17832199, 0.2904202, -0.06510925, 0
418, 1618277486, -0.48723432, 0.45572537, 0.49210134, 0.5592386, -0.105016, 0.3477569, -0.06491184, 0
419, 1618294153, -0.48722023, 0.45571658, 0.49208832, 0.5592693, -0.08062202, 0.44995797, -0.05155945, 0
420, 1618310820, -0.4871793, 0.4557309, 0.4920519, 0.5593255, -0.07323581, 0.57845044, 0.054278374, 0
421, 1618327487, -0.4871251, 0.4557634, 0.492002, 0.5593902, -0.16172592, 0.7473299, 0.08063412, 0
422, 1618344154, -0.48709524, 0.45584697, 0.49189574, 0.5594416, -0.2772503, 0.8796761, 0.04674816, 0
423, 1618360821, -0.48709643, 0.45598888, 0.49172696, 0.55947334, -0.06553042, 0.91952294, 0.14644814, 0
424, 1618377488, -0.48707765, 0.45610377, 0.4915777, 0.5595269, 0.18896322, 1.0122027, 0.23933315, 0
425, 1618394155, -0.4870576, 0.45618516, 0.49144575, 0.559594, 0.1277162, 1.1034137, 0.2528515, 0
426, 1618410822, -0.48706555, 0.4562691, 0.49126342, 0.5596788, 0.11577681, 1.0099279, 0.22918129, 0
427, 1618427489, -0.48710853, 0.4563185, 0.4911134, 0.55973285, 0.17378311, 0.9147525, 0.28525257, 0
428, 1618444156, -0.48713988, 0.45633382, 0.49100527, 0.5597879, 0.121571824, 1.0336833, 0.34323406, 0
429, 1618460823, -0.48713425, 0.45637593, 0.49086803, 0.5598787, -0.24976902, 0.8961792, 0.10929489, 0
430, 1618477490, -0.48725465, 0.45638677, 0.49073318, 0.5598833, 0.28014064, 0.7392669, 0.12934494, 0
431, 1618494157, -0.48731333, 0.45654336, 0.49046284, 0.5599415, 0.20385343, 0.69940376, -8.31604E-4, 0
432, 1618510824, -0.487432, 0.4566362, 0.49027267, 0.5599291, 0.17782222, 0.54654104, -0.013784409, 0
433, 1618527491, -0.4876039, 0.4567162, 0.4901017, 0.55986387, 0.12761942, 0.62147063, 0.20344925, 0
434, 1618544158, -0.48781747, 0.4569232, 0.48980427, 0.5597692, 0.1306963, 0.47615078, 0.16639805, 0
435, 1618560825, -0.4881143, 0.45711428, 0.48951712, 0.55960536, 0.15443528, 0.4624136, 0.1071949, 0
436, 1618577492, -0.48839936, 0.4572888, 0.4892433, 0.5594537, 0.25291163, 0.36632544, 0.016084671, 0
437, 1618594159, -0.48861444, 0.45732692, 0.48912588, 0.5593375, 0.17147042, 0.2631141, 0.07271004, 0
438, 1618610826, -0.4886825, 0.4572667, 0.48915586, 0.55930084, 0.04126228, 0.4710739, -0.31276417, 0
439, 1618627493, -0.48874733, 0.45719346, 0.48922116, 0.55924696, -0.26560178, 0.29497942, 0.537158, 0
440, 1618644160, -0.4888837, 0.45725846, 0.4890896, 0.5591897, -0.87113726, 0.49505416, -0.032886505, 0
441, 1618660827, -0.48906144, 0.45733497, 0.4889098, 0.559129, 0.55807495, 0.31649166, -0.35273552, 0
442, 1618677494, -0.48915696, 0.45733458, 0.48890334, 0.55905145, 0.63965744, 0.3179159, 0.0013055801, 0
443, 1618694161, -0.48927712, 0.45734677, 0.48889798, 0.558941, -0.13164645, 0.53352094, 0.14598656, 0
444, 1618710828, -0.4894428, 0.45743403, 0.48870847, 0.5588904, -0.53167474, 0.5879075, 0.026600838, 0
445, 1618727495, -0.4895649, 0.45750758, 0.4885091, 0.5588975, 0.27688384, 0.06180111, -0.13511372, 0
446, 1618744162, -0.48959833, 0.45738342, 0.48858958, 0.5588994, 0.4024885, -0.07258628, -0.092062, 0
447, 1618760829, -0.4894947, 0.4571675, 0.4888187, 0.5589665, -0.52216756, -0.033590417, 0.4346676, 0
448, 1618777496, -0.48936567, 0.45705402, 0.48888955, 0.5591103, -0.94555616, 0.10285239, 0.78741837, 0
449, 1618794163, -0.489251, 0.45696333, 0.4888434, 0.5593251, -0.34105194, -0.33288658, 0.3941164, 0
450, 1618810830, -0.489122, 0.45669067, 0.48899743, 0.5595258, -0.01685824, -0.68134415, -0.34445763, 0
451, 1618827497, -0.48897785, 0.45634165, 0.4892374, 0.5597268, -0.31703636, -0.901867, -0.37797832, 0
452, 1618844164, -0.48881567, 0.45620033, 0.48930115, 0.5599279, -0.44274318, -0.7602894, -0.22218037, 0
453, 1618860831, -0.48862645, 0.45618653, 0.48919532, 0.5601967, 0.0486315, -0.7264938, 0.031464577, 0
454, 1618877498, -0.48841947, 0.45607153, 0.48918957, 0.5604757, 0.17639732, -0.6688509, -0.0029268265, 0
455, 1618894165, -0.48815882, 0.4559231, 0.4892869, 0.56073874, -0.3136868, -0.38322526, -0.12350941, 0
456, 1618910832, -0.4879228, 0.45584092, 0.48929206, 0.5610064, -0.52795124, -0.31461304, 0.17314816, 0
457, 1618927499, -0.48766947, 0.45577496, 0.48918152, 0.56137633, 0.0497437, -0.6461413, 0.007969856, 0
458, 1618944166, -0.48737234, 0.45552903, 0.489158, 0.5618544, 0.23668435, -1.3574537, -0.10280895, 0
459, 1618960833, -0.48708722, 0.45519897, 0.48929757, 0.5622476, -0.03687103, -1.836422, -0.45321655, 0
460, 1618977500, -0.48681492, 0.45512995, 0.4894214, 0.5624312, -0.20197833, -1.7803184, -0.19375324, 0
461, 1618994167, -0.4865944, 0.4553308, 0.4893499, 0.5625219, -0.18870573, -0.94025886, -0.071445465, 0
462, 1619010834, -0.4864671, 0.45552555, 0.48911995, 0.5626741, 0.14293386, -0.7663542, 0.08575821, 0
463, 1619027501, -0.48637986, 0.45558375, 0.48892847, 0.56286895, 0.14377582, -0.9006222, 0.06133747, 0
464, 1619044168, -0.4863154, 0.45557594, 0.48877576, 0.56306356, -0.36817008, -1.4197322, -0.1874342, 0
465, 1619060835, -0.4862093, 0.45569766, 0.48860547, 0.5632044, -0.6122858, -1.8404202, -0.5899563, 0
466, 1619077502, -0.48604602, 0.4560194, 0.48837557, 0.5632844, -0.35965648, -1.8352649, -0.50801945, 0
467, 1619094169, -0.48586866, 0.45638314, 0.48810834, 0.5633747, -0.013044886, -1.7898489, 0.008504868, 0
468, 1619110836, -0.4857303, 0.45659566, 0.48790577, 0.56349695, 0.047153857, -1.6483395, 0.2336235, 0
469, 1619127503, -0.48558742, 0.45672524, 0.48771706, 0.56367844, -0.20051324, -1.6864847, -0.23358345, 0
470, 1619144170, -0.48539495, 0.45700848, 0.4874861, 0.5638145, -0.6648413, -2.2918038, -0.36211586, 0
471, 1619160837, -0.48519063, 0.45742264, 0.4871978, 0.56390357, -0.37702444, -2.344903, -0.67456055, 0
472, 1619177504, -0.48498198, 0.45780155, 0.4869402, 0.56399816, -0.041727364, -2.179471, -0.48926735, 0
473, 1619194171, -0.4847676, 0.4580669, 0.48674968, 0.5641313, -0.19747123, -2.4198272, -0.16964531, 0
474, 1619210838, -0.4844758, 0.45831642, 0.48654968, 0.5643519, -0.4794952, -2.2725031, 0.16560745, 0
475, 1619227505, -0.48416194, 0.45852697, 0.48634684, 0.5646251, -0.4966556, -2.2021685, -0.6829157, 0
476, 1619244172, -0.48373264, 0.4587128, 0.48621103, 0.564959, -0.2488077, -2.3826504, -0.36502457, 0
477, 1619260839, -0.48323384, 0.4587454, 0.48622483, 0.5653472, -0.2040271, -2.517728, -0.26502323, 0
478, 1619277506, -0.48262948, 0.45880446, 0.4862961, 0.56575406, -0.7489278, -2.7904127, -0.124180794, 0
479, 1619294173, -0.48203337, 0.45888975, 0.48627368, 0.56621236, -0.34383377, -2.3639681, -0.2915964, 0
480, 1619310840, -0.48140672, 0.45885018, 0.48634577, 0.56671524, 0.16659628, -2.567295, -0.14746761, 0
481, 1619327507, -0.48073122, 0.4586678, 0.4866151, 0.5672051, -0.13056968, -2.5791354, 0.48495007, 0
482, 1619344174, -0.4800333, 0.45852545, 0.48683476, 0.5677224, -0.43931204, -2.5978203, 0.39780426, 0
483, 1619360841, -0.47941476, 0.45851207, 0.4869139, 0.568188, -0.11699205, -2.8589413, -0.3576088, 0
484, 1619377508, -0.4789432, 0.4585079, 0.48693472, 0.568571, 0.12421755, -2.8366747, -0.8050022, 0
485, 1619394175, -0.4785561, 0.4585069, 0.4869495, 0.56888497, 0.1835727, -3.3401802, -1.4030628, 0
486, 1619410842, -0.4782409, 0.45862612, 0.48695606, 0.5690482, -0.17863412, -3.376663, 0.39453983, 0
487, 1619427509, -0.47795102, 0.458919, 0.4867697, 0.5692151, -0.21147555, -3.0886202, 0.7374964, 0
488, 1619444176, -0.47778368, 0.4592434, 0.48649147, 0.56933206, -0.19547147, -2.959495, -0.31028938, 0
489, 1619460843, -0.47778487, 0.45957997, 0.48609, 0.5694022, -0.34473822, -3.030648, -0.76605415, 0
490, 1619477510, -0.47793484, 0.45997697, 0.48560742, 0.5693674, -0.14638008, -3.4594312, -0.72782326, 0
491, 1619494177, -0.478178, 0.46047956, 0.4850172, 0.56926024, 0.21788356, -3.3689675, -0.5115595, 0
492, 1619510844, -0.47844177, 0.4610423, 0.48437732, 0.5691278, -0.15103072, -3.5144825, -0.14054966, 0
493, 1619527511, -0.47869232, 0.46154088, 0.4838277, 0.56898063, -0.33630073, -3.6827054, -0.28213692, 0
494, 1619544178, -0.47886023, 0.46198615, 0.48341507, 0.5688285, -0.3096924, -4.0021024, -0.1864605, 0
495, 1619560845, -0.47896674, 0.46251756, 0.48296404, 0.5686902, -0.3046041, -4.1026864, -1.3347311, 0
496, 1619577512, -0.47908276, 0.46298155, 0.4825454, 0.56857026, 0.03377113, -4.010281, 0.40145683, 0
497, 1619594179, -0.47912082, 0.46333858, 0.48233327, 0.5684275, -0.06932185, -4.063218, -1.2457867, 0
498, 1619610846, -0.47904214, 0.46374053, 0.48240343, 0.5681063, -0.29333282, -3.3409526, -2.1128435, 0
499, 1619627513, -0.4789892, 0.46404493, 0.4825035, 0.5678172, -0.12006121, -2.7114317, -0.81846046, 0
500, 1619644180, -0.4789087, 0.464153, 0.4827357, 0.56759953, 1.1396079, -2.6143675, -1.3968287, 0
501, 1619660847, -0.47854826, 0.4641443, 0.48342034, 0.5673279, 1.2433333, -1.9563309, -0.62642956, 0
502, 1619677514, -0.47832638, 0.4638837, 0.4842614, 0.5670108, -0.010947888, -0.73021257, -0.331707, 0
503, 1619694181, -0.47827557, 0.46368963, 0.4850716, 0.5665196, 0.26502243, 0.25087026, 0.0770874, 0
504, 1619710848, -0.47819057, 0.46352333, 0.48595673, 0.5659684, 1.2041715, 1.6608783, 1.0103207, 0
505, 1619727515, -0.47816494, 0.46327913, 0.48684603, 0.56542563, 0.82508266, 2.8317103, 1.7335291, 0
506, 1619744182, -0.47841486, 0.46318847, 0.48727825, 0.564916, -0.2372961, 4.5474195, 2.4636173, 0
507, 1619760849, -0.47895983, 0.4632526, 0.48726177, 0.56441545, -0.15072462, 4.6912465, 1.610713, 0
508, 1619777516, -0.47944602, 0.4632833, 0.48731712, 0.5639295, 0.017927527, 4.0266128, -0.31681633, 0
509, 1619794183, -0.47962716, 0.46327, 0.48755226, 0.56358314, -0.89310503, 3.6730258, 0.45660686, 0
510, 1619810850, -0.4796485, 0.4633058, 0.48770723, 0.5634015, -1.6099817, 3.7330346, 0.9207039, 0
511, 1619827517, -0.47955054, 0.46345687, 0.48765415, 0.5634064, -1.0353997, 3.7760217, 1.0718117, 0
512, 1619844184, -0.47922832, 0.4635867, 0.48756266, 0.5636531, -0.9091942, 3.6012895, 1.2398539, 0
513, 1619860851, -0.478817, 0.46358284, 0.4874075, 0.56413966, -1.3255666, 3.6287432, 0.23611736, 0
514, 1619877518, -0.47838277, 0.4637846, 0.4868911, 0.56478775, -1.6434803, 2.701674, -0.5491438, 0
515, 1619894185, -0.4778776, 0.46445018, 0.48594218, 0.56548524, -1.2400516, 2.0510955, -0.016462326, 0
516, 1619910852, -0.4773325, 0.4653023, 0.48493797, 0.5661069, -0.44959408, 1.5585152, -0.54211235, 0
517, 1619927519, -0.47668588, 0.46633396, 0.48382384, 0.5667559, -0.65926105, 1.2937146, 0.3841715, 0
518, 1619944186, -0.47602656, 0.4674978, 0.48243448, 0.5675349, -1.6669527, 1.269484, 0.22450829, 0
519, 1619960853, -0.47539535, 0.4688368, 0.4808452, 0.56830776, -1.3885393, 1.2463069, -0.28274155, 0
520, 1619977520, -0.47473088, 0.47026902, 0.4792113, 0.5690593, -0.61954325, 0.23611954, 0.62402344, 0
521, 1619994187, -0.47388104, 0.47185206, 0.4775711, 0.5698356, -0.7414146, 0.15379569, -0.36495495, 0
522, 1620010854, -0.4729846, 0.47350296, 0.4758526, 0.5706481, -1.2332683, -0.23326871, -0.32777882, 0
523, 1620027521, -0.47208273, 0.47516415, 0.47404888, 0.5715148, -0.85752445, -0.18433113, 0.51023674, 0
524, 1620044188, -0.4711266, 0.4768457, 0.472225, 0.5724124, -0.3649097, -0.82731646, 0.74149895, 0
525, 1620060855, -0.4700711, 0.4783663, 0.47066852, 0.5732927, -0.63162726, -1.1828929, -0.7841692, 0
526, 1620077522, -0.46897537, 0.47981498, 0.46924928, 0.57414234, -0.75176394, -1.2025194, -0.70459366, 0
527, 1620094189, -0.46784043, 0.48140022, 0.467715, 0.57499236, -0.67750776, -1.3917671, -0.1783619, 0
528, 1620110856, -0.46680072, 0.48305047, 0.46607846, 0.5757817, 0.09336427, -1.5875057, 0.6264944, 0
529, 1620127523, -0.4659531, 0.48464406, 0.46447015, 0.5764285, 0.36525705, -1.7231362, -0.6411381, 0
530, 1620144190, -0.46529764, 0.48632252, 0.4627919, 0.57689387, -0.4034365, -1.4124694, -0.44744015, 0
531, 1620160857, -0.4648578, 0.48820677, 0.4608818, 0.57718605, -0.5756958, -1.4568298, 0.0088739395, 0
532, 1620177524, -0.46457434, 0.49018183, 0.45885363, 0.5773562, 0.25733784, -1.115642, 0.6253681, 0
533, 1620194191, -0.46432674, 0.49194336, 0.45711014, 0.5774403, 1.133902, -0.78191, -0.07556057, 0
534, 1620210858, -0.46404436, 0.493474, 0.4556488, 0.5775161, 0.6798418, -0.38392842, 0.58638096, 0
535, 1620227525, -0.46380454, 0.4949226, 0.45414135, 0.5776564, -0.16056456, 0.11683179, -0.43969822, 0
536, 1620244192, -0.46359578, 0.496284, 0.45273092, 0.5777633, 0.575705, -0.188387, -0.18692493, 0
537, 1620260859, -0.46349436, 0.49725726, 0.4515975, 0.5778947, 0.54514074, -0.07809185, -0.017697334, 0
538, 1620277526, -0.46352953, 0.49801925, 0.4506861, 0.5779218, -0.064045176, -0.2597775, 0.7350197, 0
539, 1620294193, -0.46354502, 0.49882078, 0.44986403, 0.5778586, 0.4109632, -0.019635167, -0.335577, 0
540, 1620310860, -0.46348566, 0.49955902, 0.44917557, 0.57780415, 1.0224446, -0.07483303, 0.8014097, 0
541, 1620327527, -0.46351844, 0.500044, 0.44867098, 0.5777504, 1.0911286, 0.63166213, 0.37837124, 0
542, 1620344194, -0.46378946, 0.50032127, 0.44807288, 0.57775706, 0.96951944, 0.9688301, 0.29980946, 0
543, 1620360861, -0.46428216, 0.50049216, 0.44740614, 0.57772994, 0.9067219, -0.28441352, 0.73296165, 0
544, 1620377528, -0.46494377, 0.50084263, 0.4465818, 0.5775319, 0.2200437, -0.8227351, -0.8306465, 0
545, 1620394195, -0.46561405, 0.50160587, 0.4455715, 0.57710963, -0.13438392, -1.8189243, -0.37896347, 0
546, 1620410862, -0.46636984, 0.5024639, 0.44467735, 0.57644236, 0.43511704, -1.5055194, -0.5514021, 0
547, 1620427529, -0.4672258, 0.5030707, 0.4438097, 0.5758882, 0.49538404, -1.3186467, 1.1393633, 0
548, 1620444196, -0.46803954, 0.503499, 0.4429477, 0.57551676, 0.24693756, -1.4718634, 0.036414146, 0
549, 1620460863, -0.46873444, 0.5038723, 0.44218716, 0.57520926, -0.57561123, -2.7189856, -0.31086063, 0
550, 1620477530, -0.46935558, 0.50423694, 0.44148704, 0.574921, -1.1042897, -3.7408357, -0.5613127, 0
551, 1620494197, -0.46995413, 0.5045328, 0.44096205, 0.5745754, -0.3490764, -4.3817286, -1.7006626, 0
552, 1620510864, -0.47051916, 0.5047928, 0.44060445, 0.5741585, -0.031293824, -4.598747, -0.7300825, 0
553, 1620527531, -0.47108245, 0.5050272, 0.44020164, 0.57379943, -0.47539294, -5.1722302, 0.25922775, 0
554, 1620544198, -0.47171444, 0.5053698, 0.43969905, 0.5733637, -0.272579, -4.9383507, -1.1380987, 0
555, 1620560865, -0.4725415, 0.5057738, 0.43906212, 0.57281446, -0.3798882, -4.444721, -0.7920933, 0
556, 1620577532, -0.47364324, 0.506383, 0.4382275, 0.5720047, -0.7331029, -5.393278, 0.76748085, 0
557, 1620594199, -0.4749686, 0.50724816, 0.43703416, 0.5710514, 0.07217183, -4.6742935, -1.4695387, 0
558, 1620610866, -0.47630322, 0.50817424, 0.43576908, 0.5700822, 0.46522513, -4.7765694, -0.46553612, 0
559, 1620627533, -0.47767064, 0.50905293, 0.43447474, 0.5691414, -1.1702279, -4.346238, -0.50021267, 0
560, 1620644200, -0.47920564, 0.5099981, 0.43308344, 0.5680643, -1.9749066, -4.1262884, -0.64037704, 0
561, 1620660867, -0.48055348, 0.51097965, 0.43206555, 0.5668173, 0.19851348, -4.0802126, -0.7638416, 0
562, 1620677534, -0.48155776, 0.5116669, 0.4317164, 0.5656098, 1.3219049, -4.2692857, -0.39789295, 0
563, 1620694201, -0.4820956, 0.51204854, 0.43208602, 0.5645231, 0.14103131, -1.7276715, -5.1767426, 0
564, 1620710868, -0.48244646, 0.5118656, 0.43301097, 0.5636798, 1.1921788, 0.8666791, -3.3215208, 0
565, 1620727535, -0.48238868, 0.51102084, 0.43477517, 0.56313765, 1.5952395, -0.34600967, 0.555645, 0
566, 1620744202, -0.48209915, 0.50982344, 0.43709683, 0.5626735, 0.75280905, 3.1673396, 1.6094103, 0
567, 1620760869, -0.48182514, 0.50814646, 0.43978226, 0.56233233, 2.1448865, 2.5566628, 1.5449858, 0
568, 1620777536, -0.4815156, 0.50606775, 0.44296682, 0.5619724, 4.080633, 3.420032, 0.8737898, 0
569, 1620794203, -0.48133713, 0.5036458, 0.44614127, 0.5617899, 3.3552372, 3.475069, 0.6782503, 0
570, 1620810870, -0.4814229, 0.50137806, 0.44888937, 0.5615556, 1.9335924, 3.505785, 1.3050833, 0
571, 1620827537, -0.48186952, 0.4993079, 0.4511987, 0.56116617, 1.0790834, 3.4809098, 2.4396744, 0
572, 1620844204, -0.48262694, 0.49739844, 0.4530766, 0.56069773, 0.24636936, 3.1291656, 0.2235508, 0
573, 1620860871, -0.48354524, 0.49580443, 0.45454556, 0.5601291, -0.293652, 2.7414875, 1.2780066, 0
574, 1620877538, -0.4844215, 0.49469337, 0.45542485, 0.55963993, -0.2031373, 2.9947357, 1.4083214, 0
575, 1620894205, -0.48517054, 0.49390757, 0.4558061, 0.55937475, -0.37169132, 3.4720092, 1.4813547, 0
576, 1620910872, -0.48578566, 0.49334162, 0.4559701, 0.5592067, -1.1758308, 2.85699, 0.025266647, 0
577, 1620927539, -0.48621342, 0.493075, 0.45597842, 0.5590632, -1.8559892, 2.6896913, -1.2486324, 0
578, 1620944206, -0.48641035, 0.49315223, 0.45583284, 0.55894256, -1.1930679, 2.410223, 1.1437616, 0
579, 1620960873, -0.48638237, 0.4932746, 0.45557567, 0.5590687, -0.33352357, 2.3784852, 0.7204399, 0
580, 1620977540, -0.48613945, 0.49339977, 0.45537058, 0.55933625, -0.40941003, 2.0966907, 0.43002605, 0
581, 1620994207, -0.4857654, 0.49357727, 0.45512253, 0.5597065, -0.8571123, 1.403252, -0.6014652, 0
582, 1621010874, -0.4852813, 0.4939132, 0.45476574, 0.56011987, -1.114996, 1.0021797, -1.1436777, 0
583, 1621027541, -0.4848143, 0.4942873, 0.45423025, 0.5606286, -0.4181022, 1.0890363, -0.77544975, 0
584, 1621044208, -0.4843812, 0.49462333, 0.45366377, 0.5611652, -0.30694154, 0.40346384, 1.130866, 0
585, 1621060875, -0.48400503, 0.49477738, 0.45335653, 0.56160176, 0.09698272, 0.08158178, 1.4956903, 0
586, 1621077542, -0.48364583, 0.4948372, 0.45315608, 0.5620204, 0.27285656, 0.14598279, -0.86084366, 0
587, 1621094209, -0.48334762, 0.49481747, 0.4529706, 0.5624437, 1.6309607, 0.23081434, -1.4655647, 0
588, 1621110876, -0.48309195, 0.4945688, 0.45302394, 0.562839, 2.3478534, -0.386319, -0.052728653, 0
589, 1621127543, -0.48285717, 0.49419206, 0.4533538, 0.5631055, 1.5714867, -0.6359891, 1.6289558, 0
590, 1621144210, -0.48278856, 0.4937469, 0.45381778, 0.5631811, 0.65912855, -0.3020362, -0.47339058, 0
591, 1621160877, -0.48293063, 0.49333414, 0.45428947, 0.5630407, 1.1445307, -0.06143276, -0.6256304, 0
592, 1621177544, -0.48325995, 0.4927898, 0.45485073, 0.5627817, 1.885301, -0.48266214, -0.6213083, 0
593, 1621194211, -0.48376524, 0.49202234, 0.45560843, 0.5624062, 1.2524018, 0.08767877, -0.041324615, 0
594, 1621210878, -0.48452199, 0.49124336, 0.45636883, 0.56181884, 0.7454765, -0.32711077, 0.81017494, 0
595, 1621227545, -0.48532787, 0.49065158, 0.457034, 0.561099, 0.9643925, -0.6520157, 0.8225212, 0
596, 1621244212, -0.4860257, 0.4899847, 0.45786732, 0.5603982, 1.6959627, -0.46351883, -1.1446171, 0
597, 1621260879, -0.4867246, 0.48893768, 0.4590566, 0.5597326, 1.4197124, -0.20842147, -0.658185, 0
598, 1621277546, -0.4875083, 0.48768562, 0.46038088, 0.55905473, 0.79149604, -0.18430655, 1.034544, 0
599, 1621294213, -0.488292, 0.48650146, 0.4615753, 0.5584172, 0.3303783, -0.620832, 0.57030296, 0
600, 1621310880, -0.48907548, 0.4854613, 0.4626089, 0.5577812, 0.42514488, -0.3645874, -0.4366274, 0
601, 1621327547, -0.48990542, 0.48445213, 0.4635028, 0.55718803, 0.62461656, -0.13548863, 0.08916187, 0
602, 1621344214, -0.4908216, 0.48352772, 0.464321, 0.556503, -0.20204341, -0.45012045, 0.5560217, 0
603, 1621360881, -0.49169424, 0.48298222, 0.46489197, 0.5557292, -0.7928939, -0.21928833, -0.032852173, 0
604, 1621377548, -0.4924593, 0.4825821, 0.46534136, 0.5550228, -0.54677373, 0.23894295, 0.7729473, 0
605, 1621394215, -0.49310026, 0.48218006, 0.46567082, 0.5545267, -0.817095, 0.36844367, -0.13355255, 0
606, 1621410882, -0.49358302, 0.4819594, 0.46583134, 0.5541539, -1.2356396, -0.0132556595, -0.5999937, 0
607, 1621427549, -0.49382222, 0.48195145, 0.46597487, 0.5538271, -1.4959816, -0.3855462, 0.013216972, 0
608, 1621444216, -0.4938639, 0.48196673, 0.46601444, 0.5537432, -1.469084, 0.49150655, -0.06099415, 0
609, 1621460883, -0.49372423, 0.4820142, 0.46604073, 0.55380434, -1.2294165, -0.017717255, 0.4947033, 0
610, 1621477550, -0.49347475, 0.4820483, 0.4660599, 0.5539808, -1.1096733, 0.26635727, -0.40030003, 0
611, 1621494217, -0.49305025, 0.48214445, 0.46595293, 0.5543651, -1.1652622, -0.13181251, -0.45125294, 0
612, 1621510884, -0.49240613, 0.48230755, 0.46580124, 0.55492276, -0.9666216, -0.020983396, 0.22963619, 0
613, 1621527551, -0.49158004, 0.48236763, 0.46573567, 0.55565745, -1.3485019, -0.92814225, -0.09252739, 0
614, 1621544218, -0.49062407, 0.48241666, 0.4657927, 0.5564115, -1.4287212, -1.047039, -1.5816164, 0
615, 1621560885, -0.48963758, 0.48260412, 0.46572945, 0.5571704, -1.1628995, -1.3386012, -0.2142353, 0
616, 1621577552, -0.48871267, 0.48297313, 0.46531457, 0.55800885, -0.61409646, -1.3429937, -0.8064699, 0
617, 1621594219, -0.4878418, 0.48345774, 0.46479595, 0.55878276, -0.28458095, -1.5881733, 2.1880236, 0
618, 1621610886, -0.48693842, 0.48394424, 0.46440303, 0.5594759, -0.23522402, -2.0791464, -0.13196659, 0
619, 1621627553, -0.48591754, 0.4845187, 0.4640797, 0.56013423, -0.8656657, -1.1301671, -0.71503735, 0
620, 1621644220, -0.4850397, 0.4851662, 0.46346354, 0.5608441, -0.98552805, -1.1498185, 0.10559273, 0
621, 1621660887, -0.48427063, 0.48592985, 0.46267858, 0.5614955, -0.495222, -1.7524956, 0.13453197, 0
622, 1621677554, -0.48354855, 0.48659432, 0.462037, 0.56207013, 0.74703103, -1.5977397, 0.08450508, 0
623, 1621694221, -0.48281646, 0.4870941, 0.4617047, 0.5625397, -0.4135201, -2.3085532, 0.2257042, 0
624, 1621710888, -0.4822401, 0.48762512, 0.46135762, 0.5628586, -0.25412843, -1.5741787, -0.23083115, 0
625, 1621727555, -0.4819097, 0.48801628, 0.4608658, 0.5632053, 1.3803627, -1.4058115, -0.2674942, 0
626, 1621744222, -0.48178697, 0.48825312, 0.46040908, 0.56347865, 1.1053021, -1.5130364, -0.06540012, 0
627, 1621760889, -0.48185846, 0.48834825, 0.46008134, 0.5636026, 0.7700596, -2.5628695, 1.1711473, 0
628, 1621777556, -0.48192936, 0.4885089, 0.45999306, 0.56347483, 0.38076773, -2.2678246, -1.6650009, 0
629, 1621794223, -0.4822391, 0.48855007, 0.45976803, 0.5633578, 1.0251023, -1.2559198, -1.0789557, 0
630, 1621810890, -0.4827893, 0.48833185, 0.45960033, 0.5632125, 1.6481087, -2.1701348, 1.4283085, 0
631, 1621827557, -0.48349446, 0.4880561, 0.45944571, 0.5629729, 0.91237587, -2.3827202, 1.2384434, 0
632, 1621844224, -0.48442504, 0.487805, 0.45910937, 0.56266487, 0.91998714, -2.4967222, -0.7368717, 0
633, 1621860891, -0.48552078, 0.487454, 0.45881206, 0.56226677, 1.6641256, -3.8654509, -1.192585, 0
634, 1621877558, -0.48678195, 0.4870769, 0.45861086, 0.56166714, 0.6882407, -4.4333816, -2.7871685, 0
635, 1621894225, -0.48827958, 0.48708773, 0.4582163, 0.56067896, -0.07818271, -5.4739485, 0.3620739, 0
636, 1621910892, -0.48979613, 0.48781696, 0.45767924, 0.5591588, 0.35227513, -7.0699205, 1.0482206, 0
637, 1621927559, -0.49139252, 0.48897335, 0.4570872, 0.5572289, 1.2878679, -4.7852445, 2.7408752, 0
638, 1621944226, -0.49303776, 0.49043778, 0.45629486, 0.55513406, 0.48114347, -2.698205, -3.575068, 0
639, 1621960893, -0.49502498, 0.49173787, 0.455164, 0.55314034, 0.17502238, -0.8904372, -3.7591968, 0
640, 1621977560, -0.49729478, 0.49252898, 0.45381647, 0.5515054, 0.4962276, -0.32279998, -4.738262, 0
641, 1621994227, -0.49941415, 0.49348712, 0.45255744, 0.5497656, -1.4810724, -1.9923875, 2.052888, 0
642, 1622010894, -0.5011253, 0.4949612, 0.45144913, 0.54779094, -1.9775385, -2.8156009, 0.9584789, 0
643, 1622027561, -0.5024855, 0.49630076, 0.4506777, 0.5459651, -0.42031118, 0.6773617, -2.4906397, 0
644, 1622044228, -0.50348175, 0.49699566, 0.45046026, 0.5445929, 0.4156266, 1.9478222, -1.4624758, 0
645, 1622060895, -0.5039704, 0.49705106, 0.45114478, 0.5435227, 0.95976126, 1.57259, 2.0723639, 0
646, 1622077562, -0.50408655, 0.4971044, 0.45215982, 0.54252154, 1.0755594, 2.8466616, 2.6221008, 0
647, 1622094229, -0.5041874, 0.4972046, 0.4528406, 0.5417679, 1.2342814, 5.87016, 2.86242, 0
648, 1622110896, -0.5045451, 0.4964686, 0.45352572, 0.5415367, 1.6385498, 5.8153377, 0.19239616, 0
649, 1622127563, -0.5049452, 0.49497452, 0.45487678, 0.5413983, 0.2589829, 4.2198167, 0.5650091, 0
650, 1622144230, -0.50515294, 0.49340144, 0.45655745, 0.54122555, -0.5372945, 3.9013274, 0.97910404, 0
651, 1622160897, -0.505117, 0.4920034, 0.45800588, 0.54130816, 0.99572676, 4.608459, 1.4621754, 0
652, 1622177564, -0.5048279, 0.49057674, 0.45934933, 0.5417342, 1.7892369, 4.710039, 0.38313198, 0
653, 1622194231, -0.50443465, 0.48895502, 0.4607715, 0.54235834, 1.0889567, 3.573606, 2.085412, 0
654, 1622210898, -0.50391185, 0.48755875, 0.46217975, 0.54290295, -1.1288148, 2.595398, 1.5477419, 0
655, 1622227565, -0.50343335, 0.48669907, 0.4629971, 0.54342157, -1.9664898, 3.520901, 0.72708035, 0
656, 1622244232, -0.50292075, 0.48619324, 0.4634443, 0.54396766, -0.80629706, 2.4207997, 1.402667, 0
657, 1622260899, -0.5023071, 0.48564872, 0.46406966, 0.5444874, -0.2358236, 1.6619923, -2.4380007, 0
658, 1622277566, -0.5016187, 0.48503762, 0.46468613, 0.5451406, -0.86520135, 2.1602042, -3.3188148, 0
659, 1622294233, -0.5007901, 0.4847872, 0.46493474, 0.5459126, -1.7450887, -0.2713821, -0.08990097, 0
660, 1622310900, -0.49977046, 0.48490262, 0.4652155, 0.54650503, -1.016784, 0.45453885, 1.0460873, 0
661, 1622327567, -0.49893394, 0.48484898, 0.46523666, 0.54729855, -0.49559104, 1.5233512, 1.8030539, 0
662, 1622344234, -0.49819636, 0.48481536, 0.4650423, 0.5481646, -0.8404923, 1.2036527, -0.27716255, 0
663, 1622360901, -0.4973697, 0.48519722, 0.46462533, 0.54893047, -1.0178702, 0.06364039, 0.30249882, 0
664, 1622377568, -0.49644548, 0.4858864, 0.4641356, 0.5495716, -0.7121733, 0.5533793, -1.2025394, 0
665, 1622394235, -0.49570775, 0.4863786, 0.4635714, 0.5502779, -0.18106493, 2.0529811, -0.19499016, 0
666, 1622410902, -0.49516392, 0.48654175, 0.46281564, 0.5512584, -0.10344157, 1.9125458, -1.0485458, 0
667, 1622427569, -0.49468338, 0.48652968, 0.46210757, 0.55229354, 0.09699233, 2.088266, 0.16972923, 0
668, 1622444236, -0.49418315, 0.4864744, 0.46140477, 0.5533767, 0.34148422, -0.29259297, 0.88844585, 0
669, 1622460903, -0.4934309, 0.4865747, 0.46118614, 0.5541414, 0.023991881, -0.726863, 0.61347675, 0
670, 1622477570, -0.4927172, 0.48658282, 0.4613066, 0.5546688, 0.008099662, -0.02624981, 0.67234707, 0
671, 1622494237, -0.4919656, 0.48677474, 0.46151766, 0.55499184, 0.11156203, -0.56555194, -0.7666054, 0
672, 1622510904, -0.49134833, 0.4869857, 0.46165872, 0.5552362, 0.866688, 1.0012518, 0.094680786, 0
673, 1622527571, -0.49103948, 0.4871047, 0.46146074, 0.5555696, 0.71002936, 0.88418597, 0.35738277, 0
674, 1622544238, -0.49103713, 0.48711747, 0.4610926, 0.5558661, 0.3727351, 1.4095095, 1.2373476, 0
675, 1622560905, -0.49129698, 0.48683277, 0.46064246, 0.55625904, 0.51726997, 0.6017074, 0.85913754, 0
676, 1622577572, -0.4914287, 0.48668987, 0.46028376, 0.5565645, 0.17834188, 0.1720243, -0.45332527, 0
677, 1622594239, -0.49154943, 0.48661435, 0.45981407, 0.5569122, -0.07358471, 0.2483658, -0.16931534, 0
678, 1622610906, -0.49151888, 0.48667037, 0.4595303, 0.5571245, -0.057561517, -0.7727462, 1.146038, 0
679, 1622627573, -0.49138457, 0.48672664, 0.45954195, 0.5571839, -0.39235643, -0.44247139, -0.022909164, 0
680, 1622644240, -0.4910563, 0.48680493, 0.45989147, 0.5571166, -0.01444553, -1.2686607, -0.434412, 0
681, 1622660907, -0.49058515, 0.48690182, 0.46022367, 0.5571727, 0.27024248, 0.20638192, -2.073197, 0
682, 1622677574, -0.49031544, 0.4868293, 0.4602775, 0.557429, 0.15845594, 0.02649612, 0.59211254, 0
683, 1622694241, -0.4902532, 0.4866255, 0.46019554, 0.55772924, -0.18442221, -0.24888708, 0.51455593, 0
684, 1622710908, -0.49031848, 0.4864171, 0.46004114, 0.5579811, -0.338676, -1.1361521, 0.603035, 0
685, 1622727575, -0.49030474, 0.48628092, 0.45999408, 0.55815053, -0.58485675, -1.4593956, 0.28553867, 0
686, 1622744242, -0.49018657, 0.48634586, 0.45995778, 0.5582276, -0.25024655, -1.9725837, -1.2146368, 0
687, 1622760909, -0.4899084, 0.4866621, 0.45996156, 0.5581932, -0.009382962, -2.6132112, -1.3319883, 0
688, 1622777576, -0.48949122, 0.4871753, 0.46002093, 0.55806255, -1.0403162, -2.820992, -1.5880957, 0
689, 1622794243, -0.48899207, 0.4879616, 0.460106, 0.55774313, -1.2164583, -2.4935036, -1.1398697, 0
690, 1622810910, -0.48854092, 0.48873252, 0.45996463, 0.55757976, -0.8894054, -0.9544137, 0.73624134, 0
691, 1622827577, -0.4881919, 0.48928076, 0.45964924, 0.55766475, -0.40798154, -0.12739746, 2.6170416, 0
692, 1622844244, -0.48781702, 0.4896658, 0.4594511, 0.5578182, -0.71764714, -0.12533645, 2.0540752, 0
693, 1622860911, -0.48731762, 0.48985064, 0.4594721, 0.5580752, -0.22959195, -0.9597244, -1.7699614, 0
694, 1622877578, -0.48653895, 0.49013433, 0.45961165, 0.55839026, -0.116729416, -1.1053107, -0.4686947, 0
695, 1622894245, -0.4857176, 0.49044544, 0.459612, 0.5588317, -0.76654214, -1.8978063, 0.41402912, 0
696, 1622910912, -0.48490125, 0.49070957, 0.4598194, 0.5591381, -0.7128347, -1.4305236, -1.6250353, 0
697, 1622927579, -0.48429754, 0.49078605, 0.45995933, 0.5594791, -0.19951996, -0.33439863, 1.176425, 0
698, 1622944246, -0.48392004, 0.49070355, 0.45993865, 0.5598951, 0.043005683, -0.9737221, 2.485509, 0
699, 1622960913, -0.4836053, 0.49058527, 0.45971963, 0.56044996, 0.41950676, -0.3389831, 1.0445967, 0
700, 1622977580, -0.4833117, 0.49054235, 0.4594515, 0.5609606, -0.11295886, -2.459277, 0.4059639, 0
701, 1622994247, -0.48302445, 0.49051115, 0.45939738, 0.5612796, -0.70619875, -3.2744303, -3.844448, 0
702, 1623010914, -0.48274153, 0.4905824, 0.45949644, 0.56137973, -0.16129331, -3.064835, -1.3420734, 0
703, 1623027581, -0.48265424, 0.49069244, 0.4592606, 0.5615514, -0.30386755, -3.0856676, 0.45263958, 0
704, 1623044248, -0.482573, 0.4910122, 0.45893127, 0.56161094, 0.56319934, -2.953642, 1.8885098, 0
705, 1623060915, -0.48256132, 0.4911848, 0.45868924, 0.56166786, 1.035023, -3.614194, 0.51719093, 0
706, 1623077582, -0.4825715, 0.49130648, 0.45867652, 0.5615631, 0.37609014, -4.4567914, -2.845039, 0
707, 1623094249, -0.48275134, 0.49167967, 0.45834637, 0.56135136, -0.5562824, -4.5543213, -0.40456295, 0
708, 1623110916, -0.48311564, 0.49231648, 0.457781, 0.56094104, -0.28721848, -5.3686213, -0.3780012, 0
709, 1623127583, -0.4837471, 0.49297717, 0.45708823, 0.56038135, 0.19060582, -4.536125, 0.90310955, 0
710, 1623144250, -0.4846071, 0.49354935, 0.4563118, 0.5597669, -0.073899195, -5.241495, 0.5221739, 0
711, 1623160917, -0.48555633, 0.49416977, 0.45548218, 0.5590722, 0.50179905, -3.804086, -4.063016, 0
712, 1623177584, -0.4863995, 0.49476653, 0.4549089, 0.5582778, 0.3792888, -4.736178, -2.2252874, 0
713, 1623194251, -0.48716974, 0.4953138, 0.45456338, 0.5574015, -1.1726435, -5.044443, -2.120222, 0
714, 1623210918, -0.48770523, 0.49581146, 0.4546342, 0.5564322, 0.8190743, -2.8221612, -3.5362067, 0
715, 1623227585, -0.48802555, 0.49592116, 0.4553168, 0.5554945, 0.07291149, -2.7995977, 0.22788715, 0
716, 1623244252, -0.48805717, 0.49583766, 0.45629588, 0.5547375, 0.033419657, -1.3019477, -0.6252403, 0
717, 1623260919, -0.48808005, 0.49537262, 0.45754248, 0.5541058, 1.7897404, 0.8796407, 0.40615845, 0
718, 1623277586, -0.48803934, 0.49454314, 0.45888057, 0.55377585, 0.95855075, 3.0607014, -1.2900019, 0
719, 1623294253, -0.48815587, 0.49357337, 0.45990476, 0.5536886, 1.4729294, 5.225376, 1.4494514, 0
720, 1623310920, -0.4883327, 0.49251676, 0.46100008, 0.5535627, 0.4604166, 4.5720353, 7.149212, 0
721, 1623327587, -0.4884828, 0.4917336, 0.46185786, 0.55341154, -0.8498615, 7.374823, 2.5817842, 0
722, 1623344254, -0.4886862, 0.49106598, 0.46203738, 0.553675, -1.0419061, 8.705629, -0.9727297, 0
723, 1623360921, -0.48858878, 0.49051064, 0.46208504, 0.55421305, -0.26893303, 6.4278493, 0.69587994, 0
724, 1623377588, -0.48805717, 0.49021286, 0.46213028, 0.55490696, -1.1519259, 8.024178, 0.65211487, 0
725, 1623394255, -0.4873989, 0.48988003, 0.46189022, 0.55597836, -1.5985217, 8.130025, 2.7720127, 0
726, 1623410922, -0.4863031, 0.49002102, 0.4613133, 0.55729085, -2.061282, 6.061067, 1.0412216, 0
727, 1623427589, -0.48498327, 0.49036705, 0.46055672, 0.5587605, -1.8445905, 5.9990544, -1.9277487, 0
728, 1623444256, -0.48343596, 0.49058428, 0.45973516, 0.56058425, -1.7539742, 5.0455694, -2.0607266, 0
729, 1623460923, -0.48147938, 0.4908611, 0.45899078, 0.5626322, -2.5549524, 4.085946, 1.5908651, 0
730, 1623477590, -0.47932726, 0.49133816, 0.45820588, 0.5646892, -3.2273474, 2.4381943, 2.560257, 0
731, 1623494257, -0.4770084, 0.49236628, 0.45690823, 0.56680465, -2.5387309, 3.545129, 1.7514162, 0
732, 1623510924, -0.47466663, 0.493351, 0.45543802, 0.5690929, -1.5910741, 1.730174, -0.16278362, 0
733, 1623527591, -0.47231132, 0.4943602, 0.45404774, 0.57128364, -1.4394014, 1.979641, -2.2857666, 0
734, 1623544258, -0.4700845, 0.49585807, 0.45189428, 0.57352525, -2.4322414, 1.4607364, -0.8223629, 0
735, 1623560925, -0.46782938, 0.49822417, 0.44923228, 0.5754069, -2.9212933, 0.14484288, 1.2546854, 0
736, 1623577592, -0.46571392, 0.500985, 0.44633695, 0.57697684, -2.103723, 0.9930477, -0.322608, 0
737, 1623594259, -0.46380323, 0.5037036, 0.44346204, 0.57836413, -1.2027612, 0.6929948, 1.4504089, 0
738, 1623610926, -0.46207392, 0.5062904, 0.4404859, 0.5797623, -1.2253027, 0.1658569, 0.49261856, 0
739, 1623627593, -0.46051592, 0.50894773, 0.43740818, 0.58100414, -0.3853122, 0.19215633, -1.469841, 0
740, 1623644260, -0.45916313, 0.5111358, 0.4348899, 0.58204335, 1.350643, -1.9068642, 0.83445454, 0
741, 1623660927, -0.45793647, 0.51302844, 0.4330832, 0.5826915, 0.8913474, -2.7136686, -2.230463, 0
742, 1623677594, -0.45732233, 0.5147711, 0.43119413, 0.5830378, 0.9477364, -0.23191078, -0.18039322, 0
743, 1623694261, -0.45735234, 0.51624906, 0.42916194, 0.58320683, 1.5061672, -1.2642295, 0.27274132, 0
744, 1623710928, -0.45772812, 0.51747733, 0.42732263, 0.5831741, 2.0567205, -0.92010874, 0.22992134, 0
745, 1623727595, -0.45828977, 0.5183841, 0.42578933, 0.583049, 1.8062065, -2.546227, -0.1446333, 0
746, 1623744262, -0.45897317, 0.5195531, 0.42433935, 0.58252776, 0.5871728, -1.7550232, -1.5269299, 0
747, 1623760929, -0.45985478, 0.5209971, 0.42256138, 0.5818348, 0.034232464, -0.4973304, -0.41651058, 0
748, 1623777596, -0.46099287, 0.5224201, 0.42077163, 0.5809546, -0.1527986, -0.33294868, 1.6803188, 0
749, 1623794263, -0.462375, 0.5236072, 0.41917515, 0.5799413, 0.26597685, -0.5137079, 0.9929991, 0
750, 1623810930, -0.46362424, 0.524745, 0.41758794, 0.57905966, 0.88809454, -0.040104035, 0.9768467, 0
751, 1623827597, -0.46464378, 0.525849, 0.41596994, 0.57840514, 0.18166575, 0.440112, -0.35787487, 0
752, 1623844264, -0.4656774, 0.5265913, 0.41462576, 0.5778634, 0.3977661, 0.4901742, -1.3388958, 0
753, 1623860931, -0.466675, 0.527191, 0.41345194, 0.5773526, 0.35479665, 0.41097686, 0.94565773, 0
754, 1623877598, -0.467534, 0.5280514, 0.41233438, 0.57667017, -0.9879463, -0.55015343, -0.06558323, 0
755, 1623894265, -0.46854445, 0.52892035, 0.4112233, 0.57584655, -0.13634893, 0.82013005, 0.113339424, 0
756, 1623910932, -0.46952337, 0.5298862, 0.41001123, 0.5750251, 1.5804529, 1.0054669, 0.4934454, 0
757, 1623927599, -0.4703761, 0.5308105, 0.4087554, 0.5743692, 0.33031505, 0.54062444, 0.5705471, 0
758, 1623944266, -0.47122943, 0.53176355, 0.40758273, 0.57362115, -0.921207, 0.22570503, -0.16750908, 0
759, 1623960933, -0.47210434, 0.53294325, 0.40614483, 0.57282627, -0.4302107, 0.32071227, -1.0106049, 0
760, 1623977600, -0.47289878, 0.53415203, 0.40476578, 0.57202065, 0.05872188, -0.3915654, 0.38237572, 0
761, 1623994267, -0.4736517, 0.53521395, 0.40347922, 0.5713134, -0.49630225, 0.08097539, -1.7630205, 0
762, 1624010934, -0.474303, 0.53634894, 0.40211332, 0.57067126, -0.50962025, 0.24145882, -0.22786045, 0
763, 1624027601, -0.47495598, 0.53723794, 0.4009518, 0.570109, -0.080517635, -0.66213834, 0.14225864, 0
764, 1624044268, -0.4756812, 0.5378626, 0.40026027, 0.56940085, 0.5094967, -1.6631923, 0.21475697, 0
765, 1624060935, -0.47630614, 0.53842145, 0.39975086, 0.5687076, 1.1270863, -0.7512704, 0.15756798, 0
766, 1624077602, -0.47689295, 0.53872323, 0.3994404, 0.568148, 2.1539948, -0.80589944, 0.35249233, 0
767, 1624094269, -0.47746593, 0.53848606, 0.39954874, 0.56781536, 2.7949598, -0.8455247, -0.23294163, 0
768, 1624110936, -0.47803804, 0.53803045, 0.40003356, 0.5674244, 1.172682, -1.8327395, 0.4543457, 0
769, 1624127603, -0.47895324, 0.5374951, 0.40077555, 0.56663597, 0.4753545, -2.3445554, -0.97882557, 0
770, 1624144270, -0.48005965, 0.537013, 0.40175933, 0.56545866, 2.4439278, -2.7375627, -0.55882835, 0
771, 1624160937, -0.48114106, 0.53634167, 0.4030826, 0.5642338, 3.2353182, -2.1920366, 0.009881973, 0
772, 1624177604, -0.48247194, 0.53521854, 0.40474227, 0.5629742, 2.9847603, -0.99310094, 1.2577562, 0
773, 1624194271, -0.48406228, 0.53388375, 0.40611047, 0.56189024, 2.952362, -0.3320296, 1.3361855, 0
774, 1624210938, -0.48590744, 0.53233343, 0.40734792, 0.56087184, 2.5747294, -0.5962454, 1.3442793, 0
775, 1624227605, -0.48796996, 0.53065693, 0.40865278, 0.55971956, 1.5790644, -2.0072362, -0.39966106, 0
776, 1624244272, -0.48998442, 0.52913964, 0.40999913, 0.55841, 0.4466271, -2.4204187, -3.3844433, 0
777, 1624260939, -0.49213192, 0.527618, 0.4113348, 0.55697703, 0.4905869, -2.139578, -0.5483551, 0
778, 1624277606, -0.4940929, 0.5262821, 0.41263607, 0.5555405, 1.4870323, -2.6664958, 0.2870283, 0
779, 1624294273, -0.4958118, 0.5250704, 0.41403064, 0.55411625, 1.1948298, -2.5294049, 3.1116638, 0
780, 1624310940, -0.49745354, 0.5239606, 0.41541642, 0.5526562, 0.71622455, -3.3572724, 0.27674007, 0
781, 1624327607, -0.49890676, 0.52311695, 0.41688436, 0.55103785, 0.23790574, -2.5507836, -1.9568496, 0
782, 1624344274, -0.50039643, 0.52219546, 0.41840047, 0.5494095, 0.4462783, -3.629334, -1.1721983, 0
783, 1624360941, -0.50185895, 0.52131855, 0.41958866, 0.5480002, 1.3731318, -2.8463347, -2.409813, 0
784, 1624377608, -0.5034427, 0.52041173, 0.4203597, 0.5468175, 0.75434864, -1.8356098, -2.5659204, 0
785, 1624394275, -0.50511575, 0.5197014, 0.42072174, 0.5456705, -0.799275, -5.4512753, 3.6646442, 0
786, 1624410942, -0.5066638, 0.5195876, 0.42081845, 0.5442671, -1.2024709, -4.4864073, -0.91059685, 0
787, 1624427609, -0.50817, 0.51962334, 0.42095575, 0.5427205, 0.16420357, -2.3817558, -4.537248, 0
788, 1624444276, -0.5096009, 0.5191326, 0.42138553, 0.54151356, 0.29416528, -3.1295583, -1.3116016, 0
789, 1624460943, -0.5106291, 0.5186803, 0.42234543, 0.54022914, -1.7797675, -3.6618629, -3.0848289, 0
790, 1624477610, -0.51139, 0.51879054, 0.42327884, 0.5386709, 0.36069816, -0.5935241, -1.5453377, 0
791, 1624494277, -0.5117255, 0.5189483, 0.4243071, 0.53738976, 1.0774603, -1.163051, -0.75623703, 0
792, 1624510944, -0.511739, 0.51878303, 0.42607898, 0.53613293, 3.7003784, 2.3990798, -0.4694128, 0
793, 1624527611, -0.5116614, 0.5181737, 0.4279144, 0.5353338, 1.7192826, 4.2251835, 5.0022078, 0
794, 1624544278, -0.51200616, 0.5169983, 0.42943245, 0.5349251, 0.49127433, 6.512358, 6.2593956, 0
795, 1624560945, -0.51266766, 0.515207, 0.43087018, 0.5348635, 1.4190245, 7.704655, 2.3204966, 0
796, 1624577612, -0.51326704, 0.5129552, 0.43249545, 0.5351413, 2.6334894, 6.0536127, 2.3365173, 0
797, 1624594279, -0.5132084, 0.5107766, 0.43499634, 0.5352543, 2.447376, 4.0307918, -0.6269932, 0
798, 1624610946, -0.51266617, 0.5089165, 0.43767598, 0.5353611, 1.5270716, 5.9983654, -1.4096994, 0
799, 1624627613, -0.51209545, 0.5070681, 0.4399469, 0.5357996, 1.320152, 6.8008294, 0.87877274, 0
800, 1624644280, -0.51165783, 0.505132, 0.4418579, 0.5364737, 0.6843506, 5.8626714, 2.547783, 0
801, 1624660947, -0.5113866, 0.5030809, 0.4435525, 0.53726065, 0.4750008, 4.9928126, 1.2689476, 0
802, 1624677614, -0.51106894, 0.5011141, 0.4453001, 0.53795475, 0.37187237, 2.7211862, -1.0770493, 0
803, 1624694281, -0.51058096, 0.49915862, 0.44731924, 0.5385606, 1.4097484, 2.06676, -2.8721824, 0
804, 1624710948, -0.5099545, 0.49712884, 0.4496785, 0.53906673, 1.389146, 1.4399679, -0.19090652, 0
805, 1624727615, -0.509392, 0.49489465, 0.45219022, 0.53955317, 0.7165557, 1.6573439, 1.9157133, 0
806, 1624744282, -0.5088918, 0.49276903, 0.45433822, 0.54016584, 0.54496413, 1.6034772, 2.6270428, 0
807, 1624760949, -0.508617, 0.4906277, 0.45616066, 0.54083747, 0.579114, 1.680486, -0.77467537, 0
808, 1624777616, -0.5083841, 0.48868567, 0.4579523, 0.5413004, 0.17936173, -0.07293863, -0.11344528, 0
809, 1624794283, -0.5079214, 0.48711598, 0.4599045, 0.5414944, 0.25553274, -1.3285854, -0.48153782, 0
810, 1624810950, -0.5073303, 0.48582488, 0.46179697, 0.54159766, -0.09538929, 1.2590662, -1.4835558, 0
811, 1624827617, -0.5069111, 0.48454142, 0.46312764, 0.5420037, -0.018845495, 1.3013874, 0.75369453, 0
812, 1624844284, -0.506447, 0.48338318, 0.46435538, 0.54242116, -0.09469126, -0.040422987, 0.4912386, 0
813, 1624860951, -0.5057419, 0.4824159, 0.46548933, 0.5429678, -0.58425194, 0.8492259, 0.3446188, 0
814, 1624877618, -0.5052102, 0.48114607, 0.46650332, 0.5437187, -0.23028785, 1.0824744, -1.6069708, 0
815, 1624894285, -0.5048218, 0.4796781, 0.46738943, 0.544615, -0.028336972, 1.3065251, 1.1016884, 0
816, 1624910952, -0.5043716, 0.47843665, 0.46816415, 0.5454579, -0.6145288, -1.5073122, 0.6823082, 0
817, 1624927619, -0.5036851, 0.4777315, 0.46905598, 0.5459438, -0.7411077, -1.0851055, -1.0150661, 0
818, 1624944286, -0.5031563, 0.47716904, 0.46963236, 0.54642767, -0.13636547, -0.67803055, 0.04246235, 0
819, 1624960953, -0.5028639, 0.4767664, 0.47000077, 0.5467315, 0.028786903, 0.21179283, -1.0600729, 0
820, 1624977620, -0.5027614, 0.47658104, 0.4698827, 0.54708856, -0.2959163, -0.012549946, 1.5138845, 0
821, 1624994287, -0.5024984, 0.47684845, 0.46946594, 0.547455, -1.2533809, -0.99915904, 0.41882992, 0
822, 1625010954, -0.50216913, 0.4773496, 0.46901372, 0.5477079, -1.1101502, -0.21506618, -1.511406, 0
823, 1625027621, -0.50168675, 0.4778191, 0.46884236, 0.54788744, -0.28014755, -1.3131616, 0.29338932, 0
824, 1625044288, -0.50109565, 0.4782815, 0.4686561, 0.54818404, -1.2843629, -0.21706706, -0.09574413, 0
825, 1625060955, -0.5006242, 0.47874063, 0.46833852, 0.5484853, -1.3805982, -0.7109882, 1.421607, 0
826, 1625077622, -0.5001778, 0.47919333, 0.4679621, 0.5488184, -0.5839164, -0.69165146, -0.4475174, 0
827, 1625094289, -0.49964052, 0.47944653, 0.46781394, 0.5492131, -0.05970925, -0.6955274, 1.5250883, 0
828, 1625110956, -0.49888268, 0.4795235, 0.46795782, 0.54971194, -0.19102189, -1.6084088, -0.54478645, 0
829, 1625127623, -0.4980995, 0.47961047, 0.46802232, 0.5502913, -0.5028912, 0.15164505, -1.1272354, 0
830, 1625144290, -0.49745217, 0.47956747, 0.46792522, 0.5509961, 0.09830793, -0.80669874, -0.8757143, 0
831, 1625160957, -0.49692842, 0.47931564, 0.46802557, 0.55160254, -0.15939122, -1.4649225, -1.1828213, 0
832, 1625177624, -0.49640492, 0.47941804, 0.46791068, 0.5520821, -1.0533402, -1.4817392, 0.28816032, 0
833, 1625194291, -0.4958129, 0.4798557, 0.46774477, 0.5523741, -0.61335105, -2.6102464, 0.21421432, 0
834, 1625210958, -0.49518108, 0.4802828, 0.46774554, 0.552569, 0.1821673, -0.9615963, -0.3064947, 0
835, 1625227625, -0.4945082, 0.48086268, 0.46756056, 0.552824, -0.23763697, -0.7465652, 0.6277647, 0
836, 1625244292, -0.49403977, 0.48125386, 0.46744677, 0.5529985, 0.14158227, -0.5273057, 0.5175772, 0
837, 1625260959, -0.49365798, 0.481631, 0.46710664, 0.5532986, -0.49643478, 0.182883, -0.8761635, 0
838, 1625277626, -0.4933854, 0.48226765, 0.4665903, 0.55342263, -0.6520356, -0.6562459, -0.33483887, 0
839, 1625294293, -0.4931773, 0.482795, 0.4659771, 0.5536648, -0.20136014, -0.16717517, -0.031514168, 0
840, 1625310960, -0.4930448, 0.48314425, 0.46563306, 0.55376774, 0.24815527, -0.46370512, 0.46008682, 0
841, 1625327627, -0.4929283, 0.48347065, 0.46531668, 0.5538525, -0.16438775, -0.6439044, 0.5440321, 0
842, 1625344294, -0.4928262, 0.48380092, 0.46497044, 0.5539458, 0.10131686, -0.037931044, 0.09471798, 0
843, 1625360961, -0.49292982, 0.48369542, 0.46466044, 0.55420583, 0.042297814, 1.1542301, 0.4914446, 0
844, 1625377628, -0.49306476, 0.4834955, 0.46430635, 0.55455685, -0.3136631, 0.8029931, 2.3996525, 0
845, 1625394295, -0.49304938, 0.48348847, 0.4638574, 0.5549523, -0.6276243, -1.1289154, 0.5437851, 0
846, 1625410962, -0.49272108, 0.48366663, 0.463839, 0.55510396, 0.027764779, -1.5182029, -2.5126948, 0
847, 1625427629, -0.49221548, 0.48399264, 0.4638404, 0.55526704, -0.6318812, -0.7597543, -1.8507657, 0
848, 1625444296, -0.49184588, 0.48424315, 0.4636562, 0.5555301, -1.2015656, 0.51231474, 0.59460354, 0
849, 1625460963, -0.49173003, 0.48444036, 0.46306553, 0.55595315, -1.1167063, 0.9127201, 1.2397661, 0
850, 1625477630, -0.4917374, 0.48467723, 0.46226314, 0.5564077, -0.5199577, 0.028349712, 1.4844608, 0
851, 1625494297, -0.49180076, 0.48490432, 0.461442, 0.5568353, -0.006257469, 0.26180476, -0.34428215, 0
852, 1625510964, -0.49181405, 0.48554733, 0.46046093, 0.5570754, -0.7507742, -3.5698433, -0.12807465, 0
853, 1625527631, -0.4913505, 0.4866602, 0.45978943, 0.5570678, -0.716665, -2.678293, -5.6884365, 0
854, 1625544298, -0.4909408, 0.48747396, 0.45938534, 0.55705106, -1.0692117, -2.0287278, 1.375268, 0
855, 1625560965, -0.4906228, 0.48828882, 0.45883805, 0.5570685, -1.0049891, -0.7318444, 2.6701784, 0
856, 1625577632, -0.49056542, 0.4888414, 0.4578279, 0.5574654, 0.8447502, -0.20678368, 2.2047567, 0
857, 1625594299, -0.49073043, 0.48884675, 0.45700318, 0.557992, 1.4404731, -1.5613741, 1.078764, 0
858, 1625610966, -0.4907625, 0.4887981, 0.45666233, 0.5582854, -0.14917848, -3.8910592, -4.4697003, 0
859, 1625627633, -0.4907663, 0.48920038, 0.45620853, 0.55830073, -0.77937126, -4.984499, -2.0026035, 0
860, 1625644300, -0.49093428, 0.48990357, 0.45563483, 0.5580049, 0.13443097, -5.093119, -0.0033817291, 0
861, 1625660967, -0.49142775, 0.49083263, 0.45481583, 0.5574219, 0.53225577, -3.6574814, 1.5712118, 0
862, 1625677634, -0.49234536, 0.49179915, 0.45364532, 0.5567135, 0.5427514, -3.1523645, -2.098061, 0
863, 1625694301, -0.4934379, 0.4930179, 0.4523745, 0.5557015, -0.07852916, -4.0385895, -2.4508662, 0
864, 1625710968, -0.49446744, 0.49478993, 0.45092565, 0.5543874, -1.5446686, -4.9584527, -2.8839602, 0
865, 1625727635, -0.49565375, 0.49692097, 0.449502, 0.5525751, -0.7282963, -3.2750847, -2.751617, 0
866, 1625744302, -0.49680427, 0.4992201, 0.44809797, 0.5506064, 0.04574081, -1.8648491, 1.8433952, 0
867, 1625760969, -0.4978527, 0.5010767, 0.44698814, 0.5488725, 0.9904239, 1.3027061, 0.33938217, 0
868, 1625777636, -0.49890262, 0.5020419, 0.4460217, 0.547822, 1.7470967, 3.7010283, 1.207489, 0
869, 1625794303, -0.4997227, 0.5024389, 0.44536313, 0.54724616, 0.45186988, 3.1243656, 1.2356024, 0
870, 1625810970, -0.50033945, 0.50272804, 0.44518837, 0.5465589, -1.1282129, 3.4737272, 0.8533821, 0
871, 1625827637, -0.5007316, 0.50286394, 0.44541898, 0.54588634, 0.5448779, 3.5518754, -0.02354908, 0
872, 1625844304, -0.50081587, 0.5026214, 0.44609728, 0.54547834, 1.744484, 5.2329245, 2.4090443, 0
873, 1625860971, -0.50072825, 0.5019969, 0.44674686, 0.5456023, 0.5494485, 6.93305, 3.4179516, 0
874, 1625877638, -0.5006729, 0.5011904, 0.44710252, 0.546103, -0.7021172, 7.535478, 3.3274994, 0
875, 1625894305, -0.50064194, 0.50037605, 0.44723555, 0.5467688, -0.32010186, 6.190085, -0.67354107, 0
876, 1625910972, -0.50041765, 0.4998572, 0.44729546, 0.5473994, 0.096771725, 3.5869327, 1.2962132, 0
877, 1625927639, -0.49977428, 0.5000887, 0.44731665, 0.5477584, -0.86326784, 3.885155, -3.2268214, 0
878, 1625944306, -0.49916154, 0.50054014, 0.4469742, 0.5481842, -0.9472441, 5.353329, 0.30359364, 0
879, 1625960973, -0.4986311, 0.5007737, 0.4463682, 0.54894674, -0.4248847, 4.92935, 0.9793749, 0
880, 1625977640, -0.49799553, 0.50084734, 0.44597688, 0.549774, -0.64326715, 2.618348, 2.7367754, 0
881, 1625994307, -0.4973277, 0.5008194, 0.44573653, 0.55059856, -0.5691802, 1.5587394, -1.1656485, 0
882, 1626010974, -0.49654287, 0.5011271, 0.44540694, 0.5512926, -0.5362865, 0.48127764, -0.75180054, 0
883, 1626027641, -0.49571422, 0.5017136, 0.44491208, 0.55190456, -0.819348, 0.32672387, -1.8248482, 0
884, 1626044308, -0.49497786, 0.50235075, 0.44439062, 0.55240554, -1.0011159, 0.61115056, 0.33860207, 0
885, 1626060975, -0.49439833, 0.5029024, 0.44367564, 0.55299705, -0.32416955, 1.6769574, 2.658081, 0
886, 1626077642, -0.49387518, 0.50325, 0.4429277, 0.5537474, -0.079366095, 1.238572, -0.06354523, 0
887, 1626094309, -0.49344286, 0.5033083, 0.44235283, 0.55453885, 0.124233864, 1.7879362, -0.07652378, 0
888, 1626110976, -0.4928973, 0.5033548, 0.44197094, 0.55528593, 0.25759152, -0.9916067, -1.8173513, 0
889, 1626127643, -0.49217466, 0.5036287, 0.4418531, 0.5557718, 0.113854595, 0.9243503, -1.551671, 0
890, 1626144310, -0.4915407, 0.503591, 0.44185093, 0.55636865, 1.3661842, 0.5222085, 2.0300493, 0
891, 1626160977, -0.49082693, 0.5033198, 0.44234824, 0.55684894, 0.9944022, 0.31473663, 1.0732079, 0
892, 1626177644, -0.49026462, 0.50282514, 0.44288623, 0.5573632, 0.95974785, 1.8538728, -0.6125088, 0
893, 1626194311, -0.4899851, 0.5017664, 0.44354883, 0.55803597, 2.1267068, 1.7716678, -1.7440825, 0
894, 1626210978, -0.48971972, 0.50048965, 0.44455558, 0.55861396, 1.0946681, -0.31147045, 1.706173, 0
895, 1626227645, -0.48942423, 0.4996494, 0.44552574, 0.55885214, -0.7503072, -1.3092712, 0.15555859, 0
896, 1626244312, -0.48941216, 0.49899665, 0.4462722, 0.5588504, 0.4536028, 0.34121665, 1.2975941, 0
897, 1626260979, -0.48948136, 0.4983192, 0.44699907, 0.5588132, 1.8263973, -0.802846, -0.006658554, 0
898, 1626277646, -0.48950943, 0.49771807, 0.44768465, 0.5587756, 0.24226747, 0.55644894, 0.51216125, 0
899, 1626294313, -0.48959637, 0.49736655, 0.44795254, 0.5587976, -1.0496099, -1.1415566, -0.028795242, 0
900, 1626310980, -0.48957017, 0.49742404, 0.4480902, 0.55865914, -0.66796756, -0.35815516, -0.58151054, 0
901, 1626327647, -0.48955673, 0.49766147, 0.44793049, 0.5585877, -0.62229407, -0.45067006, -0.88940525, 0
902, 1626344314, -0.48962706, 0.49805453, 0.4475685, 0.5584656, -1.0974674, 0.12088832, -0.2920742, 0
903, 1626360981, -0.4897521, 0.4984692, 0.44716555, 0.5583087, -0.5439065, -0.1089116, 0.24606133, 0
904, 1626377648, -0.48969907, 0.49877346, 0.44684848, 0.5583374, -0.4952694, -0.54573524, -0.75578785, 0
905, 1626394315, -0.48960802, 0.49910498, 0.4465398, 0.558368, -1.1230998, -0.18547128, -0.19832897, 0
906, 1626410982, -0.48959205, 0.49935922, 0.44612116, 0.5584893, -0.11287762, -0.4661946, 0.25599003, 0
907, 1626427649, -0.4895258, 0.49948996, 0.44582158, 0.5586696, 0.04148308, -0.7211948, 0.009757042, 0
908, 1626444316, -0.4893716, 0.49949145, 0.44577453, 0.55884093, 0.12605762, -1.0827451, -0.60718536, 0
909, 1626460983, -0.48916933, 0.49967733, 0.445643, 0.5589568, -0.5289832, -1.1755185, -0.6641245, 0
910, 1626477650, -0.48901337, 0.50012773, 0.445287, 0.55897427, -0.507496, -0.8343551, 0.1880846, 0
911, 1626494317, -0.48884866, 0.5005736, 0.44494128, 0.5589945, 0.08508669, -0.6949393, -0.59348774, 0
912, 1626510984, -0.4886833, 0.50094855, 0.4447102, 0.5589869, 0.09120402, -0.34478775, 1.5676413, 0
913, 1626527651, -0.4886287, 0.50116956, 0.4443975, 0.55908525, 0.10040068, 0.2455111, 0.41420174, 0
914, 1626544318, -0.48852912, 0.50123024, 0.4442152, 0.5592627, 1.0668929, 0.42601636, 2.944785, 0
915, 1626560985, -0.488509, 0.5009501, 0.44430882, 0.5594568, 0.31611192, -0.94152385, -1.6289387, 0
916, 1626577652, -0.4885235, 0.50068986, 0.44453698, 0.5594959, 0.3251128, -0.10412396, -1.0871143, 0
917, 1626594319, -0.48857594, 0.50048006, 0.44482115, 0.559412, 1.0394202, -1.4179885, 0.2666664, 0
918, 1626610986, -0.48854858, 0.5003135, 0.44520652, 0.5592782, 0.019111475, -1.3406101, 0.7575493, 0
919, 1626627653, -0.4886961, 0.49988943, 0.44576487, 0.5590839, 0.8915465, -0.67687124, -1.4438667, 0
920, 1626644320, -0.4889658, 0.4991758, 0.4464134, 0.55896837, 1.131569, 0.13766186, 1.1188993, 0
921, 1626660987, -0.48933464, 0.49840456, 0.44681138, 0.5590158, 0.33303943, 0.114333585, -0.089767456, 0
922, 1626677654, -0.4896533, 0.49790433, 0.44707802, 0.5589692, -0.32610184, -1.3583783, 0.29807758, 0
923, 1626694321, -0.48978028, 0.49751958, 0.44752276, 0.55884445, 0.80943215, -1.3014319, -1.648694, 0
924, 1626710988, -0.48983333, 0.4969866, 0.4481449, 0.5587739, -0.0061505176, -0.6829838, -1.1056633, 0
925, 1626727655, -0.49000672, 0.49653038, 0.4485166, 0.5587292, -0.72465384, -0.5318998, 1.1457224, 0
926, 1626744322, -0.49020886, 0.49628416, 0.44852757, 0.558762, -0.55517733, -0.80540276, -0.030420303, 0
927, 1626760989, -0.49029925, 0.49599928, 0.44873154, 0.5587718, -0.17764743, -1.760384, 1.2186117, 0
928, 1626777656, -0.4902637, 0.49561292, 0.4491899, 0.5587774, -0.37021634, -2.2146628, 0.020519257, 0
929, 1626794323, -0.49003303, 0.49549645, 0.44966596, 0.5587002, -0.57503927, -2.9116712, -1.0916901, 0
930, 1626810990, -0.48979425, 0.49533245, 0.45008382, 0.55871856, 0.3107285, -1.7705654, -2.4204874, 0
931, 1626827657, -0.4896352, 0.49493977, 0.45047444, 0.55889124, 0.20157047, -2.3530352, 0.63315487, 0
932, 1626844324, -0.48958007, 0.49437022, 0.45080343, 0.55917805, -0.69804984, -1.7848552, 1.2852774, 0
933, 1626860991, -0.48971838, 0.4937392, 0.45107466, 0.5593958, -0.07105209, -2.7200623, 2.4872046, 0
934, 1626877658, -0.4897868, 0.49325106, 0.45132613, 0.5595635, 0.64383036, -3.5314436, -1.735506, 0
935, 1626894325, -0.48984075, 0.49296, 0.45155787, 0.559586, 0.21567883, -3.8905568, -1.2775488, 0
936, 1626910992, -0.48991808, 0.4929406, 0.45172104, 0.5594036, -0.22365114, -3.5098386, -3.9491158, 0
937, 1626927659, -0.4900816, 0.4933944, 0.45157364, 0.5589792, -0.35867995, -3.712695, 1.5973673, 0
938, 1626944326, -0.49054173, 0.49412468, 0.4510964, 0.55831563, -0.21303758, -3.4979744, -1.3179865, 0
939, 1626960993, -0.4911846, 0.49526957, 0.45033935, 0.55734605, -0.018546993, -2.4710684, 0.46108246, 0
940, 1626977660, -0.49200684, 0.49672502, 0.4490671, 0.55635124, -1.1316099, -3.0995574, -3.6272793, 0
941, 1626994327, -0.4928436, 0.49830228, 0.44770205, 0.5552994, -1.1256764, -1.5463902, -2.284008, 0
942, 1627010994, -0.4937578, 0.49966046, 0.44634417, 0.554359, -0.98818344, -2.144963, 1.4276066, 0
943, 1627027661, -0.4944038, 0.50098574, 0.44540346, 0.5533428, 0.8861741, -0.08586943, -0.20596886, 0
944, 1627044328, -0.4948619, 0.5016483, 0.4449428, 0.5527033, 1.7576643, 1.5688518, -0.53776073, 0
945, 1627060995, -0.4952056, 0.5016027, 0.44504663, 0.55235326, 1.7598398, 3.3224049, -2.9541187, 0
946, 1627077662, -0.49548507, 0.5013756, 0.44534478, 0.5520683, 1.1184474, 3.5560155, 2.5111675, 0
947, 1627094329, -0.49564302, 0.50112766, 0.44617158, 0.55148375, 0.86351055, 2.617624, 6.2647095, 0
948, 1627110996, -0.49561974, 0.50105894, 0.44747075, 0.55051357, 0.6488966, 4.5430913, 5.7927914, 0
949, 1627127663, -0.49570003, 0.50056124, 0.4484581, 0.5500905, 1.2505454, 8.541709, -2.9518218, 0
950, 1627144330, -0.49600598, 0.4992563, 0.44878602, 0.5507329, 0.33590645, 10.332986, -2.3008795, 0
951, 1627160997, -0.4961524, 0.49802166, 0.44891062, 0.5516167, -1.0397519, 5.135372, 5.411213, 0
952, 1627177664, -0.49567136, 0.49784827, 0.4492121, 0.5519604, -1.4984804, 3.739736, 4.3915987, 0
953, 1627194331, -0.49509567, 0.4981072, 0.44915214, 0.55229175, -0.5773219, 6.580009, -0.3333912, 0
954, 1627210998, -0.49444926, 0.49851087, 0.4486309, 0.5529302, -0.19991378, 5.5071077, -3.5955963, 0
955, 1627227665, -0.49352258, 0.49932072, 0.447803, 0.55369765, -1.9017694, 4.657967, -0.5303831, 0
956, 1627244332, -0.4926119, 0.50006485, 0.44688818, 0.55457556, -1.6096087, 4.26236, 0.6528015, 0
957, 1627260999, -0.49172446, 0.5005332, 0.4462756, 0.55543333, -1.6553236, 2.4071584, 3.179614, 0
958, 1627277666, -0.490738, 0.50098586, 0.445607, 0.5564336, -0.97247964, 1.6392286, -2.5792155, 0
959, 1627294333, -0.48961875, 0.5014596, 0.4451161, 0.5573848, -0.06437028, 0.260273, -2.601375, 0
960, 1627311000, -0.48832068, 0.50201595, 0.444758, 0.55830795, 0.010157546, -1.3724301, 1.6945047, 0
961, 1627327667, -0.4871042, 0.5026752, 0.4442778, 0.55915904, -0.82135403, 0.91557837, -0.55857754, 0
962, 1627344334, -0.48654237, 0.50291765, 0.44333187, 0.5601802, -0.45102412, 2.2278125, 5.1675005, 0
963, 1627361001, -0.4861478, 0.5033263, 0.4422032, 0.5610471, -0.4941268, -1.7841005, 1.6141787, 0
964, 1627377668, -0.48557845, 0.50430465, 0.4412792, 0.56138885, 0.035280626, -0.92602426, -3.626748, 0
965, 1627394335, -0.48489708, 0.5052564, 0.44055837, 0.5616882, 0.59982437, -1.8774946, -5.436803, 0
966, 1627411002, -0.48399422, 0.5063822, 0.440081, 0.5618272, -0.72831583, -0.4026711, 1.1266632, 0
967, 1627427669, -0.48352563, 0.5071817, 0.4394222, 0.56202483, -0.33500525, 1.3577974, 1.9405804, 0
968, 1627444336, -0.48350385, 0.5074427, 0.43866372, 0.5624005, 1.1268877, 2.6498196, 3.7402954, 0
969, 1627461003, -0.48372254, 0.5071572, 0.43798378, 0.5629998, 0.868268, 0.25545216, -0.20534515, 0
970, 1627477670, -0.48349506, 0.5074219, 0.43755043, 0.56329334, -0.60205626, -0.73702526, -2.2295322, 0
971, 1627494337, -0.48305547, 0.50793314, 0.4371594, 0.56351334, -0.5285186, -1.0677209, -1.2287245, 0
972, 1627511004, -0.482503, 0.5084904, 0.4370658, 0.56355697, -0.4007518, -0.05620457, -0.3141737, 0
973, 1627527671, -0.48222405, 0.50869536, 0.43693808, 0.56370956, -0.86068356, 1.4806093, 1.1827412, 0
974, 1627544338, -0.482114, 0.50881547, 0.4366817, 0.563894, -0.9011117, 1.5454196, 0.35414505, 0
975, 1627561005, -0.48187485, 0.5090894, 0.43611556, 0.56428915, -0.8653999, 0.9546265, 0.65760803, 0
976, 1627577672, -0.48140427, 0.5095904, 0.43543658, 0.56476295, -0.7730926, -0.20598976, -1.0885887, 0
977, 1627594339, -0.48072845, 0.51022327, 0.43514174, 0.5649941, -0.2325878, 0.51050156, 0.23272705, 0
978, 1627611006, -0.48009166, 0.5106714, 0.4347514, 0.56543106, -1.1675881, 1.5287347, 1.3481836, 0
979, 1627627673, -0.479473, 0.51139176, 0.43390232, 0.56595695, -1.4328864, 1.5501016, 1.8788776, 0
980, 1627644340, -0.4788502, 0.51218355, 0.43272957, 0.5666659, -0.75711167, 0.8400548, -0.6173487, 0
981, 1627661007, -0.47813028, 0.51278377, 0.4319221, 0.5673465, 0.30866626, -0.5141028, -1.0741549, 0
982, 1627677674, -0.47738862, 0.5130484, 0.4315712, 0.5679985, -0.5659903, -1.1351159, -1.726881, 0
983, 1627694341, -0.4767221, 0.51355726, 0.43102825, 0.5685104, -1.7152163, -0.9796159, -1.1429863, 0
984, 1627711008, -0.47640818, 0.51420605, 0.43014228, 0.5688581, -0.15854858, -1.6678168, 0.6498995, 0
985, 1627727675, -0.47610953, 0.51498526, 0.42936403, 0.56899124, 0.89099693, -2.700475, 2.0589428, 0
986, 1627744342, -0.47579432, 0.51582515, 0.42909917, 0.5686938, 0.10664965, -2.6796727, 1.118083, 0
987, 1627761009, -0.47556865, 0.5166655, 0.42882097, 0.5683293, 0.23167118, -0.68686044, -0.71392345, 0
988, 1627777676, -0.47555503, 0.5173183, 0.42818546, 0.568226, 1.6583279, 0.40464506, -1.0963764, 0
989, 1627794343, -0.47590333, 0.5175393, 0.42731035, 0.5683919, 1.4660413, 0.68007994, -2.3917246, 0
990, 1627811010, -0.47650528, 0.51765746, 0.4263398, 0.5685089, -0.10070555, -1.9174484, 1.513197, 0
991, 1627827677, -0.47716463, 0.5180787, 0.4256195, 0.5681118, -1.0333757, -3.064802, -0.8316994, 0
992, 1627844344, -0.47782278, 0.51876944, 0.42515686, 0.5672738, 0.4375846, -1.7892852, 0.32968712, 0
993, 1627861011, -0.47866735, 0.51904494, 0.42490137, 0.56650084, 2.8143697, 0.2639621, -0.55663586, 0
994, 1627877678, -0.4797161, 0.5188003, 0.42479032, 0.56592095, 2.5258412, 0.8381769, 1.600275, 0
995, 1627894345, -0.48088244, 0.51857895, 0.4244395, 0.56539685, 0.5561317, -0.22084175, 1.7703056, 0
996, 1627911012, -0.48206633, 0.51849705, 0.42434388, 0.5645349, 1.5070119, -1.500897, -2.2746506, 0
997, 1627927679, -0.4831289, 0.5182295, 0.42483887, 0.563499, 2.736198, -1.3894688, -1.0622206, 0
998, 1627944346, -0.48415008, 0.51776785, 0.42562363, 0.56245357, 1.021748, -0.92462236, 0.4042101, 0
999, 1627961013, -0.48539284, 0.51734066, 0.42609876, 0.5614149, -0.10130904, 0.30926704, 0.6568823, 0
1000, 1627977680, -0.48692265, 0.5166373, 0.4263894, 0.56051666, 1.7013348, 0.6847058, 0.9327736, 0
1001, 1627994347, -0.4885786, 0.5153653, 0.42681724, 0.55992055, 2.579508, 0.36351007, 1.8207283, 0
1002, 1628011014, -0.48999673, 0.51398027, 0.4277203, 0.5592649, 0.9599328, -2.4391696, -1.5126305, 0
1003, 1628027681, -0.49092942, 0.513035, 0.42890072, 0.5584103, 0.68948853, -2.4538305, -2.94591, 0
1004, 1628044348, -0.49147806, 0.51219994, 0.43023592, 0.5576666, 0.7197854, -2.7139935, -1.3468285, 0
1005, 1628061015, -0.4920699, 0.5109546, 0.43189552, 0.5570039, 0.48728016, -0.9597123, 0.7462292, 0
1006, 1628077682, -0.49288744, 0.50931007, 0.4333921, 0.5566247, -0.02809635, -0.5168706, 2.8129559, 0
1007, 1628094349, -0.4936582, 0.50770384, 0.43469226, 0.5563952, -0.09998707, -1.3472946, -0.027133942, 0
1008, 1628111016, -0.4941877, 0.50633407, 0.4359435, 0.55619425, 0.60640585, -3.4563673, 0.692564, 0
1009, 1628127683, -0.49425864, 0.5052637, 0.43745378, 0.5559186, 0.40657336, -3.6416652, -4.4920287, 0
1010, 1628144350, -0.49424267, 0.5042537, 0.43909883, 0.5555528, -0.8232626, -2.5461993, -0.73284435, 0
1011, 1628161017, -0.49452946, 0.503142, 0.44032782, 0.5553327, -0.36406305, -2.023319, 0.9233551, 0
1012, 1628177684, -0.4947305, 0.5024421, 0.4411302, 0.5551507, 0.61282223, -2.2953904, 2.877861, 0
1013, 1628194351, -0.49498942, 0.50176215, 0.44157508, 0.5551812, 0.3553494, -1.9218047, 0.49433804, 0
1014, 1628211018, -0.4952592, 0.50132614, 0.44207498, 0.55493665, 0.038036205, -3.1508617, -2.2976322, 0
1015, 1628227685, -0.4954024, 0.5014965, 0.44229516, 0.55447906, -0.98985195, -3.615958, -3.0682197, 0
1016, 1628244352, -0.4957404, 0.50200564, 0.4423096, 0.5537044, -0.52715164, -2.3949883, -5.303382, 0
1017, 1628261019, -0.49618888, 0.502636, 0.44211024, 0.5528894, -0.60198903, -3.6976252, 2.672904, 0
1018, 1628277686, -0.496681, 0.5036982, 0.441603, 0.5518853, -1.19893, -1.4473644, -0.38064766, 0
1019, 1628294353, -0.49750587, 0.5047695, 0.44063666, 0.550935, -0.4958362, 1.4692447, -0.12501717, 0
1020, 1628311020, -0.49830294, 0.5058122, 0.43948117, 0.55018085, 0.491467, 1.0594239, -0.7720442, 0
1021, 1628327687, -0.49890545, 0.5070754, 0.43872213, 0.54907674, 0.7342394, -0.107234366, 0.6538124, 0
1022, 1628344354, -0.49947307, 0.50856996, 0.4380814, 0.547688, 0.7401786, 2.02449, -0.12418747, 0
1023, 1628361021, -0.5001313, 0.5100142, 0.43726778, 0.5463932, 1.4968003, 4.5060973, 0.54604053, 0
1024, 1628377688, -0.50094974, 0.51082844, 0.436567, 0.54544246, 1.4586027, 4.531408, 4.4119167, 0
1025, 1628394355, -0.50171673, 0.5112388, 0.43626645, 0.54459286, 0.9880046, 5.082618, 0.91774654, 0
1026, 1628411022, -0.50244045, 0.5110515, 0.43609035, 0.54424214, 1.5081217, 6.136765, 2.172655, 0
1027, 1628427689, -0.5030232, 0.51027536, 0.4363718, 0.54420656, 1.1478648, 4.830194, 0.8934889, 0
1028, 1628444356, -0.5032572, 0.50941473, 0.4370872, 0.54422235, 1.2163497, 5.1815276, -0.565588, 0
1029, 1628461023, -0.5033698, 0.5082408, 0.43789908, 0.5445631, 1.6115974, 5.7217665, 0.25026703, 0
1030, 1628477690, -0.5033531, 0.50695574, 0.43896165, 0.54492056, 0.920132, 3.8549435, 2.3119097, 0
1031, 1628494357, -0.50321406, 0.50616646, 0.43984097, 0.5450736, -0.055973448, 4.0294614, 1.2716722, 0
1032, 1628511024, -0.5031368, 0.50554156, 0.44045535, 0.54522896, 0.5906417, 3.8492668, -0.45800877, 0
1033, 1628527691, -0.5032166, 0.504777, 0.4408571, 0.54553884, 0.23496442, 4.997016, -1.0454006, 0
1034, 1628544358, -0.50326943, 0.504167, 0.44112757, 0.54583544, -0.36716765, 1.5938559, 1.5988636, 0
1035, 1628561025, -0.50314647, 0.50387377, 0.44139898, 0.5460004, -1.132073, 1.6903132, -0.914381, 0
1036, 1628577692, -0.502993, 0.5035517, 0.44150195, 0.5463555, -0.09905983, 2.5450077, 0.9897604, 0
1037, 1628594359, -0.5024538, 0.5034781, 0.44168618, 0.5467703, -0.9640299, -0.29554605, 0.23260784, 0
1038, 1628611026, -0.5016133, 0.50372905, 0.4419671, 0.547084, -0.7753137, 1.2277173, 1.13346, 0
1039, 1628627693, -0.5009173, 0.5035428, 0.44214705, 0.5477472, -0.15518102, 2.1114142, -2.106392, 0
1040, 1628644360, -0.50025797, 0.5029776, 0.44248644, 0.5485941, 0.12208345, 2.0567567, 0.32076168, 0
1041, 1628661027, -0.49962658, 0.50220484, 0.4428849, 0.5495552, -0.39994156, 0.5514413, -0.09725857, 0
1042, 1628677694, -0.4987375, 0.50168693, 0.4435021, 0.55033743, -0.25859377, -0.9633433, 0.14549446, 0
1043, 1628694361, -0.49768442, 0.501171, 0.44435441, 0.55107284, 0.1509545, 0.5451528, -2.019103, 0
1044, 1628711028, -0.49672922, 0.5005508, 0.4450815, 0.5519109, 0.35066563, 0.8909465, 1.6957817, 0
1045, 1628727695, -0.49590817, 0.49990907, 0.4456766, 0.5527503, 0.2084654, 0.4408147, 0.44376087, 0
1046, 1628744362, -0.49513978, 0.49941948, 0.44625935, 0.553411, -0.27843255, 0.7754686, 0.8213358, 0
1047, 1628761029, -0.494576, 0.4988958, 0.44658107, 0.5541276, 0.37986797, 0.4371786, -1.7544079, 0
1048, 1628777696, -0.4939916, 0.4985661, 0.44701976, 0.5545917, 0.43732926, -0.44913656, 1.4794121, 0
1049, 1628794363, -0.49342352, 0.49823394, 0.44759277, 0.55493367, 0.094772846, -1.1866608, -0.93158245, 0
1050, 1628811030, -0.4928841, 0.49812344, 0.44817203, 0.55504453, -0.31602228, 0.022288041, 0.77596855, 0
1051, 1628827697, -0.49266103, 0.4979339, 0.44837043, 0.55525255, 0.33411074, 0.7114795, 0.56595135, 0
1052, 1628844364, -0.49273697, 0.4976104, 0.4484566, 0.5554057, 0.76207036, 0.8628932, 0.5606413, 0
1053, 1628861031, -0.49289733, 0.49732637, 0.4484238, 0.555544, 0.44429904, -0.39068097, 0.6782036, 0
1054, 1628877698, -0.4930201, 0.49734682, 0.44829968, 0.5555169, -0.38238573, -1.1514041, -0.92395306, 0
1055, 1628894365, -0.49301633, 0.49781102, 0.44804144, 0.55531293, -0.020481162, -1.0778145, -1.5960188, 0
1056, 1628911032, -0.49284485, 0.49844205, 0.44784653, 0.5550563, -0.4026369, -0.94005316, -1.0887985, 0
1057, 1628927699, -0.49272338, 0.49900198, 0.44758308, 0.5548735, -1.014265, 0.17297958, 0.7210789, 0
1058, 1628944366, -0.49278003, 0.49929482, 0.4471621, 0.55489916, -0.3309107, 0.8307079, -1.0862331, 0
1059, 1628961033, -0.4928817, 0.49936408, 0.44695038, 0.55491716, 0.58443946, -0.9332073, 4.4684734, 0
1060, 1628977700, -0.49273255, 0.49931434, 0.4472482, 0.55485445, 0.2740005, -2.33063, -1.4519348, 0
1061, 1628994367, -0.49222663, 0.49933687, 0.44814125, 0.55456257, 0.6734668, -1.6413819, 0.24086857, 0
1062, 1629011034, -0.49161473, 0.49898496, 0.44929448, 0.554489, 1.8718532, 0.22701573, -3.6784244, 0
1063, 1629027701, -0.49120775, 0.49814546, 0.45038557, 0.55471903, 1.5445937, 1.8944162, 0.9558706, 0
1064, 1629044368, -0.49152112, 0.49654266, 0.45108917, 0.5553066, 1.1404183, 1.6557056, -0.48850727, 0
1065, 1629061035, -0.49191037, 0.4951355, 0.4519057, 0.55555457, 0.21590815, -0.8580682, 3.0551672, 0
1066, 1629077702, -0.49221733, 0.49398893, 0.4525799, 0.5557543, 0.09281308, -1.8542005, -1.1558666, 0
1067, 1629094369, -0.492168, 0.49319878, 0.45359972, 0.55566823, 0.8110631, -1.1952171, -0.31917095, 0
1068, 1629111036, -0.49223426, 0.4921871, 0.4546339, 0.5556615, 0.8606666, 0.4533026, 0.2883892, 0
1069, 1629127703, -0.49236557, 0.49123737, 0.455265, 0.55586886, -0.98903286, 0.65911555, 0.2798605, 0
1070, 1629144370, -0.49257267, 0.49056622, 0.45541188, 0.5561578, -1.3247018, 0.6889867, 0.6191149, 0
1071, 1629161037, -0.4925644, 0.49022096, 0.45546407, 0.5564266, -1.1805898, -1.4474511, 0.4606142, 0
1072, 1629177704, -0.4921889, 0.49014708, 0.4557349, 0.55660224, -1.4358797, -1.2950639, -2.3861938, 0
1073, 1629194371, -0.49168184, 0.49018523, 0.45603108, 0.5567742, -1.4287952, -0.41306782, 0.75828934, 0
1074, 1629211038, -0.4911788, 0.4902445, 0.4559478, 0.55723405, -1.1007845, 0.9033365, 0.30208397, 0
1075, 1629227705, -0.4907042, 0.49008393, 0.45566684, 0.55802274, -0.7400143, 1.2099915, 1.8064117, 0
1076, 1629244372, -0.4901111, 0.4897675, 0.4554965, 0.55895996, -0.5543951, -0.35664153, 0.15598679, 0
1077, 1629261039, -0.48923773, 0.4896214, 0.45561248, 0.55975807, -0.5821434, -1.0443003, -1.3374434, 0
1078, 1629277706, -0.488278, 0.4896699, 0.45580497, 0.5603965, -0.93264836, -1.8693771, -1.6822615, 0
1079, 1629294373, -0.48728284, 0.49010637, 0.4557115, 0.5609571, -0.8998006, -0.23270738, -0.026039124, 0
1080, 1629311040, -0.48667192, 0.49045128, 0.45533076, 0.5614948, -0.49357963, -0.77686083, 1.0195246, 0
1081, 1629327707, -0.48609588, 0.4909475, 0.4549109, 0.5619002, -0.6769763, -1.0778944, 0.8313217, 0
1082, 1629344374, -0.48573115, 0.49142888, 0.45431668, 0.5622755, -0.23077343, -0.5841918, -1.5670424, 0
1083, 1629361041, -0.4854384, 0.49227172, 0.45354268, 0.5624159, -0.4772529, -0.88178474, 2.4693918, 0
1084, 1629377708, -0.48537895, 0.49318123, 0.45243752, 0.56256026, 0.4651974, -0.83554745, -1.6919518, 0
1085, 1629394375, -0.4853735, 0.49399304, 0.45152146, 0.5625887, 1.0597498, -0.90664655, 1.3108006, 0
1086, 1629411042, -0.48549744, 0.49463445, 0.45065364, 0.56261414, -0.7186354, -2.2560167, -1.0865288, 0
1087, 1629427709, -0.48565277, 0.4953317, 0.44986022, 0.5625015, -1.0602353, -2.2100012, -1.374114, 0
1088, 1629444376, -0.48604545, 0.49578622, 0.44890127, 0.562528, 0.8300127, -1.3603487, -1.3737249, 0
1089, 1629461043, -0.4865057, 0.4958753, 0.44827035, 0.56255484, 0.458163, -4.1648593, 0.57359314, 0
1090, 1629477710, -0.48693213, 0.495711, 0.4482015, 0.5623855, 0.44419947, -3.300723, -0.9526062, 0
1091, 1629494377, -0.4872015, 0.49539405, 0.44840616, 0.5622685, 0.5048808, -4.191725, 0.85878944, 0
1092, 1629511044, -0.4873006, 0.49492118, 0.4489216, 0.5621877, 0.90631354, -4.0573616, -1.2899656, 0
1093, 1629527711, -0.48750284, 0.49423382, 0.4494684, 0.56218016, 1.0248748, -4.00518, -1.2672501, 0
1094, 1629544378, -0.48795483, 0.4933572, 0.45005038, 0.56209254, 0.81753325, -5.4750752, 1.2103043, 0
1095, 1629561045, -0.4884818, 0.4926652, 0.45074028, 0.5616888, -0.43148097, -5.626466, -2.54112, 0
1096, 1629577712, -0.4888802, 0.49263242, 0.45119068, 0.56100893, -0.6558269, -5.35534, 0.14006233, 0
1097, 1629594379, -0.48935518, 0.4929394, 0.45139757, 0.56015784, -0.76672024, -3.9882503, -3.272439, 0
1098, 1629611046, -0.48998636, 0.4935976, 0.45109838, 0.5592669, -0.60912234, -2.3254735, -1.360075, 0
1099, 1629627713, -0.49061292, 0.49468735, 0.45037952, 0.5583335, -1.5282171, -2.381343, 0.7308159, 0
1100, 1629644380, -0.49111512, 0.49612242, 0.449798, 0.5570858, -0.16547334, 0.9794816, 1.1892796, 0
1101, 1629661047, -0.49165124, 0.49762392, 0.44874883, 0.556119, 0.21600226, 1.8737538, 0.055770874, 0
1102, 1629677714, -0.4920611, 0.49937955, 0.44764677, 0.5550701, 0.25606427, 1.5079626, -0.2634983, 0
1103, 1629694381, -0.4925366, 0.5012169, 0.4465338, 0.55388737, -0.29868215, 3.564873, 1.166565, 0
1104, 1629711048, -0.49321458, 0.5028449, 0.44511846, 0.55294687, -0.8767841, 5.494741, 0.5167093, 0
1105, 1629727715, -0.49387798, 0.504167, 0.44391105, 0.55212086, -0.69788945, 5.2165036, 1.1379814, 0
1106, 1629744382, -0.4944233, 0.50491226, 0.44310936, 0.5515957, -0.48415858, 7.0121317, 2.992258, 0
1107, 1629761049, -0.49473545, 0.50506043, 0.44274715, 0.55147105, -0.26210916, 6.9803486, 2.9504013, 0
1108, 1629777716, -0.49457136, 0.5052814, 0.44239774, 0.5516961, 0.34033468, 8.255636, 0.6941185, 0
1109, 1629794383, -0.4941753, 0.50500965, 0.44211656, 0.5525246, 2.4943893, 10.235148, -0.40884018, 0
1110, 1629811050, -0.49341393, 0.50454026, 0.4420585, 0.55367905, 0.9204237, 7.0668583, 2.1939716, 0
1111, 1629827717, -0.49234366, 0.50462055, 0.4421298, 0.554501, -1.3818872, 7.436215, 1.6345053, 0
1112, 1629844384, -0.4914787, 0.5048234, 0.441878, 0.55528384, -1.2123266, 6.525789, 0.025663376, 0
1113, 1629861051, -0.4903984, 0.505225, 0.4416316, 0.5560693, 0.4410094, 5.3788633, -1.9102969, 0
1114, 1629877718, -0.48933846, 0.50531983, 0.44156274, 0.5569707, 0.2739004, 4.139631, 1.1744766, 0
1115, 1629894385, -0.48812196, 0.50530976, 0.44171917, 0.5579225, -0.23131378, 2.4402695, 1.7690821, 0
1116, 1629911052, -0.48678237, 0.50528044, 0.4418318, 0.5590293, -0.6537385, 2.2633905, -0.3198347, 0
1117, 1629927719, -0.48551995, 0.5053041, 0.44179845, 0.5601311, -0.5345914, 1.6651584, 0.82076454, 0
1118, 1629944386, -0.48418993, 0.50537735, 0.44194788, 0.5610977, -0.26984754, 0.8011084, -0.50307465, 0
1119, 1629961053, -0.48295766, 0.5054886, 0.44220558, 0.5618558, -0.9247017, 1.7735633, 0.5552559, 0
1120, 1629977720, -0.481901, 0.50583327, 0.44197655, 0.56263256, -1.4519014, 2.499765, -0.3247156, 0
1121, 1629994387, -0.48105767, 0.50639546, 0.4413387, 0.56334877, -0.61155087, 2.597452, 1.8559656, 0
1122, 1630011054, -0.48035988, 0.5070181, 0.44065776, 0.5639167, 0.06551187, 1.0659903, 1.5429096, 0
1123, 1630027721, -0.47964355, 0.5077629, 0.4400079, 0.56436354, -0.11605955, 1.4568655, -2.2463102, 0
1124, 1630044388, -0.47905797, 0.50871545, 0.43884233, 0.5649105, -0.7282696, 2.2320075, -0.7797699, 0
1125, 1630061055, -0.47852933, 0.5099082, 0.43725955, 0.56551015, -0.5196938, 0.6935933, -0.27799892, 0
1126, 1630077722, -0.477954, 0.5110659, 0.43598762, 0.5659336, 0.67404467, 0.45059362, 2.1789799, 0
1127, 1630094389, -0.47757557, 0.5119328, 0.4349418, 0.5662741, -0.40295833, -0.0041074976, -1.2182178, 0
1128, 1630111056, -0.47750434, 0.5126394, 0.43388176, 0.56650805, 0.48214918, 1.8767216, 1.2030153, 0
1129, 1630127723, -0.47753108, 0.5132413, 0.4327138, 0.56683385, 0.72039044, -1.1195065, 0.26282692, 0
1130, 1630144390, -0.4775315, 0.5138345, 0.43200475, 0.5668369, 0.8118569, -0.38093638, -2.121684, 0
1131, 1630161057, -0.47782993, 0.51405114, 0.43142322, 0.56683207, 1.0088606, -0.8185011, 1.2944965, 0
1132, 1630177724, -0.4781834, 0.5142747, 0.43104392, 0.56661963, 0.9080136, -1.426929, -1.6028795, 0
1133, 1630194391, -0.4786238, 0.51445717, 0.4306596, 0.56637436, 1.2675918, -0.60131735, 0.9798517, 0
1134, 1630211058, -0.47938666, 0.51404864, 0.43041632, 0.56628513, 2.1391904, -1.1366184, -0.92604923, 0
1135, 1630227725, -0.48015907, 0.5134726, 0.4306284, 0.5659918, 1.1923447, -1.5215186, 1.2243309, 0
1136, 1630244392, -0.4809808, 0.5130359, 0.43083155, 0.5655354, 0.045873016, -2.890345, 0.9536772, 0
1137, 1630261059, -0.48161417, 0.5129056, 0.43131587, 0.56474483, 0.7886696, -2.9509878, -0.16623497, 0
1138, 1630277726, -0.48234534, 0.51227254, 0.4322139, 0.5640084, 2.5782073, -1.4458627, -2.7544036, 0
1139, 1630294393, -0.4831788, 0.51121676, 0.4333559, 0.5633761, 2.0408118, -0.14607063, -0.090444565, 0
1140, 1630311060, -0.484129, 0.51023257, 0.43405107, 0.56291723, -0.26330742, -1.5422522, -0.06617069, 0
1141, 1630327727, -0.48502618, 0.50949633, 0.43471494, 0.5622992, -0.24618499, -2.088928, 0.15296745, 0
1142, 1630344394, -0.48580703, 0.5086528, 0.43567953, 0.561642, 1.0013999, -1.9587089, -1.1009254, 0
1143, 1630361061, -0.48646745, 0.507546, 0.43710715, 0.5609619, 1.1103711, -1.8028686, 1.3158598, 0
1144, 1630377728, -0.4870527, 0.50640124, 0.43855095, 0.5603614, 0.29871523, -1.2721415, -1.1852217, 0
1145, 1630394395, -0.4873728, 0.50565135, 0.43968123, 0.5598744, 0.26713195, -0.37628987, 0.009119034, 0
1146, 1630411062, -0.48783708, 0.5046712, 0.4406421, 0.55959886, 0.4047899, -0.5458153, -0.5904503, 0
1147, 1630427729, -0.488323, 0.50368345, 0.44145203, 0.5594267, -0.48245695, 0.35525307, -0.4277029, 0
1148, 1630444396, -0.4888444, 0.5029299, 0.44193956, 0.55926424, -1.2328557, -0.7105276, 1.5434437, 0
1149, 1630461063, -0.48922533, 0.5024895, 0.44240952, 0.5589554, -0.9099979, -0.867817, -0.5726757, 0
1150, 1630477730, -0.48929644, 0.5023763, 0.4427792, 0.558702, -0.26036623, -0.23799615, 0.45027542, 0
1151, 1630494397, -0.48932427, 0.50205106, 0.44314337, 0.55868137, -0.30502388, 1.1762892, -0.001745224, 0
1152, 1630511064, -0.4894054, 0.5016572, 0.44313914, 0.55896735, -0.49883756, 1.8883747, -0.30456352, 0
1153, 1630527731, -0.48948163, 0.5013568, 0.44286206, 0.55938965, -0.20305213, 0.22948165, 0.51771164, 0
1154, 1630544398, -0.48941308, 0.5012241, 0.44262978, 0.55975235, -0.6809657, -1.2891968, -1.666872, 0
1155, 1630561065, -0.4892477, 0.5012742, 0.44238576, 0.5600447, -1.6512885, -0.1574423, 0.25865173, 0
1156, 1630577732, -0.48915365, 0.5014304, 0.44213906, 0.5601818, -0.5514163, -0.69666886, 1.2624569, 0
1157, 1630594399, -0.48883557, 0.5016913, 0.44209677, 0.5602593, -0.65603733, -1.4817847, 3.3329172, 0
1158, 1630611066, -0.48847154, 0.5019782, 0.44215947, 0.5602703, -0.3936669, -1.1566442, -0.7912369, 0
1159, 1630627733, -0.48817518, 0.50185305, 0.44238445, 0.56046325, 1.3410314, 0.30818862, -2.6351376, 0
1160, 1630644400, -0.4881333, 0.5011097, 0.4424478, 0.5611144, 1.5982766, 0.39040864, -1.2776003, 0
1161, 1630661067, -0.48807353, 0.50054544, 0.4423576, 0.56174064, -0.78144777, -2.9831297, 0.5456486, 0
1162, 1630677734, -0.48780125, 0.5004478, 0.4423953, 0.56203425, -0.67713934, -3.7837574, -0.75001335, 0
1163, 1630694401, -0.4873801, 0.50042963, 0.4428964, 0.56202155, -0.14986175, -4.0258574, 2.4160833, 0
1164, 1630711068, -0.4870535, 0.5001942, 0.4437739, 0.5618218, 0.22330363, -3.5238128, 1.5573025, 0
1165, 1630727735, -0.48684034, 0.4997445, 0.44456193, 0.56178373, 1.3744128, -1.53894, -2.1591258, 0
1166, 1630744402, -0.4868861, 0.49898365, 0.44513914, 0.5619633, 1.3014262, -1.9102991, -1.8982387, 0
1167, 1630761069, -0.48702976, 0.49831566, 0.4457215, 0.5619701, -0.100359835, -3.8013864, -2.8413067, 0
1168, 1630777736, -0.4871366, 0.4979232, 0.4464088, 0.56167954, -0.08663379, -3.29556, -0.16309166, 0
1169, 1630794403, -0.4872275, 0.49758962, 0.44721502, 0.561255, 0.5555512, -3.749454, 2.1648874, 0
1170, 1630811070, -0.48740017, 0.4969747, 0.44809967, 0.56094414, 1.7721621, -0.97521544, 1.6849976, 0
