sep=,
DeviceTag:,Xsens_DOT_5,,,,,,,,,,,,,,,,,
FirmwareVersion:,3.0.0,,,,,,,,,,,,,,,,,
AppVersion:,2023.6.1,,,,,,,,,,,,,,,,,
SyncStatus:,Synced,,,,,,,,,,,,,,,,,
OutputRate:,60Hz,,,,,,,,,,,,,,,,,
FilterProfile:,General,,,,,,,,,,,,,,,,,
Measurement Mode:,Sensor fusion Mode - Extended (Quaternion),,,,,,,,,,,,,,,,,
StartTime:,2025-05-05 11:33:38.316 +0200,,,,,,,,,,,,,,,,,
 2025,,,,,,,,,,,,,,,,,,,

PacketCounter,SampleTimeFine,Quat_W,Quat_X,Quat_Y,Quat_Z,FreeAcc_X,FreeAcc_Y,FreeAcc_Z,Status
1, 1611327347, 0.89238846, -0.066654265, 0.27969897, -0.3478063, 0.039494738, -0.05323735, -0.16540909, 0
2, 1611344014, 0.89238995, -0.06658449, 0.27968147, -0.34782958, 0.012462412, -0.095536396, -0.18280411, 0
3, 1611360681, 0.8923937, -0.066522606, 0.27967098, -0.3478406, 0.024014233, -0.06306348, -0.09960842, 0
4, 1611377348, 0.89241576, -0.06641982, 0.27960643, -0.34785554, 0.040429916, -0.043515988, -0.08359337, 0
5, 1611394015, 0.89244735, -0.06627398, 0.27952427, -0.3478683, 0.03715836, -0.041941423, -0.17204285, 0
6, 1611410682, 0.8924729, -0.066092536, 0.2794549, -0.34789312, 0.04460447, -0.03294497, -0.09740162, 0
7, 1611427349, 0.8925298, -0.06588095, 0.27932006, -0.34789583, 0.053598408, 0.012072158, -0.05690956, 0
8, 1611444016, 0.89258796, -0.06563122, 0.2792037, -0.34788722, -0.032120824, -0.004934216, -0.09318066, 0
9, 1611460683, 0.8926541, -0.065346785, 0.2790835, -0.34786713, 0.0010371001, -0.035021517, -0.13261127, 0
10, 1611477350, 0.8927234, -0.065071985, 0.27899286, -0.34781379, 0.10292615, 0.04076027, -0.15451908, 0
11, 1611494017, 0.89278454, -0.06478596, 0.27892205, -0.34776694, 0.1285423, 0.04992595, -0.12987518, 0
12, 1611510684, 0.892829, -0.06452448, 0.27887017, -0.34774268, 0.08447605, 0.06833554, -0.11528206, 0
13, 1611527351, 0.892859, -0.06432811, 0.27880177, -0.34775716, 0.08346465, 0.0683913, -0.12414837, 0
14, 1611544018, 0.892893, -0.064158246, 0.27872774, -0.34776044, 0.10733159, 0.018459013, -0.1640892, 0
15, 1611560685, 0.8929302, -0.0639897, 0.27867776, -0.34773606, 0.048241694, -0.0076011447, -0.1169157, 0
16, 1611577352, 0.892954, -0.06383302, 0.27863875, -0.3477353, 0.009619551, 0.072928116, -0.07485199, 0
17, 1611594019, 0.8929832, -0.063677676, 0.27858493, -0.3477316, 0.049119208, 0.1253169, -0.1449604, 0
18, 1611610686, 0.89301896, -0.06353178, 0.27850327, -0.3477319, 0.07885582, 0.11822922, -0.17095947, 0
19, 1611627353, 0.8930503, -0.06339713, 0.27840352, -0.34775564, 0.05673094, 0.10724523, -0.16049957, 0
20, 1611644020, 0.8930754, -0.063288674, 0.27833018, -0.34776995, 0.031897534, 0.10061478, -0.05491352, 0
21, 1611660687, 0.8930948, -0.06319539, 0.27824947, -0.34780154, -0.025900904, 0.17402409, -0.024625778, 0
22, 1611677354, 0.89311564, -0.06312213, 0.2781755, -0.34782037, -0.0030826908, 0.17639126, -0.11400032, 0
23, 1611694021, 0.89313096, -0.06308299, 0.2781545, -0.34780496, 0.0433148, 0.119073205, -0.20966434, 0
24, 1611710688, 0.8931353, -0.063030094, 0.27816343, -0.34779677, 0.055668585, 0.15739942, -0.117105484, 0
25, 1611727355, 0.8931347, -0.06302012, 0.27814132, -0.34781745, -0.024611905, 0.20197952, -0.10920334, 0
26, 1611744022, 0.8931315, -0.06304178, 0.27809244, -0.34786084, -0.032708216, 0.21998458, -0.14406776, 0
27, 1611760689, 0.8931269, -0.06306671, 0.27804828, -0.3479034, 0.014799687, 0.14087957, -0.14625454, 0
28, 1611777356, 0.89312494, -0.06309038, 0.27800328, -0.34794, -0.04599405, 0.13610165, -0.10267162, 0
29, 1611794023, 0.89311, -0.06312493, 0.27801698, -0.34796107, -0.043945327, 0.12449104, -0.19324017, 0
30, 1611810690, 0.89307696, -0.063171126, 0.27812016, -0.34795526, 0.051175527, 0.124333605, -0.1846466, 0
31, 1611827357, 0.89304984, -0.06323722, 0.27821544, -0.34793675, 0.112610295, 0.13334958, -0.113469124, 0
32, 1611844024, 0.8930291, -0.063315235, 0.278271, -0.3479315, 0.044132184, 0.09479637, -0.08808231, 0
33, 1611860691, 0.89300275, -0.06338607, 0.27831554, -0.3479505, -0.018104326, 0.08503335, -0.10289478, 0
34, 1611877358, 0.8929632, -0.0634523, 0.27841836, -0.34795782, -0.028819537, 0.0030905695, -0.13008404, 0
35, 1611894025, 0.8929426, -0.06350992, 0.27850607, -0.34792972, 0.044283506, -0.01952668, -0.12224674, 0
36, 1611910692, 0.89294684, -0.06354518, 0.2785662, -0.34786433, 0.0717043, 7.3960435E-4, -0.12840652, 0
37, 1611927359, 0.8929433, -0.06355703, 0.27862507, -0.34782374, 0.07691684, -0.006695107, -0.22220325, 0
39, 1611960693, 0.89293313, -0.0635739, 0.27867344, -0.34780803, 0.091927305, -0.039939195, -0.051506996, 0
40, 1611977360, 0.892947, -0.06354818, 0.27866378, -0.34778485, -0.006570163, -0.03671664, -0.058387756, 0
41, 1611994027, 0.8929602, -0.06352125, 0.27865297, -0.34776494, -0.013856686, -0.03290555, -0.12252903, 0
43, 1612027361, 0.8930061, -0.0633908, 0.27860665, -0.3477079, 0.08555629, 0.06315862, -0.11415863, 0
44, 1612044028, 0.8930445, -0.063305125, 0.27854028, -0.34767818, 0.018432666, 0.074021704, -0.12208176, 0
45, 1612060695, 0.8930738, -0.06322103, 0.27846554, -0.34767812, -0.01074628, 0.09189638, -0.122608185, 0
47, 1612094029, 0.89312714, -0.06303191, 0.27832544, -0.3476874, -0.00513521, 0.010275561, -0.13621616, 0
51, 1612160697, 0.8932943, -0.0623828, 0.27801338, -0.34762484, 0.097472884, 0.06068902, -0.12899017, 0
54, 1612210698, 0.89342606, -0.061863042, 0.27774388, -0.34759414, 0.044327535, 0.03087471, -0.14343357, 0
55, 1612227365, 0.8934815, -0.06167128, 0.27764505, -0.34756508, 0.024817985, 0.027889835, -0.10392475, 0
56, 1612244032, 0.8935352, -0.06149193, 0.27752876, -0.3475517, 0.039696123, 0.032797817, -0.15633202, 0
58, 1612277366, 0.8936353, -0.06117932, 0.2772078, -0.34760565, 0.06842268, 0.10586655, -0.12789917, 0
59, 1612294033, 0.8936922, -0.061015412, 0.277025, -0.3476339, 0.037557777, 0.04657616, -0.21752739, 0
60, 1612310700, 0.89374, -0.060868952, 0.2769054, -0.34763184, 0.0019157295, 0.05566336, -0.14074421, 0
63, 1612360701, 0.8938322, -0.060522813, 0.27663603, -0.34766948, 0.07552458, 0.059338443, -0.19325829, 0
64, 1612377368, 0.8938512, -0.06040585, 0.27663943, -0.34763846, 0.040968135, -0.031806342, -0.20208454, 0
66, 1612410702, 0.8938947, -0.06021556, 0.27653167, -0.34764528, 0.038593087, 0.07981829, -0.12197971, 0
70, 1612477370, 0.89404213, -0.059750788, 0.27623725, -0.34758016, 0.004199585, 0.04586335, -0.12559891, 0
71, 1612494037, 0.8940782, -0.059625607, 0.27620527, -0.34753448, 0.014482299, 0.032579277, -0.18481731, 0
72, 1612510704, 0.89410955, -0.059522815, 0.27616054, -0.34750697, 0.056964513, 0.04711399, -0.1304903, 0
74, 1612544038, 0.8941614, -0.05931536, 0.27605468, -0.3474933, 0.04978304, 0.07573178, -0.06135273, 0
75, 1612560705, 0.89419043, -0.059234813, 0.27598932, -0.3474843, 0.031953413, 0.08752513, -0.10774803, 0
76, 1612577372, 0.89420724, -0.059167225, 0.27596045, -0.3474754, 0.050071597, 0.040062126, -0.12647915, 0
78, 1612610706, 0.8942312, -0.05901725, 0.2759286, -0.34746477, 0.04216639, 0.06366565, -0.064183235, 0
79, 1612627373, 0.89424014, -0.058929585, 0.27591053, -0.34747064, 0.020961938, 0.048397735, -0.11841869, 0
80, 1612644040, 0.8942513, -0.058850415, 0.27589273, -0.3474693, 0.030412514, 0.019862255, -0.15265179, 0
83, 1612694041, 0.89432037, -0.058578584, 0.27571058, -0.34748256, 0.036521792, 0.0174199, -0.12629318, 0
85, 1612727375, 0.89438933, -0.05844363, 0.27546123, -0.34752572, 0.087822266, 0.08017446, -0.11747742, 0
86, 1612744042, 0.8944126, -0.058398865, 0.27530333, -0.34759805, 0.017382827, 0.06826949, -0.14318943, 0
87, 1612760709, 0.8944269, -0.058367416, 0.27516043, -0.34767994, 0.020212946, 0.10180839, -0.1543045, 0
89, 1612794043, 0.8944896, -0.05822341, 0.27488405, -0.34776148, -0.040678464, 0.1779708, -0.063565254, 0
90, 1612810710, 0.8945107, -0.058190186, 0.27477658, -0.3477975, -0.004704724, 0.15026578, -0.10873699, 0
91, 1612827377, 0.89450336, -0.058182143, 0.27480513, -0.34779507, 0.07604939, 0.116449945, -0.12698364, 0
93, 1612860711, 0.89446783, -0.058242135, 0.2749433, -0.34776723, -0.024240874, 0.06389903, -0.16834736, 0
94, 1612877378, 0.89443606, -0.058303423, 0.275071, -0.34773764, -0.023869842, 0.022052655, -0.21445847, 0
95, 1612894045, 0.89440477, -0.05836618, 0.2751839, -0.34771863, 0.07514215, 0.045508858, -0.1967411, 0
99, 1612960713, 0.8943473, -0.05858998, 0.27553913, -0.34754673, 0.013615739, -0.058423407, -0.13851547, 0
101, 1612994047, 0.8944016, -0.058564525, 0.27551812, -0.34742814, 0.035091758, 0.051707935, -0.08204937, 0
102, 1613010714, 0.89444345, -0.058496427, 0.27546135, -0.34737715, 0.036443118, 0.0986076, -0.11420345, 0
103, 1613027381, 0.89447623, -0.058415588, 0.27545515, -0.3473112, 0.011147038, -8.6999626E-4, -0.13407898, 0
105, 1613060715, 0.89454186, -0.058237053, 0.27545843, -0.34716937, 0.0024367382, 0.060466316, -0.05389023, 0
106, 1613077382, 0.8945745, -0.05816096, 0.2754617, -0.3470953, 0.061184883, 0.05607214, -0.049733162, 0
107, 1613094049, 0.89460737, -0.058101118, 0.2754448, -0.34703428, 0.11091585, 0.10037079, -0.08743572, 0
109, 1613127383, 0.8946354, -0.05800233, 0.27538532, -0.3470257, 0.017791854, -0.0059771556, -0.14420986, 0
110, 1613144050, 0.89462763, -0.057999857, 0.2753659, -0.34706163, -0.0049722693, -0.05300238, -0.117889404, 0
113, 1613194051, 0.894641, -0.05809754, 0.27516294, -0.34717172, 0.21537596, -0.0056922045, -0.17282677, 0
116, 1613244052, 0.8946341, -0.058305934, 0.2748881, -0.34737194, -0.051255543, -0.08520428, -0.18756104, 0
117, 1613260719, 0.8946287, -0.0583719, 0.2747666, -0.34747103, -0.06632747, -0.007554654, -0.09661102, 0
118, 1613277386, 0.8946409, -0.058404986, 0.27464467, -0.34753048, 0.1022574, 0.052935187, -0.054365158, 0
120, 1613310720, 0.8947184, -0.05829318, 0.27443555, -0.34751475, -0.004113756, -0.034975726, -0.16120529, 0
121, 1613327387, 0.8947472, -0.05819978, 0.2742824, -0.34757712, -0.08716804, -0.028061409, -0.17801476, 0
122, 1613344054, 0.89478487, -0.058082696, 0.27408051, -0.34765938, -0.13281453, -0.04544091, -0.15503407, 0
124, 1613377388, 0.89492303, -0.057653487, 0.2736896, -0.34768322, -0.02727998, -0.030262286, -0.03331566, 0
125, 1613394055, 0.8950182, -0.057369225, 0.27350184, -0.34763303, 0.05934135, 0.035021238, -0.20240021, 0
128, 1613444056, 0.8951559, -0.056678336, 0.27334824, -0.34751245, 0.16266826, -0.003299135, 0.020627022, 0
129, 1613460723, 0.8952308, -0.056436278, 0.27326202, -0.34742665, 0.07401073, -0.064518414, -0.07265663, 0
132, 1613510724, 0.8953822, -0.05568877, 0.27309012, -0.34729236, 0.17503612, -0.10638328, -0.112363815, 0
133, 1613527391, 0.8954483, -0.05545173, 0.27295464, -0.34726608, 0.14715154, 0.066244684, -0.17272186, 0
135, 1613560725, 0.8955715, -0.05512224, 0.2725836, -0.34729278, 0.1978834, 0.07579302, -0.09981346, 0
136, 1613577392, 0.89561987, -0.054943744, 0.2724369, -0.34731123, 0.017256988, 0.032907534, -0.0011863708, 0
137, 1613594059, 0.8956617, -0.05478467, 0.272347, -0.347299, -0.086600766, 0.15195766, -0.06999588, 0
139, 1613627393, 0.8957911, -0.054483138, 0.2721941, -0.34713262, 0.036737483, 0.04408117, -0.13128567, 0
140, 1613644060, 0.8958297, -0.054375686, 0.27212787, -0.3471019, -0.015041305, 0.07168242, -0.13788986, 0
143, 1613694061, 0.89588255, -0.054300025, 0.27197447, -0.34709743, 0.030662177, 0.21987638, -0.1614275, 0
144, 1613710728, 0.8958398, -0.054392137, 0.2720269, -0.34715202, -7.179236E-4, 0.12698917, -0.21153545, 0
145, 1613727395, 0.89577377, -0.05450568, 0.27214035, -0.34721577, 0.08343649, 0.11851587, -0.16967487, 0
148, 1613777396, 0.8956022, -0.054994408, 0.27251348, -0.3472885, 0.05373162, -0.024898086, -0.1945324, 0
149, 1613794063, 0.89550406, -0.05525641, 0.27265057, -0.34739253, 0.30001676, 0.04875136, -0.1507492, 0
151, 1613827397, 0.895348, -0.055775497, 0.27285036, -0.3475551, 5.764399E-4, 0.048071854, -0.061044693, 0
152, 1613844064, 0.89527977, -0.056025974, 0.27295688, -0.347607, -0.11003677, -0.040119234, -0.14248753, 0
153, 1613860731, 0.8952131, -0.056230612, 0.27310222, -0.34763122, -0.042164825, -0.010801487, -0.20084953, 0
155, 1613894065, 0.8951306, -0.05653619, 0.27329862, -0.34764004, 0.047470577, 0.054432586, -0.121456146, 0
157, 1613927399, 0.8950232, -0.056872644, 0.2736604, -0.3475769, 0.07164954, 0.072754025, -0.18315697, 0
159, 1613960733, 0.8949265, -0.057249147, 0.27396026, -0.34752786, -0.0038705738, 0.02712989, -0.08771229, 0
160, 1613977400, 0.8948619, -0.05744808, 0.274157, -0.34750614, -0.028940234, -0.022929411, -0.19980907, 0
162, 1614010734, 0.8947321, -0.057842936, 0.27458662, -0.3474359, 0.11637448, 0.077215515, -0.037527084, 0
163, 1614027401, 0.89467204, -0.058046926, 0.2747778, -0.3474053, 0.045504555, 0.03726732, -0.1000824, 0
164, 1614044068, 0.89460224, -0.058271106, 0.27498436, -0.34738436, 0.016504867, -0.010972475, -0.167449, 0
166, 1614077402, 0.89444727, -0.058708057, 0.27547476, -0.3473213, 0.09819818, 0.032727662, -0.09102535, 0
167, 1614094069, 0.8943995, -0.058917735, 0.2756428, -0.34727502, 0.07314886, 0.041801587, -0.1310234, 0
168, 1614110736, 0.894326, -0.059114795, 0.27587506, -0.3472467, 0.042588606, -0.0736281, -0.25887108, 0
170, 1614144070, 0.89415157, -0.059550878, 0.27646604, -0.34715158, 0.07169603, -0.029681766, -0.113871574, 0
172, 1614177404, 0.89399457, -0.06003942, 0.27686402, -0.34715423, 0.112309, 0.06646284, -0.093738556, 0
174, 1614210738, 0.8938542, -0.06049356, 0.2772206, -0.34715196, -0.020046206, 1.5947649E-4, -0.06300926, 0
175, 1614227405, 0.8937877, -0.06067805, 0.27740142, -0.34714675, -0.03765277, -0.0015088242, -0.1800232, 0
178, 1614277406, 0.8936802, -0.061099704, 0.27767935, -0.34712738, -0.05696496, -0.020124547, -0.12096977, 0
179, 1614294073, 0.8936692, -0.061152592, 0.2776818, -0.3471447, -0.121779025, 0.03896071, -0.038594246, 0
180, 1614310740, 0.893681, -0.061139792, 0.27764648, -0.34714457, -0.1006452, 0.14271562, -0.07338238, 0
182, 1614344074, 0.89374286, -0.060935084, 0.27741757, -0.34720433, -0.11135483, 0.063834324, -0.14144611, 0
183, 1614360741, 0.8937819, -0.06078431, 0.2772483, -0.34726566, -0.11462281, 0.05871501, -0.07570362, 0
184, 1614377408, 0.8938377, -0.060582604, 0.27705586, -0.34731048, -0.03433472, 0.11399543, -0.06908417, 0
187, 1614427409, 0.8940147, -0.05982306, 0.27673277, -0.34724456, 0.06288827, 0.06292309, -0.04449272, 0
188, 1614444076, 0.89406574, -0.059573546, 0.27665496, -0.3472181, 0.20270076, 0.04866785, -0.1176548, 0
190, 1614477410, 0.89418167, -0.059148148, 0.27644983, -0.34715533, 0.050150048, -0.034862656, -0.17420673, 0
191, 1614494077, 0.8942044, -0.05902842, 0.2763612, -0.34718773, 0.21843697, 0.010705014, -0.21573067, 0
194, 1614544078, 0.89431524, -0.05883177, 0.276075, -0.3471633, 0.05199403, -0.0147410985, -0.23720741, 0
195, 1614560745, 0.89431673, -0.058775526, 0.27613834, -0.34711885, 0.06780064, -0.040849786, -0.14730453, 0
197, 1614594079, 0.89434177, -0.058761045, 0.27624506, -0.34697172, 0.10837294, 0.11195499, -0.07372475, 0
198, 1614610746, 0.89433926, -0.058842283, 0.27628833, -0.34693003, 0.15221389, 0.13977182, -0.14558315, 0
199, 1614627413, 0.89429605, -0.059014753, 0.27634823, -0.34696403, 0.13874567, 0.09285756, -0.18336391, 0
202, 1614677414, 0.89415276, -0.059676487, 0.27650774, -0.34709346, -0.07893762, 0.14734751, -0.15372562, 0
203, 1614694081, 0.8940914, -0.05991063, 0.27664125, -0.34710443, -0.019301461, 0.08380174, -0.19078827, 0
205, 1614727415, 0.8939951, -0.06028995, 0.27690166, -0.3470793, -0.099232376, 0.104605876, -0.1044302, 0
206, 1614744082, 0.89395565, -0.060464982, 0.27702388, -0.347053, -0.02996437, 0.124618165, -0.13338852, 0
207, 1614760749, 0.89390373, -0.0606439, 0.27715266, -0.34705272, 0.076805085, 0.06670504, -0.18348503, 0
210, 1614810750, 0.8937745, -0.061130106, 0.27741453, -0.34709093, 0.030459005, 0.02859636, -0.2091484, 0
211, 1614827417, 0.89371496, -0.06128886, 0.27756354, -0.34709728, 0.024774622, -0.04139256, -0.20351124, 0
213, 1614860751, 0.89363974, -0.061481588, 0.27773482, -0.34711987, -0.019080183, -0.07226475, -0.11079121, 0
214, 1614877418, 0.89363766, -0.061487295, 0.27779853, -0.34707287, -0.032708663, -0.063692026, -0.17685509, 0
217, 1614927419, 0.89376307, -0.061156377, 0.27764815, -0.34692886, -0.009315349, -0.03819096, -0.101620674, 0
218, 1614944086, 0.8938198, -0.06097281, 0.2775218, -0.34691614, -0.010944535, -0.05469633, -0.09872055, 0
220, 1614977420, 0.8939482, -0.06057275, 0.27727902, -0.34684932, 0.118485786, -0.026131822, -0.104867935, 0
221, 1614994087, 0.8939965, -0.060394008, 0.27717218, -0.34684163, 0.059061956, -0.014434383, -0.013747215, 0
222, 1615010754, 0.8940476, -0.06024582, 0.277068, -0.34681895, 0.062940575, 0.009766175, -0.06476307, 0
224, 1615044088, 0.894128, -0.059878558, 0.27690056, -0.34680897, 0.12232596, -0.041699473, -0.0959301, 0
228, 1615110756, 0.89415026, -0.059593312, 0.27688712, -0.34681126, 0.33192793, -0.013756272, -0.13298893, 0
229, 1615127423, 0.8941452, -0.059634678, 0.27685493, -0.3468432, -0.09320848, -0.06454308, 0.045859337, 0
232, 1615177424, 0.89406854, -0.05952804, 0.27770528, -0.34637862, 0.19890374, -0.12573509, -0.015049934, 0
233, 1615194091, 0.8940897, -0.05935836, 0.27807525, -0.3460564, 0.27389836, -0.40696025, -0.25180912, 0
234, 1615210758, 0.8940797, -0.059189692, 0.27860558, -0.34568465, 0.4414734, -0.47564933, -0.42023373, 0
236, 1615244092, 0.8940368, -0.059446372, 0.27915975, -0.345304, 0.39657545, -0.34499416, -0.09672165, 0
237, 1615260759, 0.89396816, -0.059700433, 0.27924293, -0.34537074, 0.17537966, -0.34747708, 0.013555527, 0
238, 1615277426, 0.8938824, -0.059908684, 0.27929312, -0.3455161, -2.4273507E-4, -0.34789965, 0.024500847, 0
240, 1615310760, 0.89384925, -0.059956454, 0.27933708, -0.34555796, -0.040616773, -0.10807175, -0.14240551, 0
241, 1615327427, 0.8938666, -0.05988229, 0.2792536, -0.3455936, -0.124097966, -0.02399543, -0.12131882, 0
243, 1615360761, 0.89393795, -0.059476353, 0.27889907, -0.3457653, -0.051190503, -0.04195939, -0.09885788, 0
244, 1615377428, 0.89402574, -0.05909851, 0.27867597, -0.3457829, -0.14368999, -0.008732009, -0.12213707, 0
247, 1615427429, 0.89417475, -0.05795844, 0.27822453, -0.34595397, 0.19653405, 0.10327039, -0.23704052, 0
248, 1615444096, 0.894202, -0.057647094, 0.2780993, -0.34603617, 0.14572822, -0.0041267197, -0.23253536, 0
249, 1615460763, 0.8942524, -0.057309445, 0.2779452, -0.34608614, -0.0052156746, -0.056047384, -0.056019783, 0
251, 1615494097, 0.89435714, -0.056659594, 0.27756804, -0.3462249, 0.15673667, 2.1705902E-4, -0.12028885, 0
252, 1615510764, 0.8944136, -0.05639507, 0.27738222, -0.34627125, 0.19773677, 0.13793932, -0.012376785, 0
253, 1615527431, 0.8944503, -0.05615783, 0.2772562, -0.34631586, 0.22100805, 0.16669874, -0.0390625, 0
255, 1615560765, 0.89448017, -0.055822197, 0.2772273, -0.3463161, 0.17404999, 0.13609172, 0.024691582, 0
257, 1615594099, 0.89454275, -0.055548802, 0.2773322, -0.3461144, -0.0672546, 0.06312808, -0.08808899, 0
259, 1615627433, 0.89464474, -0.055490695, 0.27709684, -0.3460484, 0.040451374, 0.15243879, -0.20817566, 0
261, 1615660767, 0.8946507, -0.05570067, 0.2766694, -0.34634134, 0.044866875, 0.15176052, -0.18685913, 0
263, 1615694101, 0.8945996, -0.05607099, 0.27632344, -0.3466895, -0.08642799, 0.2460914, -0.2704401, 0
264, 1615710768, 0.89452994, -0.056268558, 0.27622736, -0.34691387, -0.16174604, 0.21588226, -0.20016384, 0
265, 1615727435, 0.89447653, -0.05647034, 0.2760943, -0.34712476, -0.19016795, 0.19606288, -0.21819687, 0
267, 1615760769, 0.89442146, -0.056754977, 0.27567622, -0.34755215, -0.18198827, 0.4003102, -0.14252281, 0
268, 1615777436, 0.89438844, -0.0568732, 0.27543664, -0.34780788, -0.20088428, 0.51034045, -0.04320717, 0
269, 1615794103, 0.89438176, -0.056914337, 0.27518502, -0.34801763, -0.3009061, 0.46343485, -0.030864716, 0
271, 1615827437, 0.8943945, -0.05674377, 0.27492073, -0.34822127, -0.3563105, 0.3410762, -0.21294498, 0
274, 1615877438, 0.8944943, -0.056203254, 0.27474412, -0.3481919, -0.045709517, 0.36128294, -0.022352219, 0
276, 1615910772, 0.8945725, -0.05585474, 0.27471974, -0.34806618, -0.022461487, 0.11214318, -0.09138489, 0
278, 1615944106, 0.89463496, -0.055685677, 0.27481854, -0.34785476, 0.11688901, 0.16069357, -0.09122181, 0
279, 1615960773, 0.8946414, -0.055671245, 0.27488467, -0.3477884, 0.11527703, 0.12073334, -0.1138916, 0
280, 1615977440, 0.8946407, -0.055704873, 0.27495572, -0.3477285, 0.18968405, 0.06760261, -0.1490984, 0
282, 1616010774, 0.8946506, -0.055847142, 0.27506435, -0.34759396, 0.011921734, 0.059938714, -0.13915062, 0
283, 1616027441, 0.8946537, -0.055974662, 0.27510116, -0.34753639, 0.082993045, 0.12051788, -0.12353802, 0
284, 1616044108, 0.89467305, -0.05607114, 0.27510998, -0.3474641, 0.07685359, 0.16773255, -0.08931637, 0
286, 1616077442, 0.8946923, -0.05630234, 0.2751865, -0.34731632, 0.0062384703, 0.14844626, -0.21124077, 0
287, 1616094109, 0.8946936, -0.056437742, 0.27526954, -0.34722534, -0.016821139, 0.16921443, -0.15483189, 0
291, 1616160777, 0.8946775, -0.05700969, 0.2756549, -0.3468675, 0.02978176, 0.051473163, -0.11029911, 0
292, 1616177444, 0.89467245, -0.05716584, 0.2757663, -0.3467664, 0.03538478, 0.0130591355, -0.11185169, 0
294, 1616210778, 0.8945356, -0.057673726, 0.27617612, -0.3467093, 0.28927338, -0.038391422, -0.13601303, 0
295, 1616227445, 0.89445657, -0.057981834, 0.27631894, -0.34674835, 0.227831, -0.14104109, -0.22008705, 0
297, 1616260779, 0.89428926, -0.05864118, 0.27665257, -0.34680277, -0.043565135, -0.19339626, -0.042084694, 0
298, 1616277446, 0.89423853, -0.05889985, 0.27678508, -0.34678397, 0.19556311, -0.13913704, -0.07465935, 0
299, 1616294113, 0.8942134, -0.059058517, 0.27688843, -0.34673947, 0.1877882, -0.13544798, -0.095832825, 0
301, 1616327447, 0.89418936, -0.059338927, 0.27702343, -0.3466453, 0.11770997, -0.12089956, -0.17264652, 0
302, 1616344114, 0.89416057, -0.059462663, 0.27704605, -0.34668013, 0.21060933, -0.096607946, -0.07448959, 0
303, 1616360781, 0.89415663, -0.05955998, 0.2770392, -0.34667933, 0.15469354, -0.17213517, -0.08969498, 0
307, 1616427449, 0.8940755, -0.059840895, 0.27719226, -0.3467176, 0.11976629, -0.09532635, -0.11319733, 0
309, 1616460783, 0.8940327, -0.060001545, 0.2772894, -0.34672266, 0.062157165, -0.0763083, -0.16612148, 0
310, 1616477450, 0.8940039, -0.060111776, 0.27733207, -0.34674382, 0.1079391, 0.025697816, -0.12189293, 0
311, 1616494117, 0.8939738, -0.06031572, 0.27732423, -0.34679243, 0.19100054, 0.17197204, -0.16204834, 0
313, 1616527451, 0.89392745, -0.060483843, 0.27744928, -0.3467823, -0.40073392, -0.11977984, 0.08857727, 0
314, 1616544118, 0.8938628, -0.06052874, 0.27790427, -0.34657696, 0.11850366, 0.05302342, -0.20271873, 0
315, 1616560785, 0.8938772, -0.060380433, 0.27844098, -0.34613463, 0.4861885, -0.06423419, -0.20575333, 0
317, 1616594119, 0.8938902, -0.06008, 0.27954718, -0.3452604, 0.23819374, -0.919497, -0.5475855, 0
318, 1616610786, 0.8938008, -0.06019532, 0.28016493, -0.34497097, 0.5664596, -0.9050797, -0.19784164, 0
321, 1616660787, 0.89344853, -0.062308207, 0.28053185, -0.34521005, 0.4971708, -0.4300567, 0.09568405, 0
322, 1616677454, 0.893138, -0.06316546, 0.2808909, -0.34556586, 0.32385263, -0.3034604, 0.015135765, 0
324, 1616710788, 0.89281327, -0.064423144, 0.2814619, -0.345708, -0.3258649, -0.20120434, -0.16963482, 0
325, 1616727455, 0.89270705, -0.06482446, 0.2815943, -0.34579977, -0.30595863, -0.22221608, -0.1686039, 0
326, 1616744122, 0.8926686, -0.064913854, 0.2815346, -0.34593073, -0.063805126, 0.019553136, -0.18539143, 0
328, 1616777456, 0.8928501, -0.06432567, 0.28094822, -0.3460487, -0.40767264, 0.10700898, -0.13266087, 0
329, 1616794123, 0.8930137, -0.06378211, 0.28050488, -0.34608683, -0.4662601, 0.11739364, -0.3803072, 0
330, 1616810790, 0.89318055, -0.06313723, 0.2800489, -0.34614402, -0.33426183, 0.12420559, -0.17885017, 0
332, 1616844124, 0.8936165, -0.06165775, 0.2788925, -0.34621942, -0.21504696, 0.20748733, -0.09291172, 0
333, 1616860791, 0.8938108, -0.060840588, 0.27840415, -0.3462552, -0.32312486, 0.16568443, -0.019929886, 0
337, 1616927459, 0.8944169, -0.057634998, 0.27711588, -0.34627184, 0.08620537, 0.10123614, -0.06142044, 0
338, 1616944126, 0.8945035, -0.056885898, 0.2769962, -0.34626797, 0.19485323, 0.047587723, -0.14452457, 0
340, 1616977460, 0.8947136, -0.055468515, 0.2766245, -0.3462518, 0.17411414, -0.05853536, -0.13554573, 0
341, 1616994127, 0.8948464, -0.054875605, 0.27635866, -0.3462156, 0.2229839, -0.07423572, -0.058467865, 0
342, 1617010794, 0.89497477, -0.054357164, 0.2761043, -0.34616846, 0.33747908, -0.04820884, -0.22145462, 0
344, 1617044128, 0.8951432, -0.053588375, 0.27585185, -0.34605402, 0.32461166, 0.15868634, -0.065704346, 0
345, 1617060795, 0.8952074, -0.053428274, 0.27575693, -0.34598833, 0.21431294, 0.118142635, -0.16632938, 0
346, 1617077462, 0.8952313, -0.05333834, 0.2757183, -0.34597114, 0.1343999, 0.008850694, -0.2584467, 0
348, 1617110796, 0.89532256, -0.053274628, 0.2754711, -0.34594172, 0.017498381, 0.15053535, -0.1288786, 0
350, 1617144130, 0.8954288, -0.053261813, 0.27507254, -0.3459859, -0.030604959, 0.20135681, -0.14472294, 0
353, 1617194131, 0.8955726, -0.053219214, 0.27450958, -0.34606737, -0.19679667, 0.3475272, -0.09092903, 0
355, 1617227465, 0.89563894, -0.053148486, 0.27416906, -0.3461765, -0.225732, 0.27259022, -0.13430786, 0
356, 1617244132, 0.8956888, -0.053064987, 0.27395564, -0.34622967, -0.2919962, 0.26139975, -0.10987282, 0
357, 1617260799, 0.895738, -0.052964143, 0.27379104, -0.3462474, -0.23011509, 0.24269417, -0.16766167, 0
359, 1617294133, 0.8957815, -0.052790463, 0.273498, -0.34639287, -0.048011925, 0.2931137, -0.23172188, 0
360, 1617310800, 0.89578027, -0.05272334, 0.2734144, -0.34647256, -0.05416613, 0.2146027, -0.17442799, 0
361, 1617327467, 0.8957743, -0.05267548, 0.27333847, -0.3465552, -0.0476286, 0.16624472, -0.12564754, 0
363, 1617360801, 0.89573365, -0.052586816, 0.27321512, -0.3467705, -0.029815957, 0.14750025, -0.09910202, 0
365, 1617394135, 0.8957319, -0.052410036, 0.2731082, -0.34688628, -0.024824243, 0.115159854, -0.07082558, 0
367, 1617427469, 0.8957445, -0.05220202, 0.2730012, -0.34696952, 0.06787932, 0.14439276, -0.08519077, 0
369, 1617460803, 0.89581376, -0.05188389, 0.27288792, -0.34692764, 0.040166397, 0.031208668, -0.05595398, 0
371, 1617494137, 0.89589566, -0.05153895, 0.27291238, -0.34674776, 0.083765954, 0.076576374, -0.12111759, 0
372, 1617510804, 0.8959574, -0.051377874, 0.27290073, -0.34662157, 0.08645861, 0.07850071, -0.13916397, 0
373, 1617527471, 0.89600587, -0.051243752, 0.27286118, -0.346547, 0.13151413, 0.046602394, -0.15165901, 0
375, 1617560805, 0.8960998, -0.051095992, 0.27276754, -0.34640014, 0.062257968, 0.099941306, -0.10472393, 0
376, 1617577472, 0.89613336, -0.051068727, 0.272743, -0.34633657, 0.045516178, 0.09014037, -0.18403625, 0
378, 1617610806, 0.896141, -0.051108874, 0.27280328, -0.34626344, 0.09276011, 0.030915922, -0.058446884, 0
380, 1617644140, 0.89614165, -0.051340487, 0.27299368, -0.34607726, 0.1168414, 0.10444375, -0.10213375, 0
382, 1617677474, 0.8960859, -0.051692817, 0.27323964, -0.34597516, 0.08980013, -0.009982005, -0.117424965, 0
383, 1617694141, 0.8960717, -0.051845938, 0.27330416, -0.34593794, 0.0012961517, -0.03372693, -0.15719223, 0
386, 1617744142, 0.89607805, -0.05220472, 0.27330333, -0.3458681, 0.057890303, -0.017380815, -0.10038853, 0
387, 1617760809, 0.8960833, -0.052298747, 0.2732672, -0.34586877, 0.0617687, -0.0053488887, -0.113536835, 0
388, 1617777476, 0.8960905, -0.05241207, 0.27322108, -0.3458693, 0.08069645, 0.0179477, -0.16174507, 0
390, 1617810810, 0.89608234, -0.052579753, 0.2730865, -0.34597147, -0.01591971, -0.06273978, -0.16359329, 0
391, 1617827477, 0.8960835, -0.05263601, 0.2729832, -0.34604132, -0.051037617, -0.042666387, -0.16393852, 0
392, 1617844144, 0.8960889, -0.05267842, 0.2729045, -0.3460829, 0.06746627, -0.044649787, -0.21674919, 0
395, 1617894145, 0.89617515, -0.052597534, 0.27253962, -0.34615943, 0.01474962, 0.096745685, -0.1276989, 0
396, 1617910812, 0.896203, -0.052546903, 0.27243087, -0.3461807, 0.044378944, 0.095243566, -0.06195736, 0
398, 1617944146, 0.8962875, -0.05238181, 0.27226838, -0.34611487, -0.057368178, 0.020504463, -0.1099987, 0
399, 1617960813, 0.8963308, -0.052266367, 0.27219006, -0.34608206, 0.06586659, 0.0839922, -0.08643532, 0
400, 1617977480, 0.89636606, -0.052223846, 0.27206334, -0.3460964, 0.037524026, 0.2911699, -0.1277914, 0
402, 1618010814, 0.8964448, -0.05194318, 0.27218124, -0.3458423, -0.2046802, -0.115864, -0.007381439, 0
403, 1618027481, 0.89646494, -0.051822983, 0.27255198, -0.34551573, 0.19650075, 0.08300469, -0.03294468, 0
405, 1618060815, 0.8965584, -0.05138352, 0.27360523, -0.34450486, 0.2890968, -0.54476285, -0.20964146, 0
406, 1618077482, 0.89656764, -0.05118617, 0.2742001, -0.34403712, 0.27177745, -0.8454231, -0.4913311, 0
407, 1618094149, 0.8965523, -0.051103152, 0.2748121, -0.3436005, 0.71062994, -0.8463482, -0.5253277, 0
410, 1618144150, 0.8965662, -0.051794842, 0.27516386, -0.34317923, 0.80516005, -0.56823653, -0.037496567, 0
411, 1618160817, 0.8964402, -0.052245453, 0.27538022, -0.3432664, 0.72777706, -0.4881029, -0.07426071, 0
413, 1618194151, 0.89626074, -0.05314693, 0.27568462, -0.34335223, -0.053546328, -0.4330814, -0.09002781, 0
415, 1618227485, 0.8961187, -0.0537594, 0.27587768, -0.34347296, 0.064032435, -0.28536385, -0.1502676, 0
417, 1618260819, 0.8961161, -0.054022923, 0.2758307, -0.343476, 0.017746706, -0.10970745, -0.21234131, 0
418, 1618277486, 0.8960877, -0.054153617, 0.27572277, -0.34361574, 0.027758297, -0.09621872, -0.2890501, 0
419, 1618294153, 0.8960597, -0.054270707, 0.27551523, -0.3438368, 0.05517909, -0.024720253, -0.26643658, 0
421, 1618327487, 0.8959695, -0.05455902, 0.27492386, -0.34449887, -0.20700876, 0.16601132, -0.14767647, 0
422, 1618344154, 0.8959377, -0.054602683, 0.27457827, -0.34485018, -0.42731094, 0.12983906, -0.22410583, 0
425, 1618394155, 0.8958319, -0.054633405, 0.27383813, -0.3457078, -0.14283685, 0.68148935, 0.020422935, 0
426, 1618410822, 0.89576864, -0.054655977, 0.27376866, -0.34592304, -0.19903962, 0.62334144, -0.017683983, 0
427, 1618427489, 0.89569014, -0.05470548, 0.2738032, -0.34609115, -0.1133461, 0.51614743, 0.009943962, 0
429, 1618460823, 0.8955977, -0.054703884, 0.27421528, -0.34600443, -0.1959813, 0.5005138, 0.08983612, 0
431, 1618494157, 0.8954345, -0.054825712, 0.2747817, -0.345958, 0.09109472, 0.40880594, -0.17463303, 0
433, 1618527491, 0.89527005, -0.05514145, 0.2752903, -0.34592924, 0.041142926, 0.20508978, -0.13628674, 0
434, 1618544158, 0.8951648, -0.055370864, 0.2755653, -0.34594586, -0.100798756, 0.15129863, -0.09747791, 0
436, 1618577492, 0.8949842, -0.055949032, 0.27616337, -0.34584314, 0.21615468, 0.15834954, -0.16551495, 0
437, 1618594159, 0.89492714, -0.056258395, 0.27634752, -0.34579346, 0.4052956, 0.17396688, -0.062407494, 0
440, 1618644160, 0.8950859, -0.056627773, 0.276802, -0.34495777, -0.67061573, -0.048233677, 0.3160324, 0
441, 1618660827, 0.8950364, -0.05694671, 0.27687472, -0.34497535, 0.06998235, -0.059499484, -0.6258373, 0
442, 1618677494, 0.89508396, -0.0571368, 0.27678794, -0.34489033, 0.6493209, 0.3137819, -0.19149113, 0
444, 1618710828, 0.8951148, -0.057805292, 0.2763052, -0.34508604, -0.32364988, 0.21669582, -0.012992859, 0
445, 1618727495, 0.89496917, -0.05831532, 0.2761635, -0.34549093, 0.15135247, -0.115526974, -0.2681656, 0
448, 1618777496, 0.8952581, -0.059557207, 0.27589262, -0.34474623, -0.349315, -1.0271304, 0.50178814, 0
449, 1618794163, 0.8953022, -0.05946512, 0.27657533, -0.34409976, -0.30837882, -1.031376, 0.47354698, 0
450, 1618810830, 0.89547956, -0.059002884, 0.27716473, -0.34324294, 0.26162773, -1.0056633, -0.18811893, 0
452, 1618844164, 0.89600843, -0.05796849, 0.27751058, -0.34175605, 0.3474236, -1.1042129, -0.31114388, 0
454, 1618877498, 0.8961064, -0.057901412, 0.2771162, -0.34183052, 0.89286107, -0.54722476, 0.10200882, 0
456, 1618910832, 0.8960421, -0.05859875, 0.27718657, -0.3418233, 0.30323556, -0.80703956, -0.07826519, 0
457, 1618927499, 0.89584213, -0.05900248, 0.2777379, -0.34183028, 0.4908197, -0.78014684, 0.017587662, 0
458, 1618944166, 0.8956972, -0.05938098, 0.27816126, -0.34180027, 1.0205332, -0.6943138, 0.03342533, 0
460, 1618977500, 0.89556766, -0.06060453, 0.27810732, -0.34196886, 1.103024, -2.4383605, -0.58618164, 0
461, 1618994167, 0.8954004, -0.06126093, 0.2782536, -0.34217113, 0.79408365, -1.57986, -0.28302765, 0
464, 1619044168, 0.89484614, -0.06270427, 0.27877927, -0.34293064, 0.7450354, -1.4233042, -0.22798824, 0
465, 1619060835, 0.8947515, -0.06302731, 0.27883002, -0.34307706, 0.919026, -2.1559563, -0.5920677, 0
467, 1619094169, 0.8944357, -0.06325496, 0.27885714, -0.34383586, 1.0998688, -1.7829947, -0.017940521, 0
469, 1619127503, 0.89421546, -0.06354378, 0.27840558, -0.34472018, 1.0184122, -1.9094962, -0.10117817, 0
471, 1619160837, 0.89409935, -0.063181825, 0.27775943, -0.34560794, 1.1513644, -2.4864168, -0.4718399, 0
472, 1619177504, 0.8940101, -0.06318758, 0.27723673, -0.3462568, 1.4514211, -2.209639, -0.47180748, 0
473, 1619194171, 0.89394736, -0.06331378, 0.27671644, -0.34681156, 1.415258, -2.0956047, 0.035372734, 0
475, 1619227505, 0.893637, -0.06360072, 0.27580056, -0.3482855, 1.3538939, -2.5110874, -0.36814213, 0
476, 1619244172, 0.8934422, -0.063532755, 0.27545786, -0.34906816, 1.4390185, -2.4592488, -0.40899086, 0
477, 1619260839, 0.8933649, -0.06318233, 0.27495962, -0.34972167, 1.4212434, -2.3990176, -0.39764786, 0
479, 1619294173, 0.89325625, -0.06268538, 0.27394873, -0.3508799, 1.3720398, -2.658132, -0.11456871, 0
480, 1619310840, 0.8931463, -0.062511586, 0.27367964, -0.3514005, 1.5634171, -2.2609913, -0.08290291, 0
481, 1619327507, 0.89316064, -0.062110238, 0.2732686, -0.35175523, 1.9927316, -2.517045, -0.081235886, 0
484, 1619377508, 0.89307946, -0.05982419, 0.27410987, -0.35170257, 1.9881672, -2.9680345, -0.8567791, 0
486, 1619410842, 0.893195, -0.058194242, 0.27463296, -0.3512743, 2.2060542, -2.6757703, -0.20629692, 0
487, 1619427509, 0.8932523, -0.057700954, 0.27413043, -0.3516024, 2.112184, -3.2998722, 0.7150259, 0
488, 1619444176, 0.89327794, -0.056741193, 0.27442157, -0.3514666, 1.607492, -3.407534, 0.21200275, 0
490, 1619477510, 0.89327484, -0.054828852, 0.27657542, -0.35008663, 1.8699886, -3.0501397, -0.6679373, 0
491, 1619494177, 0.8932047, -0.05406353, 0.27778232, -0.34942853, 2.2089717, -3.331125, -0.28198338, 0
494, 1619544178, 0.89305454, -0.052175026, 0.27992803, -0.3483856, 2.3365524, -3.111693, 0.14090824, 0
495, 1619560845, 0.8926135, -0.05225021, 0.2803377, -0.34917405, 2.3982508, -3.8552458, -0.5989952, 0
496, 1619577512, 0.8921651, -0.052242726, 0.28050843, -0.35018256, 1.9501487, -3.1074355, 0.013424873, 0
499, 1619627513, 0.8919028, -0.0546813, 0.2779734, -0.3524924, 1.7938119, -2.0972586, -0.8723402, 0
500, 1619644180, 0.8915663, -0.05643469, 0.2771672, -0.3537004, 2.5300994, -1.9244716, -1.0621033, 0
502, 1619677514, 0.8912689, -0.058336575, 0.27655855, -0.35461622, 0.7025488, -0.709021, 0.08051205, 0
503, 1619694181, 0.89142793, -0.059722338, 0.27502936, -0.3551748, -0.27313864, -0.2909443, -0.07921982, 0
504, 1619710848, 0.89173627, -0.060925037, 0.27262917, -0.35604593, -0.25712818, 0.98373014, 0.09066582, 0
506, 1619744182, 0.89277774, -0.059839085, 0.26915044, -0.35626686, -1.8096344, 3.0447574, 2.2358332, 0
507, 1619760849, 0.8929713, -0.058956794, 0.26876554, -0.35621935, -2.6504765, 3.6272972, 0.8706579, 0
510, 1619810850, 0.8945592, -0.054557957, 0.26547822, -0.35540032, -2.5283644, 2.1595023, 0.013912201, 0
511, 1619827517, 0.89495814, -0.052758195, 0.2645653, -0.35534832, -3.1209114, 2.497316, 0.9331255, 0
514, 1619877518, 0.8955892, -0.04788389, 0.2622545, -0.35616097, -2.749181, 1.7065797, -0.22350407, 0
515, 1619894185, 0.89527655, -0.04665812, 0.26202276, -0.35727847, -1.9600646, 1.0377644, -0.66368866, 0
517, 1619927519, 0.8939465, -0.044907678, 0.26223072, -0.3606646, -0.93284965, 0.6654274, -0.32113075, 0
518, 1619944186, 0.8931109, -0.044284075, 0.26231652, -0.36274305, -1.405082, 0.63086295, 0.20528316, 0
519, 1619960853, 0.8920634, -0.043871693, 0.26258138, -0.36517102, -1.5316364, -0.03327943, -0.27538013, 0
521, 1619994187, 0.8897328, -0.04306815, 0.26272297, -0.37080723, -0.39646617, -0.5949706, -0.5584688, 0
522, 1620010854, 0.8884662, -0.042730328, 0.26293772, -0.37372005, -0.40721044, -0.34339565, -0.045308113, 0
523, 1620027521, 0.8870599, -0.04246761, 0.26320606, -0.3768878, 0.25599968, -1.5684304, -0.43615246, 0
526, 1620077522, 0.88300574, -0.04257913, 0.26514632, -0.38494954, 0.76292247, -1.7386972, -1.1183481, 0
529, 1620127523, 0.8788553, -0.044445626, 0.26710957, -0.39279914, 0.9297815, -1.9916985, -0.16603088, 0
530, 1620144190, 0.8775789, -0.04480617, 0.26773283, -0.39518037, 0.6742309, -1.891752, -0.714221, 0
531, 1620160857, 0.8762836, -0.045478933, 0.26822072, -0.3976394, 0.15588911, -1.792308, -0.25995636, 0
533, 1620194191, 0.87367225, -0.04793347, 0.26898906, -0.40254796, 1.2863237, -0.5590437, 0.5245476, 0
534, 1620210858, 0.8725508, -0.049229354, 0.26946932, -0.40449822, 1.1795697, -0.239043, -0.24631691, 0
535, 1620227525, 0.8714831, -0.05069647, 0.26968607, -0.4064692, 0.105154574, -0.23271686, 0.12891579, 0
537, 1620260859, 0.8695591, -0.052722156, 0.27032194, -0.4098949, 0.25322184, -0.3519045, -0.3224573, 0
538, 1620277526, 0.86913496, -0.05355716, 0.26983827, -0.41100383, -0.5900541, -0.051484674, 0.51438904, 0
539, 1620294193, 0.868834, -0.05442899, 0.26899722, -0.41207528, 0.22919577, -0.6156324, -0.10245991, 0
544, 1620377528, 0.86827224, -0.058259554, 0.26800695, -0.41337922, 0.49704129, -0.6183169, -0.2441454, 0
545, 1620394195, 0.8679906, -0.05946752, 0.26905838, -0.41311538, 0.46148083, -1.7330968, -0.69707584, 0
546, 1620410862, 0.8676586, -0.06116292, 0.26995695, -0.41297907, 1.6818883, -2.4306843, -0.6488142, 0
548, 1620444196, 0.8671975, -0.06530305, 0.27310362, -0.4112411, 1.3667774, -1.0220976, 0.29240417, 0
549, 1620460863, 0.8668663, -0.0677261, 0.27574882, -0.40977934, 1.9143804, -3.2205632, -0.2748909, 0
550, 1620477530, 0.8662452, -0.07077355, 0.27952874, -0.40801334, 1.5348308, -4.0552187, -0.21071911, 0
552, 1620510864, 0.8647225, -0.07643633, 0.28962094, -0.40315366, 2.6161504, -4.669883, -1.1746979, 0
553, 1620527531, 0.86433554, -0.07783714, 0.2929625, -0.4012971, 2.03364, -3.3179052, 0.40979385, 0
554, 1620544198, 0.86378616, -0.07959242, 0.2958313, -0.4000289, 2.5047672, -4.7750278, 0.31027985, 0
556, 1620577532, 0.86262155, -0.08254854, 0.3030257, -0.39654243, 1.4166152, -3.8333912, 0.5767479, 0
558, 1620610866, 0.86133236, -0.08218151, 0.30912212, -0.39471138, 4.013638, -4.9938817, -0.77311134, 0
560, 1620644200, 0.86243933, -0.08070357, 0.31372008, -0.38892883, 0.44113812, -3.5104246, 0.29633045, 0
561, 1620660867, 0.86125034, -0.08083379, 0.31625262, -0.38948512, 2.5078526, -3.6482427, -1.4650202, 0
562, 1620677534, 0.8609731, -0.08235748, 0.31578338, -0.39015946, 2.4499764, -1.9127456, -0.2843771, 0
564, 1620710868, 0.86194193, -0.09030393, 0.30712396, -0.3931629, 1.7807864, -0.24329787, -5.1188636, 0
565, 1620727535, 0.86261696, -0.09264218, 0.30307722, -0.39427698, -0.18069637, -0.6831885, -0.40809155, 0
567, 1620760869, 0.86584765, -0.092319176, 0.2960431, -0.3926121, -1.0898511, 3.63428, 1.2415447, 0
568, 1620777536, 0.8679, -0.09113238, 0.29264596, -0.3909008, 2.2249916, 2.8350995, 0.41969585, 0
569, 1620794203, 0.870222, -0.08878359, 0.29024243, -0.38806126, 0.3277634, 5.2345862, 0.48481655, 0
573, 1620860871, 0.8789669, -0.0773247, 0.2812795, -0.37725422, -1.7278112, 2.8477128, 0.64839077, 0
575, 1620894205, 0.8811252, -0.07493518, 0.2785514, -0.3747176, -1.2519473, 2.372504, 1.1772327, 0
576, 1620910872, 0.88151044, -0.07399794, 0.27838573, -0.37412018, -1.8762482, 2.0352628, -0.2035284, 0
577, 1620927539, 0.8815851, -0.07320044, 0.2787713, -0.37381393, -2.4850504, 1.4442537, -1.2125826, 0
579, 1620960873, 0.8812451, -0.071948886, 0.27948642, -0.37432426, -1.4436413, 1.7954195, 0.7361088, 0
580, 1620977540, 0.88095486, -0.0712959, 0.28020528, -0.37459496, -1.4021813, 1.7679456, 0.27593327, 0
581, 1620994207, 0.8805766, -0.07078511, 0.2807242, -0.37519237, -1.4291105, 1.1334409, -0.14026737, 0
583, 1621027541, 0.8793788, -0.06948221, 0.28236553, -0.37700894, -1.267577, 0.19864267, -1.1559706, 0
584, 1621044208, 0.87867707, -0.06914188, 0.28316697, -0.37810504, -0.64530003, -0.023794798, -0.03452015, 0
585, 1621060875, 0.878074, -0.069372766, 0.28365603, -0.37909597, -0.10254327, -0.40855402, 1.4004393, 0
589, 1621127543, 0.875682, -0.07341708, 0.28782356, -0.38072196, 1.9323466, 0.73587096, 0.93398666, 0
591, 1621160877, 0.8752041, -0.07578385, 0.28948396, -0.3800981, 1.3761303, -0.60978556, -1.3609457, 0
592, 1621177544, 0.8753059, -0.07666247, 0.28973433, -0.37949598, 0.9723148, 0.3731243, -0.81633854, 0
594, 1621210878, 0.876677, -0.07715809, 0.28818315, -0.37740612, 0.09241098, 0.11086447, 0.66959286, 0
595, 1621227545, 0.8774054, -0.078055285, 0.28718063, -0.37629145, 0.67597425, -0.3190738, 0.48761082, 0
596, 1621244212, 0.8781007, -0.07880953, 0.2863705, -0.37512776, 1.7291803, -0.28501728, -0.55629253, 0
598, 1621277546, 0.87989944, -0.07950983, 0.2849609, -0.3718241, 0.8141095, 0.35408083, 0.41843796, 0
599, 1621294213, 0.88103503, -0.079801895, 0.28344235, -0.37022993, 0.49676627, -0.30785748, 0.8092241, 0
600, 1621310880, 0.8820458, -0.08010532, 0.28234452, -0.3685929, 0.7964525, -0.6490977, 0.34300327, 0
603, 1621360881, 0.8849406, -0.0816594, 0.27821073, -0.36443284, -0.30830616, -0.9857291, 0.23440075, 0
606, 1621410882, 0.8866859, -0.082751915, 0.27549094, -0.3620026, -1.0641314, -0.2514557, -0.26987267, 0
607, 1621427549, 0.8870656, -0.083012074, 0.2745363, -0.36173785, -0.36149666, -1.5243975, -0.7103405, 0
608, 1621444216, 0.8874105, -0.08308701, 0.2734276, -0.36171433, -1.103219, -0.6377529, -0.23086166, 0
610, 1621477550, 0.8879913, -0.0830011, 0.2711453, -0.36202642, -0.3611634, -0.90846294, -0.47528172, 0
611, 1621494217, 0.88813186, -0.082850836, 0.27027434, -0.3623671, -0.5290842, -0.5085615, -0.33152294, 0
612, 1621510884, 0.8881586, -0.082511835, 0.26957148, -0.36290237, -0.1886541, -1.3220353, -0.17401886, 0
614, 1621544218, 0.8881205, -0.08127622, 0.2684528, -0.36410174, -0.28037465, -1.9276732, -0.71525955, 0
615, 1621560885, 0.88791317, -0.08099117, 0.26832235, -0.36476675, -0.03404706, -2.0702636, -1.0105677, 0
618, 1621610886, 0.88655436, -0.082537144, 0.26790935, -0.36801425, 0.8113829, -1.828515, 1.4318094, 0
619, 1621627553, 0.885674, -0.084256336, 0.26906237, -0.3689021, 1.166837, -2.7530646, -0.94123363, 0
622, 1621677554, 0.8812715, -0.09430633, 0.27541512, -0.37230906, 0.9278443, -2.1304872, -0.105335236, 0
623, 1621694221, 0.88013285, -0.096638, 0.27714053, -0.3731235, 0.91229784, -2.308061, -0.197855, 0
625, 1621727555, 0.87845904, -0.09944587, 0.2791551, -0.37482464, 1.2534555, -1.5305595, -0.46830845, 0
626, 1621744222, 0.8780492, -0.09952535, 0.28001654, -0.37512073, 1.4431072, -0.8454125, -0.6156225, 0
627, 1621760889, 0.8779718, -0.09953245, 0.27993745, -0.37535948, 1.7413473, -1.0785984, 1.1492796, 0
629, 1621794223, 0.8785241, -0.09712951, 0.28013858, -0.37454557, 0.9920126, -0.99784005, -1.6374073, 0
630, 1621810890, 0.8790715, -0.09527845, 0.2799539, -0.3738742, 2.4531856, -0.2897714, 0.33930779, 0
633, 1621860891, 0.88052046, -0.08945096, 0.28452322, -0.36841452, 3.0448704, -1.8640375, -0.5697737, 0
634, 1621877558, 0.8810237, -0.087451145, 0.2867662, -0.36594418, 3.3401177, -3.7010117, -2.0974784, 0
635, 1621894225, 0.8815209, -0.084674, 0.2891143, -0.36354446, 3.077764, -3.9759169, -2.6155448, 0
637, 1621927559, 0.8814732, -0.0858718, 0.29154494, -0.36143208, 4.1350503, -3.2936451, 2.4762745, 0
638, 1621944226, 0.88091606, -0.0901162, 0.29244757, -0.36102787, 3.4896898, -2.821884, -0.27160168, 0
639, 1621960893, 0.88001585, -0.09412143, 0.29428586, -0.3607074, 1.4526864, -2.4645128, -4.100373, 0
641, 1621994227, 0.8787388, -0.0978438, 0.2982405, -0.35957992, 1.2985885, -1.3820188, 0.041732788, 0
642, 1622010894, 0.8782505, -0.10054969, 0.29755428, -0.36059362, -0.6780158, -4.158384, 1.2370815, 0
643, 1622027561, 0.8777812, -0.10236757, 0.29817206, -0.36071467, -1.6061252, -1.8919687, -0.8923178, 0
645, 1622060895, 0.8779197, -0.1061268, 0.29505917, -0.3618495, -0.29819825, 2.1773288, -1.1605053, 0
648, 1622110896, 0.8788868, -0.10694813, 0.29279116, -0.36110133, -3.4023268, 7.4216747, 1.0077391, 0
649, 1622127563, 0.88039666, -0.10489781, 0.29050654, -0.35986784, -2.718011, 4.094818, -0.5485487, 0
652, 1622177564, 0.88513786, -0.09821207, 0.28235385, -0.35659808, -0.4463272, 5.3370476, 0.105249405, 0
653, 1622194231, 0.8862537, -0.09561796, 0.28054637, -0.35595754, -0.6999827, 3.9799092, 0.46327686, 0
654, 1622210898, 0.8873701, -0.092964984, 0.27881926, -0.3552356, -1.3080219, 1.7424707, 1.5835686, 0
656, 1622244232, 0.8882959, -0.089087956, 0.27842608, -0.35422236, -2.6898904, 2.0777159, 0.9786186, 0
657, 1622260899, 0.88859576, -0.08751987, 0.27831203, -0.35395086, -0.6122717, 0.18107204, -1.3108225, 0
658, 1622277566, 0.88876635, -0.08559467, 0.27884337, -0.35357478, -1.0886337, 0.9799033, -3.8306713, 0
660, 1622310900, 0.8889246, -0.08304721, 0.27732423, -0.35497645, -0.18911968, -1.5775466, 0.9532871, 0
662, 1622344234, 0.8886382, -0.08093086, 0.27715424, -0.35631216, -1.6913177, 1.1630473, -0.07151508, 0
664, 1622377568, 0.88768506, -0.08077502, 0.2766694, -0.35908988, 0.66229403, -1.7375734, -0.9784603, 0
665, 1622394235, 0.8867777, -0.08143648, 0.27782091, -0.36029112, -1.5216889, 1.3827897, -0.3565302, 0
668, 1622444236, 0.8843417, -0.08330302, 0.28056145, -0.363712, -0.60320467, 1.2009436, 0.33051014, 0
669, 1622460903, 0.88411516, -0.08260788, 0.28022784, -0.36467752, 0.8378962, -1.4258568, 0.2820511, 0
670, 1622477570, 0.8840109, -0.081861205, 0.27982146, -0.36540934, 0.14341083, -0.30232182, 0.07772732, 0
672, 1622510904, 0.8840341, -0.080932334, 0.27880377, -0.36633724, -0.33566663, 0.8340743, -0.21266556, 0
673, 1622527571, 0.8840606, -0.0808541, 0.27809027, -0.3668326, -0.09584951, 1.13109, 0.22909355, 0
675, 1622560905, 0.88392097, -0.08109457, 0.2776709, -0.36743313, -0.40461835, 1.338181, 0.81129074, 0
677, 1622594239, 0.8836122, -0.081331834, 0.2782417, -0.36769104, 0.14555968, -0.09242249, -0.75253105, 0
679, 1622627573, 0.8832704, -0.082008384, 0.27848482, -0.36817807, 0.3267878, -0.86216366, 0.030008316, 0
680, 1622644240, 0.88323826, -0.08259288, 0.2782204, -0.3683246, 0.6295743, -1.5668942, -0.1765604, 0
681, 1622660907, 0.8833197, -0.08274607, 0.27782726, -0.3683916, 0.84325427, -1.2468183, -1.8263311, 0
684, 1622710908, 0.8838367, -0.08189206, 0.27633482, -0.36846477, 0.09227107, -1.1254742, 0.71324825, 0
685, 1622727575, 0.88418484, -0.081679635, 0.2754334, -0.3683513, 0.9214561, -1.9676989, -0.037755966, 0
687, 1622760909, 0.8843715, -0.08172665, 0.27529985, -0.36799234, 1.6774864, -2.4783566, -1.3008938, 0
688, 1622777576, 0.8844615, -0.08196124, 0.27473065, -0.36814934, 1.3249432, -2.2845435, -1.2778988, 0
689, 1622794243, 0.8844354, -0.08249426, 0.27397102, -0.36865902, 1.272176, -3.771625, -1.541256, 0
692, 1622844244, 0.88452053, -0.083822794, 0.27022508, -0.37091288, -0.1610431, -0.6817897, 2.3200226, 0
693, 1622860911, 0.88453805, -0.08390769, 0.26963502, -0.3712812, 0.8834882, -1.78802, -0.64515686, 0
695, 1622894245, 0.88442767, -0.08308122, 0.26942298, -0.37188348, -0.1429942, -0.4895122, 0.628335, 0
696, 1622910912, 0.88437575, -0.083217785, 0.26850036, -0.37264293, 0.889865, -2.6894214, -0.57343006, 0
697, 1622927579, 0.88421345, -0.08365918, 0.26847628, -0.37294608, -0.12507069, -0.94740504, 0.03828144, 0
700, 1622977580, 0.88402945, -0.0841131, 0.26908585, -0.37284115, 0.89927083, -1.528013, 1.0493517, 0
701, 1622994247, 0.8839699, -0.08448612, 0.27014202, -0.37213352, 1.988274, -3.4827504, -1.9888258, 0
703, 1623027581, 0.88302356, -0.08921214, 0.27347592, -0.37083977, 1.0206051, -1.3834347, 1.1005011, 0
704, 1623044248, 0.88217485, -0.09223686, 0.2750729, -0.37093905, 2.162786, -3.6264646, 0.72283936, 0
707, 1623094249, 0.8816421, -0.091768496, 0.28355697, -0.36589876, 1.8572223, -3.6602194, -0.9155712, 0
708, 1623110916, 0.8815588, -0.09045528, 0.28553137, -0.36489004, 2.0786777, -4.0341077, 0.07147312, 0
710, 1623144250, 0.8809117, -0.08781005, 0.29022637, -0.36339137, 2.944116, -3.515302, 1.9488449, 0
711, 1623160917, 0.8803045, -0.08798198, 0.29278702, -0.36276639, 3.1092527, -4.59746, -1.7919378, 0
712, 1623177584, 0.88036686, -0.0871588, 0.29454827, -0.36138558, 2.7985559, -3.7223105, -3.5035453, 0
714, 1623210918, 0.8813556, -0.087292254, 0.2911047, -0.3617338, 2.7386274, -3.4043415, -2.6619954, 0
715, 1623227585, 0.8818743, -0.08789739, 0.28836513, -0.36251596, 2.4562728, -3.4778123, -1.5252628, 0
716, 1623244252, 0.88240534, -0.08821081, 0.28623065, -0.3628393, 0.4864165, -0.5568843, 0.59691715, 0
718, 1623277586, 0.884316, -0.08812366, 0.27946383, -0.36348334, -0.6066913, 2.500752, -1.0699978, 0
719, 1623294253, 0.88570595, -0.086481914, 0.27540445, -0.36359197, -2.9658186, 5.114881, -0.23383522, 0
722, 1623344254, 0.8898157, -0.07748089, 0.26564625, -0.36284655, -5.53271, 7.211268, -1.2488375, 0
723, 1623360921, 0.8904566, -0.074973255, 0.26352814, -0.36334464, -4.2680464, 6.4503565, -0.32974625, 0
724, 1623377588, 0.89095956, -0.07236818, 0.26163512, -0.36400798, -3.0496337, 4.785293, -0.2460823, 0
726, 1623410922, 0.8907642, -0.06717438, 0.26082247, -0.36605856, -4.2411146, 3.9609232, 0.6919584, 0
727, 1623427589, 0.8901116, -0.06463084, 0.26162258, -0.36753035, -4.0856085, 3.7552927, -1.7978048, 0
730, 1623477590, 0.8880231, -0.056430336, 0.26231557, -0.37339228, -3.877082, 1.1325083, 2.1546268, 0
731, 1623494257, 0.88678414, -0.05433212, 0.26282892, -0.37627605, -3.629109, 0.37603185, 1.3748379, 0
733, 1623527591, 0.8837595, -0.04993649, 0.26415884, -0.38300985, -1.7935047, 0.26191217, -2.0001512, 0
734, 1623544258, 0.88204783, -0.04769267, 0.2648517, -0.38674453, -2.5098693, 0.38150752, -1.7531261, 0
737, 1623594259, 0.87473375, -0.045642007, 0.26907974, -0.40044284, -1.3832054, -0.72496516, -0.29678726, 0
738, 1623610926, 0.87218875, -0.045434043, 0.2709596, -0.40472722, -1.833312, 0.08348245, 1.279851, 0
739, 1623627593, 0.86964697, -0.045499653, 0.2732644, -0.4086214, -0.7908606, -1.1583605, -0.5576248, 0
741, 1623660927, 0.86593217, -0.045448713, 0.27568206, -0.4148447, 1.7289225, -3.0906723, -0.9229307, 0
742, 1623677594, 0.8648065, -0.045052234, 0.2767655, -0.41651103, 0.10599297, -0.4560714, -0.68223476, 0
743, 1623694261, 0.86375636, -0.045833543, 0.27772665, -0.41796285, 1.0082564, 0.32123122, 0.2971077, 0
746, 1623744262, 0.8611863, -0.051565412, 0.2819141, -0.41979092, 1.2601149, -1.8913901, -1.0187712, 0
747, 1623760929, 0.86023563, -0.053665265, 0.2833207, -0.42052954, 0.14385651, -1.0974375, -0.7677736, 0
749, 1623794263, 0.8585074, -0.058086053, 0.28538033, -0.42207798, -0.33475915, 0.05468345, 1.6780033, 0
751, 1623827597, 0.85702693, -0.06163999, 0.2873758, -0.42322725, 0.846461, 0.5367258, 0.32387257, 0
753, 1623860931, 0.85531664, -0.06429866, 0.2901694, -0.42438394, -0.7880032, 0.8676913, -0.2295103, 0
754, 1623877598, 0.854769, -0.06589251, 0.29047376, -0.42503396, -0.28596807, -1.2682825, 0.63044834, 0
756, 1623910932, 0.853413, -0.06879008, 0.29261968, -0.42582738, -0.28200227, 1.5964155, 0.32697105, 0
757, 1623927599, 0.85283715, -0.070238285, 0.2929304, -0.42653012, 0.7170592, 0.06637659, 0.040896416, 0
758, 1623944266, 0.85214865, -0.0715241, 0.29398185, -0.42696893, -0.31095457, 0.03808004, -0.12781143, 0
760, 1623977600, 0.8503833, -0.0743216, 0.29625472, -0.4284372, -0.08495772, -0.62277406, -0.6442585, 0
762, 1624010934, 0.84879535, -0.0767769, 0.298176, -0.42981818, -0.3714117, -0.846375, -1.2122822, 0
764, 1624044268, 0.8475698, -0.079465576, 0.29892918, -0.4312223, 0.5574898, -1.375779, 0.34337044, 0
766, 1624077602, 0.84637046, -0.08323846, 0.30118778, -0.43129498, 2.4357865, 0.26900327, 0.032403946, 0
768, 1624110936, 0.84581923, -0.08615973, 0.30429474, -0.42961836, 1.3232942, -0.049860097, 0.7447071, 0
769, 1624127603, 0.8464146, -0.08737642, 0.3040684, -0.4283585, 1.0494608, -2.4973977, -0.94424725, 0
770, 1624144270, 0.8470787, -0.08895586, 0.3039923, -0.42677143, 1.8267334, -1.5371451, -0.4864807, 0
772, 1624177604, 0.8493635, -0.09278881, 0.3018962, -0.42288414, 3.419446, -0.026050715, 0.32467747, 0
773, 1624194271, 0.8503686, -0.09503582, 0.3017759, -0.42044422, 2.300001, 1.9299912, 2.3501225, 0
774, 1624210938, 0.85149854, -0.09685312, 0.30193195, -0.41762137, 2.3146877, 0.4085998, 0.86516666, 0
776, 1624244272, 0.8545305, -0.09941745, 0.30149162, -0.411093, 2.041086, -2.7178137, -2.2153258, 0
778, 1624277606, 0.85755956, -0.102589935, 0.2998094, -0.4051939, 2.7884455, -2.0697129, -0.09643173, 0
781, 1624327607, 0.859768, -0.111272894, 0.30228645, -0.3962844, 3.260198, -4.952049, -2.3010988, 0
782, 1624344274, 0.86063373, -0.11239403, 0.30464923, -0.39225835, 2.126154, -1.332388, -1.5033932, 0
784, 1624377608, 0.8619999, -0.11363074, 0.30881336, -0.38558936, 3.1376612, -2.3322773, -2.8087673, 0
785, 1624394275, 0.86219573, -0.11326508, 0.31204912, -0.38264313, 1.8827618, -1.5989197, 1.1997204, 0
787, 1624427609, 0.8615933, -0.11544857, 0.31661966, -0.3795806, 1.6227137, -5.733765, -3.0155435, 0
788, 1624444276, 0.8619532, -0.114794046, 0.31918046, -0.37680745, 0.7929738, -0.6557985, -3.9537306, 0
789, 1624460943, 0.8624773, -0.11701465, 0.31795353, -0.37596142, 1.6789191, 0.061162643, -0.6627331, 0
791, 1624494277, 0.8628306, -0.12279205, 0.31263238, -0.37776604, 0.78877467, 1.1382763, -0.77715874, 0
792, 1624510944, 0.8630225, -0.12492737, 0.31033114, -0.3785244, 1.8629028, -0.29246733, -1.5909777, 0
793, 1624527611, 0.86380607, -0.12511738, 0.3091701, -0.3776234, 0.033772584, 4.1441703, 3.7827644, 0
796, 1624577612, 0.867842, -0.12160658, 0.3053651, -0.3725789, -2.2302132, 7.260596, 0.7453337, 0
797, 1624594279, 0.8695952, -0.12029599, 0.30301198, -0.37083393, 0.24191657, 5.0799, 0.009293556, 0
799, 1624627613, 0.8720841, -0.11875967, 0.2999735, -0.36794317, -1.7843887, 7.1681695, -0.7025614, 0
800, 1624644280, 0.8725465, -0.11883145, 0.3000024, -0.36679828, -2.5494115, 5.5133324, 1.3615427, 0
801, 1624660947, 0.87272006, -0.11917873, 0.30104104, -0.36541918, -2.7029696, 4.8500648, 1.4048986, 0
803, 1624694281, 0.8738887, -0.11740374, 0.3021219, -0.36229554, -1.2477283, 1.9353303, -2.9213943, 0
804, 1624710948, 0.87537354, -0.11461623, 0.3010664, -0.3604775, -0.22545327, 1.3864682, -2.1795783, 0
805, 1624727615, 0.87744886, -0.111802876, 0.29847014, -0.3584688, -0.2069853, 1.5664116, 1.6165991, 0
808, 1624777616, 0.8829605, -0.10427307, 0.291578, -0.35283282, -0.22628474, 0.6334729, -1.3787594, 0
811, 1624827617, 0.8870818, -0.099286295, 0.28491187, -0.34936205, -1.03437, 2.1649902, -0.68655396, 0
812, 1624844284, 0.88793904, -0.09863111, 0.28312236, -0.34882438, -0.06012409, 0.5582795, 1.1036415, 0
814, 1624877618, 0.88896984, -0.09733321, 0.28221047, -0.3472998, -0.37575725, 0.4323401, -0.9287815, 0
815, 1624894285, 0.8894656, -0.09584198, 0.2825457, -0.34617034, -0.92509556, 1.5336422, -0.22034073, 0
816, 1624910952, 0.89025766, -0.094238356, 0.28136024, -0.3455397, -0.26861832, -0.69290113, 0.9136772, 0
818, 1624944286, 0.89124876, -0.09147511, 0.28014517, -0.34471342, -0.3002112, 0.301201, 0.19441414, 0
819, 1624960953, 0.89160466, -0.09118364, 0.2792127, -0.3446266, 0.34359506, -0.5081291, -1.180521, 0
820, 1624977620, 0.8916619, -0.09118209, 0.27883127, -0.3447883, -0.21052305, 0.60985935, 0.552969, 0
822, 1625010954, 0.8910521, -0.09184108, 0.27874097, -0.34625953, -0.36567146, -1.5428418, -1.1123953, 0
826, 1625077622, 0.88974386, -0.0922047, 0.2793434, -0.34903038, -0.18021493, -1.5091075, 0.59552956, 0
827, 1625094289, 0.88961893, -0.09199429, 0.2792287, -0.34949616, 0.39258868, -0.7352493, 0.27582645, 0
828, 1625110956, 0.88970935, -0.09181307, 0.27836096, -0.35000485, 0.90107405, -0.7712459, 0.9610281, 0
830, 1625144290, 0.8893089, -0.09094255, 0.27916026, -0.35061276, 0.17498428, -0.041277926, -0.7816706, 0
831, 1625160957, 0.88929033, -0.0903652, 0.27904496, -0.35090098, 0.8113291, -1.1705118, -0.8345051, 0
832, 1625177624, 0.88925266, -0.08981052, 0.27892828, -0.3512313, -0.16161886, -1.7442652, -0.43472576, 0
834, 1625210958, 0.8891053, -0.08964813, 0.27734098, -0.35289872, 1.436674, -1.7454112, -0.65926456, 0
835, 1625227625, 0.88897663, -0.08968033, 0.2767831, -0.3536521, 0.52749103, -0.34725776, 0.7158785, 0
837, 1625260959, 0.88865906, -0.090173155, 0.27606598, -0.35488296, 0.510496, -0.4589402, -1.0784454, 0
838, 1625277626, 0.88825136, -0.090752475, 0.27649778, -0.35542005, -0.75002253, -1.1314979, 0.45656776, 0
842, 1625344294, 0.8874099, -0.09148249, 0.27629736, -0.35748467, -0.53072435, 0.41894162, 1.287015, 0
843, 1625360961, 0.88754994, -0.09106515, 0.27594364, -0.3575164, -0.32892323, 0.94044375, -0.30757713, 0
845, 1625394295, 0.8879364, -0.090450846, 0.2745008, -0.35782367, 0.78834593, -1.1074162, 0.36866474, 0
846, 1625410962, 0.88791955, -0.090487644, 0.27436528, -0.35795996, 0.9351302, -1.5929275, -1.3064852, 0
847, 1625427629, 0.88786525, -0.090593964, 0.27416718, -0.3582198, 0.59311646, -1.3556387, -2.362895, 0
849, 1625460963, 0.88768464, -0.09132212, 0.2728175, -0.35951048, -1.4498516, 0.18168457, 1.6918697, 0
850, 1625477630, 0.88727534, -0.09226211, 0.27302146, -0.36012518, -0.5536729, -0.2572595, 0.6606407, 0
851, 1625494297, 0.8866365, -0.09382023, 0.27402517, -0.36053345, -0.18801083, -0.9686256, 0.93665504, 0
853, 1625527631, 0.88472146, -0.09712079, 0.27695352, -0.36212307, 0.5165866, -2.453504, -3.0957189, 0
855, 1625560965, 0.88331157, -0.10112483, 0.27690497, -0.36449787, 0.45780236, -0.9565931, 2.7597265, 0
858, 1625610966, 0.8812, -0.10159121, 0.2855247, -0.36282524, 2.2349763, -3.8653302, -2.729682, 0
859, 1625627633, 0.8810839, -0.09941804, 0.28906733, -0.36089894, 1.8664587, -4.1694646, -3.1792202, 0
861, 1625660967, 0.88091236, -0.096636966, 0.29152924, -0.36009198, 3.3886201, -4.606931, 1.092802, 0
862, 1625677634, 0.8804606, -0.09522514, 0.2943545, -0.3592734, 2.4225886, -3.1030226, -0.40772533, 0
863, 1625694301, 0.8795467, -0.09473456, 0.29835653, -0.35833952, 1.9066716, -3.0842028, -2.3902078, 0
865, 1625727635, 0.8779143, -0.09760806, 0.30000776, -0.36018774, 0.22014742, -3.5181167, -3.6692681, 0
866, 1625744302, 0.87706643, -0.101205096, 0.2980949, -0.36283892, 1.6354034, -1.7487365, 1.5526915, 0
868, 1625777636, 0.8756673, -0.10593824, 0.2957347, -0.3667775, -1.2079387, 3.970046, 0.6884136, 0
870, 1625810970, 0.8761893, -0.10557583, 0.2921271, -0.3685224, -1.6943009, 1.0020663, -0.3618536, 0
872, 1625844304, 0.87780774, -0.10306654, 0.28808406, -0.3685634, -1.7428018, 4.639407, 1.093215, 0
873, 1625860971, 0.8789193, -0.10126337, 0.28546587, -0.36845157, -2.6497552, 6.4895415, 3.069378, 0
874, 1625877638, 0.8795848, -0.09953139, 0.2842935, -0.3682419, -3.2044983, 6.29372, 2.0103846, 0
876, 1625910972, 0.8799275, -0.097237855, 0.2840992, -0.36818582, -2.6834807, 3.8163621, -1.012598, 0
877, 1625927639, 0.87974167, -0.096850835, 0.28406787, -0.36875564, -1.2987473, 1.5737752, -1.8010473, 0
878, 1625944306, 0.8790454, -0.096320696, 0.28563237, -0.36934572, -2.9419694, 3.1723318, -2.2495308, 0
880, 1625977640, 0.8778989, -0.09436109, 0.2875671, -0.37107298, -2.6348398, 2.357058, 1.7172499, 0
881, 1625994307, 0.8776387, -0.09309081, 0.28792438, -0.37173185, -1.2750965, 0.90561527, 0.29573917, 0
882, 1626010974, 0.8772432, -0.09159429, 0.28870332, -0.3724321, -0.5899086, -0.33717862, -1.914751, 0
885, 1626060975, 0.87604815, -0.08995558, 0.28792933, -0.37622505, -1.8847404, 1.9558887, 1.7157326, 0
888, 1626110976, 0.87371427, -0.09251429, 0.2903806, -0.37913656, 0.12594932, 0.43601754, -0.789773, 0
889, 1626127643, 0.87291694, -0.09355106, 0.29157406, -0.37980196, 1.311093, -1.7832861, -2.5711164, 0
890, 1626144310, 0.872278, -0.09451826, 0.29232296, -0.38045442, -0.6585215, 2.4765472, 0.28277683, 0
892, 1626177644, 0.8724248, -0.0949796, 0.2910253, -0.38099736, -0.2900664, 1.2493619, 0.29562283, 0
893, 1626194311, 0.8729625, -0.09357987, 0.2908505, -0.38024473, 0.9148289, 1.6360197, -2.5561671, 0
895, 1626227645, 0.875197, -0.09018999, 0.28772533, -0.3782999, 0.4239949, -2.3611414, 0.17371082, 0
896, 1626244312, 0.8759196, -0.08921932, 0.2869432, -0.37745064, -0.34905347, -0.049335178, 0.93020535, 0
897, 1626260979, 0.87661874, -0.08866726, 0.28592017, -0.37673333, 1.7414527, 0.24013165, 0.55776405, 0
900, 1626310980, 0.87754935, -0.088308804, 0.28571936, -0.37479854, 0.5763856, -1.9302648, -0.75550175, 0
901, 1626327647, 0.87732613, -0.08870146, 0.28613102, -0.37491423, -0.1714322, -0.7395604, -0.8751421, 0
904, 1626377648, 0.876307, -0.090850644, 0.28724003, -0.37593395, 0.34323052, -1.4957771, -0.42381477, 0
905, 1626394315, 0.87616277, -0.0908662, 0.28752568, -0.3760476, -0.49059752, -0.934752, -0.5467663, 0
907, 1626427649, 0.8757702, -0.0909567, 0.28786498, -0.37668034, 0.61644965, -0.8895097, 0.05273342, 0
908, 1626444316, 0.8756871, -0.090770766, 0.28805128, -0.37677592, 0.49727252, -0.64936537, -0.38203716, 0
909, 1626460983, 0.8756112, -0.0907136, 0.28812054, -0.37691304, 0.65196335, -1.4708816, -0.89597607, 0
911, 1626494317, 0.8750844, -0.091595665, 0.28841022, -0.37770098, 0.9773535, -1.400109, -0.79189587, 0
912, 1626510984, 0.87465453, -0.09239029, 0.2891487, -0.37793827, 0.46991298, 0.17129005, 0.5854063, 0
915, 1626560985, 0.8730249, -0.09583881, 0.2927142, -0.3781023, 0.41570997, 0.13907513, 1.106266, 0
916, 1626577652, 0.8729187, -0.09595892, 0.29405877, -0.37727252, 0.4214567, -1.0820696, -2.322075, 0
918, 1626610986, 0.87370193, -0.095877245, 0.2924264, -0.37674943, 1.3057454, -1.7943496, -0.92647743, 0
920, 1626644320, 0.87488395, -0.09535302, 0.29070842, -0.3754667, 1.2875493, -0.37838843, -0.81007004, 0
922, 1626677654, 0.8762944, -0.095146924, 0.28829613, -0.3740875, 1.1739656, -1.4926103, -0.5852499, 0
923, 1626694321, 0.87665975, -0.09547853, 0.2877387, -0.3735754, 1.1559, -0.77898556, -0.5901146, 0
924, 1626710988, 0.877112, -0.095664866, 0.28736287, -0.37275463, 1.2101549, -0.92005444, -1.3033199, 0
926, 1626744322, 0.87759936, -0.09673492, 0.28649592, -0.37199792, -0.20777653, -0.9239853, 0.5900545, 0
927, 1626760989, 0.87749416, -0.09763381, 0.28689766, -0.37170184, 0.8747584, -2.0708566, 0.5064707, 0
930, 1626810990, 0.8777435, -0.09844106, 0.28807718, -0.36998394, 2.1314642, -3.3785846, -2.7828789, 0
931, 1626827657, 0.8781558, -0.09757726, 0.28818774, -0.36914727, -0.04759798, 0.50381374, 0.3054409, 0
932, 1626844324, 0.87894785, -0.096790306, 0.28641433, -0.36884934, 1.4786463, -2.2770565, 1.3849211, 0
934, 1626877658, 0.8800254, -0.09463277, 0.2866261, -0.36666915, 2.5269964, -2.6118436, 0.21412182, 0
936, 1626910992, 0.8801138, -0.09414728, 0.29033574, -0.36365083, 2.674434, -3.294913, -2.1123285, 0
938, 1626944326, 0.87956285, -0.09542116, 0.29224885, -0.36311886, 2.118644, -2.5471148, 0.45267487, 0
939, 1626960993, 0.87886757, -0.096273236, 0.2944413, -0.36280587, 1.6351788, -3.694667, -0.4159069, 0
940, 1626977660, 0.87798876, -0.0977329, 0.29615724, -0.36314678, 1.8348432, -2.5424612, -1.3919296, 0
942, 1627010994, 0.875177, -0.102896325, 0.30044016, -0.36498517, 0.32857454, -0.6888463, 1.7362261, 0
944, 1627044328, 0.87281436, -0.10854704, 0.3010818, -0.3684605, 0.31067765, 2.886728, -0.25365448, 0
946, 1627077662, 0.8732952, -0.107871644, 0.29843587, -0.3696702, -2.5775008, 3.2125626, -0.0029640198, 0
947, 1627094329, 0.87509364, -0.10480711, 0.2942197, -0.36967844, -1.2462962, 1.3556311, 3.2951412, 0
949, 1627127663, 0.87904423, -0.09956857, 0.28639957, -0.36789083, -2.2822187, 6.0122986, -0.08368015, 0
950, 1627144330, 0.88063616, -0.09613157, 0.28395572, -0.36689052, -5.227537, 11.015488, -3.352621, 0
951, 1627160997, 0.8819334, -0.09315239, 0.28079095, -0.36697882, -4.421017, 6.6703386, 0.6696539, 0
953, 1627194331, 0.8825696, -0.089758664, 0.27842057, -0.3680994, -2.7151947, 3.9909146, -0.5538664, 0
954, 1627210998, 0.88187075, -0.08922373, 0.27943745, -0.36913213, -2.937442, 5.508304, -2.7531042, 0
955, 1627227665, 0.88085693, -0.08858998, 0.28087378, -0.37061217, -3.42044, 2.2831674, -3.4777994, 0
957, 1627260999, 0.8794178, -0.085790664, 0.28215322, -0.37370384, -2.7487662, 0.568569, 1.7891979, 0
959, 1627294333, 0.8783947, -0.08201664, 0.2826211, -0.37659246, -0.37715307, 0.054461222, -3.1999006, 0
961, 1627327667, 0.87769, -0.078974545, 0.28079477, -0.38023475, 0.07545239, -1.5679787, 0.66952324, 0
962, 1627344334, 0.87713265, -0.07745194, 0.28150532, -0.3813071, -2.8146677, 2.880301, 2.7737722, 0
963, 1627361001, 0.8766536, -0.07713644, 0.28106064, -0.38279763, 0.18876831, -0.53814346, 3.1501846, 0
966, 1627411002, 0.8741019, -0.07767576, 0.28325364, -0.3868856, 0.3344496, -1.6739103, -2.3407836, 0
967, 1627427669, 0.873641, -0.077971056, 0.28232563, -0.38854218, -1.670782, 0.90443915, 3.6517096, 0
969, 1627461003, 0.8728424, -0.078321874, 0.283329, -0.38953486, -0.7920908, 3.4331522, 1.9037085, 0
970, 1627477670, 0.8725809, -0.07879263, 0.2838228, -0.38966614, 1.4407403, -2.365473, -2.6709962, 0
971, 1627494337, 0.8721649, -0.07926797, 0.28410345, -0.39029628, 0.6368103, -1.3935124, -1.7641964, 0
974, 1627544338, 0.87204605, -0.0797107, 0.28254205, -0.39160287, -1.276489, -0.4299741, 0.14588451, 0
976, 1627577672, 0.8719251, -0.07913195, 0.28132004, -0.3928671, -0.1597959, -0.1113085, -1.0873222, 0
977, 1627594339, 0.8714867, -0.07917191, 0.2811278, -0.3939678, -0.24047402, -0.39149234, 0.077794075, 0
978, 1627611006, 0.8710356, -0.079234466, 0.28089687, -0.3951163, -0.4498082, -0.37443087, -0.21990395, 0
980, 1627644340, 0.86900944, -0.08044942, 0.283255, -0.3976401, -0.71296364, -0.44545823, -0.14124298, 0
982, 1627677674, 0.8669207, -0.08117531, 0.28690565, -0.399431, -0.33936933, -1.0128449, -1.2756119, 0
984, 1627711008, 0.86556554, -0.08142223, 0.28925085, -0.40062636, -0.60216, -1.0615875, -0.21552944, 0
985, 1627727675, 0.86498034, -0.08209789, 0.28931472, -0.401705, 1.2732462, -1.181573, 1.5928001, 0
986, 1627744342, 0.86463326, -0.0831483, 0.28874466, -0.40264505, 1.9522107, -2.5957837, 1.6819153, 0
989, 1627794343, 0.8620255, -0.08622704, 0.29392743, -0.40383732, 1.096183, 0.6379054, -2.0709672, 0
990, 1627811010, 0.86109614, -0.086933546, 0.2964806, -0.40380237, -0.26756132, 0.57588196, -0.31003857, 0
992, 1627844344, 0.8603246, -0.08969818, 0.29695973, -0.40448907, 1.2800304, -3.5674682, -0.40028095, 0
993, 1627861011, 0.86002505, -0.091165505, 0.29766947, -0.40427637, 2.1478894, 0.7261568, -0.72491837, 0
994, 1627877678, 0.85985464, -0.0926875, 0.29871154, -0.40352336, 1.1111166, 2.919204, 1.6045561, 0
996, 1627911012, 0.85898894, -0.09771414, 0.3016843, -0.4019665, 1.3179958, -0.18678531, -0.005167961, 0
999, 1627961013, 0.85997885, -0.10187854, 0.30306762, -0.3977537, -0.46134058, 0.58788466, 0.70991325, 0
1000, 1627977680, 0.86065596, -0.10293913, 0.30249852, -0.39644724, -0.13267885, 0.35390583, 1.7340746, 0
1001, 1627994347, 0.8615406, -0.1035261, 0.30223125, -0.39457208, 1.4855552, 2.260483, 0.5058136, 0
1004, 1628044348, 0.86437166, -0.10552277, 0.3016399, -0.3882533, 1.8916181, -0.68690455, -1.3496428, 0
1005, 1628061015, 0.8658422, -0.10527429, 0.2997799, -0.38648066, 1.036637, -0.82645273, 0.36187553, 0
1007, 1628094349, 0.8692331, -0.10452392, 0.29525626, -0.3825353, 1.176821, -1.0959139, 0.73542213, 0
1008, 1628111016, 0.8705403, -0.103790015, 0.29438338, -0.38042957, 1.4287703, -1.2419757, 0.8576126, 0
1009, 1628127683, 0.8718092, -0.10295528, 0.2932772, -0.37860015, 3.4598794, -4.548875, -2.3602462, 0
1011, 1628161017, 0.8739296, -0.10210117, 0.29173216, -0.37512082, 0.9586502, -0.7919053, -0.4439106, 0
1012, 1628177684, 0.8743902, -0.103555985, 0.29098922, -0.37422466, 1.5877218, -0.9597179, 3.89182, 0
1015, 1628227685, 0.8730527, -0.108598724, 0.298102, -0.37029848, 2.146904, -3.9606984, -3.1119313, 0
1016, 1628244352, 0.8727953, -0.10942933, 0.29967034, -0.36939445, 1.3310941, -4.2556243, -4.6978903, 0
1019, 1628294353, 0.87161595, -0.11235203, 0.30068174, -0.37047753, -1.2730205, -0.46450567, -0.087347984, 0
1020, 1628311020, 0.8707518, -0.11421794, 0.3006298, -0.37197897, -0.57791173, 1.6755102, -1.8987799, 0
1021, 1628327687, 0.87003034, -0.11613899, 0.2995463, -0.3739408, 0.066087194, 0.35587692, 0.2272911, 0
1023, 1628361021, 0.86832005, -0.11958875, 0.30029386, -0.3762225, -1.1119272, 3.207098, 0.18741894, 0
1025, 1628394355, 0.868063, -0.11977674, 0.3001965, -0.376833, -1.505187, 3.3825758, 2.4034061, 0
1027, 1628427689, 0.86956435, -0.11548999, 0.29833424, -0.37618786, -2.2476878, 6.449857, 1.2934532, 0
1028, 1628444356, 0.87055814, -0.11335618, 0.2968937, -0.37567824, -1.4733697, 3.9547014, -0.15061092, 0
1030, 1628477690, 0.8723245, -0.11076724, 0.29472572, -0.37405616, -1.7553219, 5.099821, 1.0398502, 0
1031, 1628494357, 0.8729205, -0.1101512, 0.29407796, -0.37335682, -1.5431836, 2.6227722, 0.47161007, 0
1034, 1628544358, 0.8742875, -0.1062157, 0.29340783, -0.37182286, -2.8692935, 3.512467, 1.3686695, 0
1036, 1628577692, 0.8752079, -0.10321443, 0.2922636, -0.37140378, -2.4380395, 3.670484, 0.010789871, 0
1038, 1628611026, 0.875421, -0.102149285, 0.29088736, -0.37227556, -0.36297566, -0.08566212, 0.5327358, 0
1039, 1628627693, 0.8750936, -0.10201812, 0.2913391, -0.37272772, -1.2847075, 1.8695837, -0.93247795, 0
1040, 1628644360, 0.87482476, -0.10160043, 0.29223055, -0.3727749, -1.2986372, 1.4103203, -0.7219467, 0
1042, 1628677694, 0.87526524, -0.099730045, 0.2913946, -0.3729005, -0.12109217, -0.442462, 0.47530556, 0
1043, 1628694361, 0.8755503, -0.09875209, 0.2907508, -0.37299362, 1.3032035, -1.0977889, -1.6868725, 0
1044, 1628711028, 0.8758119, -0.097690195, 0.29028282, -0.37302375, -0.6539768, 1.5075549, -0.42928505, 0
1048, 1628777696, 0.8761272, -0.09700981, 0.289992, -0.3726871, 0.29457176, -0.2123163, -0.5794363, 0
1050, 1628811030, 0.8765796, -0.09675258, 0.28926063, -0.37225822, -0.27616322, -0.5674494, 0.39277267, 0
1051, 1628827697, 0.8768575, -0.09650271, 0.28867045, -0.37212673, -0.57715404, 0.7583354, 0.36433697, 0
1052, 1628844364, 0.87714213, -0.0962867, 0.28816718, -0.3719018, 0.013338806, 0.67743015, 0.5551996, 0
1054, 1628877698, 0.8776471, -0.096210174, 0.28743812, -0.37129387, 1.1415824, -1.1419818, -1.114913, 0
1055, 1628894365, 0.8774896, -0.09666877, 0.28765935, -0.37137595, 0.76611257, -1.0518413, -1.1431246, 0
1057, 1628927699, 0.87696046, -0.09779138, 0.28826436, -0.37186265, -0.8229061, 0.1925496, -0.0056533813, 0
1058, 1628944366, 0.8765273, -0.098624855, 0.2891855, -0.3719481, -0.89931154, -0.16602995, -0.20274067, 0
1059, 1628961033, 0.8761027, -0.09952908, 0.29021177, -0.37190822, -0.37145463, 0.7931589, 2.428976, 0
1061, 1628994367, 0.8762643, -0.10138896, 0.28980047, -0.3713455, 1.1138405, -0.81674814, -0.18306828, 0
1065, 1629061035, 0.8788782, -0.09908904, 0.28750196, -0.3675564, -0.027988963, 0.04390331, 2.0439672, 0
1066, 1629077702, 0.8799825, -0.09846722, 0.28552878, -0.36661816, 1.4280399, -1.424427, 0.006836891, 0
1067, 1629094369, 0.8808251, -0.09763764, 0.28471386, -0.36544833, 2.0553021, -1.8513165, -0.63789845, 0
1069, 1629127703, 0.88252836, -0.09615059, 0.2831677, -0.3629265, -0.4072842, 0.95501834, 0.32086277, 0
1070, 1629144370, 0.8830443, -0.0956461, 0.2828178, -0.36207655, -1.1540028, -0.037091415, 0.14380836, 0
1071, 1629161037, 0.8833441, -0.09534319, 0.28235218, -0.3617885, -0.3716607, -1.1887653, 0.43489075, 0
1073, 1629194371, 0.88367146, -0.09459457, 0.28188825, -0.3615471, -0.65508944, -0.7962194, -0.288064, 0
1074, 1629211038, 0.88372314, -0.09418787, 0.28119227, -0.36206865, -0.908575, -0.66942877, 0.3810072, 0
1075, 1629227705, 0.8836062, -0.09350594, 0.28107822, -0.36261922, -1.5802076, 1.5495725, 1.7381191, 0
1078, 1629277706, 0.88319397, -0.090938345, 0.2810578, -0.3642877, 0.26779357, -2.059224, -1.5790262, 0
1081, 1629327707, 0.88247466, -0.08933082, 0.27965674, -0.36749357, 0.1798678, -1.2812716, 0.7130842, 0
1082, 1629344374, 0.88220584, -0.089352384, 0.2793458, -0.36836907, -0.09571518, -0.63051695, 0.008227348, 0
1084, 1629377708, 0.8802319, -0.09228622, 0.28170493, -0.37056464, 0.6529589, -0.18809877, 0.88841724, 0
1085, 1629394375, 0.8786687, -0.09453465, 0.285031, -0.37116387, 1.62729, -1.5912031, -0.6509619, 0
1086, 1629411042, 0.87751997, -0.09662281, 0.28716946, -0.37169522, 0.54793954, -0.77705634, 0.5117426, 0
1088, 1629444376, 0.8752106, -0.10010364, 0.2923355, -0.37219167, 1.2680507, -2.6084046, -2.033608, 0
1089, 1629461043, 0.87462145, -0.10065387, 0.29440334, -0.37179777, 0.6858484, -0.5182587, 0.9775171, 0
1090, 1629477710, 0.87456334, -0.10168518, 0.29459924, -0.3714987, 2.8235767, -3.4966917, -0.93031025, 0
1093, 1629527711, 0.8761055, -0.09897159, 0.29654258, -0.36702427, 3.0285983, -2.713617, -0.93342495, 0
1094, 1629544378, 0.8768682, -0.0976222, 0.2972084, -0.36502042, 3.047913, -2.2641318, 0.80440044, 0
1097, 1629594379, 0.87860864, -0.09714456, 0.2964738, -0.36154383, 3.4817417, -4.0701175, -1.2400885, 0
1098, 1629611046, 0.8783627, -0.09844667, 0.29660597, -0.36168066, 0.2511129, -1.6638324, -2.7520633, 0
1100, 1629644380, 0.87636554, -0.105182715, 0.29538783, -0.36560437, 1.888495, -3.280819, 0.1783247, 0
1101, 1629661047, 0.8748143, -0.10791866, 0.29656595, -0.36756355, -1.307769, 2.7587495, -0.434309, 0
1102, 1629677714, 0.8733413, -0.11036076, 0.29706198, -0.36993322, -1.4710839, 0.94521016, -0.74902916, 0
1104, 1629711048, 0.87150836, -0.1135544, 0.29645655, -0.37375525, -4.1189985, 2.773594, -0.8022909, 0
1105, 1629727715, 0.8711211, -0.11418601, 0.29549286, -0.37522572, -5.4179783, 4.097089, 1.6967783, 0
1108, 1629777716, 0.87341946, -0.107033715, 0.28586447, -0.37942624, -2.4684656, 5.7214136, 0.665328, 0
1109, 1629794383, 0.8733161, -0.1050456, 0.28535885, -0.38059857, -2.1259568, 9.950943, -2.0001411, 0
1111, 1629827717, 0.8723952, -0.10406891, 0.28563976, -0.38276258, -2.901964, 3.8873515, 0.4050293, 0
1112, 1629844384, 0.8711341, -0.10355652, 0.28877303, -0.38342178, -4.9807696, 4.82181, -1.278492, 0
1113, 1629861051, 0.8703118, -0.102889426, 0.2904494, -0.38420203, -4.0244346, 4.5673146, -2.2206984, 0
1115, 1629894385, 0.8702584, -0.09780924, 0.29080892, -0.38537613, -0.8271682, 2.080362, 0.40153503, 0
1116, 1629911052, 0.87053746, -0.0950535, 0.29012388, -0.3859514, -2.4345572, 2.3873208, 1.3961735, 0
1117, 1629927719, 0.8706018, -0.09316132, 0.28935128, -0.38684627, -1.7698437, 1.7219986, -0.48544884, 0
1119, 1629961053, 0.8714806, -0.0899475, 0.28558105, -0.3884267, -1.291978, -0.419381, -0.7216072, 0
1120, 1629977720, 0.8720221, -0.08809397, 0.28360108, -0.3890861, -2.5197697, 1.1272777, -0.012943268, 0
1123, 1630027721, 0.871631, -0.08476276, 0.281616, -0.3921326, 0.07008673, 0.06887166, -1.0520153, 0
1124, 1630044388, 0.870513, -0.085248664, 0.28330716, -0.39329058, -1.0378935, 2.2033567, -2.3240018, 0
1127, 1630094389, 0.8659998, -0.09007204, 0.28912693, -0.39791662, 0.2276922, -0.8654046, 0.538702, 0
1128, 1630111056, 0.8646229, -0.091035984, 0.29203743, -0.39856508, -0.84557635, 0.9983539, -1.1487122, 0
1129, 1630127723, 0.86369115, -0.091759846, 0.29324555, -0.39953154, -0.59861755, 1.2234446, 1.6475325, 0
1131, 1630161057, 0.8622481, -0.092832215, 0.29661915, -0.3999102, -0.39662576, 2.085906, -0.31666088, 0
1132, 1630177724, 0.8617874, -0.09428598, 0.2975766, -0.39985186, 1.9374214, -2.117377, 0.15302277, 0
1133, 1630194391, 0.86119986, -0.09540543, 0.29964668, -0.3993058, 1.2011303, -0.30175674, -0.20762634, 0
1135, 1630227725, 0.8608332, -0.09726355, 0.30253866, -0.39746308, 1.474753, -0.1642704, 1.1514683, 0
1138, 1630277726, 0.862376, -0.09944032, 0.3016583, -0.3942361, 2.72874, -0.95110583, -1.6288023, 0
1139, 1630294393, 0.8631346, -0.09966268, 0.3019934, -0.3922584, 1.80071, 1.2661197, -1.2782412, 0
1140, 1630311060, 0.8641329, -0.10018383, 0.30104154, -0.39065626, 0.98465896, -0.19722442, 0.28967, 0
1143, 1630361061, 0.8669898, -0.101145245, 0.29822233, -0.38621578, 1.9983914, -0.4884296, -0.22280598, 0
1144, 1630377728, 0.8683905, -0.10127435, 0.29630044, -0.3845104, 1.3406136, -0.6502113, 0.8189869, 0
1146, 1630411062, 0.8707219, -0.100421265, 0.29338095, -0.38169035, 0.26262662, 1.0150249, -0.06072235, 0
1147, 1630427729, 0.87177, -0.09980207, 0.29215696, -0.3803968, -0.0035357515, -0.6248651, -0.44276428, 0
1148, 1630444396, 0.8726249, -0.0993665, 0.29126376, -0.37923396, -0.5201969, -0.19947246, 0.7387104, 0
1150, 1630477730, 0.8738339, -0.09944491, 0.2889651, -0.37818643, 0.3217147, -0.58382046, 0.44209194, 0
1152, 1630511064, 0.8742968, -0.09889328, 0.28881997, -0.377371, -0.86413777, 0.89366895, 0.2917776, 0
1154, 1630544398, 0.87412864, -0.098340355, 0.28950563, -0.37737975, -0.32523438, -0.2789045, 0.8395977, 0
1155, 1630561065, 0.8741027, -0.0976994, 0.289601, -0.37753314, 0.17568968, -2.8135433, -1.9838185, 0
1156, 1630577732, 0.8738861, -0.097452864, 0.28985977, -0.37789965, -1.5131342, 0.6828716, 1.461278, 0
1159, 1630627733, 0.8738366, -0.097110935, 0.28933957, -0.37850022, 1.5470939, -0.39757255, -2.5225139, 0
1161, 1630661067, 0.8732559, -0.09721047, 0.2925008, -0.3773834, 1.1047105, -0.39069802, -0.15797997, 0
1162, 1630677734, 0.8729892, -0.09810724, 0.29264793, -0.37765437, 1.0298628, -4.039978, -0.2467432, 0
1163, 1630694401, 0.8730908, -0.09839916, 0.29219842, -0.37769148, 1.9061781, -4.1958337, 1.2048283, 0
1165, 1630727735, 0.87415814, -0.09822879, 0.29048526, -0.3765869, 1.9352263, -2.0713925, 0.07855606, 0
1167, 1630761069, 0.87510496, -0.09650724, 0.2913466, -0.37416014, 1.6873674, -0.8800344, -1.7323465, 0
1169, 1630794403, 0.8755801, -0.09978086, 0.2895554, -0.3735797, 2.2711282, -1.7672794, 1.4120827, 0
1170, 1630811070, 0.87598, -0.10072226, 0.2891596, -0.372695, 1.8625485, -1.3410177, 2.5232296, 0
1171, 1630827737, 0.87640595, -0.10023026, 0.28986925, -0.37127218, 2.6559052, 0.04874203, 2.788311, 0
1173, 1630861071, 0.8763005, -0.098719686, 0.29554233, -0.3674336, 2.9014719, -4.662586, -7.566946, 0
1175, 1630894405, 0.876413, -0.100035, 0.29497188, -0.36726788, -0.71171933, -1.3253907, 1.0058107, 0
1177, 1630927739, 0.8750283, -0.104495466, 0.29501593, -0.3692863, -1.7563677, 2.9845033, 1.9617653, 0
1178, 1630944406, 0.87379736, -0.10656329, 0.29674318, -0.37022513, -1.718193, 3.093274, -4.381003, 0
1179, 1630961073, 0.87316144, -0.10856439, 0.2950033, -0.3725272, 0.16290395, 0.045512658, -4.5932546, 0
1182, 1631011074, 0.87028086, -0.11202766, 0.29580176, -0.37757516, -3.8674326, 5.751011, 7.3739147, 0
1183, 1631027741, 0.8695001, -0.11248507, 0.2970046, -0.37829295, -3.8301091, 6.70056, 3.0963554, 0
1185, 1631061075, 0.8696922, -0.110332474, 0.29617375, -0.3791359, -2.4826496, 1.4348794, -3.1163378, 0
1186, 1631077742, 0.8701557, -0.10910664, 0.2940758, -0.38005894, -0.5093791, 1.7885612, 2.4530296, 0
1188, 1631111076, 0.8706843, -0.107063144, 0.29279768, -0.38041633, -2.298375, 8.023629, -0.41952133, 0
1189, 1631127743, 0.87048715, -0.106547415, 0.2935665, -0.38041967, -1.514806, 4.2813363, -2.0525208, 0
1190, 1631144410, 0.8701913, -0.10558068, 0.29520833, -0.38009572, -1.1656408, 1.3416708, -6.2985415, 0
1192, 1631177744, 0.871573, -0.101303406, 0.29276478, -0.37998402, 1.5261428, -2.432796, 5.0200434, 0
1193, 1631194411, 0.8724891, -0.09924706, 0.29154593, -0.37936062, -0.10799051, 1.0263934, 3.2283401, 0
1194, 1631211078, 0.8730142, -0.09754946, 0.29145047, -0.37866563, -0.3614582, 3.400459, -1.1786318, 0
1197, 1631261079, 0.8744093, -0.09358373, 0.28897116, -0.37834758, 1.2037129, -5.5836635, 0.8062725, 0
1198, 1631277746, 0.8744815, -0.09333407, 0.28859925, -0.37852645, -2.6026893, 3.0494373, 1.8382959, 0
1200, 1631311080, 0.87467647, -0.09272164, 0.28701836, -0.3794271, -1.0539188, -0.101367034, -1.3539171, 0
1201, 1631327747, 0.874348, -0.09199009, 0.28785795, -0.37972638, -2.914316, 2.5036519, -2.0818028, 0
1202, 1631344414, 0.87388587, -0.09199091, 0.28784838, -0.38079572, -0.7624333, -0.5680696, 0.9404249, 0
1205, 1631394415, 0.87152123, -0.093532786, 0.28969467, -0.3844218, 0.12109575, -0.7473415, -2.6180768, 0
1206, 1631411082, 0.87092865, -0.09492311, 0.28861502, -0.38623196, -0.11008348, -2.227792, 0.5690813, 0
1208, 1631444416, 0.86964893, -0.096228525, 0.2902338, -0.38757715, -0.63489324, 3.4332485, 2.612668, 0
1209, 1631461083, 0.8694536, -0.09663831, 0.29081818, -0.3874751, 2.65066, -0.9827238, -0.5928612, 0
1212, 1631511084, 0.8698701, -0.09657454, 0.29036945, -0.38689244, -0.842885, 0.8408769, -0.2820673, 0
1213, 1631527751, 0.87026685, -0.09626184, 0.29044312, -0.3860217, -0.94463617, 2.5734575, 1.2445116, 0
1214, 1631544418, 0.87079674, -0.09658653, 0.28950676, -0.38544872, 1.2241311, 0.3964355, 1.8648033, 0
1216, 1631577752, 0.87109804, -0.096615896, 0.29000852, -0.38438168, 1.8198315, 0.33768272, -1.8069286, 0
1217, 1631594419, 0.8711949, -0.09682595, 0.29022574, -0.38394538, -0.3030583, -0.3812632, -0.09159851, 0
1219, 1631627753, 0.87130237, -0.09757071, 0.29051527, -0.38329342, -0.8573081, -0.20205688, -0.89224434, 0
1221, 1631661087, 0.8717501, -0.09785818, 0.29015812, -0.3824718, 0.8990221, -0.76048255, 0.055680275, 0
1223, 1631694421, 0.8720879, -0.097663485, 0.28966078, -0.38212806, 0.23607774, -0.13838403, -0.5205307, 0
1224, 1631711088, 0.8722415, -0.09753747, 0.2897052, -0.38177615, -1.6106603, 2.1893342, 1.1793213, 0
1227, 1631761089, 0.8720568, -0.09849795, 0.29076135, -0.38114813, 1.5379345, -2.1478736, -1.4197044, 0
1228, 1631777756, 0.87173766, -0.09908844, 0.29166824, -0.38103235, -0.00746578, -0.30677444, -0.24451447, 0
1229, 1631794423, 0.87140304, -0.099846706, 0.2925741, -0.38090497, -0.5650671, 1.3870939, 0.5358715, 0
1231, 1631827757, 0.87104684, -0.10117743, 0.29332918, -0.38078803, -0.34513217, -0.34095204, -0.11258793, 0
1232, 1631844424, 0.8708882, -0.101575576, 0.2939096, -0.38059703, 1.1688032, -1.3172562, -1.1699877, 0
1233, 1631861091, 0.8710917, -0.101359166, 0.29376864, -0.38029772, 1.1293473, -0.088489674, -0.81348896, 0
1235, 1631894425, 0.8718166, -0.100788765, 0.29255253, -0.37972558, 0.46465394, -0.58445454, 0.026949883, 0
1237, 1631927759, 0.87248915, -0.1002423, 0.29237455, -0.37845987, 0.6363224, -0.5780922, -0.63481617, 0
1239, 1631961093, 0.87260205, -0.10159607, 0.29386356, -0.37668127, 2.5455215, -2.1126294, -2.614634, 0
1242, 1632011094, 0.87407726, -0.1011576, 0.29229453, -0.374594, 0.6343555, -1.7659165, 1.225708, 0
1243, 1632027761, 0.8749754, -0.10030646, 0.29144013, -0.37339014, 0.7747232, -1.1834271, 0.4761896, 0
1244, 1632044428, 0.87590766, -0.09893421, 0.2909912, -0.37191746, 1.8160272, -2.257958, 0.4052391, 0
1246, 1632077762, 0.87867206, -0.095264286, 0.2880814, -0.3686054, 2.5536788, -2.859665, -0.023910522, 0
1247, 1632094429, 0.88010305, -0.09343056, 0.2869141, -0.36656594, 2.8454792, -3.7965124, -0.74596596, 0
1248, 1632111096, 0.8817148, -0.09140465, 0.2855541, -0.36425778, 1.8731902, -0.97486806, 2.949417, 0
1250, 1632144430, 0.8844767, -0.0883622, 0.2835829, -0.35982573, 4.0745625, -2.6381528, -0.6273098, 0
1251, 1632161097, 0.8856534, -0.08790486, 0.2819951, -0.35828835, 4.284863, -3.417054, -1.1386013, 0
1254, 1632211098, 0.8861077, -0.08914676, 0.28364086, -0.35554832, 0.874597, -3.0196173, 3.0384312, 0
1256, 1632244432, 0.8838653, -0.092431754, 0.28594688, -0.35843214, -1.7053946, -0.7437086, -4.1960316, 0
1258, 1632277766, 0.87897694, -0.10050661, 0.28608757, -0.36803862, -4.5224586, 2.0802329, 0.6559944, 0
1259, 1632294433, 0.8754254, -0.1055143, 0.28933942, -0.37253255, -1.9252096, 1.7960583, 0.3678007, 0
1260, 1632311100, 0.8716329, -0.110877, 0.2937522, -0.37639466, -3.3894346, 4.7461195, 2.1090956, 0
1262, 1632344434, 0.8655886, -0.116847746, 0.30318454, -0.38102895, -4.229415, 5.158075, -0.15759754, 0
1263, 1632361101, 0.86425894, -0.117630154, 0.30524278, -0.38216117, -1.4426742, 2.6181953, 1.0609188, 0
1264, 1632377768, 0.8639757, -0.11738342, 0.30582637, -0.38241106, -1.3690106, 3.6495264, 3.403656, 0
1266, 1632411102, 0.8658473, -0.11398523, 0.30262998, -0.38174844, -0.41458434, 4.635969, 0.51016426, 0
1267, 1632427769, 0.86725575, -0.112091795, 0.29978392, -0.3813572, 0.93791085, 3.744128, -0.21294975, 0
1269, 1632461103, 0.87004524, -0.10764625, 0.2958779, -0.37932903, -1.025983, 6.4466248, 1.2304621, 0
1271, 1632494437, 0.87304443, -0.10377004, 0.29227158, -0.376302, -2.3338716, 2.7572312, -2.2464051, 0
1273, 1632527771, 0.87581676, -0.09921605, 0.28781897, -0.37451598, -0.7731521, 1.0141697, 0.287323, 0
1274, 1632544438, 0.8770308, -0.09634043, 0.2859635, -0.3738466, -1.924747, 2.5086575, -0.7093344, 0
1275, 1632561105, 0.8780645, -0.09384806, 0.28413942, -0.37344453, -2.1328032, 2.309396, 0.28329468, 0
1277, 1632594439, 0.87945926, -0.090171896, 0.28072527, -0.37365046, -1.4996151, 0.89725, -0.8147392, 0
1278, 1632611106, 0.8796671, -0.089088485, 0.27949563, -0.3743421, -1.08268, 0.9298376, -0.09756756, 0
1279, 1632627773, 0.87959653, -0.08813836, 0.27900138, -0.37510073, -1.2704691, 0.46600428, -0.15097618, 0
1281, 1632661107, 0.8784504, -0.08679928, 0.27973986, -0.37754074, -1.8857818, 0.27995378, 0.42558098, 0
1283, 1632694441, 0.8767423, -0.086592056, 0.2813678, -0.38033903, -0.8920317, -0.59566146, -2.25769, 0
1286, 1632744442, 0.87453276, -0.085635245, 0.2818997, -0.38521716, -1.9394804, 2.2732704, 0.8032303, 0
1287, 1632761109, 0.87414515, -0.08518357, 0.28138947, -0.3865678, 0.25408417, -1.3946205, 1.3678389, 0
1289, 1632794443, 0.87314314, -0.08483666, 0.28101444, -0.38917285, 0.8153101, -0.93529975, -1.6644077, 0
1290, 1632811110, 0.87231994, -0.08454544, 0.2830353, -0.38961744, 0.25245667, 2.951895, -2.296978, 0
1291, 1632827777, 0.8717538, -0.0843397, 0.28414768, -0.39011922, -0.21458139, 0.56600165, -0.3209753, 0
1293, 1632861111, 0.87099206, -0.08475463, 0.28458604, -0.39140934, 0.64857066, -3.4088717, -0.8372488, 0
1294, 1632877778, 0.87060344, -0.08493998, 0.28548104, -0.39158142, 1.2447611, -0.095405445, -0.5332966, 0
1295, 1632894445, 0.8705878, -0.085163586, 0.2852126, -0.39176315, 0.4791729, 0.9696162, -0.117227554, 0
1297, 1632927779, 0.87000006, -0.086018935, 0.2861491, -0.3921989, -0.2978404, 0.5522314, 1.3009472, 0
1301, 1632994447, 0.8683162, -0.08985642, 0.2900133, -0.39223194, 0.045654755, -1.09133, 1.4739504, 0
1302, 1633011114, 0.86824024, -0.090607755, 0.29029095, -0.39202157, 0.6510474, -0.99358183, 0.40177345, 0
1304, 1633044448, 0.8683777, -0.09187521, 0.29093075, -0.39094678, 1.5264516, -0.46071637, -1.0458355, 0
1305, 1633061115, 0.86842144, -0.09269192, 0.290872, -0.3907005, 1.8396558, -0.97597784, -1.2860041, 0
1306, 1633077782, 0.86825556, -0.09354002, 0.2910292, -0.39074975, 0.25159043, -1.1867691, -0.06906223, 0
1308, 1633111116, 0.8679166, -0.0958285, 0.29145312, -0.3906323, -0.08087369, 1.3317682, 0.2476635, 0
1309, 1633127783, 0.8674832, -0.09785224, 0.29264098, -0.39020476, 0.9706295, 0.28553098, -1.1427622, 0
1310, 1633144450, 0.86624706, -0.10111673, 0.29547566, -0.38998258, 1.5718321, -0.9899382, -1.4344912, 0
1312, 1633177784, 0.8657367, -0.10307342, 0.29707643, -0.38938677, 0.22819465, 0.11652775, 0.78727436, 0
1313, 1633194451, 0.8661718, -0.103275605, 0.29653406, -0.38877875, -0.30686986, -1.4572039, 0.118076324, 0
1317, 1633261119, 0.86884457, -0.102194645, 0.29369843, -0.3852368, 0.85676944, -0.29456154, 0.48814297, 0
1318, 1633277786, 0.8695722, -0.10112837, 0.29389802, -0.3837211, 0.14377828, -0.4335386, 0.52667046, 0
1320, 1633311120, 0.8715095, -0.09922098, 0.29191357, -0.3813314, 1.6318107, -1.9430948, -2.2469926, 0
1321, 1633327787, 0.8724138, -0.09895951, 0.29035595, -0.38052008, 1.396418, -2.3316002, 0.9447613, 0
1322, 1633344454, 0.8730652, -0.098824, 0.28920898, -0.3799341, 3.0329292, -4.7863607, -0.8792181, 0
1324, 1633377788, 0.87358314, -0.09823291, 0.28978366, -0.37845606, 0.47077528, -0.46964967, 2.2673063, 0
1325, 1633394455, 0.8732682, -0.09961028, 0.29043788, -0.3783216, 1.4162654, -4.479266, -0.5827608, 0
1327, 1633427789, 0.87199455, -0.10295671, 0.29281214, -0.37853277, 3.3632958, -4.805373, -2.2607422, 0
1328, 1633444456, 0.87132937, -0.104814954, 0.2936502, -0.37890536, 1.5476007, -1.1158617, -0.089897156, 0
1331, 1633494457, 0.86882824, -0.10854449, 0.29811862, -0.3801074, -0.42203248, -1.39143, 0.65300274, 0
1333, 1633527791, 0.8665278, -0.11307378, 0.29824442, -0.38392043, -2.1470745, 0.7075556, -2.6600027, 0
1335, 1633561125, 0.865044, -0.11532951, 0.2954709, -0.38871035, -2.2984488, 2.0823677, 0.8674059, 0
1336, 1633577792, 0.862745, -0.11901648, 0.2980732, -0.3907164, 0.67860085, 4.840926, -2.3194833, 0
1337, 1633594459, 0.8604843, -0.12300323, 0.30106667, -0.39216933, 2.2040093, 5.1937337, -0.4593649, 0
1339, 1633627793, 0.8562628, -0.12994935, 0.30856332, -0.39334038, -1.7798721, 5.2046733, -0.38706303, 0
1340, 1633644460, 0.85489637, -0.13163377, 0.31223863, -0.3928519, -2.5785398, 6.0721917, 1.150177, 0
1341, 1633661127, 0.8542883, -0.13288158, 0.314413, -0.39201942, -1.35283, 2.9897532, 0.5369768, 0
1343, 1633694461, 0.8552685, -0.13329114, 0.31595185, -0.38848993, 1.6782569, 1.4702463, -0.027368546, 0
1345, 1633727795, 0.8586618, -0.13181545, 0.31381303, -0.38320592, 1.3570229, 7.2872086, -0.09388924, 0
1347, 1633761129, 0.8643055, -0.12871112, 0.30769905, -0.3764723, -0.14788936, 4.4647484, 1.4070625, 0
1348, 1633777796, 0.86714, -0.12635413, 0.3046121, -0.3732491, 0.44679257, 3.0427015, -1.5766621, 0
1350, 1633811130, 0.8722108, -0.1223585, 0.2983444, -0.36778784, -2.1922934, 3.1090956, 0.58745193, 0
1351, 1633827797, 0.8737774, -0.121490255, 0.29650953, -0.36583617, -1.5722221, 2.5079048, 1.3989592, 0
1352, 1633844464, 0.87479025, -0.12080651, 0.2958528, -0.36416975, -2.5062559, 2.8815057, 0.40077114, 0
1354, 1633877798, 0.8765616, -0.118604735, 0.29470998, -0.36155164, -1.2271199, 0.6700116, -1.4810152, 0
1355, 1633894465, 0.8773253, -0.11702857, 0.2940308, -0.36076477, -1.1385144, -0.7535911, -1.6742849, 0
1356, 1633911132, 0.8780913, -0.11537548, 0.29273543, -0.36048695, -2.0110373, 1.7321153, -0.050704956, 0
1358, 1633944466, 0.879161, -0.11255065, 0.29145512, -0.35980964, -0.86947817, 2.499081, 0.9069967, 0
1360, 1633977800, 0.8793482, -0.11095612, 0.29294688, -0.35863405, 0.37700957, -1.0755293, -1.2225838, 0
1363, 1634027801, 0.8816575, -0.106262825, 0.2903792, -0.356467, 1.1692244, -0.052571084, 0.95436287, 0
1364, 1634044468, 0.88274825, -0.10423034, 0.28893834, -0.35553753, 0.37034106, 0.4512221, -0.582963, 0
1366, 1634077802, 0.8845485, -0.10186472, 0.2858116, -0.35427412, 2.564728, -2.8164895, -1.7712421, 0
1367, 1634094469, 0.8852221, -0.10055528, 0.28500807, -0.35361245, 0.22903909, 0.7313959, -0.53965664, 0
1368, 1634111136, 0.8859178, -0.09972084, 0.28339204, -0.35340518, 0.5475749, -2.0508552, -0.6360531, 0
1370, 1634144470, 0.88694096, -0.0970785, 0.2819279, -0.35274473, -0.037671544, -1.1645298, -0.825613, 0
1371, 1634161137, 0.88757485, -0.095503606, 0.280381, -0.3528134, -1.10982, -0.14640322, 1.8003397, 0
1372, 1634177804, 0.88826627, -0.09394278, 0.27817464, -0.35323846, 0.3196879, -2.9038422, 0.06924248, 0
1375, 1634227805, 0.88874936, -0.090376504, 0.27504295, -0.35539967, 0.59528184, -1.698019, -0.5049114, 0
1376, 1634244472, 0.8887326, -0.0893028, 0.27400622, -0.3565119, -0.6738279, -0.81794244, 0.69117546, 0
1379, 1634294473, 0.8889026, -0.08534384, 0.27151316, -0.35895658, 0.025968853, -0.18988867, -0.218997, 0
1381, 1634327807, 0.889219, -0.0821883, 0.26961488, -0.36033767, -0.011107476, -1.7464749, -0.707386, 0
1382, 1634344474, 0.88902575, -0.08103404, 0.26878372, -0.3616946, 0.2778456, -1.2340164, -0.11086464, 0
1383, 1634361141, 0.8888281, -0.07974544, 0.26811466, -0.36296085, -0.61809826, -1.3058972, -0.7409134, 0
1385, 1634394475, 0.8877468, -0.07844445, 0.26782903, -0.36608818, -0.85752, -1.138708, -0.8464966, 0
1386, 1634411142, 0.8867175, -0.078397125, 0.26831916, -0.36822745, -2.0415583, -0.03058216, 0.22931767, 0
1387, 1634427809, 0.8855318, -0.07860103, 0.2688467, -0.37064475, -1.2638569, -1.5971595, 0.17020321, 0
1390, 1634477810, 0.8816467, -0.079183005, 0.27102146, -0.37812343, -1.4741356, -0.2425376, 0.26758575, 0
1391, 1634494477, 0.88034165, -0.079031594, 0.27257723, -0.38007265, -1.0856512, 0.31478354, -1.4706182, 0
1393, 1634527811, 0.8780353, -0.07939407, 0.27413455, -0.38418955, 0.92158014, -3.8544595, -1.3287487, 0
1395, 1634561145, 0.87586147, -0.08009599, 0.2756129, -0.38792995, -0.007977848, 0.59492207, 1.6648912, 0
1397, 1634594479, 0.8738241, -0.08155652, 0.2774459, -0.39090225, -0.20231052, -0.04002815, 0.7534399, 0
1398, 1634611146, 0.8727658, -0.0821979, 0.27892503, -0.39207754, 0.39477718, -0.59871006, -0.5922613, 0
1399, 1634627813, 0.87177527, -0.08305254, 0.28049484, -0.39298058, 0.7221628, -1.2521139, -0.23908138, 0
1401, 1634661147, 0.8702264, -0.084371924, 0.28265116, -0.39458424, 0.00517656, -0.63057923, -0.48189545, 0
1402, 1634677814, 0.8693737, -0.0856148, 0.28394443, -0.3952667, 0.7126494, -1.6079249, -0.45938015, 0
1405, 1634727815, 0.86610603, -0.092589065, 0.2910498, -0.39569977, 1.9652976, -2.5224133, 0.34686565, 0
1406, 1634744482, 0.86578476, -0.09322816, 0.29283696, -0.39493376, 2.1924307, -1.9835805, -1.1757393, 0
1408, 1634777816, 0.86552066, -0.09422916, 0.29618198, -0.39277443, 2.6219223, -2.6061606, 0.022015572, 0
1409, 1634794483, 0.86569285, -0.094602324, 0.29724047, -0.39150363, 2.6995153, -3.3319042, 1.3358688, 0
1412, 1634844484, 0.865352, -0.09739454, 0.30309367, -0.38706, 2.6268146, -1.8912437, -2.96813, 0
1413, 1634861151, 0.86515635, -0.09989973, 0.303723, -0.3863648, 2.1013615, -2.464311, 2.3194475, 0
1414, 1634877818, 0.8645227, -0.10298322, 0.30507073, -0.3859112, 2.5553784, -4.514625, -3.0467997, 0
1416, 1634911152, 0.86406404, -0.108786814, 0.30205482, -0.38771453, 0.2960514, -0.5924161, 0.3118391, 0
1417, 1634927819, 0.8641316, -0.1105409, 0.3000693, -0.38860828, -0.7337345, 1.5430416, 1.6247549, 0
1420, 1634977820, 0.86373794, -0.11527096, 0.2993366, -0.3886743, 0.91095054, 1.119101, 0.0077695847, 0
1421, 1634994487, 0.8635155, -0.11677786, 0.30028835, -0.38798428, -0.56005013, 4.343134, 2.4699078, 0
1422, 1635011154, 0.86328393, -0.11823301, 0.3012964, -0.38727656, -2.085854, 7.002025, 2.507761, 0
1424, 1635044488, 0.8637236, -0.11905058, 0.30192155, -0.3855551, -2.2942557, 6.374803, -0.9562588, 0
1425, 1635061155, 0.8644851, -0.11847786, 0.30124497, -0.3845528, -0.25321022, 3.7281032, -0.8248348, 0
1426, 1635077822, 0.86504656, -0.11831673, 0.30117688, -0.3833914, -0.70158976, 4.6887264, -1.3832188, 0
1428, 1635111156, 0.86716753, -0.11540282, 0.29927433, -0.38097036, -2.4848406, 5.890184, 1.2740765, 0
1429, 1635127823, 0.8693089, -0.11122489, 0.2970981, -0.37903127, -3.6775928, 4.971387, 2.1373243, 0
1431, 1635161157, 0.8739949, -0.102566324, 0.29107854, -0.37534904, -0.50443274, 2.0382593, -2.15727, 0
1432, 1635177824, 0.87634706, -0.09880611, 0.28654116, -0.3743636, -0.11406134, 0.087219335, -1.4723167, 0
1435, 1635227825, 0.8797172, -0.090524666, 0.2798307, -0.3736288, -1.7918193, 0.18735929, 2.3206348, 0
1436, 1635244492, 0.8796763, -0.08963493, 0.27974588, -0.374003, -0.5627547, 0.03379907, 0.15297413, 0
1437, 1635261159, 0.87930584, -0.08950613, 0.27977252, -0.37488404, -0.28904516, -0.3869681, -1.2444715, 0
1439, 1635294493, 0.8773717, -0.089741535, 0.28270975, -0.37714878, -3.3191214, 3.8041816, -1.6239052, 0
1441, 1635327827, 0.87642235, -0.08916012, 0.28283736, -0.37939158, 0.1545391, -2.1778312, 2.9657059, 0
1443, 1635361161, 0.87510574, -0.08885515, 0.284635, -0.38115412, 0.86982524, 1.4264231, -2.396813, 0
1444, 1635377828, 0.874395, -0.08910001, 0.28545704, -0.3821118, 0.2653054, 0.6381225, -1.4031687, 0
1445, 1635394495, 0.87386787, -0.08944363, 0.28607902, -0.38277158, -0.6861611, 0.72463495, 0.8855648, 0
1447, 1635427829, 0.87375474, -0.08919838, 0.28572673, -0.38334998, -0.54952693, 0.7487197, 0.35253906, 0
1449, 1635461163, 0.87380046, -0.08861098, 0.28533933, -0.38367027, 0.99635637, 0.029806515, -0.40558338, 0
1451, 1635494497, 0.8741422, -0.08808404, 0.28439435, -0.3837151, -1.3804721, 0.56748897, 1.4070654, 0
1452, 1635511164, 0.87390184, -0.088224374, 0.28473887, -0.38397458, -0.0990605, 0.9670563, 0.29555798, 0
1453, 1635527831, 0.87348855, -0.08851971, 0.2859368, -0.3839572, 1.3565418, 0.54897434, -1.5482845, 0
1455, 1635561165, 0.87274855, -0.08892861, 0.2877697, -0.38417557, -0.6357001, -2.2451053, -1.2789354, 0
1457, 1635594499, 0.8723675, -0.08873075, 0.28750938, -0.3852804, -1.1069006, -0.8749304, 0.51574516, 0
1459, 1635627833, 0.8722556, -0.08904019, 0.2877721, -0.38526642, 1.808162, -1.6877416, -1.3856888, 0
1460, 1635644500, 0.8717358, -0.08923296, 0.2889872, -0.38548833, 0.27973697, 0.27124035, 0.22237968, 0
1462, 1635677834, 0.8705803, -0.08992296, 0.29150504, -0.38604307, 0.17708217, -1.8918767, -1.0722666, 0
1464, 1635711168, 0.8696958, -0.09109773, 0.29300296, -0.3866271, 0.6705592, -2.8257878, -0.60087204, 0
1466, 1635744502, 0.8689738, -0.09212884, 0.29343316, -0.38767838, 0.6527383, -1.2776507, 1.0890417, 0
1467, 1635761169, 0.8688226, -0.092512004, 0.29338145, -0.38796526, -0.06424992, -1.2554153, -0.055971146, 0
1468, 1635777836, 0.8685177, -0.09277992, 0.2941542, -0.3879989, 0.84052205, -0.7824359, -0.7602358, 0
1470, 1635811170, 0.86820954, -0.09325687, 0.2945676, -0.38825986, 1.3731031, -2.2989006, -0.86712646, 0
1471, 1635827837, 0.8680548, -0.093767434, 0.2941973, -0.388764, 0.4344904, -0.8087911, 0.7732458, 0
1474, 1635877838, 0.8677959, -0.095177725, 0.2932747, -0.38969505, 0.40483427, 0.45489034, 0.7666445, 0
1475, 1635894505, 0.867709, -0.095575474, 0.2929949, -0.39000165, 0.19401819, -1.3600482, -0.7212219, 0
1476, 1635911172, 0.8675304, -0.09579012, 0.29328847, -0.39012516, -0.093568556, -0.8653782, -0.5531111, 0
1479, 1635961173, 0.8661126, -0.09837035, 0.2961313, -0.39048567, 1.7058232, -1.71563, 0.32476616, 0
1480, 1635977840, 0.86501265, -0.10071101, 0.29873484, -0.39034408, 1.6679595, -1.8020786, 0.47893143, 0
1482, 1636011174, 0.86254907, -0.106066845, 0.30414763, -0.39019734, 2.6900487, -3.6754882, -0.56099415, 0
1483, 1636027841, 0.8620374, -0.10706336, 0.30588055, -0.38970083, 1.8150296, -1.7790742, -1.4421339, 0
1484, 1636044508, 0.8623031, -0.10698704, 0.30580354, -0.38919437, 0.6055424, -0.29587215, 1.6333923, 0
1486, 1636077842, 0.8634782, -0.10644485, 0.30418238, -0.38800627, 2.0502496, -2.278555, 0.7039833, 0
1487, 1636094509, 0.8642883, -0.10641226, 0.30280086, -0.38729143, 4.1873536, -3.4550807, -0.0070295334, 0
1490, 1636144510, 0.86646384, -0.10748628, 0.30133718, -0.38325408, 3.3444514, -3.1040854, -1.2144547, 0
1491, 1636161177, 0.8673677, -0.10806413, 0.3004373, -0.3817507, 1.3810263, -1.8256348, -0.099243164, 0
1494, 1636211178, 0.8696562, -0.11158586, 0.2991119, -0.37653625, 0.9719501, -1.5789617, 0.5868187, 0
1495, 1636227845, 0.86986256, -0.11331236, 0.2987651, -0.37581894, 1.2472119, -1.0511119, -1.5338116, 0
1497, 1636261179, 0.8703491, -0.115211904, 0.2961878, -0.3761545, -1.5084728, 0.85078526, -2.8505497, 0
1498, 1636277846, 0.8701529, -0.11727752, 0.29477426, -0.3770795, -2.4239116, 2.3530245, 0.23958111, 0
1499, 1636294513, 0.869542, -0.11926618, 0.29450256, -0.37807596, -0.733344, 1.9063545, 0.44025993, 0
1501, 1636327847, 0.86780614, -0.12172295, 0.29740128, -0.37901086, -2.358478, 3.5226963, 1.5877304, 0
1502, 1636344514, 0.8673069, -0.1225809, 0.29794797, -0.37944782, -3.891362, 4.393405, 1.3271465, 0
1503, 1636361181, 0.8669077, -0.12341955, 0.2976611, -0.38031197, -3.4447384, 2.3835678, -0.5346012, 0
1505, 1636394515, 0.8683024, -0.119569995, 0.29277956, -0.38214514, -3.0118165, 6.5863338, 2.4660711, 0
1506, 1636411182, 0.86887205, -0.11772585, 0.29099572, -0.3827846, -2.9681017, 7.728023, -0.03905773, 0
1509, 1636461183, 0.86943847, -0.11382265, 0.28723642, -0.38550875, -4.468275, 2.7034156, -1.501647, 0
1510, 1636477850, 0.86964744, -0.11122512, 0.2870466, -0.38593698, -4.6642327, 4.5600557, -1.753993, 0
1512, 1636511184, 0.86958325, -0.10561265, 0.28815994, -0.38682753, -2.9158657, 4.217271, 0.29380608, 0
1513, 1636527851, 0.86908627, -0.10391149, 0.28931096, -0.38754544, -1.1756797, 2.8657207, 0.4517889, 0
1514, 1636544518, 0.8684982, -0.10278881, 0.2902253, -0.38847828, -1.7275808, 1.5158396, -0.14661217, 0
1516, 1636577852, 0.8663198, -0.10255218, 0.29365948, -0.390817, -0.55902714, 1.6986227, 0.5724888, 0
1517, 1636594519, 0.8656614, -0.101886764, 0.2944557, -0.39184955, -0.68422455, 2.1662602, 1.3254223, 0
1520, 1636644520, 0.8654731, -0.09882399, 0.29458502, -0.39295107, 0.36353946, 0.6101116, -1.4944935, 0
1521, 1636661187, 0.86563987, -0.0975746, 0.29453227, -0.39293554, 0.4929558, 0.89388573, -1.8519716, 0
1524, 1636711188, 0.8684131, -0.09325933, 0.29048985, -0.3908679, -0.6236566, 0.6233281, 1.9121246, 0
1525, 1636727855, 0.86900747, -0.09254951, 0.28978723, -0.3902366, 1.1944664, -0.55027205, 0.16826439, 0
1526, 1636744522, 0.86942005, -0.09246714, 0.2890199, -0.38990605, 1.1657627, -0.37162036, 1.0050659, 0
1528, 1636777856, 0.8695357, -0.09314356, 0.28964978, -0.3890191, -0.14098561, -0.075116724, -2.719345, 0
1529, 1636794523, 0.86931074, -0.09413415, 0.2902651, -0.38882425, -0.5837933, 0.8872862, -0.19881058, 0
1530, 1636811190, 0.86897016, -0.095655896, 0.29114738, -0.38855454, 0.5049614, 0.10420772, 1.9586802, 0
1532, 1636844524, 0.8691999, -0.09724352, 0.29165465, -0.38726413, 1.2540257, -1.2185506, -1.7238922, 0
1533, 1636861191, 0.8695763, -0.09703834, 0.2917275, -0.38641483, 0.22123581, 1.0926878, -0.47789383, 0
1536, 1636911192, 0.8714192, -0.09566163, 0.29002592, -0.3838792, 1.2554816, -0.91089994, -1.103178, 0
1539, 1636961193, 0.8728872, -0.09515224, 0.2881605, -0.38207078, 0.8906978, -1.7561871, -0.40217686, 0
1540, 1636977860, 0.8731926, -0.09477153, 0.288374, -0.3813059, -0.2054625, -0.03551213, 0.20806694, 0
1541, 1636994527, 0.87331116, -0.09472947, 0.28884268, -0.3806898, -0.5005503, -0.44072357, 0.6644964, 0
1543, 1637027861, 0.87316096, -0.094357185, 0.29025888, -0.38004905, 0.51466596, -1.2652276, -1.6256971, 0
1544, 1637044528, 0.873118, -0.09397304, 0.29087296, -0.3797735, -0.19179803, -0.27909565, -1.0124807, 0
1545, 1637061195, 0.87327224, -0.093352035, 0.2905876, -0.37979016, -0.6368376, -0.8191479, 1.1774893, 0
1547, 1637094529, 0.8734665, -0.09158267, 0.29024264, -0.3800379, 0.34133735, -0.84180355, 0.3933277, 0
1548, 1637111196, 0.8739999, -0.09112339, 0.28832313, -0.38038307, 0.8153301, -1.331457, 2.6600533, 0
1549, 1637127863, 0.87435335, -0.09099919, 0.28672642, -0.3808071, 1.3807716, -3.9204888, -0.44422913, 0
1553, 1637194531, 0.87340355, -0.08965048, 0.2871823, -0.38295695, -0.23920022, -3.9008977, 0.5554285, 0
1555, 1637227865, 0.87234527, -0.0900084, 0.28713354, -0.38531494, 0.20027186, -0.13751891, -0.30566502, 0
1556, 1637244532, 0.87197256, -0.090357, 0.28612173, -0.38682622, -1.0393873, 1.5252693, 3.0391827, 0
1557, 1637261199, 0.87129897, -0.09076521, 0.28647456, -0.3879857, -0.51888824, -1.8592833, -1.1312695, 0
1559, 1637294533, 0.868958, -0.09414507, 0.28878918, -0.39070487, 1.9318326, -3.7931511, -1.8853726, 0
1560, 1637311200, 0.86752754, -0.09637513, 0.29116815, -0.39157334, -0.288612, 1.4399489, 0.35707378, 0
1561, 1637327867, 0.86622566, -0.098600194, 0.29371908, -0.39199626, 0.23369978, 1.0840099, 2.1187954, 0
1563, 1637361201, 0.86494964, -0.10000176, 0.29808363, -0.39116326, 1.0322347, -0.28160655, 2.0875835, 0
1564, 1637377868, 0.8643238, -0.10010455, 0.30225164, -0.3893175, 4.0245643, -6.3103933, -4.104899, 0
1565, 1637394535, 0.86418414, -0.09978413, 0.30538192, -0.38726133, 4.2248225, -5.791526, -7.465154, 0
1570, 1637477870, 0.86852455, -0.09742331, 0.30522904, -0.37816644, 5.194891, -5.8386207, -5.7865033, 0
1571, 1637494537, 0.8697526, -0.09502304, 0.30694288, -0.37455028, 2.5178933, -3.0604482, -3.9803786, 0
1572, 1637511204, 0.8705864, -0.094901934, 0.30679888, -0.37275738, 3.8950977, -3.4260166, -0.084923744, 0
1574, 1637544538, 0.87073296, -0.099991605, 0.30479026, -0.3727325, 1.7475618, -2.669597, 0.16527271, 0
1575, 1637561205, 0.87059844, -0.10234046, 0.30352354, -0.37344235, 0.33668628, -0.15508462, -0.28123283, 0
1576, 1637577872, 0.8699891, -0.10587053, 0.30176947, -0.3752951, -1.2185926, 1.1222928, -2.197908, 0
1578, 1637611206, 0.86943704, -0.11032603, 0.29602793, -0.3798362, -3.3606756, 3.9684644, 0.9829798, 0
1579, 1637627873, 0.8694711, -0.11110921, 0.29426038, -0.38090226, -3.9672217, 4.2067523, 2.193594, 0
1580, 1637644540, 0.8696941, -0.1111528, 0.29260153, -0.3816576, -4.6697407, 5.579631, 3.9970999, 0
1583, 1637694541, 0.87075424, -0.10876664, 0.28929126, -0.38245022, -1.3902891, 4.9317303, 1.6440239, 0
1584, 1637711208, 0.8703086, -0.10892354, 0.28999323, -0.382888, -2.494937, 5.2201085, 2.2711973, 0
1586, 1637744542, 0.8681374, -0.11008893, 0.29416102, -0.38430196, -2.865566, 5.201054, -1.1426516, 0
1587, 1637761209, 0.86708486, -0.110904045, 0.29587093, -0.38513, -2.3893228, 3.7224896, 0.07592392, 0
1588, 1637777876, 0.8672345, -0.108393304, 0.29605237, -0.38536844, -2.2000673, 3.0040517, -0.78347015, 0
1590, 1637811210, 0.8687564, -0.101645865, 0.29394037, -0.3853966, -1.8617983, 1.7529271, 0.8491688, 0
1591, 1637827877, 0.8699259, -0.09801677, 0.292019, -0.3851588, -0.6389455, 1.1652977, -1.2100182, 0
1593, 1637861211, 0.8725216, -0.09111059, 0.2863711, -0.38522398, -0.9248036, 0.7833703, -0.55319405, 0
1594, 1637877878, 0.873412, -0.08838837, 0.28390214, -0.38566718, -1.3373332, 1.1407601, 0.93951607, 0
1595, 1637894545, 0.87408686, -0.08610929, 0.28176787, -0.3862189, -1.3060671, -0.18782291, -0.19147873, 0
1599, 1637961213, 0.87167954, -0.0850028, 0.28432468, -0.39001226, -1.5234654, 1.6213764, 0.6670294, 0
1601, 1637994547, 0.86943656, -0.08627359, 0.2881642, -0.39191702, -1.5929116, 1.4651371, 1.5578718, 0
1602, 1638011214, 0.868557, -0.08674187, 0.28944087, -0.39282182, 1.011823, -3.0418894, -1.3147278, 0
1603, 1638027881, 0.86764586, -0.087314844, 0.29111722, -0.39346945, -0.57805616, 1.0656663, -0.44204807, 0
1605, 1638061215, 0.86698824, -0.0877552, 0.29107487, -0.39485005, 1.0150517, -1.4171177, 0.24404621, 0
1606, 1638077882, 0.86690354, -0.08724561, 0.29113555, -0.3951042, -0.031316623, 1.3864951, -1.9550014, 0
1607, 1638094549, 0.8668113, -0.08705649, 0.29150072, -0.3950791, -1.1008044, 2.3570375, 1.4501686, 0
1609, 1638127883, 0.8673841, -0.08676239, 0.2898929, -0.39506942, 0.81654155, -0.9404214, -0.5021124, 0
1610, 1638144550, 0.8673708, -0.0868358, 0.2901438, -0.39489844, 0.2052468, 1.1522518, -0.7036724, 0
1613, 1638194551, 0.86731124, -0.08801769, 0.29007787, -0.39481607, -0.72694325, -0.7629762, 0.36674595, 0
1615, 1638227885, 0.8672941, -0.088584766, 0.29076174, -0.3942234, 0.4313344, 1.2312548, -0.77041817, 0
1617, 1638261219, 0.8675145, -0.08897083, 0.2910639, -0.3934275, -0.07765198, -0.49063492, -0.1123724, 0
1618, 1638277886, 0.86763626, -0.08920222, 0.29108936, -0.39308771, 0.1481464, -0.46705177, 1.0238638, 0
1620, 1638311220, 0.86760145, -0.09016061, 0.29167297, -0.392513, 0.34946093, -0.75345004, -1.1427479, 0
1621, 1638327887, 0.8671766, -0.09056012, 0.29336974, -0.39209518, 0.7171079, 0.20857793, -1.166296, 0
1622, 1638344554, 0.8669425, -0.09109657, 0.29391384, -0.39208096, 0.30722147, -0.60062647, -0.07702923, 0
1624, 1638377888, 0.8656577, -0.0932673, 0.29557106, -0.3931621, -0.1903215, -2.5243764, 0.28503513, 0
1625, 1638394555, 0.86489654, -0.09420234, 0.2967568, -0.3937207, 0.6238848, -2.2153306, -1.322875, 0
1628, 1638444556, 0.863343, -0.09659694, 0.2990749, -0.3947947, 0.45603663, -0.14966924, 0.2914858, 0
1629, 1638461223, 0.8626818, -0.09784548, 0.3000904, -0.39516166, 1.4659243, -1.397131, -1.202282, 0
1632, 1638511224, 0.8586198, -0.10525965, 0.30860007, -0.395549, 0.4860915, 0.08057469, 1.7592974, 0
1633, 1638527891, 0.85804015, -0.10680739, 0.30982, -0.39543843, -0.001250555, -0.071220726, 0.8119831, 0
1634, 1638544558, 0.8574956, -0.10816834, 0.31122515, -0.3951463, 1.3462358, -1.1704978, -0.85900974, 0
1636, 1638577892, 0.8565877, -0.111865394, 0.31399825, -0.3938904, 0.6552859, 0.7545764, 0.036209106, 0
1637, 1638594559, 0.85628253, -0.11387797, 0.31487364, -0.39327812, 0.25364876, 0.66293406, -0.16514206, 0
1638, 1638611226, 0.85625064, -0.11507913, 0.31534314, -0.39262074, -0.1450322, 1.9568955, 0.88434315, 0
1640, 1638644560, 0.85794836, -0.11753716, 0.3120133, -0.390843, 2.6404028, -2.3696337, 0.8667393, 0
1642, 1638677894, 0.8599299, -0.116749376, 0.3111962, -0.38736004, 0.31253728, 4.355988, -1.9143043, 0
1644, 1638711228, 0.8633431, -0.115473196, 0.3064167, -0.3839458, -0.05318379, -0.13767163, 0.92537403, 0
1645, 1638727895, 0.86509687, -0.11523279, 0.30393943, -0.3820347, 1.769289, -0.98704505, -0.2311821, 0
1648, 1638777896, 0.87096566, -0.11114894, 0.29652905, -0.37568086, 1.4577549, 0.3685599, 0.6617527, 0
1649, 1638794563, 0.8723345, -0.108652376, 0.29649752, -0.3732527, -0.65682256, -0.31486258, 1.3186369, 0
1651, 1638827897, 0.87467015, -0.10365636, 0.2968943, -0.3688658, 1.2933807, -3.2116196, -3.8157363, 0
1652, 1638844564, 0.8753068, -0.10277766, 0.29680675, -0.36767027, 0.8410779, -2.6292534, 1.0781765, 0
1653, 1638861231, 0.87565386, -0.102701955, 0.2959338, -0.36756867, 2.2150636, -3.3375733, 1.2045546, 0
1655, 1638894565, 0.8740615, -0.10298477, 0.30167097, -0.36661455, 2.1393492, -4.174823, -1.0252466, 0
1657, 1638927899, 0.87167156, -0.105496116, 0.30594286, -0.36804765, 2.8264513, -6.7830243, -4.404596, 0
1659, 1638961233, 0.86882335, -0.11088338, 0.30705485, -0.3722486, -0.3346474, -1.1683275, 0.1254816, 0
1660, 1638977900, 0.8672759, -0.114342794, 0.30704716, -0.37480807, -0.58016765, -0.37767196, 3.0627356, 0
1661, 1638994567, 0.8658169, -0.11761833, 0.30701703, -0.37718484, 0.97626996, -0.1839083, 0.4314556, 0
1663, 1639027901, 0.86484796, -0.12110725, 0.30501625, -0.37991697, -0.5315368, -0.0089351535, -1.5951014, 0
1664, 1639044568, 0.8651839, -0.12111961, 0.30315113, -0.3806404, -1.6997845, 2.758041, -0.6170635, 0
1665, 1639061235, 0.8658222, -0.12033733, 0.3014134, -0.3808171, -2.0712183, 5.2716427, 2.6424923, 0
1667, 1639094569, 0.8690051, -0.11549316, 0.29604918, -0.37927195, -3.2767751, 6.5988517, 2.8350315, 0
1668, 1639111236, 0.87041414, -0.11246301, 0.2935581, -0.3788878, -2.7999468, 5.9621706, -0.24113941, 0
1669, 1639127903, 0.8710602, -0.11069763, 0.29177073, -0.37930286, -1.7301356, 5.176892, -1.1379852, 0
1672, 1639177904, 0.8685386, -0.111262545, 0.29545385, -0.38205913, -3.4819582, 3.1927114, -1.4015388, 0
1673, 1639194571, 0.8665748, -0.11317861, 0.29866567, -0.383456, -4.0462956, 6.4597607, -0.05369377, 0
1675, 1639227905, 0.86358976, -0.115530364, 0.30353224, -0.3856608, -1.7466757, 3.5581346, -1.4316349, 0
1678, 1639277906, 0.86443853, -0.11017624, 0.303797, -0.38511738, 0.2458209, 1.6206976, 0.5595417, 0
1679, 1639294573, 0.8656087, -0.10865591, 0.30223677, -0.38414764, 1.6315757, 1.2067044, -1.6897736, 0
1680, 1639311240, 0.86736834, -0.1068283, 0.2998198, -0.38258198, 1.4972035, 2.095611, -0.9019699, 0
1682, 1639344574, 0.87049913, -0.103517994, 0.29505557, -0.38007686, 0.36389562, 1.4159999, 0.36713886, 0
1683, 1639361241, 0.87160903, -0.10213447, 0.29360956, -0.37902567, -0.10847709, 1.9080081, 0.5109873, 0
1684, 1639377908, 0.87269735, -0.10080782, 0.29242155, -0.37779322, 0.57562155, -0.42989615, -1.7009697, 0
1687, 1639427909, 0.87442476, -0.10022909, 0.29127422, -0.37482727, -0.032683183, 2.1501749, -0.16155624, 0
1688, 1639444576, 0.8750392, -0.09974781, 0.2909414, -0.37377912, -0.30002278, 1.0319369, -0.5909996, 0
1690, 1639477910, 0.8760406, -0.09876741, 0.29012468, -0.37232578, -0.3678641, -0.17109722, 1.029108, 0
1691, 1639494577, 0.87660825, -0.09824398, 0.2894595, -0.3716451, 0.48424843, -1.0892247, -0.3230877, 0
1694, 1639544578, 0.8780106, -0.0977482, 0.2859914, -0.37115002, -0.4976972, -0.09257409, -0.10071468, 0
1695, 1639561245, 0.87796456, -0.09772266, 0.28579545, -0.37141663, -0.78534675, -0.009221921, -0.21227169, 0
1696, 1639577912, 0.87788975, -0.09810112, 0.285072, -0.3720489, -0.82129323, 0.498041, 1.0973225, 0
1698, 1639611246, 0.87701726, -0.098631695, 0.28623027, -0.37307572, -0.87176555, 0.25509438, -0.82344055, 0
1699, 1639627913, 0.87670064, -0.09887421, 0.28600103, -0.37393075, -0.7109871, -0.73820364, -0.2297945, 0
1702, 1639677914, 0.8762505, -0.09796437, 0.2861299, -0.37512434, -0.90388596, 0.11606229, 1.5852804, 0
1703, 1639694581, 0.87620336, -0.09753185, 0.28617394, -0.37531373, 0.48452434, -2.0305912, -0.5962353, 0
1705, 1639727915, 0.875849, -0.09642492, 0.28715956, -0.37567395, 0.84219694, -0.72686124, -0.7410059, 0
1706, 1639744582, 0.875646, -0.0961779, 0.2876024, -0.37587178, -0.11932753, -0.33663195, 0.26111126, 0
1707, 1639761249, 0.875301, -0.096410066, 0.28817633, -0.37617606, -0.7392559, -0.5198054, 1.0440655, 0
1710, 1639811250, 0.8737447, -0.096947595, 0.29195213, -0.37674406, 0.6897371, -0.76003754, 0.2696638, 0
1711, 1639827917, 0.87339485, -0.097347535, 0.29259607, -0.37695265, 1.2792677, -1.9218515, -0.47293282, 0
1713, 1639861251, 0.8724123, -0.09810566, 0.2947987, -0.37731484, 0.5469923, -0.68450814, -1.545577, 0
1714, 1639877918, 0.8720287, -0.09815848, 0.29602334, -0.377229, 0.6660395, 1.0231973, -0.37278843, 0
1717, 1639927919, 0.87190896, -0.098818794, 0.2961276, -0.37725148, 1.4921539, -1.8072907, -0.106990814, 0
1718, 1639944586, 0.87192184, -0.09922659, 0.29624736, -0.37702066, 2.0174158, -1.0633073, -0.58488464, 0
1719, 1639961253, 0.8717864, -0.099673435, 0.2970058, -0.37661928, 0.5666344, 0.07280968, -1.0763426, 0
1721, 1639994587, 0.8715307, -0.10146654, 0.29639012, -0.3772167, -4.8323502E-4, -0.75252026, 2.340025, 0
1722, 1640011254, 0.8711664, -0.10258295, 0.29710856, -0.37719128, 0.837285, -2.5753624, -1.8815746, 0
1723, 1640027921, 0.8708444, -0.10407984, 0.29756153, -0.37716743, 1.2215142, 0.59268224, 1.3174706, 0
1726, 1640077922, 0.8694711, -0.10819087, 0.30115885, -0.3763226, 0.32974085, 1.7144514, 0.87389565, 0
1727, 1640094589, 0.8698845, -0.10781795, 0.30101618, -0.37558746, 0.110525146, 0.05264993, 0.95910835, 0
1729, 1640127923, 0.8713571, -0.10558951, 0.30021095, -0.3734457, 2.4548438, -4.085101, -2.699257, 0
1732, 1640177924, 0.87409586, -0.10260169, 0.297905, -0.36970627, 1.9597272, -1.5678434, 3.0218468, 0
1733, 1640194591, 0.874711, -0.10327228, 0.2967997, -0.36895287, 2.4413795, -3.9160874, 2.3128052, 0
1734, 1640211258, 0.8748773, -0.102313034, 0.29983437, -0.36636317, 2.4331827, -3.4177876, -2.1038198, 0
1736, 1640244592, 0.87771696, -0.097382426, 0.30561563, -0.35599053, 0.9172527, -3.7002196, -1.7102566, 0
1737, 1640261259, 0.87977254, -0.09662494, 0.30580926, -0.3509211, 0.42510688, -2.6991549, 0.054635048, 0
1738, 1640277926, 0.87986314, -0.098750934, 0.30490404, -0.35088962, 4.053715, -3.9649227, -1.7487879, 0
1740, 1640311260, 0.878445, -0.103863105, 0.30446562, -0.35333866, -0.41610378, -0.7909807, 0.6054325, 0
1741, 1640327927, 0.8770811, -0.10744191, 0.3036618, -0.35633588, -1.2860464, -3.2091696, 1.10112, 0
1742, 1640344594, 0.8755294, -0.11072995, 0.30319408, -0.35952944, -2.5514958, 0.3111362, -0.20553684, 0
1744, 1640377928, 0.8716563, -0.117525734, 0.3033707, -0.3665651, -1.8139967, 2.1337245, -0.8490944, 0
1746, 1640411262, 0.8691813, -0.11978604, 0.30260482, -0.3722983, -3.8751836, 1.2645923, 2.7545443, 0
1748, 1640444596, 0.8683455, -0.118943475, 0.30015293, -0.3764806, -3.5760562, 4.723955, 0.81591606, 0
1749, 1640461263, 0.8688111, -0.11727478, 0.2974573, -0.37806576, -2.6342292, 3.61975, 2.666521, 0
1750, 1640477930, 0.8689291, -0.115556724, 0.29646105, -0.3791049, -3.4615273, 8.565623, 3.1276836, 0
1752, 1640511264, 0.8685649, -0.11207527, 0.29714578, -0.38044593, -1.2737974, 4.020822, -1.5457115, 0
1753, 1640527931, 0.86843973, -0.11080473, 0.29748207, -0.38084072, -0.49798417, 1.2897322, -1.5506916, 0
1756, 1640577932, 0.86895686, -0.10608925, 0.2975339, -0.38096398, -1.8689734, 4.8107285, -2.4112067, 0
1757, 1640594599, 0.8692055, -0.10427128, 0.2976967, -0.38077122, -0.12432595, 2.6675816, -4.9225225, 0
1759, 1640627933, 0.8700476, -0.10282127, 0.29471442, -0.38156122, 0.8219327, -2.8365366, 10.805988, 0
1761, 1640661267, 0.8684573, -0.10465306, 0.2988066, -0.38150352, -3.3096318, 9.075075, -4.8302593, 0
1763, 1640694601, 0.8672425, -0.10668833, 0.3011052, -0.3818959, -0.6007179, -0.80378276, 4.0751886, 0
1764, 1640711268, 0.8666749, -0.1080741, 0.30194157, -0.38213477, 0.8075208, -3.5815399, 0.6818094, 0
1765, 1640727935, 0.8661351, -0.10936287, 0.30275962, -0.38234413, 0.21750829, 1.324175, -1.6969423, 0
1767, 1640761269, 0.86732316, -0.10906026, 0.3001857, -0.38176638, -0.01094297, 2.4332764, 2.4286232, 0
1768, 1640777936, 0.86817455, -0.10894898, 0.29861408, -0.38109478, 1.1328509, -1.6885954, 1.2483006, 0
1769, 1640794603, 0.86888045, -0.10889816, 0.29787946, -0.3800744, -1.45087, 3.472656, 1.056737, 0
1772, 1640844604, 0.87204206, -0.10753132, 0.29438558, -0.37592205, 1.5492679, -3.7888575, -3.8262787, 0
1773, 1640861271, 0.8730566, -0.10704786, 0.2924919, -0.37518317, -1.4874805, 0.99540377, 0.117910385, 0
1776, 1640911272, 0.8770196, -0.10187234, 0.28875726, -0.37024158, 1.3641226, 0.15491381, -2.5803761, 0
1777, 1640927939, 0.8777613, -0.100392945, 0.28826627, -0.3692691, 2.4781728, -1.6411368, -4.0081916, 0
1779, 1640961273, 0.87976366, -0.09735447, 0.2848754, -0.36794668, -2.6104276, -1.485663, 0.94137, 0
1780, 1640977940, 0.8804274, -0.09635547, 0.28371143, -0.36752108, -3.0629056, 2.0599751, 2.8410196, 0
1782, 1641011274, 0.88123333, -0.09417594, 0.2827875, -0.366866, 1.1847298, 0.66429555, 0.008345604, 0
1783, 1641027941, 0.8813982, -0.09258056, 0.28330582, -0.3664762, 0.20967683, -1.4907533, -1.2814007, 0
1784, 1641044608, 0.88145185, -0.09130513, 0.28329685, -0.36667404, -1.0010302, -2.3737204, -0.30072784, 0
1786, 1641077942, 0.8813879, -0.08884489, 0.283503, -0.36727214, -0.09282359, -1.1450489, 0.3156128, 0
1788, 1641111276, 0.88151944, -0.086515576, 0.28239742, -0.36836267, -0.5721424, -0.006002273, 0.8020315, 0
1791, 1641161277, 0.8800842, -0.085521765, 0.2837337, -0.37099034, 0.6843415, -3.2668269, -1.6341295, 0
1792, 1641177944, 0.87940085, -0.08501845, 0.28471437, -0.3719737, -1.3348484, -0.64254135, -0.22573376, 0
1794, 1641211278, 0.87844944, -0.085265055, 0.28397858, -0.37471735, -0.11853719, -2.5262747, -0.6305399, 0
1795, 1641227945, 0.8779119, -0.0848999, 0.28421745, -0.3758775, 0.13580066, -0.027943311, 0.171669, 0
1796, 1641244612, 0.8775262, -0.08522325, 0.2832933, -0.37739953, 0.89593804, -1.9480253, 1.2112522, 0
1798, 1641277946, 0.8766605, -0.084141806, 0.28393254, -0.37916973, -0.33904457, 1.1739167, -0.45717144, 0
1799, 1641294613, 0.8766471, -0.083698444, 0.28317538, -0.37986413, -0.6367712, 0.22868314, 1.9587097, 0
1800, 1641311280, 0.87660044, -0.083339214, 0.28265592, -0.38043743, -0.0876924, -2.0742128, -0.5668812, 0
1802, 1641344614, 0.87684625, -0.0825232, 0.28085947, -0.38137805, 1.519199, -1.7976669, -1.3567848, 0
1806, 1641411282, 0.8764679, -0.08136514, 0.2782946, -0.3843655, -0.26449898, -1.0020102, 0.608222, 0
1807, 1641427949, 0.87590235, -0.08191188, 0.27872613, -0.38522458, -0.053686023, -1.0497923, 0.9753971, 0
1808, 1641444616, 0.8747007, -0.08299243, 0.281246, -0.38589153, -0.9633791, -0.2985815, -0.5724821, 0
1810, 1641477950, 0.87201554, -0.085411504, 0.28622007, -0.38777894, 0.4806519, -0.6289685, -2.6160984, 0
1811, 1641494617, 0.87120825, -0.08592839, 0.28720775, -0.38874766, -1.1530946, 0.039245635, 1.4307356, 0
1813, 1641527951, 0.8692839, -0.08728309, 0.29095548, -0.38996512, 0.8568892, 0.18209198, 2.5351048, 0
1814, 1641544618, 0.8678946, -0.08802951, 0.29503003, -0.38983077, 1.6847242, -1.75802, 0.5341139, 0
1815, 1641561285, 0.8665354, -0.08844171, 0.29954132, -0.38932002, 0.96734977, -2.9291148, -0.6215286, 0
1817, 1641594619, 0.86389667, -0.09092186, 0.3060627, -0.38954097, 0.5699828, -1.4035418, -1.5393829, 0
1818, 1641611286, 0.8627531, -0.092813015, 0.30678397, -0.391059, 1.6113619, -1.9142113, -3.2126513, 0
1821, 1641661287, 0.85954183, -0.09954261, 0.3069385, -0.39631873, 1.5655426, 2.1062732, -4.039761, 0
1822, 1641677954, 0.8586507, -0.10236766, 0.30721867, -0.39731267, 0.9868952, 3.4846025, -0.08398914, 0
1823, 1641694621, 0.85829896, -0.10462528, 0.30723298, -0.39747357, 1.1697781, -0.8203963, 0.6963959, 0
