sep=,
DeviceTag:,Xsens_DOT_4,,,,,,,,,,,,,,,,,
FirmwareVersion:,3.0.0,,,,,,,,,,,,,,,,,
AppVersion:,2023.6.1,,,,,,,,,,,,,,,,,
SyncStatus:,Synced,,,,,,,,,,,,,,,,,
OutputRate:,60Hz,,,,,,,,,,,,,,,,,
FilterProfile:,General,,,,,,,,,,,,,,,,,
Measurement Mode:,Sensor fusion Mode - Extended (Quaternion),,,,,,,,,,,,,,,,,
StartTime:,2025-05-05 11:38:09.191 +0200,,,,,,,,,,,,,,,,,
 2025,,,,,,,,,,,,,,,,,,,

PacketCounter,SampleTimeFine,Quat_W,Quat_X,Quat_Y,Quat_Z,FreeAcc_X,FreeAcc_Y,FreeAcc_Z,Status
1, 1882199431, -0.3880747, 0.62751204, 0.37509835, 0.56118006, 0.8693579, 1.8605728, -0.13336658, 0
2, 1882216098, -0.38821483, 0.62737644, 0.3749735, 0.56131816, 0.85105115, 1.8861423, -0.1405716, 0
3, 1882232765, -0.38835508, 0.6272528, 0.3748372, 0.5614503, 0.8980777, 1.8710606, -0.14717388, 0
4, 1882249432, -0.38849407, 0.627127, 0.37471828, 0.56157404, 0.9468075, 1.8521943, -0.14753342, 0
5, 1882266099, -0.3886245, 0.6269927, 0.3745998, 0.5617129, 0.8762697, 1.8654075, -0.15902805, 0
6, 1882282766, -0.3887552, 0.6268763, 0.37445554, 0.5618486, 0.83467984, 1.8591276, -0.15872955, 0
7, 1882299433, -0.38889778, 0.6267648, 0.37429553, 0.5619809, 0.86025876, 1.8110201, -0.12621498, 0
8, 1882316100, -0.38905331, 0.6266487, 0.37414217, 0.5621048, 0.9275391, 1.7609582, -0.10708904, 0
9, 1882332767, -0.38921443, 0.626527, 0.37399524, 0.56222653, 0.8870911, 1.7340349, -0.10730934, 0
10, 1882349434, -0.38937426, 0.6264197, 0.3738448, 0.5623356, 0.8485665, 1.7990241, -0.11729622, 0
11, 1882366101, -0.38955683, 0.62631667, 0.37366265, 0.56244487, 0.89232385, 1.819644, -0.13621998, 0
12, 1882382768, -0.38976237, 0.6262111, 0.37346104, 0.56255376, 0.96704066, 1.8053334, -0.14422607, 0
13, 1882399435, -0.3899724, 0.6261178, 0.3732604, 0.5626453, 0.9046221, 1.7907474, -0.14808273, 0
14, 1882416102, -0.39020652, 0.6260474, 0.37302935, 0.56271476, 0.88492095, 1.7994881, -0.17055988, 0
15, 1882432769, -0.39043722, 0.62598675, 0.3727939, 0.56277823, 0.8878829, 1.7938892, -0.1300726, 0
16, 1882449436, -0.39066663, 0.62592196, 0.37255085, 0.5628521, 0.86323977, 1.80505, -0.12829399, 0
17, 1882466103, -0.39089033, 0.62584686, 0.37233788, 0.5629209, 0.8277725, 1.8337836, -0.12799263, 0
18, 1882482770, -0.39109743, 0.6257749, 0.3721091, 0.5630084, 0.79258287, 1.8057113, -0.12993717, 0
19, 1882499437, -0.39130706, 0.62568593, 0.37190938, 0.5630938, 0.8439039, 1.7919805, -0.10866547, 0
20, 1882516104, -0.39150566, 0.6255889, 0.37172422, 0.56318563, 0.8211609, 1.7509665, -0.09676933, 0
21, 1882532771, -0.39170218, 0.62547916, 0.3715463, 0.5632882, 0.7880312, 1.7707195, -0.10381508, 0
22, 1882549438, -0.39188695, 0.62537366, 0.37136233, 0.56339824, 0.7863305, 1.7772863, -0.1385212, 0
23, 1882566105, -0.39207542, 0.62525916, 0.37119168, 0.5635068, 0.8628778, 1.7452886, -0.10137081, 0
24, 1882582772, -0.39224225, 0.62514824, 0.37102723, 0.5636218, 0.8441484, 1.7696848, -0.12293148, 0
25, 1882599439, -0.39240623, 0.6250348, 0.370865, 0.56374025, 0.7792427, 1.8001139, -0.1253233, 0
26, 1882616106, -0.39256784, 0.6249365, 0.3706929, 0.5638501, 0.78627133, 1.7555884, -0.109954834, 0
27, 1882632773, -0.39272082, 0.6248254, 0.3705335, 0.5639714, 0.8151495, 1.7321361, -0.112342834, 0
28, 1882649440, -0.3928555, 0.624701, 0.37039727, 0.56410486, 0.79313135, 1.7604215, -0.10854149, 0
29, 1882666107, -0.39297462, 0.6245644, 0.37025988, 0.56426316, 0.77627903, 1.7837132, -0.13976288, 0
30, 1882682774, -0.3930724, 0.62442446, 0.37014934, 0.5644224, 0.76499844, 1.7880336, -0.15244389, 0
31, 1882699441, -0.393148, 0.6242771, 0.37007028, 0.5645846, 0.7824745, 1.7447304, -0.13578606, 0
32, 1882716108, -0.39319873, 0.6241204, 0.37000075, 0.56476814, 0.82290953, 1.7642393, -0.13070202, 0
33, 1882732775, -0.3932316, 0.6239535, 0.36995974, 0.5649565, 0.81228566, 1.7687947, -0.11117458, 0
34, 1882749442, -0.39325878, 0.6237798, 0.36992562, 0.5651518, 0.8315985, 1.7701632, -0.13707161, 0
35, 1882766109, -0.3932965, 0.6236093, 0.36988962, 0.56533724, 0.833353, 1.7357609, -0.10077858, 0
36, 1882782776, -0.3933556, 0.6234483, 0.3698429, 0.5655041, 0.8736079, 1.7152447, -0.07992649, 0
37, 1882799443, -0.39343026, 0.6232854, 0.3697616, 0.565685, 0.89566714, 1.6483037, -0.037050247, 0
38, 1882816110, -0.3935361, 0.62311584, 0.3696648, 0.5658614, 0.8759384, 1.5959768, -0.061372757, 0
39, 1882832777, -0.393642, 0.6229727, 0.36955106, 0.56601965, 0.83832794, 1.5822719, -0.11316395, 0
40, 1882849444, -0.39376885, 0.6228311, 0.3694279, 0.56616765, 0.78213745, 1.6101863, -0.111206055, 0
41, 1882866111, -0.393888, 0.62269926, 0.36930707, 0.5663087, 0.784, 1.7020669, -0.10875988, 0
42, 1882882778, -0.39402926, 0.622571, 0.36916846, 0.5664415, 0.766887, 1.7113968, -0.11522198, 0
43, 1882899445, -0.39416716, 0.6224445, 0.3690253, 0.56657785, 0.8026714, 1.7308897, -0.13186741, 0
44, 1882916112, -0.3942916, 0.6223178, 0.36890104, 0.5667114, 0.82672346, 1.7349486, -0.120399475, 0
45, 1882932779, -0.39440155, 0.622189, 0.36877963, 0.56685543, 0.83632, 1.7452503, -0.1396513, 0
46, 1882949446, -0.39450455, 0.6220482, 0.36867443, 0.5670065, 0.7879493, 1.7029833, -0.12460899, 0
47, 1882966113, -0.39461088, 0.62191075, 0.36857867, 0.56714565, 0.7579863, 1.6713165, -0.10525608, 0
48, 1882982780, -0.39471948, 0.6217623, 0.3684946, 0.56728745, 0.76960325, 1.6078618, -0.08057499, 0
49, 1882999447, -0.39482585, 0.6216107, 0.3684167, 0.5674302, 0.7585044, 1.5819216, -0.056402206, 0
50, 1883016114, -0.3949146, 0.62146604, 0.36833987, 0.56757677, 0.764411, 1.5652373, -0.09345913, 0
51, 1883032781, -0.39501184, 0.62131643, 0.36826593, 0.5677207, 0.7832395, 1.6149312, -0.079875946, 0
52, 1883049448, -0.39510956, 0.62115955, 0.36819372, 0.56787133, 0.7695997, 1.6643338, -0.07186222, 0
53, 1883066115, -0.39520162, 0.62100184, 0.36811262, 0.5680323, 0.74825066, 1.6977643, -0.085458755, 0
54, 1883082782, -0.3952936, 0.6208373, 0.3680375, 0.568197, 0.749588, 1.6639887, -0.107328415, 0
55, 1883099449, -0.39537856, 0.6206744, 0.36795923, 0.5683662, 0.7341177, 1.627925, -0.09289646, 0
56, 1883116116, -0.39545435, 0.6205116, 0.36790052, 0.5685293, 0.72250617, 1.6418184, -0.09788036, 0
57, 1883132783, -0.39551684, 0.62034655, 0.36783946, 0.5687055, 0.7677896, 1.6360754, -0.11408806, 0
58, 1883149450, -0.39558843, 0.6201774, 0.3677917, 0.5688709, 0.8050838, 1.6451477, -0.10358429, 0
59, 1883166117, -0.3956429, 0.6200222, 0.36772996, 0.5690421, 0.81881946, 1.6403983, -0.09959602, 0
60, 1883182784, -0.39573067, 0.6198594, 0.3676602, 0.56920356, 0.76924163, 1.6206802, -0.09929848, 0
61, 1883199451, -0.39580816, 0.61971194, 0.36756876, 0.5693693, 0.760104, 1.5592264, -0.06585407, 0
62, 1883216118, -0.39588523, 0.6195709, 0.36747372, 0.5695305, 0.7591342, 1.5172274, -0.09912586, 0
63, 1883232785, -0.39597017, 0.61942834, 0.3673882, 0.5696817, 0.77251285, 1.5629822, -0.07442188, 0
64, 1883249452, -0.3960433, 0.6192851, 0.36728898, 0.56985044, 0.7779976, 1.6036271, -0.09008598, 0
65, 1883266119, -0.3961304, 0.6191407, 0.36719063, 0.5700104, 0.75190026, 1.5597559, -0.058667183, 0
66, 1883282786, -0.39620367, 0.61901313, 0.3670649, 0.57017887, 0.7409022, 1.527088, -0.06821251, 0
67, 1883299453, -0.3963013, 0.6188775, 0.36696023, 0.57032573, 0.738018, 1.5038508, -0.09235096, 0
68, 1883316120, -0.3964031, 0.61873937, 0.36687902, 0.570457, 0.73791325, 1.5509528, -0.07047367, 0
69, 1883332787, -0.39651814, 0.61858755, 0.36679858, 0.57059336, 0.7554964, 1.5969322, -0.10093117, 0
70, 1883349454, -0.39662918, 0.6184331, 0.36670917, 0.5707411, 0.79031575, 1.5730861, -0.07256985, 0
71, 1883366121, -0.39673105, 0.61828595, 0.3666197, 0.57088715, 0.77782786, 1.566883, -0.07098293, 0
72, 1883382788, -0.39683202, 0.6181469, 0.36652428, 0.5710288, 0.68760943, 1.5653394, -0.113482475, 0
73, 1883399455, -0.39694193, 0.61800003, 0.36643568, 0.5711682, 0.6582509, 1.529383, -0.053159714, 0
74, 1883416122, -0.3970545, 0.6178538, 0.36634648, 0.57130545, 0.72972935, 1.5048131, -0.07439995, 0
75, 1883432789, -0.3971328, 0.61770546, 0.36626098, 0.571466, 0.7593278, 1.5157409, -0.06447506, 0
76, 1883449456, -0.3972209, 0.6175485, 0.3661879, 0.57162136, 0.69245857, 1.539331, -0.05809498, 0
77, 1883466123, -0.3973014, 0.6173953, 0.36609095, 0.5717932, 0.67805827, 1.540016, -0.05111599, 0
78, 1883482790, -0.39739585, 0.6172364, 0.36599857, 0.5719581, 0.6867875, 1.5127747, -0.041916847, 0
79, 1883499457, -0.39747736, 0.61707693, 0.36591926, 0.5721243, 0.66471076, 1.4857696, -0.09068203, 0
80, 1883516124, -0.39753813, 0.6169182, 0.36584648, 0.5722998, 0.6174723, 1.5276198, -0.054908752, 0
81, 1883532791, -0.39755225, 0.6167672, 0.3657731, 0.57249933, 0.6014203, 1.5328704, -0.08094311, 0
82, 1883549458, -0.3975645, 0.6165792, 0.36575732, 0.5727035, 0.6214316, 1.522662, -0.06612778, 0
83, 1883566125, -0.39754564, 0.61638725, 0.36576247, 0.57291996, 0.64296776, 1.5037925, -0.07924271, 0
84, 1883582792, -0.39751112, 0.61618614, 0.36579245, 0.57314086, 0.7212972, 1.4985731, -0.07833958, 0
85, 1883599459, -0.39743876, 0.6159737, 0.36584708, 0.5733845, 0.78632385, 1.4920772, -0.05446148, 0
86, 1883616126, -0.39734262, 0.6157335, 0.36592487, 0.57365954, 0.7057759, 1.5453776, -0.028707504, 0
87, 1883632793, -0.3972696, 0.6154778, 0.36601287, 0.5739284, 0.6093741, 1.554421, -0.019888878, 0
88, 1883649460, -0.39720047, 0.6152237, 0.3660993, 0.5741934, 0.69388366, 1.5027763, -0.06598759, 0
89, 1883666127, -0.3970965, 0.61497283, 0.36619493, 0.57447326, 0.7717236, 1.4755166, -0.09879398, 0
90, 1883682794, -0.3970071, 0.6146968, 0.36633068, 0.57474345, 0.7138791, 1.4843569, -0.11893749, 0
91, 1883699461, -0.3968884, 0.6144429, 0.3664205, 0.57503974, 0.7132332, 1.5107933, -0.11088848, 0
92, 1883716128, -0.39677152, 0.61419755, 0.3665253, 0.5753156, 0.7472959, 1.4874774, -0.06975746, 0
93, 1883732795, -0.39668304, 0.6139336, 0.36665982, 0.57557267, 0.7410933, 1.5072504, -0.10619831, 0
94, 1883749462, -0.39660564, 0.6137006, 0.36674556, 0.5758198, 0.680898, 1.4429988, -0.11307716, 0
95, 1883766129, -0.3965431, 0.61350113, 0.3667877, 0.57604855, 0.7388934, 1.3401575, -0.04057598, 0
96, 1883782796, -0.39650983, 0.6132968, 0.3668242, 0.5762658, 0.7757649, 1.3387878, -0.006287575, 0
97, 1883799463, -0.3964852, 0.61309505, 0.36685443, 0.5764781, 0.73086053, 1.3992668, -0.018859863, 0
98, 1883816130, -0.3964786, 0.61289805, 0.36686572, 0.57668483, 0.686613, 1.4025145, -0.01638794, 0
99, 1883832797, -0.396501, 0.61270547, 0.36686248, 0.5768761, 0.70124197, 1.4095135, -0.018533707, 0
100, 1883849464, -0.3965361, 0.6125255, 0.3668376, 0.57705885, 0.749172, 1.3857547, -0.06791687, 0
101, 1883866131, -0.3966072, 0.6123592, 0.36679143, 0.57721585, 0.77534175, 1.4068683, -0.085556984, 0
102, 1883882798, -0.39670002, 0.61222225, 0.36671424, 0.57734644, 0.77516335, 1.4002709, -0.13257313, 0
103, 1883899465, -0.396802, 0.61211467, 0.36661404, 0.5774539, 0.7897619, 1.4436126, -0.12687397, 0
104, 1883916132, -0.3969377, 0.61202174, 0.36648452, 0.5775414, 0.77706975, 1.483713, -0.067736626, 0
105, 1883932799, -0.39711103, 0.6119189, 0.36634693, 0.5776186, 0.69887394, 1.4799944, -0.017331123, 0
106, 1883949466, -0.39729634, 0.6118295, 0.36616755, 0.57769954, 0.630886, 1.3552947, -0.033662796, 0
107, 1883966133, -0.3974767, 0.61175305, 0.36597845, 0.57777625, 0.6160855, 1.2470372, -0.058757782, 0
108, 1883982800, -0.39766446, 0.6116816, 0.36578652, 0.57784426, 0.613687, 1.2663045, -0.020376205, 0
109, 1883999467, -0.39788637, 0.61157656, 0.36565334, 0.57788694, 0.60152745, 1.3479578, 0.053495407, 0
110, 1884016134, -0.39807907, 0.61148685, 0.36547714, 0.5779606, 0.6450348, 1.455704, 0.027255058, 0
111, 1884032801, -0.39826554, 0.61139274, 0.36529133, 0.57804924, 0.6649883, 1.4183707, -0.056074142, 0
112, 1884049468, -0.39844126, 0.61129475, 0.36511174, 0.57814527, 0.6674998, 1.4031447, -0.0787611, 0
113, 1884066135, -0.3986075, 0.61120015, 0.36491978, 0.5782519, 0.6405739, 1.381149, -0.084386826, 0
114, 1884082802, -0.39877614, 0.61110646, 0.36472803, 0.57835555, 0.6184093, 1.3860599, -0.03342247, 0
115, 1884099469, -0.3989204, 0.61101985, 0.36455524, 0.57845646, 0.62742794, 1.4111354, -0.09359169, 0
116, 1884116136, -0.39906222, 0.6109173, 0.36442274, 0.5785505, 0.6017929, 1.4313227, -0.10610294, 0
117, 1884132803, -0.39918113, 0.6108194, 0.36428016, 0.5786615, 0.5397318, 1.456841, -0.104810715, 0
118, 1884149470, -0.39929202, 0.6107173, 0.36413872, 0.57878196, 0.5668761, 1.4198393, -0.052897453, 0
119, 1884166137, -0.3993867, 0.6106233, 0.36400685, 0.57889867, 0.668065, 1.4309667, -0.07789421, 0
120, 1884182804, -0.39945534, 0.6105321, 0.36387947, 0.57902753, 0.68642306, 1.4522848, -0.047761917, 0
121, 1884199471, -0.39949027, 0.6104176, 0.36378166, 0.5791856, 0.6155569, 1.4977078, -0.00804615, 0
122, 1884216138, -0.39953214, 0.6102613, 0.3637408, 0.57934713, 0.5155466, 1.3835607, -0.019978523, 0
123, 1884232805, -0.39950925, 0.61011356, 0.36367142, 0.5795619, 0.54857, 1.1937245, -0.023721695, 0
124, 1884249472, -0.39954945, 0.60990214, 0.36373052, 0.5797196, 0.60232294, 1.1083229, 0.044549942, 0
125, 1884266139, -0.39952525, 0.609709, 0.36376172, 0.57992005, 0.64263755, 1.2001144, 0.027377129, 0
126, 1884282806, -0.39951706, 0.60947907, 0.3638221, 0.5801294, 0.67846555, 1.254191, 0.021146774, 0
127, 1884299473, -0.39950612, 0.6092137, 0.36391696, 0.58035606, 0.657363, 1.2992268, -0.060839653, 0
128, 1884316140, -0.39948216, 0.60897356, 0.36399555, 0.5805753, 0.5244794, 1.4152895, -0.076789856, 0
129, 1884332807, -0.3994547, 0.6087721, 0.3640345, 0.5807809, 0.5375507, 1.493216, -0.10300255, 0
130, 1884349474, -0.3994235, 0.6085968, 0.3640322, 0.5809876, 0.6923841, 1.4869212, -0.13360691, 0
131, 1884366141, -0.39943272, 0.60838765, 0.36409897, 0.58115834, 0.711768, 1.3767908, -0.098436356, 0
132, 1884382808, -0.39937246, 0.6082005, 0.3641236, 0.58138025, 0.5296229, 1.3044693, -0.040099144, 0
133, 1884399475, -0.39932147, 0.60801506, 0.36413386, 0.5816028, 0.486563, 1.2435879, 0.015668869, 0
134, 1884416142, -0.39924446, 0.6078175, 0.36415872, 0.58184654, 0.60548186, 1.1974515, -0.0028324127, 0
135, 1884432809, -0.39916697, 0.6075884, 0.36422986, 0.58209443, 0.57099324, 1.2727606, -0.025253296, 0
136, 1884449476, -0.39909858, 0.6073703, 0.36430237, 0.58232355, 0.47948167, 1.3452722, 0.00439167, 0
137, 1884466143, -0.39904332, 0.60717726, 0.36434063, 0.58253884, 0.56039953, 1.2514415, -0.027403831, 0
138, 1884482810, -0.3990025, 0.60696596, 0.3644115, 0.5827424, 0.6999421, 1.2040201, -0.102822304, 0
139, 1884499477, -0.39891428, 0.6067431, 0.36449805, 0.58298075, 0.6834893, 1.251539, -0.11565304, 0
140, 1884516144, -0.39882365, 0.6065279, 0.36457974, 0.58321565, 0.53483486, 1.3652105, -0.020524979, 0
141, 1884532811, -0.39876834, 0.6063411, 0.36459374, 0.5834388, 0.5576409, 1.3290639, 0.0026140213, 0
142, 1884549478, -0.39872897, 0.6061848, 0.364558, 0.5836504, 0.6876784, 1.1587641, -0.0224514, 0
143, 1884566145, -0.39872622, 0.60604274, 0.3645191, 0.58382416, 0.6347903, 1.1885732, 0.04834938, 0
144, 1884582812, -0.3987442, 0.60591155, 0.3644617, 0.5839838, 0.60169387, 1.2860843, 0.08889675, 0
145, 1884599479, -0.39876038, 0.6057278, 0.36442906, 0.5841838, 0.6478164, 1.195439, 0.035191536, 0
146, 1884616146, -0.39872462, 0.6055149, 0.36443877, 0.5844228, 0.56999904, 1.1210216, -0.005867958, 0
147, 1884632813, -0.3987019, 0.60527563, 0.3645035, 0.5846457, 0.47568363, 1.2157581, -0.042819023, 0
148, 1884649480, -0.39866853, 0.60505384, 0.36456347, 0.58486044, 0.54296005, 1.2808211, -0.07048702, 0
149, 1884666147, -0.3985951, 0.6048522, 0.36460286, 0.5850945, 0.66669756, 1.3569554, -0.093605995, 0
150, 1884682814, -0.39852437, 0.6046507, 0.36466372, 0.58531326, 0.65353054, 1.4138641, -0.086125374, 0
151, 1884699481, -0.39847237, 0.6044487, 0.36470556, 0.58553106, 0.6043889, 1.3702034, -0.09040165, 0
152, 1884716148, -0.39844584, 0.6042646, 0.3647294, 0.58572423, 0.61941916, 1.2225255, -0.05527115, 0
153, 1884732815, -0.3984287, 0.60407716, 0.36476755, 0.5859055, 0.66684306, 1.0961342, -0.06411171, 0
154, 1884749482, -0.39839092, 0.603903, 0.36480972, 0.5860844, 0.6068948, 1.1241491, -0.034812927, 0
155, 1884766149, -0.3983574, 0.6037338, 0.3648359, 0.5862653, 0.5212038, 1.2261428, -0.029184341, 0
156, 1884782816, -0.3983428, 0.603584, 0.36484385, 0.5864244, 0.54072654, 1.2968695, -0.07349396, 0
157, 1884799483, -0.3983646, 0.6034474, 0.36482683, 0.5865608, 0.6099368, 1.275193, -0.043554306, 0
158, 1884816150, -0.39844912, 0.6033189, 0.36479384, 0.5866559, 0.628219, 1.2059689, 0.032217026, 0
159, 1884832817, -0.39856035, 0.60323566, 0.3646438, 0.5867593, 0.6900945, 1.0774041, 0.19434261, 0
160, 1884849484, -0.39872736, 0.6031515, 0.36446932, 0.5868406, 0.7231716, 0.88437283, 0.17479324, 0
161, 1884866151, -0.39892772, 0.6030461, 0.36428845, 0.58692515, 0.65305156, 0.7942464, 0.15775204, 0
162, 1884882818, -0.39907348, 0.6029612, 0.36405927, 0.5870554, 0.42518938, 0.86293525, -0.016393661, 0
163, 1884899485, -0.39920488, 0.6029044, 0.36381057, 0.58717877, 0.30901068, 1.116302, -0.03147888, 0
164, 1884916152, -0.39939323, 0.60284805, 0.36359763, 0.58724034, 0.42478144, 1.3929747, -0.13195515, 0
165, 1884932819, -0.39957017, 0.6027803, 0.3633963, 0.58731425, 0.5774615, 1.5740472, -0.13751316, 0
166, 1884949486, -0.39972174, 0.6026896, 0.3632615, 0.58738744, 0.66331226, 1.5996299, -0.20590115, 0
167, 1884966153, -0.39980796, 0.60259026, 0.36315095, 0.58749914, 0.6389155, 1.5023143, -0.1615467, 0
168, 1884982820, -0.39982527, 0.6024695, 0.363098, 0.58764386, 0.61274064, 1.3060868, -0.06554413, 0
169, 1884999487, -0.39977083, 0.60234946, 0.36306795, 0.58782256, 0.4514073, 1.1294166, -0.02780056, 0
170, 1885016154, -0.39979157, 0.6021622, 0.36315274, 0.58794796, 0.37011042, 0.98403704, -0.0067443848, 0
171, 1885032821, -0.39977035, 0.602021, 0.3631462, 0.58811086, 0.41492343, 0.9422354, 0.08745861, 0
172, 1885049488, -0.39977777, 0.6018702, 0.36313632, 0.5882664, 0.5471405, 0.9904606, 0.15949154, 0
173, 1885066155, -0.39979687, 0.60171074, 0.3631166, 0.58842856, 0.57471573, 1.0317045, 0.116184235, 0
174, 1885082822, -0.3998347, 0.6015374, 0.36309734, 0.5885918, 0.54030615, 1.1085943, 0.09490681, 0
175, 1885099489, -0.39985636, 0.6013741, 0.36305204, 0.5887721, 0.5107511, 1.1026773, 0.035373688, 0
176, 1885116156, -0.39988682, 0.60120577, 0.36302644, 0.5889389, 0.5412124, 1.067934, -0.0043992996, 0
177, 1885132823, -0.3999101, 0.6010075, 0.36303487, 0.5891204, 0.5534291, 1.0627898, -0.04860115, 0
178, 1885149490, -0.39990476, 0.60081035, 0.3630523, 0.58931434, 0.4650644, 1.1611358, -0.07070446, 0
179, 1885166157, -0.39989123, 0.60062975, 0.3630945, 0.5894816, 0.45053136, 1.260022, -0.06328583, 0
180, 1885182824, -0.3998579, 0.60045403, 0.36312824, 0.5896624, 0.54603904, 1.2789583, -0.112234116, 0
181, 1885199491, -0.3998089, 0.60027987, 0.3631863, 0.58983713, 0.64052254, 1.3545873, -0.09498787, 0
182, 1885216158, -0.39977184, 0.6001253, 0.36319613, 0.5900134, 0.6469417, 1.3091761, -0.06477928, 0
183, 1885232825, -0.39979315, 0.59997636, 0.36317557, 0.5901631, 0.63476205, 1.1741146, -0.06757355, 0
184, 1885249492, -0.3998178, 0.5998755, 0.36309436, 0.59029895, 0.5960715, 0.9896968, -0.009202957, 0
185, 1885266159, -0.39987236, 0.59978026, 0.3630126, 0.590409, 0.55839413, 0.9216076, 0.036218643, 0
186, 1885282826, -0.3999347, 0.5996979, 0.36289456, 0.590523, 0.5131027, 0.9203495, 0.07291031, 0
187, 1885299493, -0.40002167, 0.5996175, 0.3627767, 0.59061825, 0.45641547, 0.9486176, 0.05471134, 0
188, 1885316160, -0.4001549, 0.5995402, 0.3626439, 0.590688, 0.42895523, 0.9765373, 0.06941986, 0
189, 1885332827, -0.40033042, 0.59946316, 0.3625163, 0.5907256, 0.52652, 1.0093186, 0.071995735, 0
190, 1885349494, -0.40048757, 0.5993805, 0.3623625, 0.5907972, 0.60700744, 1.0389354, 0.020848274, 0
191, 1885366161, -0.40065414, 0.59927064, 0.36227065, 0.590852, 0.5895457, 1.0826174, -0.026594162, 0
192, 1885382828, -0.40081137, 0.5991544, 0.36217868, 0.59091955, 0.5015538, 1.1197023, -0.004814148, 0
193, 1885399495, -0.40094328, 0.599073, 0.36204258, 0.59099597, 0.4757954, 1.1324178, -0.0455122, 0
194, 1885416162, -0.40109414, 0.59900635, 0.3618884, 0.5910555, 0.498861, 1.1765031, -0.05997467, 0
195, 1885432829, -0.4012176, 0.5989612, 0.36170396, 0.5911303, 0.5144372, 1.2181892, -0.051404, 0
196, 1885449496, -0.4013622, 0.5988925, 0.36155695, 0.59119195, 0.5168763, 1.2038692, -0.0038290024, 0
197, 1885466163, -0.40150547, 0.59881324, 0.36142984, 0.59125257, 0.49213988, 1.1265514, -0.02108097, 0
198, 1885482830, -0.40159482, 0.5987557, 0.36129498, 0.5913327, 0.42460823, 1.0431708, -0.003821373, 0
199, 1885499497, -0.4016744, 0.5986892, 0.36119977, 0.59140414, 0.3831192, 0.96040076, 0.046757698, 0
200, 1885516164, -0.40172476, 0.59859395, 0.36111832, 0.5915161, 0.41780964, 0.929178, 0.08397293, 0
201, 1885532831, -0.4017545, 0.59846324, 0.36107495, 0.59165454, 0.41543972, 0.952023, 0.051891327, 0
202, 1885549498, -0.40178615, 0.5983205, 0.3610576, 0.591788, 0.4235845, 1.0034175, 0.06510162, 0
203, 1885566165, -0.40181437, 0.5981767, 0.36104456, 0.59192216, 0.44775668, 1.0689046, 0.03150177, 0
204, 1885582832, -0.40182224, 0.5980302, 0.36102274, 0.5920782, 0.5088389, 1.1102631, 0.0025157928, 0
205, 1885599499, -0.40184394, 0.59786505, 0.3610178, 0.59223324, 0.55715936, 1.0749427, -0.04918003, 0
206, 1885616166, -0.40186265, 0.59770703, 0.36102942, 0.5923728, 0.50409985, 1.0762149, -0.009138107, 0
207, 1885632833, -0.40189755, 0.59752285, 0.36106023, 0.59251624, 0.43118945, 1.0643556, -0.010331154, 0
208, 1885649500, -0.4018553, 0.5973766, 0.361055, 0.5926956, 0.45016828, 1.0612212, 0.0033740997, 0
209, 1885666167, -0.40186912, 0.5971923, 0.3610996, 0.5928447, 0.4570623, 1.0524678, -0.019282341, 0
210, 1885682834, -0.40186918, 0.59703016, 0.36111775, 0.5929969, 0.5029766, 1.0134294, -0.034934044, 0
211, 1885699501, -0.4018951, 0.59685785, 0.3611383, 0.5931403, 0.48642343, 1.0251384, 0.05618763, 0
212, 1885716168, -0.4018979, 0.5967114, 0.36114705, 0.59328043, 0.4871304, 1.0165975, 0.027456284, 0
213, 1885732835, -0.40187868, 0.59657156, 0.36112508, 0.5934474, 0.5761717, 0.9866754, -0.06797981, 0
214, 1885749502, -0.40184617, 0.5964341, 0.36110932, 0.59361714, 0.6193996, 1.0523521, 0.06638336, 0
215, 1885766169, -0.4018917, 0.5962631, 0.36111432, 0.593755, 0.4841836, 1.2690777, 0.2887478, 0
216, 1885782836, -0.40194663, 0.5961087, 0.3610371, 0.5939198, 0.22048715, 1.2015328, -0.19100857, 0
217, 1885799503, -0.40205684, 0.5959737, 0.36096537, 0.5940245, 0.10995295, 0.7574389, -0.28995228, 0
218, 1885816170, -0.4021986, 0.59588385, 0.36094832, 0.5940287, 0.4759933, 0.3240075, -0.20861626, 0
219, 1885832837, -0.40215433, 0.5959014, 0.36083007, 0.59411305, 0.7212, 0.4354227, -0.14791203, 0
220, 1885849504, -0.40215853, 0.59592694, 0.36074424, 0.5941367, 0.42382494, 0.87635297, 0.05862522, 0
221, 1885866171, -0.4022397, 0.59594065, 0.360608, 0.5941506, 0.2366886, 1.3605554, 0.4390068, 0
222, 1885882838, -0.40235367, 0.59589386, 0.36043718, 0.59422404, 0.5091641, 1.4522927, 0.27672195, 0
223, 1885899505, -0.40244442, 0.5957595, 0.36031058, 0.594374, 0.63710153, 1.226077, 0.1866169, 0
224, 1885916172, -0.4024482, 0.5955727, 0.36025548, 0.5945921, 0.49449202, 0.9344176, 0.038513184, 0
225, 1885932839, -0.40238175, 0.59534085, 0.3603212, 0.5948295, 0.3446859, 0.84175605, -0.049251556, 0
226, 1885949506, -0.40227208, 0.5950357, 0.36052096, 0.5950877, 0.28384843, 1.0352836, -0.02346611, 0
227, 1885966173, -0.4021271, 0.59472555, 0.3607464, 0.5953592, 0.2902337, 1.2599095, -0.017000198, 0
228, 1885982840, -0.40196684, 0.5944634, 0.36089772, 0.5956373, 0.4926237, 1.3261245, -0.118227005, 0
229, 1885999507, -0.40179092, 0.5942565, 0.36098728, 0.5959082, 0.763767, 1.2715503, -0.07973194, 0
230, 1886016174, -0.40163282, 0.5940828, 0.36104232, 0.5961548, 0.7493377, 1.2003139, -0.104950905, 0
231, 1886032841, -0.40159243, 0.59392333, 0.3610578, 0.5963315, 0.623881, 0.9717856, -0.12428093, 0
232, 1886049508, -0.4015864, 0.59387445, 0.360945, 0.59645236, 0.46020165, 0.8162626, -0.07351971, 0
233, 1886066175, -0.40167296, 0.5938673, 0.3607759, 0.5965036, 0.48386106, 0.60735756, 0.17663479, 0
234, 1886082842, -0.4018154, 0.5938607, 0.3605837, 0.59653044, 0.5376492, 0.5593253, 0.09943867, 0
235, 1886099509, -0.40198368, 0.5938509, 0.3603846, 0.596547, 0.44964525, 0.51627827, 0.13289261, 0
236, 1886116176, -0.40222403, 0.59381944, 0.360201, 0.59652716, 0.42843512, 0.6233459, 0.15463638, 0
237, 1886132843, -0.40245315, 0.59380764, 0.35998583, 0.5965142, 0.5541753, 0.8200353, 0.06596756, 0
238, 1886149510, -0.40275422, 0.59376115, 0.35979247, 0.59647405, 0.6072993, 1.002745, -0.06310272, 0
239, 1886166177, -0.40310496, 0.5937459, 0.35958263, 0.59637886, 0.50632054, 1.1336827, -0.02644062, 0
240, 1886182844, -0.40346947, 0.5937735, 0.35929292, 0.5962795, 0.6039166, 1.121902, 0.01723671, 0
241, 1886199511, -0.40387434, 0.5938195, 0.35896775, 0.5961554, 0.71168536, 1.0761342, -0.06960678, 0
242, 1886216178, -0.40432307, 0.5938707, 0.35863605, 0.59599984, 0.5881299, 0.91654754, -0.06917572, 0
243, 1886232845, -0.40478268, 0.5939655, 0.35825157, 0.5958247, 0.4126951, 0.87957084, -0.05012417, 0
244, 1886249512, -0.40522712, 0.5941088, 0.3578009, 0.5956506, 0.38162076, 0.8083315, 0.016889572, 0
245, 1886266179, -0.40568966, 0.59423447, 0.35737926, 0.59546345, 0.34103686, 0.83446705, 0.13108253, 0
246, 1886282846, -0.4061215, 0.5943605, 0.35693368, 0.5953104, 0.30583814, 0.8679024, 0.07936382, 0
247, 1886299513, -0.40658295, 0.59444845, 0.35654393, 0.5951413, 0.33041853, 0.82567275, 0.046002388, 0
248, 1886316180, -0.40701684, 0.5945255, 0.35616422, 0.59499514, 0.37139302, 0.88193005, 0.07997513, 0
249, 1886332847, -0.4074676, 0.5945487, 0.35585743, 0.59484684, 0.34575677, 0.93418545, 0.086725235, 0
250, 1886349514, -0.4077762, 0.59461486, 0.35549513, 0.594786, 0.29337707, 0.98752785, 0.01389122, 0
251, 1886366181, -0.40810278, 0.5946196, 0.3552337, 0.59471333, 0.28440014, 1.022842, -0.03750515, 0
252, 1886382848, -0.40838253, 0.5946163, 0.35498518, 0.594673, 0.29303744, 0.96125716, -0.020451546, 0
253, 1886399515, -0.40866014, 0.5945823, 0.3548045, 0.59462404, 0.39190504, 0.94066626, 0.048428535, 0
254, 1886416182, -0.40885192, 0.59454656, 0.35462075, 0.59463763, 0.3451599, 0.9693428, 0.07535839, 0
255, 1886432849, -0.40900907, 0.5944911, 0.3544616, 0.59467983, 0.27107137, 0.9880246, 0.025870323, 0
256, 1886449516, -0.4091504, 0.59441036, 0.3543439, 0.59473354, 0.26350144, 0.9800875, -0.0033273697, 0
257, 1886466183, -0.40923518, 0.5943523, 0.35420856, 0.5948137, 0.2791823, 0.91763365, 0.0032138824, 0
258, 1886482850, -0.40932775, 0.5942811, 0.35411027, 0.5948798, 0.3776779, 0.85910916, 0.053586006, 0
259, 1886499517, -0.40935314, 0.5942086, 0.35401294, 0.5949927, 0.33165032, 0.8440199, 0.0344162, 0
260, 1886516184, -0.40945473, 0.59404755, 0.35404536, 0.5950641, 0.25032556, 0.89743525, 0.06992245, 0
261, 1886532851, -0.40950087, 0.59390455, 0.35404846, 0.5951733, 0.3272583, 0.86654377, 0.06443977, 0
262, 1886549518, -0.40945753, 0.59376526, 0.3540479, 0.5953424, 0.39475015, 0.9049779, 0.023386955, 0
263, 1886566185, -0.40935412, 0.5936432, 0.3540359, 0.5955424, 0.33611354, 1.0069646, 0.0033750534, 0
264, 1886582852, -0.40929243, 0.59350085, 0.35405138, 0.5957174, 0.3329249, 1.015358, 0.06538677, 0
265, 1886599519, -0.4092076, 0.5933422, 0.3540756, 0.59591925, 0.42071933, 0.879644, 0.06914997, 0
266, 1886616186, -0.40911043, 0.5931619, 0.35414293, 0.5961254, 0.41478485, 0.81385535, 0.0067338943, 0
267, 1886632853, -0.40899816, 0.5929688, 0.35423777, 0.5963383, 0.29350156, 0.8449087, -0.007932663, 0
268, 1886649520, -0.40884852, 0.5928068, 0.35429853, 0.5965657, 0.3604618, 0.8528385, 0.026007652, 0
269, 1886666187, -0.40869975, 0.59262407, 0.35439748, 0.59679043, 0.5091814, 0.84595454, -0.004995346, 0
270, 1886682854, -0.40853125, 0.5924385, 0.35450593, 0.59702575, 0.4989434, 0.90644026, 0.011561394, 0
271, 1886699521, -0.40840015, 0.5922371, 0.35463423, 0.5972389, 0.3740563, 0.92706245, 0.05583763, 0
272, 1886716188, -0.40826708, 0.59206873, 0.35470167, 0.59745675, 0.39969057, 0.89212537, 0.015579224, 0
273, 1886732855, -0.40814817, 0.5919266, 0.35473254, 0.59766054, 0.47767514, 0.7877059, -0.01488781, 0
274, 1886749522, -0.40805835, 0.5917874, 0.35477963, 0.5978317, 0.49930683, 0.7554628, 0.0023841858, 0
275, 1886766189, -0.40802014, 0.5916608, 0.3548086, 0.59796584, 0.44960302, 0.84899116, 0.061616898, 0
276, 1886782856, -0.40800384, 0.5915562, 0.3547739, 0.5981011, 0.4249284, 0.83175, 0.075733185, 0
277, 1886799523, -0.40799296, 0.5914703, 0.3547099, 0.5982313, 0.4627275, 0.77418584, 0.03792095, 0
278, 1886816190, -0.40798607, 0.5913956, 0.35463527, 0.59835404, 0.4444878, 0.7441484, 0.012539864, 0
279, 1886832857, -0.4079912, 0.59133583, 0.35454673, 0.5984621, 0.41639358, 0.76447284, 0.0121154785, 0
280, 1886849524, -0.40807292, 0.5912425, 0.35450086, 0.5985259, 0.3995227, 0.79276466, 0.030451775, 0
281, 1886866191, -0.40813407, 0.5911628, 0.354439, 0.59859955, 0.45595068, 0.84580183, 0.042554855, 0
282, 1886882858, -0.40821683, 0.59108067, 0.35438073, 0.59865856, 0.48702088, 0.8550287, -0.0053014755, 0
283, 1886899525, -0.40835875, 0.5909884, 0.35433608, 0.59867936, 0.45854098, 0.8842865, 0.024520874, 0
284, 1886916192, -0.40851903, 0.59092623, 0.3542404, 0.5986879, 0.38947713, 0.87402105, 0.027291298, 0
285, 1886932859, -0.40864938, 0.5909229, 0.3540578, 0.5987104, 0.38948274, 0.7867676, 0.05956745, 0
286, 1886949526, -0.4088042, 0.59090525, 0.35389444, 0.5987186, 0.3735295, 0.66522664, 0.05497837, 0
287, 1886966193, -0.4089807, 0.59086335, 0.35374779, 0.59872615, 0.3135766, 0.69301534, -0.0058631897, 0
288, 1886982860, -0.40919334, 0.5908039, 0.35365427, 0.5986949, 0.31177765, 0.7746432, 0.019371033, 0
289, 1886999527, -0.4092988, 0.5908012, 0.35347608, 0.5987306, 0.4593651, 0.8094999, -0.029475212, 0
290, 1887016194, -0.4094881, 0.59074664, 0.35336885, 0.5987184, 0.53189343, 0.85455775, 0.16377449, 0
291, 1887032861, -0.409632, 0.59074914, 0.35312012, 0.59876406, 0.352147, 0.9697273, 0.3359661, 0
292, 1887049528, -0.40989646, 0.5907203, 0.35285333, 0.598769, 0.1030207, 0.95123684, -0.02978611, 0
293, 1887066195, -0.41018692, 0.59071785, 0.35255122, 0.59875035, 0.038470715, 0.65171796, -0.23558712, 0
294, 1887082862, -0.41043746, 0.5907457, 0.35233307, 0.59867954, 0.33399048, 0.36858204, -0.3392334, 0
295, 1887099529, -0.41060197, 0.5908057, 0.35218817, 0.5985928, 0.5150586, 0.5104488, -0.18323994, 0
296, 1887116196, -0.41070294, 0.5908917, 0.35200015, 0.5985492, 0.36048427, 0.8681945, 0.22222424, 0
297, 1887132863, -0.41081125, 0.5909399, 0.35180807, 0.5985403, 0.36492234, 1.1007447, 0.2086668, 0
298, 1887149530, -0.41092813, 0.5909425, 0.35161546, 0.59857064, 0.24813637, 1.1081617, 0.2405014, 0
299, 1887166197, -0.41105136, 0.5909165, 0.3514251, 0.5986235, 0.24620108, 0.85079825, 0.2382021, 0
300, 1887182864, -0.4112555, 0.59079546, 0.35136375, 0.59863865, 0.39482448, 0.5223453, 0.16407299, 0
301, 1887199531, -0.41128376, 0.59067357, 0.35127643, 0.5987907, 0.3752166, 0.39010727, 0.09688473, 0
302, 1887216198, -0.41129366, 0.5904922, 0.35129046, 0.5989547, 0.1569641, 0.6198345, -0.009726524, 0
303, 1887232865, -0.41125378, 0.59035385, 0.35129076, 0.59911835, 0.103683636, 0.9188952, -0.0063848495, 0
304, 1887249532, -0.4112288, 0.59024566, 0.35123375, 0.5992753, 0.34618, 1.1703401, -0.07783985, 0
305, 1887266199, -0.41120383, 0.59015584, 0.3511913, 0.5994057, 0.61919403, 1.2058433, -0.1391077, 0
306, 1887282866, -0.4111875, 0.59004605, 0.35117862, 0.5995326, 0.620687, 1.0834424, -0.09040928, 0
307, 1887299533, -0.41117343, 0.5899638, 0.35114062, 0.5996454, 0.4791863, 0.89964724, 0.021652222, 0
308, 1887316200, -0.41114998, 0.58991724, 0.35106897, 0.5997492, 0.37225154, 0.6582262, 0.03259754, 0
309, 1887332867, -0.41112888, 0.58988434, 0.35098094, 0.5998476, 0.28343576, 0.5480598, 0.07828903, 0
310, 1887349534, -0.41114134, 0.5898501, 0.35086665, 0.5999396, 0.2792695, 0.49458545, 0.1328497, 0
311, 1887366201, -0.41122055, 0.58977723, 0.35079157, 0.6000007, 0.32643977, 0.44617948, 0.12391758, 0
312, 1887382868, -0.41132778, 0.58970803, 0.35068712, 0.60005623, 0.40167758, 0.484908, 0.09876442, 0
313, 1887399535, -0.4114296, 0.58967584, 0.35055187, 0.6000971, 0.36813805, 0.61307245, 0.10465145, 0
314, 1887416202, -0.41165885, 0.5895865, 0.3504916, 0.6000631, 0.41091996, 0.77418005, 0.023786545, 0
315, 1887432869, -0.4118604, 0.5895424, 0.35035712, 0.6000465, 0.4553814, 0.86001325, 0.018611908, 0
316, 1887449536, -0.41206506, 0.5895272, 0.35016772, 0.6000315, 0.49294856, 0.88689494, -0.07259464, 0
317, 1887466203, -0.41223162, 0.5895794, 0.34989113, 0.6000273, 0.49887946, 0.85024107, -0.047512054, 0
318, 1887482870, -0.4125232, 0.589606, 0.3496838, 0.5999216, 0.3982908, 0.8139924, 2.8324127E-4, 0
319, 1887499537, -0.4128005, 0.5896578, 0.34942752, 0.59982926, 0.35434425, 0.7452528, -0.010855675, 0
320, 1887516204, -0.41308638, 0.58972955, 0.3491251, 0.59973806, 0.33431682, 0.71510375, 0.0068597794, 0
321, 1887532871, -0.4133905, 0.58980334, 0.3488386, 0.5996224, 0.32963836, 0.6545539, 0.06351662, 0
322, 1887549538, -0.41369316, 0.58986056, 0.3485907, 0.59950155, 0.3365838, 0.6357303, 0.110245705, 0
323, 1887566205, -0.41395882, 0.58989674, 0.3483575, 0.5994182, 0.2880665, 0.6939507, 0.086081505, 0
324, 1887582872, -0.41413057, 0.5899697, 0.34806246, 0.5993994, 0.20006946, 0.7588403, 0.116132736, 0
325, 1887599539, -0.41439483, 0.5899626, 0.34787726, 0.59933096, 0.2347428, 0.71981317, 0.09925175, 0
326, 1887616206, -0.41462395, 0.58993566, 0.34773818, 0.59927976, 0.2636051, 0.6672192, 0.03854847, 0
327, 1887632873, -0.41484365, 0.5898696, 0.3476647, 0.5992355, 0.19848432, 0.72546697, 0.005176544, 0
328, 1887649540, -0.41496217, 0.5898313, 0.34758678, 0.5992362, 0.16945377, 0.7770334, 0.057279587, 0
329, 1887666207, -0.415026, 0.589769, 0.34751382, 0.5992956, 0.2506149, 0.78908455, 0.05193138, 0
330, 1887682874, -0.4150487, 0.5896898, 0.34746647, 0.59938526, 0.23728795, 0.78782463, 0.01328373, 0
331, 1887699541, -0.4150406, 0.58962816, 0.34740794, 0.5994854, 0.20278592, 0.78039145, 0.00467968, 0
332, 1887716208, -0.41505235, 0.5895524, 0.34738255, 0.5995666, 0.21997218, 0.7963111, 0.061532974, 0
333, 1887732875, -0.4150159, 0.5894897, 0.3473506, 0.599672, 0.2153097, 0.82401204, 2.9945374E-4, 0
334, 1887749542, -0.4149513, 0.5894159, 0.34732604, 0.59980327, 0.15595494, 0.83635396, 0.042328835, 0
335, 1887766209, -0.4148952, 0.58932, 0.34734786, 0.5999237, 0.3170301, 0.6800187, 0.037322044, 0
336, 1887782876, -0.4148124, 0.5892011, 0.34740302, 0.6000658, 0.37907016, 0.6291653, 0.0648365, 0
337, 1887799543, -0.4146841, 0.58907366, 0.34744, 0.60025823, 0.25264832, 0.5937644, 0.13480091, 0
338, 1887816210, -0.4145302, 0.58895034, 0.34748325, 0.6004604, 0.26079792, 0.53827095, 0.10837269, 0
339, 1887832877, -0.41438144, 0.58878505, 0.34758887, 0.60066396, 0.3270103, 0.53721297, 0.08439064, 0
340, 1887849544, -0.41424134, 0.5885933, 0.34774774, 0.6008567, 0.26347986, 0.6149762, 0.053131104, 0
341, 1887866211, -0.41409278, 0.58843035, 0.34786674, 0.6010499, 0.2563069, 0.73601854, 0.076174736, 0
342, 1887882878, -0.41399673, 0.5882699, 0.34795266, 0.6012233, 0.39598694, 0.76553255, 0.032279015, 0
343, 1887899545, -0.41391703, 0.58814305, 0.3479986, 0.6013757, 0.47380188, 0.72594637, 0.01365757, 0
344, 1887916212, -0.4138394, 0.5880384, 0.3479918, 0.60153514, 0.34475923, 0.73236704, 0.022410393, 0
345, 1887932879, -0.4138174, 0.5879359, 0.347991, 0.6016509, 0.331848, 0.68027776, -0.024553299, 0
346, 1887949546, -0.41383514, 0.58784235, 0.34800375, 0.6017228, 0.37843403, 0.6362332, 0.011079788, 0
347, 1887966213, -0.41384432, 0.5877802, 0.34793502, 0.60181695, 0.38015565, 0.6277596, 0.07185459, 0
348, 1887982880, -0.41389945, 0.58773434, 0.34784535, 0.60187566, 0.37688532, 0.60064036, 0.040771484, 0
349, 1887999547, -0.41399664, 0.58771116, 0.3477244, 0.60190135, 0.3734668, 0.64750606, 0.05517292, 0
350, 1888016214, -0.41406342, 0.58774424, 0.347508, 0.60194814, 0.34145716, 0.6740661, 0.098279, 0
351, 1888032881, -0.41419432, 0.5877512, 0.34734595, 0.6019449, 0.37189654, 0.68137544, 0.08960056, 0
352, 1888049548, -0.4143488, 0.5877437, 0.34717044, 0.6019471, 0.34204578, 0.59798187, 0.10542488, 0
353, 1888066215, -0.41452745, 0.58771443, 0.34700942, 0.6019455, 0.28407222, 0.55850816, 0.02809143, 0
354, 1888082882, -0.41470316, 0.5877021, 0.34685573, 0.60192513, 0.23051909, 0.55204034, 0.056485176, 0
355, 1888099549, -0.41487604, 0.5876755, 0.3467247, 0.60190743, 0.28976253, 0.6430736, 0.0599041, 0
356, 1888116216, -0.41501957, 0.5876427, 0.34658954, 0.6019184, 0.31919226, 0.715412, -0.012843132, 0
357, 1888132883, -0.4151775, 0.58758944, 0.34650972, 0.6019075, 0.28370264, 0.82703406, -0.03919506, 0
358, 1888149550, -0.4152807, 0.587566, 0.34638625, 0.60193014, 0.22244345, 0.86229485, 0.076423645, 0
359, 1888166217, -0.4153823, 0.58754855, 0.34625673, 0.6019516, 0.26099595, 0.7679057, 0.028514862, 0
360, 1888182884, -0.4154437, 0.58752835, 0.34613463, 0.60199904, 0.2693653, 0.59108716, 0.0023698807, 0
361, 1888199551, -0.4154924, 0.5874921, 0.3460452, 0.6020522, 0.22449608, 0.49533087, 0.06996536, 0
362, 1888216218, -0.41559333, 0.5874086, 0.34603706, 0.6020687, 0.17880768, 0.4633911, 0.13307571, 0
363, 1888232885, -0.41562596, 0.58733433, 0.34597883, 0.602152, 0.20012015, 0.5680259, 0.09345913, 0
364, 1888249552, -0.4156331, 0.58728427, 0.34589192, 0.602246, 0.27271318, 0.6535999, 0.045207977, 0
365, 1888266219, -0.4156283, 0.5872386, 0.3458322, 0.6023281, 0.33814505, 0.77362597, 0.016857147, 0
366, 1888282886, -0.41563156, 0.5871723, 0.34579104, 0.6024141, 0.37120888, 0.8426509, 0.0066070557, 0
367, 1888299553, -0.41558516, 0.587132, 0.3457036, 0.60253567, 0.31151783, 0.8370972, -0.0014266968, 0
368, 1888316220, -0.4155611, 0.58709747, 0.34562907, 0.6026286, 0.3148551, 0.6586265, 0.05831623, 0
369, 1888332887, -0.41558683, 0.5870351, 0.34558544, 0.60269654, 0.3425876, 0.54348963, 0.09101009, 0
370, 1888349554, -0.41563538, 0.586959, 0.3455624, 0.6027505, 0.27632773, 0.48663107, 0.07533836, 0
371, 1888366221, -0.41569197, 0.5868964, 0.34552208, 0.6027954, 0.21291263, 0.47389352, 0.12701225, 0
372, 1888382888, -0.41577792, 0.58676845, 0.34556797, 0.6028345, 0.80892044, 0.5919432, 0.1590414, 0
373, 1888399555, -0.41572425, 0.586667, 0.3455468, 0.60298246, -0.14054081, 0.78537357, 0.26772976, 0
374, 1888416222, -0.41584805, 0.586571, 0.34533665, 0.60311085, -0.22407341, 0.7687923, 0.5375147, 0
375, 1888432889, -0.41602468, 0.58649224, 0.34514397, 0.60317594, -0.16523062, 0.387143, -0.3657198, 0
376, 1888449556, -0.41621462, 0.5865, 0.34495357, 0.6031462, 0.22735256, 0.20338413, -0.24081326, 0
377, 1888466223, -0.41624087, 0.58656484, 0.3447603, 0.6031756, 0.64555603, 0.35375708, -0.43238354, 0
378, 1888482890, -0.416361, 0.58661395, 0.34464157, 0.6031127, 0.53265274, 0.8157283, -0.121468544, 0
379, 1888499557, -0.4164687, 0.5868884, 0.34419763, 0.6030248, 0.24987094, 1.1801642, -0.018948555, 0
380, 1888516224, -0.41676465, 0.58717424, 0.34369147, 0.6028309, 0.46849814, 1.0444456, 0.26712894, 0
381, 1888532891, -0.41707274, 0.5873926, 0.34320697, 0.6026811, 0.55346054, 0.572625, 0.5265484, 0
382, 1888549558, -0.4173865, 0.5875128, 0.34280849, 0.60257334, 0.19084777, 0.18786286, 0.005838394, 0
383, 1888566225, -0.41757149, 0.58751476, 0.3425744, 0.6025765, 0.12364625, -0.16222057, 0.20064068, 0
384, 1888582892, -0.41760176, 0.58737564, 0.34260353, 0.60267454, -0.047863286, 0.023142308, -0.11867428, 0
385, 1888599559, -0.41764858, 0.5872009, 0.34275392, 0.6027269, -0.27065217, -0.17959847, -0.4508896, 0
386, 1888616226, -0.41756234, 0.58712655, 0.34278896, 0.6028392, -0.2888458, 0.10031619, 0.20173454, 0
387, 1888632893, -0.41746834, 0.587037, 0.3428133, 0.60297763, 0.2884105, 0.21732634, -0.23675728, 0
388, 1888649560, -0.41755196, 0.5868053, 0.3430193, 0.6030282, 0.68605787, 0.010950807, 0.41985226, 0
389, 1888666227, -0.41757017, 0.58664703, 0.34316775, 0.6030849, 0.11698903, 0.5911911, -0.66731644, 0
390, 1888682894, -0.41748238, 0.58669317, 0.34315947, 0.6031056, -0.2869503, 1.4941138, 0.28583717, 0
391, 1888699561, -0.41743192, 0.5867136, 0.34308293, 0.6031641, 0.5916578, 1.424812, 0.23179531, 0
392, 1888716228, -0.4174311, 0.5866227, 0.3431654, 0.6032062, 1.2898737, 1.3808029, -0.027710915, 0
393, 1888732895, -0.4175404, 0.58650273, 0.3433417, 0.60314703, 0.8954013, 1.8131988, 0.28336143, 0
394, 1888749562, -0.4177661, 0.58650744, 0.34326506, 0.6030297, 0.90751636, 2.0342171, 0.2767458, 0
395, 1888766229, -0.41805446, 0.58667916, 0.34286526, 0.6028904, 1.681988, 1.8274626, 0.50463676, 0
396, 1888782896, -0.418463, 0.5867654, 0.34252262, 0.60271776, 1.8533655, 1.7581345, 0.29357052, 0
397, 1888799563, -0.4189663, 0.5868407, 0.34218928, 0.602484, 0.93520784, 1.8122216, 0.24571323, 0
398, 1888816230, -0.419529, 0.5871135, 0.34154546, 0.60219187, 0.3801143, 1.7888938, 0.18528938, 0
399, 1888832897, -0.4203153, 0.58749217, 0.34062347, 0.6017965, 0.52050436, 1.5044925, 0.12771034, 0
400, 1888849564, -0.42125872, 0.5879122, 0.33959565, 0.6013072, 1.014719, 0.88352585, 0.015672684, 0
401, 1888866231, -0.42232624, 0.58821404, 0.33873874, 0.6007463, 0.9362417, 0.03483807, -0.17697048, 0
402, 1888882898, -0.42339736, 0.58853203, 0.33786112, 0.60017484, 0.18815187, -0.23140743, -0.2120533, 0
403, 1888899565, -0.42446116, 0.5889379, 0.33674997, 0.59964955, -0.32648772, -0.45092687, 0.36170483, 0
404, 1888916232, -0.42556128, 0.58923215, 0.33564535, 0.59919995, -0.26864895, -0.69682086, 0.79775333, 0
405, 1888932899, -0.42677727, 0.589372, 0.33465403, 0.59875166, -0.9994535, -0.79478705, 1.2452316, 0
406, 1888949566, -0.42814416, 0.5894967, 0.33356056, 0.5982631, -1.4568188, -1.572219, 0.7788677, 0
407, 1888966233, -0.4293903, 0.5896052, 0.33253935, 0.5978314, -1.3909385, -3.5356362, -1.3250523, 0
408, 1888982900, -0.43019724, 0.5898035, 0.3318221, 0.597454, -1.4849287, -4.807143, -2.4286008, 0
409, 1888999567, -0.430726, 0.58991843, 0.33135974, 0.59721637, -2.0310736, -4.3946457, -0.11903381, 0
410, 1889016234, -0.43115932, 0.5899856, 0.33091, 0.59708655, -3.4421833, -3.3331723, 1.1069441, 0
411, 1889032901, -0.43163377, 0.58992034, 0.33057716, 0.5969927, -2.7255268, -3.2570808, -0.2033987, 0
412, 1889049568, -0.43192095, 0.5896936, 0.3304463, 0.5970815, -1.80811, -3.7669702, -0.2777071, 0
413, 1889066235, -0.4319868, 0.5894111, 0.33051693, 0.59727347, -1.7223492, -3.754437, -0.17829323, 0
414, 1889082902, -0.43177584, 0.5890581, 0.33078685, 0.59762484, -1.5453155, -3.5267348, -0.66758823, 0
415, 1889099569, -0.43130058, 0.5886532, 0.33125523, 0.59810716, -1.8308338, -3.2922578, -0.3457365, 0
416, 1889116236, -0.43083838, 0.5880532, 0.33206838, 0.5985796, -1.6616726, -2.816464, -0.74653625, 0
417, 1889132903, -0.43037683, 0.58741426, 0.3329216, 0.5990649, -1.7528116, -2.611179, -0.95413494, 0
418, 1889149570, -0.4299179, 0.58697474, 0.3335848, 0.59945613, -1.0136583, -2.8211586, -0.5542202, 0
419, 1889166237, -0.42943648, 0.5865538, 0.3342586, 0.59983784, -0.53910214, -3.0785124, -0.5720196, 0
420, 1889182904, -0.428979, 0.5861017, 0.3350514, 0.6001647, -1.2436739, -2.4824526, -0.6505928, 0
421, 1889199571, -0.42865905, 0.5857259, 0.3357065, 0.60039407, -1.6369071, -1.6428906, -0.2938919, 0
422, 1889216238, -0.42837822, 0.58541566, 0.33621094, 0.6006148, -0.7945956, -1.5902086, -0.007584572, 0
423, 1889232905, -0.4280681, 0.5851219, 0.33678937, 0.6007981, -0.33669063, -1.7450144, -0.9281454, 0
424, 1889249572, -0.42764407, 0.5848613, 0.33760598, 0.60089535, -0.92364794, -2.4122207, -0.71499443, 0
425, 1889266239, -0.4270979, 0.5846081, 0.338553, 0.60099727, -1.1016548, -2.734921, 0.8425493, 0
426, 1889282906, -0.42649367, 0.58438563, 0.33938786, 0.60117185, -1.7697071, -2.522422, 0.12511253, 0
427, 1889299573, -0.42583787, 0.58419406, 0.34012172, 0.6014081, -0.5309825, -1.9849913, -2.6770234, 0
428, 1889316240, -0.4252509, 0.5840317, 0.34070778, 0.6016496, -1.8348155, -0.8104855, 0.29803467, 0
429, 1889332907, -0.4248799, 0.58403283, 0.3410099, 0.6017394, -1.5769657, -2.6814854, 2.2452068, 0
430, 1889349574, -0.42450142, 0.58398455, 0.34129512, 0.6018915, -0.33084968, -1.1673009, 0.71528625, 0
431, 1889366241, -0.42422298, 0.5837436, 0.34130573, 0.6023155, -1.3124032, -1.8030021, -0.49259663, 0
432, 1889382908, -0.4237788, 0.5837503, 0.3413891, 0.6025742, -2.2701201, -2.7311742, -0.7878189, 0
433, 1889399575, -0.4232526, 0.58388937, 0.34153822, 0.60272497, -2.2857795, -2.131456, -1.3201513, 0
434, 1889416242, -0.42268565, 0.5838884, 0.3416919, 0.6030365, -1.6432359, -2.366665, 0.6736822, 0
435, 1889432909, -0.42194992, 0.5838177, 0.34183654, 0.60353804, -1.670655, -2.2764544, 0.12571335, 0
436, 1889449576, -0.4209429, 0.5836413, 0.34216106, 0.6042274, -1.3401357, -2.3885963, 0.11444569, 0
437, 1889466243, -0.41967493, 0.58321553, 0.34280375, 0.60515577, -1.6024874, -2.710488, 0.576458, 0
438, 1889482910, -0.41820058, 0.58254397, 0.34379116, 0.606262, -2.001652, -2.2583816, -0.94792366, 0
439, 1889499577, -0.4164594, 0.5818693, 0.34504652, 0.60739416, -2.575342, -2.125492, -0.97538185, 0
440, 1889516244, -0.41442937, 0.5813032, 0.3464638, 0.6085168, -2.2455435, -2.1466277, -1.0862341, 0
441, 1889532911, -0.4122676, 0.58044225, 0.34806877, 0.6098897, -1.0611557, -1.7509623, 0.81825256, 0
442, 1889549578, -0.40989745, 0.57947254, 0.35006168, 0.6112673, -0.78282315, -1.605774, -1.0457468, 0
443, 1889566245, -0.4072767, 0.5786702, 0.3522366, 0.6125285, -0.19155104, -0.77168834, -2.0144396, 0
444, 1889582912, -0.40461496, 0.5778016, 0.3543452, 0.61389464, -0.5040918, -1.0030135, -0.8324938, 0
445, 1889599579, -0.40179023, 0.5771318, 0.35657254, 0.6150893, -0.86498153, -0.81373143, -3.8148284, 0
446, 1889616246, -0.3987591, 0.57663864, 0.35902026, 0.61609966, -0.38573822, -0.4630053, -1.8305879, 0
447, 1889632913, -0.39553136, 0.5762148, 0.36152893, 0.61710906, -0.15993659, 0.25627592, 0.33190536, 0
448, 1889649580, -0.39240482, 0.5758912, 0.3636749, 0.61814535, 0.10451846, 3.4045374, 3.5141, 0
449, 1889666247, -0.39007336, 0.57540995, 0.36497068, 0.6193044, 1.5083562, 4.564805, 3.9468756, 0
450, 1889682914, -0.38849816, 0.5749184, 0.36552474, 0.6204232, 1.9155214, 3.8602393, 2.4169998, 0
451, 1889699581, -0.3875012, 0.5748944, 0.36507255, 0.62133443, 1.0923392, 3.6012952, 0.4156208, 0
452, 1889716248, -0.386716, 0.5756788, 0.3633965, 0.6220793, -0.041203048, 3.1165001, 0.044086456, 0
453, 1889732915, -0.38607064, 0.57707125, 0.36102667, 0.6225699, 0.52340496, 2.992621, 1.3951998, 0
454, 1889749582, -0.38567203, 0.57850075, 0.35853127, 0.62293214, 0.9906836, 3.4751887, 1.6678972, 0
455, 1889766249, -0.38559324, 0.579813, 0.3557427, 0.6233595, 0.72939, 4.262585, 0.43177223, 0
456, 1889782916, -0.38558003, 0.58120275, 0.35237148, 0.62398815, 0.26070887, 3.4748173, -0.113345146, 0
457, 1889799583, -0.38526198, 0.58281994, 0.34882438, 0.62466866, 0.33423513, 1.7709173, -0.067626, 0
458, 1889816250, -0.38470513, 0.58431876, 0.3457769, 0.6253057, 0.75514746, 1.4638196, -1.1157627, 0
459, 1889832917, -0.38409927, 0.5855859, 0.34320915, 0.62590706, 0.2336828, 1.52272, 1.5483332, 0
460, 1889849584, -0.383601, 0.58683175, 0.34065768, 0.62643933, 0.27167264, 2.017802, -0.3916502, 0
461, 1889866251, -0.38317773, 0.58795404, 0.33816877, 0.62699455, 1.2862722, 1.199956, -0.6808653, 0
462, 1889882918, -0.38268515, 0.5889771, 0.33608803, 0.6274536, 1.9109186, 0.41364715, 0.44453526, 0
463, 1889899585, -0.3822032, 0.58979845, 0.33439234, 0.62788177, 1.5500087, 0.11796284, 0.027723312, 0
464, 1889916252, -0.38178813, 0.5905205, 0.33296603, 0.6282136, 0.736486, 0.22423983, -0.08704567, 0
465, 1889932919, -0.3814793, 0.5911644, 0.3316444, 0.62849456, 1.0307002, -0.13111426, -1.1630116, 0
466, 1889949586, -0.38123208, 0.59168947, 0.3305757, 0.62871355, 0.77434856, -0.6202248, -0.9349718, 0
467, 1889966253, -0.3811169, 0.592137, 0.3297348, 0.6288036, 0.8663624, -0.27992, 0.29019165, 0
468, 1889982920, -0.38116938, 0.59254664, 0.3289302, 0.62880725, 0.664078, -0.5255621, 0.6469803, 0
469, 1889999587, -0.38131607, 0.59293693, 0.32811853, 0.6287746, 0.78713596, -0.5296973, 0.26066494, 0
470, 1890016254, -0.38162068, 0.5932087, 0.32741356, 0.6287007, 0.20523396, -0.81293404, -0.31647968, 0
471, 1890032921, -0.38204888, 0.5935047, 0.32687983, 0.62843883, 0.06855148, -1.8581103, -0.97544956, 0
472, 1890049588, -0.3825376, 0.5937904, 0.32638222, 0.6281305, 0.32514855, -1.4754608, -0.33285618, 0
473, 1890066255, -0.383195, 0.5940108, 0.32583213, 0.6278068, -0.07795908, -1.6376538, 0.33550835, 0
474, 1890082922, -0.38411957, 0.5941927, 0.32526886, 0.6273617, 0.26413566, -1.7848549, 0.021741867, 0
475, 1890099589, -0.38514948, 0.5944328, 0.3247185, 0.62678754, -0.095743015, -2.9072464, -0.21224022, 0
476, 1890116256, -0.38612565, 0.5946889, 0.3243911, 0.6261132, -0.3363358, -2.5004864, -0.47802353, 0
477, 1890132923, -0.38713515, 0.59479904, 0.32421476, 0.6254763, -0.8246951, -1.8534025, -0.25103855, 0
478, 1890149590, -0.38819325, 0.5946887, 0.3240199, 0.6250261, -0.27185065, -1.819143, 1.2297525, 0
479, 1890166257, -0.38924566, 0.5944893, 0.32405162, 0.6245447, -0.7998405, -2.9182978, -0.03594494, 0
480, 1890182924, -0.3903153, 0.5943011, 0.32425624, 0.62394965, -0.6513773, -3.1740668, -1.0811234, 0
481, 1890199591, -0.3913432, 0.5941477, 0.32460615, 0.6232696, -0.37691253, -3.388352, -0.64673233, 0
482, 1890216258, -0.39232048, 0.5938398, 0.32520086, 0.6226384, -0.2681433, -2.6630023, 0.8923073, 0
483, 1890232925, -0.39325973, 0.59319174, 0.32612264, 0.6221813, -0.4637154, -2.9148717, 0.8749771, 0
484, 1890249592, -0.39404833, 0.59249616, 0.3271953, 0.6217817, -1.2986423, -2.7214289, -0.6380272, 0
485, 1890266259, -0.39480695, 0.59191483, 0.32830697, 0.6212681, -1.8831754, -3.3164294, -1.9301782, 0
486, 1890282926, -0.39553517, 0.5913032, 0.3297288, 0.62063396, -0.87087935, -4.492839, -2.0467463, 0
487, 1890299593, -0.3962501, 0.59047115, 0.33154407, 0.6200026, -0.4439459, -3.775302, 0.48027706, 0
488, 1890316260, -0.39697582, 0.58952355, 0.33319995, 0.6195525, -0.26647303, -1.8751863, 2.4580984, 0
489, 1890332927, -0.3977965, 0.5884962, 0.33439237, 0.6193602, -1.1817151, -1.2781922, 1.8053131, 0
490, 1890349594, -0.3987502, 0.587592, 0.3354765, 0.6190192, -2.7648304, -2.3719218, -2.9428644, 0
491, 1890366261, -0.39959374, 0.58707756, 0.3367909, 0.61824894, -2.2168834, -5.30218, -3.6466827, 0
492, 1890382928, -0.40008664, 0.5867947, 0.33849353, 0.61726815, -0.97509986, -5.4942183, -1.1437836, 0
493, 1890399595, -0.40025055, 0.58641213, 0.3402544, 0.6165569, -0.1536779, -2.57548, 2.6583748, 0
494, 1890416262, -0.4004315, 0.5856743, 0.3415411, 0.61642927, -1.5000343, -0.20146832, 5.3637285, 0
495, 1890432929, -0.4009464, 0.58459544, 0.34225935, 0.61672026, -2.7934744, -0.38735935, 1.9720535, 0
496, 1890449596, -0.40141943, 0.58353597, 0.3431033, 0.61694705, -2.960639, -2.6291533, -5.491108, 0
497, 1890466263, -0.4013922, 0.5826236, 0.34441966, 0.61709356, -2.2643695, -4.9025955, -5.489156, 0
498, 1890482930, -0.40079585, 0.5818095, 0.34605494, 0.6173342, -1.9959787, -5.113231, -0.12234783, 0
499, 1890499597, -0.3998324, 0.5808688, 0.34778365, 0.6178732, -1.8944412, -3.3776267, 2.7534227, 0
500, 1890516264, -0.39868906, 0.579891, 0.34960067, 0.6185045, -2.098226, -1.0255111, 0.77032375, 0
501, 1890532931, -0.39738575, 0.5787157, 0.35140678, 0.61942, -1.107203, -0.58010036, 0.19967937, 0
502, 1890549598, -0.39592388, 0.5774908, 0.35325196, 0.6204489, -1.2640116, -0.33518472, -2.0053444, 0
503, 1890566265, -0.3943497, 0.576473, 0.35490164, 0.621456, -1.1439178, 1.5154701, -3.0393357, 0
504, 1890582932, -0.39271724, 0.5757336, 0.3564331, 0.6222978, -0.28481922, -0.43381986, 0.92642117, 0
505, 1890599599, -0.39083144, 0.5751811, 0.35817143, 0.6229974, 0.27232406, 2.1174088, -1.4053574, 0
506, 1890616266, -0.38906747, 0.5744039, 0.35972986, 0.62391984, 1.8777225, 4.994348, -2.0612354, 0
507, 1890632933, -0.38718075, 0.5733973, 0.36141923, 0.6250424, 1.7843448, 1.5046215, 2.8860817, 0
508, 1890649600, -0.38486466, 0.572626, 0.3634546, 0.6259989, 1.0339843, 2.5739872, -0.043519974, 0
509, 1890666267, -0.3824547, 0.5717115, 0.3655233, 0.6271064, 1.6717831, 3.6891658, -1.1964779, 0
510, 1890682934, -0.37992486, 0.5708122, 0.36789376, 0.62807643, 0.26594332, 2.531977, -1.2090816, 0
511, 1890699601, -0.37766144, 0.57012933, 0.36993852, 0.6288602, 0.008516737, 4.3532925, 1.6719303, 0
512, 1890716268, -0.3759076, 0.569697, 0.37086517, 0.6297563, 0.3835974, 4.5440435, 4.215541, 0
513, 1890732935, -0.3745983, 0.56945914, 0.3709168, 0.6307205, 1.4581205, 3.9344149, 1.8567228, 0
514, 1890749602, -0.37360016, 0.56932306, 0.3704105, 0.6317319, 2.0547438, 3.27567, 1.2016191, 0
515, 1890766269, -0.37272796, 0.56941456, 0.36960974, 0.6326332, 1.1398524, 2.3332415, -0.19887066, 0
516, 1890782936, -0.3720285, 0.56982106, 0.3683766, 0.63339776, 0.4996487, 2.9363916, 1.1686172, 0
517, 1890799603, -0.37143353, 0.5706423, 0.36663204, 0.6340194, -0.05918668, 2.6499968, 0.52938366, 0
518, 1890816270, -0.37092167, 0.5716306, 0.36480138, 0.6344846, 0.40859196, 2.9027982, 0.18544292, 0
519, 1890832937, -0.37053442, 0.5726555, 0.36289787, 0.6348781, 0.25214216, 2.4111116, -0.15185165, 0
520, 1890849604, -0.37020364, 0.57386005, 0.36078125, 0.63518983, 0.63303113, 2.836453, 0.2331934, 0
521, 1890866271, -0.37002072, 0.5750487, 0.3585209, 0.6355011, 1.3132255, 2.1723495, 1.6653614, 0
522, 1890882938, -0.36999935, 0.57633066, 0.3561353, 0.63569355, 1.3137343, 1.589485, 1.1188889, 0
523, 1890899605, -0.3702393, 0.5775333, 0.35383025, 0.6357496, 1.5696108, 1.3852339, -1.6838913, 0
524, 1890916272, -0.370708, 0.57855326, 0.3516283, 0.6357706, 1.6421824, 1.9151238, -1.482584, 0
525, 1890932939, -0.37126723, 0.57954395, 0.34952873, 0.6356999, 1.0072166, 0.5476262, 1.4116764, 0
526, 1890949606, -0.37169355, 0.580692, 0.3476395, 0.63543904, 0.9970295, 0.27822927, -0.0012016296, 0
527, 1890966273, -0.37211248, 0.5817199, 0.34598368, 0.6351573, 2.0247104, 0.9625811, -1.1658974, 0
528, 1890982940, -0.3726622, 0.58233273, 0.34471405, 0.6349637, 1.2857474, 0.8501772, 0.10378456, 0
529, 1890999607, -0.3733111, 0.5828148, 0.34367946, 0.63470113, 0.18598826, 0.5516592, 0.2768383, 0
530, 1891016274, -0.37390462, 0.58333004, 0.34284097, 0.6343316, 0.52941996, -0.52846014, -0.059030533, 0
531, 1891032941, -0.37429288, 0.58373827, 0.3423782, 0.63397694, 1.3792601, -0.78404725, -0.35875702, 0
532, 1891049608, -0.3746017, 0.5837782, 0.34244588, 0.6337211, 0.8799292, -0.9778486, 0.12935925, 0
533, 1891066275, -0.37499288, 0.5835105, 0.34294966, 0.63346404, 0.51079965, -0.5798684, 0.12299061, 0
534, 1891082942, -0.3753844, 0.5831143, 0.34352827, 0.63328344, 0.557457, -0.93128425, -0.045398712, 0
535, 1891099609, -0.37579605, 0.5825764, 0.34433025, 0.63309884, 0.63947845, -1.6875114, -0.049598694, 0
536, 1891116276, -0.37627482, 0.5819361, 0.34529606, 0.63287705, 0.46183768, -1.469551, -0.81652546, 0
537, 1891132943, -0.37682417, 0.58136785, 0.34620708, 0.6325746, -0.23433541, -2.0912287, -0.18300915, 0
538, 1891149610, -0.37737843, 0.5809815, 0.34720024, 0.6320547, -0.6791204, -2.3843446, -0.9418583, 0
539, 1891166277, -0.3779708, 0.58065957, 0.34815574, 0.6314707, 0.06826801, -1.5488929, -0.30760384, 0
540, 1891182944, -0.37859604, 0.58036494, 0.34895352, 0.6309265, -0.38575318, -2.1227245, 1.2294121, 0
541, 1891199611, -0.3792581, 0.58022577, 0.34964338, 0.6302746, -0.6929846, -1.2047267, -1.5624027, 0
542, 1891216278, -0.38004354, 0.5799963, 0.3501736, 0.6297181, -0.9845056, -1.026712, -0.3277979, 0
543, 1891232945, -0.38084158, 0.5797895, 0.3505426, 0.6292209, -0.74701226, -1.2498996, 1.602274, 0
544, 1891249612, -0.38147092, 0.5797167, 0.35070556, 0.6288158, -0.97796094, -1.0993448, 0.56823826, 0
545, 1891266279, -0.38205367, 0.57978374, 0.35075685, 0.62837136, -1.0496483, -0.96730185, -1.32588, 0
546, 1891282946, -0.38259524, 0.57987946, 0.35077065, 0.6279457, -0.73191553, 0.039430592, 0.6279726, 0
547, 1891299613, -0.38317227, 0.5798985, 0.35055304, 0.6276979, -0.78395426, -0.3608639, 1.1438398, 0
548, 1891316280, -0.3834456, 0.5801164, 0.35027844, 0.62748283, -0.51838714, -1.2005807, -0.48074722, 0
549, 1891332947, -0.38353956, 0.58039314, 0.35013106, 0.6272515, -0.7971965, -0.2152146, -0.8254366, 0
550, 1891349614, -0.38369212, 0.5805235, 0.35009924, 0.6270555, -0.6605616, -0.049244996, -0.16078949, 0
551, 1891366281, -0.38391882, 0.5805209, 0.350064, 0.62693876, -8.9841033E-4, 0.45474693, -0.76650715, 0
552, 1891382948, -0.384187, 0.5803283, 0.34987664, 0.62705743, -0.05731297, 9.678111E-5, 1.3743067, 0
553, 1891399615, -0.38435408, 0.58018994, 0.34961796, 0.62722725, -0.20070648, -0.77590287, 0.29427147, 0
554, 1891416282, -0.3844758, 0.58011323, 0.34940892, 0.62734, -0.062089887, -0.28874052, -0.34727, 0
555, 1891432949, -0.38469094, 0.5800448, 0.3492262, 0.6273732, -0.47851127, -0.35500205, -0.15914059, 0
556, 1891449616, -0.38490525, 0.58017594, 0.34885827, 0.62732536, -0.69059044, 0.30761215, -0.34523296, 0
557, 1891466283, -0.38516864, 0.5803452, 0.34816134, 0.6273942, -0.3924094, -0.119021095, -0.16630745, 0
558, 1891482950, -0.38540706, 0.58056587, 0.34731433, 0.6275131, -0.2930704, -0.16897625, -0.24365902, 0
559, 1891499617, -0.3856708, 0.5809127, 0.3462045, 0.62764335, -1.2863029, -0.3257156, -0.020008087, 0
560, 1891516284, -0.38587448, 0.58151025, 0.34497732, 0.6276405, -1.6112417, -0.7446598, -0.7884083, 0
561, 1891532951, -0.38601744, 0.58230454, 0.343629, 0.62755597, -1.165856, -0.28651613, 1.035572, 0
562, 1891549618, -0.3860321, 0.5832131, 0.34210676, 0.6275348, -1.1331923, -0.47848904, 1.5634556, 0
563, 1891566285, -0.38592327, 0.58408684, 0.34074095, 0.6275322, -1.5213077, -0.07941996, 1.569562, 0
564, 1891582952, -0.38568783, 0.5850965, 0.339439, 0.6274419, -2.443974, -0.8296452, 0.5884447, 0
565, 1891599619, -0.38540787, 0.5862852, 0.33815473, 0.6271979, -2.2048025, -2.0847602, -2.6357913, 0
566, 1891616286, -0.38513708, 0.58740926, 0.3369543, 0.6269585, -1.0268147, -1.4955271, -4.3994837, 0
567, 1891632953, -0.38502502, 0.5878736, 0.33563846, 0.62729776, -0.09606408, -1.3579818, 1.47505, 0
568, 1891649620, -0.38479885, 0.58813, 0.33452332, 0.6277916, -0.90994436, -2.085217, 1.4710226, 0
569, 1891666287, -0.38448143, 0.58830124, 0.33351716, 0.6283606, -1.5666285, -1.8297689, 0.5187788, 0
570, 1891682954, -0.3842044, 0.588616, 0.33261207, 0.628715, -2.644674, -3.4299629, -1.4769316, 0
571, 1891699621, -0.38403526, 0.58911115, 0.3318849, 0.62873894, -1.7833812, -3.3570018, -1.6403637, 0
572, 1891716288, -0.38388854, 0.58959514, 0.33126128, 0.62870383, -1.4514052, -3.716278, -0.2076168, 0
573, 1891732955, -0.3836979, 0.5900367, 0.3307453, 0.62867737, -1.846484, -2.986841, 1.5202684, 0
574, 1891749622, -0.3834254, 0.5903271, 0.33036822, 0.6287695, -1.5061291, -2.682184, 1.1703644, 0
575, 1891766289, -0.38300234, 0.5905737, 0.33033404, 0.62881345, -1.9868324, -2.805818, -0.5195122, 0
576, 1891782956, -0.38245347, 0.59065807, 0.33059835, 0.62892944, -2.184503, -2.5783842, -3.5415678, 0
577, 1891799623, -0.38178006, 0.59063023, 0.33108622, 0.6291079, -1.339253, -1.7581962, -2.5008292, 0
578, 1891816290, -0.38086691, 0.5905376, 0.33176336, 0.6293918, -1.3831365, -3.764724, 2.563527, 0
579, 1891832957, -0.37983683, 0.59025633, 0.33266935, 0.6297998, -0.19359826, -0.028303111, -3.8937755, 0
580, 1891849624, -0.37892944, 0.58996594, 0.33346105, 0.6301997, -0.25206393, -0.9160855, 2.8006945, 0
581, 1891866291, -0.378043, 0.59001726, 0.33397755, 0.6304105, -0.19617978, -1.353046, 4.1226397, 0
582, 1891882958, -0.37723246, 0.590324, 0.33441022, 0.63037956, 1.544907, 2.0648832, 0.92510414, 0
583, 1891899625, -0.37646022, 0.59024423, 0.3349456, 0.63063174, 2.006603, 2.5684505, -5.77475, 0
584, 1891916292, -0.3758811, 0.59009373, 0.33554655, 0.6307984, 0.94597626, 3.8534236, -5.5570908, 0
585, 1891932959, -0.37534323, 0.59000844, 0.33624774, 0.630825, 2.5767562, 1.6604494, 0.6939211, 0
586, 1891949626, -0.37456506, 0.5899136, 0.33747858, 0.63071895, 5.2561336, 3.492153, 5.611305, 0
587, 1891966293, -0.37389362, 0.58919716, 0.3391759, 0.6308766, 4.8075805, 5.7927704, 3.166811, 0
588, 1891982960, -0.37363976, 0.5881761, 0.34076363, 0.6311242, 3.5006132, 6.6750283, -0.061037064, 0
589, 1891999627, -0.37387148, 0.58716476, 0.34177184, 0.63138324, 3.3806114, 4.201768, -1.4794607, 0
590, 1892016294, -0.3742961, 0.58652425, 0.342492, 0.6313367, 3.8087592, 2.9030783, -0.11818218, 0
591, 1892032961, -0.37484345, 0.5860484, 0.34274897, 0.6313144, 3.6037762, 3.6424105, 2.3910933, 0
592, 1892049628, -0.37561688, 0.58576065, 0.34233987, 0.63134396, 2.2524168, 5.2335143, 3.337572, 0
593, 1892066295, -0.37678862, 0.5854944, 0.34142038, 0.6313905, 1.4565724, 5.0454216, 2.4660025, 0
594, 1892082962, -0.37793586, 0.58573794, 0.34017977, 0.6311487, 1.044911, 3.3326685, 1.1207094, 0
595, 1892099629, -0.3789755, 0.58623815, 0.3390586, 0.6306639, 0.5975209, 2.779626, -1.6425428, 0
596, 1892116296, -0.3801085, 0.58683246, 0.33789718, 0.63005227, 0.9428145, 4.5145655, 0.10966492, 0
597, 1892132963, -0.3813693, 0.5874066, 0.33617154, 0.62967837, 1.9805048, 4.5659842, 0.36565876, 0
598, 1892149630, -0.3827081, 0.58769554, 0.33440885, 0.629535, 3.289885, 3.3075085, 0.402915, 0
599, 1892166297, -0.3839707, 0.58773607, 0.33287373, 0.62954205, 2.2401533, 2.304253, 0.4303198, 0
600, 1892182964, -0.38500625, 0.5879106, 0.331396, 0.6295263, 0.4076379, 1.4984496, -1.3185368, 0
601, 1892199631, -0.38570815, 0.58836794, 0.33011118, 0.62934417, 1.0029094, 0.7139806, 0.428298, 0
602, 1892216298, -0.38605145, 0.58889824, 0.32924965, 0.62908906, -0.1128299, -0.4565563, -0.66591835, 0
603, 1892232965, -0.38631582, 0.58963007, 0.32867837, 0.62853974, -0.660195, -0.30957192, -1.0364342, 0
604, 1892249632, -0.38660246, 0.5904681, 0.32815266, 0.627851, 0.28046215, -0.19070327, -1.0542622, 0
605, 1892266299, -0.3871828, 0.5909979, 0.32772985, 0.6272155, 1.4758577, -0.70346767, 0.38756084, 0
606, 1892282966, -0.38798988, 0.59087634, 0.32790476, 0.62673986, 2.388275, -0.6607119, 1.0576668, 0
607, 1892299633, -0.38867927, 0.5902343, 0.32889044, 0.626401, 0.8978132, -2.4885578, 0.027712822, 0
608, 1892316300, -0.38907635, 0.5896242, 0.33068764, 0.62578243, -0.5497157, -3.7998757, -3.2527442, 0
609, 1892332967, -0.3892728, 0.5889815, 0.33299628, 0.62504077, -1.087772, -4.1150575, -2.3819919, 0
610, 1892349634, -0.38917685, 0.58821416, 0.33587343, 0.6242834, 0.32316694, -5.9838595, 0.23528194, 0
611, 1892366301, -0.38874817, 0.5869396, 0.33931813, 0.62388706, -0.92885023, -5.023836, 0.85956097, 0
612, 1892382968, -0.38828397, 0.58537775, 0.34261507, 0.6238417, -3.1808054, -3.5985816, 0.51708317, 0
613, 1892399635, -0.38808718, 0.5838909, 0.34530237, 0.623876, -3.597783, -4.9908075, 3.43678, 0
614, 1892416302, -0.3880234, 0.58225524, 0.34787446, 0.6240154, -1.050656, -4.8796372, 1.0540094, 0
615, 1892432969, -0.38800007, 0.58022773, 0.3505043, 0.6244467, -0.80251276, -4.260848, 5.2247477, 0
616, 1892449636, -0.3879546, 0.5780648, 0.35261047, 0.6252947, 0.12704085, -1.2160256, 0.5910673, 0
617, 1892466303, -0.38814256, 0.5762762, 0.35366014, 0.6262354, -2.5327716, 0.8984327, -1.6200609, 0
618, 1892482970, -0.38877037, 0.5753313, 0.35437328, 0.62631166, -1.6506015, -3.0081642, -5.2389455, 0
619, 1892499637, -0.38904697, 0.57430923, 0.35672486, 0.6257427, 5.5706434, -3.7751284, -2.990457, 0
620, 1892516304, -0.3881663, 0.5720727, 0.3608934, 0.625948, 4.6597605, -1.643163, 1.0674, 0
621, 1892532971, -0.38724086, 0.5706628, 0.36308426, 0.626541, -8.504722, 7.912598, -0.7060003, 0
622, 1892549638, -0.38713259, 0.5706607, 0.3624634, 0.6269693, -2.8593566, 2.0853531, 2.2766619, 0
623, 1892566305, -0.38684675, 0.5706296, 0.36278114, 0.62699, 4.9413447, -3.4842913, -2.6932979, 0
624, 1892582972, -0.38584098, 0.57079417, 0.36411244, 0.62668806, -5.1547484, 2.5184376, -8.007045, 0
625, 1892599639, -0.38530222, 0.5721721, 0.3628053, 0.6265213, -10.174676, 5.926119, 4.8337126, 0
626, 1892616306, -0.38458002, 0.57457757, 0.3603108, 0.6262029, -2.0865858, -3.1829147, -0.6352701, 0
627, 1892632973, -0.38295957, 0.5760333, 0.35974172, 0.62618595, 0.47757578, -7.404753, -6.7239804, 0
628, 1892649640, -0.38061154, 0.5769298, 0.3614139, 0.6258291, -1.5783913, 0.0119555965, -5.984514, 0
629, 1892666307, -0.37815872, 0.57795984, 0.36187676, 0.626098, -4.2845874, 4.536738, 13.77527, 0
630, 1892682974, -0.37598804, 0.5786783, 0.36074802, 0.62739193, 3.0703282, 2.198083, 9.360241, 0
631, 1892699641, -0.37401107, 0.5776952, 0.36107466, 0.62928885, 8.1191025, -0.88829666, 3.2092876, 0
632, 1892716308, -0.37207094, 0.5757821, 0.36285958, 0.63116276, 0.41087097, -0.7431531, -1.9479446, 0
633, 1892732975, -0.37038687, 0.57531315, 0.3633647, 0.63228935, -7.03218, 2.5609138, -4.667332, 0
634, 1892749642, -0.36926907, 0.57603514, 0.3620748, 0.6330251, -1.8302011, 0.51256996, -0.9278879, 0
635, 1892766309, -0.36856115, 0.5762742, 0.36144105, 0.63358223, 5.203135, -0.86674726, 3.1898937, 0
636, 1892782976, -0.36822855, 0.57520306, 0.36210504, 0.6343692, 4.2545314, 1.2916715, 1.7633696, 0
637, 1892799643, -0.3676971, 0.57442045, 0.36240447, 0.635215, -1.3276701, 1.527313, -0.27679348, 0
638, 1892816310, -0.3669321, 0.5743873, 0.36183402, 0.63601214, 0.44427577, 0.19749705, -4.082224, 0
639, 1892832977, -0.36585596, 0.57379466, 0.36237246, 0.63685995, 3.570895, -2.5546658, 1.7968187, 0
640, 1892849644, -0.36486673, 0.57246286, 0.36436608, 0.6374881, 0.47956035, -0.71398824, -0.88328457, 0
641, 1892866311, -0.364552, 0.5707577, 0.36616153, 0.638168, 0.095317885, 1.2144383, -1.9132376, 0
642, 1892882978, -0.3646703, 0.5692569, 0.36696446, 0.6389793, 2.1290305, -2.725913, 0.13199139, 0
643, 1892899645, -0.3649363, 0.5680233, 0.3675837, 0.63956887, 2.0025547, -4.5339518, 1.089385, 0
644, 1892916312, -0.36568996, 0.5670166, 0.3685038, 0.63950235, -0.5895485, -5.1020474, -0.34814072, 0
645, 1892932979, -0.36693326, 0.56672984, 0.369009, 0.6387525, -1.4951848, -2.5184095, -3.042951, 0
646, 1892949646, -0.36872813, 0.56702065, 0.36816856, 0.6379454, -2.0214338, -1.5126722, -0.19557762, 0
647, 1892966313, -0.37097064, 0.5680637, 0.3659395, 0.63699913, -3.2225916, -2.399065, -0.39216518, 0
648, 1892982980, -0.3735939, 0.5694998, 0.36322862, 0.63573384, -1.0176048, -4.1543684, 0.6950302, 0
649, 1892999647, -0.37611452, 0.5711649, 0.36042872, 0.63434595, -0.95461047, -2.12972, -3.9535403, 0
650, 1893016314, -0.378361, 0.57295936, 0.35740933, 0.6330988, -3.4427762, -0.886964, -0.9934015, 0
651, 1893032981, -0.37990513, 0.5751467, 0.35402873, 0.63208956, -5.198167, 0.0811913, -3.7932801, 0
652, 1893049648, -0.38083014, 0.57734096, 0.35121703, 0.6311003, -1.3771046, 0.54443836, -4.342524, 0
653, 1893066315, -0.38124493, 0.57909757, 0.34967124, 0.6300979, -0.9336324, 0.49108925, -0.33913422, 0
654, 1893082982, -0.3814681, 0.5806718, 0.3485705, 0.6291234, 1.4685172, 2.8573072, 6.199707, 0
655, 1893099649, -0.38177136, 0.5817186, 0.3476914, 0.62845856, 3.3853626, 5.0327168, 4.539912, 0
656, 1893116316, -0.38230866, 0.58190876, 0.3468199, 0.6284373, 5.442627, 6.626086, -0.78415966, 0
657, 1893132983, -0.3828133, 0.58159983, 0.3463397, 0.62868077, 3.674774, 1.9293534, -0.24263096, 0
658, 1893149650, -0.38316008, 0.5814741, 0.34678298, 0.6283415, 3.2131524, 2.7337158, 1.5867453, 0
659, 1893166317, -0.38354588, 0.5811981, 0.34737295, 0.6280353, 3.9629102, 4.5773735, 4.9485846, 0
660, 1893182984, -0.38403767, 0.5804007, 0.34799415, 0.6281284, 4.7986774, 6.885866, 1.0457821, 0
661, 1893199651, -0.38465202, 0.5789095, 0.34892485, 0.6286121, 4.65018, 4.9230795, 0.17791843, 0
662, 1893216318, -0.3850224, 0.57734233, 0.35045704, 0.62897426, 3.079047, 1.8052031, -1.3764019, 0
663, 1893232985, -0.38517958, 0.57618326, 0.35226735, 0.6289296, 1.3628027, 1.9052283, 0.013914108, 0
664, 1893249652, -0.38528118, 0.5754006, 0.3538584, 0.6286908, 1.1368308, 2.2511563, -1.2091064, 0
665, 1893266319, -0.38550085, 0.57450855, 0.35513476, 0.6286522, 2.3484051, 4.247071, -1.0363922, 0
666, 1893282986, -0.38593546, 0.5733764, 0.35605973, 0.62889594, 0.8906003, 2.4906492, 3.9391346, 0
667, 1893299653, -0.38624498, 0.5726306, 0.35690683, 0.6289052, -0.5083842, 1.6759439, 1.3703365, 0
668, 1893316320, -0.38646427, 0.5720068, 0.35748205, 0.6290115, -0.44099206, 2.9591897, -3.238772, 0
669, 1893332987, -0.3863427, 0.57142705, 0.35795504, 0.6293441, -0.7928728, 0.97055686, 0.03200531, 0
670, 1893349654, -0.3858641, 0.571047, 0.35865977, 0.62958145, -0.8826632, 0.631526, 0.43475723, 0
671, 1893366321, -0.3850955, 0.57073337, 0.35934532, 0.6299452, -0.22797808, 2.1918328, 0.66152096, 0
672, 1893382988, -0.3841532, 0.5702732, 0.35975745, 0.63070154, -1.1330316, 2.2641535, -0.4557228, 0
673, 1893399655, -0.3831611, 0.56994146, 0.3599874, 0.63147336, -1.3597883, 1.5596642, -0.5374985, 0
674, 1893416322, -0.38207364, 0.57009965, 0.35982132, 0.6320839, -1.4634382, -0.5705221, 0.40456772, 0
675, 1893432989, -0.3807851, 0.5707213, 0.35934147, 0.6325732, -1.0441923, 0.5610061, -0.06745815, 0
676, 1893449656, -0.37958154, 0.5712212, 0.3584767, 0.6333356, -1.6580063, 2.181331, 1.391676, 0
677, 1893466323, -0.3785202, 0.5717454, 0.35713404, 0.6342557, -2.2653391, 1.1537737, 1.0471268, 0
678, 1893482990, -0.37734032, 0.57258534, 0.35568124, 0.6350168, -1.5466119, -0.20178884, -0.5710659, 0
679, 1893499657, -0.3757788, 0.5737304, 0.3542913, 0.635686, -2.3301275, -0.848792, 0.65849495, 0
680, 1893516324, -0.37394798, 0.5750406, 0.35328057, 0.63614434, -2.390763, -0.22412986, -1.1057186, 0
681, 1893532991, -0.37215027, 0.5760283, 0.3523853, 0.6368008, -0.97591835, 0.72244984, -0.5133419, 0
682, 1893549658, -0.37036717, 0.5768121, 0.35123682, 0.63776475, -0.58631337, 0.15082262, -1.4658928, 0
683, 1893566325, -0.36867687, 0.57719123, 0.35040495, 0.6388577, -0.12593837, -0.15066628, -0.69888496, 0
684, 1893582992, -0.36709276, 0.57737017, 0.3501103, 0.639769, -1.1781764, -2.8059902, 1.6341476, 0
685, 1893599659, -0.36547798, 0.57795143, 0.34969726, 0.6403942, -0.7613136, -1.1931837, -1.8296885, 0
686, 1893616326, -0.36407998, 0.57871187, 0.34896615, 0.6409027, -0.33985183, -1.4606495, 0.58845997, 0
687, 1893632993, -0.36296123, 0.5791632, 0.34842, 0.64142644, 0.26789513, -1.304141, -0.40123367, 0
688, 1893649660, -0.36220622, 0.579629, 0.3476304, 0.6418607, -1.1340297, -1.1836761, 0.656477, 0
689, 1893666327, -0.3616432, 0.5805126, 0.34626323, 0.64211863, -2.4440095, -1.6058517, -0.022669792, 0
690, 1893682994, -0.36131525, 0.5815522, 0.34482083, 0.6421388, -1.4924428, -1.2107978, -0.6853428, 0
691, 1893699661, -0.36105746, 0.5825724, 0.34329012, 0.64217913, -0.8262351, -1.0836556, 0.16348934, 0
692, 1893716328, -0.36081308, 0.5835086, 0.34198835, 0.64216095, -0.31859717, -0.58343697, 1.0359163, 0
693, 1893732995, -0.36052108, 0.5843943, 0.34083778, 0.64213127, -0.87162477, -0.112890586, 0.6719589, 0
694, 1893749662, -0.36015218, 0.5853904, 0.33964154, 0.6420649, -0.70738876, 0.057774745, -1.0744877, 0
695, 1893766329, -0.35986018, 0.5859166, 0.33884564, 0.64216906, 0.8920854, 0.32835597, 0.5568123, 0
696, 1893782996, -0.35955492, 0.5861194, 0.33835304, 0.6424148, 0.29162058, 0.13223876, 2.5433254, 0
697, 1893799663, -0.35934827, 0.5860013, 0.33787966, 0.642887, 0.6047463, 0.86910754, -1.9626632, 0
698, 1893816330, -0.35923314, 0.5856427, 0.3375354, 0.64345884, 1.4158049, -0.12688115, 1.9589863, 0
699, 1893832997, -0.35916674, 0.5853201, 0.33741474, 0.6438525, 0.07559833, -2.3768256, -0.62430096, 0
700, 1893849664, -0.3588634, 0.5855154, 0.3375709, 0.6437622, -0.5347581, -1.4220524, -0.25033188, 0
701, 1893866331, -0.35878384, 0.5857258, 0.33763978, 0.64357907, -0.7998772, -2.4109118, 2.1366043, 0
702, 1893882998, -0.35887602, 0.58596444, 0.33781064, 0.6432207, -0.14438647, -1.8599124, -1.1359196, 0
703, 1893899665, -0.35936606, 0.58586514, 0.3374884, 0.6432067, 0.40756515, -1.298638, -2.4086976, 0
704, 1893916332, -0.36027774, 0.5855201, 0.33681148, 0.6433659, -0.9134453, -2.9448924, 0.24979591, 0
705, 1893932999, -0.36137858, 0.58527535, 0.3358816, 0.64345706, -2.2872286, -6.453724, 1.2037325, 0
706, 1893949666, -0.3624483, 0.58529085, 0.33521074, 0.64319104, -1.607243, -7.1497965, -3.611353, 0
707, 1893966333, -0.3636722, 0.5855658, 0.33458772, 0.6425741, -2.750955, -6.1074095, -0.3541851, 0
708, 1893983000, -0.36526605, 0.5862949, 0.33330736, 0.64167017, -5.403054, -6.459374, -2.916274, 0
709, 1893999667, -0.36727038, 0.58757436, 0.33157042, 0.6402539, -2.715577, -4.6188445, -0.6422739, 0
710, 1894016334, -0.36962557, 0.5885539, 0.32949302, 0.6390703, -1.3574389, -3.9727407, -0.03037548, 0
711, 1894033001, -0.3719468, 0.58933294, 0.3277878, 0.63788146, -0.3895487, -3.4543371, -0.47798347, 0
712, 1894049668, -0.37369213, 0.590273, 0.3264086, 0.63669837, -2.3295507, -2.9168723, -0.42296886, 0
713, 1894066335, -0.37502775, 0.5910479, 0.32569858, 0.63555664, -1.1414062, -2.7373834, -3.187058, 0
714, 1894083002, -0.3758685, 0.591291, 0.32601607, 0.6346705, -0.33446145, -1.8910587, -3.655478, 0
715, 1894099669, -0.3764327, 0.59090155, 0.3272069, 0.6340857, 0.8959348, -0.9238253, 1.3334904, 0
716, 1894116336, -0.3769509, 0.5899422, 0.3287702, 0.63386256, 3.1498291, 1.3059245, 2.2158556, 0
717, 1894133003, -0.37715673, 0.58966076, 0.3300173, 0.63335353, 2.2741826, 1.7748429, 1.7502356, 0
718, 1894149670, -0.37733972, 0.5900365, 0.33118647, 0.63228345, 3.4914613, 2.3923235, -0.8355379, 0
719, 1894166337, -0.37772167, 0.59035987, 0.33218774, 0.6312275, 3.4621942, 4.4308887, -1.6491652, 0
720, 1894183004, -0.37839434, 0.5907674, 0.33237115, 0.6303463, 2.8998194, 7.0992746, 3.163498, 0
721, 1894199671, -0.3793188, 0.5913617, 0.33172897, 0.6295711, 2.4533863, 5.3813944, 5.0659876, 0
722, 1894216338, -0.38011003, 0.5916169, 0.33120486, 0.6291298, 3.746815, 6.6824465, -0.010699272, 0
723, 1894233005, -0.3809063, 0.5907645, 0.33134943, 0.6293729, 3.3836992, 4.9651933, 0.8325157, 0
724, 1894249672, -0.38130373, 0.58998865, 0.33224383, 0.6293887, 0.81801337, 2.8781404, 1.9605045, 0
725, 1894266339, -0.38151628, 0.5894327, 0.33315668, 0.62929815, 2.7389917, 4.312531, -0.6575413, 0
726, 1894283006, -0.38155836, 0.58856356, 0.3342227, 0.629521, 4.3394547, 3.324588, 1.3738718, 0
727, 1894299673, -0.38141146, 0.58753365, 0.33551505, 0.6298843, 3.7085783, 3.6048267, 1.7680111, 0
728, 1894316340, -0.38130596, 0.58659714, 0.3364573, 0.6303184, 1.659155, 3.943342, 0.98096657, 0
729, 1894333007, -0.3812803, 0.58589303, 0.33728448, 0.6305467, 0.8973007, 2.768036, -2.5597339, 0
730, 1894349674, -0.38128558, 0.5852946, 0.3380944, 0.6306656, 1.4235399, 2.8794239, -1.6282692, 0
731, 1894366341, -0.38121462, 0.5848668, 0.3388381, 0.6307062, 1.2155603, 1.9997588, -0.25614452, 0
732, 1894383008, -0.38104168, 0.5844606, 0.3395613, 0.6307981, 1.5895281, 2.7177658, 3.082961, 0
733, 1894399675, -0.38072386, 0.5839303, 0.3401248, 0.6311774, 0.7552123, 2.5454805, -0.28680134, 0
734, 1894416342, -0.3802384, 0.5833974, 0.34069386, 0.6316558, 0.4431749, 2.6616025, -0.27569103, 0
735, 1894433009, -0.37969345, 0.5826947, 0.34146222, 0.632217, 0.52261853, 1.2850587, 0.27787304, 0
736, 1894449676, -0.37901285, 0.5820012, 0.3424501, 0.63273007, 0.42521247, 1.068829, -0.8730421, 0
737, 1894466343, -0.37820834, 0.58144736, 0.34350327, 0.63314945, 0.5584135, 1.5889579, -0.46195126, 0
738, 1894483010, -0.3774396, 0.58095336, 0.34427154, 0.63364404, 0.37826562, 0.92313534, 0.2704649, 0
739, 1894499677, -0.37667468, 0.58055764, 0.34509358, 0.63401455, 1.2719646, 1.2659456, -0.59846306, 0
740, 1894516344, -0.37600476, 0.5800257, 0.34588844, 0.63446593, 0.8482262, 0.8236837, 2.3963404, 0
741, 1894533011, -0.37533984, 0.5794814, 0.34676194, 0.63487995, 0.42779484, 1.0476986, 0.34043217, 0
742, 1894549678, -0.37476224, 0.57889986, 0.3474447, 0.63537824, 0.25619346, 1.3511143, -0.1638279, 0
743, 1894566345, -0.3739822, 0.5785756, 0.348066, 0.63579303, 0.2730033, -0.3264818, 0.7029314, 0
744, 1894583012, -0.37309426, 0.578448, 0.3489242, 0.63596046, -0.78563493, -0.19766591, 1.6360712, 0
745, 1894599679, -0.37222075, 0.5785449, 0.34980989, 0.6358976, -1.240001, -0.39159873, -1.6115112, 0
746, 1894616346, -0.371431, 0.5785716, 0.35035923, 0.63603264, 0.2773419, 2.191636, -2.6947489, 0
747, 1894633013, -0.3707986, 0.5782703, 0.35043314, 0.63663477, -0.17793107, 1.3638756, 1.722599, 0
748, 1894649680, -0.37017697, 0.5778893, 0.3502705, 0.6374314, -0.8281688, 0.7683808, -0.5866537, 0
749, 1894666347, -0.36961553, 0.57766753, 0.3498476, 0.63819003, -1.233375, 0.72796875, 1.8617687, 0
750, 1894683014, -0.36897707, 0.577874, 0.34932512, 0.6386585, -2.0164838, -1.3557695, -0.8510647, 0
751, 1894699681, -0.3681753, 0.57850873, 0.34872156, 0.6388764, -1.3901678, 0.1601088, -0.45568562, 0
752, 1894716348, -0.367349, 0.57938004, 0.3475954, 0.63917637, -1.2860379, 0.36917925, -1.0551949, 0
753, 1894733015, -0.36657816, 0.5803047, 0.34620085, 0.6395367, -1.073596, 1.0328668, 0.19816113, 0
754, 1894749682, -0.36590695, 0.5812679, 0.34451342, 0.6399574, -1.6167241, 0.47357613, 0.8885355, 0
755, 1894766349, -0.36518505, 0.5824682, 0.34257802, 0.6403172, -1.6875455, 0.39973682, -0.22234726, 0
756, 1894783016, -0.36469063, 0.58348644, 0.3405501, 0.6407536, -0.54950035, 0.5528201, 0.11683464, 0
757, 1894799683, -0.3641541, 0.5844462, 0.33857405, 0.6412311, -0.81036055, -1.0070374, 0.9070196, 0
758, 1894816350, -0.3635659, 0.58531094, 0.3371742, 0.64151365, -0.7703172, -1.2087117, -0.8621855, 0
759, 1894833017, -0.36293483, 0.586084, 0.33597782, 0.64179283, -0.9841427, -1.0555737, 0.2607603, 0
760, 1894849684, -0.36242807, 0.5866275, 0.33510178, 0.6420406, 0.65874743, -0.41165522, 0.4106846, 0
761, 1894866351, -0.36208352, 0.5865516, 0.3346495, 0.64254004, 1.5244275, -0.78591555, 1.6643982, 0
762, 1894883018, -0.36165646, 0.5861849, 0.33471024, 0.6430832, 0.9366999, -1.5245601, 0.106152534, 0
763, 1894899685, -0.36109066, 0.5859601, 0.33521613, 0.64334255, -0.97057015, -2.3941586, -1.9520779, 0
764, 1894916352, -0.36048073, 0.58588314, 0.33593154, 0.64338166, -0.94053537, -1.6137717, -1.9572759, 0
765, 1894933019, -0.36013907, 0.5857028, 0.33651045, 0.6434346, -0.069665074, -0.93818647, 0.30239487, 0
766, 1894949686, -0.35997307, 0.5852484, 0.33700892, 0.64368, 0.046579316, -1.1026937, 0.8016424, 0
767, 1894966353, -0.3599391, 0.58469635, 0.3374597, 0.6439643, -0.60050845, -0.9578411, 0.27494526, 0
768, 1894983020, -0.3598648, 0.5842673, 0.3376101, 0.64431626, -0.837843, -0.58997476, 0.36793232, 0
769, 1894999687, -0.3597426, 0.5840608, 0.33750004, 0.6446295, -1.5836647, -1.143206, 0.77452564, 0
770, 1895016354, -0.35969853, 0.5839469, 0.33746895, 0.64477354, -2.2184665, -2.661275, -0.87556076, 0
771, 1895033021, -0.35944158, 0.58418304, 0.3374896, 0.644692, -2.59361, -3.3659115, -1.4776773, 0
772, 1895049688, -0.35919744, 0.584633, 0.33754382, 0.64439166, -2.5839515, -3.664553, 0.35067844, 0
773, 1895066355, -0.35899132, 0.58500236, 0.3372555, 0.64432245, -1.5220511, -2.8171282, -0.73941517, 0
774, 1895083022, -0.3589907, 0.5853578, 0.33665496, 0.64431405, -2.0612226, -4.0251484, 1.2229414, 0
775, 1895099689, -0.3591901, 0.5854642, 0.33598298, 0.64445674, -1.5326495, -3.9503608, -2.2619267, 0
776, 1895116356, -0.35946795, 0.58564377, 0.33515006, 0.6445725, -2.69029, -5.188787, 1.9937954, 0
777, 1895133023, -0.3598668, 0.58593184, 0.33422026, 0.644571, -3.771227, -6.0337625, -0.74352837, 0
778, 1895149690, -0.36044192, 0.58642876, 0.33327997, 0.64428455, -2.627631, -5.44236, -3.3199477, 0
779, 1895166357, -0.36116114, 0.58685833, 0.3322991, 0.6439972, -1.9856098, -4.764092, -1.0718327, 0
780, 1895183024, -0.36207643, 0.58722574, 0.33140555, 0.6436086, -3.420671, -5.216655, 1.1666737, 0
781, 1895199691, -0.36301997, 0.5878347, 0.33051845, 0.64297706, -1.5314989, -4.8849583, -1.32588, 0
782, 1895216358, -0.3639461, 0.58846897, 0.32980013, 0.6422418, -0.79688334, -4.365623, -1.7537031, 0
783, 1895233025, -0.36489165, 0.5891397, 0.32930106, 0.6413458, -1.2246417, -3.6049287, -2.3786688, 0
784, 1895249692, -0.3658183, 0.5898931, 0.32903266, 0.6402623, -0.9422353, -1.6504928, -3.986753, 0
785, 1895266359, -0.3671099, 0.5904374, 0.32862124, 0.6392317, 0.33234286, 0.9998936, 0.27560806, 0
786, 1895283026, -0.3684782, 0.59081346, 0.32823277, 0.63829595, 3.1843522, 2.6857576, 1.4684076, 0
787, 1895299693, -0.36962163, 0.5912196, 0.3281455, 0.637303, 3.6198444, 3.305787, 0.6945257, 0
788, 1895316360, -0.37063497, 0.59190935, 0.327827, 0.6362374, 3.2977686, 4.9553466, 1.5218449, 0
789, 1895333027, -0.37162954, 0.59279245, 0.3270447, 0.6352366, 3.224528, 5.682843, -0.31784725, 0
790, 1895349694, -0.37259126, 0.59370226, 0.32628495, 0.6342134, 3.8788652, 6.061939, 2.1950865, 0
791, 1895366361, -0.37342638, 0.5941322, 0.32587835, 0.63352853, 4.2266936, 6.6995397, 5.133767, 0
792, 1895383028, -0.37429276, 0.59404624, 0.32571366, 0.63318235, 4.069377, 7.55038, 3.797925, 0
793, 1895399695, -0.3751598, 0.5936925, 0.32549205, 0.633115, 5.334311, 7.6932545, 1.0166302, 0
794, 1895416362, -0.37599522, 0.5931522, 0.32518005, 0.6332861, 4.7104325, 5.6399384, -0.22431374, 0
795, 1895433029, -0.37641487, 0.5927811, 0.32527155, 0.6333373, 4.861696, 5.39923, -0.11334801, 0
796, 1895449696, -0.37652802, 0.5924013, 0.32565698, 0.6334273, 3.5747077, 4.128496, 1.1287088, 0
797, 1895466363, -0.37651727, 0.5920828, 0.32615507, 0.6334751, 3.425266, 6.743155, -1.2836113, 0
798, 1895483030, -0.37681448, 0.5915048, 0.32656467, 0.63362736, 2.9341855, 4.5997458, -0.47144985, 0
799, 1895499697, -0.37715247, 0.59121996, 0.3268991, 0.63351965, 1.621042, 3.5277534, 0.8981695, 0
800, 1895516364, -0.3775906, 0.59104025, 0.32720158, 0.6332702, 2.3564036, 2.7110813, -0.69183636, 0
801, 1895533031, -0.37801653, 0.59075624, 0.32746452, 0.6331452, 2.1092591, 3.1018372, -0.36844158, 0
802, 1895549698, -0.37840956, 0.5903045, 0.3276401, 0.6332408, 0.08500689, 2.0388093, 0.7089968, 0
803, 1895566365, -0.37885952, 0.5899508, 0.32767454, 0.6332835, 0.13270691, 0.9432144, 2.0055933, 0
804, 1895583032, -0.3791527, 0.589514, 0.32798234, 0.6333557, 0.4144812, -0.7797637, -0.32424545, 0
805, 1895599699, -0.37917554, 0.58885586, 0.32908788, 0.6333808, 0.81671757, -1.3778046, -1.3478022, 0
806, 1895616366, -0.3790373, 0.5880115, 0.33044708, 0.6335403, 0.14775503, -0.7906809, -0.95396614, 0
807, 1895633033, -0.3788544, 0.5871186, 0.3318182, 0.633761, 0.5827297, -1.6838036, 0.066967964, 0
808, 1895649700, -0.37875593, 0.5860398, 0.33349654, 0.6339375, 1.1993413, -1.8254277, 0.9432192, 0
809, 1895666367, -0.37867525, 0.584809, 0.33531174, 0.6341647, 0.45372626, -2.1381602, -0.15914631, 0
810, 1895683034, -0.37873796, 0.5836745, 0.3371659, 0.6341892, 0.29827052, -1.534902, 0.702363, 0
811, 1895699701, -0.37905636, 0.58248055, 0.33887047, 0.6341882, 0.67091304, -1.6778677, 1.6231899, 0
812, 1895716368, -0.37944388, 0.5813818, 0.34066182, 0.6340049, 0.8496365, -1.8823171, -0.6293659, 0
813, 1895733035, -0.3798167, 0.5801975, 0.34233862, 0.6339634, 1.0426635, -0.825445, -1.4885092, 0
814, 1895749702, -0.38014972, 0.5792758, 0.34391525, 0.63375324, -0.41391268, -1.3108125, -0.11945152, 0
815, 1895766369, -0.38052532, 0.5784087, 0.34535396, 0.6335375, 0.23297124, 0.09211706, -0.7588568, 0
816, 1895783036, -0.3810042, 0.5773949, 0.3468619, 0.63335073, 0.05063038, -0.7063908, -0.12726212, 0
817, 1895799703, -0.38144732, 0.57638174, 0.34854385, 0.6330833, 0.50815636, 0.16867718, 1.0554504, 0
818, 1895816370, -0.38161692, 0.57545584, 0.35003752, 0.6329992, 0.16428024, -0.2548783, -2.027029, 0
819, 1895833037, -0.3815343, 0.5747252, 0.35156938, 0.63286376, 0.022985626, -0.27836415, 1.6166115, 0
820, 1895849704, -0.3813013, 0.57391965, 0.35307494, 0.63289714, -0.32553378, -0.091068566, -3.3503876, 0
821, 1895866371, -0.3809114, 0.5733123, 0.35430032, 0.6329975, -0.08441235, 1.8773215, 1.9113951, 0
822, 1895883038, -0.3804934, 0.5726087, 0.35527882, 0.6333374, -0.8830779, 0.4232752, -0.52005863, 0
823, 1895899705, -0.37977713, 0.57208216, 0.35633683, 0.6336488, 1.0487088, -0.0068653473, -1.9086766, 0
824, 1895916372, -0.37866417, 0.5715048, 0.3579002, 0.6339547, -2.6828763, -1.8088235, -0.78497887, 0
825, 1895933039, -0.37786245, 0.5716193, 0.35847512, 0.63400483, -4.478619, 2.2244258, 1.8963165, 0
826, 1895949706, -0.37740973, 0.57195115, 0.35769674, 0.6344146, -0.52253103, 4.9268923, 2.1416426, 0
827, 1895966373, -0.3770176, 0.57193017, 0.35730127, 0.63488954, 5.150867, 0.99954623, 1.8201857, 0
828, 1895983040, -0.3760421, 0.57135934, 0.358434, 0.6353433, 2.7502248, -0.4685463, -0.75578594, 0
829, 1895999707, -0.374963, 0.57132137, 0.3591384, 0.6356175, -1.3592947, 2.8332543, -0.77676964, 0
830, 1896016374, -0.37399787, 0.5720123, 0.35830453, 0.6360349, -0.22320965, 3.5870597, 1.5018806, 0
831, 1896033041, -0.37352297, 0.5725803, 0.35716134, 0.63644576, 0.45415598, 2.1009686, 0.76795197, 0
832, 1896049708, -0.37349883, 0.57266104, 0.35656437, 0.63672197, 1.3086059, 1.6739217, 0.46746063, 0
833, 1896066375, -0.37367043, 0.5727679, 0.3560795, 0.6367967, -0.39800236, 0.10666709, -0.3306713, 0
834, 1896083042, -0.37387183, 0.5732044, 0.35532993, 0.6367044, -0.7640148, -0.5279691, -0.37361336, 0
835, 1896099709, -0.37404197, 0.57360137, 0.3544499, 0.6367372, 0.38047075, -1.8552684, 0.104468346, 0
836, 1896116376, -0.37375215, 0.57356226, 0.35453442, 0.63689595, 1.8038704, -3.285495, 1.1720648, 0
837, 1896133043, -0.37313354, 0.5732115, 0.355, 0.6373149, -2.6091888, -1.0961885, -3.4093223, 0
838, 1896149710, -0.37250963, 0.5735896, 0.3544982, 0.6376188, -3.7556431, -1.1795657, -0.60842514, 0
839, 1896166377, -0.37198406, 0.5741223, 0.353643, 0.6379211, -2.4255044, -2.8557556, 0.5137844, 0
840, 1896183044, -0.37168828, 0.57446414, 0.35320744, 0.6380271, -1.0562593, -2.4520273, 0.13809204, 0
841, 1896199711, -0.3715637, 0.5745702, 0.35279566, 0.6382322, -2.4855497, -2.237474, 2.409114, 0
842, 1896216378, -0.37148446, 0.5751343, 0.3516556, 0.6383991, -2.300041, -0.56361896, 0.34370422, 0
843, 1896233045, -0.37139937, 0.5757186, 0.3501125, 0.6387699, -0.7673099, -1.648163, -0.41366673, 0
844, 1896249712, -0.3712675, 0.5761804, 0.34895936, 0.6390611, -1.9672633, -1.3866552, 1.7313604, 0
845, 1896266379, -0.37124145, 0.5763803, 0.34812674, 0.63935, -1.7324094, -1.2429659, -2.0146704, 0
846, 1896283046, -0.37086463, 0.5767736, 0.34764528, 0.6394761, 0.6735012, -2.0827348, -2.956976, 0
847, 1896299713, -0.3699612, 0.5771646, 0.34731373, 0.63982666, -0.11845052, -4.5038877, 0.17840385, 0
848, 1896316380, -0.36888507, 0.5775833, 0.34720334, 0.64013, -1.5203007, -0.782919, -1.4191256, 0
849, 1896333047, -0.36818117, 0.57787186, 0.3465423, 0.6406328, -3.1868384, -1.3397686, 0.8376007, 0
850, 1896349714, -0.367802, 0.57835406, 0.34576216, 0.6408368, -2.8803258, -2.4810276, 0.11410332, 0
851, 1896366381, -0.36785105, 0.5788513, 0.34461385, 0.64097846, -2.6687648, -2.011334, 0.22136784, 0
852, 1896383048, -0.36809993, 0.57949597, 0.3434236, 0.6408918, -1.7763151, -1.7926869, -1.8557973, 0
853, 1896399715, -0.36824912, 0.5800876, 0.34269446, 0.6406612, -0.5667145, -2.52152, -1.7479267, 0
854, 1896416382, -0.368152, 0.5806449, 0.3422304, 0.64046, -1.4110309, -2.5485456, -0.30488014, 0
855, 1896433049, -0.36781186, 0.58098096, 0.3418621, 0.6405475, -0.89073277, -1.3150231, 2.5024586, 0
856, 1896449716, -0.36730677, 0.58108324, 0.3417326, 0.64081365, -0.45599392, -1.2359395, 0.6427498, 0
857, 1896466383, -0.36663914, 0.5813701, 0.34137264, 0.64112747, -2.8819048, 0.3060496, 0.4156227, 0
858, 1896483050, -0.36619848, 0.5813626, 0.34077847, 0.6417021, -1.3932387, 0.8533616, -3.1431212, 0
859, 1896499717, -0.3656899, 0.58096486, 0.34047368, 0.6425135, -0.3237251, 0.39368388, 0.35611916, 0
860, 1896516384, -0.36466748, 0.5807365, 0.34038496, 0.64334756, -2.0901341, -2.2269495, 2.8095198, 0
861, 1896533051, -0.36290193, 0.5812748, 0.3409912, 0.6435387, -2.3396263, -1.1387246, 2.500516, 0
862, 1896549718, -0.36075935, 0.58219254, 0.34175777, 0.6435072, 0.7548314, 3.0879624, -7.513958, 0
863, 1896566385, -0.35897723, 0.5830428, 0.34153426, 0.6438523, -0.25554237, 8.441455, -7.003336, 0
864, 1896583052, -0.3580392, 0.5838584, 0.33969197, 0.6446099, 1.4938513, 8.243405, 2.2352266, 0
865, 1896599719, -0.3571084, 0.58464193, 0.33909553, 0.6447301, 5.978248, -1.1475358, 9.168249, 0
866, 1896616386, -0.35528514, 0.5851306, 0.34116122, 0.6442041, 3.1173751, 2.1227891, -0.017188072, 0
867, 1896633053, -0.35341159, 0.58561677, 0.34227324, 0.6442031, -0.82386196, 8.105135, -6.007849, 0
868, 1896649720, -0.35184026, 0.58644766, 0.34173015, 0.6445955, -0.33075848, 7.9727454, 0.754303, 0
869, 1896666387, -0.35062823, 0.58706963, 0.34115133, 0.6449963, 3.853687, 2.9530802, 6.5872917, 0
870, 1896683054, -0.34968463, 0.5870062, 0.3412509, 0.64551324, 3.621542, 4.086201, 6.034396, 0
871, 1896699721, -0.34906748, 0.58681434, 0.3407643, 0.6462783, 1.2159737, 5.6388497, -1.2857466, 0
872, 1896716388, -0.34856048, 0.5873526, 0.33926988, 0.6468492, 1.5335947, 4.2171206, -1.4853096, 0
873, 1896733055, -0.34841073, 0.58788913, 0.33740938, 0.64741516, 4.6046743, 3.1884787, 0.35556507, 0
874, 1896749722, -0.34883234, 0.587893, 0.33591914, 0.6479593, 3.799571, 2.611942, 7.8557243, 0
875, 1896766389, -0.34970927, 0.5881043, 0.33426467, 0.6481505, 0.6531719, 3.2321434, 3.7254486, 0
876, 1896783056, -0.3509978, 0.5889157, 0.3318533, 0.6479565, 0.79339176, 2.2530231, -5.6290207, 0
877, 1896799723, -0.35235184, 0.59004295, 0.32945243, 0.64742124, 2.5426376, -1.2286975, -8.066467, 0
878, 1896816390, -0.35370564, 0.5911976, 0.3279595, 0.6463867, 2.1183574, -1.5667548, 1.4415569, 0
879, 1896833057, -0.35534713, 0.5922338, 0.32657892, 0.6452358, 1.8705813, 1.1296836, 4.9824867, 0
880, 1896849724, -0.35739666, 0.5928561, 0.32467094, 0.6444946, 3.1614556, 2.8065825, 2.3148422, 0
881, 1896866391, -0.35972482, 0.5928971, 0.32276675, 0.6441181, 2.259019, 0.15615162, -1.6064968, 0
882, 1896883058, -0.36175472, 0.59299916, 0.32178113, 0.6433798, 1.2292238, -2.3672123, -1.8851151, 0
883, 1896899725, -0.36345318, 0.59296566, 0.32188413, 0.64240116, 1.1845002, -1.9973896, -1.6520176, 0
884, 1896916392, -0.36491787, 0.5927439, 0.32254374, 0.641444, 1.3064392, -0.40854257, -0.7536297, 0
885, 1896933059, -0.36644596, 0.59203005, 0.32333112, 0.6408356, 2.2409, 0.40885687, 0.43608952, 0
886, 1896949726, -0.36784682, 0.59115154, 0.3243802, 0.6403135, 2.4013634, -0.8074476, 0.13641357, 0
887, 1896966393, -0.3690317, 0.59011585, 0.32594907, 0.6397902, 1.6855702, -1.4962908, 0.7139988, 0
888, 1896983060, -0.37011194, 0.5890022, 0.32768866, 0.6393034, 0.5727502, -0.6614978, -1.0035286, 0
889, 1896999727, -0.37118152, 0.58799237, 0.32933098, 0.6387687, 0.4155848, 0.39079362, 0.807045, 0
890, 1897016394, -0.3723392, 0.58696157, 0.33088392, 0.63824046, 1.4841548, -0.9649738, 1.9454489, 0
891, 1897033061, -0.37335384, 0.5859791, 0.33272916, 0.6375909, 1.1009126, -2.1724033, 1.1629286, 0
892, 1897049728, -0.37423047, 0.584947, 0.33478382, 0.6369487, 0.83452785, -0.22148117, -4.930678, 0
893, 1897066395, -0.37514403, 0.5838841, 0.33664393, 0.6364059, 0.032951955, 0.12460914, 0.9590492, 0
894, 1897083062, -0.3759726, 0.58282644, 0.3382178, 0.63605195, 0.71829975, -1.9090205, -0.31797218, 0
895, 1897099729, -0.3766103, 0.58164954, 0.3398994, 0.63585544, 1.4049771, 0.5900177, -0.37232018, 0
896, 1897116396, -0.37743562, 0.58033836, 0.34125444, 0.6358382, -0.9986248, -1.2586671, 2.293273, 0
897, 1897133063, -0.37796542, 0.5798133, 0.34251586, 0.63532424, -1.8386405, -1.564554, 0.35774612, 0
898, 1897149730, -0.37841535, 0.57968307, 0.34347847, 0.63465524, -0.34247068, -0.5266017, -1.9993105, 0
899, 1897166397, -0.3787077, 0.579698, 0.34427544, 0.63403475, 0.11135416, -0.41252804, -0.7909975, 0
900, 1897183064, -0.37926075, 0.5792932, 0.3447837, 0.63379806, 0.1475171, 1.1461835, -1.5967598, 0
901, 1897199731, -0.3798201, 0.5787585, 0.34494454, 0.63386405, -0.42316332, -0.14602302, 1.0353537, 0
902, 1897216398, -0.38007352, 0.5783848, 0.34507042, 0.6339847, -0.4360656, -1.0009693, 1.6045732, 0
903, 1897233065, -0.38010114, 0.57811344, 0.34553465, 0.6339629, -1.4400434, -1.5207815, -1.0789213, 0
904, 1897249732, -0.37995422, 0.5780312, 0.34592393, 0.6339137, -1.4049976, 0.022759654, 0.10334301, 0
905, 1897266399, -0.37981573, 0.57783765, 0.34631994, 0.6339569, -0.18666707, 0.24477574, 0.73550224, 0
906, 1897283066, -0.37960246, 0.5773895, 0.34687927, 0.63418704, 0.2835169, -1.0284486, 1.629242, 0
907, 1897299733, -0.37922958, 0.5768032, 0.34768996, 0.6344997, -0.65568554, -1.6022772, -0.647027, 0
908, 1897316400, -0.37857577, 0.5763296, 0.34861904, 0.6348108, -1.0382612, -0.9349441, -1.2647257, 0
909, 1897333067, -0.3779037, 0.57597584, 0.34934652, 0.6351322, -1.3600554, -1.5865301, -0.15361881, 0
910, 1897349734, -0.3771961, 0.5757055, 0.3500408, 0.6354155, -0.3849307, -1.5954344, -1.4212675, 0
911, 1897366401, -0.37651598, 0.5751188, 0.350913, 0.6358689, 0.3256387, -0.5340668, 1.572978, 0
912, 1897383068, -0.3761036, 0.574191, 0.3512333, 0.636774, -0.50368, -0.2167356, 2.420659, 0
913, 1897399735, -0.37577873, 0.57353413, 0.35108387, 0.63763964, -2.082366, -0.4562543, -1.3656187, 0
914, 1897416402, -0.37545565, 0.57310176, 0.3511206, 0.63819814, -2.4711497, -2.7937274, -2.5181346, 0
915, 1897433069, -0.37485036, 0.57318836, 0.35163805, 0.6381913, -2.8762057, -4.2188444, -2.397437, 0
916, 1897449736, -0.37416628, 0.57338864, 0.35209092, 0.6381632, -1.6259729, -1.6157941, -1.7392006, 0
917, 1897466403, -0.3733508, 0.57349175, 0.3522999, 0.6384328, -0.2954732, -0.9219172, 3.9303684, 0
918, 1897483070, -0.37261263, 0.5731688, 0.35229534, 0.63915616, -0.08927789, -0.92885303, 2.2606382, 0
919, 1897499737, -0.37175006, 0.5728378, 0.3523831, 0.6399062, -2.1195457, -0.88027334, 1.8535681, 0
920, 1897516404, -0.3709359, 0.5725662, 0.35253397, 0.6405386, -4.04169, -2.6208892, -3.2003841, 0
921, 1897533071, -0.36996672, 0.57282686, 0.3526087, 0.6408247, -3.3108003, -1.8802757, -7.299531, 0
922, 1897549738, -0.3689015, 0.57311875, 0.35246643, 0.64125603, -2.1664135, -3.2221408, 2.7240162, 0
923, 1897566405, -0.36762738, 0.57349443, 0.3522269, 0.6417832, -4.718426, -4.662057, 3.5892696, 0
924, 1897583072, -0.36616963, 0.5742078, 0.35182032, 0.6422015, -3.240869, 0.2065244, -1.8800397, 0
925, 1897599739, -0.3646034, 0.5749155, 0.35105276, 0.64287925, -3.2681627, -2.0468426, 0.5252409, 0
926, 1897616406, -0.36291856, 0.5759406, 0.34990355, 0.64354134, -5.443526, -1.7611668, -0.3403654, 0
927, 1897633073, -0.36114416, 0.5775454, 0.34827623, 0.64398366, -4.997258, -0.4202343, -4.1877947, 0
928, 1897649740, -0.3594043, 0.57938737, 0.34619346, 0.64442545, -4.282907, -0.5601726, 0.88132286, 0
929, 1897666407, -0.35763857, 0.58144945, 0.34348387, 0.6450003, -4.001702, 1.3992206, -0.73440075, 0
930, 1897683074, -0.3558312, 0.5835649, 0.34077537, 0.64552563, -2.8388908, 4.078313, -3.2608104, 0
931, 1897699741, -0.3540946, 0.5853169, 0.3383349, 0.646178, -0.29115334, 4.294148, 0.74281406, 0
932, 1897716408, -0.35210893, 0.586744, 0.3368294, 0.6467548, 1.7481823, 2.4089851, 3.039546, 0
933, 1897733075, -0.35021058, 0.5879429, 0.3359052, 0.6471774, 3.719445, 5.2804594, -0.6127567, 0
934, 1897749742, -0.34881014, 0.5887822, 0.33463174, 0.64783007, 4.7858787, 5.693952, 1.5372496, 0
935, 1897766409, -0.34788787, 0.5894481, 0.33336848, 0.64837146, 4.463174, 4.6659245, 3.890706, 0
936, 1897783076, -0.34744114, 0.5901807, 0.33238012, 0.6484521, 5.8484454, 4.955522, 3.1099691, 0
937, 1897799743, -0.34768844, 0.59045076, 0.3315384, 0.64850444, 7.872542, 5.198118, 0.22745228, 0
938, 1897816410, -0.34857753, 0.5905422, 0.3305624, 0.6484422, 6.9505415, 4.5270066, 1.5982494, 0
939, 1897833077, -0.34988803, 0.5905632, 0.32935122, 0.64833367, 6.793188, 4.831593, 1.3458471, 0
940, 1897849744, -0.35142037, 0.5904671, 0.3286097, 0.64796853, 4.983356, 2.831921, 2.8734722, 0
941, 1897866411, -0.3530127, 0.5901223, 0.32876062, 0.6473404, 4.5777373, 2.73012, -1.7105751, 0
942, 1897883078, -0.35475016, 0.5893841, 0.3293826, 0.6467464, 5.1336384, 3.8979945, -2.8369584, 0
943, 1897899745, -0.3566799, 0.5881274, 0.33051535, 0.646251, 4.6409, 1.2706178, 0.6073475, 0
944, 1897916412, -0.3585923, 0.58686656, 0.33202744, 0.64556336, 3.6677842, -0.1934156, 2.8579683, 0
945, 1897933079, -0.36044765, 0.58559996, 0.3336446, 0.64484626, 3.2924857, -0.047170397, 1.029973, 0
946, 1897949746, -0.36238903, 0.5842065, 0.3354337, 0.6440934, 2.44881, -0.3755096, -2.009019, 0
947, 1897966413, -0.36439842, 0.5829365, 0.3372871, 0.6431419, 0.9063723, -1.2939763, -0.821085, 0
948, 1897983080, -0.36623237, 0.5822551, 0.33891547, 0.6418601, 0.57726324, -2.3233232, 0.24306583, 0
949, 1897999747, -0.36779976, 0.5817755, 0.34040496, 0.64060926, 0.6777847, -0.970119, -1.5674696, 0
950, 1898016414, -0.36948618, 0.58106256, 0.34145185, 0.6397282, 0.7929584, 1.109182, -1.5634594, 0
951, 1898033081, -0.37128127, 0.580452, 0.34177607, 0.63906974, -0.49185434, 0.31862757, 2.4374332, 0
952, 1898049748, -0.37297907, 0.5801533, 0.3418935, 0.6382889, -0.890884, -1.419334, 0.26171494, 0
953, 1898066415, -0.3744245, 0.57997686, 0.34213722, 0.637472, -0.09437622, 0.03260674, -1.5134544, 0
954, 1898083082, -0.3757964, 0.5795629, 0.34238413, 0.6369083, -0.45500576, 0.40171513, -0.72754, 0
955, 1898099749, -0.37689757, 0.57908374, 0.3430678, 0.6363255, 0.023371967, -0.954696, 0.8473244, 0
956, 1898116416, -0.37761295, 0.57841563, 0.34411165, 0.635945, 1.201255, -0.16030338, -0.42115688, 0
957, 1898133083, -0.3780232, 0.57732785, 0.34563112, 0.63586575, 1.2058684, -0.41452265, 0.75625134, 0
958, 1898149750, -0.37814552, 0.57593626, 0.34787154, 0.6358334, 1.0423152, -0.882928, 0.5899334, 0
959, 1898166417, -0.3779452, 0.5745747, 0.35047302, 0.63575554, 0.71653324, -0.89350927, -0.59055996, 0
960, 1898183084, -0.37766445, 0.5732378, 0.35320857, 0.63561535, 0.9601717, -1.0559673, 0.5722599, 0
961, 1898199751, -0.37754476, 0.5717717, 0.35574302, 0.6355938, 1.2171774, 0.15491168, -0.5944624, 0
962, 1898216418, -0.37757155, 0.5704495, 0.35767508, 0.63568145, -0.106345005, -0.045017075, 2.5061026, 0
963, 1898233085, -0.3776308, 0.56941336, 0.35912532, 0.6357576, -0.3917828, -0.21030122, -1.2912321, 0
964, 1898249752, -0.37773758, 0.56875086, 0.36005372, 0.635762, -1.3731446, -0.14258271, -0.7308216, 0
965, 1898266419, -0.3776571, 0.56842154, 0.360757, 0.63570553, -1.6807538, -0.43500942, -2.376153, 0
966, 1898283086, -0.37745118, 0.56828916, 0.36116585, 0.635714, -1.0937839, 0.85203284, -1.0705624, 0
967, 1898299753, -0.3770705, 0.5681893, 0.3612032, 0.6360079, -1.51928, 0.046386983, 2.441144, 0
968, 1898316420, -0.376208, 0.5683893, 0.36138198, 0.6362386, -1.5309857, -0.97343713, 1.6877337, 0
969, 1898333087, -0.37483257, 0.5689663, 0.3616968, 0.63635564, -1.7635086, 0.15803908, 1.380125, 0
970, 1898349754, -0.37342012, 0.5694966, 0.36180404, 0.6366506, -1.7404671, 1.3744785, -2.686698, 0
971, 1898366421, -0.37225956, 0.56953394, 0.36165628, 0.6373805, -0.49776202, 3.865953, -1.0326481, 0
972, 1898383088, -0.37154981, 0.56897193, 0.36109155, 0.6386155, -0.54574823, 0.92899305, 0.635273, 0
973, 1898399755, -0.37056512, 0.56876254, 0.36071235, 0.63958776, -1.228788, -2.1593285, 1.474474, 0
974, 1898416422, -0.3693144, 0.5689977, 0.36020204, 0.640389, -1.4268429, -1.853833, -1.4867563, 0
975, 1898433089, -0.36793718, 0.5696089, 0.35948983, 0.6410386, -1.7269617, -0.2709701, 0.7133808, 0
976, 1898449756, -0.36673445, 0.5701599, 0.35843605, 0.6418272, -1.1883116, 1.1474006, 0.9572058, 0
977, 1898466423, -0.36588237, 0.57055163, 0.35708427, 0.6427183, -1.4065759, 0.5725274, -0.55749893, 0
978, 1898483090, -0.36520934, 0.571126, 0.355628, 0.6433981, -1.8370849, -0.4810875, -0.58574486, 0
979, 1898499757, -0.3644507, 0.5721358, 0.35416847, 0.64373624, -2.1888885, -2.3803957, -0.47000217, 0
980, 1898516424, -0.36366665, 0.57332563, 0.35282037, 0.6438613, -1.3200288, -1.1912608, -1.8862834, 0
981, 1898533091, -0.36316004, 0.57421917, 0.35129127, 0.6441868, -0.33347464, 0.6154054, 3.2194796, 0
982, 1898549758, -0.3629494, 0.5745599, 0.34970868, 0.64486253, 0.20781744, 0.113034524, 3.319025, 0
983, 1898566425, -0.36285928, 0.5747477, 0.34828085, 0.64551836, -1.6211582, -1.8297492, 1.0294657, 0
984, 1898583092, -0.3626992, 0.5756014, 0.346936, 0.6455719, -3.3902245, -3.3573658, -6.1106753, 0
985, 1898599759, -0.36225823, 0.57723, 0.3458177, 0.6449651, -2.8817613, -4.913712, -4.023412, 0
986, 1898616426, -0.36166096, 0.57866114, 0.34487242, 0.6445237, -0.47655746, -2.1762593, -1.5012894, 0
987, 1898633093, -0.36120498, 0.57947296, 0.3438576, 0.6445922, -0.7930588, -0.511981, 6.2085075, 0
988, 1898649760, -0.36096013, 0.5796811, 0.342775, 0.6451186, -1.6980488, -0.16344832, 2.999689, 0
989, 1898666427, -0.3610102, 0.5797732, 0.34175977, 0.6455464, -2.5444741, -1.024655, -1.9408951, 0
990, 1898683094, -0.3608507, 0.5802866, 0.341002, 0.6455749, -3.095871, -4.8018246, -5.6536746, 0
991, 1898699761, -0.360352, 0.58113015, 0.34066385, 0.64527345, -1.8490771, -4.3240795, -1.0980053, 0
992, 1898716428, -0.35972592, 0.5817975, 0.340257, 0.64523596, -1.7479664, -2.2508545, 1.544527, 0
993, 1898733095, -0.35925668, 0.58218205, 0.33970806, 0.6454397, -1.474687, 0.06075283, 1.5851202, 0
994, 1898749762, -0.35911185, 0.58217275, 0.338814, 0.6459984, -2.1290753, -0.94850004, 1.2433081, 0
995, 1898766429, -0.35897145, 0.5822304, 0.33796883, 0.646467, -2.7297258, -2.0535343, -1.2315655, 0
996, 1898783096, -0.35872528, 0.582522, 0.3369513, 0.64687204, -2.4857376, -2.5298789, -0.595685, 0
997, 1898799763, -0.3582436, 0.58331937, 0.33576286, 0.6470383, -2.1747415, -2.044353, -4.495393, 0
998, 1898816430, -0.35768956, 0.58447534, 0.33445537, 0.6469787, -0.6787279, 1.4726818, -3.4752917, 0
999, 1898833097, -0.3572904, 0.58562243, 0.33284694, 0.64699143, -1.0015218, 2.2525852, 2.4552507, 0
1000, 1898849764, -0.3567727, 0.5870255, 0.33127415, 0.64681286, 0.049071822, 4.396465, 0.5613804, 0
1001, 1898866431, -0.35622126, 0.58826095, 0.32978305, 0.64675653, 3.7943487, 6.5620546, 2.350523, 0
1002, 1898883098, -0.35586467, 0.58877623, 0.3288262, 0.64697105, 4.3995886, 5.1656823, 1.1729231, 0
1003, 1898899765, -0.35545447, 0.589138, 0.32873347, 0.6469144, 5.349787, 6.1997504, 0.6484804, 0
1004, 1898916432, -0.35511765, 0.5892575, 0.32890946, 0.6469008, 5.962801, 6.056231, 1.0598211, 0
1005, 1898933099, -0.35473368, 0.5893153, 0.32973713, 0.64663756, 6.1249776, 4.3459325, 1.0542955, 0
1006, 1898949766, -0.35444608, 0.58890235, 0.33102933, 0.6465114, 7.8200836, 5.7623687, 2.7621574, 0
1007, 1898966433, -0.35474548, 0.5880295, 0.33239403, 0.64644146, 6.1892867, 5.03729, 5.1992245, 0
1008, 1898983100, -0.3554028, 0.58703756, 0.33373678, 0.6462901, 6.3724136, 5.0888777, 0.6003723, 0
1009, 1898999767, -0.3564675, 0.5856618, 0.33495957, 0.6463193, 6.078944, 4.2902694, -1.9887896, 0
1010, 1899016434, -0.35763013, 0.5843638, 0.33627558, 0.64616835, 1.9106567, 2.4391928, -0.73379135, 0
1011, 1899033101, -0.3589185, 0.58368886, 0.3374346, 0.6454596, 1.4773337, 2.282312, -0.32568836, 0
1012, 1899049768, -0.36024192, 0.583336, 0.33817548, 0.64465296, 3.3178406, 2.8141947, 1.4404564, 0
1013, 1899066435, -0.36170274, 0.5828965, 0.33852008, 0.6440514, 2.6929722, 3.4377747, 1.0813437, 0
1014, 1899083102, -0.36331895, 0.5825503, 0.33863053, 0.64339656, 1.7635968, 2.9660945, -0.17915535, 0
1015, 1899099769, -0.36479792, 0.5824784, 0.33849755, 0.6426943, 1.5975153, 1.0885998, -0.12068272, 0
1016, 1899116436, -0.36591148, 0.5825967, 0.33848876, 0.6419582, 0.102512985, 0.31216645, -1.1332731, 0
1017, 1899133103, -0.36667204, 0.5827929, 0.33869478, 0.64123726, -0.46981117, 0.9498546, -1.0432243, 0
1018, 1899149770, -0.3672647, 0.5828246, 0.338836, 0.64079446, -0.18764159, 0.16590205, 2.8157759, 0
1019, 1899166437, -0.36762336, 0.58262235, 0.3389109, 0.64073294, -0.3189588, -0.8766138, 1.9461956, 0
1020, 1899183104, -0.36796623, 0.58229923, 0.33888516, 0.6408435, -1.9122382, 0.815543, -1.7552938, 0
1021, 1899199771, -0.36838964, 0.58199334, 0.33866256, 0.640996, -2.040846, -1.4745443, 0.565959, 0
1022, 1899216438, -0.36861125, 0.5817254, 0.33851323, 0.6411906, -2.1228294, -2.4979396, 0.5203848, 0
1023, 1899233105, -0.3685884, 0.5815628, 0.3384415, 0.6413891, -1.3224586, -1.1411921, -3.1650724, 0
1024, 1899249772, -0.3682384, 0.5815274, 0.33843035, 0.641628, -2.022666, -2.643376, 1.3997316, 0
1025, 1899266439, -0.36768717, 0.58153814, 0.33861908, 0.6418349, -2.1371655, -3.1762362, 0.044386864, 0
1026, 1899283106, -0.36707836, 0.58145297, 0.33930078, 0.6419005, 0.09072497, -2.259966, -1.5916452, 0
1027, 1899299773, -0.36638272, 0.58119935, 0.3402032, 0.64204985, -0.86499006, -3.8258784, 1.322815, 0
1028, 1899316440, -0.36560962, 0.5811862, 0.34106374, 0.642046, -0.8403867, -1.0909965, -2.0382333, 0
1029, 1899333107, -0.3650391, 0.58124787, 0.3416389, 0.6420089, -0.9528297, -2.0368226, -0.588954, 0
1030, 1899349774, -0.36457404, 0.5811321, 0.34220788, 0.64207506, -0.26931953, -1.1859872, -1.6661854, 0
1031, 1899366441, -0.36458674, 0.5805605, 0.34261394, 0.6423682, -0.961195, -1.1006591, 0.8132467, 0
1032, 1899383108, -0.36469334, 0.58063865, 0.3425289, 0.6422824, -8.884739, -4.2157784, -0.32463455, 0
1033, 1899399775, -0.36513028, 0.5816873, 0.34182072, 0.64146215, -1.1686094, -6.3355823, -3.9288754, 0
1034, 1899416442, -0.36488703, 0.58120406, 0.3423612, 0.64175016, 4.13467, -4.5686617, 3.9111252, 0
1035, 1899433109, -0.36470106, 0.58093244, 0.34227166, 0.6421495, -6.4221597, 1.7847323, 0.37638855, 0
1036, 1899449776, -0.3645748, 0.58159244, 0.34074372, 0.64243627, -4.031377, -1.1986928, -5.284079, 0
1037, 1899466443, -0.36398813, 0.5828211, 0.33952478, 0.6423008, 0.025109055, -3.4347217, 1.4589863, 0
1038, 1899483110, -0.36328527, 0.58327776, 0.33891013, 0.6426088, 1.4517292, 3.047947, 0.92436504, 0
1039, 1899499777, -0.36305705, 0.58328456, 0.33789286, 0.643267, -1.8288174, 9.827166, -0.8598585, 0
1040, 1899516444, -0.36275744, 0.58417463, 0.33623856, 0.6434952, -0.053667694, 3.0113373, 9.434574, 0
1041, 1899533111, -0.36186585, 0.58524024, 0.3350067, 0.6436714, 4.5185747, -0.9115246, -0.9203825, 0
1042, 1899549778, -0.36074173, 0.58596134, 0.33459494, 0.64386034, 4.621902, 2.7660313, -4.4412494, 0
1043, 1899566445, -0.36003003, 0.5853836, 0.33460075, 0.64478064, 0.5028848, 2.7793217, 0.5474529, 0
1044, 1899583112, -0.36000064, 0.585205, 0.33446246, 0.6450308, -2.3028011, 1.5054942, 1.192976, 0
1045, 1899599779, -0.36043897, 0.5855563, 0.333859, 0.6447798, 0.08810333, -0.5064093, -3.0060124, 0
1046, 1899616446, -0.36091793, 0.58603984, 0.33363095, 0.64419025, 5.4896045, -3.3224845, -0.9347954, 0
1047, 1899633113, -0.36115554, 0.58584845, 0.33411637, 0.6439795, 2.712073, 0.010256617, 5.784128, 0
1048, 1899649780, -0.36144775, 0.58565944, 0.33445367, 0.6438124, -1.144133, 1.6213409, -2.7009978, 0
1049, 1899666447, -0.36177427, 0.58599234, 0.33393145, 0.6435971, -0.47228423, 1.6495416, -1.6586523, 0
1050, 1899683114, -0.36219606, 0.5862285, 0.33325076, 0.64349777, 0.2556519, 0.0658353, 2.4296904, 0
1051, 1899699781, -0.36248425, 0.5862387, 0.33305386, 0.6434282, 0.83163047, -0.6479471, 0.43358994, 0
1052, 1899716448, -0.36239728, 0.58612585, 0.33342674, 0.64338684, 0.06300819, -0.13185118, 0.42116165, 0
1053, 1899733115, -0.36221707, 0.58556247, 0.33415207, 0.643625, 0.2598443, 0.46205178, -0.40676117, 0
1054, 1899749782, -0.36222664, 0.58472586, 0.33499816, 0.6439404, 0.044307757, 1.0801936, -1.7557383, 0
1055, 1899766449, -0.3624488, 0.5834281, 0.33578855, 0.6445805, 1.6146357, 0.33840498, 0.8866787, 0
1056, 1899783116, -0.36249954, 0.58203614, 0.33704743, 0.6451528, 0.8411051, -0.7118863, -0.48234367, 0
1057, 1899799783, -0.36231813, 0.58101934, 0.33823884, 0.6455478, 0.47878543, 0.6647597, 0.11770058, 0
1058, 1899816450, -0.36203778, 0.58047307, 0.3388945, 0.6458524, 0.2965553, -0.62103677, 0.59169674, 0
1059, 1899833117, -0.3615856, 0.58021736, 0.3397616, 0.6458798, -0.19898947, 0.6493694, 3.6859713, 0
1060, 1899849784, -0.36103272, 0.58000296, 0.3404409, 0.6460242, -0.6784196, 0.78140956, -1.6869144, 0
1061, 1899866451, -0.36054152, 0.58013356, 0.3406225, 0.6460855, -1.4984131, 4.067183, -4.8790045, 0
1062, 1899883118, -0.36056525, 0.5806772, 0.33897388, 0.6464508, 0.7185336, 3.6834753, 0.021829605, 0
1063, 1899899785, -0.36055154, 0.58061135, 0.33768028, 0.64719427, 0.6022009, -1.255517, 4.43715, 0
1064, 1899916452, -0.36046526, 0.5808902, 0.33731407, 0.6471829, -1.403677, 3.3312805, -1.1872435, 0
1065, 1899933119, -0.36038673, 0.58170307, 0.33640224, 0.64697105, -3.303716, 1.4544156, 1.4385548, 0
1066, 1899949786, -0.3598014, 0.5831779, 0.33506313, 0.64666396, 1.8718772, 1.1147506, 0.9081106, 0
1067, 1899966453, -0.35921198, 0.5839215, 0.3338111, 0.6469681, 3.2299476, 0.5692478, -2.5989013, 0
1068, 1899983120, -0.3589526, 0.58418626, 0.33280808, 0.64738977, -0.029934978, -0.378776, 0.60564995, 0
1069, 1899999787, -0.35919297, 0.5848131, 0.3313146, 0.64745647, -1.6556177, -0.6273868, -1.3953781, 0
1070, 1900016454, -0.35949072, 0.5861612, 0.329738, 0.6468769, -0.8769705, -2.0900009, 1.4841223, 0
1071, 1900033121, -0.35987487, 0.5876927, 0.32849506, 0.6459054, 1.3148719, -0.49651507, -0.50625324, 0
1072, 1900049788, -0.36070314, 0.5885367, 0.3274201, 0.6452203, 3.1638157, 1.6189069, 3.168603, 0
1073, 1900066455, -0.36190704, 0.5885409, 0.32647797, 0.6450196, 3.9026587, 0.3401445, 1.0128584, 0
1074, 1900083122, -0.3627994, 0.58808583, 0.3263117, 0.64501745, 4.1050878, -1.7930111, -0.44144535, 0
1075, 1900099789, -0.36359972, 0.5876425, 0.32719213, 0.64452463, -2.1460698, -3.643697, -3.2702184, 0
1076, 1900116456, -0.3642851, 0.58773595, 0.32847348, 0.64339983, -1.2741888, -0.9485852, -3.630795, 0
1077, 1900133123, -0.36537296, 0.58728606, 0.32981852, 0.6425051, 3.386903, -0.0070831254, 4.086315, 0
1078, 1900149790, -0.36696938, 0.5858583, 0.33141375, 0.6420775, 3.8287768, -0.7806065, 2.3662214, 0
1079, 1900166457, -0.36859173, 0.58409506, 0.33310747, 0.64187825, 2.9747393, -0.7862752, 1.6350565, 0
1080, 1900183124, -0.37001267, 0.58244365, 0.33477208, 0.64169544, 0.8371718, -2.578545, 0.23295784, 0
1081, 1900199791, -0.37114093, 0.5813202, 0.3363913, 0.64121544, -0.64901364, -1.664261, -1.5095882, 0
1082, 1900216458, -0.3722192, 0.58057266, 0.33798957, 0.64042664, -1.9699466, -1.5964782, -3.2456121, 0
1083, 1900233125, -0.3732453, 0.58019775, 0.33927092, 0.6394912, -1.3184075, -0.34523454, -0.055419922, 0
1084, 1900249792, -0.37419653, 0.57988715, 0.3400169, 0.6388205, -0.4275286, 0.023318378, 3.0476465, 0
1085, 1900266459, -0.37475193, 0.5795481, 0.34060556, 0.6384889, -0.19739078, -1.1353391, 1.9305439, 0
1086, 1900283126, -0.37492618, 0.5791262, 0.34120834, 0.63844776, -0.56363577, 1.4144467, -4.3300257, 0
1087, 1900299793, -0.37525475, 0.57861054, 0.34156597, 0.6385307, -3.398748, 0.63006836, -2.7841802, 0
1088, 1900316460, -0.37530056, 0.578466, 0.34196934, 0.63841885, -2.087889, -2.449656, 0.649168, 0
1089, 1900333127, -0.3747679, 0.5786238, 0.34292695, 0.6380752, -0.68333566, -2.7922316, -0.3134365, 0
1090, 1900349794, -0.37399104, 0.5785103, 0.34396893, 0.638073, 1.3864256, 0.13305536, 0.2681036, 0
1091, 1900366461, -0.37355107, 0.5773059, 0.3447407, 0.6390045, 1.7465206, 2.6332493, -4.3599653, 0
1092, 1900383128, -0.37333992, 0.5751933, 0.34534803, 0.64070284, 2.557934, 2.8251178, -1.8915997, 0
1093, 1900399795, -0.3727025, 0.5736358, 0.3463036, 0.6419531, -5.3918047, -6.6646013, 8.537701, 0
1094, 1900416462, -0.37137783, 0.57419884, 0.34771335, 0.64145523, -5.66872, -5.871265, 0.16340733, 0
1095, 1900433129, -0.37032968, 0.57492274, 0.34898633, 0.64072096, 5.8567963, 1.6637976, -10.597244, 0
1096, 1900449796, -0.36984715, 0.5742392, 0.3497153, 0.6412151, 1.9528987, 2.7663076, 6.2678185, 0
1097, 1900466463, -0.37018326, 0.5732447, 0.34943134, 0.64206547, -3.0574489, 2.5950859, 0.69607735, 0
1098, 1900483130, -0.37064555, 0.5729051, 0.34948125, 0.6420745, 0.49202454, 0.6604274, 1.503829, 0
1099, 1900499797, -0.3703123, 0.5733945, 0.35061178, 0.64121306, 1.4827037, -9.471329, -0.44881248, 0
1100, 1900516464, -0.36868063, 0.5749602, 0.35270825, 0.6395995, 7.069136, 1.8390864, -10.411829, 0
1101, 1900533131, -0.36799267, 0.57522845, 0.35268146, 0.63976926, -1.4000186, 8.828309, 9.417549, 0
1102, 1900549798, -0.36804843, 0.57550985, 0.3516267, 0.6400644, 0.18251106, 4.4682384, 8.299496, 0
1103, 1900566465, -0.36822766, 0.5752279, 0.35185972, 0.64008677, 2.2727897, 2.8928726, -2.0619307, 0
1104, 1900583132, -0.36806786, 0.5750554, 0.35318542, 0.6396035, -2.0006163, 0.56428194, -7.7487907, 0
1105, 1900599799, -0.36708593, 0.5758148, 0.35407305, 0.63899344, 1.6486913, 5.523056, -1.6321077, 0
1106, 1900616466, -0.36584866, 0.5756562, 0.35421446, 0.6397672, 4.37567, 5.6177845, 12.761629, 0
1107, 1900633133, -0.36445558, 0.57493824, 0.35469085, 0.64094305, 2.8393903, 6.490614, 4.5569935, 0
1108, 1900649800, -0.3631958, 0.5738575, 0.35496682, 0.6424719, -0.1410845, 7.0022016, -3.619053, 0
1109, 1900666467, -0.36171576, 0.5737577, 0.35483214, 0.6434698, -5.1858397, 2.5167944, -5.190479, 0
1110, 1900683134, -0.35950756, 0.57540226, 0.35423723, 0.6435663, -2.6850638, 3.9407606, -5.145891, 0
1111, 1900699801, -0.35734126, 0.57669914, 0.35222998, 0.6447129, 2.9179897, 7.3145375, 7.493973, 0
1112, 1900716468, -0.35540077, 0.5770794, 0.3498009, 0.64676446, 0.44979882, 6.025138, 11.563295, 0
1113, 1900733135, -0.35378417, 0.5772023, 0.34719214, 0.64894295, -2.720754, 3.9160123, -1.4690123, 0
1114, 1900749802, -0.35214755, 0.5782327, 0.34441268, 0.6503954, -7.4152746, 0.5385853, -9.844201, 0
1115, 1900766469, -0.35023713, 0.5809956, 0.3404627, 0.651044, -6.419678, 0.6567609, -5.3904867, 0
1116, 1900783136, -0.34813258, 0.5847153, 0.3353302, 0.6515063, -2.7537632, 0.5753541, 5.06882, 0
1117, 1900799803, -0.3461749, 0.58781594, 0.33032778, 0.65231454, 1.5942843, 2.800746, 2.0014668, 0
1118, 1900816470, -0.34497723, 0.58949226, 0.32593188, 0.65364605, 0.38447782, 3.129253, 3.980277, 0
1119, 1900833137, -0.34415805, 0.5908687, 0.3217543, 0.65490353, -3.3591077, 0.5775423, -1.8596473, 0
1120, 1900849804, -0.3433096, 0.592875, 0.3178163, 0.6554585, -1.6227355, -2.2079108, -3.5337725, 0
1121, 1900866471, -0.3421682, 0.5947628, 0.314738, 0.65583026, 2.2025392, -2.113236, -2.7747436, 0
1122, 1900883138, -0.3410945, 0.5958227, 0.31295592, 0.6562802, 2.1479871, -1.0493348, 2.6605577, 0
1123, 1900899805, -0.34053153, 0.5960698, 0.31190553, 0.65684783, 2.2075937, 0.8789258, 1.1827822, 0
1124, 1900916472, -0.340352, 0.59601176, 0.3110398, 0.65740407, 1.6593746, -1.9091547, 1.4558802, 0
1125, 1900933139, -0.34031188, 0.5961759, 0.31060097, 0.65748334, 1.2877703, -2.5596466, -2.9275322, 0
1126, 1900949806, -0.34058607, 0.5964068, 0.31042796, 0.65721357, 1.1216666, -1.8495532, -1.9309683, 0
1127, 1900966473, -0.34106383, 0.5967395, 0.31026104, 0.6567425, 1.062023, -1.232874, 2.257162, 0
1128, 1900983140, -0.3417551, 0.5971983, 0.3097901, 0.6561882, 0.13818945, 0.6737296, 0.28511333, 0
1129, 1900999807, -0.34288526, 0.59750193, 0.3089899, 0.6556994, 0.22877511, 1.0228444, 0.3419962, 0
1130, 1901016474, -0.34424886, 0.5977694, 0.30804807, 0.65518415, 0.25217614, -0.27454275, 1.2592182, 0
1131, 1901033141, -0.34553897, 0.5980973, 0.30720553, 0.6546009, -0.2564134, -0.24815202, -2.0467563, 0
1132, 1901049808, -0.3466773, 0.5984889, 0.30638564, 0.6540252, 0.21147326, -0.22052817, -1.4055071, 0
1133, 1901066475, -0.3476723, 0.59903485, 0.30539685, 0.6534593, -0.2032305, -0.13555032, 0.28456402, 0
1134, 1901083142, -0.34868363, 0.5995004, 0.30447766, 0.65292233, 0.19339237, 0.12107618, -0.13167477, 0
1135, 1901099809, -0.34962466, 0.5997684, 0.30369568, 0.65253705, 0.45807683, -0.2606693, 0.53411484, 0
1136, 1901116476, -0.35061103, 0.59995127, 0.3030267, 0.6521506, 0.32749754, -0.75189525, -0.5311699, 0
1137, 1901133143, -0.35165566, 0.60006547, 0.30243027, 0.65175986, 1.2846676, -0.31228045, 0.097929, 0
1138, 1901149810, -0.35276142, 0.59994626, 0.30207214, 0.6514381, 1.6390789, -0.90014446, -0.27360058, 0
1139, 1901166477, -0.35393074, 0.5997345, 0.30217525, 0.65095097, 0.090010904, -2.0677094, 3.5053673, 0
1140, 1901183144, -0.3550924, 0.5996425, 0.3026242, 0.65019375, 0.3994847, -1.5900508, -3.5999727, 0
1141, 1901199811, -0.35643268, 0.59936756, 0.30328354, 0.64940643, 3.349558, -0.20005393, 2.059023, 0
1142, 1901216478, -0.35802168, 0.5986309, 0.30402625, 0.64886427, 2.4332602, -2.1086516, 1.6115961, 0
1143, 1901233145, -0.35957536, 0.59802914, 0.3049693, 0.648117, 1.1966821, -1.7064887, -1.2504845, 0
1144, 1901249812, -0.361242, 0.59730065, 0.30591574, 0.64741576, 1.2266982, -1.8060575, -0.5398884, 0
1145, 1901266479, -0.36313167, 0.59641504, 0.30724746, 0.6465436, 0.22918917, -2.4361806, -0.43940163, 0
1146, 1901283146, -0.36505696, 0.595609, 0.3085224, 0.6455947, 0.42936876, -2.1727884, 0.6039696, 0
1147, 1901299813, -0.36689094, 0.5948242, 0.309761, 0.64468485, 0.73549455, -2.801024, 0.5979862, 0
1148, 1901316480, -0.3686603, 0.59380233, 0.31096157, 0.6440392, 1.0671542, -1.8145181, 0.17176819, 0
1149, 1901333147, -0.37030444, 0.5927807, 0.31211483, 0.6434789, -0.69074243, -3.2081606, -2.0736141, 0
1150, 1901349814, -0.3717001, 0.5920466, 0.3133952, 0.6427274, -2.2525773, -3.0458808, -2.2050605, 0
1151, 1901366481, -0.3728296, 0.5914139, 0.31487167, 0.6419336, -2.1057098, -4.142676, -1.6701803, 0
1152, 1901383148, -0.37375018, 0.5907302, 0.31671682, 0.64111966, -0.9057871, -4.001075, 1.8431396, 0
1153, 1901399815, -0.3745477, 0.58971804, 0.31856567, 0.6406698, -0.12368794, -2.6176062, 1.1123428, 0
1154, 1901416482, -0.37545964, 0.58838725, 0.32035813, 0.64046574, 0.03500822, -3.257867, 1.50074, 0
1155, 1901433149, -0.3763087, 0.58726835, 0.32207873, 0.6401313, -1.8606924, -3.6327362, -3.9683938, 0
1156, 1901449816, -0.37709868, 0.5867143, 0.32346907, 0.6394732, -2.2198997, -4.331312, -1.9135585, 0
1157, 1901466483, -0.37786886, 0.58647144, 0.3248318, 0.63854986, -1.834058, -5.559398, -0.81821346, 0
1158, 1901483150, -0.37874514, 0.5863958, 0.3260762, 0.637465, -0.43571258, -3.5762806, -3.292027, 0
1159, 1901499817, -0.3797345, 0.586678, 0.3265686, 0.63636374, -0.8136473, -2.6507456, 0.2863121, 0
1160, 1901516484, -0.38097823, 0.5868763, 0.32637754, 0.63553506, 0.09577362, -2.526826, -0.92358685, 0
1161, 1901533151, -0.3821511, 0.5872674, 0.32615826, 0.6345813, -1.2704277, -2.0174303, 0.5928974, 0
1162, 1901549818, -0.38346726, 0.5877937, 0.32591715, 0.63342285, 0.77564156, 1.5575047, -0.5428934, 0
1163, 1901566485, -0.38491938, 0.5884173, 0.3254865, 0.6321833, 0.94696563, 0.87146026, 4.5449, 0
1164, 1901583152, -0.38630512, 0.58907026, 0.3250202, 0.6309689, 3.9839013, 3.944494, -2.4847608, 0
1165, 1901599819, -0.38788086, 0.5890363, 0.32432052, 0.63039356, 5.441351, 6.176692, -0.08189297, 0
1166, 1901616486, -0.38926566, 0.58903676, 0.32364437, 0.6298868, 2.353217, 0.6341758, 3.418581, 0
1167, 1901633153, -0.3900393, 0.5899468, 0.32310858, 0.62883097, 3.3540585, 5.0496645, 2.7753067, 0
1168, 1901649820, -0.39103162, 0.59013295, 0.32247892, 0.62836295, 4.24956, 7.800442, 2.4413233, 0
1169, 1901666487, -0.39209446, 0.58974165, 0.32250777, 0.6280531, 3.7717543, 6.397007, 2.0361013, 0
1170, 1901683154, -0.39324763, 0.5890278, 0.3233053, 0.6275919, 3.7700574, 5.4499564, 0.42206573, 0
1171, 1901699821, -0.3939853, 0.5883564, 0.3249073, 0.62693137, 3.9814365, 2.9920523, -3.8062277, 0
1172, 1901716488, -0.39419207, 0.5872852, 0.3272542, 0.62658495, 6.0661273, 5.234475, -0.92502403, 0
1173, 1901733155, -0.39396447, 0.5858273, 0.33001164, 0.62664646, 3.895978, 2.0017323, 6.0910845, 0
1174, 1901749822, -0.3933376, 0.5842432, 0.3332599, 0.6268, 3.759689, 4.626305, 0.19092655, 0
1175, 1901766489, -0.3929537, 0.58191806, 0.33616066, 0.62765425, 2.753075, 5.579206, 0.18361855, 0
1176, 1901783156, -0.39254087, 0.57974607, 0.33901456, 0.6283871, 0.4842169, 0.9023864, -1.0717583, 0
1177, 1901799823, -0.3919277, 0.5781726, 0.34212664, 0.6285329, 0.7567204, 1.0101485, -2.0893316, 0
1178, 1901816490, -0.39119735, 0.576747, 0.3449349, 0.6287629, 1.7124575, 1.0890298, -0.43493938, 0
1179, 1901833157, -0.39037606, 0.5752039, 0.3473764, 0.6293425, 0.45860702, 3.079613, 2.4738894, 0
1180, 1901849824, -0.3895662, 0.573789, 0.34926224, 0.63009185, -0.9742684, 1.40107, 1.7756109, 0
1181, 1901866491, -0.38860542, 0.5726465, 0.3509327, 0.63079584, -0.23920894, 1.0826875, -0.539423, 0
