sep=,
DeviceTag:,Xsens_DOT_1,,,,,,,,,,,,,,,,,
FirmwareVersion:,3.0.0,,,,,,,,,,,,,,,,,
AppVersion:,2023.6.1,,,,,,,,,,,,,,,,,
SyncStatus:,Synced,,,,,,,,,,,,,,,,,
OutputRate:,60Hz,,,,,,,,,,,,,,,,,
FilterProfile:,General,,,,,,,,,,,,,,,,,
Measurement Mode:,Sensor fusion Mode - Extended (Quaternion),,,,,,,,,,,,,,,,,
StartTime:,2025-05-05 11:38:09.191 +0200,,,,,,,,,,,,,,,,,
 2025,,,,,,,,,,,,,,,,,,,

PacketCounter,SampleTimeFine,Quat_W,Quat_X,Quat_Y,Quat_Z,FreeAcc_X,FreeAcc_Y,FreeAcc_Z,Status
1, 1882199431, -0.3807689, 0.11166848, -0.1599781, -0.9038885, -0.11085866, -0.04441616, 0.38304138, 0
2, 1882216098, -0.3808023, 0.11171928, -0.1598924, -0.90388334, -0.16679515, -0.025694156, 0.3767872, 0
3, 1882232765, -0.380836, 0.111754656, -0.15979534, -0.90388197, -0.15116091, -0.0048326855, 0.3899498, 0
4, 1882249432, -0.38086522, 0.111791804, -0.15968731, -0.9038842, -0.09571127, 0.0075512733, 0.36221504, 0
5, 1882266099, -0.38088784, 0.111837514, -0.15959176, -0.90388584, -0.11752451, 0.009479632, 0.3488655, 0
6, 1882282766, -0.3809149, 0.11188637, -0.15949732, -0.903885, -0.17362578, -0.0059866826, 0.34858608, 0
7, 1882299433, -0.38094878, 0.111950204, -0.15938543, -0.90388256, -0.18173556, -0.03890053, 0.37546825, 0
8, 1882316100, -0.38098064, 0.11201697, -0.15925612, -0.9038837, -0.10976414, -0.046035286, 0.39919853, 0
9, 1882332767, -0.38100237, 0.11207529, -0.159137, -0.9038883, -0.060578045, -0.07120698, 0.43388748, 0
10, 1882349434, -0.38103002, 0.1121434, -0.15900436, -0.90389156, -0.108367376, -0.08504467, 0.38121414, 0
11, 1882366101, -0.38107783, 0.11221689, -0.15886357, -0.903887, -0.14983982, -0.029582499, 0.39254284, 0
12, 1882382768, -0.3811402, 0.112301916, -0.15872167, -0.903875, -0.09823227, 0.0053672167, 0.3531704, 0
13, 1882399435, -0.381175, 0.11239464, -0.15856245, -0.9038768, -0.08081977, -0.033470172, 0.35311508, 0
14, 1882416102, -0.38121247, 0.112506784, -0.15839213, -0.9038769, -0.13273208, -0.034910154, 0.32267952, 0
15, 1882432769, -0.38126764, 0.11264424, -0.1581989, -0.90387034, -0.10109419, -0.026461363, 0.3612671, 0
16, 1882449436, -0.38133368, 0.1127812, -0.1579979, -0.90386057, -0.085292935, 0.004881188, 0.3882246, 0
17, 1882466103, -0.38141027, 0.112908006, -0.15778272, -0.9038501, -0.15792146, -0.024118835, 0.39177227, 0
18, 1882482770, -0.3814676, 0.113010496, -0.15759261, -0.90384626, -0.19116957, -0.03839226, 0.39316273, 0
19, 1882499437, -0.38152564, 0.11310599, -0.15741691, -0.9038405, -0.157284, -0.028983483, 0.38780022, 0
20, 1882516104, -0.3815563, 0.11319911, -0.15727179, -0.903841, -0.13019814, -0.04368773, 0.39658165, 0
21, 1882532771, -0.3815733, 0.11328782, -0.15713862, -0.9038459, -0.15919308, -0.04662368, 0.40922832, 0
22, 1882549438, -0.38160834, 0.11337399, -0.1570201, -0.90384096, -0.1719673, -0.064569876, 0.34545326, 0
23, 1882566105, -0.3816459, 0.11346394, -0.15689895, -0.9038348, -0.104692854, -0.026573902, 0.37311363, 0
24, 1882582772, -0.3816955, 0.11354789, -0.15679199, -0.9038219, -0.08271642, -0.026680294, 0.38379002, 0
25, 1882599439, -0.38174033, 0.11363227, -0.15670286, -0.90380776, -0.16331016, -0.027486393, 0.35595322, 0
26, 1882616106, -0.38179228, 0.1137027, -0.15659256, -0.9037961, -0.18882847, -0.03443295, 0.35911083, 0
27, 1882632773, -0.38184956, 0.11377419, -0.15650424, -0.9037782, -0.12909013, -0.043605812, 0.377923, 0
28, 1882649440, -0.38189384, 0.11383498, -0.15644273, -0.90376246, -0.14153324, -0.022020832, 0.39912796, 0
29, 1882666107, -0.38193744, 0.11387623, -0.15640363, -0.90374565, -0.18926555, -0.0133094145, 0.34419346, 0
30, 1882682774, -0.38196144, 0.11391038, -0.15637979, -0.9037353, -0.17750703, -0.03399118, 0.32714462, 0
31, 1882699441, -0.38199708, 0.11392857, -0.15638001, -0.90371794, -0.16567956, -0.004476629, 0.34407425, 0
32, 1882716108, -0.38202214, 0.11392349, -0.15637901, -0.90370816, -0.124085926, -8.091169E-4, 0.33031082, 0
33, 1882732775, -0.3820454, 0.113895446, -0.15640178, -0.90369785, -0.12589337, 0.028915089, 0.36895752, 0
34, 1882749442, -0.38206494, 0.11384402, -0.1564224, -0.9036925, -0.16647412, 0.018289283, 0.35162258, 0
35, 1882766109, -0.3820723, 0.11378458, -0.15646455, -0.9036895, -0.15403138, 0.021608785, 0.38658047, 0
36, 1882782776, -0.3820679, 0.11371988, -0.15648672, -0.9036958, -0.13025542, -0.009521764, 0.40056133, 0
37, 1882799443, -0.38204527, 0.11368607, -0.1564926, -0.9037086, -0.060963158, -0.030284552, 0.42156696, 0
38, 1882816110, -0.38203302, 0.1136775, -0.15647383, -0.9037181, 0.0024968632, -0.081614524, 0.42122173, 0
39, 1882832777, -0.38203076, 0.113672234, -0.15643485, -0.90372646, -0.040576905, -0.13037063, 0.3722334, 0
40, 1882849444, -0.3820402, 0.11368743, -0.15637013, -0.9037317, -0.084040456, -0.14155611, 0.34705448, 0
41, 1882866111, -0.3820626, 0.11373374, -0.15630773, -0.90372723, -0.13497785, -0.04517521, 0.3688326, 0
42, 1882882778, -0.38209203, 0.11378524, -0.15622626, -0.90372247, -0.18160164, 8.425321E-4, 0.39640903, 0
43, 1882899445, -0.38211158, 0.11380942, -0.15613773, -0.90372646, -0.14787991, -0.00350513, 0.35303593, 0
44, 1882916112, -0.3821505, 0.11382745, -0.15606256, -0.9037208, -0.11388348, 0.04959786, 0.352664, 0
45, 1882932779, -0.3821882, 0.11382614, -0.1560021, -0.9037154, -0.12837306, 0.03963351, 0.3556013, 0
46, 1882949446, -0.38221338, 0.11382227, -0.15595575, -0.9037131, -0.13486956, 0.02627417, 0.35336018, 0
47, 1882966113, -0.3822311, 0.11382263, -0.15591292, -0.903713, -0.18222271, -0.04664246, 0.36904526, 0
49, 1882999447, -0.38223088, 0.113821685, -0.1558392, -0.9037259, -0.07074853, -0.10588267, 0.4196558, 0
50, 1883016114, -0.38223574, 0.11380699, -0.15578629, -0.90373486, -0.08394591, -0.11176475, 0.3997984, 0
51, 1883032781, -0.38224933, 0.1138251, -0.15575753, -0.9037318, -0.08368504, -0.116707735, 0.32970428, 0
53, 1883066115, -0.38223433, 0.113881685, -0.15574878, -0.90373254, -0.15031193, 0.03472106, 0.41112614, 0
54, 1883082782, -0.38223955, 0.11391031, -0.15574835, -0.90372664, -0.17000613, -0.0068221744, 0.3607111, 0
55, 1883099449, -0.3822303, 0.1139498, -0.15575287, -0.90372497, -0.13862531, -0.046730973, 0.3594017, 0
58, 1883149450, -0.38216782, 0.113889456, -0.15582673, -0.90374625, -0.0945609, 0.032532535, 0.3465376, 0
59, 1883166117, -0.38213554, 0.1138374, -0.15584531, -0.9037633, -0.09399745, 0.031212242, 0.37914848, 0
61, 1883199451, -0.38209268, 0.1137298, -0.15587926, -0.90378904, -0.13965814, -0.025348715, 0.39464664, 0
62, 1883216118, -0.38206515, 0.11367527, -0.15589596, -0.90380466, -0.090164594, -0.08895995, 0.35202312, 0
64, 1883249452, -0.38191545, 0.1135498, -0.15600558, -0.90386474, -0.088436365, -0.023703884, 0.3721981, 0
65, 1883266119, -0.38186136, 0.113521084, -0.15602085, -0.9038886, -0.104250915, -0.037785985, 0.38603878, 0
66, 1883282786, -0.3818308, 0.113521814, -0.15600409, -0.9039043, -0.08955958, -0.060319107, 0.38288116, 0
68, 1883316120, -0.38179424, 0.11356293, -0.15594365, -0.90392494, -0.11437725, -0.067478895, 0.3736124, 0
69, 1883332787, -0.3817903, 0.11357275, -0.15591577, -0.9039303, -0.09604778, -0.023532825, 0.3668623, 0
70, 1883349454, -0.38179773, 0.11361954, -0.15587294, -0.9039287, -0.078261696, 0.031082606, 0.36405468, 0
72, 1883382788, -0.38180465, 0.11367698, -0.15580639, -0.90392995, -0.13192509, -0.03887494, 0.35077095, 0
73, 1883399455, -0.3818251, 0.11371083, -0.15576866, -0.90392363, -0.17299765, -0.045269642, 0.36977005, 0
74, 1883416122, -0.38183597, 0.113710895, -0.15572605, -0.9039264, -0.11517483, -0.049164135, 0.38319302, 0
76, 1883449456, -0.38185108, 0.11373928, -0.15570375, -0.9039202, -0.10826655, -0.023614926, 0.3877573, 0
77, 1883466123, -0.3818801, 0.11375986, -0.15569493, -0.9039068, -0.1536778, -0.036463905, 0.3812008, 0
78, 1883482790, -0.3819059, 0.11376661, -0.15572828, -0.9038893, -0.18080883, -0.044047587, 0.42913437, 0
80, 1883516124, -0.38198602, 0.113792986, -0.15584393, -0.9038323, -0.17096542, -0.09300374, 0.3691368, 0
81, 1883532791, -0.3820141, 0.11377995, -0.15591894, -0.9038092, -0.22523946, -0.06297455, 0.37322426, 0
82, 1883549458, -0.38201663, 0.11375708, -0.15601347, -0.90379465, -0.18266305, -0.057102196, 0.36029243, 0
85, 1883599459, -0.3820702, 0.11363751, -0.15635222, -0.9037284, 0.0220999, 0.019314537, 0.3619089, 0
88, 1883649460, -0.3820378, 0.11336371, -0.15702693, -0.90365946, -0.18714027, 0.0070717265, 0.39103508, 0
89, 1883666127, -0.3819928, 0.11322754, -0.15728246, -0.90365124, -0.030860154, -0.0075232224, 0.34130955, 0
91, 1883699461, -0.38193214, 0.11289918, -0.157688, -0.90364736, -0.1021241, -0.007476955, 0.2943077, 0
92, 1883716128, -0.3819489, 0.11272697, -0.1578573, -0.90363216, -0.07615168, 0.023139961, 0.35201073, 0
93, 1883732795, -0.38192955, 0.112544015, -0.15801248, -0.903636, -0.075922795, 0.015094936, 0.33588696, 0
95, 1883766129, -0.38193652, 0.11227396, -0.1582768, -0.90362054, -0.05704531, -0.0964407, 0.34061432, 0
96, 1883782796, -0.38193133, 0.11217142, -0.15836574, -0.90361965, 0.03289619, -0.09123676, 0.42958832, 0
97, 1883799463, -0.38193533, 0.1120816, -0.15843782, -0.90361655, -0.026482094, -0.042584807, 0.43182945, 0
99, 1883832797, -0.38194934, 0.11196756, -0.15850317, -0.9036133, -0.13955714, -0.053052813, 0.42545128, 0
101, 1883866131, -0.38194004, 0.11189838, -0.1585609, -0.90361565, -0.042160857, -0.0071631433, 0.34622574, 0
103, 1883899465, -0.38195002, 0.1118421, -0.15846895, -0.9036346, -0.0055848067, 0.030812267, 0.27127838, 0
104, 1883916132, -0.38198373, 0.11186084, -0.15835185, -0.9036385, -0.05509379, 0.05984671, 0.32688904, 0
105, 1883932799, -0.3820222, 0.11190948, -0.15822077, -0.9036391, -0.09717608, 0.05493904, 0.41648006, 0
107, 1883966133, -0.38212007, 0.11208776, -0.15792114, -0.9036281, -0.10264659, -0.18282522, 0.33161354, 0
108, 1883982800, -0.38216892, 0.11219576, -0.15780215, -0.9036149, -0.05899792, -0.18173258, 0.3587923, 0
109, 1883999467, -0.38218054, 0.11229827, -0.15771386, -0.9036126, -0.11236851, -0.09347245, 0.4578638, 0
111, 1884032801, -0.38217872, 0.112454206, -0.15755461, -0.9036218, -0.11468388, -0.004128955, 0.40161896, 0
112, 1884049468, -0.3822079, 0.112530924, -0.15745595, -0.9036171, -0.0923508, -0.02361638, 0.35155296, 0
113, 1884066135, -0.38225934, 0.11263342, -0.15735893, -0.9035994, -0.06988384, -0.026750924, 0.2930088, 0
116, 1884116136, -0.3824759, 0.112905726, -0.15709585, -0.90351963, -0.13443749, 0.012232864, 0.32449818, 0
117, 1884132803, -0.3825136, 0.11291996, -0.15703434, -0.9035126, -0.18958545, 0.01811095, 0.29786205, 0
119, 1884166137, -0.3825243, 0.1128019, -0.15705302, -0.9035194, -0.1188398, 0.02590124, 0.36595345, 0
120, 1884182804, -0.38254687, 0.11272067, -0.15709217, -0.9035132, -0.09589424, 0.0538027, 0.3489523, 0
122, 1884216138, -0.3825272, 0.11262723, -0.15727362, -0.90350175, -0.21456201, 0.013292315, 0.39662647, 0
123, 1884232805, -0.38247737, 0.11257221, -0.15736783, -0.9035133, -0.1264988, -0.16045973, 0.37739944, 0
124, 1884249472, -0.38245946, 0.11252178, -0.15748928, -0.903506, 0.01835765, -0.28296617, 0.38808155, 0
126, 1884282806, -0.38240415, 0.11252111, -0.15783536, -0.9034691, -0.025793089, -0.0661538, 0.4171009, 0
127, 1884299473, -0.38234663, 0.11252567, -0.15804783, -0.90345573, -0.0052253976, -0.03529035, 0.36033154, 0
128, 1884316140, -0.38226855, 0.11254978, -0.15828805, -0.9034437, -0.15092339, -0.0024679182, 0.33355045, 0
131, 1884366141, -0.3823075, 0.11257614, -0.15877342, -0.9033388, -0.056576103, 0.101962924, 0.28479385, 0
132, 1884382808, -0.38227174, 0.1125547, -0.15895027, -0.90332544, -0.09295583, -0.0011576853, 0.35766983, 0
134, 1884416142, -0.382375, 0.11241217, -0.1592315, -0.90324986, -0.06259366, -0.09608655, 0.40006638, 0
135, 1884432809, -0.38239682, 0.11231117, -0.15940695, -0.9032223, -0.11941224, -0.11052548, 0.37032032, 0
136, 1884449476, -0.3824022, 0.11224744, -0.1596477, -0.9031855, -0.247794, -0.09599546, 0.39634037, 0
138, 1884482810, -0.3824883, 0.112189025, -0.16015184, -0.9030671, 0.035578903, -0.052579746, 0.33372974, 0
139, 1884499477, -0.38253123, 0.11212969, -0.16039185, -0.9030136, 0.07147687, -0.023663316, 0.24787521, 0
140, 1884516144, -0.38259646, 0.112066105, -0.16064152, -0.9029495, -0.11949536, 0.025274398, 0.3347044, 0
142, 1884549478, -0.3827786, 0.11194344, -0.16091706, -0.90283835, -0.081203066, -0.047595296, 0.3936348, 0
143, 1884566145, -0.3828228, 0.11192915, -0.16104227, -0.9027991, -0.031974256, -0.10562015, 0.4296379, 0
145, 1884599479, -0.3828991, 0.112034984, -0.16136235, -0.90269643, -0.028983176, 0.016901268, 0.4810648, 0
146, 1884616146, -0.38281572, 0.11205957, -0.16157089, -0.9026914, -0.032477073, -0.15060727, 0.3864107, 0
147, 1884632813, -0.3827602, 0.11207387, -0.16181044, -0.9026703, -0.12978423, -0.15947884, 0.33478355, 0
149, 1884666147, -0.38274115, 0.11202836, -0.16221912, -0.90261066, -0.061768085, 0.08064448, 0.26534462, 0
150, 1884682814, -0.38269284, 0.11199854, -0.1624107, -0.9026004, -0.11569296, 0.17319483, 0.30034256, 0
151, 1884699481, -0.38266146, 0.11195581, -0.16257411, -0.9025897, -0.1198966, 0.12415362, 0.27810764, 0
153, 1884732815, -0.3826868, 0.11187445, -0.1627599, -0.9025556, 0.0446271, -0.059839334, 0.31105137, 0
155, 1884766149, -0.3826651, 0.111653045, -0.16282108, -0.9025811, -0.11762395, -0.046093512, 0.38601112, 0
157, 1884799483, -0.38262802, 0.11138603, -0.16277651, -0.90263784, -0.15789218, 0.037158582, 0.3238907, 0
159, 1884832817, -0.38260815, 0.111308, -0.16267474, -0.90267426, -0.019943306, -0.07830497, 0.5308323, 0
161, 1884866151, -0.38271374, 0.11156518, -0.16249686, -0.90262973, 0.20934464, -0.30191025, 0.57927036, 0
162, 1884882818, -0.38275996, 0.111730024, -0.16240537, -0.90260625, 0.052869923, -0.40350872, 0.43940544, 0
163, 1884899485, -0.38281545, 0.111881904, -0.1623275, -0.9025779, -0.22062042, -0.29302537, 0.35924053, 0
165, 1884932819, -0.38290766, 0.11216678, -0.1621198, -0.9025408, -0.29001865, 0.27756083, 0.26080418, 0
166, 1884949486, -0.38290948, 0.11227791, -0.16207129, -0.90253484, -0.18164593, 0.389916, 0.18267155, 0
167, 1884966153, -0.38293543, 0.1123502, -0.16206558, -0.9025159, -0.10703071, 0.34790987, 0.17880344, 0
169, 1884999487, -0.38293868, 0.11232142, -0.16212845, -0.90250677, -0.112698615, -0.0147452615, 0.33683395, 0
170, 1885016154, -0.3829133, 0.11220413, -0.16215184, -0.9025279, -0.14893922, -0.21426342, 0.36249542, 0
172, 1885049488, -0.38294715, 0.11197597, -0.16221377, -0.9025308, -0.042011384, -0.21432993, 0.5514631, 0
174, 1885082822, -0.38292038, 0.11196577, -0.16234887, -0.9025191, -0.006713966, -0.07481169, 0.48975086, 0
176, 1885116156, -0.3829325, 0.11212782, -0.16255361, -0.9024569, -0.05833786, -0.049531143, 0.40542984, 0
177, 1885132823, -0.38291678, 0.11222882, -0.16268082, -0.90242815, -0.002674165, -0.08604947, 0.31864357, 0
178, 1885149490, -0.3828971, 0.112318955, -0.16284305, -0.902396, -0.08939842, -0.039972052, 0.29200077, 0
180, 1885182824, -0.382871, 0.112349294, -0.16308315, -0.90235996, -0.14646032, 0.12045571, 0.26594448, 0
181, 1885199491, -0.38287058, 0.1123049, -0.16319808, -0.90234494, -0.11811545, 0.1976183, 0.27516842, 0
182, 1885216158, -0.3828852, 0.11222459, -0.16329768, -0.9023307, -0.12132119, 0.23381723, 0.3299122, 0
184, 1885249492, -0.38291565, 0.1120511, -0.16331422, -0.9023364, 0.027113993, -0.051233638, 0.34176445, 0
185, 1885266159, -0.3829566, 0.11196668, -0.16324387, -0.9023423, 0.057163216, -0.17099322, 0.388546, 0
186, 1885282826, -0.3830394, 0.11190531, -0.16314775, -0.90233195, 0.024147948, -0.20934314, 0.43458843, 0
189, 1885332827, -0.38320103, 0.1120138, -0.16283934, -0.9023056, -0.11565671, -0.1334985, 0.4557762, 0
190, 1885349494, -0.38322467, 0.11210602, -0.16279778, -0.90229154, -0.026534146, -0.034044713, 0.40108967, 0
192, 1885382828, -0.38320607, 0.1123614, -0.1627703, -0.9022728, -0.047320236, 0.001470827, 0.3580265, 0
193, 1885399495, -0.38323742, 0.11247101, -0.16270289, -0.9022579, -0.08494987, -0.014406527, 0.37434483, 0
196, 1885449496, -0.3834699, 0.11262752, -0.16239357, -0.90219545, -0.13902085, 0.12954028, 0.35538197, 0
197, 1885466163, -0.38352677, 0.11262897, -0.16227458, -0.9021924, -0.07672538, 0.041494846, 0.355381, 0
199, 1885499497, -0.38366532, 0.11269422, -0.16218579, -0.90214115, -0.10718385, -0.13877517, 0.40390968, 0
200, 1885516164, -0.38373515, 0.11270879, -0.16214052, -0.9021179, -0.09782774, -0.14773235, 0.4459715, 0
201, 1885532831, -0.38376203, 0.11270576, -0.16213053, -0.90210867, -0.07762672, -0.14541519, 0.45567036, 0
203, 1885566165, -0.38375786, 0.11272404, -0.16224092, -0.9020883, -0.11728683, -0.041903425, 0.42286873, 0
205, 1885599499, -0.3837343, 0.112718225, -0.16240747, -0.90206915, -0.03939634, 0.039635107, 0.33895874, 0
207, 1885632833, -0.38367364, 0.1127072, -0.16257253, -0.90206647, -0.07743861, 0.026719633, 0.35415077, 0
208, 1885649500, -0.38364848, 0.11264921, -0.16263498, -0.90207314, -0.1333302, -1.0750973E-4, 0.39126396, 0
209, 1885666167, -0.38362166, 0.1125332, -0.1627252, -0.9020829, -0.13404374, 0.0027607202, 0.36425304, 0
211, 1885699501, -0.38356084, 0.11230773, -0.16286576, -0.9021115, -0.057748877, -0.012198779, 0.40088463, 0
212, 1885716168, -0.38354316, 0.1121994, -0.1628958, -0.902127, -0.056192804, -0.04109677, 0.40293026, 0
213, 1885732835, -0.38358828, 0.11207722, -0.16291729, -0.90211916, 0.021855796, -0.045138527, 0.29986954, 0
215, 1885766169, -0.38361588, 0.112030976, -0.16321984, -0.9020585, -0.1502332, 0.16072671, 0.6353426, 0
216, 1885782836, -0.3835503, 0.11212058, -0.1634669, -0.90203047, -0.45822164, 0.05402744, 0.35976505, 0
217, 1885799503, -0.38345695, 0.11231229, -0.16372664, -0.90199924, -0.36632985, -0.42799148, -0.032052994, 0
219, 1885832837, -0.38345236, 0.112691596, -0.16395776, -0.90191185, 0.7309599, -0.73597014, 9.317398E-4, 0
220, 1885849504, -0.38355273, 0.113221765, -0.16449863, -0.9017044, 0.29711103, -0.58981043, 0.17719936, 0
221, 1885866171, -0.38376662, 0.1140334, -0.16527013, -0.90137005, -0.48468795, 0.11358292, 0.7948961, 0
223, 1885899505, -0.38423905, 0.11569175, -0.16675252, -0.900684, -0.124537006, 0.5451889, 0.71189785, 0
224, 1885916172, -0.3843997, 0.11637074, -0.16753478, -0.90038264, 0.015715923, 0.1770987, 0.5385752, 0
225, 1885932839, -0.38449058, 0.116842955, -0.16828245, -0.9001433, -0.07491738, -0.02478915, 0.3718357, 0
227, 1885966173, -0.38442597, 0.116923824, -0.16948375, -0.899935, -0.38059986, 0.24830893, 0.3995962, 0
228, 1885982840, -0.3843488, 0.11662388, -0.16976102, -0.8999547, -0.21149927, 0.398039, 0.3158865, 0
230, 1886016174, -0.38435882, 0.11556356, -0.16954887, -0.9001271, 0.14345832, 0.49796897, 0.32304668, 0
232, 1886049508, -0.38449728, 0.11403875, -0.1683724, -0.90048325, -0.028901342, -0.19615743, 0.17682076, 0
234, 1886082842, -0.38461837, 0.11297713, -0.16712418, -0.90079784, 0.13955817, -0.39578435, 0.46215343, 0
235, 1886099509, -0.3846331, 0.11275594, -0.16668332, -0.90090096, 0.12746623, -0.53312767, 0.4041357, 0
236, 1886116176, -0.3846426, 0.112642616, -0.16630626, -0.9009806, 0.04321444, -0.3830725, 0.5100956, 0
238, 1886149510, -0.38449663, 0.11255327, -0.16559687, -0.90118486, 0.05143578, 0.003999988, 0.30836773, 0
239, 1886166177, -0.3843643, 0.11261852, -0.16527976, -0.90129125, -0.06066189, 0.12096365, 0.29716873, 0
240, 1886182844, -0.38426107, 0.11269128, -0.16487785, -0.90139985, -0.09277414, 0.24879886, 0.4146862, 0
242, 1886216178, -0.38412866, 0.1127302, -0.16375281, -0.9016565, 0.13494773, 0.06771437, 0.22563076, 0
243, 1886232845, -0.38411358, 0.11278513, -0.16307837, -0.90177816, 0.0051524206, -0.10162654, 0.2696371, 0
244, 1886249512, -0.38417605, 0.11287639, -0.1623661, -0.9018687, -0.094948664, -0.18618406, 0.30448627, 0
247, 1886299513, -0.3843778, 0.11325967, -0.16052659, -0.902064, -0.13005766, -0.1829572, 0.39508533, 0
248, 1886316180, -0.3844402, 0.113438964, -0.16005085, -0.9020994, -0.06395038, -0.11088813, 0.40303612, 0
250, 1886349514, -0.38457617, 0.11388688, -0.15924594, -0.90212744, -0.12580693, -0.004345092, 0.37503338, 0
251, 1886366181, -0.38466093, 0.114151016, -0.15893972, -0.9021119, -0.15758657, -0.03838086, 0.28848267, 0
253, 1886399515, -0.38484162, 0.11458546, -0.15844738, -0.9020664, -0.13871159, 0.01418592, 0.38829994, 0
254, 1886416182, -0.38482696, 0.11469431, -0.1583242, -0.90208054, -0.10246454, 0.03619256, 0.44474983, 0
255, 1886432849, -0.38481796, 0.11476503, -0.15822898, -0.902092, -0.13036686, 0.015395908, 0.3812647, 0
257, 1886466183, -0.38476533, 0.11484651, -0.15808462, -0.90212935, -0.20763026, -0.08040767, 0.31710434, 0
258, 1886482850, -0.38476467, 0.11492951, -0.15805583, -0.9021241, -0.069649376, -0.11417511, 0.37153244, 0
259, 1886499517, -0.38477919, 0.114980295, -0.15806693, -0.90210956, -0.019741697, -0.10207266, 0.38166046, 0
262, 1886549518, -0.38489285, 0.11495046, -0.15824424, -0.9020338, -0.068399884, -0.022014014, 0.37152195, 0
263, 1886566185, -0.3848842, 0.114874944, -0.15838638, -0.9020221, -0.11784606, 0.05810521, 0.34182644, 0
265, 1886599519, -0.3849305, 0.11475474, -0.15864915, -0.9019715, -0.083502516, 0.017673729, 0.39169025, 0
266, 1886616186, -0.3849337, 0.11467665, -0.1588239, -0.9019493, -0.01586523, -0.03573726, 0.38259506, 0
267, 1886632853, -0.38491362, 0.114557534, -0.1590116, -0.90194, -0.073988155, -0.098796524, 0.3197298, 0
269, 1886666187, -0.38492483, 0.11427867, -0.15932748, -0.9019148, 0.02735754, -0.024142304, 0.32729626, 0
270, 1886682854, -0.38491982, 0.11411041, -0.15951811, -0.9019045, 0.048919413, 0.0266195, 0.32477188, 0
271, 1886699521, -0.38487604, 0.11395628, -0.15971668, -0.90190756, -0.09640502, 0.06626075, 0.37156677, 0
273, 1886732855, -0.38480905, 0.113637455, -0.15997863, -0.9019301, -0.033474755, -0.01872368, 0.311059, 0
274, 1886749522, -0.3847537, 0.11350813, -0.16007513, -0.9019528, 0.04831174, -0.061165772, 0.32428646, 0
277, 1886799523, -0.3847432, 0.1132562, -0.16011703, -0.9019815, -0.0029957162, -0.046811547, 0.38475418, 0
278, 1886816190, -0.38473922, 0.11320788, -0.16009425, -0.9019933, 0.010676851, -0.07078767, 0.3873682, 0
280, 1886849524, -0.38463336, 0.11314465, -0.16001394, -0.9020605, -0.011867253, -0.028003715, 0.3904209, 0
281, 1886866191, -0.38458803, 0.113102615, -0.15995169, -0.9020962, -0.021888595, 0.034131434, 0.38806057, 0
282, 1886882858, -0.384513, 0.113030314, -0.1598697, -0.9021518, -0.014232355, 0.06872856, 0.34176064, 0
284, 1886916192, -0.38437948, 0.11297846, -0.15966603, -0.90225124, -0.06859914, 0.039678913, 0.34516335, 0
285, 1886932859, -0.3843692, 0.11301094, -0.15951358, -0.90227854, -0.025272183, -0.04311943, 0.35394955, 0
286, 1886949526, -0.38435078, 0.11309053, -0.15937147, -0.90230155, 0.0036183954, -0.115007475, 0.39698982, 0
288, 1886982860, -0.38435876, 0.113154024, -0.15905166, -0.90234655, -0.06451704, -0.12074158, 0.34091187, 0
289, 1886999527, -0.38439453, 0.113137856, -0.15882522, -0.9023732, 5.510153E-4, -0.034624837, 0.31077957, 0
290, 1887016194, -0.38440782, 0.113142915, -0.15865068, -0.90239775, 0.04627288, 0.11266595, 0.44967365, 0
293, 1887066195, -0.38413322, 0.11376813, -0.15849169, -0.90246403, -0.38886753, -0.33395866, 0.0723505, 0
294, 1887082862, -0.3840907, 0.11400342, -0.15844826, -0.90246, 0.17122106, -0.560665, -0.10835743, 0
297, 1887132863, -0.38453016, 0.11492206, -0.15845515, -0.90215504, -0.16307056, 0.2724984, 0.5779495, 0
298, 1887149530, -0.3848005, 0.11527755, -0.1584809, -0.9019898, -0.40425965, 0.27745065, 0.6642866, 0
300, 1887182864, -0.3852077, 0.11603441, -0.15862854, -0.901693, -0.0032595175, -0.085319586, 0.5874615, 0
301, 1887199531, -0.38530278, 0.116357855, -0.1588451, -0.9015726, 0.1723836, -0.25158182, 0.51058483, 0
302, 1887216198, -0.38530958, 0.116557285, -0.15910757, -0.9014977, -0.03670717, -0.29136735, 0.36937046, 0
304, 1887249532, -0.38534832, 0.116761446, -0.15948635, -0.9013877, -0.2789331, 0.2651522, 0.2770071, 0
306, 1887282866, -0.38545325, 0.116739474, -0.15959266, -0.9013269, 0.04674572, 0.47735035, 0.17745876, 0
308, 1887316200, -0.3856269, 0.11642337, -0.15940124, -0.9013275, 0.041034047, -0.018370641, 0.38232517, 0
309, 1887332867, -0.38567016, 0.1162125, -0.15924531, -0.90136373, -0.06392822, -0.20744233, 0.40629387, 0
311, 1887366201, -0.3856764, 0.115881935, -0.15892045, -0.9014609, 0.0057426626, -0.2836451, 0.5126085, 0
312, 1887382868, -0.38566938, 0.115841046, -0.15879956, -0.90149045, 0.08333996, -0.30154166, 0.39317036, 0
313, 1887399535, -0.3856767, 0.115890704, -0.1587439, -0.9014908, 0.034134842, -0.17969067, 0.47348118, 0
315, 1887432869, -0.38560474, 0.116073295, -0.1585374, -0.90153426, -0.042294156, 0.1009741, 0.33453274, 0
316, 1887449536, -0.38562128, 0.11616268, -0.15836813, -0.9015455, 0.035195522, 0.15192443, 0.261981, 0
317, 1887466203, -0.38562986, 0.116278395, -0.15814611, -0.90156597, 0.022156142, 0.1429181, 0.24689674, 0
319, 1887499537, -0.38567004, 0.116465606, -0.15747984, -0.90164113, -0.05507535, 0.02755289, 0.3374977, 0
321, 1887532871, -0.38579443, 0.11659585, -0.15666825, -0.9017124, -0.0037983232, -0.06979047, 0.3762226, 0
323, 1887566205, -0.38588446, 0.116679296, -0.15587942, -0.9017998, -0.03948239, -0.06959423, 0.40739822, 0
324, 1887582872, -0.38592178, 0.11670694, -0.1555797, -0.9018321, -0.13578604, -0.045852676, 0.45352936, 0
325, 1887599539, -0.3859463, 0.11673465, -0.15531622, -0.90186346, -0.17391431, -0.03417245, 0.44068527, 0
327, 1887632873, -0.38593557, 0.116816156, -0.15501255, -0.9019097, -0.08972461, -0.12824503, 0.33144188, 0
328, 1887649540, -0.38589945, 0.11684703, -0.1549367, -0.90193415, -0.14667518, -0.06250317, 0.37597752, 0
329, 1887666207, -0.3859115, 0.116836615, -0.15488389, -0.9019394, -0.091450915, 0.03599285, 0.38824558, 0
331, 1887699541, -0.38589194, 0.11664349, -0.1547898, -0.901989, -0.18481079, -0.011201128, 0.30917168, 0
332, 1887716208, -0.38593, 0.1164953, -0.15473922, -0.90200055, -0.1714027, 0.028457558, 0.41323853, 0
333, 1887732875, -0.3859424, 0.11628643, -0.15473902, -0.9020222, -0.21751948, 0.07472629, 0.3459053, 0
336, 1887782876, -0.38609436, 0.11555524, -0.15491039, -0.9020217, 0.11081169, -0.073091194, 0.34183788, 0
338, 1887816210, -0.38614923, 0.11522375, -0.15512404, -0.9020039, -0.0018103991, -0.18541573, 0.45860577, 0
339, 1887832877, -0.3861253, 0.1150876, -0.15526858, -0.90200675, 0.017353183, -0.17291398, 0.43355465, 0
340, 1887849544, -0.3860947, 0.11493506, -0.15546845, -0.90200484, -0.01465242, -0.1314178, 0.38516903, 0
342, 1887882878, -0.38599902, 0.1147355, -0.15580529, -0.90201306, -0.04683809, 0.024531776, 0.35439968, 0
343, 1887899545, -0.38597578, 0.11472425, -0.15596554, -0.9019968, 0.05247844, 0.09316433, 0.3618822, 0
344, 1887916212, -0.38588217, 0.11469999, -0.15608738, -0.9020188, 0.025581226, 0.09613348, 0.36418915, 0
346, 1887949546, -0.38597798, 0.1145648, -0.15606366, -0.901999, 0.036083624, -0.03393262, 0.31094646, 0
347, 1887966213, -0.3860284, 0.11448853, -0.15598835, -0.9020002, -0.022171982, -0.0043374924, 0.40856934, 0
348, 1887982880, -0.38608837, 0.11436715, -0.15583926, -0.9020158, 0.00781513, -0.010336803, 0.41361713, 0
351, 1888032881, -0.38629335, 0.11420567, -0.15513001, -0.9020707, -0.008046858, 0.005019766, 0.4115219, 0
352, 1888049548, -0.38637266, 0.11423705, -0.15488729, -0.90207446, -0.016629951, -0.033037562, 0.4559431, 0
354, 1888082882, -0.38646153, 0.114325434, -0.15434694, -0.9021177, -0.0189128, -0.14930598, 0.34788513, 0
355, 1888099549, -0.38647786, 0.11433262, -0.15411949, -0.9021487, -0.04134048, -0.040366553, 0.42122364, 0
356, 1888116216, -0.3865028, 0.1143008, -0.1538781, -0.9021833, -0.018527351, 0.033165522, 0.33397198, 0
358, 1888149550, -0.38662738, 0.11426638, -0.153418, -0.9022127, -0.14758033, 0.13752785, 0.32761765, 0
359, 1888166217, -0.3867133, 0.11426795, -0.1531345, -0.9022238, -0.14306545, 0.10524521, 0.35001945, 0
361, 1888199551, -0.38688788, 0.11436045, -0.15278192, -0.9021971, -0.026614862, -0.21173103, 0.35932255, 0
362, 1888216218, -0.3869287, 0.11438024, -0.15269583, -0.9021916, -0.023043599, -0.17887686, 0.481205, 0
363, 1888232885, -0.38694695, 0.11433105, -0.15261161, -0.9022041, -0.02708639, -0.15728931, 0.43833637, 0
365, 1888266219, -0.38700455, 0.11434202, -0.15245946, -0.9022038, -0.06552802, 0.052979834, 0.34296036, 0
366, 1888282886, -0.38702396, 0.11435941, -0.15239048, -0.902205, -0.038684785, 0.18843439, 0.3243208, 0
367, 1888299553, -0.387042, 0.11434151, -0.15232235, -0.90221095, -0.0731428, 0.20193557, 0.31147194, 0
369, 1888332887, -0.38708928, 0.114330545, -0.15210918, -0.9022281, 0.03344332, -0.0472151, 0.42045498, 0
370, 1888349554, -0.38709468, 0.11434238, -0.15198588, -0.9022451, 0.052349806, -0.1437423, 0.41239452, 0
371, 1888366221, -0.38712987, 0.11434992, -0.15186648, -0.90224904, -0.020672098, -0.1596334, 0.43858242, 0
373, 1888399555, -0.38722408, 0.114517435, -0.15194328, -0.9021744, 0.17974526, 0.02028302, 0.81569576, 0
374, 1888416222, -0.38733336, 0.11493108, -0.15210016, -0.9020486, -0.7106419, 0.2832545, 1.0917158, 0
375, 1888432889, -0.3873559, 0.11535038, -0.15233363, -0.9019459, -0.69616157, -0.6866963, 0.06768322, 0
378, 1888482890, -0.38777316, 0.11654058, -0.15268347, -0.90155435, 0.57023215, 0.1295261, -0.010484695, 0
379, 1888499557, -0.3882809, 0.11680161, -0.15244237, -0.9013429, -0.37893397, 0.20226112, 0.15508175, 0
381, 1888532891, -0.38955626, 0.118229434, -0.15229867, -0.9006305, 0.0665461, 0.29675755, 0.9474411, 0
382, 1888549558, -0.39003024, 0.119191326, -0.15248859, -0.9002663, 0.05322215, -0.24695936, 0.49363708, 0
383, 1888566225, -0.3904787, 0.12010896, -0.15282303, -0.89989316, 0.2905094, -0.52766055, 0.5509453, 0
385, 1888599559, -0.39097553, 0.12100963, -0.15332772, -0.89947087, -0.41803205, -0.78311485, -0.20193386, 0
386, 1888616226, -0.39105225, 0.121014535, -0.15341474, -0.899422, -0.1620498, -0.72550285, 0.5644188, 0
388, 1888649560, -0.39084557, 0.12038333, -0.15335122, -0.89960724, 0.26395974, -0.106309466, 0.8752079, 0
389, 1888666227, -0.39058688, 0.1197526, -0.15308076, -0.8998499, 0.23423302, -0.4309511, 0.110510826, 0
390, 1888682894, -0.39063826, 0.119229145, -0.15267743, -0.89996576, -0.18115543, 0.51953495, 0.4994526, 0
393, 1888732895, -0.39063117, 0.11695264, -0.15097557, -0.9005543, 0.012152622, 1.1975002, 0.43114758, 0
394, 1888749562, -0.3905886, 0.116308436, -0.15033972, -0.90076256, -0.014243643, 1.5073972, 0.43558788, 0
396, 1888782896, -0.39139783, 0.11536425, -0.1484504, -0.9008461, 0.8012576, 1.6592014, 0.31262016, 0
397, 1888799563, -0.39175043, 0.11560328, -0.1474053, -0.9008337, 0.28659987, 1.3114349, 0.2287178, 0
398, 1888816230, -0.3923388, 0.11619249, -0.14632961, -0.9006773, -0.5814539, 1.1366417, 0.4873476, 0
400, 1888849564, -0.39395538, 0.11720643, -0.14432465, -0.9001637, 0.017006515, 0.5134983, 0.10133743, 0
401, 1888866231, -0.39462537, 0.118236125, -0.1433307, -0.89989424, 0.75664693, -0.012081434, 0.13331032, 0
402, 1888882898, -0.39523643, 0.11922985, -0.14238177, -0.8996455, 0.45870417, -0.54275733, 0.23159218, 0
404, 1888916232, -0.39664742, 0.12080403, -0.1405617, -0.89910066, -0.2497657, -1.2770582, 1.240449, 0
405, 1888932899, -0.39719585, 0.12218535, -0.14069705, -0.8986506, -0.6835753, -2.193239, 1.5755568, 0
408, 1888982900, -0.40424863, 0.13594183, -0.14891054, -0.8921832, 1.2275499, -5.7528515, -1.1394243, 0
409, 1888999567, -0.4077216, 0.1412605, -0.1533299, -0.88902235, 0.4440965, -5.3507295, 0.22222424, 0
410, 1889016234, -0.41049376, 0.14678293, -0.15806252, -0.8860183, -0.5124982, -5.610785, 2.0935926, 0
412, 1889049568, -0.41516513, 0.16230237, -0.16766118, -0.8793452, -0.014531416, -5.277721, 1.190218, 0
413, 1889066235, -0.41636315, 0.17112812, -0.1736652, -0.87593365, 0.66636467, -4.47343, 0.72329426, 0
414, 1889082902, -0.4177436, 0.17892587, -0.17888546, -0.8726615, 1.0255477, -3.9989982, 0.65737534, 0
416, 1889116236, -0.42086917, 0.1846132, -0.18622433, -0.86842966, -0.5499372, -2.371397, 0.33699703, 0
417, 1889132903, -0.4221232, 0.18181452, -0.18870525, -0.8678756, -0.72379124, -2.2065244, -0.4868145, 0
419, 1889166237, -0.42149132, 0.17273211, -0.18958989, -0.8698429, 0.25250912, -0.8767729, -1.4683189, 0
420, 1889182904, -0.41920984, 0.16873275, -0.18772477, -0.87213194, 0.08732523, -0.74389726, -1.1409283, 0
423, 1889232905, -0.4114614, 0.15327233, -0.17285603, -0.8816973, 1.8426034, -6.505184, -0.41247654, 0
424, 1889249572, -0.41075438, 0.14651875, -0.16613004, -0.8844637, 1.4067628, -3.6270752, 0.44358253, 0
425, 1889266239, -0.4113916, 0.13986629, -0.15954606, -0.88645464, 0.42459574, -3.651111, 1.2281322, 0
427, 1889299573, -0.41219863, 0.12338072, -0.14692715, -0.8906988, -0.9895799, -3.1291502, 0.021809578, 0
428, 1889316240, -0.41024286, 0.11826753, -0.14471197, -0.8926558, -1.1799022, -4.752372, -0.05805397, 0
429, 1889332907, -0.41011468, 0.11627999, -0.14331163, -0.89320153, -0.20409699, -3.9122114, 2.1871662, 0
432, 1889382908, -0.41110578, 0.11496628, -0.14625905, -0.8924378, -1.0064579, -3.817451, -0.02415371, 0
433, 1889399575, -0.41146758, 0.11427952, -0.14871335, -0.8919536, -0.92898786, -3.6723962, -0.6125593, 0
435, 1889432909, -0.4119066, 0.11383921, -0.15134537, -0.89136434, 0.68715924, -3.5374532, 0.0903244, 0
436, 1889449576, -0.41254076, 0.115639016, -0.15133569, -0.8908409, 0.6840104, -4.0153146, 0.30598068, 0
437, 1889466243, -0.41344073, 0.117664464, -0.15242277, -0.8899728, 0.17485613, -3.4394996, 2.0951424, 0
439, 1889499577, -0.41421866, 0.118349224, -0.15798621, -0.888549, -1.203723, -3.852759, -1.313508, 0
440, 1889516244, -0.41385058, 0.11772989, -0.16100726, -0.88826036, -1.2091659, -3.4693577, -0.49604988, 0
441, 1889532911, -0.41262707, 0.11649201, -0.1634799, -0.888541, -0.24590188, -1.8174909, 0.9140177, 0
443, 1889566245, -0.41017398, 0.11251822, -0.1685059, -0.88924974, 0.72724223, -2.4492204, -1.5064974, 0
444, 1889582912, -0.40927926, 0.10935493, -0.1705677, -0.88966334, 0.72406995, -0.4652953, -0.52598953, 0
446, 1889616246, -0.4085247, 0.10207767, -0.17251942, -0.8904982, 0.68161863, -1.6323035, -2.4734292, 0
447, 1889632913, -0.40843233, 0.09791188, -0.17275737, -0.8909621, -0.7023934, -0.8266049, 0.16070557, 0
448, 1889649580, -0.40836242, 0.09497739, -0.17463347, -0.89094603, -1.5120332, 0.9544733, 2.5554953, 0
451, 1889699581, -0.4082801, 0.08923142, -0.18579781, -0.8893181, -0.99378175, 3.8644469, 1.4042139, 0
452, 1889716248, -0.40900356, 0.08783494, -0.18974325, -0.88829094, -0.53283924, 2.7724712, -0.009316444, 0
454, 1889749582, -0.4124638, 0.08598338, -0.19349514, -0.88606, -0.44814932, 2.7550406, 1.6320648, 0
455, 1889766249, -0.41431192, 0.08630564, -0.19357193, -0.88514936, -0.765809, 3.8264532, 0.7074566, 0
456, 1889782916, -0.41655478, 0.08740278, -0.19194499, -0.8843428, -0.5724228, 3.4742553, 0.25448132, 0
458, 1889816250, -0.42223355, 0.089395605, -0.18560265, -0.882803, -0.01697454, 0.4274105, -0.6043377, 0
459, 1889832917, -0.42486647, 0.08990873, -0.18335806, -0.88195646, -1.2040676, 1.2298907, 1.2016611, 0
460, 1889849584, -0.42748532, 0.089424595, -0.18135062, -0.8811549, -1.331114, 1.2708644, 0.2046957, 0
462, 1889882918, -0.43256882, 0.08910221, -0.1780388, -0.8793801, 0.7483774, 0.47466362, -0.5153637, 0
463, 1889899585, -0.43463203, 0.08875331, -0.17625807, -0.87875664, 1.1678118, 0.9407201, 0.62133026, 0
467, 1889966253, -0.4405666, 0.08707599, -0.17061779, -0.87708074, 0.21387619, -0.8870325, -0.08527374, 0
469, 1889999587, -0.4423645, 0.08619712, -0.16795282, -0.87677693, 0.5078531, -0.53427947, 0.89320374, 0
470, 1890016254, -0.44318086, 0.08652935, -0.16646864, -0.876615, 0.57110053, -1.3868189, -0.49663734, 0
471, 1890032921, -0.44395024, 0.08703384, -0.16437994, -0.87657, 0.17464899, -1.9543881, 0.23870373, 0
473, 1890066255, -0.4449458, 0.08765821, -0.16144519, -0.8765484, 0.5155346, -1.5454873, 0.92083454, 0
474, 1890082922, -0.4453083, 0.08797578, -0.1599095, -0.876614, 0.7235227, -2.2884142, 0.5319786, 0
475, 1890099589, -0.44569796, 0.088657096, -0.15834303, -0.8766316, 0.90735966, -2.2539008, 0.9494543, 0
477, 1890132923, -0.4460805, 0.089769155, -0.15606609, -0.87673223, 0.5105671, -2.2509863, 0.9704943, 0
478, 1890149590, -0.44612858, 0.090594314, -0.15491422, -0.87682724, 0.15467691, -2.3845632, 1.33076, 0
479, 1890166257, -0.44611868, 0.091502406, -0.15392068, -0.87691283, 0.3914607, -2.9974847, 0.8978996, 0
482, 1890216258, -0.44517648, 0.093711205, -0.15400198, -0.8771441, 0.8908811, -3.3509688, 0.7458916, 0
483, 1890232925, -0.44444376, 0.09422381, -0.15477252, -0.8773252, 1.3269362, -2.8136013, 1.5781593, 0
485, 1890266259, -0.44305396, 0.09642258, -0.15760967, -0.87728405, -0.2875961, -5.2594953, -1.4584723, 0
486, 1890282926, -0.44209874, 0.09704856, -0.159389, -0.8773756, 0.09567971, -4.0303044, -0.9846144, 0
487, 1890299593, -0.4398085, 0.09567204, -0.16161843, -0.87826943, 1.3366188, -3.418962, 0.99323654, 0
489, 1890332927, -0.43524408, 0.09373449, -0.16741356, -0.8796655, 0.31784913, -2.603251, 2.477459, 0
490, 1890349594, -0.43399322, 0.095710784, -0.17171045, -0.8792423, -0.7357521, -5.092073, -1.2222881, 0
491, 1890366261, -0.43304247, 0.097688526, -0.17430931, -0.87898225, -0.21320814, -5.076625, -3.6450872, 0
493, 1890399595, -0.4288261, 0.09473226, -0.17354487, -0.8815205, 2.4692008, -4.555293, 2.0478764, 0
494, 1890416262, -0.4272753, 0.094999194, -0.17461437, -0.88203347, -0.73941314, -1.5880046, 5.9025087, 0
497, 1890466263, -0.42827284, 0.104976065, -0.18528116, -0.8782344, 0.041973177, -5.4885554, -5.9546156, 0
500, 1890516264, -0.42512903, 0.10613954, -0.18239625, -0.88022363, 0.103798635, -3.992032, 2.195467, 0
501, 1890532931, -0.42448437, 0.10814227, -0.18189748, -0.8803941, -0.96098447, -2.5147214, 1.0506678, 0
502, 1890549598, -0.42351842, 0.11001611, -0.18364829, -0.8802638, -1.9416801, -0.91934395, 0.010614395, 0
504, 1890582932, -0.4203894, 0.109290205, -0.18822062, -0.8808882, -1.6909205, 2.199948, -0.40338993, 0
505, 1890599599, -0.4164011, 0.10256921, -0.18810758, -0.88361055, -0.49494457, 1.6068499, 1.5528154, 0
506, 1890616266, -0.4144276, 0.099141076, -0.18799917, -0.8849517, 0.7142951, -0.17916821, -4.0649595, 0
508, 1890649600, -0.4126169, 0.09400346, -0.19115496, -0.8856821, 0.08671743, 2.2829742, 1.815464, 0
509, 1890666267, -0.41171378, 0.09111989, -0.19321404, -0.8859569, -0.79303265, 1.6258707, -2.4153023, 0
510, 1890682934, -0.41061112, 0.08895298, -0.19742772, -0.88575983, -1.1858317, 2.952902, -0.49842358, 0
512, 1890716268, -0.40854788, 0.08526298, -0.2060562, -0.88511133, -2.2895453, 4.428004, 3.7837906, 0
513, 1890732935, -0.4085482, 0.08428438, -0.2103729, -0.8841889, -0.5796819, 4.3391213, 3.6065197, 0
514, 1890749602, -0.40901002, 0.08351742, -0.21413437, -0.8831446, 0.14869343, 4.041516, 1.4059391, 0
516, 1890782936, -0.41052532, 0.08239196, -0.21643266, -0.8819864, 0.5460411, 2.5331323, 0.59513855, 0
517, 1890799603, -0.41215438, 0.082485735, -0.21495308, -0.88157946, -0.5762608, 2.3033352, 1.0517092, 0
518, 1890816270, -0.41398916, 0.082687385, -0.21260874, -0.88126945, -1.2010834, 1.4351957, -0.02407074, 0
520, 1890849604, -0.4182022, 0.08313494, -0.20695223, -0.88058424, -1.0475928, 2.0798395, 0.3674755, 0
521, 1890866271, -0.42092028, 0.082979865, -0.20426513, -0.87993085, -0.7050612, 1.7265623, 1.2106409, 0
522, 1890882938, -0.42380813, 0.0825888, -0.20194852, -0.879116, -0.19060402, 2.3983777, 1.6461248, 0
525, 1890932939, -0.4306268, 0.08298423, -0.19526142, -0.8772739, 0.56628925, 2.1138587, 0.51481247, 0
527, 1890966273, -0.43396896, 0.082400195, -0.18989624, -0.87685966, 0.6429008, 0.24615136, -0.8378, 0
528, 1890982940, -0.43503144, 0.082991846, -0.1885699, -0.87656367, 0.14436537, 1.4785283, -0.10551453, 0
529, 1890999607, -0.43559104, 0.08275005, -0.18694004, -0.8766576, -0.48154306, 0.24458419, 0.26450825, 0
531, 1891032941, -0.43650055, 0.082493275, -0.1841513, -0.8768197, 0.92172533, -0.7552155, 0.22738457, 0
532, 1891049608, -0.43633804, 0.08250109, -0.18370578, -0.8769932, 1.0492598, -0.61351603, 0.316082, 0
533, 1891066275, -0.43579108, 0.082297064, -0.18350494, -0.87732637, 0.65872353, -0.3389203, 0.8461256, 0
535, 1891099609, -0.43430278, 0.08213317, -0.18318105, -0.8781471, 1.0381771, -1.2801939, 0.44556618, 0
536, 1891116276, -0.4332528, 0.08215336, -0.18337384, -0.8786235, 1.055563, -1.6078484, -0.27523327, 0
537, 1891132943, -0.43217772, 0.082209855, -0.18332192, -0.87915826, 0.7651342, -1.9477952, 0.3454256, 0
540, 1891182944, -0.4288518, 0.081915215, -0.18255399, -0.8809724, 0.1626182, -1.5962129, 1.4300556, 0
543, 1891232945, -0.42589945, 0.08246166, -0.18432845, -0.8819837, -0.20318344, -1.410278, 1.8192348, 0
544, 1891249612, -0.42507377, 0.0821887, -0.18515182, -0.8822348, -0.053267177, -1.5097364, 1.5414276, 0
545, 1891266279, -0.42447746, 0.08187492, -0.18634029, -0.88230085, -0.5614854, -2.4250548, 0.022886276, 0
547, 1891299613, -0.42365882, 0.08186796, -0.18828028, -0.88228333, -0.18124408, 0.1519213, 1.5928812, 0
548, 1891316280, -0.42370057, 0.08127678, -0.18827663, -0.8823185, 0.1841665, -1.976558, 0.76445866, 0
549, 1891332947, -0.42383984, 0.080788374, -0.18905888, -0.8821292, -0.22456194, -1.5499598, -0.538126, 0
551, 1891366281, -0.42349857, 0.08010496, -0.19093572, -0.8819513, -0.5450245, -0.7919573, -0.42019367, 0
552, 1891382948, -0.4232898, 0.08039021, -0.19231686, -0.88172555, -0.003925451, 0.5959985, 1.3118, 0
554, 1891416282, -0.4230545, 0.07972415, -0.1949792, -0.88131404, 0.2167498, -1.2414541, 0.06503677, 0
556, 1891449616, -0.42276844, 0.079553604, -0.19798662, -0.88079596, -0.36392906, -0.7261005, 0.16708946, 0
558, 1891482950, -0.42334178, 0.07980959, -0.19996266, -0.88005084, -0.34743342, -1.2673017, -0.37712193, 0
559, 1891499617, -0.42392254, 0.07986794, -0.20058554, -0.8796241, -0.6852773, -0.48509207, 0.6436529, 0
560, 1891516284, -0.42474043, 0.07959751, -0.2005161, -0.87926984, -0.7849544, -2.355589, -0.38172436, 0
562, 1891549618, -0.42733446, 0.079393364, -0.1994686, -0.87826896, -0.78322333, -1.4058794, 1.3943529, 0
563, 1891566285, -0.4289783, 0.07983929, -0.19851774, -0.8776425, -0.70706695, -1.2326078, 1.9255924, 0
564, 1891582952, -0.43088433, 0.08082189, -0.19747823, -0.876853, -1.4026265, -2.6474726, 0.8396616, 0
566, 1891616286, -0.435459, 0.08190659, -0.1963488, -0.8747436, -0.45940652, -3.1234362, -2.924005, 0
567, 1891632953, -0.4374947, 0.0824035, -0.19549827, -0.87387115, 0.5394609, 0.46847746, 0.7282362, 0
568, 1891649620, -0.4390842, 0.081938356, -0.19370376, -0.87351733, 0.3770253, -2.1092062, 2.6735687, 0
571, 1891699621, -0.44479966, 0.08611747, -0.19090542, -0.8708354, -0.83293223, -5.0567164, -1.2517757, 0
572, 1891716288, -0.44629762, 0.08787933, -0.18909031, -0.87028897, -0.2121102, -3.8274891, -0.26269913, 0
574, 1891749622, -0.44813818, 0.08973736, -0.18654649, -0.8697023, -0.29030955, -4.31051, 2.213914, 0
575, 1891766289, -0.44942838, 0.09105011, -0.1868023, -0.868845, -0.96013385, -3.5980055, 0.3043766, 0
577, 1891799623, -0.45103833, 0.09269865, -0.18816252, -0.86754173, -0.22873692, -3.6411238, -3.7786622, 0
578, 1891816290, -0.4510362, 0.091609575, -0.18805894, -0.86768085, -0.032662418, 0.05035434, 3.824974, 0
579, 1891832957, -0.450139, 0.08745173, -0.18700549, -0.8688028, 0.40055606, -3.8240645, -1.4047318, 0
581, 1891866291, -0.44992083, 0.082207605, -0.18501689, -0.869853, -1.1784098, -1.2446026, 6.8420887, 0
582, 1891882958, -0.4502799, 0.079189345, -0.18644154, -0.869643, 0.91883034, 0.46528915, 1.487504, 0
583, 1891899625, -0.4498186, 0.07621014, -0.18924354, -0.8695427, -1.5014673, 2.2385108, -2.7262073, 0
585, 1891932959, -0.4469563, 0.06999439, -0.1908586, -0.8711865, 0.7906586, 3.6316879, -0.74207306, 0
586, 1891949626, -0.4450585, 0.065767914, -0.19027853, -0.8726134, 1.9808847, 2.8826394, 3.6589184, 0
587, 1891966293, -0.4431262, 0.06344122, -0.19286111, -0.8732017, -0.13480218, 6.1362896, 3.7297935, 0
589, 1891999627, -0.43942463, 0.060494967, -0.19932635, -0.8738293, -0.64787513, 6.1842403, -1.0631342, 0
590, 1892016294, -0.43792066, 0.05959233, -0.20100404, -0.87426186, 2.7691772, 3.345171, -0.5886917, 0
591, 1892032961, -0.43670234, 0.059381053, -0.2018885, -0.8746819, 1.9955784, 4.2947197, 2.3801422, 0
593, 1892066295, -0.43695414, 0.059398524, -0.19896008, -0.87522584, -2.6458476, 6.0671687, 2.5487041, 0
594, 1892082962, -0.43952227, 0.05955387, -0.19571811, -0.87466, -4.121713, 3.5059733, 0.28838825, 0
595, 1892099629, -0.4436535, 0.0585425, -0.19436528, -0.8729427, -2.897031, 2.6621122, -0.74714184, 0
598, 1892149630, -0.46783087, 0.052799843, -0.19196053, -0.8611387, -1.2591834, 4.34834, 0.3622446, 0
599, 1892166297, -0.48105496, 0.052310795, -0.18734297, -0.8548771, 3.7192447, 3.7334626, 0.56113434, 0
601, 1892199631, -0.4926011, 0.058966763, -0.1788447, -0.8496728, 6.0358686, -4.4459386, -4.15928, 0
602, 1892216298, -0.4930253, 0.06479469, -0.17586577, -0.84962416, -1.1884, 2.3517852, 3.5668736, 0
604, 1892249632, -0.49523842, 0.06879819, -0.1717042, -0.8488732, -2.352136, -0.14920083, -0.5948982, 0
605, 1892266299, -0.49569893, 0.06910825, -0.1726983, -0.84837747, -0.56811565, -0.05486215, 0.6360731, 0
606, 1892282966, -0.49551165, 0.06928363, -0.17627265, -0.8477372, 0.9147136, -0.62178093, -0.049733162, 0
608, 1892316300, -0.49467254, 0.0777911, -0.19453709, -0.84348416, 1.4923508, -6.164921, -2.7905898, 0
609, 1892332967, -0.49327636, 0.0866705, -0.20548101, -0.84083676, 0.8449044, -4.0435033, -1.3493538, 0
610, 1892349634, -0.48882377, 0.0943031, -0.21550266, -0.84010667, 1.463339, -3.4110308, 2.0754662, 0
613, 1892399635, -0.4635344, 0.118641056, -0.25730962, -0.83959174, -3.4556, -5.897219, 4.969988, 0
614, 1892416302, -0.44927734, 0.13139017, -0.27519354, -0.8397723, -2.6455376, -7.0065413, 3.043478, 0
616, 1892449636, -0.40092692, 0.16279697, -0.3231029, -0.8416778, -3.664268, -3.0680685, 6.6074314, 0
617, 1892466303, -0.36534005, 0.17906475, -0.34015128, -0.8478337, -2.303118, -4.7493286, 2.1817904, 0
618, 1892482970, -0.32741016, 0.2059191, -0.33649197, -0.8586241, -3.4741075, -5.9250565, -0.90085125, 0
620, 1892516304, -0.28644383, 0.24796301, -0.31146175, -0.87150335, -43.31796, -2.2733836, 5.7960863, 0
621, 1892532971, -0.3332582, 0.23556432, -0.28797424, -0.8663611, -28.140839, -2.1961122, 13.225992, 0
622, 1892549638, -0.40331036, 0.2158106, -0.24896589, -0.8537241, -8.237813, 4.7895637, 1.8760786, 0
624, 1892582972, -0.5209135, 0.18547145, -0.1855806, -0.8123248, 24.493626, -5.5952773, -18.632278, 0
625, 1892599639, -0.5386248, 0.1787719, -0.17423074, -0.80475456, 31.64523, -11.451483, -13.103262, 0
628, 1892649640, -0.5029881, 0.16406438, -0.18726738, -0.827695, -7.6784253, -0.04227144, 7.7807674, 0
629, 1892666307, -0.5022717, 0.14563367, -0.18408523, -0.8322793, -3.7267578, 0.42201683, 11.78829, 0
630, 1892682974, -0.50692976, 0.12559968, -0.17256509, -0.8351829, 0.8784762, 1.5984502, 9.259165, 0
632, 1892716308, -0.5137173, 0.0810897, -0.15147454, -0.8406168, 9.949351, 4.5066204, 5.430623, 0
633, 1892732975, -0.5103952, 0.061281845, -0.14662741, -0.84516495, 8.540766, 6.125568, 0.29428196, 0
635, 1892766309, -0.4937836, 0.033413775, -0.15439731, -0.85515213, 0.22207285, 9.025651, -0.9510031, 0
636, 1892782976, -0.4831233, 0.022109397, -0.16448036, -0.859716, -1.9415869, 10.066838, -1.794488, 0
637, 1892799643, -0.47103214, 0.014907248, -0.17637633, -0.8642107, -1.2083509, 11.866955, -2.8131843, 0
639, 1892832977, -0.4461047, 0.013802111, -0.18736164, -0.87507606, -3.7234695, 15.7857685, -6.9539404, 0
640, 1892849644, -0.4384603, 0.019461792, -0.1940533, -0.8773707, -4.0533624, 16.670515, -8.017506, 0
643, 1892899645, -0.44421804, 0.044500895, -0.22394851, -0.8663714, -2.0992184, 24.107515, -13.033033, 0
644, 1892916312, -0.46119067, 0.066072315, -0.23535077, -0.85300064, 0.5264339, 27.819399, -4.2669096, 0
645, 1892932979, -0.48465943, 0.09329398, -0.24669498, -0.83402956, 2.3171346, 28.454332, -4.987057, 0
647, 1892966313, -0.5321066, 0.17768198, -0.27758944, -0.77993476, 6.5346074, 18.683329, -17.209719, 0
648, 1892982980, -0.54009557, 0.23068547, -0.29315323, -0.7544564, -2.6058326, 17.136759, 44.076283, 0
649, 1892999647, -0.5459528, 0.23638228, -0.2710714, -0.7567309, -8.082642, 11.088987, 7.9347878, 0
651, 1893032981, -0.5449537, 0.24739325, -0.27195507, -0.753608, -1.2477897, -7.338653, 1.9929457, 0
652, 1893049648, -0.541024, 0.27576798, -0.2852525, -0.74157846, -2.8489032, -6.287492, 2.5667658, 0
653, 1893066315, -0.5328613, 0.32318306, -0.30405235, -0.7205734, -3.326823, -9.968389, 4.2506466, 0
655, 1893099649, -0.49513918, 0.474688, -0.34542143, -0.6405113, -3.3339005, -16.892416, 20.00546, 0
656, 1893116316, -0.47717607, 0.5409497, -0.37350017, -0.5832976, 1.0155088, -31.255516, 20.436308, 0
658, 1893149650, -0.44809213, 0.6392764, -0.43717763, -0.44662878, 36.54289, -61.058117, 26.509163, 0
659, 1893166317, -0.4037224, 0.65350103, -0.43982285, -0.46536288, 19.45603, -42.20509, 4.9549856, 0
660, 1893182984, -0.38270453, 0.6573263, -0.45673507, -0.46142685, -8.929065, 6.8147945, -2.5476747, 0
662, 1893216318, -0.40313286, 0.6507302, -0.5140421, -0.387114, -7.2396383, -27.564526, -2.0762663, 0
663, 1893232985, -0.40927264, 0.6500946, -0.5250609, -0.36639625, -7.7276225, -23.940159, -7.564953, 0
664, 1893249652, -0.41405013, 0.6539196, -0.52551496, -0.35333872, -9.912506, -16.71568, -10.220555, 0
666, 1893282986, -0.44572216, 0.65444016, -0.51444846, -0.3293097, -10.147016, -12.433411, -11.631532, 0
667, 1893299653, -0.46933588, 0.6510922, -0.50189024, -0.32244584, -5.97264, -12.223711, -12.983035, 0
671, 1893366321, -0.5154092, 0.6562722, -0.40905318, -0.369321, -0.018394893, -6.7231793, -14.975563, 0
672, 1893382988, -0.5153009, 0.6571764, -0.38609707, -0.39188707, -0.36998928, -7.8822417, -13.639457, 0
674, 1893416322, -0.5178312, 0.6370484, -0.34858274, -0.4522966, -0.8502482, -9.676568, -11.013591, 0
675, 1893432989, -0.5218715, 0.6155305, -0.33416665, -0.48699838, -1.8088526, -8.90459, -8.307686, 0
676, 1893449656, -0.5304771, 0.58521605, -0.3220244, -0.5219952, -2.5789433, -7.307309, -5.7200418, 0
678, 1893482990, -0.5563642, 0.51483965, -0.3004884, -0.5789368, -0.5006127, -4.9644356, -2.0559864, 0
679, 1893499657, -0.5677148, 0.47987902, -0.28777167, -0.6038757, 1.6022155, -8.502971, 1.086874, 0
680, 1893516324, -0.57661384, 0.4431133, -0.27582705, -0.6286088, 1.688177, -7.888106, 4.8859005, 0
682, 1893549658, -0.5937237, 0.35578448, -0.25621834, -0.67477703, 5.4136453, -2.2325761, 10.227552, 0
683, 1893566325, -0.5971446, 0.3103274, -0.24675602, -0.6973442, 5.847233, -0.3391094, 8.300892, 0
686, 1893616326, -0.5750437, 0.18031187, -0.24093336, -0.76080596, 0.62113756, 5.105153, 10.332882, 0
687, 1893632993, -0.55839396, 0.14349058, -0.23812984, -0.7816412, -1.1520928, 7.236595, 9.763117, 0
689, 1893666327, -0.5221573, 0.07665766, -0.22589804, -0.8188453, -3.6063132, 11.341157, 9.985693, 0
690, 1893682994, -0.5080837, 0.04823515, -0.21464796, -0.83277416, -2.2310796, 12.413405, 7.2597046, 0
691, 1893699661, -0.4976088, 0.023809131, -0.20358334, -0.842873, -1.761699, 13.219758, 4.1044083, 0
693, 1893732995, -0.48260698, -0.012812674, -0.18397881, -0.8562362, 1.9770906, 15.027498, 4.3955135, 0
694, 1893749662, -0.47451454, -0.028118588, -0.17523867, -0.86220586, 1.9844815, 15.095191, -0.63345623, 0
695, 1893766329, -0.4653476, -0.039294213, -0.17152782, -0.86749536, 1.5938054, 14.565604, -5.5732975, 0
697, 1893799663, -0.4443189, -0.048251413, -0.18002959, -0.8763014, 1.5355833, 15.9888315, -8.011096, 0
698, 1893816330, -0.43409914, -0.04474545, -0.18848945, -0.87982374, 0.99450773, 16.274359, -8.392846, 0
701, 1893866331, -0.41259196, -0.023994416, -0.20850478, -0.8864425, -0.83365166, 16.172407, -7.8219433, 0
702, 1893882998, -0.41055053, -0.010589443, -0.21240905, -0.8867248, -2.4986389, 16.801228, -8.692965, 0
703, 1893899665, -0.4116672, 0.0032958537, -0.21920484, -0.8846077, -1.7248768, 20.892399, -2.8567796, 0
705, 1893932999, -0.42392236, 0.028030958, -0.2216497, -0.8777458, 0.6992489, 23.096508, -2.844345, 0
706, 1893949666, -0.43761817, 0.04694358, -0.21842717, -0.87099844, 1.2633681, 23.34049, -6.65388, 0
707, 1893966333, -0.45625436, 0.07341589, -0.22007118, -0.8591118, 1.6022279, 23.691011, -10.668754, 0
709, 1893999667, -0.48779446, 0.14139876, -0.2460573, -0.8255793, -0.22254838, 24.877588, -9.205993, 0
710, 1894016334, -0.49591652, 0.18452837, -0.26216537, -0.8070611, -6.654477, 22.453375, -18.074768, 0
711, 1894033001, -0.49757454, 0.18708491, -0.249722, -0.80939484, 8.518478, 38.61332, 39.158356, 0
713, 1894066335, -0.49569312, 0.18974972, -0.2594064, -0.8068793, -0.09071234, -2.2733092, 7.118849, 0
716, 1894116336, -0.48877692, 0.30561864, -0.3136212, -0.7545849, -2.4433444, -5.294773, 2.756382, 0
717, 1894133003, -0.47667903, 0.37158522, -0.33103758, -0.7246917, -0.6790831, -9.43398, 5.0384293, 0
718, 1894149670, -0.46071994, 0.4485623, -0.34487084, -0.6838534, -3.1465938, -11.075162, 13.58736, 0
720, 1894183004, -0.42717898, 0.5860943, -0.40119728, -0.55956626, 3.2460358, -23.555769, 18.99223, 0
721, 1894199671, -0.41708967, 0.6372634, -0.43043944, -0.48447466, 16.963081, -31.045982, 30.826008, 0
722, 1894216338, -0.39277107, 0.6664065, -0.44195634, -0.45427972, 17.299751, -74.84896, 34.916477, 0
724, 1894249672, -0.3733514, 0.67678154, -0.4364887, -0.46056, -5.5302167, 13.511753, -0.9664879, 0
725, 1894266339, -0.39146757, 0.6848538, -0.4500375, -0.4186372, 5.886168, -15.798733, 2.0313807, 0
726, 1894283006, -0.39814878, 0.6962802, -0.45628175, -0.38540983, 5.3113813, -27.648575, -3.3080788, 0
728, 1894316340, -0.4028638, 0.7152465, -0.46763927, -0.3278707, -5.9090457, -18.562252, -11.914704, 0
729, 1894333007, -0.41470277, 0.71794075, -0.47417983, -0.29630804, -6.286564, -16.988604, -15.4219, 0
730, 1894349674, -0.42916316, 0.7189442, -0.4770822, -0.26719505, -6.2128654, -16.821438, -18.862259, 0
732, 1894383008, -0.4622852, 0.7148746, -0.46539283, -0.24231872, -7.2792044, -14.361158, -19.559032, 0
733, 1894399675, -0.48018086, 0.7098743, -0.45257688, -0.24645747, -5.613912, -11.298497, -18.405464, 0
734, 1894416342, -0.4976188, 0.7028161, -0.43665844, -0.2604168, -4.6142282, -12.087373, -17.110672, 0
736, 1894449676, -0.523855, 0.68468785, -0.397911, -0.313859, -2.1917636, -5.3775225, -15.03303, 0
737, 1894466343, -0.5354036, 0.67234623, -0.37758756, -0.34464976, -3.7221844, -6.2037416, -12.422991, 0
738, 1894483010, -0.5512443, 0.6515341, -0.35899064, -0.37791654, -4.253257, -5.1389766, -10.686567, 0
740, 1894516344, -0.58673304, 0.5960119, -0.32848626, -0.43894553, -2.3904479, -4.0410814, -6.9085855, 0
743, 1894566345, -0.62070835, 0.50482196, -0.29576755, -0.5219768, -1.5451775, -8.845332, 4.93025, 0
744, 1894583012, -0.62828606, 0.4721269, -0.2821638, -0.5502712, 2.5871608, -6.7674685, 6.554991, 0
745, 1894599679, -0.631373, 0.43951428, -0.26922774, -0.5794599, 5.2571626, -5.2965674, 4.466981, 0
747, 1894633013, -0.61842465, 0.3794945, -0.26245654, -0.63617104, 6.1154532, -4.107313, 7.625271, 0
748, 1894649680, -0.6044756, 0.3509481, -0.26291192, -0.6651198, 2.8918004, -1.4757782, 9.853247, 0
749, 1894666347, -0.58962524, 0.3205124, -0.26223165, -0.6934772, 2.0079017, -1.1131171, 12.0475025, 0
751, 1894699681, -0.55812943, 0.26178852, -0.24808581, -0.74731135, 1.4844832, 0.8534261, 6.3074055, 0
752, 1894716348, -0.54275405, 0.2319774, -0.24119303, -0.77038485, 0.48775423, 0.31660163, 6.495165, 0
753, 1894733015, -0.5281439, 0.20105405, -0.23475288, -0.79094553, 0.34476918, 0.3320609, 7.522379, 0
755, 1894766349, -0.5029638, 0.14220007, -0.2170038, -0.8244866, -1.1229656, 2.731167, 5.2652254, 0
757, 1894799683, -0.48782676, 0.08900477, -0.20342238, -0.8442658, -3.379943, 4.3195987, 8.529848, 0
759, 1894833017, -0.48375547, 0.034059692, -0.19076242, -0.8535178, -2.650598, 7.3627305, 7.669489, 0
760, 1894849684, -0.48476374, 0.008462213, -0.18388802, -0.8550906, -3.1956472, 7.8646965, 5.4402466, 0
761, 1894866351, -0.48625398, -0.015803143, -0.17704827, -0.8555838, -2.3272657, 9.233954, 6.323164, 0
763, 1894899685, -0.48579648, -0.056619972, -0.15943635, -0.8575769, 0.16189748, 12.405289, 2.3477612, 0
764, 1894916352, -0.48183882, -0.073685765, -0.15285814, -0.8597083, 0.507686, 12.325647, -3.1631203, 0
766, 1894949686, -0.46670324, -0.09186007, -0.14759886, -0.8671947, 2.4449623, 15.092974, -6.5849047, 0
767, 1894966353, -0.45631546, -0.093723886, -0.14590237, -0.8727925, 1.4225413, 15.635841, -8.791459, 0
768, 1894983020, -0.44616938, -0.09075548, -0.14628962, -0.8782698, 0.32936877, 16.252012, -11.433403, 0
770, 1895016354, -0.4323369, -0.07329023, -0.1586851, -0.88464373, 0.42110357, 20.23832, -10.702862, 0
772, 1895049688, -0.42835483, -0.057219945, -0.18650013, -0.88233685, -1.3458674, 22.233347, -13.887463, 0
774, 1895083022, -0.4386941, -0.03792213, -0.23367055, -0.8669312, 4.8935666, 28.801645, -7.8673124, 0
775, 1895099689, -0.4486407, -0.02116274, -0.25021982, -0.8577447, 6.972029, 29.673103, -8.355379, 0
776, 1895116356, -0.4599856, 0.0043427125, -0.26606876, -0.8471505, 7.757349, 31.287466, -6.668177, 0
778, 1895149690, -0.4782148, 0.07275704, -0.30176476, -0.82159436, 3.3001494, 29.587822, -4.324146, 0
779, 1895166357, -0.48865175, 0.11658241, -0.3260458, -0.8008646, -1.1992955, 29.57341, -1.0570192, 0
780, 1895183024, -0.49669737, 0.1787423, -0.29294038, -0.79723966, 5.1429696, 18.214092, 61.59802, 0
782, 1895216358, -0.52731645, 0.18490274, -0.26853096, -0.7846666, -6.9257708, 1.8887835, 5.3798532, 0
783, 1895233025, -0.53496677, 0.21385533, -0.26809654, -0.7721807, -6.9312687, -5.8194547, 1.759759, 0
784, 1895249692, -0.5354925, 0.25749442, -0.2790722, -0.754404, -4.0945535, -4.50349, 1.3563089, 0
787, 1895299693, -0.51063544, 0.4534018, -0.3313695, -0.65110266, -4.282005, -10.4853735, 10.800531, 0
788, 1895316360, -0.49459186, 0.51845133, -0.3592043, -0.5980147, -4.900399, -16.181112, 14.207891, 0
790, 1895349694, -0.45912927, 0.6322711, -0.42452267, -0.45746747, 2.0036578, -43.685013, 25.634216, 0
791, 1895366361, -0.42084852, 0.6858212, -0.43368408, -0.40560597, 38.801815, -68.78039, 21.07767, 0
793, 1895399695, -0.31246623, 0.71438366, -0.43913552, -0.44636637, -6.0546546, -2.537911, 2.3167458, 0
794, 1895416362, -0.31140652, 0.7101791, -0.47272232, -0.4186496, -10.226359, -11.281534, -1.5224457, 0
795, 1895433029, -0.3247276, 0.705853, -0.50060123, -0.38181674, -11.126615, -29.352798, -3.7622623, 0
797, 1895466363, -0.3688429, 0.6864172, -0.52072513, -0.34884644, -11.60451, -29.133236, -11.382889, 0
798, 1895483030, -0.3912868, 0.6747149, -0.516068, -0.35410535, -9.775018, -21.495422, -12.74952, 0
799, 1895499697, -0.412052, 0.6654235, -0.5031105, -0.3665606, -8.859329, -13.998791, -12.721576, 0
801, 1895533031, -0.44940737, 0.65493596, -0.45436013, -0.40337452, -2.3029802, -12.832032, -11.869019, 0
802, 1895549698, -0.45908037, 0.65185964, -0.42168143, -0.431939, 1.4551387, -14.515598, -11.438014, 0
803, 1895566365, -0.46015763, 0.64722514, -0.38592142, -0.4695546, 2.6869316, -13.776722, -10.309485, 0
805, 1895599699, -0.4561727, 0.6197084, -0.330366, -0.5466155, 1.5725212, -5.787547, -9.342625, 0
806, 1895616366, -0.45624202, 0.5938294, -0.31659597, -0.5822708, 2.397185, -6.7766285, -6.287101, 0
807, 1895633033, -0.4555781, 0.56295073, -0.30785054, -0.6171105, 2.7451491, -4.9093547, -4.1960917, 0
809, 1895666367, -0.4506049, 0.49830544, -0.28593704, -0.68333685, 3.393729, -4.244494, 1.9705296, 0
810, 1895683034, -0.44772777, 0.4643227, -0.2703815, -0.7147729, 5.015974, 0.29027003, 2.6640387, 0
811, 1895699701, -0.44417435, 0.42856953, -0.25634256, -0.74390054, 7.4585586, 4.2586923, 6.037031, 0
814, 1895749702, -0.39382058, 0.33669353, -0.23071745, -0.82363486, 12.897458, 14.426443, 2.9854946, 0
815, 1895766369, -0.36029553, 0.3155545, -0.23098607, -0.8469476, 6.59706, 14.769818, -0.75631523, 0
817, 1895799703, -0.30319026, 0.27847937, -0.25066593, -0.8762156, -2.1539068, 11.704812, 2.854662, 0
818, 1895816370, -0.2882299, 0.2605136, -0.25174308, -0.8864219, -3.218414, 9.546889, 3.7056684, 0
819, 1895833037, -0.27972737, 0.24109903, -0.2510422, -0.89479834, -0.19963552, 8.727469, -0.37177372, 0
821, 1895866371, -0.2593661, 0.21372662, -0.25274423, -0.9073219, 4.5149007, 9.567345, -4.9964314, 0
822, 1895883038, -0.23982123, 0.2132273, -0.25557595, -0.91201043, 2.6145284, 9.940197, -7.028419, 0
824, 1895916372, -0.2118156, 0.23894462, -0.22287458, -0.92110187, -27.585306, 22.185974, 24.93209, 0
825, 1895933039, -0.2181254, 0.23930058, -0.21029127, -0.9224946, -18.7497, 23.785408, -2.2543569, 0
826, 1895949706, -0.22779176, 0.23759745, -0.2049871, -0.92179227, 0.7565463, 6.7178383, 5.326498, 0
829, 1895999707, -0.25689214, 0.24389318, -0.2056138, -0.912309, -2.2854526, -1.3932463, -1.6360207, 0
830, 1896016374, -0.26478514, 0.24861123, -0.20800194, -0.9082284, -3.710747, 2.8329759, 0.92202187, 0
832, 1896049708, -0.27190796, 0.25476646, -0.2129207, -0.90326476, -0.67073613, 2.8596864, 0.68665886, 0
833, 1896066375, -0.2719225, 0.2552231, -0.21832596, -0.90184003, -2.6849427, -0.39317662, 0.5579157, 0
834, 1896083042, -0.27005008, 0.25430027, -0.22440903, -0.9011698, -0.9605087, -1.4233891, -1.0802917, 0
836, 1896116376, -0.26955056, 0.25018364, -0.2320841, -0.9005276, 4.9133153, -2.1752458, 1.6368942, 0
837, 1896133043, -0.27274475, 0.24816415, -0.2323962, -0.90004396, 3.0503721, -3.1811051, 0.087919235, 0
838, 1896149710, -0.2802232, 0.25033924, -0.22906247, -0.89799654, -1.5076383, -3.5727866, -1.0141058, 0
840, 1896183044, -0.2959184, 0.25011358, -0.22160967, -0.89488924, -1.1086512, -3.8416173, 0.59115887, 0
841, 1896199711, -0.3020625, 0.24752963, -0.21834303, -0.8943578, -0.69759923, -1.3067657, 2.9586678, 0
844, 1896249712, -0.3454901, 0.2333436, -0.2140848, -0.88341224, 0.6685327, -0.55916315, 0.7753258, 0
845, 1896266379, -0.37353227, 0.22332132, -0.21670899, -0.8738996, 1.1051806, -0.63074505, 1.3045769, 0
846, 1896283046, -0.40592724, 0.21385956, -0.21977352, -0.8609582, 3.1941466, -4.1924534, -5.123886, 0
848, 1896316380, -0.4640711, 0.19334905, -0.22595324, -0.83442295, -0.5816527, -5.3528814, -1.1380396, 0
849, 1896333047, -0.48441815, 0.18171102, -0.2262369, -0.82534814, -4.782158, -0.91408074, 1.2652798, 0
851, 1896366381, -0.49630165, 0.15354446, -0.21911278, -0.8259301, -5.627308, -1.2346985, 1.54671, 0
852, 1896383048, -0.4908257, 0.13629402, -0.2160615, -0.8330029, -2.1663473, -1.9287924, -1.6952057, 0
853, 1896399715, -0.48437434, 0.1191696, -0.21314237, -0.8401265, 0.96172035, -5.6513433, -0.75716877, 0
855, 1896433049, -0.47858533, 0.09865125, -0.20595036, -0.8478624, 2.056023, -2.0920982, 3.4224863, 0
856, 1896449716, -0.47860038, 0.09028976, -0.20098484, -0.8499745, 0.10705328, -2.952594, 2.9590883, 0
859, 1896499717, -0.48121214, 0.0879269, -0.19822316, -0.849396, -0.97061014, 0.6241405, -1.9116611, 0
860, 1896516384, -0.48182058, 0.08450462, -0.19740592, -0.84958893, -1.2108426, -0.5773837, 3.1025553, 0
861, 1896533051, -0.4820704, 0.07921702, -0.19832654, -0.8497422, -0.7139422, -3.154745, 3.6968794, 0
863, 1896566385, -0.48253995, 0.06905578, -0.20562069, -0.84862757, -2.6640065, 5.253352, -8.749872, 0
864, 1896583052, -0.48299515, 0.0660435, -0.20737436, -0.84818166, -4.838781, 10.426568, -3.4528174, 0
865, 1896599719, -0.48378038, 0.061567135, -0.20358256, -0.84898907, 2.8533757, 2.7882967, 6.3244934, 0
867, 1896633053, -0.48317552, 0.062158212, -0.20712958, -0.8484324, -2.7188733, 7.465089, -2.9707003, 0
868, 1896649720, -0.483904, 0.062340006, -0.20867872, -0.8476238, -3.3581161, 8.256516, -2.8871183, 0
869, 1896666387, -0.4854095, 0.061296936, -0.20717952, -0.8472067, -0.18923636, 4.8965178, 6.81089, 0
871, 1896699721, -0.48600957, 0.061485626, -0.20699665, -0.84689367, 0.009624133, 6.992736, 2.5074615, 0
872, 1896716388, -0.48744634, 0.061677232, -0.20382006, -0.8468244, -0.04882373, 3.34983, -1.8302112, 0
874, 1896749722, -0.49088013, 0.06322028, -0.1943052, -0.84696376, 0.932423, 5.6831446, 6.0398636, 0
875, 1896766389, -0.49192977, 0.06413356, -0.19074856, -0.8470946, -1.6589937, 3.2202623, 5.382716, 0
876, 1896783056, -0.49378118, 0.06565997, -0.18754849, -0.84661496, -1.754905, 1.7364683, -2.8879952, 0
878, 1896816390, -0.49631453, 0.0660139, -0.18109053, -0.84651196, 2.4566686, -0.049224593, -1.6789961, 0
879, 1896833057, -0.49655116, 0.06542659, -0.17779207, -0.8471177, 0.0039036956, 0.52478653, 5.267308, 0
880, 1896849724, -0.49695367, 0.066693254, -0.17640887, -0.84707206, 0.550467, 3.988216, 3.6466837, 0
882, 1896883058, -0.49690408, 0.068019904, -0.17365904, -0.84756386, 2.0691442, -1.6812378, -2.2656102, 0
883, 1896899725, -0.49568576, 0.06731774, -0.17186822, -0.84869754, 1.8491017, -1.9442568, -0.98128796, 0
886, 1896949726, -0.48980254, 0.06729292, -0.1689385, -0.8526939, 1.7734991, -0.39380938, 0.19911289, 0
887, 1896966393, -0.48760238, 0.06762129, -0.16772778, -0.85416687, 2.0202765, -0.9324989, 0.19284916, 0
888, 1896983060, -0.48540312, 0.0679439, -0.16794384, -0.8553505, 1.0539316, 0.15224664, 0.54806995, 0
890, 1897016394, -0.48139554, 0.067834966, -0.16752374, -0.85770315, 0.44766003, -0.74631405, 1.1239462, 0
891, 1897033061, -0.4793375, 0.06800418, -0.1675744, -0.85883176, 2.1359885, -0.84806234, 2.12504, 0
892, 1897049728, -0.4769352, 0.06838544, -0.16871504, -0.85991496, 1.5735607, -2.0863407, -2.6844897, 0
894, 1897083062, -0.47282398, 0.06895088, -0.16892922, -0.8620953, 1.1631227, -0.99106896, 1.9063854, 0
895, 1897099729, -0.47103226, 0.06997136, -0.16980329, -0.8628219, 1.6984234, -1.1619427, -1.1479616, 0
896, 1897116396, -0.46920085, 0.070079766, -0.1699396, -0.8637835, -0.03139684, 1.4787478, 2.7628489, 0
898, 1897149730, -0.46629405, 0.068503134, -0.1690666, -0.8656534, -0.5425329, -2.1412554, -0.0934124, 0
901, 1897199731, -0.46384835, 0.069374904, -0.16973756, -0.866766, 0.49056518, 0.13650718, 1.1251202, 0
902, 1897216398, -0.4635427, 0.068931095, -0.16880475, -0.86714697, 0.13317174, -1.7670296, 1.4418592, 0
903, 1897233065, -0.4632792, 0.06889087, -0.1688143, -0.86728907, -0.3484743, -2.6262598, -0.32467937, 0
905, 1897266399, -0.4630218, 0.069052026, -0.170992, -0.8669869, -0.92089075, -1.9725045, 0.051413536, 0
906, 1897283066, -0.4628678, 0.06920024, -0.17210558, -0.866837, 0.12681305, -0.72163093, 1.1869354, 0
907, 1897299733, -0.4625933, 0.06906132, -0.17393094, -0.86663055, 1.1303877, -0.61035943, 1.4117393, 0
909, 1897333067, -0.46216425, 0.06927626, -0.17761889, -0.8660939, -0.29397956, -1.3134902, -0.40982342, 0
910, 1897349734, -0.46237588, 0.06911384, -0.17888182, -0.865734, 0.48985764, -2.0136285, 0.42124176, 0
911, 1897366401, -0.46232837, 0.06915238, -0.1800217, -0.86552, 0.64694214, -1.5583373, 0.9715414, 0
913, 1897399735, -0.46329647, 0.070772514, -0.18392862, -0.86404884, -1.2182097, -1.425976, 0.9821968, 0
915, 1897433069, -0.46400434, 0.07289651, -0.19114001, -0.8619244, -0.48577377, -4.4964204, -1.7603054, 0
917, 1897466403, -0.4640187, 0.072991416, -0.19369186, -0.86133873, 0.7247304, -1.2034303, 2.2023554, 0
918, 1897483070, -0.4646142, 0.07337662, -0.19392885, -0.8609315, 0.59019625, -0.4793708, 3.851717, 0
919, 1897499737, -0.46592662, 0.07662648, -0.19629683, -0.8594011, -0.43690228, -2.8509295, 2.1581821, 0
921, 1897533071, -0.47010767, 0.085566446, -0.20173404, -0.85501057, -1.3221936, -5.8433566, -5.9681206, 0
922, 1897549738, -0.47222292, 0.08930367, -0.20340657, -0.8530642, -1.4843293, -2.148733, -0.93496704, 0
923, 1897566405, -0.4723425, 0.08668577, -0.20330325, -0.8532925, -1.369983, -1.6291785, 6.7033653, 0
925, 1897599739, -0.47565603, 0.0882359, -0.20309432, -0.8513406, -2.0577571, -4.8348866, 0.7244873, 0
926, 1897616406, -0.47879618, 0.09245946, -0.20312296, -0.8491223, -2.9066172, -3.3974206, 1.3553314, 0
927, 1897633073, -0.48335958, 0.09591747, -0.20299052, -0.8461799, -3.679419, -4.473375, -2.2561378, 0
930, 1897683074, -0.49230003, 0.084619306, -0.20173737, -0.84252274, -5.0795703, 1.6484137, -1.6689014, 0
932, 1897716408, -0.4946812, 0.07336041, -0.19605097, -0.84352535, -0.21282978, 2.5107546, 2.6538944, 0
933, 1897733075, -0.49587741, 0.06941445, -0.19381154, -0.8436744, -0.030807925, 3.6143758, 0.1004343, 0
934, 1897749742, -0.49753106, 0.06760214, -0.19232512, -0.84318805, 0.98270243, 7.9529815, 0.039453506, 0
936, 1897783076, -0.5004045, 0.06424009, -0.18823458, -0.8426734, 0.9214927, 5.2934465, 2.7400541, 0
937, 1897799743, -0.5013584, 0.06426234, -0.187126, -0.8423517, 2.7007375, 8.10524, 0.10164642, 0
938, 1897816410, -0.5018973, 0.064206466, -0.1851365, -0.8424746, 4.057991, 9.086312, 1.5554714, 0
940, 1897849744, -0.5020824, 0.064970575, -0.17922641, -0.8435829, 2.4222612, 6.5353436, 2.649928, 0
941, 1897866411, -0.5010836, 0.06545122, -0.17706686, -0.8445951, 1.5325739, 3.0619924, -0.92142487, 0
942, 1897883078, -0.4995708, 0.066752635, -0.17653546, -0.84550023, 1.132687, 5.8525553, -2.489265, 0
944, 1897916412, -0.49436158, 0.06794689, -0.17633931, -0.84850246, 3.4173713, 1.7235799, 2.7492418, 0
945, 1897933079, -0.49160546, 0.06893527, -0.17711368, -0.8498617, 2.9428935, 0.87753, 1.7244673, 0
946, 1897949746, -0.48872852, 0.07032622, -0.17828138, -0.85116196, 2.5126352, 0.97745353, -1.1482973, 0
948, 1897983080, -0.4830261, 0.07129091, -0.17740063, -0.8545142, 1.4817239, -2.7459943, 0.4294672, 0
949, 1897999747, -0.48069257, 0.07175678, -0.17637508, -0.8560021, 2.0776968, -1.4564043, -0.29638672, 0
950, 1898016414, -0.47866812, 0.072783545, -0.17596468, -0.8571336, 0.72725236, 1.3008269, -0.8366127, 0
952, 1898049748, -0.47594288, 0.07338543, -0.17282192, -0.85923684, -0.23004012, -1.85315, 2.2555876, 0
953, 1898066415, -0.47490782, 0.07454756, -0.17246494, -0.859781, -0.6028589, -1.8663893, -1.4593534, 0
954, 1898083082, -0.4737177, 0.07523606, -0.17213254, -0.86044395, -0.5766851, 0.87568724, -0.20739079, 0
957, 1898133083, -0.46904245, 0.07545124, -0.17377162, -0.862654, 1.675811, 0.3693537, 0.5823736, 0
959, 1898166417, -0.46438146, 0.07417638, -0.17784639, -0.864454, 1.5176156, -1.1217188, 0.005379677, 0
960, 1898183084, -0.46197182, 0.07366709, -0.18029608, -0.8652808, 1.1375957, -1.3691133, 0.5540123, 0
961, 1898199751, -0.4595893, 0.07350036, -0.18274686, -0.86604923, 1.2795254, 0.47955576, -0.6746092, 0
963, 1898233085, -0.45576072, 0.07237283, -0.18512309, -0.8676611, 0.111215144, -3.2288444, -1.2822752, 0
964, 1898249752, -0.45480245, 0.07272635, -0.1866785, -0.8678012, -0.8449247, 1.1958927, 0.41242504, 0
965, 1898266419, -0.45389268, 0.07196348, -0.18680975, -0.8683127, -0.63121337, -3.070003, -2.0497322, 0
967, 1898299753, -0.45340914, 0.07157224, -0.1889966, -0.8681246, -0.5590512, 1.2954453, 1.5272322, 0
968, 1898316420, -0.45357236, 0.06925449, -0.18897152, -0.8682327, -0.4372148, -2.0742102, 2.5462847, 0
969, 1898333087, -0.45414063, 0.067673534, -0.18980457, -0.8678783, -1.1833, -2.3421748, 0.6299238, 0
972, 1898383088, -0.45684007, 0.066319905, -0.19582786, -0.865224, -1.2801776, 3.4122632, 1.8072634, 0
973, 1898399755, -0.4577387, 0.065625966, -0.1967347, -0.864596, 0.54365003, -3.739684, 0.9061785, 0
975, 1898433089, -0.46089467, 0.064989336, -0.1991678, -0.8624077, -0.405232, -1.1533535, 0.93519783, 0
976, 1898449756, -0.4628012, 0.06426701, -0.19918762, -0.8614357, -1.7936049, -1.3164066, 0.91666985, 0
977, 1898466423, -0.4648655, 0.064575344, -0.19998102, -0.8601161, -1.423161, 1.0588398, 0.57889175, 0
979, 1898499757, -0.46857908, 0.0646356, -0.20077254, -0.85790944, -1.7626716, -3.8301144, -0.67353725, 0
980, 1898516424, -0.47028482, 0.06431219, -0.20115651, -0.8569099, -0.5167565, -2.7024791, -0.60710526, 0
982, 1898549758, -0.47363004, 0.06403001, -0.2023075, -0.8548149, -0.9243854, 0.23953168, 3.6340027, 0
983, 1898566425, -0.47505438, 0.06478609, -0.20409225, -0.85354245, -0.70941156, -1.3370113, 2.7203817, 0
984, 1898583092, -0.47675627, 0.06667034, -0.207223, -0.8516921, -1.0593883, -6.568452, -4.3948197, 0
987, 1898633093, -0.48154503, 0.06625316, -0.20716742, -0.8490399, 0.28939453, 1.3571262, 5.87271, 0
988, 1898649760, -0.48260087, 0.06547983, -0.20633803, -0.84870243, -2.0503998, -2.0698671, 4.8184156, 0
990, 1898683094, -0.4853394, 0.0711497, -0.21123725, -0.845473, -0.7869537, -5.11391, -3.1044865, 0
991, 1898699761, -0.48602232, 0.07132112, -0.211024, -0.84511936, 0.2516572, -5.794419, -2.7336526, 0
992, 1898716428, -0.48654145, 0.07071239, -0.21036123, -0.84503716, 0.42898214, -1.8295413, 2.4683847, 0
994, 1898749762, -0.48781392, 0.07282459, -0.21142256, -0.84385824, -2.1784837, -0.8089381, 2.3027563, 0
995, 1898766429, -0.48827308, 0.07482633, -0.21328509, -0.8429483, -1.0586189, -3.0721543, 0.53174114, 0
996, 1898783096, -0.4895894, 0.07653611, -0.21361345, -0.8419477, -0.3432203, -3.7442791, -0.12538815, 0
998, 1898816430, -0.4926293, 0.07434869, -0.21049824, -0.8411548, -2.0964608, -2.2145813, -4.4018626, 0
999, 1898833097, -0.49391127, 0.072402105, -0.20787776, -0.84122455, -1.4738563, 2.6550603, 0.4668398, 0
1002, 1898883098, -0.49583685, 0.06441855, -0.20002106, -0.8426445, 1.2276175, 8.828345, 1.9580774, 0
1003, 1898899765, -0.49569768, 0.061583214, -0.19944558, -0.84307474, 0.32048625, 6.2789392, -0.88088703, 0
1004, 1898916432, -0.4955848, 0.059591137, -0.1999176, -0.84317255, 0.8250159, 7.291246, -0.76821995, 0
1006, 1898949766, -0.49452275, 0.056581028, -0.20143272, -0.84364265, 4.126927, 6.4034963, 0.74402046, 0
1007, 1898966433, -0.49327427, 0.056668594, -0.20095597, -0.84448093, 3.5909247, 10.358909, 5.264118, 0
1009, 1898999767, -0.48993707, 0.058073387, -0.19855247, -0.84689337, 1.8513694, 7.135233, -1.4542875, 0
1010, 1899016434, -0.48755437, 0.059357643, -0.19827908, -0.84824234, 1.5262699, 4.2574015, -2.528667, 0
1011, 1899033101, -0.48546886, 0.059901424, -0.19757283, -0.849564, -0.6318842, 1.618668, 0.50376034, 0
1013, 1899066435, -0.48248556, 0.06305878, -0.19887748, -0.8507299, 1.3770536, 5.1256, 0.9680643, 0
1014, 1899083102, -0.4812917, 0.0645903, -0.19923206, -0.85120803, 0.5112887, 3.0661817, -0.21550941, 0
1015, 1899099769, -0.48041975, 0.066685274, -0.19957414, -0.8514589, 0.2896005, 0.6991756, -1.02635, 0
1017, 1899133103, -0.4779079, 0.0741951, -0.20673701, -0.8505417, -0.27638465, -0.8990367, -1.035387, 0
1018, 1899149770, -0.47547442, 0.079518005, -0.21210985, -0.85010153, -1.6682423, -0.114909016, 1.7292843, 0
1019, 1899166437, -0.47033864, 0.08588299, -0.21905981, -0.85057664, -0.7394013, -0.7277689, 3.6727295, 0
1021, 1899199771, -0.4517226, 0.109632194, -0.2357195, -0.85347867, -2.003092, -2.8350263, 1.2156372, 0
1022, 1899216438, -0.43886256, 0.12447521, -0.24328943, -0.85602456, -0.5019029, -2.5380273, 1.6756344, 0
1023, 1899233105, -0.4232462, 0.13975307, -0.2503651, -0.8594833, -0.72123903, -4.5068994, -1.6260796, 0
1025, 1899266439, -0.38801673, 0.16925173, -0.25399408, -0.8696815, 0.7003714, -2.2306254, 1.5105104, 0
1026, 1899283106, -0.37134033, 0.18068565, -0.2527175, -0.87501717, 1.0791947, -3.1585703, -1.2113867, 0
1029, 1899333107, -0.3348241, 0.20221019, -0.25135544, -0.88537383, -0.3192728, -1.7695962, 0.41780186, 0
1030, 1899349774, -0.326467, 0.20673892, -0.2542181, -0.88663054, -0.37944287, -2.2493744, -1.824317, 0
1031, 1899366441, -0.31822398, 0.21091318, -0.25866574, -0.8873575, -1.3617646, 0.6707456, 0.7037802, 0
1033, 1899399775, -0.30807373, 0.20987755, -0.2632798, -0.8898246, 2.9591548, -5.1378603, -1.8984008, 0
1034, 1899416442, -0.30123577, 0.20534179, -0.26422352, -0.89293885, 6.3548884, 0.04182017, 1.8622265, 0
1035, 1899433109, -0.29467717, 0.19573608, -0.2619536, -0.8979395, -1.6595323, -1.536557, 2.1985598, 0
1037, 1899466443, -0.30820727, 0.1749715, -0.25105134, -0.9007933, 2.565471, -6.277232, -0.3244419, 0
1038, 1899483110, -0.31768957, 0.16406386, -0.24358448, -0.90160143, 1.0381314, 1.2651459, 1.678977, 0
1040, 1899516444, -0.3339025, 0.15060443, -0.23124486, -0.901341, -7.010324, 5.0396957, 4.876436, 0
1041, 1899533111, -0.33820876, 0.14002915, -0.22621804, -0.90271497, 1.8604072, 0.6164655, 4.735572, 0
1044, 1899583112, -0.3426098, 0.132132, -0.22660871, -0.90214765, -4.086725, 0.14243162, 0.99557114, 0
1045, 1899599779, -0.34315825, 0.12704462, -0.22510472, -0.90304613, -1.7705768, 0.049691737, -0.87023354, 0
1046, 1899616446, -0.344143, 0.12281596, -0.22224946, -0.9039631, 4.6749525, -1.5272307, -2.2323146, 0
1048, 1899649780, -0.34275252, 0.11008294, -0.21948014, -0.90680385, 0.08687683, -1.139624, 0.6127472, 0
1049, 1899666447, -0.3440363, 0.11001887, -0.21792614, -0.90670025, -0.86830616, -0.8961803, -0.79086876, 0
1050, 1899683114, -0.34491, 0.11094548, -0.21854609, -0.906106, -1.6498631, 0.42084852, 0.53044987, 0
1052, 1899716448, -0.34416893, 0.10816532, -0.22371112, -0.9054632, -0.25992325, -1.1484737, 0.22947598, 0
1053, 1899733115, -0.342862, 0.103826664, -0.22832687, -0.9053147, -0.93454486, 1.8980948, 1.3636265, 0
1054, 1899749782, -0.34115005, 0.098024085, -0.23243847, -0.9055619, -2.0109756, 0.7584874, -0.21982193, 0
1056, 1899783116, -0.33708772, 0.07795521, -0.24234538, -0.90643585, -2.0638418, 0.065244325, 1.2396908, 0
1058, 1899816450, -0.34508398, 0.05054646, -0.2551086, -0.9018559, -4.911366, 3.1266723, 1.2402468, 0
1060, 1899849784, -0.37375805, 0.022073708, -0.26449493, -0.88877577, 2.493099, 1.1917125, 2.600443, 0
1061, 1899866451, -0.38640076, 0.01327882, -0.26580754, -0.8831347, 0.97566956, -2.69237, -0.07647896, 0
1063, 1899899785, -0.4188863, -0.0011432394, -0.2663951, -0.868118, -0.6956844, 4.5708113, -1.4652386, 0
1064, 1899916452, -0.43469685, -0.0063919425, -0.26362282, -0.8611405, 8.79467, -5.37117, 4.085449, 0
1065, 1899933119, -0.44410536, -0.005593978, -0.26020586, -0.8573764, 7.446784, -2.0828636, 0.96336365, 0
1067, 1899966453, -0.46025604, 0.0011509135, -0.25252974, -0.8511487, -3.3204303, 3.9310725, -1.3189316, 0
1068, 1899983120, -0.4779305, 0.0077896565, -0.24577653, -0.8433137, -6.7638845, 4.5554795, -1.2032576, 0
1069, 1899999787, -0.50096446, 0.01421538, -0.2377852, -0.8320776, -5.387986, 0.99847865, -2.0337996, 0
1071, 1900033121, -0.5375358, 0.029581036, -0.22926545, -0.81097454, -2.2884827, -2.8276012, -2.1457796, 0
1073, 1900066455, -0.5505057, 0.051817406, -0.2243296, -0.80249417, -0.5310274, -0.98487633, 5.805231, 0
1075, 1900099789, -0.5457852, 0.072188415, -0.20599982, -0.80903256, -3.1673265, -2.6687698, 1.4180403, 0
1076, 1900116456, -0.5415503, 0.07575804, -0.20072688, -0.81286836, -2.8583176, -3.653706, -2.478445, 0
1077, 1900133123, -0.536394, 0.0803208, -0.19570424, -0.8170631, -0.54773265, -5.0855856, -2.7191348, 0
1079, 1900166457, -0.5250642, 0.080370754, -0.18278806, -0.8273444, 0.4380609, -4.173911, 1.5413971, 0
1080, 1900183124, -0.518392, 0.07546143, -0.17597555, -0.8334687, 2.368605, -3.8582292, -0.7144146, 0
1081, 1900199791, -0.5092643, 0.06822124, -0.17314005, -0.8402859, 4.4009786, -2.5493376, -2.4299822, 0
1083, 1900233125, -0.47959018, 0.04744765, -0.17932028, -0.8576995, 6.2894597, 2.9622743, -1.4229946, 0
1084, 1900249792, -0.46024513, 0.035127066, -0.18640779, -0.86732614, 5.371253, 6.31074, -2.076673, 0
1085, 1900266459, -0.44068995, 0.023548864, -0.19148424, -0.8767177, 5.0063252, 11.407029, 0.3529024, 0
1087, 1900299793, -0.40936226, 0.0044296235, -0.19327597, -0.8916892, 2.1877697, 20.912241, -11.579164, 0
1088, 1900316460, -0.4017733, 0.0047054663, -0.20033912, -0.8935785, 2.8150444, 26.60364, -15.674614, 0
1090, 1900349794, -0.40875366, 0.039348967, -0.22724381, -0.88305986, 4.888109, 36.02088, -8.712914, 0
1091, 1900366461, -0.42475998, 0.070096746, -0.24753647, -0.86801684, 5.1926007, 33.81219, -11.738821, 0
1092, 1900383128, -0.46667913, 0.13023701, -0.24493793, -0.83983123, 1.9074668, 90.420006, 39.4156, 0
1094, 1900416462, -0.51037896, 0.20427316, -0.23858674, -0.8005775, -0.037727647, -19.38256, -4.323071, 0
1095, 1900433129, -0.503395, 0.24622968, -0.25995263, -0.78641677, -11.280772, 3.6242683, 0.5191088, 0
1096, 1900449796, -0.49036938, 0.28938624, -0.2866835, -0.77049875, 0.61266357, 0.6036886, 4.30927, 0
1098, 1900483130, -0.47349966, 0.4006522, -0.32913888, -0.7120435, -2.3518903, -9.003011, 5.5268393, 0
1100, 1900516464, -0.43654916, 0.55104923, -0.37678134, -0.6032145, 0.7296858, -33.5569, 19.834143, 0
1102, 1900549798, -0.37108532, 0.70564425, -0.434507, -0.41907966, 60.657104, -59.374725, 43.286762, 0
1103, 1900566465, -0.32517558, 0.7170855, -0.46142384, -0.40890032, 21.03577, -82.59444, 12.477259, 0
1104, 1900583132, -0.3239857, 0.7083932, -0.48906595, -0.39254165, -15.498617, 11.319973, 3.7393808, 0
1106, 1900616466, -0.37841526, 0.7032182, -0.5339858, -0.27786207, -8.36432, -50.90811, -7.80789, 0
1107, 1900633133, -0.39333183, 0.70404994, -0.5341393, -0.25369486, -16.860022, -29.4527, -11.5331, 0
1108, 1900649800, -0.41894925, 0.69969714, -0.53128135, -0.22958158, -17.331274, -22.93443, -16.015072, 0
1110, 1900683134, -0.4703589, 0.68937135, -0.5052468, -0.21981254, -8.06172, -16.18354, -20.349262, 0
1111, 1900699801, -0.48319805, 0.69013244, -0.4864983, -0.23155677, -4.736388, -7.492569, -19.673616, 0
1112, 1900716468, -0.48767155, 0.6937674, -0.46889263, -0.2471134, -4.4982705, -7.386108, -19.056011, 0
1115, 1900766469, -0.48928487, 0.6794386, -0.43211454, -0.33511615, -5.546292, -4.541354, -15.025008, 0
1116, 1900783136, -0.49150255, 0.6647871, -0.42382917, -0.37001938, -8.529832, -8.9814, -11.445198, 0
1118, 1900816470, -0.52294636, 0.6041627, -0.39940262, -0.4495046, -9.58468, -3.2275207, -5.1048517, 0
1119, 1900833137, -0.55135393, 0.5641033, -0.38241154, -0.481269, -7.4644327, -1.0731275, -2.3796062, 0
1121, 1900866471, -0.6078105, 0.48025835, -0.3396824, -0.5334757, -3.041814, -2.938703, 3.083353, 0
1122, 1900883138, -0.63143474, 0.43370658, -0.31980485, -0.5576521, 0.3656786, 0.9868518, 5.446147, 0
1123, 1900899805, -0.6481559, 0.38784733, -0.3036038, -0.58082306, 4.121574, 1.605587, 6.946766, 0
1125, 1900933139, -0.65106404, 0.30254424, -0.2825875, -0.6362304, 3.8642426, 2.3614476, 5.684911, 0
1126, 1900949806, -0.6393583, 0.26502007, -0.27710605, -0.6665282, 1.61762, 4.202875, 7.0394344, 0
1127, 1900966473, -0.6244956, 0.23259114, -0.27453378, -0.69325334, -0.05571105, 7.440776, 6.1688986, 0
1130, 1901016474, -0.58358365, 0.14668661, -0.23762424, -0.76256806, 1.9857125, 6.6063704, 10.136852, 0
1131, 1901033141, -0.5726827, 0.117715426, -0.21979323, -0.78098077, 2.7912161, 6.96444, 6.61038, 0
1133, 1901066475, -0.5534976, 0.06492839, -0.18760885, -0.808882, 4.0456705, 6.615722, 2.1743784, 0
1134, 1901083142, -0.54398525, 0.04308896, -0.176, -0.81933486, 3.3216739, 6.892864, 1.4696856, 0
1137, 1901133143, -0.5116627, -0.010565165, -0.15480602, -0.8450959, 0.29030824, 8.31742, -1.5844164, 0
1138, 1901149810, -0.50210196, -0.02082961, -0.15201986, -0.85112405, 0.1517325, 8.226984, -3.64678, 0
1139, 1901166477, -0.4939012, -0.024913501, -0.15125892, -0.8559346, 1.2656244, 8.561262, -3.3608093, 0
1141, 1901199811, -0.47869515, -0.031336498, -0.14257933, -0.86579585, 1.227763, 11.0175, -0.88971615, 0
1142, 1901216478, -0.47398487, -0.03300556, -0.13749155, -0.8691418, 0.28819445, 9.56028, -5.5413814, 0
1143, 1901233145, -0.4713862, -0.03253852, -0.13698621, -0.87065125, 0.2748877, 9.5218115, -5.6598268, 0
1146, 1901283146, -0.4642185, -0.024381757, -0.15128763, -0.8723996, 2.8083353, 9.6808605, -2.9390664, 0
1148, 1901316480, -0.45328456, -0.022337742, -0.16353941, -0.87598586, 3.91028, 9.370185, -4.1186543, 0
1149, 1901333147, -0.44753402, -0.016955629, -0.16734655, -0.8783412, 3.2565238, 9.83782, -6.6995807, 0
1150, 1901349814, -0.4420226, -0.010178927, -0.17336348, -0.88006806, 3.3109837, 12.891578, -4.445142, 0
1152, 1901383148, -0.43146962, -0.00623399, -0.19317147, -0.8812163, 3.6038163, 19.10549, -5.266404, 0
1153, 1901399815, -0.43023887, -0.003464684, -0.20531802, -0.87908447, 5.0896926, 22.493887, -9.511767, 0
1154, 1901416482, -0.43569034, 0.007793434, -0.22082566, -0.872589, 3.6072893, 27.969925, -13.903084, 0
1156, 1901449816, -0.46618083, 0.05678913, -0.26614833, -0.8418301, 4.622452, 32.61403, -10.794111, 0
1157, 1901466483, -0.4857117, 0.09516264, -0.29105255, -0.8187666, 0.19698504, 30.66798, -18.041592, 0
1158, 1901483150, -0.5170995, 0.15059528, -0.29361594, -0.789798, 10.963066, 52.058277, 57.657513, 0
1160, 1901516484, -0.55169773, 0.18660282, -0.24228574, -0.7759954, -3.8508024, -14.800069, 3.1263866, 0
1161, 1901533151, -0.5428916, 0.24009603, -0.2660741, -0.75953245, -6.422324, -9.821462, 0.70139885, 0
1162, 1901549818, -0.531163, 0.30595785, -0.29383534, -0.7334702, -1.6623313, -5.328961, 7.0995255, 0
1164, 1901583152, -0.50761294, 0.4558484, -0.3388714, -0.6478889, -3.6045887, -9.57665, 9.068039, 0
1165, 1901599819, -0.49380854, 0.5198339, -0.3723161, -0.58938026, -4.7879195, -25.207241, 12.662783, 0
1166, 1901616486, -0.47427958, 0.5894761, -0.4041021, -0.5141406, 3.137282, -23.351412, 15.885262, 0
1168, 1901649820, -0.39284778, 0.69592035, -0.44165498, -0.40788344, 22.899048, -93.73694, 31.001945, 0
1169, 1901666487, -0.3574062, 0.7009946, -0.44214106, -0.43062866, -0.69821066, -13.323348, 11.32337, 0
1171, 1901699821, -0.40450048, 0.69263244, -0.4824588, -0.35204458, 2.310695, -21.874924, 4.7374153, 0
1173, 1901733155, -0.43540892, 0.6949383, -0.4912237, -0.29366907, -4.622979, -21.815386, -6.991501, 0
1175, 1901766489, -0.47503677, 0.6945367, -0.48493734, -0.23844686, -9.224312, -14.81868, -11.675594, 0
1176, 1901783156, -0.5029802, 0.6904547, -0.47556734, -0.21019371, -6.7321825, -14.845511, -15.796562, 0
1177, 1901799823, -0.5250937, 0.6906618, -0.4596823, -0.18978272, -4.9672976, -16.562145, -19.46444, 0
1179, 1901833157, -0.54685587, 0.70000345, -0.4186198, -0.18911283, -4.8962693, -14.351924, -20.439678, 0
1180, 1901849824, -0.5518693, 0.7025564, -0.3987671, -0.20712754, -4.377888, -11.963197, -18.974022, 0
1181, 1901866491, -0.5554517, 0.70165205, -0.38054514, -0.23324996, -3.2836163, -9.126774, -17.210865, 0
1183, 1901899825, -0.5608408, 0.6902135, -0.34777564, -0.29694623, -2.7990403, -7.2966533, -14.204551, 0
1184, 1901916492, -0.56617934, 0.6763371, -0.33383614, -0.33260313, -3.077793, -6.4089646, -12.71541, 0
1185, 1901933159, -0.5733626, 0.6565785, -0.32182384, -0.3696643, -2.402546, -6.3980093, -11.470716, 0
1188, 1901983160, -0.6016166, 0.5697422, -0.28867382, -0.47977188, -0.86517864, -4.9316435, -5.159989, 0
1189, 1901999827, -0.6096522, 0.5374568, -0.27973908, -0.5111482, 0.8095827, -7.7791867, -1.9475827, 0
1191, 1902033161, -0.61813194, 0.46999547, -0.25955057, -0.5742065, 3.890243, -8.647304, 6.068037, 0
1192, 1902049828, -0.6198402, 0.43168908, -0.25236347, -0.6048287, 6.882647, -6.6291375, 7.6240616, 0
1193, 1902066495, -0.6151701, 0.3947163, -0.24596685, -0.6366533, 9.460871, -5.8887253, 8.89896, 0
1195, 1902099829, -0.58440095, 0.32253188, -0.24230249, -0.704131, 5.4819717, -1.1804419, 9.098291, 0
1196, 1902116496, -0.5651065, 0.28461644, -0.24282998, -0.7353532, 1.9579407, 0.17853993, 13.959698, 0
1198, 1902149830, -0.53058636, 0.20876613, -0.233179, -0.78777206, 1.0291519, 2.9225702, 12.606428, 0
1199, 1902166497, -0.51635134, 0.17155425, -0.22426112, -0.8085295, -0.29710326, 4.6262803, 11.411495, 0
1200, 1902183164, -0.50571185, 0.13408662, -0.21594205, -0.82444394, -0.3963378, 6.176675, 8.744619, 0
1203, 1902233165, -0.4824723, 0.042345084, -0.1949265, -0.85293216, 0.23745647, 8.927031, 8.652679, 0
1204, 1902249832, -0.47498494, 0.016924169, -0.18919148, -0.8592855, -0.45891237, 9.917937, 5.0027695, 0
1206, 1902283166, -0.46053037, -0.024535723, -0.18163863, -0.8685502, -2.2865689, 11.396487, 1.6910801, 0
1207, 1902299833, -0.4533819, -0.041374948, -0.17989112, -0.8720288, -3.2302806, 11.663496, 0.040919304, 0
1208, 1902316500, -0.44707683, -0.054523397, -0.17834976, -0.8748734, -3.055261, 12.015847, -0.9510021, 0
1210, 1902349834, -0.43929338, -0.070589945, -0.1710506, -0.8791145, -2.2108374, 13.27454, -1.2751827, 0
1211, 1902366501, -0.43582413, -0.077542394, -0.16773853, -0.8808919, -1.140499, 12.582854, -2.2546635, 0
1212, 1902383168, -0.43202847, -0.082379326, -0.16488531, -0.88285923, -1.2596029, 10.679456, -5.1795774, 0
1214, 1902416502, -0.4248253, -0.08387549, -0.16322319, -0.8865151, -1.1857454, 10.862278, -4.462922, 0
1215, 1902433169, -0.42331266, -0.08090548, -0.16155401, -0.8878194, -1.4031069, 10.415001, -4.974159, 0
1218, 1902483170, -0.42407784, -0.065964095, -0.16383791, -0.88827133, 0.15156116, 11.513228, -4.9446497, 0
1219, 1902499837, -0.42348546, -0.062104236, -0.16730723, -0.8881856, 0.0569236, 10.966818, -6.510046, 0
1220, 1902516504, -0.42226967, -0.05794366, -0.1734452, -0.8878683, -0.60477346, 11.515334, -6.8702884, 0
1222, 1902549838, -0.42114967, -0.052875813, -0.18884264, -0.8855722, 1.0259975, 16.315622, -4.887396, 0
1223, 1902566505, -0.42299303, -0.051526234, -0.19568118, -0.88328546, 0.3590101, 18.52073, -7.295332, 0
1224, 1902583172, -0.42704865, -0.050025284, -0.20611085, -0.879038, -0.008372041, 20.897259, -9.14582, 0
1226, 1902616506, -0.4447719, -0.033917114, -0.24149367, -0.86184156, 4.4045973, 25.517548, -5.5852213, 0
1227, 1902633173, -0.45788765, -0.016532168, -0.2595277, -0.8501607, 5.9157534, 27.442162, -1.6731682, 0
1229, 1902666507, -0.49135676, 0.04876077, -0.3014422, -0.81571186, 1.4723424, 28.48253, -5.7060914, 0
1230, 1902683174, -0.5216223, 0.11038023, -0.29489315, -0.79298604, 21.629864, 53.992447, 48.002964, 0
1231, 1902699841, -0.5499847, 0.12999068, -0.25182962, -0.7856613, -19.16143, 17.501833, 19.272293, 0
1233, 1902733175, -0.5698941, 0.19045267, -0.25562906, -0.7574065, -9.730425, -3.2964683, 1.1505089, 0
1234, 1902749842, -0.5630833, 0.24060985, -0.27693313, -0.7405502, -1.9878777, -2.4431787, 1.9908915, 0
1235, 1902766509, -0.5535262, 0.29634643, -0.30259436, -0.71713763, -0.23660915, -6.769002, 5.593959, 0
1237, 1902799843, -0.5314523, 0.43800783, -0.3435632, -0.63854086, -4.091561, -12.103848, 9.396982, 0
1238, 1902816510, -0.51749617, 0.5042014, -0.3763181, -0.5800221, -4.392362, -24.546417, 16.364132, 0
1239, 1902833177, -0.50318253, 0.5736437, -0.40859547, -0.5008516, 3.797237, -21.28399, 15.725616, 0
1241, 1902866511, -0.39923966, 0.697855, -0.4471473, -0.39208096, 39.626335, -97.35576, 22.742622, 0
1242, 1902883178, -0.3467893, 0.7061886, -0.46127516, -0.410271, 4.331315, -2.2048993, 8.065733, 0
1245, 1902933179, -0.36718157, 0.69906753, -0.5476445, -0.27682194, -20.190756, -35.190445, -8.6642475, 0
1246, 1902949846, -0.39919817, 0.6842178, -0.5587791, -0.24559107, -18.915157, -25.832985, -11.996883, 0
1247, 1902966513, -0.43780324, 0.66872025, -0.55865675, -0.22159995, -15.717523, -24.423603, -15.14164, 0
1249, 1902999847, -0.5055246, 0.65148485, -0.5251699, -0.21040711, -8.633748, -14.28093, -15.2543545, 0
1250, 1903016514, -0.52661383, 0.65347195, -0.49919423, -0.21568373, -4.3314795, -10.808732, -17.20319, 0
1251, 1903033181, -0.5338799, 0.6631143, -0.47260988, -0.2279343, -2.4803345, -12.410623, -19.581102, 0
1253, 1903066515, -0.5254462, 0.6786295, -0.43189067, -0.2773108, -4.170454, -10.45112, -17.051414, 0
1254, 1903083182, -0.5190911, 0.67630064, -0.41941565, -0.31195313, -3.3007972, -8.834143, -15.426277, 0
1256, 1903116516, -0.5080032, 0.65239286, -0.40373087, -0.39163768, -3.944029, -7.345538, -11.065139, 0
1257, 1903133183, -0.50772405, 0.6283793, -0.39786494, -0.434881, -4.5693603, -9.844368, -6.9043007, 0
1260, 1903183184, -0.5089316, 0.5345036, -0.36700195, -0.5662743, 1.5565301, -6.6769004, 1.0571938, 0
1261, 1903199851, -0.50413483, 0.49997488, -0.35510176, -0.60814345, 1.7260935, -8.619604, 6.2223835, 0
1262, 1903216518, -0.49923974, 0.46191174, -0.33813447, -0.6504804, 3.994501, -5.477343, 11.3763485, 0
1264, 1903249852, -0.47962466, 0.39200938, -0.29251027, -0.7285526, 14.065732, 3.2027426, 11.668837, 0
1265, 1903266519, -0.45688057, 0.3595165, -0.27389625, -0.7661927, 16.8503, 7.1173444, 9.854551, 0
1266, 1903283186, -0.42324173, 0.32841855, -0.2642579, -0.80202127, 14.339019, 11.629735, 7.4766617, 0
1268, 1903316520, -0.34492654, 0.27492374, -0.2626179, -0.85821724, 5.745413, 15.803485, 5.761504, 0
1269, 1903333187, -0.30924845, 0.25623575, -0.25906533, -0.8784395, 1.6970779, 16.252031, 2.7631397, 0
1270, 1903349854, -0.2814681, 0.24360809, -0.25397962, -0.89274156, -0.048785347, 16.366844, 0.5541439, 0
1272, 1903383188, -0.24757501, 0.23500773, -0.24457961, -0.90759087, 0.19308831, 18.1246, -4.4503746, 0
1274, 1903416522, -0.23024607, 0.2505812, -0.23754403, -0.90985227, -3.2537377, 14.394721, -2.7728853, 0
1276, 1903449856, -0.25277498, 0.2734605, -0.21224901, -0.90351367, -12.444982, 19.531336, 8.532698, 0
1277, 1903466523, -0.2694061, 0.27405214, -0.21247104, -0.89846206, -2.4802637, 19.473963, 2.5166254, 0
1279, 1903499857, -0.2951226, 0.2666661, -0.2129492, -0.89247227, 0.44197062, 2.5017972, 1.4726515, 0
1280, 1903516524, -0.29992384, 0.26354373, -0.21455884, -0.89141315, -1.026199, 0.4259956, 1.1971588, 0
1281, 1903533191, -0.2997506, 0.2615589, -0.2165994, -0.89156246, -1.2356693, -1.1521118, 0.95344925, 0
1283, 1903566525, -0.29596332, 0.2597852, -0.21969567, -0.8925881, -0.95453477, -1.0627943, -1.9794359, 0
1284, 1903583192, -0.29642814, 0.26009524, -0.22056858, -0.8921282, 0.5598014, 2.0058827, 1.2753782, 0
1285, 1903599859, -0.29908732, 0.26065782, -0.21917054, -0.8914208, -0.8185884, 2.9694104, 2.734249, 0
1287, 1903633193, -0.30373907, 0.26416975, -0.2200233, -0.8885995, -0.33321637, 0.72390056, -0.9018192, 0
1289, 1903666527, -0.30820653, 0.26866722, -0.22185445, -0.8852512, -0.3954296, 0.13018848, 1.0023394, 0
1291, 1903699861, -0.3153766, 0.2687744, -0.22258618, -0.88250524, 0.053636648, -2.2246172, -0.50402546, 0
1292, 1903716528, -0.32268044, 0.26966223, -0.2214626, -0.8798729, -1.2362689, -2.7952747, -0.27966118, 0
1293, 1903733195, -0.32939285, 0.26950514, -0.22116467, -0.8775055, -0.12501438, -2.2633772, 0.5546484, 0
1295, 1903766529, -0.33787292, 0.26920256, -0.22223914, -0.87409616, 0.22761253, -1.2225367, 1.2984571, 0
1296, 1903783196, -0.34230232, 0.26634368, -0.22216764, -0.87326634, 0.27155998, -0.7874645, 2.2520943, 0
1297, 1903799863, -0.3465063, 0.2581444, -0.2208931, -0.87439317, -0.082310095, -0.7945108, 2.6788054, 0
1299, 1903833197, -0.35896596, 0.23692921, -0.21531017, -0.87676215, 0.68512547, -0.9659851, -2.9956322, 0
1300, 1903849864, -0.3678115, 0.22845845, -0.2134442, -0.8757998, 2.2290218, -4.0223236, 0.7645426, 0
1301, 1903866531, -0.37630767, 0.22024657, -0.21179642, -0.8746934, -0.45058033, -4.5991135, 0.10771084, 0
1303, 1903899865, -0.39091423, 0.20754087, -0.20903392, -0.87205505, -1.4364766, -0.695152, 2.3604078, 0
1304, 1903916532, -0.39563644, 0.19870874, -0.20764178, -0.8723152, -2.3616617, -2.5171907, 3.2184944, 0
1306, 1903949866, -0.40439278, 0.18016031, -0.20608364, -0.87269735, -0.30759382, -3.3700402, -5.282066, 0
1307, 1903966533, -0.4096004, 0.17397508, -0.2068057, -0.8713517, 1.5604963, -0.55014694, 2.4353323, 0
1308, 1903983200, -0.41440952, 0.16508666, -0.20651603, -0.8708757, 0.35013124, -4.320449, 0.5819807, 0
1310, 1904016534, -0.42541733, 0.15533394, -0.2047328, -0.8677777, -1.2661309, -2.1219277, 2.3823528, 0
1311, 1904033201, -0.42960602, 0.15013616, -0.20245108, -0.8671641, -0.8892343, -1.7384061, 0.4580717, 0
1312, 1904049868, -0.43269232, 0.14395535, -0.19935215, -0.86739576, -1.4847856, -0.12971921, 1.9872942, 0
1314, 1904083202, -0.44021815, 0.1328104, -0.19152008, -0.86715156, -0.39102256, -1.9306253, -0.4075222, 0
1316, 1904116536, -0.44864452, 0.1293302, -0.18593992, -0.86456954, -1.4408144, 0.96417344, 4.176489, 0
1318, 1904149870, -0.45881873, 0.13161108, -0.18414272, -0.8592541, -1.7045484, 0.8783085, 2.1464891, 0
1319, 1904166537, -0.46492955, 0.13277458, -0.18473208, -0.85565645, -0.54118824, 1.0021303, -2.2485266, 0
1320, 1904183204, -0.46904096, 0.13316123, -0.18556187, -0.85316944, -0.4926794, 5.591386, -6.5160933, 0
1322, 1904216538, -0.46219194, 0.102242075, -0.1874469, -0.8607271, -3.3373415, 2.0542047, 0.4465027, 0
1323, 1904233205, -0.45871758, 0.09620224, -0.18844707, -0.8630605, 5.2224636, 0.2941055, -3.4305687, 0
1324, 1904249872, -0.45745757, 0.095407486, -0.18966022, -0.8635515, 1.8358659, 10.00399, 6.3850403, 0
1326, 1904283206, -0.45599023, 0.09364855, -0.19205502, -0.8639908, 1.0264657, 3.519836, 0.2939148, 0
1327, 1904299873, -0.45662707, 0.093776315, -0.19140562, -0.8637847, 2.0158472, 1.2748334, -2.05334, 0
1328, 1904316540, -0.45715475, 0.092941724, -0.18826741, -0.86428523, 0.6258917, 2.5629132, 2.0789366, 0
1331, 1904366541, -0.45885187, 0.09350918, -0.17560798, -0.8659879, 0.41641837, 2.5080523, 0.061347008, 0
1332, 1904383208, -0.4588005, 0.093541585, -0.17207249, -0.86672115, 0.04802473, -0.08228546, -4.75629, 0
1334, 1904416542, -0.45707956, 0.09281872, -0.1676535, -0.86857224, 0.4992667, 4.0589495, 2.931902, 0
1335, 1904433209, -0.45573092, 0.093077615, -0.1670537, -0.8693683, 1.3061074, 5.485809, 6.169217, 0
1337, 1904466543, -0.45191726, 0.09544625, -0.17081861, -0.87037015, 2.8216867, 1.5516356, -5.2281985, 0
1338, 1904483210, -0.44907087, 0.09424795, -0.17106661, -0.8719239, 2.6348612, -3.5662413, -3.5774703, 0
1339, 1904499877, -0.44586217, 0.09391203, -0.1711891, -0.8735812, 3.3846035, -0.2777755, 0.3995371, 0
1341, 1904533211, -0.43978807, 0.09390366, -0.17240079, -0.87641823, 1.3403951, 0.25803396, 0.82728386, 0
1342, 1904549878, -0.4377119, 0.09464382, -0.17267519, -0.8773236, 1.4794728, 0.63820326, -1.4749746, 0
1343, 1904566545, -0.43544608, 0.095584884, -0.17383914, -0.87811875, 2.2798321, -1.5543278, -1.8763642, 0
1346, 1904616546, -0.4282639, 0.093933135, -0.17466044, -0.88165903, 0.22729455, 0.78690743, 0.5764494, 0
1347, 1904633213, -0.42642167, 0.093803346, -0.17602915, -0.88229334, -0.38908872, -0.21315302, 0.14683819, 0
1349, 1904666547, -0.42306352, 0.09225449, -0.17823632, -0.8836292, -0.05800004, -2.8223271, -0.40052986, 0
1350, 1904683214, -0.42216596, 0.09199028, -0.17911237, -0.88390887, 0.10350388, -1.6442393, -1.4106979, 0
1351, 1904699881, -0.4217798, 0.091456726, -0.1801857, -0.8839304, 0.60898, 1.7881237, 2.717701, 0
1353, 1904733215, -0.42173895, 0.090875685, -0.18157011, -0.8837266, -1.5797158, 0.93237936, 0.5948496, 0
1354, 1904749882, -0.4219717, 0.09010496, -0.1820338, -0.8835989, -1.3138229, -0.248072, 2.1661882, 0
1355, 1904766549, -0.42252055, 0.0895632, -0.18266155, -0.88326204, -0.6258286, -2.2572906, -0.9398413, 0
1357, 1904799883, -0.42366937, 0.08831558, -0.18461885, -0.8824302, -0.92254937, -1.5004181, -0.59283257, 0
1358, 1904816550, -0.4246432, 0.087432526, -0.18502718, -0.8819643, -0.31544754, 2.2013133, 2.7031498, 0
1361, 1904866551, -0.42829323, 0.08701833, -0.18683887, -0.8798559, -0.9448154, -0.22421356, 2.4438686, 0
1362, 1904883218, -0.42977786, 0.08668162, -0.18628713, -0.879282, -0.909711, -3.9569366, -1.7056913, 0
1364, 1904916552, -0.43349263, 0.08669656, -0.18557417, -0.8776061, -0.38321865, -0.9539932, 1.4649601, 0
1365, 1904933219, -0.43548155, 0.08730674, -0.18606605, -0.876456, -1.0228769, -1.5474409, -0.11116409, 0
1366, 1904949886, -0.43741146, 0.08870518, -0.18714602, -0.8751236, -1.1077971, -1.6008407, -1.3459806, 0
1368, 1904983220, -0.4409777, 0.08943972, -0.1876998, -0.8731383, -0.089908905, -3.4134564, 0.04378128, 0
1369, 1904999887, -0.44209546, 0.08913571, -0.1873268, -0.872684, 0.3297051, -2.5017242, 0.86987877, 0
1370, 1905016554, -0.44307828, 0.08945261, -0.18712214, -0.8721969, 0.09138763, 0.15325256, 2.1505108, 0
1372, 1905049888, -0.44506443, 0.09149904, -0.18756345, -0.8708776, -0.39286947, -2.7505655, -0.06695557, 0
1373, 1905066555, -0.4464782, 0.09336602, -0.18789552, -0.8698836, 0.6330969, -4.8137116, -2.7151089, 0
1374, 1905083222, -0.4472881, 0.09370543, -0.1871938, -0.86958253, 0.6336953, -3.732471, 0.77004147, 0
1376, 1905116556, -0.44966152, 0.095559455, -0.18588057, -0.86843765, -0.35988793, -1.2949882, 2.5160894, 0
1377, 1905133223, -0.4510724, 0.09706709, -0.18514086, -0.8676963, -0.7657511, -3.157074, 1.8571959, 0
1378, 1905149890, -0.4535681, 0.09998921, -0.18428183, -0.86624527, 0.25495812, -2.849212, 0.57441807, 0
1380, 1905183224, -0.4579352, 0.105579585, -0.1839407, -0.8633518, -0.40204835, -1.4788079, 0.40090752, 0
1381, 1905199891, -0.45895064, 0.10621624, -0.18422478, -0.86267376, 0.38102725, -0.88008124, 3.5323296, 0
1382, 1905216558, -0.45998022, 0.107917555, -0.18523851, -0.8616966, 0.35907525, -3.2754958, -1.7131405, 0
1384, 1905249892, -0.46579856, 0.1098734, -0.18833524, -0.85764307, 1.1139193, -1.9763467, -3.1476707, 0
1385, 1905266559, -0.46958876, 0.107149206, -0.19082834, -0.8553669, 1.8347874, 1.2764184, 0.8157387, 0
1388, 1905316560, -0.4582039, 0.09110103, -0.20134899, -0.8609708, 1.1999863, 2.8270943, -1.9200869, 0
1389, 1905333227, -0.45366508, 0.087235525, -0.20297557, -0.8633894, 4.0258217, 4.8937798, 0.8763447, 0
1391, 1905366561, -0.4478135, 0.08233053, -0.2061677, -0.8661651, -2.1613529, 2.8008766, 1.3500271, 0
1392, 1905383228, -0.4459173, 0.080983534, -0.2085753, -0.86669385, -1.147068, 3.8687093, 0.9239607, 0
1393, 1905399895, -0.44420278, 0.07989906, -0.2116813, -0.866922, -1.294735, 4.042335, -0.76815224, 0
1395, 1905433229, -0.44250947, 0.077639185, -0.2151082, -0.8671495, 1.2274206, 3.2387156, 5.9086742, 0
1396, 1905449896, -0.4427235, 0.078234494, -0.21568274, -0.8668442, 1.6960983, 5.3193307, 2.4180603, 0
1397, 1905466563, -0.44258064, 0.07823608, -0.21519165, -0.8670389, 0.6678548, 5.344833, -0.8359251, 0
1399, 1905499897, -0.44362372, 0.07718512, -0.21066515, -0.8677113, -1.6659431, 1.4682558, 0.6702423, 0
1400, 1905516564, -0.44502264, 0.077508, -0.20848534, -0.86749274, -1.9136922, 3.2556727, -0.4663477, 0
1403, 1905566565, -0.44926128, 0.078217514, -0.20265932, -0.86662436, -1.1888725, 0.693881, -1.3549786, 0
1404, 1905583232, -0.45078585, 0.07843961, -0.20100659, -0.86619747, -0.049641322, 2.3122647, 3.0081673, 0
1405, 1905599899, -0.45222783, 0.078428954, -0.1997695, -0.8657328, -0.45512852, -1.0287414, -1.3842325, 0
1407, 1905633233, -0.45494765, 0.078981444, -0.19668111, -0.86496437, 0.020895533, -1.397375, -3.1837835, 0
1408, 1905649900, -0.45651704, 0.080224395, -0.19613363, -0.86414707, 0.4779397, 3.7582693, 0.80397797, 0
1409, 1905666567, -0.45770526, 0.079904795, -0.19327253, -0.86419284, -0.017342472, -0.818329, 0.40884686, 0
1411, 1905699901, -0.46052688, 0.08029554, -0.19028512, -0.86332023, -0.9552742, -1.46089, -1.9448495, 0
1412, 1905716568, -0.4618723, 0.080989525, -0.18866442, -0.8628919, -0.40518686, 2.0103636, 0.9112377, 0
1414, 1905749902, -0.46365342, 0.08193919, -0.18635873, -0.8623481, -0.22818056, -1.8756881, -0.7059164, 0
1415, 1905766569, -0.46427324, 0.08232422, -0.18544295, -0.86217546, 0.69101584, -0.8638158, -0.8194351, 0
1418, 1905816570, -0.46511325, 0.08107017, -0.18270962, -0.86242497, 0.45872125, 1.6604307, 2.5100794, 0
1419, 1905833237, -0.46535045, 0.081027456, -0.18218467, -0.862412, 0.3898072, 1.0403707, 2.2721882, 0
1420, 1905849904, -0.46557215, 0.081342116, -0.18167101, -0.8623712, -0.06616833, -0.13926813, 0.5230646, 0
1422, 1905883238, -0.4658185, 0.08247865, -0.18129595, -0.8622092, 0.62787795, -0.9354702, -0.96819973, 0
1423, 1905899905, -0.46576932, 0.08247089, -0.18031535, -0.8624419, 1.2209738, -0.5090092, 0.012191772, 0
1424, 1905916572, -0.46574807, 0.082078554, -0.17860146, -0.8628473, 1.3100812, 0.7656783, 2.3162842, 0
1426, 1905949906, -0.4656602, 0.08089662, -0.17510529, -0.8637226, 0.15845026, -1.353552, 1.6186075, 0
1427, 1905966573, -0.46537042, 0.080426194, -0.17370123, -0.86420614, -0.13971935, -3.8929713, -1.5871391, 0
1428, 1905983240, -0.46528, 0.081302695, -0.17346048, -0.8642212, -0.10980219, 0.78739965, -2.221095, 0
1430, 1906016574, -0.4651723, 0.08397491, -0.17042893, -0.86462677, 3.3162029, 1.1567261, 5.621827, 0
1432, 1906049908, -0.46496058, 0.08551808, -0.16673118, -0.86531, -0.02267555, -3.952039, -1.6503944, 0
1434, 1906083242, -0.46410805, 0.087847106, -0.16496783, -0.86587214, 0.1253538, -1.6683879, 0.32410622, 0
1435, 1906099909, -0.46297696, 0.08772225, -0.16474453, -0.86653256, 0.706669, -2.1781468, 0.19932556, 0
1436, 1906116576, -0.4617164, 0.08781951, -0.16490562, -0.8671646, 1.2645658, -2.5829792, -1.2529974, 0
1438, 1906149910, -0.45801115, 0.087876946, -0.16599426, -0.8689141, 1.5774434, -0.84619224, 1.9338646, 0
1439, 1906166577, -0.45622835, 0.08789949, -0.16654736, -0.8697435, 1.222782, -0.45084473, 3.1261282, 0
1440, 1906183244, -0.45491937, 0.08920697, -0.16802818, -0.8700111, 0.5427023, -2.5565815, -0.184865, 0
1442, 1906216578, -0.45306846, 0.09202021, -0.17098826, -0.8701074, 0.8975287, -5.7217774, -4.24548, 0
1443, 1906233245, -0.45201313, 0.09242792, -0.17159706, -0.87049305, 0.32548022, -3.9588177, -1.0434332, 0
1445, 1906266579, -0.4498298, 0.09045188, -0.1709314, -0.8719612, 0.32991666, -1.9279093, 2.73252, 0
1446, 1906283246, -0.44928044, 0.09166786, -0.17231952, -0.8718442, -0.8532722, -2.6327548, 1.0874014, 0
1447, 1906299913, -0.44935703, 0.09381497, -0.17416365, -0.87120974, -0.5304862, -2.3141375, 1.1173, 0
1449, 1906333247, -0.44886583, 0.09698776, -0.17906004, -0.8701222, -0.31512573, -3.9238853, -3.1749454, 0
1450, 1906349914, -0.44778624, 0.096302226, -0.18138161, -0.8702738, -0.1517584, -3.509891, 2.1632748, 0
1451, 1906366581, -0.44637218, 0.09489961, -0.18378782, -0.8706494, -0.31228012, -5.921067, 2.2832708, 0
1453, 1906399915, -0.44575408, 0.09688443, -0.18752377, -0.86995053, 1.1664965, -3.4197638, 0.27320862, 0
1454, 1906416582, -0.44634378, 0.09917995, -0.18788043, -0.8693123, 0.981822, -2.7919474, -4.2114453, 0
1455, 1906433249, -0.44675422, 0.098854795, -0.18692277, -0.86934495, -2.0334775, 0.523239, -1.502491, 0
1457, 1906466583, -0.44754183, 0.09391501, -0.18489029, -0.86992204, -1.8765428, 1.071646, -1.3898535, 0
1459, 1906499917, -0.4487182, 0.08998834, -0.18355373, -0.87001395, -1.6807843, 6.380266, 1.7328987, 0
1461, 1906533251, -0.44974, 0.08406942, -0.17999598, -0.8708215, -1.7194428, 10.601065, 2.76402, 0
1462, 1906549918, -0.4502932, 0.08202038, -0.17926784, -0.8708812, -2.0290935, 8.804063, 2.1105595, 0
1463, 1906566585, -0.45111084, 0.08103748, -0.18017651, -0.87036234, -0.4721846, 10.955166, 4.6294003, 0
1465, 1906599919, -0.4518146, 0.079572245, -0.18208522, -0.86973494, 2.905608, 6.3429804, -0.14802647, 0
1466, 1906616586, -0.45211416, 0.07898954, -0.18089728, -0.8698804, 3.2885826, 1.8977278, -1.1968517, 0
1467, 1906633253, -0.45227686, 0.07909963, -0.17954344, -0.8700664, 2.882851, 3.5455525, 1.6661844, 0
1469, 1906666587, -0.4510265, 0.08093731, -0.17846815, -0.87076724, -1.3966959, 3.017112, 1.0447693, 0
1470, 1906683254, -0.4499535, 0.08205826, -0.17913127, -0.87108123, -1.6517694, 0.93702096, -2.3340282, 0
1472, 1906716588, -0.44742352, 0.08213087, -0.17987208, -0.8722242, 0.94267327, 0.9291303, -1.9788938, 0
1474, 1906749922, -0.4460619, 0.08220026, -0.18085535, -0.87271154, -1.5720981, -0.45449376, 0.77950287, 0
1476, 1906783256, -0.4470575, 0.08430962, -0.18129106, -0.87191015, 0.56986374, -3.162613, -0.9481058, 0
1477, 1906799923, -0.4478772, 0.0832181, -0.18090491, -0.87167454, -0.061192792, -2.4249008, 0.40884495, 0
1478, 1906816590, -0.4486586, 0.08150136, -0.18328893, -0.8709365, -1.4668409, -0.8094641, 0.8650789, 0
1480, 1906849924, -0.4488032, 0.072831504, -0.19382593, -0.8693476, -1.3809828, 0.25068298, 2.8979158, 0
1481, 1906866591, -0.44776675, 0.06362063, -0.2030382, -0.86850154, -2.0077665, -2.1027818, 0.002108574, 0
1482, 1906883258, -0.44721457, 0.05152512, -0.21228467, -0.86737645, 0.11963936, -1.1213768, 0.46334648, 0
1484, 1906916592, -0.44990897, 0.024278965, -0.22565836, -0.86379, 0.357311, -0.77308697, 1.5074253, 0
1485, 1906933259, -0.4534641, 0.012638167, -0.22824347, -0.8614975, -0.4306402, -1.2072413, -0.27321434, 0
1486, 1906949926, -0.46025687, 0.0038217306, -0.22958815, -0.85761344, -1.2409097, 1.3318793, -1.551549, 0
1489, 1906999927, -0.51333976, -0.01905363, -0.22150324, -0.8289257, -13.612221, 9.335772, -1.9707708, 0
1490, 1907016594, -0.5398247, -0.026647218, -0.2178896, -0.8126905, 9.574876, -0.7946908, -1.0327759, 0
1492, 1907049928, -0.5742788, -0.031050697, -0.2160486, -0.7890659, -3.6750622, -0.31264657, -1.5598154, 0
1493, 1907066595, -0.5884821, -0.031685717, -0.21883753, -0.7777257, 10.720925, -3.499681, 0.37188625, 0
1495, 1907099929, -0.5999783, -0.028313398, -0.22623947, -0.76687837, 5.864236, -1.5444528, -0.369112, 0
1496, 1907116596, -0.5998523, -0.025077194, -0.22740896, -0.7667438, 2.0173745, -0.8023203, 3.540429, 0
1497, 1907133263, -0.598776, -0.02371557, -0.23062232, -0.76666844, 3.6216114, -1.79514, 1.0511217, 0
1499, 1907166597, -0.5967916, -0.019858152, -0.23801547, -0.7660656, -2.0957355, 2.0609, 1.4123154, 0
1500, 1907183264, -0.59641427, -0.018133499, -0.24256676, -0.7649737, -1.4295156, -1.4668771, -0.18168926, 0
1501, 1907199931, -0.5947702, -0.017936066, -0.24961205, -0.7639915, -1.1057004, -1.0550293, -0.88651085, 0
1504, 1907249932, -0.58939356, -0.016573302, -0.2626825, -0.76380694, 1.0854652, 1.8545294, 2.064722, 0
1505, 1907266599, -0.58855695, -0.015370704, -0.26618662, -0.7632638, 0.7762145, 0.993658, 0.27957726, 0
1507, 1907299933, -0.58725935, -0.009600535, -0.2755852, -0.7610187, -4.2800975, 1.6556141, -0.9989624, 0
1508, 1907316600, -0.5875428, -0.0049284175, -0.284328, -0.7576207, -5.018577, 0.58057535, -4.782703, 0
1509, 1907333267, -0.5855279, 4.0864944E-4, -0.29625285, -0.75462145, -2.204558, 0.08788362, 2.2217607, 0
1511, 1907366601, -0.5741652, 0.015350938, -0.32299158, -0.7522216, -0.23218156, -3.1982648, 2.6454659, 0
1512, 1907383268, -0.5625021, 0.024608925, -0.34170055, -0.75252163, -7.058624, 2.788637, -2.2073002, 0
1513, 1907399935, -0.5497136, 0.04734981, -0.346212, -0.75879675, 9.073817, -11.755844, 11.878901, 0
1515, 1907433269, -0.5158973, 0.094612814, -0.34860954, -0.7768091, -1.7338083, -4.9495273, 2.965191, 0
1516, 1907449936, -0.5040242, 0.12320266, -0.3404456, -0.7841809, -10.00341, -1.8680295, 1.7250261, 0
1517, 1907466603, -0.5025732, 0.13788997, -0.3326282, -0.7860199, -14.172203, -1.9678447, 3.9117756, 0
1519, 1907499937, -0.52194625, 0.1576154, -0.29983366, -0.78287405, -4.2391872, -6.375701, -0.42703152, 0
1520, 1907516604, -0.53538597, 0.16169856, -0.2789612, -0.7806783, -2.173659, -6.768657, 1.9724379, 0
1521, 1907533271, -0.54774934, 0.15907203, -0.2584647, -0.77969563, 1.1085316, -6.8871655, -0.5748663, 0
1523, 1907566605, -0.5610937, 0.14552924, -0.2238725, -0.7835424, 5.189518, -5.2542944, -2.0480452, 0
1524, 1907583272, -0.5605559, 0.1378166, -0.21073028, -0.788948, 5.68732, -3.639523, -0.6163683, 0
1526, 1907616606, -0.5478944, 0.113613434, -0.19083388, -0.8065659, 5.3644266, -0.43031296, 0.9924555, 0
1527, 1907633273, -0.5378212, 0.097730204, -0.18338121, -0.8170868, 4.753809, 1.3703828, 2.2873821, 0
1528, 1907649940, -0.52609944, 0.0808724, -0.17685643, -0.827927, 4.2972226, 2.6558077, -0.052264214, 0
1531, 1907699941, -0.4911409, 0.03605014, -0.18030283, -0.85148954, 1.9885597, 10.422419, 0.28356552, 0
1532, 1907716608, -0.48115495, 0.021002144, -0.18033466, -0.8576657, 2.4121816, 12.27834, -0.64632225, 0
1534, 1907749942, -0.46487758, 0.00408154, -0.17391092, -0.868153, 4.264569, 18.113558, -6.533654, 0
1535, 1907766609, -0.45549285, 6.748587E-4, -0.17391601, -0.8731216, 5.9702353, 21.037622, -8.954769, 0
1536, 1907783276, -0.4442284, 0.0026916713, -0.17949596, -0.8777799, 5.8721204, 23.88126, -12.014003, 0
1538, 1907816610, -0.42699564, 0.029460128, -0.20949055, -0.87919444, 4.3155227, 33.672882, -4.6641006, 0
1539, 1907833277, -0.42840764, 0.05823109, -0.22830273, -0.8723624, 3.9570417, 35.067627, -5.0377426, 0
1540, 1907849944, -0.43616486, 0.09790881, -0.24988498, -0.8589493, -0.15348274, 34.44396, -1.869277, 0
1542, 1907883278, -0.48359016, 0.20798904, -0.25808802, -0.81014466, -0.76728576, 82.884, 46.521305, 0
1543, 1907899945, -0.49893814, 0.24982816, -0.26608473, -0.7860711, -12.571621, -20.492434, -5.5105753, 0
1546, 1907949946, -0.47194153, 0.4149065, -0.30840313, -0.7141943, -3.210664, -3.438864, 6.843134, 0
1547, 1907966613, -0.4558097, 0.4747824, -0.32633042, -0.6785205, 0.6174027, -8.364824, 5.8904343, 0
1548, 1907983280, -0.43873665, 0.53449565, -0.3528024, -0.63041043, -3.3417537, -13.509424, 8.633234, 0
1550, 1908016614, -0.39629474, 0.65592206, -0.41968238, -0.48646256, 4.841696, -46.896164, 32.92807, 0
1551, 1908033281, -0.35717988, 0.7136256, -0.43887585, -0.4130512, 37.75219, -59.460155, 40.733337, 0
1553, 1908066615, -0.28931648, 0.74189466, -0.4513079, -0.40282983, -11.787752, 11.910331, 6.8430347, 0
1554, 1908083282, -0.31465572, 0.7450136, -0.48013097, -0.33982807, 3.5528646, -23.231384, 7.0177116, 0
1555, 1908099949, -0.32669082, 0.7485037, -0.49500006, -0.29673672, 1.6380746, -42.236237, -6.494788, 0
1557, 1908133283, -0.36666843, 0.74222225, -0.5082238, -0.2375526, -16.139917, -20.1848, -13.860017, 0
1558, 1908149950, -0.40180886, 0.7330497, -0.50593567, -0.21278925, -9.820437, -17.873554, -18.255098, 0
1561, 1908199951, -0.47993094, 0.71330863, -0.46820554, -0.20421313, -5.241949, -10.660078, -18.009659, 0
1562, 1908216618, -0.49379566, 0.7100152, -0.45068192, -0.22134212, -4.968279, -10.256527, -17.361517, 0
1563, 1908233285, -0.5034773, 0.70646286, -0.433036, -0.2448738, -4.014018, -6.203382, -16.200539, 0
1565, 1908266619, -0.5181102, 0.69343066, -0.4039695, -0.29595006, -3.5502255, -6.4152017, -14.164717, 0
1566, 1908283286, -0.5253528, 0.6803966, -0.39285624, -0.3267892, -3.6536002, -8.301722, -13.042469, 0
1567, 1908299953, -0.53294337, 0.6619594, -0.38232425, -0.36286587, -4.0802283, -10.644799, -10.555163, 0
1569, 1908333287, -0.5565646, 0.6055977, -0.35619524, -0.44348013, -5.5356317, 0.29032254, -7.554093, 0
1570, 1908349954, -0.5752297, 0.57314765, -0.3429047, -0.47232533, -4.501696, -0.2625443, -5.423336, 0
1571, 1908366621, -0.59425074, 0.541214, -0.32703218, -0.4970572, -2.9715517, -6.687804, -1.9865379, 0
1573, 1908399955, -0.6279708, 0.47248486, -0.28700322, -0.54781586, 1.4267813, -8.610683, 2.7115393, 0
1576, 1908449956, -0.6544072, 0.3557115, -0.25363055, -0.61721504, 5.5117707, -2.835073, 5.440093, 0
1577, 1908466623, -0.6529774, 0.3189239, -0.25060433, -0.6396625, 5.943833, -4.6115794, 10.918018, 0
1578, 1908483290, -0.64537036, 0.28068924, -0.24755563, -0.66594994, 4.837592, -4.6039896, 12.606895, 0
1580, 1908516624, -0.61709154, 0.19848405, -0.24045178, -0.72252846, -0.24728054, 1.7723788, 12.349287, 0
1581, 1908533291, -0.6016716, 0.1587884, -0.2318927, -0.74770683, 0.05963292, 4.1066194, 13.521788, 0
1582, 1908549958, -0.58729106, 0.12107238, -0.21827278, -0.76996744, 1.0332611, 5.045777, 12.536709, 0
1584, 1908583292, -0.5572485, 0.05223287, -0.18824703, -0.80707574, 4.0313807, 6.6449375, 9.487099, 0
1585, 1908599959, -0.53947854, 0.02273767, -0.17517202, -0.82330024, 2.7876832, 8.550552, 6.5171165, 0
1586, 1908616626, -0.52092505, -0.0011859722, -0.16391964, -0.837752, 1.5474329, 10.092499, 3.8360872, 0
1588, 1908649960, -0.49350768, -0.02717739, -0.14467803, -0.8572296, -2.081846, 11.643998, -1.7892761, 0
1589, 1908666627, -0.48618072, -0.03352638, -0.1428149, -0.8614931, -1.2872816, 11.966776, -1.8784027, 0
1590, 1908683294, -0.48133367, -0.03905657, -0.14156911, -0.86418355, 1.8472254, 14.524595, 3.209402, 0
1592, 1908716628, -0.47410363, -0.050966945, -0.1327461, -0.868947, 0.8527885, 11.301136, -4.141715, 0
1593, 1908733295, -0.47166026, -0.053201407, -0.13170174, -0.87030077, 0.5686635, 10.113459, -5.915098, 0
1594, 1908749962, -0.46888483, -0.052808028, -0.13469684, -0.8713654, 0.8546994, 9.556762, -5.9318256, 0
1596, 1908783296, -0.4591759, -0.04372988, -0.14728817, -0.87499356, 2.9993303, 10.597377, -3.916873, 0
1597, 1908799963, -0.45204103, -0.037045944, -0.15138608, -0.8783115, 3.4960291, 11.642568, -2.8326554, 0
1598, 1908816630, -0.44348657, -0.030637722, -0.15219516, -0.8827685, 2.8220682, 11.755872, -3.7741456, 0
1600, 1908849964, -0.42540908, -0.018085968, -0.15197305, -0.8920015, 0.3349224, 12.727262, -7.281167, 0
1603, 1908899965, -0.41195515, -0.012472559, -0.17112857, -0.89493847, -1.1425937, 18.526217, -10.082918, 0
1604, 1908916632, -0.41521785, -0.014844298, -0.18452704, -0.8907221, -1.0451374, 23.38952, -9.87422, 0
1605, 1908933299, -0.42313838, -0.0166637, -0.19750017, -0.8841562, 2.506176, 24.499413, -11.757743, 0
1607, 1908966633, -0.44889414, 0.009218343, -0.22481412, -0.8648294, 6.2429256, 27.775896, -6.2537527, 0
1608, 1908983300, -0.45782658, 0.031192418, -0.2448193, -0.8541357, 9.567011, 26.914118, -4.0770206, 0
1609, 1908999967, -0.4629105, 0.06307502, -0.27104238, -0.8416257, 5.8834934, 27.834927, -6.351144, 0
1611, 1909033301, -0.49595803, 0.16588572, -0.29067892, -0.80129623, 5.835208, 42.012005, 68.94049, 0
1612, 1909049968, -0.52553403, 0.17165695, -0.24487771, -0.79652053, -24.096725, 5.01548, 1.5817633, 0
1615, 1909099969, -0.52255064, 0.3339711, -0.29819602, -0.7256346, -1.1711316, -6.717487, 9.512482, 0
1616, 1909116636, -0.5148995, 0.40619296, -0.32540268, -0.6812203, 0.4225593, -10.67792, 5.35489, 0
1619, 1909166637, -0.4846326, 0.5921448, -0.42235208, -0.48598054, -1.9648559, -22.271116, 11.751184, 0
1620, 1909183304, -0.46206367, 0.6406428, -0.4512264, -0.4153688, 10.877001, -37.180775, 12.268381, 0
1621, 1909199971, -0.4069592, 0.6844355, -0.46879297, -0.38239765, 16.802189, -91.87175, 36.651073, 0
1623, 1909233305, -0.33113486, 0.71970224, -0.44093478, -0.42192093, -13.015744, 18.706308, 7.246855, 0
1624, 1909249972, -0.34283927, 0.72717696, -0.45164955, -0.38697553, 7.8239994, -18.987791, 6.4209785, 0
1625, 1909266639, -0.3494323, 0.7328516, -0.45228362, -0.3692255, 7.320379, -25.624573, 0.0013389587, 0
1627, 1909299973, -0.37175542, 0.7384082, -0.45268825, -0.33419615, -3.2873738, -16.428898, -7.5707808, 0
1628, 1909316640, -0.3936519, 0.73424244, -0.45903528, -0.30866683, -4.0322666, -17.183512, -10.453742, 0
1629, 1909333307, -0.4185019, 0.7288499, -0.46182978, -0.2835659, -4.3919096, -16.560959, -12.564588, 0
1631, 1909366641, -0.47178876, 0.7155613, -0.45083892, -0.2493874, -4.0126014, -18.791277, -16.420895, 0
1634, 1909416642, -0.5124556, 0.70615566, -0.39835936, -0.2830294, -2.1340928, -8.620906, -16.590212, 0
1635, 1909433309, -0.52193767, 0.6995015, -0.3817237, -0.30434847, -2.396349, -8.425236, -15.399103, 0
1636, 1909449976, -0.53235793, 0.68841606, -0.3663196, -0.3294707, -2.0807958, -7.976429, -14.580451, 0
1638, 1909483310, -0.55650204, 0.6499409, -0.33977425, -0.39051014, -2.5022926, -7.2049594, -11.443574, 0
1639, 1909499977, -0.57020146, 0.6222472, -0.32827204, -0.42423898, -2.2344558, -5.56198, -10.042754, 0
1640, 1909516644, -0.58409375, 0.59179723, -0.3179282, -0.45562547, -2.2247844, -3.1600516, -8.83543, 0
1642, 1909549978, -0.6117383, 0.52432144, -0.3022293, -0.50949293, -2.8885832, -8.25914, -3.4288163, 0
1643, 1909566645, -0.6235449, 0.48915648, -0.29196405, -0.5354781, -2.49365, -9.650181, 1.6676378, 0
1644, 1909583312, -0.63566417, 0.45063072, -0.27964327, -0.56100357, -0.41497976, -8.436531, 4.121587, 0
1646, 1909616646, -0.6569939, 0.36540112, -0.26260394, -0.60493195, 1.6167194, -4.2243, 6.0734463, 0
1648, 1909649980, -0.6620287, 0.28866774, -0.25722986, -0.64209354, 5.7742505, -4.846673, 12.960331, 0
1650, 1909683314, -0.63895994, 0.21221349, -0.25318953, -0.69473225, 1.9701006, -0.010413916, 13.719563, 0
1651, 1909699981, -0.6196499, 0.17405787, -0.2492304, -0.72366047, 1.0124764, 2.884165, 12.558895, 0
1652, 1909716648, -0.5984531, 0.13863915, -0.24140649, -0.7512779, -0.8619865, 5.613213, 11.5596695, 0
1654, 1909749982, -0.5574582, 0.07378042, -0.21620663, -0.7981942, -0.083551, 6.9271274, 9.15239, 0
1655, 1909766649, -0.5384547, 0.04753918, -0.2003115, -0.81715614, 1.4499841, 7.5295086, 7.799343, 0
1656, 1909783316, -0.52075285, 0.024413515, -0.18485616, -0.8331332, 1.3421862, 10.184984, 7.735485, 0
1658, 1909816650, -0.4914869, -0.019573957, -0.16475713, -0.8549707, -0.5824879, 11.565247, -0.20238209, 0
1659, 1909833317, -0.4821453, -0.033624712, -0.16004184, -0.86072886, -0.9110909, 10.6753845, -2.9895034, 0
1661, 1909866651, -0.471718, -0.044690862, -0.1551674, -0.86687386, 1.1077136, 13.21143, 1.2580423, 0
1662, 1909883318, -0.46828333, -0.04784396, -0.15167482, -0.8691828, 0.031796534, 12.115549, -1.5188656, 0
1663, 1909899985, -0.46474487, -0.049206432, -0.1513057, -0.87106824, 0.24389547, 10.547337, -4.3103695, 0
1665, 1909933319, -0.45337895, -0.045355976, -0.1591468, -0.8758567, 1.0283974, 10.610089, -3.0679603, 0
