sep=,
DeviceTag:,Xsens_DOT_3,,,,,,,,,,,,,,,,,
FirmwareVersion:,3.0.0,,,,,,,,,,,,,,,,,
AppVersion:,2023.6.1,,,,,,,,,,,,,,,,,
SyncStatus:,Synced,,,,,,,,,,,,,,,,,
OutputRate:,60Hz,,,,,,,,,,,,,,,,,
FilterProfile:,General,,,,,,,,,,,,,,,,,
Measurement Mode:,Sensor fusion Mode - Extended (Quaternion),,,,,,,,,,,,,,,,,
StartTime:,2025-05-05 11:38:09.190 +0200,,,,,,,,,,,,,,,,,
 2025,,,,,,,,,,,,,,,,,,,

PacketCounter,SampleTimeFine,Quat_W,Quat_X,Quat_Y,Quat_Z,FreeAcc_X,FreeAcc_Y,FreeAcc_Z,Status
1, 1882199431, 0.65766394, 0.18101954, -0.6910788, 0.2390035, 0.11436695, -0.016464652, 0.045598984, 0
2, 1882216098, 0.6576153, 0.18107627, -0.6910595, 0.23914987, 0.15349975, -0.04070942, 0.03873825, 0
3, 1882232765, 0.65763944, 0.18106897, -0.69100475, 0.23924713, 0.13470009, -0.051868863, 0.03990364, 0
4, 1882249432, 0.65764326, 0.18111828, -0.69093615, 0.23939787, 0.15266515, -0.042851064, 0.027641296, 0
5, 1882266099, 0.65766215, 0.18122377, -0.690823, 0.23959279, 0.12084809, -0.03000125, -0.0021533966, 0
6, 1882282766, 0.6576714, 0.18140666, -0.69068587, 0.2398242, 0.1300461, -0.021083027, 0.014169693, 0
7, 1882299433, 0.6576362, 0.18166025, -0.690575, 0.24004796, 0.09410834, -0.02028883, 0.053178787, 0
8, 1882316100, 0.6576243, 0.18195382, -0.6904174, 0.24031107, 0.10176232, 0.01287077, 0.075143814, 0
9, 1882332767, 0.65766025, 0.18214846, -0.69024765, 0.24055271, 0.20443791, 0.06575662, 0.111691475, 0
10, 1882349434, 0.6576581, 0.18233714, -0.6901248, 0.24076837, 0.21892379, -0.023462044, 0.018574715, 0
11, 1882366101, 0.65764904, 0.18256456, -0.69001013, 0.24094881, 0.13688381, 0.0054737204, 0.061764717, 0
12, 1882382768, 0.6576328, 0.18271503, -0.6899434, 0.24107067, 0.09125184, 0.03077628, -0.013462067, 0
13, 1882399435, 0.65766984, 0.18287629, -0.68981725, 0.241208, 0.101041265, -0.038394943, -0.014007568, 0
14, 1882416102, 0.65769583, 0.18304047, -0.6897048, 0.24133441, 0.09339757, -0.08953873, -0.0013904572, 0
15, 1882432769, 0.65767574, 0.18325737, -0.6896252, 0.24145208, 0.09914945, -0.037533693, -0.010530472, 0
16, 1882449436, 0.65762883, 0.18344519, -0.689584, 0.24155448, 0.09055225, -0.041262615, -0.009192467, 0
17, 1882466103, 0.6575646, 0.18364564, -0.68953526, 0.24171643, 0.10929798, -0.032181364, -0.03668785, 0
18, 1882482770, 0.657524, 0.18378079, -0.6894937, 0.24184218, 0.08714323, -0.06640771, 0.021263123, 0
19, 1882499437, 0.65750676, 0.18386458, -0.6894687, 0.24189685, 0.09846327, -0.06677377, 0.060946465, 0
20, 1882516104, 0.65749806, 0.18391234, -0.68945426, 0.24192508, 0.10073461, -0.017786602, 0.08540344, 0
21, 1882532771, 0.657473, 0.18390545, -0.68947005, 0.24195392, 0.13978009, 0.031675473, 0.035697937, 0
22, 1882549438, 0.6574575, 0.18386108, -0.68948084, 0.24199885, 0.099883914, -0.017210498, 0.016207695, 0
23, 1882566105, 0.65742326, 0.18378744, -0.6895503, 0.24195006, 0.11651105, -0.029870719, 0.033899307, 0
24, 1882582772, 0.65737736, 0.18367384, -0.68965816, 0.2418534, 0.10932734, -0.06575108, 0.002904892, 0
25, 1882599439, 0.6573638, 0.18350336, -0.6897659, 0.24171287, 0.138747, -0.04495952, 0.0038747787, 0
26, 1882616106, 0.65736777, 0.18333295, -0.6898717, 0.24152935, 0.16000935, -0.04968967, 0.02235794, 0
27, 1882632773, 0.65731794, 0.18313974, -0.6900617, 0.24126849, 0.15302859, -0.034911774, 0.032442093, 0
28, 1882649440, 0.6572164, 0.18294962, -0.69031423, 0.24096635, 0.09420848, -0.10414044, -0.013441086, 0
29, 1882666107, 0.65702564, 0.18283285, -0.6906055, 0.24074098, 0.05982324, -0.09294574, -0.0385046, 0
30, 1882682774, 0.6568042, 0.18285504, -0.6908631, 0.24058855, 0.082007796, -0.21329853, -0.024766922, 0
31, 1882699441, 0.6566129, 0.1830104, -0.6910245, 0.24052945, 0.0056682886, -0.09475005, -0.032042503, 0
32, 1882716108, 0.6564789, 0.18323661, -0.6910944, 0.2405225, 0.03485282, -0.18196765, -0.05234146, 0
33, 1882732775, 0.6563433, 0.18349063, -0.69111943, 0.24062699, 0.03315323, -0.16334176, -0.006621361, 0
34, 1882749442, 0.6562509, 0.18371485, -0.6910679, 0.24085578, 0.067121826, -0.122956984, 4.940033E-4, 0
35, 1882766109, 0.6562573, 0.1837757, -0.690957, 0.24110995, 0.10664742, -0.10858388, 0.057465553, 0
36, 1882782776, 0.656375, 0.18374753, -0.69075817, 0.24138045, 0.1577474, -0.07545641, 0.14228725, 0
37, 1882799443, 0.6566686, 0.18367083, -0.6904192, 0.24160998, 0.21784198, -0.010551488, 0.24241447, 0
38, 1882816110, 0.6569702, 0.1835803, -0.69009185, 0.24179359, 0.139342, -0.021524409, 0.23679733, 0
39, 1882832777, 0.65726, 0.18348159, -0.6898094, 0.24188755, 0.13964106, -0.039535195, 0.12437153, 0
40, 1882849444, 0.6574277, 0.18340322, -0.6896858, 0.24184303, 0.050024435, -0.0112599125, 0.021414757, 0
41, 1882866111, 0.65752095, 0.18329889, -0.6896764, 0.24169531, 0.023270829, 0.09654787, -0.09364128, 0
42, 1882882778, 0.6577012, 0.18300934, -0.6896571, 0.2414794, 0.086579084, 0.14244023, -0.07612133, 0
43, 1882899445, 0.6578274, 0.18270238, -0.6896902, 0.24127355, 0.16213451, -0.011881166, -0.13403606, 0
44, 1882916112, 0.65782547, 0.1824774, -0.6898398, 0.24102117, 0.19470169, -0.02767677, -0.085199356, 0
45, 1882932779, 0.6577451, 0.18225904, -0.6900531, 0.24079497, 0.11752892, -0.07381532, -0.07872391, 0
46, 1882949446, 0.65760916, 0.1822379, -0.69017494, 0.24083321, 0.114086375, -0.111681715, -0.08889103, 0
47, 1882966113, 0.65744704, 0.18215409, -0.6903655, 0.24079302, 0.13745645, -0.13650456, -0.02338314, 0
48, 1882982780, 0.65720695, 0.18216391, -0.6905922, 0.24079049, 0.10439709, -0.157813, 0.04386711, 0
50, 1883016114, 0.656687, 0.18247022, -0.6910152, 0.24076398, 0.15660478, -0.18065579, 0.10294342, 0
51, 1883032781, 0.65645814, 0.18273169, -0.69116336, 0.24076428, 0.1368029, -0.16726273, 0.088207245, 0
53, 1883066115, 0.6561434, 0.18328926, -0.6912917, 0.24083027, 0.07577849, -0.15940866, 0.040781975, 0
54, 1883082782, 0.6559948, 0.18359414, -0.69131327, 0.24094102, 0.094821796, -0.100111395, 0.0075645447, 0
55, 1883099449, 0.6558423, 0.18388797, -0.69131285, 0.24113306, 0.14207423, -0.08566111, 0.002120018, 0
57, 1883132783, 0.6556618, 0.18435457, -0.69120884, 0.2415656, 0.1636012, 0.013974365, -0.027914047, 0
58, 1883149450, 0.6556375, 0.18443188, -0.6911881, 0.24163164, 0.08743425, 0.011145362, -0.02227974, 0
59, 1883166117, 0.6555989, 0.18452463, -0.6911784, 0.24169326, 0.095398456, 0.029739292, 0.009263039, 0
61, 1883199451, 0.6555461, 0.18457717, -0.6912009, 0.24173217, 0.07439227, -0.01923206, 3.3664703E-4, 0
63, 1883232785, 0.6554096, 0.18465418, -0.6912583, 0.24187933, 0.07333996, -0.05665489, -0.020449638, 0
66, 1883282786, 0.6550416, 0.18494898, -0.69143856, 0.24213555, 0.15122215, 0.005715785, 0.044768333, 0
67, 1883299453, 0.65496373, 0.18507853, -0.6914096, 0.24233025, 0.16001539, -0.008663848, 0.08005524, 0
69, 1883332787, 0.6546658, 0.18560265, -0.69139403, 0.24277787, 0.116440415, -0.005942539, 0.009007454, 0
70, 1883349454, 0.65452266, 0.18584709, -0.6913857, 0.24300067, 0.111286655, 0.0045784395, -0.0031700134, 0
72, 1883382788, 0.6542898, 0.18618357, -0.69142747, 0.24325095, 0.068384685, 0.045357037, 0.10343838, 0
74, 1883416122, 0.65427244, 0.1862303, -0.69145757, 0.24317636, 0.08149417, 0.061147332, 0.0190382, 0
78, 1883482790, 0.6541839, 0.18502274, -0.69241965, 0.2415937, 0.018053142, 0.06533787, 0.057468414, 0
81, 1883532791, 0.6544424, 0.1827522, -0.6936962, 0.23894516, -0.066397205, 0.040833917, 0.040877342, 0
82, 1883549458, 0.6546879, 0.18176973, -0.6940451, 0.23800716, -0.1297229, -0.038820513, 0.047620773, 0
84, 1883582792, 0.6551989, 0.17985529, -0.6945867, 0.2364711, -0.10696123, -0.07875166, 0.05853367, 0
88, 1883649460, 0.656463, 0.1771633, -0.69484884, 0.234216, 0.0033062038, 0.031397033, 0.037765503, 0
89, 1883666127, 0.65691036, 0.17662916, -0.69472605, 0.23372887, 0.0014336121, 0.01977, -0.011892319, 0
90, 1883682794, 0.65728164, 0.17619401, -0.69462544, 0.23331252, -0.0039266758, -0.05295927, -0.008134842, 0
92, 1883716128, 0.6578491, 0.17569512, -0.6944127, 0.2327216, 0.019917687, -0.16010697, -0.080275536, 0
93, 1883732795, 0.65821046, 0.17545593, -0.69420403, 0.2325032, 0.05531901, -0.15910502, -0.010978699, 0
94, 1883749462, 0.6585646, 0.17527016, -0.69398046, 0.23230717, 0.028192583, -0.17928052, 0.047792435, 0
96, 1883782796, 0.65912616, 0.17503871, -0.69366705, 0.23182447, 0.12771352, -0.1649796, 0.061956406, 0
97, 1883799463, 0.65928996, 0.17505376, -0.69354874, 0.23170143, 0.12055171, -0.1003904, 0.037522316, 0
101, 1883866131, 0.66019315, 0.17506567, -0.6927513, 0.2315062, 0.16815774, -0.0856472, 0.026123047, 0
105, 1883932799, 0.6610651, 0.17508993, -0.69210327, 0.23093754, 0.21661043, 0.032798234, -0.05435753, 0
107, 1883966133, 0.66119075, 0.17505814, -0.6920263, 0.23083246, 0.22073603, 0.020941824, 0.06769276, 0
108, 1883982800, 0.66123015, 0.1749402, -0.69201803, 0.23083356, 0.18653229, -0.14450023, 0.07239723, 0
109, 1883999467, 0.66129285, 0.17475086, -0.6920204, 0.23079014, 0.14048415, -0.13840638, 0.15173817, 0
111, 1884032801, 0.66159505, 0.17410618, -0.69200104, 0.23046935, 0.2713322, 0.0050705033, 0.19778252, 0
112, 1884049468, 0.66186774, 0.17382331, -0.69193745, 0.2300911, 0.21494213, -0.056053363, 0.13394928, 0
113, 1884066135, 0.66206825, 0.17362186, -0.6919875, 0.22951454, 0.15057576, -0.049353562, 0.07583332, 0
116, 1884116136, 0.66238, 0.1725366, -0.69269335, 0.22729346, 0.05169768, 0.039123483, -0.23468399, 0
119, 1884166137, 0.6625362, 0.17102373, -0.69349027, 0.22554494, 0.18385148, 0.039753903, -0.20648766, 0
121, 1884199471, 0.6626525, 0.17004278, -0.69372344, 0.2252278, 0.10194024, -0.17692894, 0.019947052, 0
124, 1884249472, 0.6626202, 0.16977623, -0.6936815, 0.22565255, 0.1107234, -0.29043168, 0.2442627, 0
126, 1884282806, 0.66296077, 0.1699062, -0.69310164, 0.2263351, 0.116309434, 0.052243806, 0.23381329, 0
142, 1884549478, 0.663671, 0.16958621, -0.6931172, 0.22443765, -0.19269857, -0.22477022, 0.019337654, 0
143, 1884566145, 0.66384554, 0.16903171, -0.69330686, 0.22375302, 0.008533725, -0.42527822, 0.23634338, 0
144, 1884582812, 0.66384786, 0.16859359, -0.6935678, 0.22326787, 0.15092176, -0.25726572, 0.2198267, 0
151, 1884699481, 0.6652948, 0.16657609, -0.69319904, 0.22161365, 0.14845283, -0.048380498, -0.0649147, 0
155, 1884766149, 0.6647915, 0.16867912, -0.6925585, 0.22352836, 0.12724459, 0.18785101, -0.1557455, 0
157, 1884799483, 0.6643565, 0.1699532, -0.69223076, 0.22486761, 0.065742314, -0.28123814, -0.02327156, 0
158, 1884816150, 0.6641815, 0.1703917, -0.69207513, 0.22553092, 0.06413704, -0.26432973, 0.15906143, 0
161, 1884866151, 0.6646808, 0.17049898, -0.6914533, 0.22588632, 0.021407625, -0.11176475, 0.5419302, 0
165, 1884932819, 0.66620433, 0.16896003, -0.69122946, 0.22322355, 0.015150602, -0.10839753, -0.48777103, 0
166, 1884949486, 0.6666707, 0.16865076, -0.69089246, 0.22310814, 0.15163326, -0.09843858, -0.4104662, 0
167, 1884966153, 0.66683334, 0.16852745, -0.69067764, 0.22337998, 0.23578471, -0.013018121, -0.26740837, 0
169, 1884999487, 0.6663672, 0.16910239, -0.69060785, 0.22454908, 0.28338715, 0.11059399, -0.060982704, 0
175, 1885099489, 0.66524065, 0.17126213, -0.6904635, 0.22668695, -0.02996057, -0.23887913, 0.2812357, 0
177, 1885132823, 0.6653279, 0.17185155, -0.6901167, 0.22704037, -0.16613315, -0.26493013, 0.111011505, 0
178, 1885149490, 0.6651618, 0.17234123, -0.690079, 0.22727065, -0.09179096, -0.07409281, -0.11972904, 0
180, 1885182824, 0.66504425, 0.17276517, -0.68998176, 0.22758758, 0.18759175, 0.26870748, -0.28015232, 0
181, 1885199491, 0.6653109, 0.17274213, -0.6896952, 0.22769412, 0.19415453, 0.3143593, -0.3646698, 0
184, 1885249492, 0.66580254, 0.1726936, -0.68924373, 0.22766061, 0.18075001, -0.086151786, -0.0796814, 0
186, 1885282826, 0.6660869, 0.17258728, -0.6890414, 0.22752234, 0.103221856, -0.10113576, 0.190588, 0
188, 1885316160, 0.66593367, 0.17294468, -0.68913704, 0.22740972, 0.02205626, -0.26731792, 0.19128609, 0
192, 1885382828, 0.6657663, 0.1735281, -0.6893503, 0.22680837, -0.012561875, 0.043036636, -0.027301788, 0
193, 1885399495, 0.6656995, 0.17353505, -0.68946666, 0.22664562, -0.046842504, 0.048931234, -0.06817627, 0
194, 1885416162, 0.6656897, 0.1734529, -0.6895563, 0.22646427, 0.040021785, 0.087662175, -0.1480236, 0
196, 1885449496, 0.6657847, 0.17334148, -0.6896622, 0.22594681, 0.032518454, 0.006515682, -0.06790352, 0
201, 1885532831, 0.66567564, 0.17448907, -0.6897161, 0.22521925, -0.064055234, -0.11942934, 0.01057148, 0
202, 1885549498, 0.66548955, 0.1747602, -0.68973434, 0.22550309, 0.023402253, -0.12916265, 0.10170078, 0
205, 1885599499, 0.66455287, 0.17583168, -0.6900418, 0.22648972, -0.101349264, -0.1594024, 0.036813736, 0
207, 1885632833, 0.6641795, 0.17642662, -0.69018406, 0.22668889, -0.06528277, -0.035830636, -0.00863266, 0
208, 1885649500, 0.6641368, 0.17661741, -0.6901698, 0.2267085, -0.040276587, 0.04891011, -0.08149433, 0
211, 1885699501, 0.6639815, 0.17619756, -0.6905286, 0.22639771, 0.015156413, 0.027651627, 0.052565575, 0
212, 1885716168, 0.66388804, 0.17595574, -0.69079053, 0.22606038, 0.5529219, 0.04931914, 1.3130083, 0
213, 1885732835, 0.65188706, 0.17944089, -0.699831, 0.2303983, -8.593358, -1.4637033, 11.309322, 1024
215, 1885766169, 0.6152576, 0.20858489, -0.71783966, 0.25031793, -1.57926, -4.5426006, -4.949264, 0
217, 1885799503, 0.6214491, 0.20294726, -0.71522856, 0.24711122, 0.16742149, -2.3622158, -1.973824, 0
220, 1885849504, 0.65178245, 0.19115534, -0.694206, 0.2381595, 0.31013092, -0.7673124, 2.2036018, 0
221, 1885866171, 0.6535769, 0.19250408, -0.69232976, 0.23761605, -0.011822942, -0.94839364, 1.0713968, 0
223, 1885899505, 0.6538473, 0.19525751, -0.691079, 0.23826587, -0.67249596, -0.34091896, 0.5284662, 0
227, 1885966173, 0.65813154, 0.19530459, -0.6877506, 0.23605216, -0.9613279, 0.5392308, -0.47743225, 0
228, 1885982840, 0.659734, 0.19376582, -0.68702364, 0.23496129, -0.80823046, 0.45151976, -0.4671135, 0
229, 1885999507, 0.661144, 0.19209063, -0.6865356, 0.23379737, -0.5977912, 0.26120183, -0.382205, 0
232, 1886049508, 0.6647805, 0.18790027, -0.68541133, 0.2301614, 0.2279968, -0.17360696, -0.19888115, 0
235, 1886099509, 0.66683555, 0.18702817, -0.68435174, 0.22807063, 0.36555767, -0.38320157, 0.40302658, 0
236, 1886116176, 0.666568, 0.18688393, -0.6845971, 0.22823465, 0.37538958, -0.3974282, 0.31651402, 0
238, 1886149510, 0.6657734, 0.18710007, -0.68496555, 0.22926895, 0.2589894, -0.28215298, -0.018994331, 0
239, 1886166177, 0.6655023, 0.18751648, -0.6848725, 0.22999202, 0.19379511, -0.26737514, 0.0024147034, 0
240, 1886182844, 0.66533166, 0.18798476, -0.6847092, 0.23058946, 0.17184973, -0.15349294, -0.025409698, 0
242, 1886216178, 0.66511744, 0.18885136, -0.68434495, 0.2315783, 0.045040097, 0.10315995, -0.057077408, 0
244, 1886249512, 0.66486394, 0.1894654, -0.684348, 0.23179547, 0.023743782, 0.23845078, -0.05657482, 0
246, 1886282846, 0.6647398, 0.18945977, -0.68452823, 0.23162377, 0.042311896, 0.17526668, 0.063565254, 0
247, 1886299513, 0.6647497, 0.18925004, -0.6846071, 0.23153369, 0.11063355, 0.052393, 0.17764854, 0
248, 1886316180, 0.6646986, 0.18898901, -0.68480164, 0.23131847, 0.15383652, -0.18210943, 0.13203907, 0
250, 1886349514, 0.6646182, 0.18839456, -0.68521935, 0.23079708, 0.122177996, -0.027480917, 0.03876114, 0
251, 1886366181, 0.6645988, 0.18806757, -0.6853817, 0.23063707, 0.07933637, -0.09804887, -0.015648842, 0
252, 1886382848, 0.66464454, 0.18776216, -0.6854416, 0.2305764, 0.12803313, -0.09588784, 0.022792816, 0
254, 1886416182, 0.6650389, 0.18750213, -0.6850659, 0.23076713, 0.14074923, -0.024372635, 0.0038404465, 0
255, 1886432849, 0.6651839, 0.18730833, -0.6849249, 0.23092495, 0.11900992, 0.019290062, 0.002858162, 0
256, 1886449516, 0.6652164, 0.18711855, -0.6848848, 0.23110406, 0.078501776, 0.072825104, 0.02093029, 0
261, 1886532851, 0.664319, 0.18657893, -0.6856468, 0.23186138, 0.082157105, 0.030141504, 0.09825325, 0
262, 1886549518, 0.6642721, 0.18640122, -0.68575686, 0.23181301, 0.07375212, -0.006989697, 0.03775692, 0
263, 1886566185, 0.6643105, 0.18614694, -0.6858043, 0.23176701, 0.0908388, -0.0015459274, -0.04203987, 0
265, 1886599519, 0.66449064, 0.18530972, -0.68592256, 0.23157117, -0.015045989, 0.050544646, 0.094937325, 0
266, 1886616186, 0.66451246, 0.18476273, -0.6861114, 0.23138605, 0.016079076, -0.037579346, 0.05086994, 0
267, 1886632853, 0.6644827, 0.18425113, -0.68636113, 0.23113906, -0.04317913, -0.12239983, 0.0024366379, 0
269, 1886666187, 0.6644454, 0.18311253, -0.68696094, 0.23036811, -0.10801532, -0.09696338, -0.05545044, 0
270, 1886682854, 0.664436, 0.18230942, -0.6872736, 0.23009941, -0.0111769885, -0.11363728, -0.010966301, 0
271, 1886699521, 0.66446406, 0.18163483, -0.68751895, 0.22981839, 0.046163026, 0.039591633, -0.028524399, 0
273, 1886732855, 0.6645975, 0.18055767, -0.6878844, 0.22918701, 0.12066258, -0.14049326, 0.014881134, 0
275, 1886766189, 0.66457045, 0.17998391, -0.68830913, 0.2284406, 0.024527417, -0.09518193, -0.010551453, 0
277, 1886799523, 0.66401887, 0.1799677, -0.6889283, 0.22819063, -0.1237551, -0.28415555, 0.15620041, 0
278, 1886816190, 0.6635526, 0.18013889, -0.68927693, 0.22835898, -0.05044777, -0.38047928, 0.05015278, 0
285, 1886932859, 0.6627618, 0.17913832, -0.68982506, 0.22978294, -0.05023543, -0.152599, 0.07080364, 0
292, 1887049528, 0.59940183, 0.21288049, -0.7305267, 0.24846129, 1.8200371, -3.5713344, -3.5709238, 0
293, 1887066195, 0.6037372, 0.21256347, -0.7270431, 0.24845317, 1.6950433, -3.757835, -0.77100277, 0
294, 1887082862, 0.6087487, 0.21081266, -0.7240079, 0.24657279, -0.57300675, 0.2214791, -0.39210892, 0
296, 1887116196, 0.63101006, 0.198462, -0.7105297, 0.23997736, -0.2199202, 1.0766641, 1.5813885, 0
297, 1887132863, 0.6406122, 0.19437881, -0.7038062, 0.23768097, 0.093015365, 0.072643384, 2.2236052, 0
298, 1887149530, 0.64570475, 0.19267878, -0.69980997, 0.23708475, 0.10030123, -0.9954674, 1.235466, 0
301, 1887199531, 0.6492848, 0.19034436, -0.69737107, 0.23637755, -0.19157831, 0.37734026, 0.12785912, 0
302, 1887216198, 0.6502669, 0.19071312, -0.69655037, 0.23580033, -0.38325363, 0.4985358, -0.26962948, 0
304, 1887249532, 0.65350115, 0.19113204, -0.693681, 0.23497675, -0.44133347, -0.12618054, -0.29389763, 0
305, 1887266199, 0.65451324, 0.19125253, -0.6928178, 0.2346078, -0.43953958, -0.13938715, 0.011419296, 0
306, 1887282866, 0.6547745, 0.19156806, -0.6925761, 0.23433498, -0.35387465, -0.096839115, -0.15070629, 0
308, 1887316200, 0.6553986, 0.1917968, -0.6920793, 0.2338708, -0.00678183, 0.039988145, -0.19513226, 0
309, 1887332867, 0.6559096, 0.1918224, -0.6915999, 0.23383498, 0.036243968, -0.008571051, 0.13279152, 0
310, 1887349534, 0.65610033, 0.19186904, -0.6914433, 0.2337247, -0.0016253862, 0.0123546785, 0.29559135, 0
312, 1887382868, 0.65608495, 0.19185731, -0.6915978, 0.23332012, -0.050665915, -0.17754182, 0.24510193, 0
315, 1887432869, 0.65601665, 0.19233318, -0.6915392, 0.23329422, 0.15872593, -0.23712891, -0.014752388, 0
317, 1887466203, 0.65595645, 0.19298962, -0.69124, 0.2338081, -0.09371943, -0.1079077, -0.17291641, 0
319, 1887499537, 0.65570354, 0.19430739, -0.6908662, 0.23452935, -0.037203733, -0.01315262, -0.24502754, 0
320, 1887516204, 0.65576124, 0.19482538, -0.69054997, 0.23486948, -0.06429842, 0.06016589, -0.06937218, 0
323, 1887566205, 0.65546024, 0.19603445, -0.6902579, 0.23556091, 0.044888105, -0.056934115, 0.102534294, 0
324, 1887582872, 0.65530586, 0.19628924, -0.69029206, 0.23567814, 0.0042708856, -0.025159847, 0.108151436, 0
325, 1887599539, 0.6552065, 0.1964315, -0.6903634, 0.2356267, -0.017220331, -5.580001E-4, 0.11535072, 0
327, 1887632873, 0.65504557, 0.19668806, -0.6904948, 0.23547545, 0.062525064, -0.06507021, 0.034132957, 0
328, 1887649540, 0.6549436, 0.19668242, -0.69065404, 0.23529655, 0.07981558, -0.05337601, 0.028718948, 0
329, 1887666207, 0.65478677, 0.19661441, -0.6909146, 0.23502493, 0.05693188, 0.11672662, 0.03759384, 0
333, 1887732875, 0.65501136, 0.19585659, -0.6914347, 0.23349713, 0.18024756, 0.040445786, 0.013109207, 0
336, 1887782876, 0.6551613, 0.19616266, -0.6913204, 0.23315763, 0.09243959, -0.15692118, 0.100782394, 0
338, 1887816210, 0.654819, 0.19729567, -0.69125605, 0.23335403, 0.17762128, 0.022059388, 0.06441498, 0
339, 1887832877, 0.65474963, 0.19775905, -0.6911096, 0.23359028, 0.18626496, 0.19666861, 0.120765686, 0
340, 1887849544, 0.65459085, 0.19831753, -0.6909652, 0.23398882, 0.09812174, 0.1019817, 0.13210773, 0
342, 1887882878, 0.6540548, 0.19929487, -0.6910076, 0.23453113, 0.052039627, 0.033641383, -0.034810066, 0
343, 1887899545, 0.6537276, 0.19977902, -0.6910799, 0.23481871, 0.033274822, 0.089129254, -0.119423866, 0
344, 1887916212, 0.6535115, 0.20012274, -0.69111866, 0.23501305, -0.019586887, 0.16729565, -0.11373901, 0
346, 1887949546, 0.6529691, 0.20058283, -0.69145507, 0.23513901, -0.09596663, 0.095530555, -0.027152061, 0
347, 1887966213, 0.6525227, 0.20064582, -0.6919226, 0.23494928, -0.11944486, 0.1425622, -0.03905201, 0
350, 1888016214, 0.6518997, 0.20016412, -0.69293356, 0.23410876, 0.068504035, 0.11000715, 0.062737465, 0
352, 1888049548, 0.65200835, 0.199428, -0.6932147, 0.23360151, 0.018849742, -0.020248374, 0.20224762, 0
354, 1888082882, 0.6518175, 0.19876835, -0.6937423, 0.233129, -0.05906732, -0.0029975323, 0.055422783, 0
356, 1888116216, 0.6514976, 0.19831745, -0.69436824, 0.2325434, -0.0068479897, 0.081899844, -0.11452007, 0
358, 1888149550, 0.65136045, 0.1981756, -0.6947424, 0.23193036, -0.015465755, 0.030844117, -0.048407555, 0
359, 1888166217, 0.6514139, 0.1981785, -0.6947317, 0.23180929, 0.07024208, -0.09757179, -0.015129089, 0
362, 1888216218, 0.65054905, 0.19908911, -0.6950843, 0.23240009, 0.09030102, -0.14842948, 0.008004189, 0
363, 1888232885, 0.65013903, 0.19971153, -0.6951128, 0.23292726, 0.11901618, -0.030126752, 0.04210472, 0
364, 1888249552, 0.6498095, 0.20043641, -0.6949922, 0.2335833, 0.078405425, -0.10602863, 0.060689926, 0
366, 1888282886, 0.649395, 0.2021693, -0.69425833, 0.23541814, 0.26862592, -0.09306376, -0.042054176, 0
369, 1888332887, 0.6495495, 0.20567134, -0.6917379, 0.23934478, 0.3391322, -3.2264096E-4, 0.04431057, 0
370, 1888349554, 0.64982015, 0.20682457, -0.69063216, 0.240805, 0.35116345, 0.12217688, 0.1050148, 0
371, 1888366221, 0.64821476, 0.21035999, -0.68864673, 0.24765807, 14.000686, -0.29520065, 8.02425, 0
373, 1888399555, 0.5930092, 0.24866495, -0.72141606, 0.2570355, 3.2935512, 5.9844537, -18.430141, 0
374, 1888416222, 0.59651196, 0.24927422, -0.71943796, 0.25386468, 0.437735, -8.981882, -12.600904, 0
375, 1888432889, 0.5968984, 0.25019404, -0.7177368, 0.2568493, 3.6185791, -8.968875, -5.659068, 0
377, 1888466223, 0.6167181, 0.24615693, -0.70185506, 0.2578131, -2.2430596, 5.137843, 1.7257242, 0
378, 1888482890, 0.62833875, 0.24164604, -0.6926051, 0.25903395, -0.93435884, 4.517077, 7.499851, 0
379, 1888499557, 0.6350785, 0.23753737, -0.6882472, 0.25801137, -0.4848805, 0.076953724, 5.288002, 0
381, 1888532891, 0.64536643, 0.23534933, -0.680935, 0.25385615, 0.46502048, -1.5654219, 1.094348, 0
383, 1888566225, 0.6486419, 0.23704731, -0.6772623, 0.25375295, 0.082318924, -0.20100665, -0.24068642, 0
385, 1888599559, 0.65396786, 0.24028, -0.67058575, 0.25477242, -0.04979332, 0.043189634, -0.6039705, 0
386, 1888616226, 0.65727586, 0.24197227, -0.66643065, 0.2555596, -0.39794558, 0.63758636, -0.08124733, 0
387, 1888632893, 0.6603762, 0.24432385, -0.6619828, 0.2568862, -0.44304737, 0.17739955, 0.021416664, 0
389, 1888666227, 0.66527, 0.24820717, -0.6543168, 0.26015598, -0.7619834, 0.2176625, 0.19512558, 0
390, 1888682894, 0.66712, 0.24921557, -0.6514503, 0.26164407, -0.7515628, -0.02146395, -0.34739113, 0
391, 1888699561, 0.6688844, 0.25026393, -0.64872247, 0.2629131, -0.76132, -0.043206282, -0.6846037, 0
393, 1888732895, 0.6739413, 0.25436786, -0.6408338, 0.2653952, -0.23870468, 0.54435295, -0.7604227, 0
394, 1888749562, 0.6772838, 0.25600445, -0.6359709, 0.2670056, 0.058842916, 0.12906522, -0.19535637, 0
397, 1888799563, 0.6897701, 0.25602198, -0.62268853, 0.26632932, 0.315694, 1.1924021, -0.22049332, 0
400, 1888849564, 0.7098989, 0.24492522, -0.60618573, 0.2619096, -0.011386197, 1.6587764, -1.0172806, 0
401, 1888866231, 0.7172646, 0.23903057, -0.6002988, 0.26084468, -0.40781996, 1.3706656, -0.9421749, 0
402, 1888882898, 0.7242622, 0.23227909, -0.59484524, 0.2601005, -0.30194432, 1.1879141, -0.77003384, 0
404, 1888916232, 0.7380143, 0.20937438, -0.58628297, 0.26033092, -1.7523038, 0.555198, 0.18483257, 0
405, 1888932899, 0.74314725, 0.19426532, -0.5847639, 0.26085788, -2.600299, -0.16139603, 0.1512928, 0
406, 1888949566, 0.7482293, 0.17928527, -0.5834116, 0.26008317, -1.8221201, -1.6001803, -0.52396965, 0
408, 1888982900, 0.7635947, 0.1482863, -0.5770747, 0.24884082, -0.81348723, -0.56038207, -0.7846556, 0
409, 1888999567, 0.7724356, 0.13664863, -0.57032377, 0.24372911, -0.3948821, -0.2247426, 0.0498724, 0
410, 1889016234, 0.7796902, 0.12834698, -0.562869, 0.24246927, -0.12399113, -0.8920177, 2.1978245, 0
416, 1889116236, 0.8204643, 0.081995346, -0.5106671, 0.24359147, 3.863702, 0.50914454, 0.012106895, 0
417, 1889132903, 0.8249547, 0.078041, -0.5028522, 0.24597067, 3.8579333, 0.055712532, -0.29183483, 0
421, 1889199571, 0.84012353, 0.06673576, -0.47535414, 0.25254628, 2.663339, -0.12880345, -1.2498455, 0
423, 1889232905, 0.84504044, 0.06326182, -0.46426803, 0.25760907, 2.2816648, 0.024256716, -1.2254877, 0
424, 1889249572, 0.8469111, 0.06250769, -0.45914435, 0.26081285, 2.0400102, -0.20459649, -1.306447, 0
425, 1889266239, 0.84880763, 0.062668696, -0.45367688, 0.26415524, 1.6723045, -0.11571699, -1.4937716, 0
428, 1889316240, 0.85411364, 0.06615697, -0.4370932, 0.2739802, -0.08574203, 0.8044726, -2.5716214, 0
429, 1889332907, 0.8555403, 0.06613231, -0.4325442, 0.2767405, -0.3167438, 1.0913419, -3.1671576, 0
431, 1889366241, 0.8580077, 0.070299566, -0.42419872, 0.2809602, 1.7792892, 0.053811736, -3.4653635, 0
433, 1889399575, 0.86085683, 0.084166706, -0.4128747, 0.28526923, 2.6663113, -0.17797709, -2.028976, 0
437, 1889466243, 0.86238337, 0.0885542, -0.40649408, 0.2884757, 3.9111085, 1.5870186, -2.683795, 0
439, 1889499577, 0.86422974, 0.08535895, -0.40592873, 0.2846842, 6.2555757, 2.3040943, -0.532938, 0
440, 1889516244, 0.8644176, 0.08407294, -0.4057695, 0.28472397, 7.913798, 1.628958, 1.8492432, 0
443, 1889566245, 0.86428493, 0.07776939, -0.40580183, 0.28686395, 10.696838, 4.0823, 6.337801, 0
444, 1889582912, 0.8645728, 0.0787272, -0.4038684, 0.28845912, 11.165813, 4.061886, 8.241892, 0
445, 1889599579, 0.8646156, 0.07815299, -0.40248752, 0.29041043, 10.29491, 4.0121984, 9.821953, 0
447, 1889632913, 0.86522084, 0.0728344, -0.4023582, 0.29016954, 7.387718, 2.744585, 8.715668, 0
448, 1889649580, 0.8660469, 0.07096954, -0.40229708, 0.28824586, 6.4750166, 1.231476, 8.211031, 0
452, 1889716248, 0.86498076, 0.0684326, -0.4107098, 0.2800809, -0.62869096, -0.5701209, 3.342247, 0
454, 1889749582, 0.86371475, 0.0741067, -0.4146404, 0.27673265, -1.575493, 0.5567783, 3.1088943, 0
456, 1889782916, 0.8629709, 0.08404507, -0.41814995, 0.2708705, -0.9380729, 0.7050841, 0.52588844, 0
463, 1889899585, 0.85913426, 0.10363212, -0.44529933, 0.22991247, -0.089105465, -0.43829906, -3.255344, 0
464, 1889916252, 0.8582631, 0.10479282, -0.44969475, 0.22400928, -0.010785841, -1.0386242, -3.3565736, 0
466, 1889949586, 0.8564785, 0.1077228, -0.45670387, 0.21509191, -0.3752351, -1.0001311, -4.1087837, 0
467, 1889966253, 0.8557776, 0.11018139, -0.4590299, 0.2116575, -1.0679489, -0.63588566, -3.8250084, 0
468, 1889982920, 0.8544749, 0.11168719, -0.46275443, 0.2079892, -1.2431647, -0.70876724, -3.5324516, 0
470, 1890016254, 0.8514332, 0.11451969, -0.4714965, 0.19909884, -1.2141924, -0.45304585, -2.7896752, 0
473, 1890066255, 0.84592086, 0.116981685, -0.4831435, 0.1931533, -1.4573714, -0.86790466, -1.787754, 0
474, 1890082922, 0.8437028, 0.11879369, -0.48704436, 0.19194849, -1.5767751, -0.7088837, -0.8333082, 0
479, 1890166257, 0.82755387, 0.13624859, -0.5124194, 0.1844447, -2.5170212, 0.48161164, 0.35813427, 0
482, 1890216258, 0.81179166, 0.14727385, -0.53514975, 0.1814441, 0.17482826, 0.0564444, -0.3190508, 0
483, 1890232925, 0.8104762, 0.14785145, -0.5380522, 0.17824347, -1.3008288, 0.3605579, 0.067952156, 0
485, 1890266259, 0.8083693, 0.1458351, -0.54456633, 0.16947415, -1.8718821, -0.36157635, -1.3883276, 0
487, 1890299593, 0.80569416, 0.14666699, -0.5488419, 0.16769223, -0.28338268, -0.3842034, -1.5863934, 0
489, 1890332927, 0.8094985, 0.13873583, -0.544876, 0.16904931, -1.4668744, 1.3319445, -0.74265766, 0
491, 1890366261, 0.81430125, 0.13457087, -0.53384846, 0.18388177, -0.17915256, -1.7044857, -4.05397, 0
493, 1890399595, 0.8196901, 0.13842522, -0.5177725, 0.20214109, -0.53628135, 1.4136909, -2.3308206, 0
494, 1890416262, 0.8246303, 0.13186029, -0.5097479, 0.20677811, -0.229947, 1.9018981, -4.6093936, 0
497, 1890466263, 0.84342605, 0.13845381, -0.47228062, 0.21544436, -1.6534294, 0.67395025, -3.9014883, 0
502, 1890549598, 0.8661094, 0.122158706, -0.4229655, 0.23671633, 9.360956, 4.3686657, 3.73563, 0
504, 1890582932, 0.87199414, 0.122263335, -0.40477586, 0.24665143, 12.031949, 3.190387, 9.218552, 0
509, 1890666267, 0.884595, 0.07950281, -0.379604, 0.25898743, 7.422101, 1.1854186, 3.9445305, 0
512, 1890716268, 0.8873461, 0.04706571, -0.3841742, 0.2506283, -1.4760747, -1.6843494, -0.5780525, 0
513, 1890732935, 0.8872012, 0.04584379, -0.38514978, 0.24986964, -3.4175549, -3.0474164, 1.5023766, 0
514, 1890749602, 0.8872834, 0.048499595, -0.38473707, 0.24971187, -2.1761467, -0.97944754, 4.9642324, 0
516, 1890782936, 0.8879254, 0.053300627, -0.38442406, 0.24691781, -1.7070847, 0.6276114, 3.4161615, 0
517, 1890799603, 0.8882577, 0.057096384, -0.3844759, 0.24478416, -1.3062745, 0.038523715, 1.8787937, 0
518, 1890816270, 0.8881193, 0.060439873, -0.38515285, 0.243415, -1.0121506, -0.027030064, 0.14806652, 0
520, 1890849604, 0.88682085, 0.06537032, -0.38966262, 0.23966832, -0.3103909, -0.6471743, -1.000391, 0
522, 1890882938, 0.8852337, 0.068448104, -0.39732292, 0.23197708, -0.2786145, -0.3819971, -1.4233656, 0
524, 1890916272, 0.8824161, 0.07311565, -0.40609244, 0.22602503, -0.61100596, -0.9750388, -2.0866685, 0
525, 1890932939, 0.8801783, 0.077222, -0.41150016, 0.22359137, 0.12258099, -0.6416418, -1.9315376, 0
526, 1890949606, 0.87799704, 0.08055094, -0.41710004, 0.22059666, 0.14978385, -1.0983169, -2.521853, 0
528, 1890982940, 0.87291974, 0.0851508, -0.4306343, 0.21287857, -0.37583435, -0.3285782, -3.3102846, 0
531, 1891032941, 0.8659354, 0.09775318, -0.44556823, 0.20511466, -0.6722809, -0.42268845, -2.324512, 0
532, 1891049608, 0.8633868, 0.10184817, -0.45089698, 0.20219964, -0.96479344, -0.443238, -2.3012533, 0
533, 1891066275, 0.8605644, 0.10525806, -0.45623276, 0.20050906, -0.85508794, -0.78431565, -2.2033968, 0
535, 1891099609, 0.8548807, 0.11593563, -0.46576628, 0.1969836, -1.5196548, -0.9108356, -2.281187, 0
536, 1891116276, 0.85163844, 0.11950664, -0.47178096, 0.1945651, -1.6058974, -0.55870664, -1.519659, 0
539, 1891166277, 0.8433589, 0.1409266, -0.48212528, 0.19090116, -1.2892301, -0.56519747, -0.21007824, 0
540, 1891182944, 0.8400351, 0.14817937, -0.48645025, 0.18908435, -2.0148773, -0.05624022, -1.489706, 0
543, 1891232945, 0.82861954, 0.16517797, -0.50189203, 0.1849678, -0.6921919, 0.1232608, 0.695549, 0
544, 1891249612, 0.8263496, 0.16957027, -0.50427634, 0.18466285, -1.0899198, 0.1533623, 0.77328014, 0
545, 1891266279, 0.8241441, 0.17224833, -0.507447, 0.18334976, -1.0314841, 0.58621603, 1.0278673, 0
548, 1891316280, 0.81585956, 0.18439785, -0.517153, 0.18145487, -1.066978, 0.07255376, 0.43499947, 0
549, 1891332947, 0.8127049, 0.187442, -0.52135974, 0.18045157, -0.1905229, 1.122344, 0.41776657, 0
551, 1891366281, 0.8067733, 0.19399787, -0.5284471, 0.17952144, -0.8811712, 0.29648894, 0.017910957, 0
552, 1891382948, 0.8047698, 0.20074134, -0.528712, 0.18031791, -0.9474788, 0.21226522, -0.09152794, 0
553, 1891399615, 0.80202174, 0.20375101, -0.53227794, 0.1786877, -2.0145063, 0.69080245, -0.3885374, 0
556, 1891449616, 0.7937836, 0.2139538, -0.5416787, 0.17526542, 0.88787794, -0.36830297, -0.116975784, 0
558, 1891482950, 0.79071194, 0.21909513, -0.54449975, 0.17405328, 0.35495377, 0.2358921, 0.28246212, 0
559, 1891499617, 0.78886473, 0.21975335, -0.54743755, 0.17238232, 4.5328427E-4, 0.190638, -0.3489523, 0
560, 1891516284, 0.7867132, 0.22183686, -0.5497541, 0.17217351, 0.7301417, 0.88485205, -1.2240143, 0
562, 1891549618, 0.7841478, 0.22249512, -0.5527852, 0.1733193, -0.29820427, 0.49563572, -0.8039398, 0
564, 1891582952, 0.7859454, 0.21061437, -0.55541635, 0.17160068, -1.5573667, 0.3358784, -1.2005358, 0
566, 1891616286, 0.7887788, 0.19883114, -0.55588394, 0.17114228, -1.0227685, -0.2738136, -2.123588, 0
567, 1891632953, 0.790169, 0.19435568, -0.55507076, 0.17250437, -0.658017, -1.0329213, -2.4760427, 0
568, 1891649620, 0.79316044, 0.18726249, -0.5528498, 0.17374946, -1.207122, -0.66739994, -2.64745, 0
570, 1891682954, 0.8033283, 0.16675799, -0.54485273, 0.17318648, -1.4031913, -0.1613763, -3.600017, 0
571, 1891699621, 0.80933166, 0.1623965, -0.53619564, 0.17637002, -0.10459423, -0.13388923, -4.21205, 0
572, 1891716288, 0.81633884, 0.160029, -0.5244827, 0.18138991, -0.20052889, 1.0061717, -4.8354497, 0
574, 1891749622, 0.831701, 0.14719644, -0.5014468, 0.1875113, -0.09389891, 1.3104903, -6.199087, 0
575, 1891766289, 0.839645, 0.13456447, -0.49204305, 0.18650684, 0.81025434, 3.0561955, -7.6377115, 0
576, 1891782956, 0.8479384, 0.12636521, -0.47945672, 0.18749936, 0.11141774, 0.79460335, -5.2683797, 0
578, 1891816290, 0.857671, 0.13623473, -0.45283562, 0.20194817, 2.0302467, -1.7527173, 0.15285778, 0
579, 1891832957, 0.86060846, 0.12533, -0.4486729, 0.20576909, 5.856908, 1.6963731, 3.967268, 0
580, 1891849624, 0.8628622, 0.113732964, -0.44580808, 0.20926386, 11.329258, 5.7143636, 5.0955896, 0
582, 1891882958, 0.8685279, 0.10510219, -0.43473208, 0.21359609, 9.740649, 3.8559725, 11.075056, 0
587, 1891966293, 0.8797464, 0.043421146, -0.42316008, 0.21236512, 4.9766016, -2.7395232, 4.1150436, 0
589, 1891999627, 0.88247657, 0.029942136, -0.41967854, 0.2102647, -1.9205261, -4.169313, 5.218067, 0
590, 1892016294, 0.88418883, 0.030288745, -0.41561636, 0.21108872, -5.30354, -2.2106197, 6.0768833, 0
591, 1892032961, 0.8858415, 0.03050398, -0.41126746, 0.21264067, -4.6592045, 0.52791625, 7.54167, 0
593, 1892066295, 0.88793194, 0.031413708, -0.4076919, 0.2106655, -3.4642167, 1.5118904, 1.8861666, 0
594, 1892082962, 0.88842326, 0.03175807, -0.4077767, 0.20836589, -1.3315523, 0.5321317, 0.5304146, 0
595, 1892099629, 0.88855386, 0.0313022, -0.40913582, 0.2051889, 0.29453126, 0.08365247, -0.25761318, 0
598, 1892149630, 0.88786846, 0.035523687, -0.41545868, 0.19448504, 1.1500224, -2.6847644, -2.9279232, 0
599, 1892166297, 0.886687, 0.042170584, -0.41780633, 0.19351536, 1.008834, -3.2032459, -3.6736255, 0
601, 1892199631, 0.88265246, 0.06695619, -0.42113796, 0.19770405, 0.52767813, -1.9028319, -4.045294, 0
603, 1892232965, 0.8764346, 0.10344341, -0.42103186, 0.2095147, 0.21469827, -0.41619977, -2.659224, 0
605, 1892266299, 0.86891377, 0.13151196, -0.42639112, 0.21421155, -0.12998128, 1.2660568, -2.3438172, 0
606, 1892282966, 0.86555576, 0.1457896, -0.42821595, 0.21492319, -0.299424, 2.135928, -2.8503165, 0
607, 1892299633, 0.8620174, 0.16235529, -0.4291118, 0.21548177, -1.120255, 1.9964257, -1.7577658, 0
609, 1892332967, 0.85213625, 0.19790438, -0.4320501, 0.21916422, 1.0013323, 0.87191117, -1.4377222, 0
610, 1892349634, 0.8467032, 0.21112855, -0.4346124, 0.22278515, -0.104630664, 0.40304226, -0.09076023, 0
612, 1892382968, 0.83910555, 0.21896146, -0.44159073, 0.23012528, -1.1626594, 1.7539628, 3.958684, 0
613, 1892399635, 0.8379187, 0.21627356, -0.44318825, 0.23388998, -2.6798046, 2.2742836, 4.9633827, 0
614, 1892416302, 0.83847606, 0.21047182, -0.44393623, 0.23575947, -3.742028, 3.3713677, 4.9824667, 0
616, 1892449636, 0.8458654, 0.18609898, -0.44527656, 0.22717932, -4.51134, 2.3743646, 0.604826, 0
618, 1892482970, 0.8546421, 0.1626644, -0.44229433, 0.21795705, -1.9292465, -0.8266546, -6.907398, 0
620, 1892516304, 0.8597543, 0.1546776, -0.43720245, 0.21390158, -0.59553933, -4.2391615, -7.5931787, 0
621, 1892532971, 0.86106014, 0.14410299, -0.4397896, 0.2107072, -1.3560429, -3.3218548, -9.169576, 0
622, 1892549638, 0.861537, 0.12341313, -0.44898, 0.20234367, -0.12595896, -0.90436614, -10.876321, 0
624, 1892582972, 0.8609885, 0.09626709, -0.4592383, 0.1963006, -2.9843798, 1.6454576, -7.297427, 0
625, 1892599639, 0.85975844, 0.09223173, -0.46344626, 0.19372341, -2.894466, 1.2548097, -6.878866, 0
628, 1892649640, 0.8526816, 0.1306178, -0.46733022, 0.19359225, 3.079527, -1.4068127, 9.600107, 0
629, 1892666307, 0.85018784, 0.1584633, -0.46339825, 0.1932219, 0.13971348, -4.7372704, 11.447201, 0
632, 1892716308, 0.8423639, 0.18122447, -0.46900764, 0.1939463, -0.70108104, 4.133713, 6.6124363, 0
633, 1892732975, 0.8415635, 0.1762141, -0.472798, 0.19283238, 2.7987707, 1.7457476, 5.819723, 0
636, 1892782976, 0.8452366, 0.17603168, -0.47014126, 0.18318778, 1.0641958, -2.1090662, 1.6275015, 0
637, 1892799643, 0.847427, 0.17916262, -0.4658817, 0.18090068, 0.8778082, -1.7540085, 0.07043743, 0
641, 1892866311, 0.8610252, 0.16574465, -0.4493912, 0.17092156, -0.33008784, -0.6536605, -5.438106, 0
643, 1892899645, 0.8685361, 0.15986033, -0.43677655, 0.17122716, -0.7953171, -1.8012136, -7.963758, 0
644, 1892916312, 0.87157273, 0.16026033, -0.42996958, 0.17264605, -0.40221244, -2.7544541, -9.493487, 0
645, 1892932979, 0.87450725, 0.15943964, -0.42386535, 0.17365727, 0.37234482, -3.4333262, -11.018302, 0
647, 1892966313, 0.8757873, 0.17384121, -0.41169927, 0.18243416, 2.870925, -3.636023, -12.657892, 0
648, 1892982980, 0.8739193, 0.19455405, -0.40288824, 0.18999346, 6.513279, -3.8573759, -12.060743, 0
649, 1892999647, 0.8727918, 0.20797968, -0.39664048, 0.19405654, 1.2433742, -0.32332447, -5.1612773, 0
651, 1893032981, 0.8780967, 0.16491003, -0.41044557, 0.18244934, 6.509833, 14.004606, 12.172194, 0
652, 1893049648, 0.88050014, 0.16430551, -0.4066878, 0.17980757, 6.648354, 8.477658, 11.655815, 0
653, 1893066315, 0.88251036, 0.18065856, -0.39676386, 0.17640603, 8.633513, 4.9815063, 14.688152, 0
655, 1893099649, 0.8867192, 0.1979041, -0.37740278, 0.17925602, 1.9176553, 0.18580073, 9.446037, 0
656, 1893116316, 0.88849103, 0.19798765, -0.37133387, 0.18302497, -0.7457461, 0.8034553, 7.411318, 0
657, 1893132983, 0.88974285, 0.19580317, -0.36743686, 0.1871132, -2.788214, 0.49704543, 6.535942, 0
662, 1893216318, 0.8905877, 0.19576925, -0.34912917, 0.21596093, 0.2885608, -0.82357043, 1.2561579, 0
663, 1893232985, 0.8882968, 0.1981691, -0.34839782, 0.22423117, -0.00547942, -0.32257044, 0.5781603, 0
664, 1893249652, 0.8854854, 0.20048854, -0.34931892, 0.23173013, -0.16957481, 0.44921243, 0.15914917, 0
666, 1893282986, 0.87950754, 0.20311086, -0.35594115, 0.24191101, -0.6898457, 1.1249968, -0.79245853, 0
670, 1893349654, 0.86653566, 0.20991598, -0.3743064, 0.2548498, -0.5409456, 0.7459465, -1.860889, 0
671, 1893366321, 0.86272985, 0.21195291, -0.3802879, 0.25721008, -0.4627105, 0.25520733, -1.8505206, 0
672, 1893382988, 0.8587836, 0.21345702, -0.38676053, 0.25951093, -0.64346564, 0.22400278, -2.3878942, 0
674, 1893416322, 0.8509504, 0.21294723, -0.4023232, 0.26205984, -0.34507874, 0.07653464, -2.2571526, 0
675, 1893432989, 0.8466143, 0.21570605, -0.4097521, 0.26233745, -0.12626515, -0.47189748, -2.6140757, 0
678, 1893482990, 0.83559585, 0.21647693, -0.43426427, 0.25755462, -1.1863496, -0.34818268, -1.7110939, 0
679, 1893499657, 0.8326997, 0.2131465, -0.4434762, 0.25399056, -1.5502927, 0.15542632, -2.204897, 0
680, 1893516324, 0.8298831, 0.21104413, -0.45183367, 0.25020713, -1.8378323, -0.26934662, -1.7199869, 0
682, 1893549658, 0.82263225, 0.20720927, -0.47072166, 0.24241304, -1.6696864, -0.27324256, -2.506753, 0
683, 1893566325, 0.8182945, 0.20617971, -0.47981945, 0.24012451, -0.26928192, -0.60518783, -2.6044984, 0
686, 1893616326, 0.80724007, 0.20131943, -0.50475186, 0.2303519, -0.09102923, -2.211952, -1.0455418, 0
687, 1893632993, 0.80280393, 0.20077446, -0.51250595, 0.22920668, 0.4816427, -1.4178046, -0.76449776, 0
688, 1893649660, 0.7990953, 0.20051521, -0.5184125, 0.22911042, 0.36217368, -1.9217973, -0.79412556, 0
690, 1893682994, 0.79619724, 0.19894043, -0.5242753, 0.22722375, -0.16639735, -1.6393573, 1.1762304, 0
691, 1893699661, 0.7949481, 0.19809693, -0.5272572, 0.22542743, -0.97448653, -0.70366776, 1.4212818, 0
693, 1893732995, 0.7925456, 0.1921179, -0.53433377, 0.22237864, -0.68923306, -0.41629076, 1.6428804, 0
695, 1893766329, 0.7895271, 0.18168823, -0.5438703, 0.21873225, -0.4562923, -0.19328484, 0.27358818, 0
697, 1893799663, 0.78792787, 0.17593178, -0.5492987, 0.21561775, 0.5091017, -0.20122066, 1.5143843, 0
699, 1893832997, 0.7885179, 0.17181447, -0.55092734, 0.21260512, 0.06596985, -0.28918627, -0.6143484, 0
701, 1893866331, 0.7914985, 0.17133918, -0.5463173, 0.21380639, -0.17800662, -1.0672793, -1.2620516, 0
703, 1893899665, 0.7980045, 0.17135401, -0.53549176, 0.21697363, -0.8839875, -1.3949294, -3.2126508, 0
705, 1893932999, 0.81180316, 0.15704477, -0.51944864, 0.21561146, -2.1929536, -2.4193156, -5.9619627, 0
706, 1893949666, 0.81918633, 0.15079844, -0.50970185, 0.21540777, -1.9889491, -4.286967, -7.0309954, 0
707, 1893966333, 0.8254176, 0.14639315, -0.50091076, 0.21528074, -1.0288368, -1.4143108, -8.486737, 0
709, 1893999667, 0.8380217, 0.15536757, -0.4724924, 0.22435275, 2.8404193, -2.5266304, -10.516746, 0
710, 1894016334, 0.84240305, 0.17025462, -0.45553583, 0.23207742, 4.882155, -1.102251, -10.24606, 0
711, 1894033001, 0.8460934, 0.1853188, -0.43758023, 0.24147269, 3.8225958, -1.9251864, -6.271167, 0
713, 1894066335, 0.85769576, 0.15040052, -0.4325262, 0.23379803, 2.617491, 6.8018284, 8.00252, 0
714, 1894083002, 0.8627349, 0.14357695, -0.42580065, 0.2318851, 7.2488627, 9.843146, 10.140774, 0
718, 1894149670, 0.88080347, 0.18357171, -0.37060764, 0.23052001, 4.4891133, 3.5941525, 7.391279, 0
721, 1894199671, 0.88562405, 0.20287314, -0.34909675, 0.22944865, -6.784901, 2.572087, 3.4994278, 0
722, 1894216338, 0.88638675, 0.2018699, -0.34790775, 0.2291943, -5.3635554, 0.80017346, 5.2621746, 0
724, 1894249672, 0.8875745, 0.19883789, -0.34545523, 0.23095092, 1.0657554, 0.04745806, 7.381403, 0
725, 1894266339, 0.88768065, 0.19914293, -0.34376884, 0.23278919, 0.76800257, -1.7815471, 5.047164, 0
726, 1894283006, 0.8876256, 0.197636, -0.34434178, 0.2334355, -0.5163668, -1.8816062, 1.8522167, 0
728, 1894316340, 0.8872686, 0.19698636, -0.34628442, 0.23246643, -0.5910671, -0.31087288, 0.068971634, 0
729, 1894333007, 0.8866809, 0.19784391, -0.34789863, 0.2315686, -0.1392993, 0.21878912, -0.43878746, 0
730, 1894349674, 0.88582486, 0.19844988, -0.3504189, 0.23052354, 0.5351772, 1.3407182, -0.21853256, 0
732, 1894383008, 0.8828192, 0.20169395, -0.35669747, 0.22960661, -0.66260284, -0.13154106, -1.3187485, 0
733, 1894399675, 0.8805069, 0.20400587, -0.36076984, 0.23007953, -0.5144003, 0.11973544, -1.6998377, 0
737, 1894466343, 0.8693339, 0.20271969, -0.38718566, 0.23076607, 0.4210403, 0.60905135, -1.7355251, 0
740, 1894516344, 0.8606601, 0.1992997, -0.41056862, 0.2257871, 0.24638705, 0.062315412, -1.8509812, 0
741, 1894533011, 0.85820675, 0.19958787, -0.41660935, 0.22379747, 0.11683827, -0.26596713, -1.6571646, 0
742, 1894549678, 0.85525084, 0.2007173, -0.42342272, 0.22130156, -0.49410266, -0.37846053, -1.957056, 0
745, 1894599679, 0.84420705, 0.20740905, -0.44324917, 0.21869767, 0.1069619, -1.461848, -1.2120514, 0
747, 1894633013, 0.8351308, 0.21088187, -0.45860007, 0.21857245, -0.46735016, -1.0885602, -1.3812103, 0
748, 1894649680, 0.8308322, 0.21109481, -0.46634507, 0.21836181, -0.4638086, -1.3611033, -1.0749235, 0
749, 1894666347, 0.82517874, 0.21473233, -0.47359997, 0.22062595, -0.1303637, -1.3268878, -1.2055302, 0
751, 1894699681, 0.81592697, 0.21735252, -0.48567668, 0.22614536, -0.46087232, -1.1140423, -1.310072, 0
753, 1894733015, 0.8067713, 0.21851173, -0.49957082, 0.2276061, -1.6929964, -1.0413549, -1.6104097, 0
755, 1894766349, 0.7971957, 0.21926774, -0.5156897, 0.22464946, -1.5958673, 0.20816968, -0.625227, 0
756, 1894783016, 0.792486, 0.2185965, -0.52408963, 0.22251776, -1.7107433, 0.08567106, -0.14510345, 0
757, 1894799683, 0.7898313, 0.21300435, -0.5308252, 0.22141151, -1.7128012, -0.2809902, 0.16536331, 0
760, 1894849684, 0.78717124, 0.19212607, -0.5468924, 0.21061876, -0.54332024, -0.54347545, 0.67107964, 0
761, 1894866351, 0.7875903, 0.18909857, -0.5489555, 0.20638245, -0.33381614, -1.4999454, 0.11698151, 0
763, 1894899685, 0.7881123, 0.18338634, -0.5531219, 0.1982601, 0.040100012, -1.2274616, 1.0579195, 0
764, 1894916352, 0.78753304, 0.17947501, -0.5562089, 0.19548547, 0.13196652, -0.9458303, 0.13580513, 0
765, 1894933019, 0.7871881, 0.17498451, -0.55878055, 0.19360355, -0.08722593, -0.9024974, -0.17067909, 0
767, 1894966353, 0.7855466, 0.17237832, -0.56157905, 0.1945092, -0.058535807, -1.0461996, 0.050374985, 0
769, 1894999687, 0.78377813, 0.17522737, -0.56098497, 0.20071241, -0.1888148, -0.015139761, -0.5569868, 0
771, 1895033021, 0.7844461, 0.17462805, -0.558273, 0.2061139, -0.048110493, 0.86144525, -1.7886572, 0
772, 1895049688, 0.7865784, 0.17355011, -0.5551682, 0.20728147, -0.3387243, 0.10565273, -2.2072382, 0
774, 1895083022, 0.79385597, 0.17264487, -0.5445544, 0.20844507, -0.81568235, -0.29849637, -3.0722423, 0
775, 1895099689, 0.7993723, 0.16831328, -0.53792936, 0.20810826, -0.7740524, -0.9997084, -4.088588, 0
776, 1895116356, 0.80566835, 0.16255301, -0.5305814, 0.20727003, -0.5030805, -1.1237562, -5.0553837, 0
778, 1895149690, 0.8190368, 0.15380706, -0.5125205, 0.20699628, 0.36026266, -2.1099007, -6.6668897, 0
779, 1895166357, 0.82429117, 0.16093956, -0.49946052, 0.21256611, 2.362235, -2.881725, -8.459819, 0
780, 1895183024, 0.82949215, 0.1698928, -0.48550647, 0.21763533, 0.96307665, -2.7420273, -8.442907, 0
782, 1895216358, 0.8429553, 0.16426253, -0.46727887, 0.20999295, -0.120205715, 1.0667994, -0.8201227, 0
784, 1895249692, 0.85605854, 0.16137151, -0.4491566, 0.1984537, 7.2864146, 4.864895, 7.1665916, 0
786, 1895283026, 0.8640953, 0.19072768, -0.4190304, 0.20341708, 8.456752, -0.672825, 8.698832, 0
787, 1895299693, 0.8661977, 0.20239222, -0.40718648, 0.20722106, 6.4285693, -1.4868392, 6.331585, 0
788, 1895316360, 0.86805123, 0.20625055, -0.39963803, 0.21033277, 1.2138537, 2.807683, 4.90989, 0
790, 1895349694, 0.87041795, 0.2172296, -0.3830775, 0.22008643, -2.9518096, 2.3964384, 5.079814, 0
791, 1895366361, 0.8704686, 0.2224187, -0.37580714, 0.22712539, -3.4240046, -0.2876547, 6.6809177, 0
792, 1895383028, 0.8710091, 0.22390136, -0.3710696, 0.23134632, -4.3745856, 0.30307552, 8.456345, 0
794, 1895416362, 0.8725123, 0.22478652, -0.36457193, 0.23512395, -1.0705019, 1.2514426, 5.5140276, 0
795, 1895433029, 0.8722725, 0.22713025, -0.36173368, 0.23812628, 0.0776028, 0.47008887, 2.1284533, 0
797, 1895466363, 0.86996263, 0.23077822, -0.36176777, 0.2429668, -0.696524, 1.2833672, -0.5398407, 0
799, 1895499697, 0.86600274, 0.23107754, -0.36990622, 0.2445695, -0.86086303, 1.6380224, -0.635746, 0
801, 1895533031, 0.86067194, 0.22916625, -0.3821408, 0.24636908, -0.6905985, 0.79024583, -0.87444687, 0
802, 1895549698, 0.85782975, 0.22715159, -0.3895721, 0.2465086, -0.28193298, 0.5303655, -0.78393364, 0
803, 1895566365, 0.8551242, 0.22548361, -0.39645708, 0.24646322, -0.290502, -0.27574694, -0.6175165, 0
805, 1895599699, 0.8489675, 0.22374827, -0.40987432, 0.24737951, 0.022805922, -0.34844196, 0.18473053, 0
807, 1895633033, 0.8421672, 0.22178483, -0.42116213, 0.2533594, -0.07076375, -1.0021875, 2.89917E-4, 0
811, 1895699701, 0.8269732, 0.22651708, -0.43706262, 0.2716325, -0.21294124, -1.2245036, -1.2691545, 0
813, 1895733035, 0.8182256, 0.2235704, -0.44710222, 0.28394625, 0.5124904, 0.27181578, -2.87679, 0
814, 1895749702, 0.8141483, 0.21864007, -0.45288613, 0.2902683, 1.0326073, 1.1137248, -2.280579, 0
815, 1895766369, 0.8113232, 0.21243091, -0.45857564, 0.2938345, -0.084517404, 0.26576003, -3.0054345, 0
817, 1895799703, 0.80546445, 0.21288179, -0.46338338, 0.30197152, 0.76351625, 0.17716867, -3.1476512, 0
818, 1895816370, 0.8029334, 0.21576624, -0.46354866, 0.30637914, 0.4108593, -0.21652617, -3.0888596, 0
819, 1895833037, 0.8006389, 0.21879548, -0.46339807, 0.3104367, 0.2580408, -0.06986043, -2.5354729, 0
821, 1895866371, 0.7954471, 0.22483234, -0.46526447, 0.31661627, 0.3893998, -0.26541525, -2.2297335, 0
822, 1895883038, 0.79285365, 0.22677645, -0.46746224, 0.3184924, -0.94828254, -0.041129403, -2.327425, 0
823, 1895899705, 0.7895315, 0.23232743, -0.4687663, 0.3208185, -0.16899502, 0.47622764, -1.5937262, 0
825, 1895933039, 0.7842633, 0.23792236, -0.47358853, 0.32255355, -0.4603569, 0.5809977, -0.6511698, 0
826, 1895949706, 0.7827801, 0.23900299, -0.47621137, 0.32149383, -1.5939498, 0.64745045, 0.9001703, 0
828, 1895983040, 0.78029966, 0.23600015, -0.48497975, 0.31659716, -1.7723446, 3.404821, 1.2803526, 0
830, 1896016374, 0.7801025, 0.22935426, -0.49591628, 0.30480528, 0.21603288, 2.7597127, 1.6773434, 0
832, 1896049708, 0.78165144, 0.22667582, -0.5047635, 0.28784645, -0.35241556, 1.1279899, 1.8513031, 0
834, 1896083042, 0.78206235, 0.22678262, -0.5112481, 0.27491105, 0.06552416, -1.1986319, 1.3839188, 0
837, 1896133043, 0.7837434, 0.21671434, -0.52160937, 0.25827813, -1.6500248, -2.9629936, 0.036026955, 0
838, 1896149710, 0.7841828, 0.21320334, -0.52445346, 0.25407207, -2.2398086, -3.294042, -0.85479164, 0
840, 1896183044, 0.7851631, 0.216212, -0.52494395, 0.24740142, -2.2487872, -1.8820341, -0.04294014, 0
841, 1896199711, 0.7862106, 0.21833657, -0.52425325, 0.2436454, -2.507492, -1.6429561, -0.51137924, 0
842, 1896216378, 0.7872749, 0.2191109, -0.52433205, 0.23930545, -2.7063277, -1.852544, 0.009078026, 0
844, 1896249712, 0.78791267, 0.21919154, -0.5269522, 0.23124167, -0.007495954, -1.8727746, -1.9220395, 0
845, 1896266379, 0.7887571, 0.22259825, -0.5251756, 0.2291411, -0.13792872, -2.550476, -3.404014, 0
848, 1896316380, 0.79550034, 0.21723683, -0.52131325, 0.21959642, -1.9789547, 0.039090965, -3.039329, 0
849, 1896333047, 0.7987677, 0.21235022, -0.51973134, 0.21623935, -2.4596639, 1.0350769, -2.879425, 0
853, 1896399715, 0.81651187, 0.19210653, -0.5018665, 0.21103519, -3.0232468, 0.53888685, -4.2931147, 0
855, 1896433049, 0.82695496, 0.17052129, -0.49187827, 0.21242952, -1.9971144, 1.364154, -5.4672136, 0
856, 1896449716, 0.83323616, 0.15930928, -0.4854457, 0.2113837, -1.4226407, 1.6995625, -7.017765, 0
857, 1896466383, 0.8393787, 0.153318, -0.47708732, 0.21054, 0.34004444, 1.3461447, -7.7708044, 0
859, 1896499717, 0.84939325, 0.14976962, -0.46124038, 0.20823094, 2.4928434, 4.2054896, -8.072316, 0
860, 1896516384, 0.8539368, 0.14115547, -0.45704252, 0.20489463, 5.3984323, 4.1491427, -4.162952, 0
864, 1896583052, 0.8750575, 0.117909275, -0.43074438, 0.18663791, 12.132508, -0.70489395, 10.665421, 0
865, 1896599719, 0.8790571, 0.10961709, -0.4235718, 0.18929398, 10.242481, 1.1901829, 12.531567, 0
872, 1896716388, 0.888836, 0.055140764, -0.4008289, 0.21510208, -2.0975628, -1.024409, 13.7443695, 0
873, 1896733055, 0.8899204, 0.0554056, -0.39596343, 0.21951663, -3.88902, 1.2602401, 8.121471, 0
875, 1896766389, 0.89092124, 0.055513084, -0.3904697, 0.2251973, -3.2777433, -0.49125528, 1.0087938, 0
876, 1896783056, 0.8905835, 0.054556496, -0.3901493, 0.22731158, -1.2856337, -0.34032533, 0.08084488, 0
877, 1896799723, 0.8899761, 0.055119794, -0.39078143, 0.22846603, 0.30612692, -0.50794476, -0.24396896, 0
879, 1896833057, 0.8883655, 0.05854716, -0.394845, 0.22689, -1.2374848, -1.5454082, -0.16062641, 0
880, 1896849724, 0.8873888, 0.05730234, -0.39908418, 0.2235892, -1.6639286, -1.122611, -0.9017134, 0
882, 1896883058, 0.8848328, 0.0647147, -0.4060288, 0.21914877, 0.5882177, -0.516153, -1.782548, 0
883, 1896899725, 0.88372517, 0.07263043, -0.40808553, 0.21730961, -0.3139644, -0.36888227, -1.0649052, 0
886, 1896949726, 0.87818223, 0.09491967, -0.41821343, 0.21186362, -0.51858205, -0.35099798, -2.5467052, 0
888, 1896983060, 0.8731973, 0.10815619, -0.42689028, 0.20879614, -0.74810547, -0.6737324, -2.7522588, 0
891, 1897033061, 0.8639782, 0.12673348, -0.44332945, 0.20234124, -0.9134539, 0.12959835, -1.6130705, 0
895, 1897099729, 0.8483411, 0.16013683, -0.46270487, 0.20144498, -0.90934795, 0.52750605, -2.0234385, 0
898, 1897149730, 0.83680147, 0.16695604, -0.4813969, 0.20037138, -1.1932577, 1.0447929, -1.1012678, 0
899, 1897166397, 0.8328873, 0.16851692, -0.4877393, 0.20003416, -0.46311414, 0.39971, -1.9730854, 0
902, 1897216398, 0.8222872, 0.17724118, -0.5015398, 0.20221213, -2.5241349, -0.093618736, -1.1051245, 0
904, 1897249732, 0.8161609, 0.17586505, -0.514606, 0.19528499, -1.2054186, 1.4685447, -0.6607237, 0
906, 1897283066, 0.81090075, 0.17631632, -0.5243178, 0.1909086, -0.8252152, 0.6614392, 0.21744919, 0
909, 1897333067, 0.8040489, 0.1732799, -0.5388703, 0.18193683, -0.90179384, -0.82625777, -0.32212067, 0
910, 1897349734, 0.80168486, 0.1728613, -0.5436169, 0.17861554, -0.5802544, -0.5534004, -0.947484, 0
911, 1897366401, 0.79983383, 0.17172493, -0.54777527, 0.17527467, -1.0320032, 0.24453737, -0.87897587, 0
913, 1897399735, 0.79916114, 0.16419744, -0.5534349, 0.16760957, -1.5178083, 0.16282326, -0.99605274, 0
914, 1897416402, 0.79909205, 0.16011706, -0.55556035, 0.16483231, -1.1085811, -1.6183199, -1.8079739, 0
915, 1897433069, 0.79879415, 0.1587739, -0.556627, 0.16397423, -0.57283306, -2.672821, -2.628728, 0
917, 1897466403, 0.7992138, 0.15780927, -0.556495, 0.16330762, -2.0121236, -2.4826438, -2.4201918, 0
918, 1897483070, 0.8001194, 0.15552098, -0.55636966, 0.16148597, -1.8087419, -2.0084786, -3.0939898, 0
919, 1897499737, 0.8007088, 0.1582741, -0.5546283, 0.16187873, 0.6843134, -0.7044767, -5.63758, 0
922, 1897549738, 0.8109366, 0.17623194, -0.5330633, 0.16483483, -0.5290857, 3.5645783, -5.9347734, 0
925, 1897599739, 0.8290469, 0.14982373, -0.5126161, 0.16571441, 2.0971596, 3.6110284, -6.0544844, 0
927, 1897633073, 0.8421414, 0.117178686, -0.50082916, 0.16198683, 2.76813, 4.3065343, 1.8809576, 0
929, 1897666407, 0.85461736, 0.13441716, -0.47071183, 0.17318815, 8.366165, -0.7867972, 12.096529, 0
930, 1897683074, 0.8597455, 0.12977523, -0.459765, 0.18059617, 9.126438, 0.9394806, 12.152206, 0
934, 1897749742, 0.8780789, 0.06312287, -0.43309817, 0.19344631, 1.2898986, -0.2016373, 0.23719406, 0
936, 1897783076, 0.88411075, 0.041777484, -0.4242066, 0.19145323, -4.246207, -8.048681, 5.458889, 0
937, 1897799743, 0.88756675, 0.044570893, -0.41759962, 0.18934625, -3.847707, -3.864531, 10.852798, 0
938, 1897816410, 0.8908685, 0.042845592, -0.410669, 0.1893969, -1.7174364, 1.1934993, 10.666805, 0
940, 1897849744, 0.89656246, 0.03553009, -0.3991122, 0.18874685, -1.1580305, 0.10235091, 3.3366146, 0
941, 1897866411, 0.89834785, 0.032870054, -0.39492935, 0.18953694, -1.03031, -2.1786723, 0.22890759, 0
944, 1897916412, 0.89945877, 0.037956107, -0.38684106, 0.19972488, 0.1525999, -2.0331328, -0.19709778, 0
946, 1897949746, 0.89715904, 0.04006535, -0.38756034, 0.20808655, -0.74332875, -1.257658, -1.2695198, 0
948, 1897983080, 0.8933037, 0.05232801, -0.3900563, 0.21709152, -1.0056838, -1.31951, -1.5740509, 0
949, 1897999747, 0.891113, 0.05921562, -0.39226863, 0.22031575, -1.1823894, -0.49230325, -1.8746834, 0
950, 1898016414, 0.88867503, 0.06702977, -0.3952161, 0.22264484, -1.1092213, 0.0075196465, -2.794579, 0
952, 1898049748, 0.882787, 0.084767, -0.4040614, 0.22413932, -1.7659901, 0.97181994, -1.8098269, 0
953, 1898066415, 0.8793142, 0.09208695, -0.4104212, 0.2233461, -1.3228883, 1.4015718, -2.131024, 0
954, 1898083082, 0.8753081, 0.102351084, -0.41654456, 0.22327855, -0.68021554, 1.0539958, -3.13694, 0
957, 1898133083, 0.8631719, 0.13135368, -0.43435693, 0.22139832, 0.12967595, 0.33889487, -2.476317, 0
958, 1898149750, 0.85932183, 0.14008917, -0.4396281, 0.22061482, -0.15034814, -0.040796265, -1.7308159, 0
960, 1898183084, 0.8504298, 0.15434206, -0.45179296, 0.22098279, -0.37080508, -0.23093018, -0.8823223, 0
963, 1898233085, 0.8358975, 0.17195994, -0.47100422, 0.2232995, -1.2279905, 0.0492874, -0.16771126, 0
964, 1898249752, 0.8310433, 0.17557533, -0.47783676, 0.22408645, -0.41738653, -0.073649585, -2.2483377, 0
965, 1898266419, 0.8264305, 0.18138266, -0.4831497, 0.2251262, -0.8609648, -0.07635068, -1.6440897, 0
967, 1898299753, 0.8181455, 0.19075583, -0.49353486, 0.22511369, -0.5856732, -0.021358563, -1.6073217, 0
968, 1898316420, 0.81503373, 0.19506396, -0.49737534, 0.22425477, -1.919698, 0.57114834, -0.8464403, 0
969, 1898333087, 0.8121979, 0.19566895, -0.5026032, 0.22235268, -2.4728534, 1.4720848, 0.21545792, 0
971, 1898366421, 0.80634314, 0.19697355, -0.5149071, 0.2142087, -1.2056427, 0.36618206, -0.4968109, 0
972, 1898383088, 0.80282503, 0.20337325, -0.5193254, 0.21074869, -0.24037522, -0.3768158, -1.5381546, 0
973, 1898399755, 0.7996175, 0.20800465, -0.52372205, 0.20751786, -1.6280394, -0.3900091, -0.18414593, 0
976, 1898449756, 0.7893321, 0.2080025, -0.54389775, 0.19459607, -0.4321364, -0.36554807, -0.19750118, 0
979, 1898499757, 0.78509104, 0.20014471, -0.55726475, 0.18174908, -0.84273684, -1.2786986, -1.1680136, 0
980, 1898516424, 0.7841776, 0.19751196, -0.5604799, 0.17865951, -1.0282675, -1.5532073, -0.80586624, 0
981, 1898533091, 0.7835417, 0.1936421, -0.56360644, 0.1758281, -1.1461251, -1.5283533, -0.8819561, 0
983, 1898566425, 0.7854445, 0.17942536, -0.56783646, 0.16866498, -1.5561801, 0.15874605, -1.1282005, 0
984, 1898583092, 0.7869243, 0.17431675, -0.56834626, 0.1653752, -0.9553728, -0.803443, -2.0335689, 0
985, 1898599759, 0.7881968, 0.17389467, -0.56691074, 0.1646852, 0.40186557, -1.6671712, -2.5208006, 0
987, 1898633093, 0.7936188, 0.17151494, -0.55926824, 0.1672527, -1.3628658, -0.744327, -0.9904394, 0
988, 1898649760, 0.79825133, 0.16260079, -0.5555505, 0.1664997, -2.1931088, 0.23957147, -1.4686861, 0
990, 1898683094, 0.8083327, 0.15593237, -0.5418055, 0.16950785, 0.6491527, 0.26444533, -4.946826, 0
991, 1898699761, 0.8139255, 0.16024187, -0.5298533, 0.17636797, -0.6443286, 1.1165897, -3.7469783, 0
992, 1898716428, 0.81976676, 0.15834728, -0.51945275, 0.18187837, -1.720986, 1.2433547, -3.766595, 0
994, 1898749762, 0.8336573, 0.14238848, -0.49913678, 0.18869545, -0.46548763, 2.2875583, -5.699853, 0
995, 1898766429, 0.84051603, 0.13252583, -0.4898111, 0.18988845, 0.59351474, 2.576095, -5.143029, 0
996, 1898783096, 0.8464672, 0.120854825, -0.48209724, 0.19097637, 3.763104, 3.0767632, 0.9754381, 0
999, 1898833097, 0.86420566, 0.105760336, -0.4518114, 0.19450593, 9.542537, 0.6646889, 8.809557, 0
1002, 1898883098, 0.8779716, 0.07146692, -0.42766583, 0.20288692, 5.875713, 0.71806496, 5.082614, 0
1003, 1898899765, 0.8797114, 0.053684436, -0.42440572, 0.20762524, 4.519552, -4.203658, 2.939598, 0
1004, 1898916432, 0.88195294, 0.040986437, -0.42039147, 0.20917153, 1.8047678, -5.360709, 3.6335974, 0
1007, 1898966433, 0.8912666, 0.036951207, -0.39927602, 0.21180135, -4.3248158, -0.9998137, 10.28981, 0
1010, 1899016434, 0.8937329, 0.042146415, -0.38517022, 0.2260788, -1.0923604, -1.6908406, -0.30534077, 0
1011, 1899033101, 0.8933951, 0.049322285, -0.38197201, 0.23132728, -0.16006322, -2.7131517, 0.33010483, 0
1012, 1899049768, 0.8924949, 0.053615488, -0.38126191, 0.23498982, 0.008630506, -2.3584208, -0.020064354, 0
1014, 1899083102, 0.8891893, 0.06726178, -0.38280976, 0.24140748, 1.222543, -2.7383974, -0.54381657, 0
1015, 1899099769, 0.88717055, 0.07846042, -0.38317966, 0.24484295, 0.6964382, -2.6192062, -0.3858757, 0
1017, 1899133103, 0.88176763, 0.106128804, -0.38422132, 0.25218835, -0.19676538, -0.9376398, -1.2221899, 0
1018, 1899149770, 0.87855697, 0.12032527, -0.38527822, 0.25538746, -1.0345496, 0.13512084, -0.8524351, 0
1019, 1899166437, 0.8753933, 0.13334052, -0.38621777, 0.25835112, -1.8571169, 1.0070732, -0.6567621, 0
1021, 1899199771, 0.8693662, 0.1574436, -0.3863951, 0.2647929, -2.394105, 1.0982686, -0.97857094, 0
1022, 1899216438, 0.8662014, 0.17091128, -0.38528186, 0.26841238, -2.813961, 0.72995836, -0.71557426, 0
1025, 1899266439, 0.8505523, 0.21067636, -0.39631328, 0.27407056, -1.209647, 0.3677068, -4.26541, 0
1026, 1899283106, 0.8447926, 0.21965489, -0.40307322, 0.27497593, -0.89041686, 0.96384084, -4.4905977, 0
1027, 1899299773, 0.83974355, 0.22469069, -0.41013497, 0.27592888, -0.83996695, 1.1559085, -4.848614, 0
1029, 1899333107, 0.83012956, 0.23432113, -0.42156285, 0.27976054, -0.5440104, 0.74680537, -4.0549564, 0
1030, 1899349774, 0.8255504, 0.23837523, -0.42700958, 0.28161907, -0.8817662, 1.216144, -3.7777095, 0
1031, 1899366441, 0.8210305, 0.24340737, -0.43145835, 0.2837394, -0.1086121, 0.8182397, -3.0700183, 0
1033, 1899399775, 0.81511116, 0.24277586, -0.4421556, 0.2848768, -1.1082331, 0.9113935, -2.0680237, 0
1034, 1899416442, 0.8129437, 0.24114761, -0.44645724, 0.2857424, 0.038001895, -0.28450707, -2.868785, 0
1035, 1899433109, 0.81153506, 0.24040543, -0.4492162, 0.2860476, -0.90060234, -1.3630618, -1.3148947, 0
1037, 1899466443, 0.8123472, 0.2246842, -0.4603878, 0.2786659, -1.7258168, 0.7535801, -0.0463686, 0
1039, 1899499777, 0.8149687, 0.21364844, -0.46754354, 0.26755506, -2.4361787, 0.29132387, 2.065485, 0
1041, 1899533111, 0.81717795, 0.21905303, -0.46494836, 0.26088613, -2.3836677, -0.60439324, 2.1851587, 0
1042, 1899549778, 0.819104, 0.21007003, -0.46874142, 0.25538853, -1.2296507, 1.0206789, 1.8592014, 0
1044, 1899583112, 0.821318, 0.19918817, -0.47588792, 0.24350423, 1.9802619, -0.22078677, 0.022748947, 0
1045, 1899599779, 0.8218458, 0.20027034, -0.47642836, 0.23974979, 1.6128721, -0.6118504, 0.47472, 0
1046, 1899616446, 0.8218025, 0.2024983, -0.47654125, 0.23779434, 1.8573618, -1.1336942, -0.024777412, 0
1048, 1899649780, 0.82200974, 0.201966, -0.47821927, 0.23413387, -0.65020365, -1.3570105, 2.0414286, 0
1049, 1899666447, 0.82247955, 0.1955874, -0.4818489, 0.23042844, -0.61627305, -0.5067877, 1.4916153, 0
1050, 1899683114, 0.8229944, 0.19047949, -0.48521024, 0.22576831, -0.31066424, 0.012506332, -0.5083008, 0
1052, 1899716448, 0.8236236, 0.1843563, -0.49056458, 0.21680853, 0.013474255, 1.8811306, 0.057175636, 0
1054, 1899749782, 0.8241648, 0.17966092, -0.493434, 0.21213137, 0.9187294, -0.027049538, 0.4811964, 0
1056, 1899783116, 0.8275403, 0.17654991, -0.49019086, 0.20909971, 0.46597534, -1.2839487, -0.44490623, 0
1057, 1899799783, 0.8302968, 0.1738475, -0.48714748, 0.20754273, 0.08869982, -0.49729407, 0.4103613, 0
1058, 1899816450, 0.8334336, 0.1709016, -0.48311186, 0.2068488, -0.51798505, -0.61894065, -0.06855869, 0
1060, 1899849784, 0.8368611, 0.16789931, -0.47919637, 0.2045647, -3.09981, -0.054282244, 0.06029892, 0
1061, 1899866451, 0.8376602, 0.15786408, -0.48327902, 0.19962062, -2.2334616, 2.0925467, -0.30543995, 0
1062, 1899883118, 0.8381614, 0.15586187, -0.4839252, 0.19751358, -0.15127602, -1.0699195, -3.229824, 0
1064, 1899916452, 0.8388489, 0.16614732, -0.48000407, 0.19577117, -2.047427, -1.2596406, 1.0291796, 0
1065, 1899933119, 0.838926, 0.1631316, -0.48224944, 0.19242945, -0.93808633, 0.35006508, 0.66222095, 0
1066, 1899949786, 0.8386543, 0.1593906, -0.4849364, 0.18998158, -0.31939152, 0.25938767, -0.33149815, 0
1068, 1899983120, 0.83728987, 0.15417224, -0.49031565, 0.18646586, 0.29891595, -0.26874483, -2.045971, 0
1069, 1899999787, 0.8363929, 0.15258613, -0.492581, 0.18582447, 0.31361258, -0.59900355, -1.2516336, 0
1071, 1900033121, 0.8354306, 0.15112835, -0.49531847, 0.18405978, -0.41864648, -0.70778507, 0.8650789, 0
1072, 1900049788, 0.83540565, 0.15080872, -0.49591008, 0.18283802, -1.245384, 0.09148989, 1.0911741, 0
1073, 1900066455, 0.83560705, 0.15169807, -0.49562627, 0.1819495, -2.0662043, 0.15913798, 1.497571, 0
1075, 1900099789, 0.8353778, 0.1509544, -0.4970184, 0.17981127, -2.5811799, 1.1898894, 0.08784008, 0
1076, 1900116456, 0.83521223, 0.14763728, -0.49884477, 0.17827013, 0.20456263, 0.67457336, 0.20065594, 0
1079, 1900166457, 0.83678144, 0.15437698, -0.49317014, 0.18097042, -0.16218771, -3.950842, 1.236867, 0
1081, 1900199791, 0.8370699, 0.15786266, -0.48830402, 0.18961777, -0.4470628, -0.94176257, -2.2059484, 0
1085, 1900266459, 0.8441595, 0.15634735, -0.47214064, 0.20008989, -2.0733414, -0.1990584, -4.61868, 0
1087, 1900299793, 0.849052, 0.15349784, -0.4617428, 0.20577942, -1.4077005, -0.32202384, -6.759068, 0
1088, 1900316460, 0.85103375, 0.1530652, -0.45705804, 0.20835823, 0.55708927, 0.35478115, -7.0003924, 0
1089, 1900333127, 0.8534104, 0.15690522, -0.45010427, 0.21090311, 1.5305291, -1.150482, -6.257637, 0
1091, 1900366461, 0.85658604, 0.16894591, -0.43570095, 0.21882662, 2.039518, -2.2965243, -8.001664, 0
1092, 1900383128, 0.85627514, 0.17470038, -0.4314921, 0.22380745, 4.6760106, -1.073566, -7.0646763, 0
1095, 1900433129, 0.85881746, 0.18689367, -0.41921514, 0.22751793, 5.2612267, 3.5025122, 6.6562786, 0
1096, 1900449796, 0.86072516, 0.18861428, -0.41475257, 0.2270675, 6.262828, 6.6056113, 7.146652, 0
1098, 1900483130, 0.8661909, 0.20487788, -0.39850646, 0.22120956, 3.6264625, 4.2223396, 7.029896, 0
1099, 1900499797, 0.87062997, 0.20492917, -0.39075103, 0.21754047, -0.8534592, 2.3367624, 8.427393, 0
1102, 1900549798, 0.87972677, 0.22496048, -0.3563525, 0.2202024, -10.681444, -5.003562, 8.04892, 0
1103, 1900566465, 0.88437206, 0.21582763, -0.35417363, 0.21416827, -10.439257, 1.7855793, 12.3305645, 0
1104, 1900583132, 0.88768977, 0.21310864, -0.34737128, 0.21430677, -1.525812, 1.7456948, 12.9209, 0
1106, 1900616466, 0.8916834, 0.2036729, -0.3417717, 0.21589957, -2.0761366, -2.9688244, 0.5110073, 0
1107, 1900633133, 0.89276856, 0.20025286, -0.34275085, 0.21304312, -1.8711972, -1.5817293, -0.108345985, 0
1108, 1900649800, 0.89293486, 0.19772488, -0.34588507, 0.20961496, -0.605118, 0.30898634, 0.20000553, 0
1110, 1900683134, 0.8916013, 0.19230808, -0.35559213, 0.20401385, 0.078406334, 1.5605054, 0.7266722, 0
1111, 1900699801, 0.89032227, 0.18891235, -0.36167002, 0.20207873, -1.0411692, 1.0707812, -0.031469345, 0
1112, 1900716468, 0.88835686, 0.18937284, -0.36688432, 0.2008941, -1.1593847, 0.10613021, -0.016997337, 0
1114, 1900749802, 0.88497186, 0.18538338, -0.37913042, 0.19677521, -0.28234267, 0.7972848, 0.23796463, 0
1116, 1900783136, 0.8827585, 0.16956963, -0.3963899, 0.18671182, -1.2999773, 1.5289901, -0.94465923, 0
1118, 1900816470, 0.8801829, 0.16386953, -0.40973008, 0.17478186, -1.4646466, 0.16404365, -1.6242847, 0
1119, 1900833137, 0.87883633, 0.16052896, -0.41716638, 0.16688931, -0.9956034, 0.31368893, -2.000885, 0
1121, 1900866471, 0.8748754, 0.15700708, -0.43297273, 0.14993061, 0.59811443, 0.07288523, -2.8400974, 0
1122, 1900883138, 0.8728095, 0.15566087, -0.440003, 0.14273486, 0.63842857, -0.7940513, -3.0417347, 0
1123, 1900899805, 0.87005866, 0.1563128, -0.44692895, 0.13719119, 1.0109174, -2.1604242, -2.991724, 0
1125, 1900933139, 0.8628811, 0.15647933, -0.46154344, 0.13390525, 0.9696435, -2.6394525, -2.186078, 0
1126, 1900949806, 0.85871786, 0.15466979, -0.46962747, 0.13466047, 1.1638585, -2.0238035, -2.1427665, 0
1127, 1900966473, 0.85485893, 0.15250134, -0.47669294, 0.1368419, 1.5859051, -2.1058953, -2.251027, 0
1129, 1900999807, 0.8479248, 0.1567739, -0.48564264, 0.14352483, 0.40601888, -2.0703058, -1.2288322, 0
1131, 1901033141, 0.8413335, 0.1551186, -0.4956922, 0.14962585, -0.5953207, -1.3931065, -0.98744774, 0
1133, 1901066475, 0.8354486, 0.1480757, -0.50634605, 0.1539979, -0.7469526, -0.18743388, -1.3898277, 0
1134, 1901083142, 0.83316064, 0.14485392, -0.5104285, 0.15596817, -1.072891, 0.089331985, -0.9848852, 0
1135, 1901099809, 0.83068144, 0.14452556, -0.51374745, 0.1585773, -1.0670949, -0.28023866, -0.8321676, 0
1137, 1901133143, 0.8253365, 0.14560735, -0.52114666, 0.16132812, -0.49894485, -0.23310457, -0.49658203, 0
1138, 1901149810, 0.8233235, 0.14554265, -0.5238784, 0.16281803, -0.32314208, -4.2020434E-5, -0.040865898, 0
1139, 1901166477, 0.82109076, 0.14600888, -0.5267717, 0.1643339, -1.2021606, -0.37463337, -0.8660803, 0
1141, 1901199811, 0.8162122, 0.14911553, -0.53160626, 0.17017584, -0.21528858, -0.61976546, 0.51139736, 0
1142, 1901216478, 0.81442374, 0.14721598, -0.53417414, 0.17234294, -1.8009291, -0.20871165, 0.085700035, 0
1143, 1901233145, 0.81225955, 0.14504841, -0.53700626, 0.17556259, -1.1164707, -0.21415117, 0.100468636, 0
1145, 1901266479, 0.80934465, 0.14009996, -0.54067194, 0.1816859, -1.1750894, -0.42334154, -0.6935892, 0
1146, 1901283146, 0.809244, 0.13706484, -0.5408463, 0.18391672, -0.19602086, -0.56308335, -1.0205841, 0
1147, 1901299813, 0.810595, 0.13544065, -0.5386689, 0.1855534, -0.87690836, -0.50080115, -0.7394867, 0
1149, 1901333147, 0.8162637, 0.13500147, -0.5286505, 0.18978782, -2.3149993, 0.91825736, -2.9417343, 0
1150, 1901349814, 0.8205795, 0.12882064, -0.5233863, 0.1900632, -1.886811, 1.0007762, -3.7572417, 0
1152, 1901383148, 0.8322105, 0.11280928, -0.50938797, 0.18768656, -1.7692071, -0.647099, -5.015579, 0
1153, 1901399815, 0.83855194, 0.10504544, -0.50127274, 0.1858073, -1.7677402, -1.0242051, -5.4547853, 0
1154, 1901416482, 0.84446394, 0.098622814, -0.49248937, 0.18604055, -0.45049387, -1.1211696, -7.0919037, 0
1156, 1901449816, 0.853954, 0.09369754, -0.47418007, 0.19271539, 2.776464, -3.705364, -7.269203, 0
1158, 1901483150, 0.86131305, 0.12111918, -0.44951802, 0.20348512, 7.539786, -3.3772752, -4.548859, 0
1160, 1901516484, 0.8680004, 0.10707778, -0.44021094, 0.20329006, 1.1213765, 7.5939994, 9.747768, 0
1161, 1901533151, 0.8715267, 0.09660131, -0.43592548, 0.2026839, 3.584173, 7.520733, 10.6555, 0
1162, 1901549818, 0.8752083, 0.107715994, -0.42493978, 0.20453922, 6.650143, 5.50304, 10.039646, 0
1164, 1901583152, 0.8825457, 0.14482, -0.39450273, 0.21097474, 3.9183018, 0.31024927, 7.286209, 0
1165, 1901599819, 0.8850167, 0.14695485, -0.38650575, 0.2139293, -0.25231484, 0.7104892, 4.3639956, 0
1166, 1901616486, 0.88730204, 0.14409079, -0.3816498, 0.21512508, -1.8647587, 2.7012553, 2.9492054, 0
1168, 1901649820, 0.89212817, 0.15313552, -0.36505806, 0.21769735, -5.622939, -0.44601238, 4.6158094, 0
1170, 1901683154, 0.89521605, 0.14511716, -0.36047244, 0.21815461, -1.668451, 3.3145108, 7.028755, 0
1172, 1901716488, 0.8967506, 0.14276129, -0.35408008, 0.22380179, -0.03649296, -0.77210987, 1.9059944, 0
1174, 1901749822, 0.8964341, 0.14266671, -0.3510532, 0.22981805, -1.2609329, -1.3129817, 0.46263504, 0
1176, 1901783156, 0.8942579, 0.14456467, -0.35316482, 0.23383981, -0.10043309, 1.4970912, 0.23731709, 0
1177, 1901799823, 0.8926882, 0.146767, -0.3546714, 0.23617335, -0.18913913, 1.2706133, 0.37510395, 0
1179, 1901833157, 0.8886017, 0.15079752, -0.35939747, 0.24183291, -0.9167697, 0.0919016, -0.3858471, 0
1180, 1901849824, 0.88596314, 0.15374532, -0.36298248, 0.24429078, -0.94316345, -0.18958212, -0.4229927, 0
1181, 1901866491, 0.8832415, 0.15575242, -0.3673396, 0.24635276, -1.1058699, -0.65011585, -0.051508904, 0
1183, 1901899825, 0.87675965, 0.15811266, -0.37962848, 0.24935474, -1.1256933, 0.087217994, -0.37206554, 0
1184, 1901916492, 0.87285614, 0.16086933, -0.3866008, 0.25057077, -0.91173416, 0.36206573, -1.1442747, 0
1185, 1901933159, 0.86917466, 0.16050167, -0.39479584, 0.25082588, -0.6229686, -0.08760087, -2.3115726, 0
1187, 1901966493, 0.8622352, 0.16639982, -0.4076692, 0.25033996, -0.78053856, -0.40711817, -1.026618, 0
1189, 1901999827, 0.85534286, 0.1671208, -0.4235964, 0.24703768, -0.6248886, 0.3710508, -2.4649181, 0
1191, 1902033161, 0.8475332, 0.17305955, -0.4373722, 0.2458575, -0.28713748, -1.0635151, -2.1510706, 0
1192, 1902049828, 0.8424827, 0.17699607, -0.4454502, 0.24591066, -0.53716445, -0.9133191, -2.7474217, 0
1193, 1902066495, 0.83768624, 0.1799785, -0.45289063, 0.24654067, -0.15033996, -1.010963, -2.7328272, 0
1195, 1902099829, 0.8290797, 0.1818565, -0.46660945, 0.24866292, -0.43383104, -1.1650683, -1.3759251, 0
1196, 1902116496, 0.8247471, 0.18247391, -0.4735123, 0.24956737, -0.63509595, -2.0024145, -1.2590408, 0
1197, 1902133163, 0.82020396, 0.18711658, -0.47856557, 0.25145626, -0.15986161, -1.8125213, -0.87731266, 0
1199, 1902166497, 0.81103855, 0.18841347, -0.49364957, 0.25105694, -0.92553276, -0.17733875, -2.050283, 0
1200, 1902183164, 0.8068394, 0.18781294, -0.501164, 0.25014764, -0.5694858, 0.39273384, -1.433527, 0
1201, 1902199831, 0.8032502, 0.19041899, -0.50598294, 0.25002712, -0.1127947, -0.7028373, -0.77595234, 0
1204, 1902249832, 0.79544425, 0.19587092, -0.5181535, 0.2458099, -1.5455862, -0.42805213, 0.11885071, 0
1206, 1902283166, 0.79099476, 0.19300692, -0.5290785, 0.23906945, -1.8889327, -0.22724874, -0.5963316, 0
1207, 1902299833, 0.78855175, 0.19218598, -0.5344325, 0.23587146, -0.8212454, -0.8886026, -0.043260574, 0
1208, 1902316500, 0.7855075, 0.19473092, -0.5387032, 0.23422062, -0.0429878, -1.2810507, 0.5804348, 0
1210, 1902349834, 0.7808367, 0.19632633, -0.5460679, 0.23143585, -0.2596568, -0.81964433, 0.9488392, 0
1211, 1902366501, 0.77797496, 0.1955618, -0.550959, 0.2301239, -0.45868257, 0.080912136, 0.21073914, 0
1212, 1902383168, 0.7755221, 0.19144943, -0.5567853, 0.22782713, -0.38554466, 0.64911705, -0.1566801, 0
1215, 1902433169, 0.77165645, 0.19281492, -0.56225103, 0.226374, 0.39887318, -0.6873644, 1.2728176, 0
1216, 1902449836, 0.77145666, 0.19495815, -0.56167597, 0.22664627, 0.12881722, -0.33518472, 0.44136333, 0
1218, 1902483170, 0.7735552, 0.1959074, -0.55837107, 0.22684139, -0.6879722, -0.6256269, -0.9669275, 0
1219, 1902499837, 0.77586305, 0.19533671, -0.55545974, 0.22659963, -0.661076, -0.85111177, -1.3184881, 0
1220, 1902516504, 0.7789485, 0.19711992, -0.550297, 0.22706556, -0.5499666, -1.3889903, -1.096755, 0
1222, 1902549838, 0.7858717, 0.20291205, -0.53697455, 0.22998518, -1.8918161, -0.16344678, -2.5419574, 0
1223, 1902566505, 0.7906343, 0.19928984, -0.5311839, 0.2302762, -1.1881571, -0.33696422, -3.4441142, 0
1224, 1902583172, 0.796913, 0.19151923, -0.52532685, 0.22865795, -1.1443988, -0.25478464, -3.65773, 0
1226, 1902616506, 0.8109456, 0.17560093, -0.51158994, 0.22318168, -0.9381496, -0.64126056, -4.931419, 0
1227, 1902633173, 0.81862205, 0.16641167, -0.50399566, 0.21944524, -1.2296306, -0.27959833, -5.7680287, 0
1228, 1902649840, 0.8254666, 0.1612591, -0.49484712, 0.2184707, -0.47098494, -2.148253, -7.242909, 0
1231, 1902699841, 0.8402199, 0.17636518, -0.4634441, 0.21942669, 1.4514232, -2.5042806, -3.1165996, 0
1234, 1902749842, 0.85616547, 0.16247919, -0.44504473, 0.20620139, 8.957148, 4.643675, 7.719982, 0
1235, 1902766509, 0.8609543, 0.17243473, -0.43122998, 0.2075271, 8.098366, 0.92001253, 7.7269936, 0
1237, 1902799843, 0.86839336, 0.1888732, -0.40790948, 0.20936167, 2.906465, -0.911266, 5.2645245, 0
1238, 1902816510, 0.8720848, 0.18637821, -0.4023352, 0.20702727, -0.89124, 1.080184, 2.7396908, 0
1239, 1902833177, 0.8750548, 0.18771529, -0.39579013, 0.20590019, -2.6059651, 3.5936444, 2.2616882, 0
1241, 1902866511, 0.87996364, 0.19284704, -0.37922695, 0.21133737, -6.50621, -1.696774, 6.381159, 0
1242, 1902883178, 0.8828592, 0.18746561, -0.3750739, 0.21151471, -4.0338387, -0.049607135, 8.827375, 0
1243, 1902899845, 0.88545746, 0.18374085, -0.37125346, 0.2106601, -0.64698374, 0.4574555, 8.699085, 0
1245, 1902933179, 0.8877844, 0.18030111, -0.36512628, 0.21451288, -0.46771562, -2.0045283, 1.6096745, 0
1246, 1902949846, 0.887911, 0.17708784, -0.3660385, 0.21510977, -1.0838411, -0.05723876, 0.15888786, 0
1249, 1902999847, 0.88515395, 0.17322657, -0.37318677, 0.21732292, -0.7127904, 1.0050576, 0.9391203, 0
1250, 1903016514, 0.88352716, 0.17282246, -0.37666705, 0.2182579, -0.715433, 0.7586538, 0.86454105, 0
1251, 1903033181, 0.88159686, 0.17171735, -0.38122296, 0.2190246, -1.1658621, 0.08217946, 0.6305561, 0
1253, 1903066515, 0.87712944, 0.16888143, -0.39287144, 0.2185814, -0.9831246, 0.5105566, -0.27473545, 0
1254, 1903083182, 0.8747784, 0.16644791, -0.39947656, 0.21789704, -0.5278502, 0.40355387, -0.4010954, 0
1255, 1903099849, 0.87229294, 0.16660403, -0.40498826, 0.2175657, -0.56683195, -0.19303465, -0.2893629, 0
1257, 1903133183, 0.86632293, 0.16909066, -0.41653684, 0.21769848, 0.26467198, -0.5119589, -0.9698305, 0
1258, 1903149850, 0.8629868, 0.17124565, -0.42216885, 0.21841449, 0.20326515, -0.85005885, -0.8549118, 0
1260, 1903183184, 0.8554033, 0.17482795, -0.4332872, 0.22357334, -0.30140096, -1.1215616, -1.3903542, 0
1261, 1903199851, 0.85131687, 0.17718719, -0.43819124, 0.22771755, -0.14408986, -1.8718343, -1.0672035, 0
1265, 1903266519, 0.82980084, 0.1858277, -0.46005887, 0.25543472, 0.8573579, -2.5423782, -0.5304918, 0
1266, 1903283186, 0.8236206, 0.18946064, -0.4649933, 0.26369938, 1.0479888, -1.5388652, -0.04808426, 0
1268, 1903316520, 0.8118897, 0.19482397, -0.4737396, 0.28009272, 0.29234332, 0.18300839, -0.8544998, 0
1269, 1903333187, 0.8071801, 0.19931237, -0.47572786, 0.2870896, -0.34422067, 0.7732879, -1.3263865, 0
1270, 1903349854, 0.8027386, 0.2053068, -0.47637466, 0.29415897, 0.3702986, 1.2208459, -1.5242958, 0
1272, 1903383188, 0.796057, 0.21294203, -0.47852203, 0.30326277, -0.59046143, 1.3680443, -2.151009, 0
1273, 1903399855, 0.79221535, 0.22131072, -0.4780912, 0.30797362, 0.19374259, 1.2443887, -3.0244708, 0
1274, 1903416522, 0.7888298, 0.2278555, -0.47787845, 0.31219277, 0.39480323, 0.40531135, -3.0122495, 0
1276, 1903449856, 0.7826951, 0.24088292, -0.47610578, 0.32045192, 0.09232672, 0.50896525, -2.5553517, 0
1278, 1903483190, 0.77720284, 0.24972433, -0.4762929, 0.32671273, -0.17089778, 0.28313884, -1.0823488, 0
1281, 1903533191, 0.7754396, 0.25292292, -0.47647935, 0.32816657, -1.9490852, 1.6079888, 0.9453726, 0
1284, 1903583192, 0.7801063, 0.24308999, -0.4844736, 0.3124571, -0.9126206, 2.2169704, 1.676631, 0
1285, 1903599859, 0.7813301, 0.24034186, -0.4875303, 0.3067179, -0.67464703, 1.308522, 2.755247, 0
1287, 1903633193, 0.7831343, 0.23232216, -0.49595684, 0.29454502, -0.2658396, 0.78444445, 1.0780888, 0
1288, 1903649860, 0.7841385, 0.22567122, -0.5011698, 0.28815082, 0.55386764, -0.34211388, 0.46787548, 0
1289, 1903666527, 0.7854985, 0.21927966, -0.5056342, 0.2815054, 0.36316922, -1.4445635, 0.10397148, 0
1292, 1903716528, 0.7915123, 0.20203876, -0.51499254, 0.25975764, -1.7250357, -2.2950404, -0.18230057, 0
1296, 1903783196, 0.7965323, 0.20954826, -0.51210904, 0.24366531, -1.1617517, -3.164749, -0.3196993, 0
1297, 1903799863, 0.79729915, 0.21330112, -0.5099605, 0.24240391, -0.80501723, -3.4106352, -0.9559078, 0
1299, 1903833197, 0.79774517, 0.22224084, -0.5050794, 0.24312326, -1.0026867, -2.8761039, -1.9899659, 0
1301, 1903866531, 0.7969184, 0.22569652, -0.50369316, 0.24551606, -2.9163692, -0.5654054, -1.5584898, 0
1303, 1903899865, 0.7963745, 0.22291283, -0.50500226, 0.24712908, -2.762021, 0.18777804, -1.8952045, 0
1304, 1903916532, 0.7960394, 0.22203426, -0.50528204, 0.2484242, -2.1780775, -0.358824, -1.6481428, 0
1309, 1903999867, 0.81027067, 0.19865018, -0.49471018, 0.24344206, -1.7387958, 0.11456816, -3.1930423, 0
1311, 1904033201, 0.8197794, 0.18791461, -0.48458374, 0.24048112, 0.108798504, 0.7573627, -4.9913826, 0
1312, 1904049868, 0.82485306, 0.1820426, -0.47860065, 0.23962885, 0.77574855, 1.8683277, -5.858445, 0
1314, 1904083202, 0.8357925, 0.16687208, -0.4656055, 0.23836665, -0.49031624, 2.9001, -6.5380173, 0
1315, 1904099869, 0.84054697, 0.15970354, -0.45977324, 0.23787954, 1.2446091, 3.652411, -6.397372, 0
1316, 1904116536, 0.8452261, 0.14490086, -0.4572384, 0.23565285, 2.3519115, 5.673995, -5.7163744, 0
1319, 1904166537, 0.86068785, 0.121275775, -0.43793833, 0.22961122, 7.8915505, 2.4095726, 10.4545555, 0
1320, 1904183204, 0.8662129, 0.12075463, -0.4263882, 0.23084441, 13.544593, 1.4852494, 12.367161, 0
1322, 1904216538, 0.87763965, 0.08947003, -0.41001743, 0.23158552, 9.107686, -1.6849039, 9.259487, 0
1324, 1904249872, 0.8848888, 0.036508597, -0.40514854, 0.22692761, -0.23010212, -4.286344, -0.2593994, 0
1326, 1904283206, 0.8880602, 0.026159503, -0.3966727, 0.23090693, -6.731982, -5.1441417, 5.743307, 0
1328, 1904316540, 0.89125055, 0.03388555, -0.38574484, 0.23606725, -2.872317, 2.3563533, 11.070463, 0
1335, 1904433209, 0.8913114, 0.037472337, -0.38056073, 0.24359012, -1.4177485, -0.44085276, 0.035603523, 0
1336, 1904449876, 0.890517, 0.036977116, -0.3829315, 0.24285457, -0.9499108, -0.8954184, -0.91078186, 0
1338, 1904483210, 0.88824445, 0.051922105, -0.38603497, 0.24352711, 0.79937094, -2.0443468, -1.2848005, 0
1339, 1904499877, 0.8867932, 0.059689846, -0.3883142, 0.24341218, 0.1611249, -2.0273767, -0.5774698, 0
1343, 1904566545, 0.8777681, 0.09043623, -0.40330213, 0.24226901, -0.35016298, -0.42210412, -2.4368892, 0
1345, 1904599879, 0.8716047, 0.10749822, -0.41096622, 0.24466024, -1.446418, 0.17343041, -1.283, 0
1346, 1904616546, 0.8682677, 0.112271994, -0.4162645, 0.24542297, -1.0923901, -0.03099443, -2.1188345, 0
1347, 1904633213, 0.86473095, 0.120422296, -0.4208147, 0.24628504, -0.8183042, 0.14840534, -1.8270707, 0
1349, 1904666547, 0.8566561, 0.14025672, -0.43131942, 0.2458345, -0.42001057, -0.11843214, -0.7834215, 0
1350, 1904683214, 0.8528666, 0.15088736, -0.43647403, 0.24360806, -0.42140126, -0.4072673, -1.2331038, 0
1353, 1904733215, 0.8420758, 0.17205754, -0.45472518, 0.23352107, -0.9396529, 0.62115747, -1.5847712, 0
1355, 1904766549, 0.83672386, 0.17881802, -0.46538973, 0.22656614, -1.6810215, 1.0012943, -1.0270844, 0
1357, 1904799883, 0.83195513, 0.18217064, -0.47568583, 0.21997751, -1.2788119, 0.33087048, -1.1629801, 0
1359, 1904833217, 0.8282333, 0.18322328, -0.48433802, 0.21419197, -1.972189, 1.278579, 0.12612057, 0
1362, 1904883218, 0.8217604, 0.18010592, -0.50098175, 0.20320323, -1.2785945, 0.030662624, 0.6392832, 0
1363, 1904899885, 0.8185283, 0.17616613, -0.5091099, 0.1994655, -0.8323001, -0.048386533, -0.6092615, 0
1365, 1904933219, 0.812551, 0.16704366, -0.5243595, 0.19211172, -1.2704346, 0.057764575, -0.48613644, 0
1366, 1904949886, 0.8100099, 0.16343707, -0.531044, 0.18752946, -0.64857715, -0.5281533, -1.9848804, 0
1369, 1904999887, 0.80451375, 0.15451796, -0.54453355, 0.17991045, -1.4327775, -0.99649197, -0.58069706, 0
1370, 1905016554, 0.8031473, 0.14776288, -0.54898065, 0.17816715, -1.3746908, -0.037200827, -0.34696865, 0
1372, 1905049888, 0.8034316, 0.13790515, -0.55185956, 0.17587866, -1.4725318, -0.648339, -1.253746, 0
1373, 1905066555, 0.8041439, 0.13424885, -0.5517116, 0.1759167, -0.9623643, -1.445316, -1.6659775, 0
1376, 1905116556, 0.81131935, 0.12798923, -0.5402148, 0.1831678, -0.7843881, 0.29250047, -2.871643, 0
1377, 1905133223, 0.81654996, 0.1269451, -0.5318477, 0.18512706, -0.5988797, 0.7046947, -3.7151341, 0
1380, 1905183224, 0.8365435, 0.13287541, -0.49189076, 0.2014574, 0.22291428, 1.114421, -5.8741198, 0
1381, 1905199891, 0.843691, 0.12997751, -0.47711644, 0.20893535, -0.20549881, 2.3737829, -6.355435, 0
1382, 1905216558, 0.8510045, 0.112791136, -0.46666196, 0.21283564, -1.4982284, 3.3248925, -5.377812, 0
1385, 1905266559, 0.8675193, 0.0941046, -0.43040028, 0.23089537, 8.918571, 0.13233498, 7.313019, 0
1386, 1905283226, 0.8725492, 0.09585444, -0.416327, 0.2369481, 8.4056015, 2.3321404, 9.40811, 0
1388, 1905316560, 0.8815827, 0.08377345, -0.3907215, 0.25126332, 8.566481, 0.85601777, 10.48583, 0
1389, 1905333227, 0.88520205, 0.07163582, -0.38143745, 0.25650334, 6.7962604, 2.9528708, 8.283787, 0
1392, 1905383228, 0.8881611, 0.013753952, -0.37516147, 0.2650223, 0.20661493, -3.7125175, 0.50773907, 0
1395, 1905433229, 0.8934199, 0.024176573, -0.36017334, 0.26738364, -5.51654, -0.09450576, 9.335478, 0
1397, 1905466563, 0.8946145, 0.03083224, -0.3536165, 0.27142665, -2.597428, 0.48686, 5.694186, 0
1401, 1905533231, 0.89336276, 0.043468565, -0.35189614, 0.27601677, -0.4442655, -0.5942987, -0.8459625, 0
1403, 1905566565, 0.89194906, 0.050453804, -0.35645175, 0.27354378, -0.3209503, -1.0420107, -0.5189419, 0
1404, 1905583232, 0.8911728, 0.053424865, -0.35964346, 0.27132234, -0.49931383, -1.2827997, -0.98644733, 0
1405, 1905599899, 0.8903401, 0.056088857, -0.36359355, 0.2682367, -0.89966154, -0.78587735, -1.2529058, 0
1407, 1905633233, 0.88816524, 0.06542383, -0.37219846, 0.2614443, -0.5810463, -0.65571696, -2.3878613, 0
1408, 1905649900, 0.88652414, 0.07187751, -0.37713373, 0.25822768, -0.72970027, -1.133229, -2.7999473, 0
1409, 1905666567, 0.8852448, 0.078775235, -0.38168558, 0.25387973, -1.3983655, -0.57384604, -1.8125906, 0
1411, 1905699901, 0.8812605, 0.088137306, -0.39387923, 0.24591355, -1.6514757, -0.34212306, -2.218104, 0
1412, 1905716568, 0.8786061, 0.09624822, -0.39947078, 0.2433379, -0.89339626, -0.8378943, -2.9285989, 0
1417, 1905799903, 0.8619639, 0.13065523, -0.4265861, 0.24077806, -1.1460484, 0.22396277, -1.597702, 0
1419, 1905833237, 0.853969, 0.14243793, -0.44037545, 0.23774044, -1.1554707, -0.043230087, -0.5618763, 0
1420, 1905849904, 0.8493534, 0.14718412, -0.44885355, 0.23551822, -0.93771356, -0.16533272, -0.5751867, 0
1422, 1905883238, 0.83934706, 0.1592784, -0.46592677, 0.23030749, 0.87191373, 0.24612102, -1.7401924, 0
1423, 1905899905, 0.8351879, 0.16369432, -0.4728615, 0.22818822, 0.91411054, 0.018363377, -1.3978462, 0
1424, 1905916572, 0.8324975, 0.16475134, -0.47847223, 0.22554792, -0.76151335, 0.60921, -0.52318954, 0
1426, 1905949906, 0.8278688, 0.15926306, -0.4916209, 0.2181283, -1.4696922, 1.4682976, -0.31322384, 0
1427, 1905966573, 0.8257595, 0.15916759, -0.49622822, 0.21574764, -1.3546653, 0.63569117, 0.5613146, 0
1428, 1905983240, 0.8229345, 0.1595268, -0.5021795, 0.21248151, -0.94772, -0.24868739, -0.16298008, 0
1430, 1906016574, 0.8176668, 0.16790128, -0.5093133, 0.2093631, -0.15777087, -0.92722726, -0.92803574, 0
1432, 1906049908, 0.81613404, 0.16022505, -0.5164611, 0.20377418, -2.12756, 1.3115469, 0.30538177, 0
1435, 1906099909, 0.80841845, 0.1693327, -0.52556103, 0.20389774, -1.6042023, -0.61440825, 0.5130625, 0
1436, 1906116576, 0.8052097, 0.17178899, -0.52980554, 0.20355523, -1.6387036, -0.0029180734, 0.17643642, 0
1438, 1906149910, 0.79773045, 0.17497104, -0.5404407, 0.20233127, -1.9520924, 0.6586183, -0.6288614, 0
1439, 1906166577, 0.7958082, 0.17522101, -0.5433082, 0.20200393, -1.9331906, 0.800006, -0.47108746, 0
1440, 1906183244, 0.7951825, 0.17360644, -0.54519856, 0.20076479, -1.9630457, 0.93852746, 0.40381718, 0
1442, 1906216578, 0.7952851, 0.17070717, -0.5468449, 0.19835287, -0.55928844, -1.724803, -1.2310858, 0
1443, 1906233245, 0.79517365, 0.1718924, -0.54619974, 0.19955, -0.34343123, -1.8733578, -1.734684, 0
1444, 1906249912, 0.7957463, 0.17210884, -0.54446864, 0.20179892, -1.1563137, -0.5174141, -1.4619064, 0
1446, 1906283246, 0.8009015, 0.15710743, -0.54216444, 0.19983578, -1.2939129, 0.909613, -2.4019566, 0
1449, 1906333247, 0.8145797, 0.1576258, -0.51768196, 0.20885831, 0.12547414, 0.2417596, -4.3957453, 0
1450, 1906349914, 0.8209621, 0.16178128, -0.50372255, 0.21474254, 0.46568993, 0.943165, -4.606519, 0
1451, 1906366581, 0.82995284, 0.16323158, -0.48581004, 0.22028366, -2.574354, 1.9701719, -3.4753585, 0
1453, 1906399915, 0.8388757, 0.16031216, -0.46432924, 0.2344961, -0.6855831, 0.19637753, -7.1285133, 0
1457, 1906466583, 0.8496412, 0.14427005, -0.43306643, 0.26410654, 8.219333, 3.0417602, 8.439383, 0
1458, 1906483250, 0.85351276, 0.13840574, -0.42633384, 0.2657101, 8.750602, 7.460976, 9.822226, 0
1459, 1906499917, 0.8579826, 0.12874934, -0.42072102, 0.2651154, 8.96062, 4.706305, 10.536909, 0
1461, 1906533251, 0.8661631, 0.10024243, -0.4172802, 0.2561112, 6.692746, 2.507493, 5.685523, 0
1462, 1906549918, 0.8693263, 0.086445585, -0.41760802, 0.24980989, 5.5574, -2.718703, 3.9140482, 0
1463, 1906566585, 0.87283397, 0.0751563, -0.41631126, 0.2433106, 2.177253, -5.8145676, 3.7989979, 0
1466, 1906616586, 0.8804818, 0.06891241, -0.40142027, 0.24262534, -5.4237566, -3.65962, 9.43277, 0
1467, 1906633253, 0.8813742, 0.07202965, -0.39707983, 0.24560419, -4.9374757, -0.7336464, 6.9343376, 0
1469, 1906666587, 0.880807, 0.08334954, -0.3914602, 0.25296894, -3.0009494, -1.9541358, 1.2656717, 0
1470, 1906683254, 0.8794623, 0.08946983, -0.39087036, 0.2564454, -1.8001772, -1.098455, -0.3430357, 0
1471, 1906699921, 0.878143, 0.09529814, -0.39087957, 0.25884107, -1.0334537, -1.3149064, -0.44301987, 0
1473, 1906733255, 0.8748806, 0.10328601, -0.39528587, 0.26012996, -0.71824926, -1.7140354, -2.079339, 0
1474, 1906749922, 0.8731511, 0.105798535, -0.39933905, 0.25873637, -1.1379863, -1.4019526, -1.9240942, 0
1476, 1906783256, 0.8690688, 0.11681028, -0.40840143, 0.253546, -1.0225456, -1.435719, -2.9113388, 0
1477, 1906799923, 0.86658293, 0.12285415, -0.4139381, 0.25019738, -1.4760596, 0.26301894, -2.0518837, 0
1478, 1906816590, 0.8641665, 0.12867093, -0.4202793, 0.24500617, -1.4051522, 1.0021315, -2.5295649, 0
1480, 1906849924, 0.860155, 0.13481657, -0.4314716, 0.23620482, -1.9100738, 2.0189204, -0.94755936, 0
1481, 1906866591, 0.8584559, 0.13521962, -0.4374817, 0.23104464, -1.9540242, 1.3119165, -1.5744705, 0
1482, 1906883258, 0.8568989, 0.13859317, -0.44200754, 0.22615975, -1.4010142, 0.57116795, -2.3273506, 0
1484, 1906916592, 0.8540157, 0.14588809, -0.44963977, 0.21725705, 0.31044564, 0.08726102, -2.3063412, 0
1485, 1906933259, 0.8531431, 0.1436805, -0.45471606, 0.21151495, -1.1621733, 0.112394944, -1.4332075, 0
1488, 1906983260, 0.8471825, 0.13334474, -0.47881764, 0.18771641, 1.516583, 1.4479688, -3.0156455, 0
1489, 1906999927, 0.84573406, 0.12919743, -0.48573124, 0.179192, 2.8448992, 1.5100878, -3.3506536, 0
1490, 1907016594, 0.84499377, 0.12616557, -0.4906804, 0.17118248, 0.5405263, 2.0077722, -1.441081, 0
1492, 1907049928, 0.84388727, 0.115583986, -0.4990084, 0.15964931, 0.74608, 0.6004724, -0.43362713, 0
1494, 1907083262, 0.84261006, 0.105105594, -0.50571275, 0.15237539, 1.6312901, -1.0086203, -1.078332, 0
1496, 1907116596, 0.841069, 0.10570049, -0.50896186, 0.14963472, -0.5467592, -1.5512242, 0.68440914, 0
1497, 1907133263, 0.8401051, 0.103716426, -0.51096076, 0.14962599, -0.0939112, -1.3838915, 1.6407928, 0
1498, 1907149930, 0.8392497, 0.10417566, -0.5119887, 0.15058991, -0.60926056, -1.2939272, 1.6792631, 0
1500, 1907183264, 0.8381392, 0.11207855, -0.51122016, 0.15368074, -0.6181403, 0.06809077, 1.03121, 0
1501, 1907199931, 0.8371669, 0.11775174, -0.5105077, 0.15706822, 0.6254197, -0.29507843, 0.32641125, 0
1503, 1907233265, 0.8343774, 0.1323962, -0.5084266, 0.16670501, 0.53226995, -0.4233065, -0.26936913, 0
1504, 1907249932, 0.83318585, 0.13658242, -0.50858605, 0.1687878, -0.33681792, 0.68598235, 0.50212, 0
1505, 1907266599, 0.83210486, 0.13982402, -0.50917166, 0.16969788, -0.5722267, 1.0574539, 0.8807831, 0
1507, 1907299933, 0.82921714, 0.14625901, -0.51221395, 0.1692534, -0.29631785, 0.029847696, -0.08752823, 0
1509, 1907333267, 0.8260346, 0.1528646, -0.51628345, 0.16659337, -1.5020478, 0.4446352, -0.7402592, 0
1511, 1907366601, 0.822747, 0.15538916, -0.5215609, 0.1640678, -1.5351149, 0.3446942, -1.1037855, 0
1513, 1907399935, 0.82083184, 0.15460943, -0.5257012, 0.16115776, -2.0118964, 0.38412914, -0.5629177, 0
1515, 1907433269, 0.81817305, 0.15671745, -0.5289776, 0.16191937, -1.8612074, -1.9140126, -0.30638027, 0
1516, 1907449936, 0.81647515, 0.15925725, -0.53002775, 0.16455638, -1.2875515, -2.2592354, -0.11517429, 0
1517, 1907466603, 0.8150261, 0.16232891, -0.5301822, 0.16820037, -0.79474723, -2.4454222, 0.2375679, 0
1519, 1907499937, 0.8130136, 0.16776502, -0.5287829, 0.1767905, -1.6995676, -0.90464693, 0.42559052, 0
1520, 1907516604, 0.81159896, 0.16875392, -0.52937, 0.18055284, -2.1724195, -0.9677892, 0.65932655, 0
1521, 1907533271, 0.80973446, 0.16894843, -0.5311609, 0.18345946, -1.8233027, -0.56233704, 0.08387089, 0
1525, 1907599939, 0.8073406, 0.17129003, -0.53110605, 0.19180639, -0.95488465, -0.7033463, -1.3050575, 0
1528, 1907649940, 0.8085659, 0.17804249, -0.52449334, 0.19857326, -1.4952002, 0.8144523, -2.3824625, 0
1531, 1907699941, 0.8124313, 0.16461375, -0.5233735, 0.19733343, 0.03266575, -0.31075868, -2.607346, 0
1532, 1907716608, 0.81475013, 0.16256686, -0.52026886, 0.19767946, 0.16521274, -1.3996942, -2.5782547, 0
1534, 1907749942, 0.82114244, 0.16274217, -0.5087149, 0.20112643, -0.15992688, -0.81668127, -2.3099408, 0
1535, 1907766609, 0.8247029, 0.1606026, -0.50321054, 0.20212321, 0.48638678, -0.8523428, -2.5000076, 0
1536, 1907783276, 0.8288319, 0.15681997, -0.49787644, 0.20141275, 0.78650117, -0.21390599, -2.4336529, 0
1538, 1907816610, 0.8387116, 0.15627624, -0.4805346, 0.20305084, 0.53575075, -1.2074186, -4.223037, 0
1539, 1907833277, 0.843639, 0.15269327, -0.4717264, 0.20599711, 1.4743469, -2.421252, -6.094041, 0
1540, 1907849944, 0.84799814, 0.14588812, -0.46471065, 0.20895517, 2.1769133, -3.0367615, -6.569907, 0
1542, 1907883278, 0.85411114, 0.15633774, -0.44615018, 0.21680711, 7.1891155, -1.8464514, -3.5870485, 0
1544, 1907916612, 0.85857564, 0.1595045, -0.43417385, 0.22113767, 4.2684946, 3.8011973, 4.2759905, 0
1546, 1907949946, 0.8635023, 0.1689712, -0.42067856, 0.22100824, 5.080945, 5.0894294, 8.098442, 0
1547, 1907966613, 0.8659758, 0.17913887, -0.41188276, 0.21988738, 4.1780696, 3.6294224, 8.196848, 0
1548, 1907983280, 0.8685689, 0.18572752, -0.40395167, 0.21890385, 0.897434, 3.7003694, 7.4725533, 0
1550, 1908016614, 0.8747813, 0.19086727, -0.3876394, 0.21923861, -4.3466387, -0.02262845, 7.0357533, 0
1551, 1908033281, 0.87819344, 0.18995976, -0.37907606, 0.22134906, -6.4231367, -3.8068762, 9.99733, 0
1554, 1908083282, 0.88900656, 0.17035332, -0.36384276, 0.21970016, -1.0489835, -1.3203708, 5.2326584, 0
1555, 1908099949, 0.8910942, 0.16595255, -0.36061502, 0.21993281, -0.34741423, -1.3714294, 1.0759296, 0
1557, 1908133283, 0.8931416, 0.15664494, -0.36147392, 0.21702462, -0.7331028, 1.5011212, -1.673871, 0
1558, 1908149950, 0.89292735, 0.15665579, -0.36284873, 0.21559897, -0.34241784, 1.9421586, -1.5104303, 0
1559, 1908166617, 0.8920025, 0.15731679, -0.3655769, 0.21433423, 0.23856722, 1.254651, -1.5553598, 0
1561, 1908199951, 0.8885411, 0.15992057, -0.37381458, 0.21256837, -0.05572759, 0.98349476, -0.97009754, 0
1562, 1908216618, 0.8860864, 0.1609487, -0.37955964, 0.21185744, -0.33876318, 0.5817439, -1.416934, 0
1563, 1908233285, 0.88334763, 0.1601962, -0.3867744, 0.21081328, -0.65678144, 0.24585912, -1.4040747, 0
1567, 1908299953, 0.8709066, 0.15295015, -0.42070538, 0.20282385, -0.51625973, 0.079001546, -1.4230175, 0
1569, 1908333287, 0.86376745, 0.15084451, -0.43934834, 0.19526225, -0.86467993, -0.051134404, -2.4609547, 0
1570, 1908349954, 0.8598455, 0.14951807, -0.4486827, 0.19234455, -0.5810919, -0.29772848, -2.1169991, 0
1571, 1908366621, 0.8559073, 0.15036441, -0.4568864, 0.18992314, -0.6444712, -0.7275704, -2.1612234, 0
1573, 1908399955, 0.8478885, 0.15170889, -0.4735394, 0.18393625, -0.55677325, -0.18516171, -2.3543282, 0
1575, 1908433289, 0.8401286, 0.15021385, -0.4895157, 0.17887667, -0.30635446, -0.5885021, -2.4175696, 0
1577, 1908466623, 0.8314352, 0.15580602, -0.5021983, 0.17955312, -0.3231803, -1.8642739, -1.9223552, 0
1578, 1908483290, 0.82685536, 0.15862842, -0.5088904, 0.17938893, -0.53218013, -1.9044685, -1.4810429, 0
1579, 1908499957, 0.822654, 0.16106422, -0.51520157, 0.1785176, -0.18765835, -1.6502286, -0.66673183, 0
1582, 1908549958, 0.8103655, 0.16974649, -0.53045297, 0.18197823, -0.19778438, -1.2694347, 0.27309036, 0
1585, 1908599959, 0.7983177, 0.1702874, -0.5469812, 0.18575577, -0.76875776, -0.6272334, -0.36187077, 0
1586, 1908616626, 0.7956772, 0.17045364, -0.5503901, 0.1868602, -0.925754, -0.67912894, 0.072752, 0
1588, 1908649960, 0.7909143, 0.17365153, -0.55518216, 0.18993363, -1.2854717, -0.9074578, 0.56875134, 0
1589, 1908666627, 0.788738, 0.1729116, -0.5580057, 0.19138011, -1.746899, -0.7618818, 0.48544407, 0
1590, 1908683294, 0.7866141, 0.17250049, -0.5601036, 0.19434114, -0.46324715, -1.298045, 0.6928034, 0
1593, 1908733295, 0.78284186, 0.16596606, -0.5657149, 0.19895494, -0.21980041, -0.4388532, 0.34095192, 0
1594, 1908749962, 0.7824838, 0.1655025, -0.56582034, 0.20044377, -0.111932606, -0.85707104, 0.7007942, 0
1596, 1908783296, 0.7825366, 0.16798137, -0.5626674, 0.2069458, -0.14087395, -0.5941038, 0.23589325, 0
1598, 1908816630, 0.78437316, 0.17099607, -0.55523324, 0.21734232, -0.22843382, -0.8272699, -0.64651394, 0
1600, 1908849964, 0.7896302, 0.17136727, -0.5445024, 0.22502679, -0.9699271, 0.041259933, -1.6809311, 0
1602, 1908883298, 0.79719883, 0.17596021, -0.5280078, 0.23392853, -0.8495814, 0.15991879, -2.3752275, 0
1604, 1908916632, 0.8055848, 0.17647135, -0.5110337, 0.24235928, -0.56885266, -0.029034222, -4.52888, 0
1605, 1908933299, 0.81148934, 0.17198953, -0.5029233, 0.24284841, 0.100033894, -0.033010125, -3.8834991, 0
1606, 1908949966, 0.8175466, 0.16811542, -0.494504, 0.24253507, 0.2976227, 0.32322773, -4.0427275, 0
1608, 1908983300, 0.8303762, 0.1662176, -0.4736717, 0.2418361, 1.2337544, -0.8454167, -4.7971063, 0
1610, 1909016634, 0.84288836, 0.16740568, -0.4526145, 0.23802789, 3.875032, -1.1195568, -5.017867, 0
1612, 1909049968, 0.8532351, 0.17282327, -0.4329279, 0.23387578, -0.32718542, 0.0013003984, 3.4311876, 0
1613, 1909066635, 0.8587041, 0.15400545, -0.43304822, 0.22667448, -0.21150227, 5.6465263, 6.8814106, 0
1615, 1909099969, 0.86722136, 0.16318545, -0.41580966, 0.22000544, 7.5434666, 3.1916986, 7.3004265, 0
1616, 1909116636, 0.8695724, 0.17887586, -0.40269625, 0.22290254, 8.756561, 1.5377686, 6.8077106, 0
1617, 1909133303, 0.8707658, 0.1944241, -0.38892445, 0.2295791, 6.9709263, -2.0664206, 4.6973076, 0
1619, 1909166637, 0.8723298, 0.19620466, -0.3793238, 0.23803501, -1.8250831, -1.1131511, 2.220683, 0
1620, 1909183304, 0.87362206, 0.19626164, -0.37728053, 0.23649102, -3.1996143, 2.2854474, 2.0770922, 0
1621, 1909199971, 0.87516093, 0.20034137, -0.37184784, 0.23598391, -4.8068967, 2.3966563, 4.6875906, 0
1623, 1909233305, 0.87849504, 0.19918737, -0.36345294, 0.23764487, -3.6797543, 1.2747042, 6.838587, 0
1625, 1909266639, 0.8818396, 0.18920954, -0.35920936, 0.23985375, -1.5718752, 0.75144786, 3.9564161, 0
1627, 1909299973, 0.8823808, 0.19124793, -0.35264197, 0.24591602, -1.7963486, -1.6912767, 0.2472105, 0
1628, 1909316640, 0.88179886, 0.18481903, -0.3572932, 0.24620435, 0.25020754, 0.58034915, -1.698595, 0
1629, 1909333307, 0.881244, 0.17896135, -0.3618576, 0.24585259, 0.25021136, 2.056671, -1.2627296, 0
1631, 1909366641, 0.8781998, 0.18490238, -0.36543542, 0.24705401, -1.4734533, -0.41957662, -0.24987125, 0
1632, 1909383308, 0.87586313, 0.18188722, -0.3729175, 0.24640605, -0.21855432, 0.50236595, -0.8025789, 0
1633, 1909399975, 0.87372744, 0.17742121, -0.38163552, 0.24388352, 0.26798934, 0.77617925, -0.61938953, 0
1635, 1909433309, 0.8677633, 0.17810571, -0.39539123, 0.24276246, -0.7794817, -0.81948423, -0.97919464, 0
1636, 1909449976, 0.86417544, 0.17714868, -0.40416536, 0.24181017, -0.4300443, -0.6134267, -1.599596, 0
1638, 1909483310, 0.8560691, 0.17422928, -0.42474172, 0.23745923, -0.07113925, -0.014249622, -1.254446, 0
1639, 1909499977, 0.85235584, 0.17128085, -0.43544632, 0.23354138, -0.20889856, -0.002969146, -1.7134733, 0
1640, 1909516644, 0.8483848, 0.17040466, -0.44520083, 0.23022634, -0.4635111, -0.32755858, -1.5574512, 0
1643, 1909566645, 0.8367322, 0.16318123, -0.47589552, 0.21628067, -0.64884114, 0.61173075, -2.816649, 0
1644, 1909583312, 0.83311534, 0.16028145, -0.48617607, 0.2094376, -0.42158926, 1.2992581, -2.7657695, 0
1646, 1909616646, 0.8252289, 0.16672654, -0.49953294, 0.20412956, -0.22875077, -1.5404828, -1.8262401, 0
1647, 1909633313, 0.8212954, 0.17046341, -0.5055014, 0.20220609, -0.76963603, -1.6065389, -1.2206526, 0
1648, 1909649980, 0.81696147, 0.1707297, -0.5135084, 0.19934137, -0.19300567, -1.7221138, -0.8125067, 0
1650, 1909683314, 0.80982053, 0.16461337, -0.52915436, 0.19259128, -0.7538886, -1.8057657, -1.2733421, 0
1651, 1909699981, 0.80608207, 0.16093823, -0.5370627, 0.1894649, -0.77099097, -0.80792695, -1.6520119, 0
1654, 1909749982, 0.7976539, 0.16672502, -0.54700685, 0.19166905, -0.52020854, -1.597343, -0.634675, 0
1655, 1909766649, 0.79516107, 0.17053908, -0.5489216, 0.19319133, -0.5389027, -1.9393473, -0.16513443, 0
1658, 1909816650, 0.7870402, 0.17368382, -0.55885917, 0.19514276, -1.297643, -0.5317994, 0.1999855, 0
1659, 1909833317, 0.78411424, 0.17331691, -0.56286806, 0.19572496, -1.0929434, -0.26682195, 0.44056606, 0
1660, 1909849984, 0.7816402, 0.17226785, -0.5665672, 0.19587436, -0.63802445, -0.0075548496, 0.36863708, 0
1662, 1909883318, 0.77758414, 0.16831014, -0.5737267, 0.19461422, -0.84445786, 0.3380002, 0.4927492, 0
1663, 1909899985, 0.7756721, 0.16414137, -0.57800215, 0.19314869, -0.6113553, 0.89467275, -0.053853035, 0
1665, 1909933319, 0.7724201, 0.16138227, -0.5830741, 0.19326186, 0.32747465, -0.38464373, 0.091059685, 0
1666, 1909949986, 0.7712938, 0.16261792, -0.58387387, 0.194307, 0.43672284, -0.678479, 0.76468277, 0
1667, 1909966653, 0.7703389, 0.16371658, -0.5846448, 0.19485304, -0.13526289, -0.55240875, 0.6595392, 0
1670, 1910016654, 0.7694792, 0.16136242, -0.58697623, 0.19319789, 0.18402894, -0.24702154, -0.33436298, 0
1671, 1910033321, 0.77058256, 0.16159987, -0.58543, 0.19329344, 0.1726736, -0.17804165, -0.57544136, 0
1673, 1910066655, 0.7758759, 0.16744918, -0.57561445, 0.1965905, -0.5637708, -0.9452157, -0.25555706, 0
1674, 1910083322, 0.7797521, 0.16991541, -0.56896853, 0.19847637, -1.1556911, -0.49285132, -0.999176, 0
1675, 1910099989, 0.78435427, 0.1691135, -0.5625791, 0.19923931, -1.2344927, 0.051581204, -1.7752523, 0
1677, 1910133323, 0.7963643, 0.16514692, -0.5462263, 0.2004243, -0.83293444, 0.114706405, -2.5758352, 0
1678, 1910149990, 0.8042531, 0.16066627, -0.53616726, 0.19972618, -0.74175346, -0.8092719, -2.9401832, 0
1679, 1910166657, 0.8125267, 0.15640317, -0.5249399, 0.19944751, -1.0276089, -1.3580011, -2.9585567, 0
1681, 1910199991, 0.8283856, 0.14613247, -0.5020743, 0.2008646, 0.15460011, -2.144521, -5.440274, 0
1682, 1910216658, 0.83554596, 0.14507824, -0.48920837, 0.20369877, 1.3662431, -2.5640712, -6.151745, 0
1685, 1910266659, 0.84921604, 0.18091878, -0.4447676, 0.21973869, 2.205263, -2.9766686, -0.8343067, 0
1686, 1910283326, 0.8536037, 0.16892332, -0.44186166, 0.21814321, -2.9270492, 2.364675, 6.5589085, 0
1687, 1910299993, 0.8576323, 0.14751081, -0.44284433, 0.21586761, 1.3478135, 6.9490767, 8.83359, 0
1689, 1910333327, 0.8614751, 0.17419586, -0.42160714, 0.22308442, 7.1468773, 1.7298949, 5.717476, 0
1690, 1910349994, 0.861383, 0.20025042, -0.40461096, 0.23283379, 5.854469, -2.0032282, 5.9901543, 0
1693, 1910399995, 0.8625927, 0.19185129, -0.39710623, 0.24786271, -0.585941, 3.079169, 4.599844, 0
1694, 1910416662, 0.8629987, 0.19488366, -0.39297053, 0.2506596, -0.947631, 1.9114218, 4.061948, 0
1696, 1910449996, 0.86300266, 0.19817054, -0.38786367, 0.25596723, -1.1772081, 1.0760258, 3.4876251, 0
1697, 1910466663, 0.8627802, 0.19858813, -0.38698784, 0.25771302, -0.7019044, 0.8059987, 2.8846111, 0
1698, 1910483330, 0.862577, 0.19607392, -0.388337, 0.25828838, -1.3291171, 0.5514505, 1.9231844, 0
1701, 1910533331, 0.8600869, 0.19651598, -0.39167878, 0.2611942, -0.21564062, 0.24152613, 1.0734301, 0
1702, 1910549998, 0.8585708, 0.1984811, -0.3932219, 0.2623752, -0.54237723, 0.51263523, 0.8998575, 0
1704, 1910583332, 0.8548367, 0.20095702, -0.39903244, 0.26390594, -1.183061, 0.6747389, -0.10962677, 0
1705, 1910599999, 0.85293204, 0.202107, -0.4026574, 0.26368386, -1.0604005, 0.4529195, 0.06338024, 0
1706, 1910616666, 0.8511366, 0.2032624, -0.4066552, 0.2624595, -1.1518384, 0.19617441, 0.06985569, 0
1708, 1910650000, 0.84776175, 0.20128801, -0.41797915, 0.25705904, -1.0707603, 0.30936965, -0.61805344, 0
1709, 1910666667, 0.84623045, 0.19795103, -0.4255495, 0.25222945, -1.0554081, 0.29612473, -1.1264668, 0
1710, 1910683334, 0.8445788, 0.1949331, -0.4329751, 0.24743287, -0.601145, -0.31148005, -1.4212399, 0
1712, 1910716668, 0.8406984, 0.19352052, -0.44659242, 0.23734726, -0.8075816, -0.65110993, -1.402503, 0
1713, 1910733335, 0.83833265, 0.1921511, -0.45486596, 0.23103222, -0.7066778, -0.2926788, -1.5636654, 0
1714, 1910750002, 0.8357835, 0.1891554, -0.46376556, 0.22496769, -0.39343062, -0.10637853, -1.9624648, 0
1716, 1910783336, 0.8302411, 0.18589741, -0.47966972, 0.21461877, 0.22202481, -1.4642242, -1.4713345, 0
1717, 1910800003, 0.8271641, 0.18540041, -0.4871773, 0.2099687, -0.06560874, -1.4375061, -0.93920517, 0
1721, 1910866671, 0.8151905, 0.16995251, -0.5210194, 0.18740876, 0.1605536, -0.72851217, -1.1608229, 0
1723, 1910900005, 0.8101982, 0.16654578, -0.53276294, 0.17890616, -0.121233426, -1.3064059, -0.7135887, 0
1724, 1910916672, 0.8077185, 0.16434373, -0.53872794, 0.17423183, -0.27109417, -1.4072934, -1.3618412, 0
1725, 1910933339, 0.8057736, 0.16234374, -0.5435079, 0.17022155, -0.053813428, -1.7188338, -0.7274771, 0
1727, 1910966673, 0.801708, 0.16301589, -0.55070233, 0.1655889, -0.09303012, -1.9490062, -0.117767334, 0
1728, 1910983340, 0.799908, 0.15780368, -0.55602133, 0.16151765, -0.5859895, -0.36781973, -1.6732321, 0
1732, 1911050008, 0.79483366, 0.16004638, -0.5626253, 0.1614932, -0.42577162, -0.7389947, 0.0503788, 0
1733, 1911066675, 0.7937022, 0.15888327, -0.5644382, 0.16187909, -0.7822743, -1.1734957, -0.42258072, 0
1735, 1911100009, 0.7912613, 0.15703452, -0.5678077, 0.16383767, -0.46046576, -0.26131397, -0.25221634, 0
1736, 1911116676, 0.79033136, 0.15647848, -0.568932, 0.1649533, -0.09718791, -0.80626434, -0.107108116, 0
1737, 1911133343, 0.7893, 0.15606105, -0.5702417, 0.16576278, -0.2203346, -0.9503527, -0.02852726, 0
1739, 1911166677, 0.78727955, 0.15814415, -0.57191426, 0.16762452, -0.4200108, -0.41657233, 0.08995056, 0
1740, 1911183344, 0.78668237, 0.15989791, -0.5719729, 0.16856155, -0.4599311, -0.6032195, 0.7070999, 0
1741, 1911200011, 0.78606254, 0.16170281, -0.5720002, 0.16963537, -0.4817111, -0.7397532, 0.75403976, 0
1743, 1911233345, 0.7848405, 0.16087952, -0.57393247, 0.16955033, -1.1612227, 0.38600865, 0.8724756, 0
1744, 1911250012, 0.78385633, 0.1626597, -0.5744783, 0.17055303, -0.5524704, -0.6046427, 1.1443787, 0
1747, 1911300013, 0.7831162, 0.15888433, -0.5768384, 0.16954339, -0.55425626, -0.24270445, 0.16194725, 0
1748, 1911316680, 0.78355837, 0.15910587, -0.5762944, 0.1691415, -0.5157003, -0.7088369, 0.46737957, 0
1750, 1911350014, 0.7840874, 0.16182731, -0.57471013, 0.1694987, -1.1993687, -0.6968118, -0.39165306, 0
1751, 1911366681, 0.7841921, 0.15924881, -0.5753777, 0.16919173, -0.817154, 0.018846836, -0.4493971, 0
1752, 1911383348, 0.78465503, 0.15682311, -0.575643, 0.16840649, -0.7405158, -0.30740386, -0.14708233, 0
1754, 1911416682, 0.78514874, 0.15668389, -0.5753982, 0.16706589, -1.0904907, -1.450412, 0.4432354, 0
1755, 1911433349, 0.7850646, 0.15510856, -0.5766723, 0.16451901, -2.3932152, -0.0916364, -0.36850357, 0
1756, 1911450016, 0.7855555, 0.15094787, -0.5781233, 0.16091464, -2.2295356, 0.09917292, -0.5108204, 0
1759, 1911500017, 0.7879703, 0.15155172, -0.5760654, 0.1558398, -1.3096979, -2.3440723, 1.7400684, 0
1760, 1911516684, 0.7882157, 0.15636553, -0.5744912, 0.15565461, -1.9174573, -2.314274, 1.2117996, 0
1763, 1911566685, 0.78840435, 0.15268813, -0.5767116, 0.1500374, -1.723526, -0.3907613, -0.7862606, 0
1764, 1911583352, 0.7891784, 0.14980724, -0.57668084, 0.14898694, -1.6311611, -0.61396986, -0.6172533, 0
1766, 1911616686, 0.79027706, 0.1534237, -0.5740718, 0.14955747, -1.9456038, -1.9190487, 0.11984062, 0
1767, 1911633353, 0.79068285, 0.15238492, -0.5741419, 0.14819962, -3.187721, -1.2048968, -0.6592245, 0
1770, 1911683354, 0.79214287, 0.15177718, -0.5729637, 0.14556292, -2.6951852, 0.051604558, -0.81655216, 0
1771, 1911700021, 0.79260904, 0.1509121, -0.57275194, 0.14475602, -1.973205, -1.7976528, 0.5119524, 0
1773, 1911733355, 0.7913234, 0.15587145, -0.57310694, 0.14512889, -3.4217505, -1.868945, -0.37031746, 0
1774, 1911750022, 0.7908394, 0.15464886, -0.5745277, 0.14344767, -3.5802753, -2.080043, -0.4101658, 0
1775, 1911766689, 0.7904446, 0.15539724, -0.5750199, 0.1428424, -3.012956, -2.3761806, 0.14033985, 0
1777, 1911800023, 0.78921586, 0.15680206, -0.5766155, 0.14166272, -3.0036643, -0.352161, 0.33176136, 0
1779, 1911833357, 0.788075, 0.15346809, -0.579701, 0.13904878, -2.3228402, -1.2070645, -0.15657997, 0
1782, 1911883358, 0.7874629, 0.15693693, -0.57924885, 0.14052159, -2.5165548, -2.498835, 0.01453495, 0
1783, 1911900025, 0.7867536, 0.15557063, -0.5807137, 0.13996685, -3.9817524, -0.49884322, -0.47010136, 0
1785, 1911933359, 0.7849859, 0.15137681, -0.5843446, 0.13937677, -2.8618271, -1.0851967, -0.80679226, 0
1786, 1911950026, 0.7840284, 0.1526426, -0.5848527, 0.14124289, -2.5243986, -2.262038, -0.31838036, 0
1787, 1911966693, 0.78252184, 0.15410066, -0.58606154, 0.1429935, -2.5567443, -1.889334, -0.65781975, 0
1789, 1912000027, 0.77968085, 0.15376051, -0.5897609, 0.14366643, -3.1481946, -1.4248794, -0.2124052, 0
1790, 1912016694, 0.7778777, 0.15484717, -0.59180987, 0.14384823, -3.531109, -1.0139805, -0.53488636, 0
1794, 1912083362, 0.7731299, 0.15225494, -0.59904146, 0.14226855, -3.2778804, -1.1623067, 0.36803627, 0
1795, 1912100029, 0.7723289, 0.15117493, -0.6006269, 0.14108169, -3.302632, -1.2853086, 0.3270464, 0
1797, 1912133363, 0.77104604, 0.14521196, -0.60502416, 0.13546172, -3.8864079, -0.91463983, 0.17117214, 0
1798, 1912150030, 0.77022344, 0.14270182, -0.6072671, 0.13274507, -2.946895, -1.6289551, 0.1982584, 0
1800, 1912183364, 0.7698521, 0.13900565, -0.60975933, 0.1272848, -2.9489324, -1.866851, 0.08065796, 0
1801, 1912200031, 0.76974005, 0.13744722, -0.61081314, 0.124572456, -3.2797554, -0.9069771, -0.18550777, 0
1802, 1912216698, 0.76917595, 0.1344684, -0.61276853, 0.121671006, -3.406927, -0.74587613, -0.15163803, 0
1804, 1912250032, 0.7680017, 0.12963125, -0.6161448, 0.11720555, -3.4087675, -2.0120764, -0.16073608, 0
1805, 1912266699, 0.7682844, 0.12840207, -0.616317, 0.11579211, -3.073361, -2.0301576, -0.1586752, 0
1806, 1912283366, 0.768874, 0.1274887, -0.61604434, 0.11432887, -2.846306, -1.1000601, 0.3347311, 0
1808, 1912316700, 0.76767623, 0.12297384, -0.61911225, 0.11069322, -2.7861233, -0.17941798, -0.6116142, 0
1810, 1912350034, 0.76552445, 0.11711941, -0.6235301, 0.107089534, -2.9322727, -2.5724342, -0.72317123, 0
1812, 1912383368, 0.7651981, 0.11370942, -0.624847, 0.105406925, -2.826482, -2.7286594, -0.30740833, 0
1813, 1912400035, 0.7655613, 0.11468597, -0.62413013, 0.105958186, -2.6100402, -1.4263859, 0.4139185, 0
1814, 1912416702, 0.7666271, 0.11603781, -0.6226143, 0.10569901, -3.4367962, 0.29967517, 0.25590992, 0
1816, 1912450036, 0.7664034, 0.11677565, -0.6227596, 0.10565232, -3.4772363, -1.1969528, -0.47852135, 0
1817, 1912466703, 0.76603997, 0.11670987, -0.62319154, 0.105813526, -3.4480531, -1.8608618, -0.42437458, 0
1818, 1912483370, 0.765603, 0.11729046, -0.6235749, 0.106075704, -3.1916595, -2.1324747, -0.02319336, 0
1820, 1912516704, 0.7647595, 0.12078488, -0.6236625, 0.10771042, -2.864501, -1.419548, 0.6041031, 0
1821, 1912533371, 0.7641105, 0.12350333, -0.6236107, 0.10951768, -3.086893, -0.9475527, 0.4426031, 0
1825, 1912600039, 0.76117, 0.12634382, -0.6260597, 0.11273433, -3.259051, -1.3770612, 0.21053314, 0
1829, 1912666707, 0.7598905, 0.12912908, -0.6268262, 0.113945365, -2.690571, -0.40242752, -0.09779072, 0
1831, 1912700041, 0.75957334, 0.12996006, -0.62670046, 0.11579245, -2.487313, -0.77408004, -0.031954765, 0
1832, 1912716708, 0.7593622, 0.13026662, -0.6267705, 0.116451025, -2.6248033, -0.8115802, 0.14700222, 0
1833, 1912733375, 0.7589492, 0.13050093, -0.62714815, 0.11684709, -2.5947263, -0.9760207, 0.15537167, 0
1835, 1912766709, 0.7581441, 0.1310282, -0.6279396, 0.11723198, -2.8271508, -0.61027807, -0.053534508, 0
1836, 1912783376, 0.75797766, 0.13121094, -0.62806326, 0.11744187, -2.8460662, -0.6794116, -0.3025465, 0
1837, 1912800043, 0.757819, 0.13103172, -0.6283505, 0.117129244, -2.9501438, -0.8342725, -0.21942997, 0
1839, 1912833377, 0.7582072, 0.13338876, -0.6272568, 0.11781584, -2.7889314, -0.8528215, -0.010427475, 0
1840, 1912850044, 0.7580545, 0.1342211, -0.6272217, 0.11804035, -2.8535495, -0.64484936, -0.08342743, 0
1843, 1912900045, 0.75855875, 0.1339981, -0.62681603, 0.11720659, -2.4307175, -0.7014093, -0.10150337, 0
1847, 1912966713, 0.75841343, 0.13156542, -0.62807834, 0.11410405, -1.949627, -0.6397303, 0.17027664, 0
1848, 1912983380, 0.7582046, 0.1306858, -0.6287199, 0.11296308, -1.9600873, -0.69683987, -0.017834663, 0
1849, 1913000047, 0.757902, 0.13007402, -0.62939095, 0.11195789, -1.9928509, -0.8479442, -0.058454514, 0
1851, 1913033381, 0.7567344, 0.12795642, -0.6317528, 0.10895565, -2.426626, -0.5076247, -0.17241383, 0
1852, 1913050048, 0.7560164, 0.1262101, -0.6332749, 0.10712494, -2.1208, -0.48764202, -0.28337288, 0
1854, 1913083382, 0.75555086, 0.12177704, -0.6353063, 0.10344854, -2.1065402, -1.2014059, -0.5901346, 0
1855, 1913100049, 0.7556168, 0.119644776, -0.6359606, 0.101415396, -1.85867, -1.4116877, -0.5383816, 0
1858, 1913150050, 0.75617903, 0.11541501, -0.636862, 0.09634344, -1.125744, -0.4808023, -0.47954273, 0
1859, 1913166717, 0.75733876, 0.1156608, -0.6355137, 0.09583987, -0.91143936, -0.398809, -0.3605461, 0
1860, 1913183384, 0.75850856, 0.116383985, -0.6340453, 0.09543897, -0.8927796, -0.1300547, -0.4385805, 0
1863, 1913233385, 0.76153785, 0.11590704, -0.6309782, 0.0921676, -0.35733017, -0.43200883, -0.22523975, 0
1864, 1913250052, 0.7628215, 0.11639249, -0.6296115, 0.09026608, -0.08137928, -0.578271, -0.28771877, 0
1866, 1913283386, 0.76677567, 0.11950696, -0.624593, 0.087517634, 0.08034808, -0.5837477, -0.06857586, 0
1867, 1913300053, 0.76858395, 0.12262661, -0.6219273, 0.08631481, -0.2916138, -0.27533168, -0.25712872, 0
1868, 1913316720, 0.7692594, 0.12424858, -0.62103695, 0.084367424, -0.14787483, 0.1957265, -0.5186491, 0
1870, 1913350054, 0.76962584, 0.13085243, -0.6193856, 0.08317394, 0.7032504, -0.30025354, 0.14395523, 0
1871, 1913366721, 0.77017987, 0.13633975, -0.61738604, 0.08409287, 0.36764976, -0.47149566, 0.726285, 0
1872, 1913383388, 0.7703139, 0.14010847, -0.61630297, 0.08461277, 0.22982273, -0.16108674, 1.0867996, 0
1874, 1913416722, 0.7697916, 0.1516913, -0.61384034, 0.087255135, 0.062960915, 0.4717133, 0.6697273, 0
1875, 1913433389, 0.7695956, 0.1569637, -0.6126841, 0.08778214, -0.2267682, 0.06899342, 0.45324516, 0
1876, 1913450056, 0.76954925, 0.1625246, -0.6111488, 0.088765025, -0.37857148, -0.23907186, 0.068841934, 0
1878, 1913483390, 0.7696993, 0.17052777, -0.6082311, 0.09241718, -0.25154862, -0.66763324, -0.694994, 0
1879, 1913500057, 0.7699544, 0.17231664, -0.60713243, 0.09418067, 0.17522924, -0.47975314, -0.8470726, 0
1881, 1913533391, 0.7708768, 0.17534664, -0.60492563, 0.09523616, 0.85945517, -0.4460904, -0.23242664, 0
1882, 1913550058, 0.77074844, 0.17745905, -0.6044381, 0.095457256, 0.8479957, -0.12524277, 0.16295433, 0
1883, 1913566725, 0.7698329, 0.17954034, -0.6049155, 0.09592776, 0.8566143, -0.20898657, 0.14659786, 0
1885, 1913600059, 0.76843834, 0.18396437, -0.6052942, 0.096338466, 0.9813077, -0.11986251, 0.39863873, 0
1886, 1913616726, 0.7680933, 0.1873063, -0.60455585, 0.097281605, 0.924353, -0.12988606, 0.5990944, 0
1887, 1913633393, 0.76787347, 0.19083713, -0.6034604, 0.098943174, 0.89174026, -0.21869, 0.5803633, 0
1890, 1913683394, 0.7668905, 0.20291124, -0.59994876, 0.10377878, 0.49943924, 0.07722674, 0.61199284, 0
1891, 1913700061, 0.7670387, 0.20714325, -0.59786844, 0.10629792, 0.5602911, -0.122939505, 0.46244526, 0
1893, 1913733395, 0.7684034, 0.21691932, -0.59158593, 0.11194061, 0.5712857, -0.11130219, -0.3892069, 0
1894, 1913750062, 0.7692832, 0.22235888, -0.5878105, 0.115071364, 0.46376613, 0.046261817, -0.72831917, 0
1895, 1913766729, 0.7699361, 0.22747974, -0.5842075, 0.1189769, 0.44348994, 0.09212712, -0.96035767, 0
1897, 1913800063, 0.7703535, 0.23568384, -0.5783117, 0.12871124, 0.3718755, 0.82998854, 0.2778082, 0
1898, 1913816730, 0.7707408, 0.23708797, -0.57615465, 0.13340242, 0.15703887, 1.247668, 0.7561312, 0
1899, 1913833397, 0.7711918, 0.23720583, -0.57472825, 0.13669842, 0.46491212, 1.1436534, 1.0164938, 0
1901, 1913866731, 0.7710008, 0.23784675, -0.57327485, 0.14263652, 0.7153322, 1.145709, 0.31967068, 0
1902, 1913883398, 0.77041364, 0.23919351, -0.5726852, 0.14588878, 0.6001506, 1.007949, -0.11347389, 0
1905, 1913933399, 0.76727045, 0.24540699, -0.571977, 0.15464984, 0.722886, 0.9723324, 0.18237019, 0
1906, 1913950066, 0.7659731, 0.24672048, -0.5727622, 0.15607779, 0.4782185, 1.3659799, -0.016449928, 0
1908, 1913983400, 0.7628467, 0.24820049, -0.5760504, 0.15693867, 0.41392767, 1.6293607, -0.12408543, 0
1909, 1914000067, 0.7611373, 0.24769673, -0.5787559, 0.15607803, 0.46174827, 1.5168965, -0.24358654, 0
1910, 1914016734, 0.75938857, 0.24637562, -0.582179, 0.15394206, 0.6878446, 1.4847451, -0.16443539, 0
1912, 1914050068, 0.75616354, 0.24265268, -0.589446, 0.14796071, 0.63036865, 1.6541133, 0.0014505386, 0
1913, 1914066735, 0.7535744, 0.24067275, -0.59443986, 0.1443823, 0.6770565, 1.5011063, 0.18439198, 0
1914, 1914083402, 0.75072753, 0.23753025, -0.6002907, 0.14014658, 0.040812124, 1.5566481, -0.5725765, 0
1916, 1914116736, 0.74598086, 0.22798786, -0.6123685, 0.128615, 0.57840145, 1.7745817, -0.88825226, 0
1917, 1914133403, 0.74452627, 0.22373982, -0.61676013, 0.123412065, 0.7609718, 1.6088586, -0.35819435, 0
1920, 1914183404, 0.73612094, 0.21576269, -0.6315425, 0.1128232, 0.70445114, 1.072912, -0.19684887, 0
1921, 1914200071, 0.7333941, 0.21214208, -0.63626605, 0.11089121, 0.8506769, 0.95590276, 0.15474796, 0
1922, 1914216738, 0.73093766, 0.20786077, -0.64075565, 0.10935673, 0.8398097, 1.006101, -0.021149635, 0
1924, 1914250072, 0.7270436, 0.19560754, -0.6496733, 0.10522605, 0.14230578, 2.0817366, -0.26682854, 0
1925, 1914266739, 0.7227033, 0.1822461, -0.6593314, 0.09884821, -1.423702, 1.4958277, 0.17491913, 0
1926, 1914283406, 0.7140225, 0.17293514, -0.67169493, 0.09536132, 1.3316348, 0.3498722, -0.09295368, 0
1928, 1914316740, 0.6970339, 0.16530693, -0.6918349, 0.09046799, -0.5267141, -0.03335791, -3.4502292, 0
1929, 1914333407, 0.6956926, 0.15943836, -0.6942657, 0.09267713, -0.6387272, -1.6786515, 5.0296507, 0
1930, 1914350074, 0.69045115, 0.15186733, -0.70123804, 0.09209426, -0.8305898, 0.38250232, -0.080379486, 0
1932, 1914383408, 0.683621, 0.13786754, -0.71082854, 0.091542825, -1.2784827, -0.78390276, 0.17754364, 0
1934, 1914416742, 0.6781973, 0.12815316, -0.7182951, 0.08763544, -1.0955153, -0.39048517, 0.67150307, 0
1936, 1914450076, 0.67497, 0.11773881, -0.72361326, 0.08330354, -0.94462836, 0.099454716, 0.24093628, 0
1937, 1914466743, 0.6743371, 0.11136049, -0.7253679, 0.081930056, -0.813681, 0.39117774, 0.13182259, 0
1939, 1914500077, 0.6726489, 0.09889541, -0.72903377, 0.079216644, -0.68508196, -0.46093178, -0.04153347, 0
1940, 1914516744, 0.6718402, 0.09293525, -0.73072034, 0.077743866, -0.4298829, -0.6503444, -0.13016796, 0
1941, 1914533411, 0.6716949, 0.08725078, -0.73169124, 0.07644445, -0.20636639, -0.711404, -0.16650772, 0
1943, 1914566745, 0.6726172, 0.07755315, -0.7321337, 0.07452907, -0.18861632, -0.85766673, 0.100605965, 0
1944, 1914583412, 0.67333484, 0.0736094, -0.731929, 0.07405609, -0.20205437, -0.72334176, 0.266757, 0
1945, 1914600079, 0.67430264, 0.07020694, -0.7313908, 0.073871315, -0.25524554, -0.77834517, 0.38223743, 0
1947, 1914633413, 0.676045, 0.06366587, -0.7303088, 0.07457429, -0.23459563, -1.1994615, 0.28776836, 0
1948, 1914650080, 0.67743254, 0.06049692, -0.7292308, 0.07516805, -0.07859406, -1.3513627, 0.1137104, 0
1949, 1914666747, 0.6793172, 0.057673194, -0.72764766, 0.07571905, -0.20962565, -1.4483314, 0.030004501, 0
1951, 1914700081, 0.68212885, 0.053292334, -0.7253046, 0.07613167, 0.11934921, -1.5873032, 0.012775421, 0
1952, 1914716748, 0.68293405, 0.052222617, -0.72463596, 0.07602116, 0.07629436, -1.4818584, -0.023320198, 0
1953, 1914733415, 0.68331677, 0.051527645, -0.7243168, 0.07609829, 0.19779645, -1.4390086, 0.14275742, 0
1955, 1914766749, 0.6832748, 0.050679956, -0.7243682, 0.076553725, -0.2590059, -1.0881187, -0.25907993, 0
1956, 1914783416, 0.6827363, 0.050377153, -0.7248934, 0.07658502, -0.17943174, -1.0485197, -0.47043896, 0
1957, 1914800083, 0.68237203, 0.050424267, -0.7252751, 0.07618549, -0.34420994, -1.1348151, -0.53182125, 0
1959, 1914833417, 0.6802081, 0.05136664, -0.7274818, 0.07383324, -0.35376692, -1.103887, -0.53096294, 0
1962, 1914883418, 0.6752522, 0.0565515, -0.7321556, 0.069187485, 0.43296337, -0.7458767, 0.07156372, 0
1963, 1914900085, 0.67366964, 0.05939178, -0.73350835, 0.067897126, 0.4783602, -0.81044817, 0.06107521, 0
1964, 1914916752, 0.6714349, 0.06279633, -0.7354145, 0.066330895, 0.5176167, -0.3968408, 0.025409698, 0
1966, 1914950086, 0.66786015, 0.06982755, -0.7381968, 0.06446068, 0.51347095, -0.04511479, 0.38444996, 0
1967, 1914966753, 0.6661482, 0.07293417, -0.73947674, 0.06406266, 0.29388288, -0.1127286, 0.33984184, 0
