sep=,
DeviceTag:,Xsens_DOT_5,,,,,,,,,,,,,,,,,
FirmwareVersion:,3.0.0,,,,,,,,,,,,,,,,,
AppVersion:,2023.6.1,,,,,,,,,,,,,,,,,
SyncStatus:,Synced,,,,,,,,,,,,,,,,,
OutputRate:,60Hz,,,,,,,,,,,,,,,,,
FilterProfile:,General,,,,,,,,,,,,,,,,,
Measurement Mode:,Sensor fusion Mode - Extended (Quaternion),,,,,,,,,,,,,,,,,
StartTime:,2025-05-05 11:58:35.169 +0200,,,,,,,,,,,,,,,,,
 2025,,,,,,,,,,,,,,,,,,,

PacketCounter,SampleTimeFine,Quat_W,Quat_X,Quat_Y,Quat_Z,FreeAcc_X,FreeAcc_Y,FreeAcc_Z,Status
1, 3108157283, -0.7954141, -0.17018308, -0.33810815, 0.47332385, -0.030372504, 0.014909096, -0.122514725, 0
2, 3108173950, -0.7954352, -0.1702416, -0.33807492, 0.4732912, 0.0020842582, 0.04663989, -0.09847832, 0
3, 3108190617, -0.79544455, -0.17030287, -0.3380415, 0.47327733, 0.016513137, 0.062732935, -0.05730629, 0
4, 3108207284, -0.7954531, -0.17037787, -0.3380216, 0.47325033, 0.0051589026, 0.06746146, -0.07458973, 0
5, 3108223951, -0.7954495, -0.17047456, -0.33802262, 0.4732207, -0.007079549, 0.054647688, -0.045793533, 0
6, 3108240618, -0.79544383, -0.17055212, -0.33802527, 0.47320044, -8.7170054E-5, 0.011119993, -0.091516495, 0
7, 3108257285, -0.79544526, -0.17063694, -0.3380186, 0.47317216, 0.019343259, 0.04525813, -0.11611748, 0
8, 3108273952, -0.7954523, -0.1707171, -0.33799312, 0.47314945, 0.006280267, 0.030324114, -0.13027573, 0
9, 3108290619, -0.79546624, -0.17080012, -0.33795196, 0.47312546, -0.0062438343, 0.030274719, -0.0840044, 0
10, 3108307286, -0.79547536, -0.1708611, -0.3379077, 0.47311983, 0.012851772, 0.07084489, -0.09436321, 0
11, 3108323953, -0.79549724, -0.17090845, -0.33784357, 0.47311184, 0.04032688, 0.07053756, -0.090997696, 0
12, 3108340620, -0.79550683, -0.17097361, -0.33779943, 0.47310346, 0.016236428, 0.049287625, -0.0536623, 0
13, 3108357287, -0.795503, -0.17104226, -0.3377826, 0.47309715, 0.040185843, 0.03487618, -0.036491394, 0
14, 3108373954, -0.79549956, -0.17112073, -0.33777234, 0.47308195, 0.019148355, 0.019929532, -0.06566143, 0
15, 3108390621, -0.7954926, -0.17119251, -0.33778644, 0.47305757, 0.026039036, 0.020548217, -0.07579422, 0
16, 3108407288, -0.7954806, -0.17126252, -0.33781236, 0.47303373, 0.032963913, 0.012733868, -0.076233864, 0
17, 3108423955, -0.795469, -0.1713277, -0.3378513, 0.47300214, 0.058633484, 0.030107418, -0.035467148, 0
18, 3108440622, -0.7954641, -0.17135635, -0.3378779, 0.472981, 0.03546413, 0.009215327, -0.111371994, 0
19, 3108457289, -0.79546356, -0.17136739, -0.33787778, 0.472978, 0.028904025, 0.021968307, -0.12673283, 0
20, 3108473956, -0.79546916, -0.17134854, -0.33785102, 0.47299448, 0.028368935, 0.035063818, -0.09825134, 0
21, 3108490623, -0.7954824, -0.17132463, -0.33780068, 0.47301662, 0.051765602, 0.03320408, -0.07405567, 0
22, 3108507290, -0.79549134, -0.17127891, -0.33777457, 0.47303674, 0.06622533, 0.054499388, -0.044751167, 0
23, 3108523957, -0.7954905, -0.17123547, -0.33776748, 0.47305912, 0.05871797, 0.061476234, -0.05424595, 0
24, 3108540624, -0.7954669, -0.17120963, -0.3377993, 0.47308555, 0.04972314, 0.039170645, -0.074406624, 0
25, 3108557291, -0.79544646, -0.17117965, -0.33784556, 0.4730975, 0.01979699, 0.04341046, -0.10085869, 0
26, 3108573958, -0.79542583, -0.17114432, -0.33790007, 0.47310588, 0.0069706985, -0.0036137574, -0.0854969, 0
27, 3108590625, -0.79542583, -0.17108977, -0.33792183, 0.47311017, -0.0133817205, 0.022768147, -0.119734764, 0
28, 3108607292, -0.79543096, -0.17103067, -0.33794057, 0.47310957, 0.031788014, 0.018379359, -0.106230736, 0
29, 3108623959, -0.79542893, -0.17097744, -0.337956, 0.47312132, 0.04678819, 0.019874549, -0.08486843, 0
30, 3108640626, -0.7954325, -0.17092569, -0.33795863, 0.4731323, 0.036995642, 0.043336034, -0.04261589, 0
31, 3108657293, -0.7954332, -0.17086728, -0.33794534, 0.47316143, 0.040616103, 0.037474405, -0.061626434, 0
32, 3108673960, -0.7954444, -0.17082787, -0.3379607, 0.4731458, 0.007197117, -0.00429089, -0.044344902, 0
33, 3108690627, -0.7954444, -0.17080769, -0.33796617, 0.47314915, -0.053661212, -0.021774968, -0.10253239, 0
34, 3108707294, -0.79544437, -0.17079067, -0.33796614, 0.47315535, -0.048662346, 0.009233097, -0.1671505, 0
35, 3108723961, -0.7954506, -0.17075337, -0.33794448, 0.4731738, -0.0019257877, 0.05461483, -0.12467861, 0
36, 3108740628, -0.7954597, -0.17071643, -0.3379175, 0.4731914, 0.042310107, 0.07628509, -0.036672592, 0
37, 3108757295, -0.79545945, -0.17071788, -0.33791107, 0.4731959, 0.031269908, 0.055274196, -0.018583298, 0
38, 3108773962, -0.7954433, -0.17072779, -0.33794975, 0.47319186, 0.027276628, 0.016082987, -0.0015411377, 0
39, 3108790629, -0.7954089, -0.17075756, -0.33805114, 0.4731663, 0.01569575, -0.014330645, -0.03682232, 0
40, 3108807296, -0.7953803, -0.17079858, -0.33814755, 0.47313067, -0.008633635, -0.040323414, -0.130579, 0
41, 3108823963, -0.79537696, -0.17081678, -0.33818382, 0.47310382, 0.020182103, -0.045275006, -0.14265728, 0
42, 3108840630, -0.7953771, -0.1708308, -0.33817813, 0.47310266, 0.056881364, -0.0019041068, -0.13570881, 0
43, 3108857297, -0.79538363, -0.1708635, -0.33815956, 0.4730932, 0.057564646, 0.008540765, -0.08195305, 0
44, 3108873964, -0.7953907, -0.17091715, -0.3381503, 0.47306857, 0.033505708, -0.003346436, -0.030299187, 0
45, 3108890631, -0.7953905, -0.17099714, -0.33816314, 0.4730309, 0.010586468, -0.0029084624, -0.02598095, 0
46, 3108907298, -0.79539007, -0.17107052, -0.3381877, 0.47298753, 0.038079903, -0.022221435, -0.083039284, 0
47, 3108923965, -0.79539204, -0.17114481, -0.33819732, 0.47295037, 0.06654763, -0.009340048, -0.12218952, 0
49, 3108957299, -0.79541576, -0.17126787, -0.3381494, 0.4729001, 0.020982726, -0.010271985, -0.077596664, 0
50, 3108973966, -0.7954255, -0.17131723, -0.3381244, 0.4728838, 0.009843958, 0.03264295, -0.08607674, 0
53, 3109023967, -0.7954402, -0.17158252, -0.3381112, 0.4727721, 0.017539285, 0.009625362, -0.08304596, 0
54, 3109040634, -0.79543346, -0.17168729, -0.33813158, 0.4727309, 0.041564915, 0.028251814, -0.050245285, 0
55, 3109057301, -0.79543936, -0.17181896, -0.3381299, 0.47267446, 0.019347506, 0.023509093, -0.05317402, 0
57, 3109090635, -0.7954801, -0.17207485, -0.33810478, 0.47253087, -0.04079983, 0.005593635, -0.12337589, 0
58, 3109107302, -0.7954984, -0.17219016, -0.3380767, 0.472478, -0.0074852253, 0.03304818, -0.12934399, 0
59, 3109123969, -0.79552436, -0.17227726, -0.3380129, 0.47244808, 0.029634688, 0.06322634, -0.08965397, 0
61, 3109157303, -0.795567, -0.1724419, -0.33788893, 0.47240502, -0.022950757, 0.069872946, -9.202957E-4, 0
62, 3109173970, -0.7955623, -0.17251745, -0.3378902, 0.4723845, -0.0031439331, 0.091945074, -0.05078602, 0
63, 3109190637, -0.7955586, -0.17258646, -0.33789194, 0.47236446, 0.033448715, 0.06460977, -0.09449005, 0
65, 3109223971, -0.7955393, -0.17266172, -0.33791995, 0.47234917, 0.028029643, 0.03439585, -0.07041454, 0
66, 3109240638, -0.7955351, -0.17267258, -0.3379244, 0.47234914, 0.034609865, 0.07247508, -0.055282593, 0
67, 3109257305, -0.79552734, -0.17269391, -0.33791807, 0.47235876, 0.077901416, 0.039189085, -0.07085323, 0
70, 3109307306, -0.7954514, -0.17265634, -0.33801728, 0.47242925, 0.08061665, 0.063190356, -0.044397354, 0
72, 3109340640, -0.7953875, -0.17255813, -0.33819664, 0.47244442, 0.080377944, 0.04312526, -0.089487076, 0
74, 3109373974, -0.7953131, -0.1724037, -0.338442, 0.47245052, -0.014403175, -0.04585491, -0.11789799, 0
76, 3109407308, -0.79525435, -0.17230184, -0.33864793, 0.47243908, 0.04675645, -0.025098158, -0.052101135, 0
77, 3109423975, -0.7952377, -0.17223701, -0.33874872, 0.4724185, 0.025187898, 0.013869314, -0.040408134, 0
78, 3109440642, -0.79520565, -0.17218915, -0.33885726, 0.47241214, 0.035764307, -0.009137992, -0.090351105, 0
80, 3109473976, -0.79514617, -0.17214802, -0.33907545, 0.47237056, -0.008732204, -0.033176027, -0.1097765, 0
81, 3109490643, -0.7951298, -0.17215116, -0.33917233, 0.47232723, -0.010260139, -0.044037864, -0.10567284, 0
82, 3109507310, -0.7951049, -0.1721633, -0.33926, 0.4723019, 0.022726797, -0.024411302, -0.09123039, 0
84, 3109540644, -0.7950791, -0.17221858, -0.33940098, 0.47222406, 0.019349964, -0.028913524, -0.07712269, 0
86, 3109573978, -0.7950265, -0.17232834, -0.3395645, 0.47215518, 0.03191184, -0.076060675, -0.072172165, 0
88, 3109607312, -0.7949827, -0.17250559, -0.33974814, 0.47203177, 0.0019803247, -0.057859793, -0.085988045, 0
89, 3109623979, -0.79498345, -0.1725991, -0.33982047, 0.4719444, 0.06279977, -0.0886801, -0.11075592, 0
90, 3109640646, -0.7949916, -0.17269221, -0.33986804, 0.4718623, 0.10042169, -0.07115054, -0.11548424, 0
92, 3109673980, -0.79501516, -0.17294961, -0.33990422, 0.47170225, 0.002008264, -0.073020674, -0.08078289, 0
93, 3109690647, -0.7950434, -0.17311525, -0.33990976, 0.47158977, -0.047909107, -0.043810215, -0.06566429, 0
94, 3109707314, -0.79508317, -0.17330709, -0.33991635, 0.4714476, 0.02425652, 0.005151415, -0.036863327, 0
96, 3109740648, -0.79518545, -0.17375946, -0.33985955, 0.47114953, 0.011077079, 0.06077496, -0.033168793, 0
97, 3109757315, -0.79523087, -0.17397511, -0.3398209, 0.47102115, -0.054401264, 0.02972901, -0.104649544, 0
99, 3109790649, -0.7952707, -0.17429636, -0.33971784, 0.47090954, -0.09580346, 0.082731195, -0.12462425, 0
101, 3109823983, -0.79531366, -0.17458764, -0.3394292, 0.47093722, -0.046185374, 0.12351762, -0.07540798, 0
103, 3109857317, -0.7953742, -0.17485954, -0.33909467, 0.4709749, -0.043678902, 0.1096901, -0.110323906, 0
104, 3109873984, -0.79539096, -0.1749881, -0.3389226, 0.47102293, 0.002533296, 0.11800076, -0.07863808, 0
105, 3109890651, -0.79541963, -0.1751549, -0.33872917, 0.47105154, -0.022624206, 0.072219156, -0.045147896, 0
107, 3109923985, -0.7954824, -0.17558311, -0.33838484, 0.47103357, -0.11319948, -0.025338098, -0.11719227, 0
108, 3109940652, -0.7955186, -0.17586134, -0.3382548, 0.47096217, -0.029554447, 0.07791617, -0.07402992, 0
109, 3109957319, -0.7955504, -0.17624055, -0.33815438, 0.4708388, 0.049231857, 0.124602884, -0.015286446, 0
111, 3109990653, -0.7956111, -0.17711589, -0.33808625, 0.47045633, -0.029667769, 0.013455033, -0.13795757, 0
112, 3110007320, -0.7956206, -0.17755108, -0.33813936, 0.47023815, -0.06693923, -0.044547584, -0.12536716, 0
113, 3110023987, -0.79561675, -0.1779553, -0.33820465, 0.47004476, -0.015447204, 0.028166767, -0.045043945, 0
119, 3110123989, -0.7955875, -0.17901555, -0.33837897, 0.4695661, 0.010363178, -0.057394773, -0.16436958, 0
121, 3110157323, -0.79553825, -0.1793332, -0.33840948, 0.46950603, -0.0016066111, -0.13567884, -0.012953758, 0
123, 3110190657, -0.79541713, -0.17992388, -0.33878577, 0.46921435, 0.14503242, -0.02015841, -0.0452528, 0
124, 3110207324, -0.79537684, -0.18019113, -0.33896828, 0.4690482, 0.15942799, -0.013001078, -0.14421463, 0
126, 3110240658, -0.7953585, -0.1804776, -0.3390279, 0.4689256, 0.10360429, -0.050687596, -0.19118786, 0
128, 3110273992, -0.79551, -0.18047357, -0.3387353, 0.46888143, 0.08810277, -0.088054605, -0.025625229, 0
130, 3110307326, -0.79563016, -0.18054132, -0.3385612, 0.4687775, 0.061991543, -0.088795215, -0.022711754, 0
132, 3110340660, -0.7956597, -0.18078528, -0.3387137, 0.46852282, 0.066067524, -0.085590824, 0.010511398, 0
134, 3110373994, -0.7956058, -0.18111898, -0.33904758, 0.46824437, 0.043344527, -0.04767252, -0.093608856, 0
135, 3110390661, -0.79560393, -0.18125828, -0.33915895, 0.4681128, -0.012214089, -0.051616628, -0.14097118, 0
138, 3110440662, -0.79582113, -0.18133074, -0.3387224, 0.4680315, 0.14387015, 0.09360231, -0.036622047, 0
139, 3110457329, -0.7959314, -0.18121594, -0.3384632, 0.46807602, 0.12808119, 0.09144306, -0.029942513, 0
140, 3110473996, -0.796025, -0.18103875, -0.33827332, 0.4681228, 0.012351996, 0.026347708, -0.053082466, 0
142, 3110507330, -0.7960723, -0.1806676, -0.33809462, 0.46831483, -0.05330985, 0.05577721, -0.13277054, 0
143, 3110523997, -0.79611087, -0.18044074, -0.33802333, 0.46838805, 0.0040473724, 0.062395096, -0.22397709, 0
144, 3110540664, -0.7961649, -0.18018599, -0.33789793, 0.46848485, -0.011472026, 0.02056934, -0.18971539, 0
146, 3110573998, -0.79628485, -0.17970042, -0.3374886, 0.46876252, 3.9561794E-5, -0.059166674, -0.06542683, 0
147, 3110590665, -0.7963654, -0.17947991, -0.3372406, 0.46888873, 0.059299327, -0.072962, 0.028439522, 0
148, 3110607332, -0.79646313, -0.17928907, -0.33695135, 0.46900386, 0.07445708, -0.030818973, 0.022515297, 0
151, 3110657333, -0.7966914, -0.17850865, -0.3361119, 0.46951547, 0.065149106, -0.045795012, -0.011071205, 0
153, 3110690667, -0.79669726, -0.17802493, -0.33589616, 0.46984333, 0.0404887, 0.066019244, 0.116342545, 0
154, 3110707334, -0.79667, -0.1779017, -0.33597752, 0.46987838, 0.048493594, 0.09407023, 0.012999535, 0
155, 3110724001, -0.7966213, -0.17786667, -0.33613154, 0.4698639, -0.065584734, 0.016031131, -0.073477745, 0
157, 3110757335, -0.79648, -0.17776106, -0.3364503, 0.46991545, -0.080051616, 0.019923497, -0.14040852, 0
158, 3110774002, -0.79644156, -0.17764287, -0.33650875, 0.46998337, 0.024595588, 0.15355575, -0.14445114, 0
159, 3110790669, -0.7964196, -0.17745827, -0.33651158, 0.47008812, 0.060090564, 0.19636875, -0.09177399, 0
161, 3110824003, -0.79635113, -0.17690755, -0.33651555, 0.47040883, -0.074085824, 0.09931519, -0.111946106, 0
162, 3110840670, -0.7962648, -0.17658143, -0.3366266, 0.4705981, -0.06265582, 0.061936893, -0.06391621, 0
165, 3110890671, -0.79582614, -0.17575078, -0.33742413, 0.47107935, -0.02616465, -0.111503124, -0.1304369, 0
167, 3110924005, -0.7955609, -0.17508948, -0.33778667, 0.4715138, 0.08336385, -0.089629926, -0.17693043, 0
169, 3110957339, -0.79540265, -0.17431146, -0.3378916, 0.47199354, 0.18928708, -0.05798619, -0.053653717, 0
170, 3110974006, -0.7953371, -0.17390625, -0.33794346, 0.47221634, 0.16380192, -0.06349791, -0.01245594, 0
171, 3110990673, -0.79527813, -0.17353316, -0.33799607, 0.47241527, 0.017647913, -0.0941488, -0.07795048, 0
173, 3111024007, -0.7952891, -0.1727479, -0.33788937, 0.47276083, -0.20635208, -0.005627386, -0.82693195, 0
174, 3111040674, -0.79519325, -0.17231512, -0.3381354, 0.47290412, 0.42833197, -0.11285639, -0.042305946, 0
175, 3111057341, -0.7952116, -0.17194232, -0.338151, 0.47299784, 0.24562599, 0.011863062, 0.57212925, 0
177, 3111090675, -0.79490596, -0.17113242, -0.33912423, 0.47310862, 0.31871605, 0.06262643, 0.04515171, 0
178, 3111107342, -0.79479206, -0.17074525, -0.33961675, 0.47308636, -0.3078446, -0.40630174, -0.24925423, 0
180, 3111140676, -0.79436946, -0.16988455, -0.34083915, 0.4732268, 0.0999009, -0.15691179, -0.07775211, 0
182, 3111174010, -0.79397774, -0.16906366, -0.34215873, 0.47322613, 0.5635148, -0.0048243036, -0.16181087, 0
184, 3111207344, -0.79358876, -0.16740705, -0.34301376, 0.47384778, 0.17092684, -0.17144829, -0.33337116, 0
185, 3111224011, -0.79350185, -0.16640317, -0.34322134, 0.47419676, 0.13628009, -0.09377531, -0.004798889, 0
186, 3111240678, -0.79342, -0.16546574, -0.34342897, 0.47451138, -0.13369003, -0.07544155, 0.2254839, 0
188, 3111274012, -0.79316807, -0.16402203, -0.34412658, 0.47492817, 0.035619695, -0.07539405, 0.26251698, 0
189, 3111290679, -0.7929609, -0.16338144, -0.34460425, 0.47514847, -0.42817104, -0.45269817, -0.2862339, 0
190, 3111307346, -0.7927318, -0.16283059, -0.34506923, 0.47538242, -0.10435797, -0.07351509, -0.25788307, 0
192, 3111340680, -0.7924522, -0.16160299, -0.34573093, 0.47578645, -0.005499536, 0.25308773, -0.17235374, 0
193, 3111357347, -0.79231507, -0.16072433, -0.34589568, 0.47619253, -0.28233418, 0.13977572, -0.08794689, 0
194, 3111374014, -0.79213446, -0.1597529, -0.34601048, 0.47673643, -0.15602791, 0.09816354, 0.016304016, 0
197, 3111424015, -0.79168, -0.15718922, -0.34649774, 0.47798792, -0.22491014, -0.19015466, -0.23266315, 0
198, 3111440682, -0.791526, -0.15656498, -0.34666893, 0.4783235, 0.057812743, -0.013981629, -0.17199516, 0
200, 3111474016, -0.7915602, -0.15561461, -0.34672287, 0.47853783, -0.14873447, -0.17077027, -0.13388729, 0
201, 3111490683, -0.7915843, -0.15518436, -0.346696, 0.47865728, -0.14579594, -0.18873076, -0.21064949, 0
202, 3111507350, -0.79156744, -0.15483682, -0.34670448, 0.4787915, 0.17055224, -0.037116114, -0.09058666, 0
204, 3111540684, -0.7917175, -0.15444243, -0.34672025, 0.478659, -0.12356556, -0.095241554, -0.054201126, 0
205, 3111557351, -0.7917597, -0.15434419, -0.3467836, 0.4785749, -0.18046212, -0.24797723, 0.006579399, 0
207, 3111590685, -0.79167795, -0.15425952, -0.3471159, 0.47849667, 0.03898401, -0.058382254, 0.06604576, 0
208, 3111607352, -0.7916763, -0.1542535, -0.34722108, 0.47842526, -0.029068083, -0.043423984, -0.09869766, 0
209, 3111624019, -0.79166526, -0.15428738, -0.34724197, 0.4784174, -0.18379784, -0.17854595, -0.22851849, 0
211, 3111657353, -0.79167926, -0.15439875, -0.34702376, 0.4785166, 0.0016805939, -0.0035459213, -0.04571438, 0
212, 3111674020, -0.79173684, -0.1545096, -0.34684724, 0.47851348, 0.03338367, 0.06379183, 0.018084526, 0
213, 3111690687, -0.79178464, -0.15466486, -0.34669667, 0.47849312, -0.031464364, 0.06411033, -0.0063877106, 0
215, 3111724021, -0.7917199, -0.15513259, -0.34661514, 0.47850806, -0.075795926, -0.02699299, -0.055171967, 0
216, 3111740688, -0.7916914, -0.15544888, -0.3466272, 0.4784438, -0.079897836, -0.020547882, -0.09285259, 0
217, 3111757355, -0.7916879, -0.15577067, -0.34660298, 0.47836244, -0.08031335, 0.03072331, -0.0940361, 0
219, 3111790689, -0.7916626, -0.15650448, -0.34651014, 0.47823232, 0.07504917, 0.06456641, -0.05554676, 0
220, 3111807356, -0.7916684, -0.15699317, -0.34644026, 0.47811297, -0.046368882, 0.0904301, -0.1634512, 0
221, 3111824023, -0.7916935, -0.15752435, -0.34634438, 0.47796628, -0.096471995, 0.120869994, -0.14051914, 0
224, 3111874024, -0.79173744, -0.1587061, -0.3460149, 0.47774094, 0.06424701, 0.31022078, -0.11576748, 0
225, 3111890691, -0.79174334, -0.15891004, -0.3459145, 0.477736, -0.0107306335, 0.175571, -0.11192322, 0
227, 3111924025, -0.79174674, -0.15918966, -0.34579715, 0.47772223, 0.041032955, 0.059139293, -0.012965202, 0
228, 3111940692, -0.7917303, -0.15935737, -0.34580895, 0.47768506, 0.018161992, 0.005911918, -0.06285286, 0
229, 3111957359, -0.791702, -0.15956432, -0.34587777, 0.47761318, -0.0030469287, -0.035274368, -0.100364685, 0
231, 3111990693, -0.7916186, -0.15999016, -0.3460784, 0.47746348, 0.015738888, -0.10566687, -0.15482044, 0
232, 3112007360, -0.79161423, -0.16014013, -0.3461362, 0.47737864, 0.13626802, -0.034348242, -0.09757137, 0
234, 3112040694, -0.7916729, -0.16033828, -0.34601784, 0.47730067, 0.019052468, -0.11484442, -0.08553696, 0
235, 3112057361, -0.7917096, -0.1604095, -0.34593293, 0.47727746, 0.003424889, -0.095306486, -0.05644703, 0
236, 3112074028, -0.79174083, -0.16048715, -0.34589067, 0.47723016, 0.014159992, -0.010567022, -0.03156376, 0
239, 3112124029, -0.79171705, -0.16088027, -0.34596533, 0.47708303, -0.0011260583, -0.07016295, -0.08088398, 0
240, 3112140696, -0.79166937, -0.16104679, -0.34603682, 0.47705406, 0.022004627, -0.050818466, -0.0712471, 0
242, 3112174030, -0.7915877, -0.16149029, -0.34620932, 0.47691458, 0.009918387, -0.017513916, -0.08821201, 0
243, 3112190697, -0.79153806, -0.16175503, -0.34632733, 0.47682163, -0.08069332, 0.048940733, -0.10100651, 0
244, 3112207364, -0.79147923, -0.16203511, -0.34644184, 0.47674093, -0.07210193, 0.15838687, -0.096616745, 0
246, 3112240698, -0.7913896, -0.16255437, -0.3466508, 0.4765608, 0.09738437, 0.087665245, 0.003279686, 0
247, 3112257365, -0.7913889, -0.16267732, -0.3466775, 0.4765006, 0.075706966, 0.07041239, -0.06944561, 0
248, 3112274032, -0.79138297, -0.16272146, -0.34663904, 0.47652364, -0.022502167, -0.046801824, -0.1762886, 0
250, 3112307366, -0.7914038, -0.16267593, -0.3465172, 0.47659296, 0.034207765, 0.009354017, -0.09910202, 0
251, 3112324033, -0.79143125, -0.16264099, -0.34646013, 0.47660083, 0.015048233, 0.016614612, -0.10528374, 0
254, 3112374034, -0.79138935, -0.16265708, -0.34654105, 0.47660613, 0.075404555, -0.10859433, -0.072063446, 0
255, 3112390701, -0.7913899, -0.16263448, -0.34655598, 0.47660208, 0.0803471, -0.12709439, -0.123456, 0
256, 3112407368, -0.7914054, -0.16254827, -0.3465294, 0.4766251, 0.040812794, -0.058554135, -0.115000725, 0
258, 3112440702, -0.7914361, -0.16231453, -0.34642744, 0.47672778, 0.011989458, 0.0020613482, -0.10431957, 0
259, 3112457369, -0.7914558, -0.16216752, -0.34638825, 0.4767735, 0.048872, 0.03287518, -0.06809807, 0
261, 3112490703, -0.7915694, -0.16174491, -0.34614396, 0.4769061, 0.15763922, -0.4060942, -0.26705265, 0
262, 3112507370, -0.79167086, -0.16166879, -0.34598657, 0.47687772, -0.24449076, -0.022855764, 0.30243683, 0
263, 3112524037, -0.7916265, -0.16128838, -0.34612605, 0.47697866, 0.46202317, -0.13173519, -0.4097042, 0
265, 3112557371, -0.79172814, -0.16050917, -0.34607577, 0.4771094, 0.49634695, -0.33647552, 0.024720192, 0
266, 3112574038, -0.79168576, -0.160153, -0.34616926, 0.47723156, 0.00783167, -0.910266, 0.10074425, 0
269, 3112624039, -0.791233, -0.15996249, -0.34760538, 0.4770025, 0.36731806, -0.26723176, -0.13912106, 0
270, 3112640706, -0.79112643, -0.15999824, -0.34791902, 0.47693872, 0.17777103, -0.29351407, -0.4163494, 0
271, 3112657373, -0.79109764, -0.15984777, -0.3478836, 0.47706282, 0.009485667, -0.48992324, -0.34972954, 0
273, 3112690707, -0.79131347, -0.1592496, -0.34719247, 0.47740802, 0.26547194, -0.37056693, 0.008763313, 0
274, 3112707374, -0.79141974, -0.15898572, -0.34683532, 0.4775793, 0.36190748, -0.15615018, 0.10186672, 0
275, 3112724041, -0.7914468, -0.15879437, -0.34662154, 0.4777535, 0.20661671, -0.030304333, 0.017062187, 0
277, 3112757375, -0.7914215, -0.1585879, -0.3464806, 0.4779663, -0.19176495, -0.04840341, -0.22317028, 0
278, 3112774042, -0.79143316, -0.15852427, -0.34640482, 0.47802275, -0.09309024, -0.07764181, -0.108148575, 0
279, 3112790709, -0.79144293, -0.15851286, -0.34629855, 0.4780875, 0.0047968114, -0.09290204, 0.005783081, 0
281, 3112824043, -0.79144984, -0.15863425, -0.34609067, 0.47818622, -0.17804706, 0.027557695, -0.009693146, 0
282, 3112840710, -0.7914741, -0.15874508, -0.3459593, 0.4782045, -0.34084207, 0.17226903, -0.098526, 0
283, 3112857377, -0.7915005, -0.15883936, -0.3457592, 0.4782744, -0.30462, 0.34993324, -0.11251354, 0
285, 3112890711, -0.7916211, -0.15893105, -0.3451361, 0.47849435, -0.0985558, 0.44176733, -0.178998, 0
286, 3112907378, -0.7916887, -0.15894036, -0.344801, 0.47862092, -0.22594678, 0.34123465, -0.1136837, 0
288, 3112940712, -0.7917589, -0.15898222, -0.34432563, 0.47883284, -0.15270382, 0.1724703, -0.049414635, 0
289, 3112957379, -0.7917639, -0.15907723, -0.344214, 0.4788732, -0.07366831, 0.16366647, 0.024837494, 0
290, 3112974046, -0.7917533, -0.1592193, -0.34414357, 0.4788941, -0.0627877, 0.22674328, -0.052126884, 0
292, 3113007380, -0.79172397, -0.15944812, -0.34412405, 0.47888058, -0.042053293, 0.25418082, -0.067378044, 0
293, 3113024047, -0.7917204, -0.15948454, -0.3441181, 0.47887868, -0.008968681, 0.245205, -0.10587025, 0
296, 3113074048, -0.7916857, -0.15921831, -0.34417668, 0.47898257, -0.061557256, 0.088295884, -0.10205746, 0
297, 3113090715, -0.7916494, -0.15907471, -0.34426212, 0.4790289, -0.09868477, 0.052598186, -0.044776917, 0
298, 3113107382, -0.79162, -0.15895408, -0.34434694, 0.47905648, -0.013460397, 0.054198205, -0.048916817, 0
300, 3113140716, -0.7915865, -0.1587322, -0.34448317, 0.47908768, 0.0053059743, 0.14235964, -0.11116028, 0
301, 3113157383, -0.7915715, -0.15860096, -0.34452578, 0.4791252, 0.026265454, 0.12469855, -0.059606552, 0
302, 3113174050, -0.7915533, -0.15848292, -0.34457645, 0.47915775, -0.0027559148, 0.09567707, -0.049973488, 0
304, 3113207384, -0.7914759, -0.158233, -0.34481904, 0.47919366, 0.028044617, 0.04772661, -0.060038567, 0
305, 3113224051, -0.79142874, -0.15808901, -0.34497097, 0.4792097, 0.08477064, -0.04273702, -0.08916092, 0
306, 3113240718, -0.79138315, -0.15793413, -0.3451047, 0.47923997, 0.03864271, -0.028399333, -0.14554977, 0
308, 3113274052, -0.791357, -0.15759838, -0.3452736, 0.47927183, 0.0076669413, -0.035127074, -0.065815926, 0
310, 3113307386, -0.791352, -0.1572091, -0.34540024, 0.47931677, -0.038284864, 0.034866232, -0.024562836, 0
312, 3113340720, -0.7913005, -0.15688397, -0.34559694, 0.4793664, 0.010692189, 0.004599785, -0.14163208, 0
313, 3113357387, -0.79127413, -0.1567497, -0.34568557, 0.47939014, 0.017688368, -0.005266859, -0.14338303, 0
315, 3113390721, -0.7912654, -0.15645245, -0.34578395, 0.47943082, -0.02161482, -0.037175346, -0.069319725, 0
316, 3113407388, -0.79126954, -0.15629439, -0.3458101, 0.47945654, -0.018599855, -0.03364809, -0.022517204, 0
317, 3113424055, -0.791267, -0.15616533, -0.34584355, 0.47947863, -0.04729132, -0.03424766, -0.04361725, 0
319, 3113457389, -0.79123706, -0.15606257, -0.34596133, 0.47947663, -0.07577782, 0.010261703, -0.087768555, 0
320, 3113474056, -0.7912171, -0.15606067, -0.34601468, 0.47947162, -0.0796779, 0.009066245, -0.11575031, 0
321, 3113490723, -0.7912171, -0.15606454, -0.34603316, 0.47945708, -0.03148828, -0.023852296, -0.1410904, 0
323, 3113524057, -0.7912369, -0.15607099, -0.3459754, 0.47946388, 0.04299652, -0.059517365, -0.072995186, 0
325, 3113557391, -0.79125166, -0.15612552, -0.34591743, 0.47946343, -0.012494151, -0.04636754, -0.011468887, 0
327, 3113590725, -0.7912741, -0.15620364, -0.34592706, 0.47939426, -0.03191139, -0.019781455, -0.10131836, 0
328, 3113607392, -0.7912951, -0.15626112, -0.34590733, 0.47935498, 0.0023100064, -0.013761804, -0.16311455, 0
329, 3113624059, -0.7913109, -0.15631944, -0.34586945, 0.47933725, 0.06478411, -0.014870652, -0.16318607, 0
331, 3113657393, -0.79135454, -0.1563988, -0.34573412, 0.47933686, 0.046204597, -0.08223377, -0.05550289, 0
332, 3113674060, -0.79135853, -0.15643796, -0.34567913, 0.47935706, -9.0478046E-4, -0.069112554, -0.022330284, 0
333, 3113690727, -0.7913586, -0.15650184, -0.34566563, 0.479346, -0.022154158, -0.024729809, -0.039042473, 0
335, 3113724061, -0.79135793, -0.1566904, -0.34567624, 0.47927758, 0.029407823, 0.020646116, -0.13624096, 0
336, 3113740728, -0.7913572, -0.15677607, -0.3456747, 0.47925192, -0.016152164, 0.022341685, -0.13075447, 0
337, 3113757395, -0.7913685, -0.15683387, -0.3456317, 0.47924554, -0.013044663, -0.025779538, -0.1315813, 0
340, 3113807396, -0.791409, -0.15705119, -0.34556842, 0.47915307, 0.066608205, -0.018258885, -0.060720444, 0
342, 3113840730, -0.7914264, -0.15730253, -0.34556803, 0.47904217, -0.008654421, -0.039175786, -0.113687515, 0
343, 3113857397, -0.7914446, -0.15744998, -0.34554642, 0.4789792, -0.037186522, -0.050121997, -0.1372757, 0
344, 3113874064, -0.79147804, -0.15756531, -0.34550098, 0.4789188, -0.045174874, -0.07698591, -0.13598633, 0
346, 3113907398, -0.7915442, -0.1577295, -0.34530684, 0.47889546, 0.08719151, 0.032016106, -0.026493073, 0
347, 3113924065, -0.79158425, -0.157842, -0.3452205, 0.47885445, 0.074633434, -0.0016298564, 0.034766197, 0
348, 3113940732, -0.79159564, -0.15799242, -0.34519362, 0.4788054, -0.0039441097, -0.031814724, -0.0024528503, 0
350, 3113974066, -0.7915742, -0.15831833, -0.34527093, 0.47867763, 0.03239619, -0.07721434, -0.17837048, 0
351, 3113990733, -0.79156643, -0.1584524, -0.34527946, 0.4786399, 0.07771389, -0.10502695, -0.18136597, 0
352, 3114007400, -0.79160213, -0.15857661, -0.3452237, 0.47857997, 0.090560965, -0.1349227, -0.120492935, 0
354, 3114040734, -0.7916504, -0.15886568, -0.34513253, 0.47846997, 0.06955366, -0.11169803, -0.012564659, 0
355, 3114057401, -0.7916466, -0.15903996, -0.34514487, 0.47840962, 0.061018813, -0.06890658, -0.02237606, 0
356, 3114074068, -0.7916507, -0.15921219, -0.34517467, 0.47832382, 0.04631032, -0.09800272, -0.08373451, 0
358, 3114107402, -0.79168457, -0.15952267, -0.3450939, 0.47822258, 0.08420761, -0.1297742, -0.12792969, 0
359, 3114124069, -0.791751, -0.15962309, -0.34497616, 0.4781639, 0.119881175, -0.05496988, -0.053334236, 0
360, 3114140736, -0.79180354, -0.15973942, -0.34486082, 0.4781214, 0.07967477, -0.06064901, -0.023374557, 0
362, 3114174070, -0.791917, -0.15999891, -0.34461558, 0.47802344, -0.22604156, -0.42793602, 0.102241516, 0
363, 3114190737, -0.7919826, -0.16016689, -0.3444837, 0.47795373, 0.09479229, -0.13465092, 0.065117836, 0
364, 3114207404, -0.7919036, -0.16026945, -0.34473342, 0.47786993, 0.7280986, 0.074230775, -0.1288395, 0
367, 3114257405, -0.7918873, -0.16070783, -0.34504905, 0.47752213, 0.02097915, -0.9549401, 0.2140255, 0
369, 3114290739, -0.79147583, -0.16102159, -0.3462804, 0.47720718, 0.7042782, -0.30006635, -0.25213337, 0
370, 3114307406, -0.7912821, -0.1610814, -0.34684065, 0.47710115, 0.63591516, -0.33393103, -0.39405155, 0
371, 3114324073, -0.7911, -0.16093858, -0.34720913, 0.4771833, 0.28113034, -0.57133955, -0.40363216, 0
373, 3114357407, -0.7910339, -0.1603688, -0.34721172, 0.47748297, 0.070105955, -0.80338615, -0.13979816, 0
374, 3114374074, -0.7910843, -0.16019762, -0.34710395, 0.47753495, 0.3047465, -0.7093591, 0.11255264, 0
375, 3114390741, -0.7910759, -0.16016011, -0.34708402, 0.47757584, 0.39768007, -0.43804026, 0.24302483, 0
377, 3114424075, -0.7909371, -0.16041826, -0.34724155, 0.47760445, 0.094265245, -0.36884084, 0.06206703, 0
378, 3114440742, -0.79090524, -0.1606044, -0.34733713, 0.47752547, -0.06550069, -0.36741853, -0.078837395, 0
379, 3114457409, -0.7908455, -0.16070417, -0.34741455, 0.47753456, 0.03589663, -0.2163972, -0.057138443, 0
382, 3114507410, -0.79012036, -0.1610626, -0.3485247, 0.47780523, 0.38347113, -0.2662247, 0.15964699, 0
383, 3114524077, -0.7896903, -0.16139552, -0.349435, 0.4777393, 0.25352696, -0.24520577, -0.08284187, 0
385, 3114557411, -0.78827924, -0.16209061, -0.35234058, 0.47769982, 0.2590343, -0.12929666, 0.12615204, 0
386, 3114574078, -0.7873852, -0.16230786, -0.35431692, 0.47763884, 0.28178546, -0.23195347, 0.31103706, 0
387, 3114590745, -0.78637534, -0.1622314, -0.35662997, 0.47760704, 0.2226549, 0.062085193, 0.7236128, 0
389, 3114624079, -0.7844346, -0.16028784, -0.36204654, 0.47737935, 0.5197273, 0.23220615, 0.15823364, 0
390, 3114640746, -0.7839923, -0.15839538, -0.3651385, 0.4763819, 0.8421041, -0.012847637, 0.09407425, 0
391, 3114657413, -0.7840408, -0.1550533, -0.36869833, 0.47465637, 0.5388392, -0.11392232, -0.13363361, 0
393, 3114690747, -0.7858006, -0.14960353, -0.3776306, 0.46640113, 0.79619944, 2.994799, -0.31602478, 0
394, 3114707414, -0.78898054, -0.14953046, -0.38124162, 0.45804366, 1.4250728, 2.9542055, -0.26002598, 0
397, 3114757415, -0.7976831, -0.15148842, -0.39546677, 0.42936885, -2.428806, -1.093139, -2.112155, 0
398, 3114774082, -0.79726756, -0.15216167, -0.40194657, 0.42385024, -2.5434754, -2.2998185, -2.330834, 0
400, 3114807416, -0.79427093, -0.15710069, -0.40339133, 0.42629445, 4.8700466, -6.3843226, 1.6869335, 0
401, 3114824083, -0.794042, -0.15658326, -0.4033014, 0.42699596, 2.0920775, -1.865263, 0.6798763, 0
402, 3114840750, -0.7943801, -0.15657154, -0.40237555, 0.42724487, 0.42995757, -1.2660336, 0.27061558, 0
404, 3114874084, -0.7953587, -0.1553167, -0.40057018, 0.42757854, 0.75812733, -1.7404346, -0.15577221, 0
405, 3114890751, -0.79630184, -0.15460257, -0.39985147, 0.42675397, 0.6445405, -1.6834668, -0.25756454, 0
406, 3114907418, -0.7973677, -0.15420601, -0.39891613, 0.4257814, 1.3861263, -2.490394, -0.3018694, 0
408, 3114940752, -0.7990056, -0.1533066, -0.3969476, 0.42487448, 1.7765017, -1.845989, 0.09277153, 0
409, 3114957419, -0.79937404, -0.15281597, -0.3961639, 0.42508966, 1.8098017, -2.0157843, -0.16769218, 0
412, 3115007420, -0.7991677, -0.15050058, -0.39466894, 0.42768636, 0.9814747, -2.3073342, -0.3956995, 0
413, 3115024087, -0.79935056, -0.14960317, -0.39406914, 0.42821214, 1.0769958, -2.5261788, -0.5490999, 0
414, 3115040754, -0.79965365, -0.14873631, -0.3935059, 0.42846635, 1.2253063, -2.4231317, -0.41453362, 0
416, 3115074088, -0.80047154, -0.14666156, -0.3913169, 0.42965734, 1.5089735, -2.9727309, -0.5783987, 0
417, 3115090755, -0.80087364, -0.14567505, -0.39032108, 0.43014908, 1.69854, -2.750334, -0.58862114, 0
418, 3115107422, -0.8013903, -0.14409478, -0.38882962, 0.43106887, 1.6629851, -2.739319, 0.9921427, 0
420, 3115140756, -0.8025749, -0.14051563, -0.3847072, 0.43373722, 1.9031212, -3.2448502, -0.6898136, 0
421, 3115157423, -0.80312866, -0.1388298, -0.38309994, 0.43467662, 1.8957775, -3.0116148, 0.16976929, 0
423, 3115190757, -0.80421114, -0.13453728, -0.37983078, 0.43688834, 2.4818704, -3.3427386, -0.79523087, 0
424, 3115207424, -0.8045209, -0.13224187, -0.37871066, 0.43798962, 2.2083948, -2.8353136, 0.8092375, 0
425, 3115224091, -0.80448145, -0.13034314, -0.3783281, 0.43896085, 1.9929644, -2.7688973, 0.9555607, 0
427, 3115257425, -0.80361116, -0.12797967, -0.3811144, 0.43884012, 2.1257477, -2.6474276, -1.1070051, 0
428, 3115274092, -0.8034486, -0.12587978, -0.38190863, 0.43905473, 1.9462351, -2.514097, -0.86172485, 0
429, 3115290759, -0.8034444, -0.12364744, -0.38218185, 0.4394591, 2.0729663, -1.7023451, -0.49664116, 0
431, 3115324093, -0.8037361, -0.11879342, -0.3814276, 0.44091713, 1.7622504, -2.4651556, 0.038822174, 0
432, 3115340760, -0.80306435, -0.11685933, -0.38314727, 0.4411669, 1.804033, -2.0467663, -1.3525429, 0
433, 3115357427, -0.8031205, -0.11413044, -0.38331994, 0.44162887, 2.3948534, -2.1466007, -0.84064007, 0
435, 3115390761, -0.80715686, -0.104300074, -0.37523258, 0.44364238, 3.5231261, -2.848226, -3.8316665, 0
436, 3115407428, -0.80859905, -0.099674195, -0.372285, 0.4445614, 1.534713, -2.580419, 1.654171, 0
439, 3115457429, -0.81003016, -0.08967364, -0.37058946, 0.44550213, 0.95421594, 1.0438058, 0.6062355, 0
440, 3115474096, -0.8101326, -0.086807445, -0.37096933, 0.44556728, 0.22572954, -0.946173, 0.111242294, 0
441, 3115490763, -0.81013364, -0.083925635, -0.3712318, 0.44589838, -0.8398383, -0.73483837, -0.056998253, 0
443, 3115524097, -0.8100935, -0.0777896, -0.3721221, 0.4463413, -0.414294, 2.5986147, 1.8763218, 0
444, 3115540764, -0.81022197, -0.0746157, -0.3725526, 0.44629136, -1.0575569, 3.2602496, 1.4852581, 0
445, 3115557431, -0.810386, -0.0716925, -0.37287772, 0.44620156, -1.1889452, 2.6995535, 0.71323395, 0
447, 3115590765, -0.8108867, -0.06598022, -0.37329456, 0.4458239, -1.654377, 1.9070941, -0.558094, 0
448, 3115607432, -0.8113013, -0.063784644, -0.3733583, 0.4453356, -1.436109, 1.990258, -0.6416359, 0
449, 3115624099, -0.8116571, -0.06177201, -0.3735973, 0.44477046, -0.7657073, 2.1822033, -0.6033125, 0
451, 3115657433, -0.8135886, -0.060953017, -0.37243947, 0.44231853, -1.4717052, 0.64691466, -0.448534, 0
454, 3115707434, -0.81966907, -0.069987126, -0.3665034, 0.4346473, -1.1368407, 0.9460385, -0.047822952, 0
455, 3115724101, -0.8215694, -0.07346212, -0.36429054, 0.43234017, -1.180004, 1.5840342, 0.2561102, 0
456, 3115740768, -0.8233721, -0.07669995, -0.3620938, 0.43018818, -1.175823, 1.2382085, 0.33748913, 0
458, 3115774102, -0.8260902, -0.08237099, -0.35874432, 0.4267213, -1.1740026, 0.42415735, -0.16091156, 0
459, 3115790769, -0.82708097, -0.08525338, -0.35747287, 0.42530084, -0.64314425, 0.54826385, -0.29698467, 0
460, 3115807436, -0.82799786, -0.08790539, -0.35613894, 0.4240942, -0.77899206, -0.40747783, -0.37482262, 0
462, 3115840770, -0.8294206, -0.09249892, -0.35374525, 0.42233688, -1.6557902, -0.09388527, 0.42089272, 0
463, 3115857437, -0.8298255, -0.09445051, -0.35271788, 0.42196867, -0.8583436, 0.04323562, 0.09817505, 0
464, 3115874104, -0.8300232, -0.09628292, -0.35186622, 0.42187682, -0.31722656, 0.058092695, -0.37114906, 0
466, 3115907438, -0.8301494, -0.099857576, -0.35065764, 0.42180368, -0.32163537, -0.83639956, -0.5125494, 0
468, 3115940772, -0.8295242, -0.102795355, -0.35050505, 0.42245406, -0.31474268, -1.4329194, 0.15468502, 0
470, 3115974106, -0.828344, -0.10498458, -0.35079026, 0.42399213, 0.055466976, -0.40929955, -0.066438675, 0
471, 3115990773, -0.8275727, -0.10570952, -0.35097572, 0.42516294, 0.08524315, -0.9117803, -0.21141148, 0
472, 3116007440, -0.8264959, -0.10620184, -0.3515293, 0.42667502, -0.15970984, -0.83670694, 0.03413105, 0
474, 3116040774, -0.824056, -0.1069958, -0.3533408, 0.42968863, -0.2597862, -0.75262517, 0.14972305, 0
475, 3116057441, -0.8229121, -0.10765757, -0.3543257, 0.4309029, -0.3964854, -1.2097657, -0.35825443, 0
477, 3116090775, -0.82031333, -0.109169774, -0.35613412, 0.43397588, -0.4406806, -0.53320825, -0.35843563, 0
478, 3116107442, -0.81893533, -0.10979866, -0.3568727, 0.435809, -0.4844737, -0.5932492, 0.5389347, 0
479, 3116124109, -0.8174184, -0.11008329, -0.3579401, 0.4377058, 0.30581826, -0.47179535, 0.31421947, 0
481, 3116157443, -0.8140525, -0.11030333, -0.36094466, 0.44144002, 0.8064146, -0.9987432, -0.4869604, 0
483, 3116190777, -0.8106184, -0.11105385, -0.36405548, 0.44500247, -1.4416145, -1.9627473, 0.19657898, 0
485, 3116224111, -0.8075743, -0.112500206, -0.3666452, 0.44803715, 0.4043468, -0.6587723, -0.40568542, 0
486, 3116240778, -0.8059255, -0.113092795, -0.3680084, 0.44973606, 1.4609019, -0.06515, -0.08222389, 0
487, 3116257445, -0.8043429, -0.113439836, -0.3691132, 0.45157284, 1.2763399, -0.794082, 0.07322788, 0
489, 3116290779, -0.8007225, -0.114372455, -0.37293962, 0.45461762, -0.9767331, -1.900975, -0.24706459, 0
490, 3116307446, -0.7991428, -0.115142874, -0.3746184, 0.4558207, -0.97241926, -1.7602835, 0.78009224, 0
491, 3116324113, -0.79785085, -0.11605153, -0.37592724, 0.45677486, 0.24098273, -0.88460284, -0.4283676, 0
493, 3116357447, -0.79515433, -0.11754349, -0.37803134, 0.45935184, 0.7657934, -1.1497947, -0.16921806, 0
494, 3116374114, -0.79347867, -0.11774516, -0.37973982, 0.4607863, 1.0674858, -1.7314188, -0.80453014, 0
495, 3116390781, -0.79177654, -0.11783247, -0.38171956, 0.4620547, 0.7131159, -2.3217616, 0.45796776, 0
497, 3116424115, -0.78911114, -0.11754619, -0.38450214, 0.46437427, 0.80131406, -2.327579, -0.063409805, 0
498, 3116440782, -0.7879161, -0.1165653, -0.38520256, 0.46606684, 0.91593665, -1.854, -0.15236855, 0
499, 3116457449, -0.78676724, -0.11538794, -0.38573214, 0.46785915, 0.9752722, -1.5751519, -0.08202171, 0
501, 3116490783, -0.78414583, -0.11445719, -0.38798895, 0.47061452, 1.0576771, -2.232117, 0.29276276, 0
502, 3116507450, -0.78265613, -0.115125656, -0.39024258, 0.47106767, 1.442693, -2.7837095, 0.29706478, 0
504, 3116540784, -0.7801616, -0.1179124, -0.39446542, 0.4709992, 1.1625148, -2.818544, -0.49960995, 0
505, 3116557451, -0.7792311, -0.11877126, -0.3954883, 0.4714658, 1.4007288, -2.1444383, -0.33875084, 0
506, 3116574118, -0.77901906, -0.11907242, -0.39498696, 0.47215983, 1.97295, -1.6754867, -0.47520256, 0
508, 3116607452, -0.77957857, -0.119740665, -0.3928623, 0.47283962, 1.1439353, -2.6677146, 0.5798025, 0
510, 3116640786, -0.77882624, -0.12238856, -0.3949439, 0.47166562, 2.725255, -3.6292822, -2.0228686, 0
512, 3116674120, -0.78281856, -0.12079787, -0.38792256, 0.4712937, 1.1951354, -2.5726094, -1.3658066, 0
513, 3116690787, -0.78631175, -0.11794359, -0.38045675, 0.47228658, 1.1782577, -2.559822, 1.3729525, 0
514, 3116707454, -0.7887318, -0.11719332, -0.37539968, 0.4724844, 1.8726982, -2.7855942, 2.7097511, 0
516, 3116740788, -0.7884453, -0.12074345, -0.3798359, 0.4685065, 2.612246, -0.1973919, 0.7368059, 0
517, 3116757455, -0.78606594, -0.123935826, -0.38972685, 0.46352133, 1.4944742, 0.11730519, -2.7439318, 0
518, 3116774122, -0.78461033, -0.124828964, -0.39992025, 0.4570194, 0.7659066, 0.8343258, -2.1522193, 0
520, 3116807456, -0.7916503, -0.114984356, -0.40810618, 0.43990472, -3.080892, 2.9338398, -2.532555, 0
521, 3116824123, -0.7961792, -0.11107069, -0.40571156, 0.4349239, -3.922994, 5.0762544, -0.8427658, 0
522, 3116840790, -0.7989702, -0.1084762, -0.40022805, 0.43554068, 0.42595893, 3.504208, -1.4040899, 0
525, 3116890791, -0.80231124, -0.10030175, -0.391507, 0.43926865, 0.23489445, -1.1307073, 1.5361338, 0
526, 3116907458, -0.8037404, -0.096650004, -0.38852823, 0.44011882, 2.5200677, -3.2599607, -0.37890434, 0
528, 3116940792, -0.80561304, -0.08954653, -0.38371882, 0.44241118, 4.4527035, -3.4561546, 0.5703802, 0
529, 3116957459, -0.80632585, -0.08633488, -0.38153964, 0.4436338, 2.1987996, -3.0799809, 0.6355181, 0
530, 3116974126, -0.80704063, -0.08417193, -0.37992063, 0.44413885, -0.43670586, -1.0150114, 0.6984558, 0
532, 3117007460, -0.8093621, -0.08164239, -0.37577215, 0.4439159, -0.3568952, -0.89985245, 2.6929722, 0
533, 3117024127, -0.8102339, -0.0809039, -0.3743668, 0.44364834, -0.093028106, 1.156494, 0.84004116, 0
535, 3117057461, -0.81130207, -0.079755895, -0.37258157, 0.44340667, -0.5559382, 2.3496816, 0.009495735, 0
536, 3117074128, -0.8111367, -0.078375585, -0.37245044, 0.4440649, -1.5303414, 1.4521829, 0.41827393, 0
537, 3117090795, -0.810432, -0.07680168, -0.37327924, 0.44493005, -1.5600132, 2.7135298, -0.7699337, 0
540, 3117140796, -0.809039, -0.07386067, -0.375602, 0.446007, -2.131417, 1.7165878, -0.3933239, 0
541, 3117157463, -0.80890274, -0.073949836, -0.37568286, 0.44617134, -2.0062826, 1.9105315, -0.2923708, 0
543, 3117190797, -0.80965614, -0.07468765, -0.37430423, 0.44584042, -0.01567474, -1.046263, -0.32304, 0
544, 3117207464, -0.8099088, -0.07506816, -0.37392557, 0.44563535, 0.3835214, 0.43316224, 0.06524086, 0
545, 3117224131, -0.810094, -0.075281136, -0.37352306, 0.44560054, 1.3189653, 0.65144265, -0.736763, 0
547, 3117257465, -0.8114621, -0.076734595, -0.37163636, 0.44443917, -0.5980565, -0.27557448, 0.6307907, 0
548, 3117274132, -0.8124667, -0.07780376, -0.37002954, 0.44375807, -1.7254697, -0.06133827, 0.68932724, 0
549, 3117290799, -0.81321514, -0.07887866, -0.36865097, 0.4433443, -0.44292602, 0.11040612, 0.100777626, 0
551, 3117324133, -0.8150442, -0.08076379, -0.36543128, 0.44231075, 0.042227633, -0.25033864, 0.06794262, 0
552, 3117340800, -0.8157712, -0.081312366, -0.3640415, 0.44201562, 0.031800754, 0.14935203, -0.483819, 0
555, 3117390801, -0.8172363, -0.0835253, -0.36060077, 0.44171724, -1.8941458, 0.26285872, -0.18590927, 0
556, 3117407468, -0.81778866, -0.084700696, -0.35944274, 0.44141498, -1.852302, 0.28574863, -1.1991739, 0
558, 3117440802, -0.81844395, -0.08753867, -0.3570557, 0.4415839, -0.53665125, 0.356198, 0.12114048, 0
559, 3117457469, -0.81857234, -0.08908311, -0.35627493, 0.44166762, 0.12789054, 0.12166084, -0.24139118, 0
560, 3117474136, -0.8186964, -0.09036395, -0.3555738, 0.44174266, -0.64530313, 0.91516846, 0.61810493, 0
562, 3117507470, -0.81818706, -0.092868045, -0.35490885, 0.4427007, -0.86179847, -0.5419887, -0.11309433, 0
563, 3117524137, -0.8179322, -0.09421445, -0.35450366, 0.44321138, -0.3695666, -1.4384067, -0.33186722, 0
564, 3117540804, -0.81774616, -0.0953509, -0.35405827, 0.44366744, -0.14558874, -1.5137244, -0.46307945, 0
566, 3117574138, -0.81665134, -0.09647122, -0.35362962, 0.4457786, 0.7425049, -0.45988002, 0.44076633, 0
567, 3117590805, -0.8158875, -0.09674062, -0.35370106, 0.44706026, 0.8294342, -0.67261386, -0.1540432, 0
568, 3117607472, -0.81523234, -0.09700213, -0.35385823, 0.44807327, 0.019065209, -1.1112078, -0.16113472, 0
570, 3117640806, -0.8135481, -0.09666047, -0.3545009, 0.45069262, -0.46121654, -1.4459205, -0.24343586, 0
571, 3117657473, -0.81247544, -0.09627154, -0.35515812, 0.452191, 0.70155466, -0.5017122, -0.20481873, 0
572, 3117674140, -0.8115947, -0.095836975, -0.3556791, 0.45345372, 0.7321811, -0.46801144, -0.4147234, 0
574, 3117707474, -0.80993307, -0.09485729, -0.35657933, 0.45591727, -0.121483535, -0.33090138, 0.31127262, 0
575, 3117724141, -0.8090826, -0.09447102, -0.35710356, 0.45709544, -0.23993737, 0.5892885, 0.548584, 0
576, 3117740808, -0.8084578, -0.094471484, -0.3575821, 0.45782638, -0.35714933, 0.49373034, 0.36252403, 0
578, 3117774142, -0.80767685, -0.09570514, -0.35762808, 0.458911, -0.85260135, 0.26795444, 0.89991665, 0
579, 3117790809, -0.80729204, -0.09665227, -0.35752615, 0.45946866, -0.23563763, 0.65209734, 0.3890438, 0
582, 3117840810, -0.80673265, -0.10034736, -0.35710645, 0.45998493, -0.98077285, -0.7992764, -1.0128765, 0
583, 3117857477, -0.80649763, -0.10177941, -0.35672542, 0.46037823, -0.6576665, -1.6038494, -0.8936901, 0
585, 3117890811, -0.806336, -0.10502719, -0.35585475, 0.46060568, 0.44843605, -0.7232731, -0.2963848, 0
586, 3117907478, -0.8063593, -0.106613405, -0.3553332, 0.4606029, -0.03676028, -1.1759549, -0.28421688, 0
587, 3117924145, -0.8060575, -0.10827007, -0.3553898, 0.46070132, 0.08457171, -1.5093935, -0.8403864, 0
589, 3117957479, -0.8054932, -0.11156035, -0.3551243, 0.46110767, -0.13073832, -0.5651398, 0.7157688, 0
590, 3117974146, -0.8050016, -0.11300929, -0.3553576, 0.4614337, -0.75093985, -1.6309897, -0.24778652, 0
591, 3117990813, -0.8042624, -0.11477772, -0.356283, 0.4615724, -0.8127557, -0.5977542, 0.12891579, 0
593, 3118024147, -0.80191344, -0.119249746, -0.36145324, 0.46050462, 0.42034003, -2.3839118, -0.6483669, 0
594, 3118040814, -0.80028814, -0.12180382, -0.36654365, 0.45863587, 0.93683153, -2.5099847, 0.82549286, 0
597, 3118090815, -0.78722954, -0.1343795, -0.39664403, 0.4526408, 1.9884104, -3.0864491, 1.4516754, 0
598, 3118107482, -0.7799505, -0.14144723, -0.4118209, 0.44952425, 1.696679, -4.484528, 0.41182423, 0
599, 3118124149, -0.77157706, -0.14937492, -0.4285661, 0.44574165, 2.2897365, -6.2518854, -1.2539167, 0
601, 3118157483, -0.7607458, -0.15785559, -0.44823086, 0.44208062, 0.33004302, -0.4536909, -1.5618525, 0
602, 3118174150, -0.75985575, -0.15775819, -0.44931078, 0.44254962, -0.6262777, -1.9105141, -0.93644524, 0
603, 3118190817, -0.7603455, -0.15659548, -0.44830787, 0.44313794, -0.77907497, -3.8076425, 1.950881, 0
605, 3118224151, -0.75946337, -0.16010703, -0.452359, 0.439262, 4.599192, -4.116168, 1.7372036, 0
606, 3118240818, -0.75664496, -0.16446136, -0.45931175, 0.43528414, 6.0140414, -3.508823, 0.31400204, 0
607, 3118257485, -0.7529694, -0.16876295, -0.46762422, 0.4311407, 4.7584577, -2.5912492, -1.9697113, 0
609, 3118290819, -0.747685, -0.17094086, -0.48001894, 0.42582488, 0.6926894, -1.8854623, 1.7560968, 0
612, 3118340820, -0.7488515, -0.16679733, -0.48262903, 0.42245468, 0.10264799, 0.64525217, -5.184895, 0
613, 3118357487, -0.7528228, -0.16406992, -0.47559032, 0.42444247, 0.64570904, 1.7812911, -4.4929595, 0
614, 3118374154, -0.75817585, -0.15804933, -0.46502927, 0.428878, 0.12721263, 1.0787693, -0.10358238, 0
616, 3118407488, -0.77158785, -0.13350718, -0.4368474, 0.44270897, 3.5343163, -4.4537935, -2.9536943, 0
617, 3118424155, -0.776911, -0.12510423, -0.42623502, 0.44618428, 1.8245916, 1.6049743, 3.3265114, 0
618, 3118440822, -0.7834875, -0.11635936, -0.411867, 0.4505241, 0.46487567, -3.7601647, 2.1298265, 0
620, 3118474156, -0.7914312, -0.10646681, -0.39254203, 0.4563014, -2.0081668, -0.4212509, 3.2107124, 0
621, 3118490823, -0.7968002, -0.10187231, -0.37894115, 0.45949307, 2.74611, -6.2603683, -2.8204188, 0
622, 3118507490, -0.7980701, -0.09860714, -0.37478325, 0.46140742, 1.0188376, 1.3922071, 2.2875443, 0
624, 3118540824, -0.8002209, -0.0958606, -0.3694716, 0.4625437, -2.2997704, 8.058671, 4.2427015, 0
626, 3118574158, -0.8011504, -0.095551774, -0.36661604, 0.46327004, -2.4686158, 3.1776974, -2.16055, 0
628, 3118607492, -0.80201656, -0.095213495, -0.36342898, 0.46435115, -1.3023586, 2.0326133, -2.1990757, 0
629, 3118624159, -0.8026824, -0.09506901, -0.3616784, 0.46459678, -2.6008565, 3.3768797, 2.1385593, 0
630, 3118640826, -0.80314976, -0.094770126, -0.36023143, 0.46497396, -1.3002619, 2.688127, 2.5456438, 0
632, 3118674160, -0.8035979, -0.094062895, -0.35932535, 0.46504453, 0.2989318, 2.909666, -1.1789169, 0
633, 3118690827, -0.80391216, -0.09358292, -0.35890526, 0.46492282, -0.6111081, 0.27758622, -1.8018627, 0
634, 3118707494, -0.8039075, -0.09322226, -0.3590191, 0.46491516, -1.3840714, 1.7796841, -1.1549177, 0
636, 3118740828, -0.80466133, -0.09199399, -0.3571746, 0.46527645, -0.19080406, 1.5469812, 0.6478262, 0
637, 3118757495, -0.8049159, -0.091823846, -0.35696343, 0.46503165, -0.09854485, 2.2550285, -0.076895714, 0
639, 3118790829, -0.805426, -0.09267332, -0.35659283, 0.4642639, -0.3095373, 0.61237615, -1.0553656, 0
640, 3118807496, -0.8059713, -0.093237996, -0.35569718, 0.4638912, -0.85293126, -1.2053573, -0.45804024, 0
641, 3118824163, -0.8065678, -0.093494624, -0.35440162, 0.4637943, -1.0754442, -0.9747288, -0.015593529, 0
643, 3118857497, -0.8067232, -0.09341425, -0.3530218, 0.46459228, -0.7643222, 0.57383543, -0.3681059, 0
644, 3118874164, -0.8064199, -0.093410514, -0.35295314, 0.465171, -1.3028369, 0.54844075, 0.24921322, 0
645, 3118890831, -0.8058689, -0.09343696, -0.3531505, 0.46597013, -1.1825619, -0.10989261, 0.49609375, 0
647, 3118924165, -0.8041764, -0.093336016, -0.35404992, 0.4682264, -0.78634316, -0.56934214, -0.1479044, 0
648, 3118940832, -0.8033518, -0.09300807, -0.35448256, 0.46937847, -1.1654643, -0.24904867, -0.35253334, 0
649, 3118957499, -0.80244935, -0.09301983, -0.3551696, 0.47039914, -1.3361658, 0.59347606, -0.843647, 0
651, 3118990833, -0.800395, -0.09309408, -0.35626447, 0.4730493, -0.7333677, -0.37488592, 1.1239233, 0
653, 3119024167, -0.7976651, -0.09197004, -0.35900262, 0.47580218, 1.018589, 0.8258121, -1.4719744, 0
655, 3119057501, -0.79547626, -0.09091878, -0.36114195, 0.4780444, 0.039840735, -0.59204316, 0.017011642, 0
656, 3119074168, -0.7947806, -0.09133532, -0.3615919, 0.47878128, -0.3099825, 0.1557465, 0.0648613, 0
657, 3119090835, -0.7947517, -0.09186697, -0.36131766, 0.47893465, -0.75984347, 1.042276, 1.0924473, 0
659, 3119124169, -0.79456973, -0.09344019, -0.36188173, 0.47850636, 0.509325, 1.5386437, -0.31700516, 0
660, 3119140836, -0.7944422, -0.093954496, -0.3620208, 0.47851187, 1.5337927, -0.40030238, -0.45859623, 0
661, 3119157503, -0.7942581, -0.09433497, -0.3625783, 0.47832042, 1.1339573, -0.11613437, -0.8030796, 0
663, 3119190837, -0.79462695, -0.09587233, -0.36300817, 0.47707474, -0.4337966, -0.70790243, -0.46398258, 0
664, 3119207504, -0.7949151, -0.09702714, -0.36283773, 0.47649044, -0.8850121, -0.086018234, -0.29294682, 0
666, 3119240838, -0.79554236, -0.09891942, -0.36239344, 0.4753912, 0.7649928, -0.11854769, 0.26509, 0
668, 3119274172, -0.7963068, -0.10032537, -0.36200926, 0.47410774, 0.5889336, -0.2420961, -0.4794855, 0
670, 3119307506, -0.79644656, -0.10206263, -0.3623238, 0.47326106, -0.39639977, -0.77640665, -0.26949024, 0
671, 3119324173, -0.7966733, -0.10286186, -0.36227378, 0.4727446, -0.5787669, -1.3450253, -0.07924175, 0
672, 3119340840, -0.7969632, -0.103504, -0.36197993, 0.47234094, -0.5432109, -0.78118557, 0.031199455, 0
674, 3119374174, -0.7971399, -0.10475341, -0.3614734, 0.47215527, 0.44915822, 0.34711885, 0.09391594, 0
675, 3119390841, -0.7971564, -0.10537971, -0.3612733, 0.47214106, -0.15187348, 0.015727432, 0.36537075, 0
676, 3119407508, -0.797019, -0.105911516, -0.36127374, 0.47225338, -1.007326, -0.5995716, -0.17469215, 0
678, 3119440842, -0.796346, -0.10683, -0.361735, 0.4728284, -0.66109145, 0.55700433, -0.5804863, 0
679, 3119457509, -0.79589623, -0.10716925, -0.36192903, 0.47336018, -0.23556857, -0.31845456, -0.31767178, 0
680, 3119474176, -0.7953056, -0.10751957, -0.36237884, 0.47392884, -0.2632122, -0.17090762, -0.4864149, 0
683, 3119524177, -0.793069, -0.1072725, -0.3635317, 0.47684148, 0.10162754, -0.63077885, -0.12503624, 0
684, 3119540844, -0.7921697, -0.1066747, -0.36414826, 0.4779981, -0.3024519, -0.849958, -0.13334084, 0
686, 3119574178, -0.7902949, -0.10540308, -0.36555526, 0.48030394, -0.14716451, -0.4596683, -0.429883, 0
687, 3119590845, -0.7896957, -0.10513584, -0.3659113, 0.4810767, -0.387145, 0.38335454, 0.6059532, 0
688, 3119607512, -0.7892358, -0.10477996, -0.3661631, 0.48171708, 0.10339262, -0.45793948, 0.38956833, 0
690, 3119640846, -0.78770244, -0.10316337, -0.36790735, 0.4832443, 1.7088237, 0.002235856, -0.38229465, 0
691, 3119657513, -0.78687817, -0.10149258, -0.36893404, 0.4841575, 0.27153963, -0.8308591, 0.33782673, 0
693, 3119690847, -0.78487355, -0.09771909, -0.37187794, 0.48593202, -0.31142148, -0.09315109, 0.5190563, 0
694, 3119707514, -0.7842085, -0.09656524, -0.37319887, 0.48622367, 0.4944871, -0.0231313, -0.3929119, 0
695, 3119724181, -0.78408647, -0.09594797, -0.37370932, 0.48615047, 0.21404405, -0.40885684, 0.15159607, 0
698, 3119774182, -0.7839831, -0.09472194, -0.3742489, 0.48614234, 1.4985657, -1.0167751, 0.22127533, 0
699, 3119790849, -0.78413105, -0.0946835, -0.3743864, 0.48580527, 1.1929547, -1.1586543, -1.2534924, 0
701, 3119824183, -0.7839579, -0.09626672, -0.37577313, 0.48470184, -0.80653083, -0.2588543, -0.033460617, 0
702, 3119840850, -0.7838699, -0.097299, -0.37664855, 0.48395786, 0.18216977, -2.0921025, -0.08964825, 0
703, 3119857517, -0.78379565, -0.09840148, -0.37812093, 0.48270527, 0.7931905, -3.0218742, -0.4159832, 0
705, 3119890851, -0.7829706, -0.10022462, -0.38214183, 0.48049796, 2.0362253, -2.6117349, -0.35217953, 0
706, 3119907518, -0.7816971, -0.10149935, -0.38652924, 0.47879168, 2.0875528, -0.9383371, 0.47557068, 0
707, 3119924185, -0.78034025, -0.10302799, -0.39131516, 0.4767867, 2.9060993, -3.6993906, 0.29393196, 0
709, 3119957519, -0.7756612, -0.108650565, -0.40557143, 0.47122768, 2.8229449, -3.8613205, 0.34792423, 0
710, 3119974186, -0.7736973, -0.11165033, -0.41233307, 0.4678747, 3.3859503, -3.0876527, 0.06896973, 0
711, 3119990853, -0.77271557, -0.11444012, -0.41784427, 0.46391675, 3.125277, -1.4377496, -1.0511293, 0
713, 3120024187, -0.7745546, -0.11625414, -0.42117053, 0.45734486, 3.1482415, -1.9589174, -0.5186024, 0
714, 3120040854, -0.77725565, -0.11481617, -0.41867462, 0.4554131, 3.1501212, -3.930586, 2.2418795, 0
715, 3120057521, -0.7792792, -0.11379293, -0.41811976, 0.45271376, 3.4480681, -2.094429, 1.9172344, 0
717, 3120090855, -0.7790928, -0.114354424, -0.4268966, 0.44462943, 4.399921, -1.42471, -0.88236237, 0
718, 3120107522, -0.77813, -0.11676787, -0.43371177, 0.43905774, 0.23216301, -0.33637738, -5.306634, 0
720, 3120140856, -0.78563446, -0.11080145, -0.42070943, 0.4398908, -4.385645, -1.8251331, -3.348576, 0
721, 3120157523, -0.7923975, -0.10636117, -0.40710795, 0.44165048, -4.616413, 1.5698667, -5.0489864, 0
722, 3120174190, -0.7995986, -0.10128271, -0.39095265, 0.44445318, -0.056848284, 1.7587605, 0.7231684, 0
725, 3120224191, -0.805751, -0.096664086, -0.37378103, 0.4491185, -1.9612489, -1.6228147, 3.3252468, 0
726, 3120240858, -0.80613136, -0.09674256, -0.37139106, 0.4504002, -5.3592086, 0.21225539, 0.8772154, 0
728, 3120274192, -0.8056717, -0.096017495, -0.3674014, 0.45463037, -0.88946354, 3.8283255, 3.4506197, 0
729, 3120290859, -0.8052107, -0.095973626, -0.36588636, 0.4566734, 0.50816363, 5.258233, 1.7151899, 0
730, 3120307526, -0.80467826, -0.09655318, -0.36456344, 0.45854396, -2.910018, 7.012906, 0.4477682, 0
732, 3120340860, -0.80286914, -0.09787372, -0.3632869, 0.4624318, -4.9816523, 1.82549, -1.1826954, 0
733, 3120357527, -0.801648, -0.097280346, -0.3634507, 0.4645416, -1.164467, 1.3705292, -1.645875, 0
734, 3120374194, -0.8007139, -0.09613643, -0.36336926, 0.46645093, 0.560163, 2.2322178, -0.307168, 0
736, 3120407528, -0.79872113, -0.09328755, -0.36319366, 0.47056445, -0.89183927, 3.7873952, 0.13661861, 0
737, 3120424195, -0.79767144, -0.09250201, -0.36388195, 0.47196633, -1.6793259, 3.5095122, -0.43475628, 0
740, 3120474196, -0.79616445, -0.09075327, -0.3638867, 0.47483796, 0.9495777, -1.8026487, -1.7713213, 0
741, 3120490863, -0.7957317, -0.0895582, -0.3634536, 0.47612014, -0.63724214, -0.85817957, 0.61594486, 0
742, 3120507530, -0.7948876, -0.08776107, -0.36389002, 0.47752953, 0.023384372, 0.67870957, -0.07044697, 0
744, 3120540864, -0.7932045, -0.08503178, -0.36595303, 0.47924247, 1.7792699, -0.18768282, -0.7894573, 0
745, 3120557531, -0.79258496, -0.08378903, -0.3669032, 0.47975975, 0.42836416, 0.08702108, 0.24917698, 0
747, 3120590865, -0.79140323, -0.08055288, -0.36887276, 0.48075315, 0.2590953, -0.293932, -1.0270977, 0
748, 3120607532, -0.7908218, -0.07879542, -0.37019923, 0.4809817, 0.56661224, 0.26794627, -0.19142342, 0
749, 3120624199, -0.79055864, -0.07723619, -0.37082732, 0.48118353, 1.8385948, -1.1124074, 1.4166813, 0
751, 3120657533, -0.79005545, -0.07393608, -0.37296274, 0.4808776, 1.8665878, 0.58878845, -0.21555042, 0
752, 3120674200, -0.79074776, -0.07329631, -0.37294972, 0.47984645, 1.0126832, -0.6020729, 0.44956875, 0
755, 3120724201, -0.7921441, -0.07246719, -0.374256, 0.47664174, 1.927274, 1.3363239, -0.9261484, 0
756, 3120740868, -0.7931516, -0.072427236, -0.3742254, 0.47499323, 0.95227116, -0.008718626, 0.63886833, 0
757, 3120757535, -0.79406834, -0.071995676, -0.37408018, 0.47363997, 0.8769699, -0.97705996, -0.8046799, 0
759, 3120790869, -0.79681385, -0.07269357, -0.37172684, 0.4707664, 0.44615823, -0.041103475, 0.5817795, 0
760, 3120807536, -0.7987166, -0.074289955, -0.36966172, 0.46891546, -0.9877594, 0.109579794, 0.048491478, 0
761, 3120824203, -0.800225, -0.07609205, -0.36800042, 0.46735895, -0.66087705, -0.9179426, -0.6155195, 0
763, 3120857537, -0.8021973, -0.079731345, -0.36605614, 0.4648914, 0.55201954, -0.54236895, -0.27180958, 0
764, 3120874204, -0.8030471, -0.0809291, -0.36526528, 0.46383828, -0.46007168, -0.15014525, -0.026851654, 0
765, 3120890871, -0.80356455, -0.08149606, -0.36452392, 0.46342564, -0.8362257, -0.9524744, -0.32530022, 0
767, 3120924205, -0.8041775, -0.08203791, -0.3628749, 0.46356115, -0.43836948, -1.276544, -0.6785984, 0
769, 3120957539, -0.803856, -0.082364134, -0.36229116, 0.4645163, -0.48850545, -0.09982061, 0.07676697, 0
771, 3120990873, -0.8036871, -0.082987696, -0.36182132, 0.46506345, 0.29191014, 0.2925395, 1.2126617, 0
772, 3121007540, -0.80390143, -0.083777815, -0.360929, 0.4652444, 0.10499812, -0.5136244, 1.1528473, 0
774, 3121040874, -0.8042667, -0.085297614, -0.35869002, 0.46606815, -0.45072395, -0.024454832, -0.6937227, 0
775, 3121057541, -0.8043333, -0.086615585, -0.35808638, 0.4661742, -1.0544423, 1.0285407, -2.07084, 0
776, 3121074208, -0.8045287, -0.08819601, -0.3573049, 0.46614036, -0.92203116, 0.98038507, -0.40419388, 0
778, 3121107542, -0.80487454, -0.091620356, -0.3561252, 0.4657856, 0.14369625, 0.26505357, -0.5334778, 0
779, 3121124209, -0.80529034, -0.09319729, -0.35506725, 0.46556193, 0.40176207, -0.7834669, 0.66765785, 0
780, 3121140876, -0.8055801, -0.09428956, -0.3540069, 0.46564806, 0.08718324, -1.20613, -0.54790974, 0
782, 3121174210, -0.8054103, -0.09559246, -0.35266984, 0.4666893, 0.06532971, -0.434975, -0.2590046, 0
783, 3121190877, -0.80529916, -0.096143715, -0.35209966, 0.46719816, -0.58409613, -0.08486139, 0.19897366, 0
784, 3121207544, -0.80501074, -0.09670359, -0.3516617, 0.46790898, -0.94672847, -0.72296494, -0.12283516, 0
786, 3121240878, -0.80425227, -0.09798259, -0.35123733, 0.46926382, -0.6800449, 0.7977536, 0.8840208, 0
787, 3121257545, -0.80383605, -0.09837322, -0.3509831, 0.4700849, -0.3467571, -1.3692356, 0.39673042, 0
788, 3121274212, -0.8030582, -0.09820002, -0.3510863, 0.47137183, -0.69299924, -0.4498909, 0.07619667, 0
790, 3121307546, -0.8010842, -0.09816181, -0.35248658, 0.4736877, -1.0956019, 1.1682062, 0.48858356, 0
791, 3121324213, -0.799951, -0.097776964, -0.35373005, 0.4747543, -1.0554789, 0.47322533, 0.89746, 0
792, 3121340880, -0.79858536, -0.09679306, -0.3553456, 0.47604692, 0.10068476, -0.30271336, 0.07555485, 0
794, 3121374214, -0.7968204, -0.09596394, -0.35689887, 0.47800624, 0.061329495, -0.9915805, -0.607213, 0
796, 3121407548, -0.79543537, -0.09582234, -0.35766947, 0.47976238, -0.7573674, 0.28900656, 0.14841747, 0
798, 3121440882, -0.7945689, -0.09540199, -0.35825148, 0.4808465, 0.71760666, 0.1730107, -1.331131, 0
799, 3121457549, -0.7940325, -0.09505743, -0.35886037, 0.48134655, 0.3735172, 0.34330222, 0.044935226, 0
801, 3121490883, -0.7935047, -0.095024414, -0.3590707, 0.48206577, -0.4427358, 0.2647521, 0.39089203, 0
802, 3121507550, -0.793623, -0.09498485, -0.35880882, 0.4820738, 0.17590603, -0.19778052, 0.5005598, 0
803, 3121524217, -0.7938317, -0.094993114, -0.3583604, 0.48206228, 0.009743153, 0.18786202, -0.21080875, 0
805, 3121557551, -0.7940266, -0.095245704, -0.35765046, 0.48221824, 0.7471687, 1.1548579, -0.10693741, 0
806, 3121574218, -0.7944809, -0.09564186, -0.35699126, 0.48188025, -0.47942075, 1.3944666, 0.7351036, 0
807, 3121590885, -0.79494137, -0.09624381, -0.35637897, 0.48145413, -0.675531, 0.2771559, 0.51144314, 0
809, 3121624219, -0.79575837, -0.09763279, -0.35539988, 0.48054776, 0.117048815, 1.5625654, 0.18817043, 0
811, 3121657553, -0.7963279, -0.09853039, -0.35476425, 0.47989026, -0.20251504, 0.6647414, -0.73705673, 0
813, 3121690887, -0.7969258, -0.09928903, -0.35406435, 0.47925776, -0.6046463, 0.0070817843, -0.22555923, 0
814, 3121707554, -0.7969464, -0.09963176, -0.35410103, 0.47912535, -1.0869011, 0.48098245, 0.012288094, 0
815, 3121724221, -0.79695886, -0.099837095, -0.3539989, 0.47913727, -0.31306207, 0.38656902, -0.6858225, 0
817, 3121757555, -0.79710364, -0.100329906, -0.35370034, 0.47901374, -0.4086816, -0.5465415, -0.07077122, 0
818, 3121774222, -0.79686534, -0.100374505, -0.35375684, 0.47935927, -0.3520367, -0.2723712, 0.039657593, 0
819, 3121790889, -0.7966437, -0.10045455, -0.35362595, 0.47980732, -0.0393879, -0.7226754, -0.25591183, 0
821, 3121824223, -0.79642785, -0.10103503, -0.3532592, 0.48031363, -0.91280884, 0.4683588, -0.1659174, 0
822, 3121840890, -0.7960063, -0.10131127, -0.35341123, 0.48084238, -0.65488625, 0.41187167, 0.16643906, 0
823, 3121857557, -0.795611, -0.10159418, -0.35356313, 0.48132485, -0.2404434, 0.242896, 0.13101482, 0
826, 3121907558, -0.79422504, -0.101665355, -0.35450575, 0.48290268, -0.14696558, -0.23941852, -0.7367344, 0
828, 3121940892, -0.79254884, -0.10014299, -0.35632616, 0.48463193, -0.30168012, -0.12155266, -0.7252283, 0
829, 3121957559, -0.79151976, -0.098886386, -0.35782212, 0.4854687, -0.29824474, 1.5521559, 0.114058495, 0
830, 3121974226, -0.7904529, -0.09710298, -0.3595042, 0.48632357, 0.08692754, 0.5836526, 0.20072651, 0
832, 3122007560, -0.78845716, -0.093224145, -0.36331987, 0.48748514, 0.33842298, -0.30978042, -0.30627346, 0
833, 3122024227, -0.7876006, -0.09173872, -0.36520034, 0.48774645, -0.024165103, 1.0531601, -0.42056656, 0
834, 3122040894, -0.7869041, -0.090357326, -0.3666843, 0.48801512, 0.36622754, 0.789615, -0.030942917, 0
836, 3122074228, -0.7864178, -0.08880331, -0.36878806, 0.48749873, 0.32658103, 0.22713414, 0.17712688, 0
837, 3122090895, -0.7864517, -0.08845147, -0.36945876, 0.48699984, 0.7898427, -0.030643404, 0.4993267, 0
838, 3122107562, -0.78655815, -0.088385604, -0.3699152, 0.48649332, 1.2415352, 0.18799703, -0.097639084, 0
841, 3122157563, -0.7879359, -0.08941066, -0.3708604, 0.48334658, 0.37837458, -0.8895923, -0.511034, 0
842, 3122174230, -0.7882621, -0.09017765, -0.37166998, 0.48204863, 1.1155996, -0.5073602, -1.1363649, 0
844, 3122207564, -0.7894438, -0.092795186, -0.37330848, 0.47833768, 1.231471, -2.4460106, -0.6479254, 0
845, 3122224231, -0.7897606, -0.0941392, -0.3748956, 0.4763067, 1.1124821, -2.0886538, 0.22893715, 0
846, 3122240898, -0.7900107, -0.095447816, -0.3764017, 0.4744398, 1.5496906, -2.4320834, -0.5855236, 0
848, 3122274232, -0.79062814, -0.09767315, -0.3794553, 0.47050995, 0.37359095, -3.2820497, 0.9407301, 0
849, 3122290899, -0.7904165, -0.098639905, -0.3821899, 0.46844575, 1.249766, -2.6986852, 0.2592907, 0
850, 3122307566, -0.78923804, -0.10060492, -0.3869417, 0.466108, 2.5344708, -1.7211134, -1.0659666, 0
852, 3122340900, -0.78587586, -0.104959615, -0.39795986, 0.46152946, 1.226477, -3.8669508, -0.4870901, 0
853, 3122357567, -0.7834564, -0.10736135, -0.40472367, 0.45920286, 0.20328638, -2.8164563, 1.1089001, 0
855, 3122390901, -0.7794506, -0.11194588, -0.41681784, 0.45407736, 1.7825392, -1.7875965, -0.21563435, 0
856, 3122407568, -0.7770174, -0.1146153, -0.42357323, 0.45132223, 1.0127422, -1.358347, 0.26635742, 0
857, 3122424235, -0.7738529, -0.11759757, -0.43133572, 0.44863212, 1.7520038, -2.5793417, -0.23448753, 0
859, 3122457569, -0.7671836, -0.12371067, -0.4468109, 0.4432648, -0.22953372, 0.10686155, 1.1482792, 0
860, 3122474236, -0.7655792, -0.12524399, -0.45058826, 0.44178194, -0.02560788, -1.8620892, -3.2644415, 0
861, 3122490903, -0.7657842, -0.12505399, -0.45054328, 0.44152656, -1.5437669, -0.4193222, -1.7979116, 0
863, 3122524237, -0.7720916, -0.11477433, -0.4361889, 0.4477044, 0.55292636, 0.40009892, -0.17324162, 0
864, 3122540904, -0.77760404, -0.10683868, -0.42356336, 0.45222795, 0.87230426, -2.643118, -0.3392086, 0
865, 3122557571, -0.78311396, -0.09990271, -0.41076517, 0.4560949, 1.4255308, -3.6799653, -0.43088722, 0
868, 3122607572, -0.7919932, -0.08669925, -0.38671717, 0.4644121, 2.1262689, -0.5745081, 1.7710419, 0
869, 3122624239, -0.79297185, -0.084584095, -0.38394678, 0.46542957, -0.9388398, 0.21452717, 3.3836899, 0
871, 3122657573, -0.794291, -0.08183074, -0.38003457, 0.46688095, -0.27610847, 2.1061099, 2.25636, 0
872, 3122674240, -0.7947729, -0.08076514, -0.37861675, 0.46739814, -0.2377818, 5.2552457, 0.18671608, 0
873, 3122690907, -0.7950272, -0.0799845, -0.37770686, 0.4678357, -0.43498996, 5.795715, -2.7700653, 0
875, 3122724241, -0.79625994, -0.0788046, -0.37410724, 0.46883088, -3.6581879, 4.104599, 0.93969345, 0
876, 3122740908, -0.79682666, -0.078149945, -0.37259352, 0.4691831, -3.5899541, 5.3977485, -0.09200001, 0
877, 3122757575, -0.79750127, -0.07792803, -0.37130836, 0.46909237, -1.6074079, 5.8583083, -1.8529544, 0
879, 3122790909, -0.7985234, -0.07758838, -0.36922067, 0.46905774, -1.3412194, 3.0266342, -0.7827482, 0
880, 3122807576, -0.79847074, -0.07684523, -0.3691345, 0.46933734, -0.13350898, 3.4800198, -0.64306736, 0
883, 3122857577, -0.7974453, -0.072645165, -0.3696773, 0.4713184, -0.5691328, -0.015761407, -0.11993694, 0
884, 3122874244, -0.79659534, -0.07059318, -0.37027502, 0.47259656, -0.5671476, 0.16268757, -0.7851553, 0
886, 3122907578, -0.7950779, -0.067502014, -0.37172958, 0.47445762, -0.2845539, 0.4266502, 0.9034004, 0
887, 3122924245, -0.79447305, -0.06617536, -0.37246588, 0.47507995, 0.32893217, 0.71094376, 0.975667, 0
888, 3122940912, -0.7938363, -0.06463952, -0.37355992, 0.47549677, 1.1037654, 0.0897685, -1.2876663, 0
890, 3122974246, -0.7932628, -0.06133646, -0.37481856, 0.4759012, 0.38499525, -1.0586485, -0.027441025, 0
891, 3122990913, -0.7930091, -0.05922924, -0.3753068, 0.4762057, 1.5497994, -0.23036067, 0.2853117, 0
892, 3123007580, -0.7930444, -0.05755999, -0.37576166, 0.4759928, 2.3300893, 0.20614298, -0.4263153, 0
894, 3123040914, -0.7944912, -0.055338386, -0.37577128, 0.47383127, 1.7443023, 0.34444165, 6.5517426E-4, 0
895, 3123057581, -0.7953966, -0.054670893, -0.37583208, 0.4723391, 0.62108374, 0.68777347, -0.4333639, 0
898, 3123107582, -0.80056745, -0.05736503, -0.37245968, 0.46591142, 0.58065873, -1.0155121, -0.52276707, 0
899, 3123124249, -0.8025506, -0.058501925, -0.37070787, 0.46375018, 1.3892258, -0.8015783, -0.47188187, 0
900, 3123140916, -0.80422586, -0.058789134, -0.36924753, 0.46197364, 0.63656247, 0.37274835, -0.3617773, 0
902, 3123174250, -0.8075067, -0.06156822, -0.36682594, 0.45779854, -1.6792138, 0.6288972, 0.3979721, 0
903, 3123190917, -0.808908, -0.06348889, -0.3657944, 0.45588374, -0.7660214, -0.63572115, 1.0077324, 0
904, 3123207584, -0.8100671, -0.0651383, -0.36477268, 0.4544091, -0.42975283, -0.6858505, 0.9686451, 0
906, 3123240918, -0.81218034, -0.06771579, -0.3626612, 0.45194378, 0.32092282, 0.44783017, -0.803977, 0
907, 3123257585, -0.8127554, -0.068753004, -0.362323, 0.45102373, -0.7705656, 1.3469677, -0.9643507, 0
909, 3123290919, -0.8131057, -0.07006166, -0.36206052, 0.450401, -0.48483267, 0.42576665, 0.110551834, 0
910, 3123307586, -0.8133938, -0.07068415, -0.36175722, 0.45002732, 0.3338642, -0.83404964, 0.62219524, 0
913, 3123357587, -0.8146038, -0.07229624, -0.35806817, 0.45053273, -0.95885, -0.085790895, -1.8780503, 0
914, 3123374254, -0.8147789, -0.07343805, -0.35715058, 0.45075968, -2.7993822, 2.5244808, -1.713747, 0
915, 3123390921, -0.81507933, -0.074723385, -0.3559474, 0.450957, -1.512781, 0.41425934, 0.50766754, 0
917, 3123424255, -0.8150603, -0.076184735, -0.35461825, 0.45179316, 1.2167156, -0.85957146, 0.47175884, 0
918, 3123440922, -0.8152053, -0.07695833, -0.35360956, 0.452191, 0.63483757, -0.36194432, -0.1916666, 0
919, 3123457589, -0.81535167, -0.077719904, -0.3525264, 0.45264217, -0.9422895, -0.16297355, -0.78261566, 0
921, 3123490923, -0.81506485, -0.08006191, -0.35124686, 0.453744, -2.2473145, 1.5736706, -0.83559704, 0
922, 3123507590, -0.8147128, -0.08120175, -0.35094, 0.45441058, -0.66194993, 0.79831576, 1.1997223, 0
923, 3123524257, -0.8142628, -0.08188497, -0.3510012, 0.45504692, 0.2831936, 0.31149173, -0.3919096, 0
925, 3123557591, -0.81334966, -0.08274697, -0.35042208, 0.4569665, 0.34947926, -1.5016202, -0.866745, 0
926, 3123574258, -0.81263787, -0.08322227, -0.3503055, 0.45823398, -0.84227437, -0.1378315, -1.3251534, 0
927, 3123590925, -0.81201905, -0.083956204, -0.3502563, 0.45923364, -2.0643468, 0.34793916, 0.451581, 0
929, 3123624259, -0.81078815, -0.08553398, -0.35056612, 0.46087775, -7.2909927E-4, 0.37067038, 2.1188889, 0
930, 3123640926, -0.81000346, -0.085523725, -0.35097834, 0.46194458, 2.49429, -0.34566352, -0.25375462, 0
931, 3123657593, -0.8094653, -0.0851253, -0.35116062, 0.46282208, 0.5730832, 1.1636033, -0.38362122, 0
933, 3123690927, -0.80858105, -0.085523315, -0.35125464, 0.46422106, -2.3070164, 0.30843356, 0.06484127, 0
934, 3123707594, -0.80818915, -0.08618847, -0.3511627, 0.46484947, -0.863005, -0.0044213654, 1.0205708, 0
936, 3123740928, -0.8083561, -0.08879032, -0.3504212, 0.46462893, 0.15078363, 1.3040787, 0.22841263, 0
937, 3123757595, -0.8084453, -0.09004202, -0.3499442, 0.4645923, 0.45467028, -0.769883, 5.340576E-4, 0
940, 3123807596, -0.80857766, -0.09255459, -0.34833837, 0.46507487, -1.2791095, 0.5329515, -0.82061005, 0
941, 3123824263, -0.8086165, -0.0931623, -0.3476965, 0.46536613, -0.78502536, -0.10868262, 0.3661852, 0
942, 3123840930, -0.80847305, -0.09374006, -0.3473854, 0.46573156, -0.1400398, -0.12835579, -0.83001995, 0
944, 3123874264, -0.8080986, -0.09526134, -0.34698993, 0.4663674, -0.29284668, -0.56551224, -0.2007742, 0
945, 3123890931, -0.8077621, -0.095689386, -0.34686092, 0.4669583, -1.5259514, 0.4195051, 0.45219707, 0
946, 3123907598, -0.80728525, -0.09606862, -0.34689224, 0.46768105, -1.1345919, -0.33447167, 0.65636444, 0
948, 3123940932, -0.8062307, -0.09653098, -0.34707683, 0.4692653, -0.015588241, 0.14421085, -0.035467148, 0
949, 3123957599, -0.8057278, -0.09684562, -0.3470442, 0.47008786, -0.12536573, -0.048296735, -0.53801346, 0
950, 3123974266, -0.8054256, -0.09739891, -0.3465449, 0.47085935, -0.7931154, 0.21627857, -0.030906677, 0
952, 3124007600, -0.8044588, -0.09883976, -0.34644252, 0.4722848, -1.2225537, 1.038386, -0.7334223, 0
954, 3124040934, -0.80353403, -0.10041162, -0.34654891, 0.47344804, -0.3871468, -0.76000124, 0.31493378, 0
956, 3124074268, -0.8022969, -0.100935906, -0.34666106, 0.47534853, 0.08855025, -1.4307737, 0.8013716, 0
957, 3124090935, -0.8016467, -0.10080146, -0.34663036, 0.47649515, -0.07731604, -0.8880239, -1.4832573, 0
958, 3124107602, -0.8007868, -0.10102721, -0.34714943, 0.47751394, -1.2787751, 2.037565, -0.64946365, 0
960, 3124140936, -0.79892576, -0.101338886, -0.3484948, 0.4795811, -1.2890633, 1.1469898, -0.5848274, 0
961, 3124157603, -0.79798365, -0.1010941, -0.3491847, 0.4806983, -0.0034631097, -1.1194434, 0.66407776, 0
963, 3124190937, -0.79527974, -0.09945403, -0.35229832, 0.48324254, 0.46544406, -0.23618871, 0.25535107, 0
964, 3124207604, -0.79395574, -0.09808044, -0.35418922, 0.48431727, 0.6305716, -0.10424415, 0.35335636, 0
965, 3124224271, -0.7928297, -0.0970475, -0.35588923, 0.48512298, 0.28808406, 0.77934897, -0.025954247, 0
967, 3124257605, -0.7912822, -0.095846385, -0.35814685, 0.48622555, 0.09723059, 0.13426372, 0.27882862, 0
969, 3124290939, -0.7903086, -0.09479961, -0.3602663, 0.48644856, 0.7807674, -0.9931435, -1.0156269, 0
971, 3124324273, -0.7897817, -0.094412856, -0.36227503, 0.48588747, 0.74569756, -2.5150032, -0.17103863, 0
972, 3124340940, -0.7898617, -0.094713025, -0.36319143, 0.4850139, 0.66103554, -0.92101127, 0.20233822, 0
973, 3124357607, -0.7902315, -0.0960321, -0.36384603, 0.48365963, 0.78787065, -0.4536366, 0.25966358, 0
975, 3124390941, -0.79160714, -0.09934537, -0.36404756, 0.48057947, 1.9579107, -2.7644372, -0.82779026, 0
976, 3124407608, -0.792422, -0.10103405, -0.36394238, 0.4789615, 1.1832132, -3.1782126, -1.2415924, 0
977, 3124424275, -0.7932482, -0.102364115, -0.36326817, 0.47782204, 1.2133168, -3.342495, -1.6343985, 0
979, 3124457609, -0.79525715, -0.10371741, -0.36025476, 0.47647032, -0.030434195, -1.5842513, 0.080132484, 0
980, 3124474276, -0.7959588, -0.10416674, -0.35913298, 0.47604698, -0.31607324, -0.7791234, 1.1389894, 0
981, 3124490943, -0.796036, -0.10468532, -0.35911715, 0.4758162, 0.5722694, -0.50849485, 0.7884693, 0
984, 3124540944, -0.794477, -0.1058226, -0.36387828, 0.47455126, 0.5068257, -2.513279, -3.2143555, 0
985, 3124557611, -0.79399204, -0.10480337, -0.3651566, 0.47460747, -0.06816497, -0.93041843, -0.1838789, 0
987, 3124590945, -0.7921413, -0.10232935, -0.36898422, 0.47527876, 0.27036417, -0.843918, 3.326457, 0
988, 3124607612, -0.79063076, -0.10261066, -0.37536833, 0.47272754, 4.462229, -0.45687595, -2.753066, 0
990, 3124640946, -0.7879372, -0.1010602, -0.38517648, 0.46965915, 4.221912, -4.045735, -4.2228513, 0
991, 3124657613, -0.7897584, -0.0974993, -0.38005793, 0.47151905, -0.35178435, -1.2524762, 2.4875326, 0
992, 3124674280, -0.7920619, -0.094423786, -0.37421155, 0.47295478, -2.3293908, 1.1557422, 2.2777462, 0
994, 3124707614, -0.79237074, -0.08945219, -0.37322688, 0.4741807, 0.6662481, 5.5688114, 2.3279772, 0
995, 3124724281, -0.7920673, -0.08846498, -0.37476748, 0.47365713, 2.5402064, 3.6426148, -1.2462215, 0
996, 3124740948, -0.7919633, -0.088000536, -0.3756963, 0.47318178, 0.4318354, 0.29836065, -4.160722, 0
998, 3124774282, -0.792654, -0.08645795, -0.37513018, 0.47275826, -1.8633819, -1.2341504, 0.92562294, 0
999, 3124790949, -0.7931668, -0.08593475, -0.37480107, 0.47225446, -0.7259388, 3.6201243, 1.8493643, 0
1000, 3124807616, -0.79382306, -0.085438095, -0.37420258, 0.47171637, 0.8479659, 2.4564466, 0.9574833, 0
1002, 3124840950, -0.7948069, -0.08485261, -0.3733173, 0.47086596, 0.7930195, 0.92765176, -0.7129574, 0
1003, 3124857617, -0.79506904, -0.084849074, -0.37313792, 0.47056642, -0.081885986, 1.4461136, -0.503952, 0
1004, 3124874284, -0.795286, -0.084761, -0.37264064, 0.4706096, -1.7371275, 0.6504179, -0.5801754, 0
1006, 3124907618, -0.79525745, -0.08442388, -0.37112457, 0.4719147, -2.799037, 3.2605972, 0.3205166, 0
1007, 3124924285, -0.79526305, -0.08432482, -0.37029085, 0.47257695, -2.0156033, 3.1162233, -0.37691402, 0
1008, 3124940952, -0.79516256, -0.08426116, -0.36994338, 0.47302955, -1.5004159, 3.055438, -0.15812588, 0
1011, 3124990953, -0.79435587, -0.081504345, -0.36914143, 0.47548783, -0.6398447, 2.703091, -0.61140823, 0
1012, 3125007620, -0.7941287, -0.079805285, -0.36881456, 0.47640836, 0.34014872, 0.3139135, 0.35002613, 0
1014, 3125040954, -0.7933419, -0.077551775, -0.3696474, 0.47744486, 0.7212848, 1.7712983, -1.2592554, 0
1015, 3125057621, -0.79351014, -0.07743597, -0.3697076, 0.47713712, 0.69501287, 1.792063, -0.043172836, 0
1017, 3125090955, -0.7942483, -0.07687979, -0.3689559, 0.47658056, -0.31249323, -0.9399048, 0.08024502, 0
1018, 3125107622, -0.79441637, -0.07644106, -0.36867547, 0.47658807, 0.9503623, 0.029026063, 0.19237518, 0
1019, 3125124289, -0.79491097, -0.07583925, -0.36801437, 0.4763705, 1.0532402, 0.6519445, -1.108674, 0
1021, 3125157623, -0.7958546, -0.075830765, -0.36753592, 0.47516423, 0.7311746, 0.40598425, 0.56956005, 0
1022, 3125174290, -0.7966512, -0.07608496, -0.3666954, 0.47443774, 0.5296211, -0.8507159, 0.4017725, 0
1023, 3125190957, -0.7975297, -0.07642747, -0.3656614, 0.47370392, 0.37604713, 0.049369205, -0.39399052, 0
1026, 3125240958, -0.8013504, -0.079791464, -0.36042637, 0.47070396, -0.41498512, -0.45140722, 0.07787132, 0
1027, 3125257625, -0.8025283, -0.08116739, -0.35890967, 0.46961963, -0.8512739, 0.926906, 0.35347462, 0
1029, 3125290959, -0.80433184, -0.08407068, -0.35644048, 0.46790078, -0.40742254, 1.4909986, 0.87792397, 0
1030, 3125307626, -0.80519843, -0.0855643, -0.35510704, 0.4671527, -0.45621923, -0.364247, 0.15242004, 0
1031, 3125324293, -0.80611193, -0.08714136, -0.3535633, 0.46645635, -0.9070853, 0.23781359, -0.0642252, 0
1033, 3125357627, -0.8071595, -0.08994598, -0.3509838, 0.46606055, -1.6611404, -0.22976755, 0.49359608, 0
1034, 3125374294, -0.8072891, -0.09108785, -0.35005394, 0.46631297, -0.6369283, -0.007346424, -0.18392181, 0
1035, 3125390961, -0.80725867, -0.091965966, -0.34923148, 0.46680996, -0.5099882, 0.41878483, 1.033473, 0
1037, 3125424295, -0.8058861, -0.092306964, -0.34965542, 0.4687929, -0.7756671, 0.61698645, -0.64425373, 0
1038, 3125440962, -0.8047374, -0.09163061, -0.35053495, 0.47023958, -0.08438173, -1.149187, -0.75740623, 0
1041, 3125490963, -0.80060446, -0.08902312, -0.35468835, 0.4746599, -0.37292087, -1.0452917, -0.35437012, 0
1042, 3125507630, -0.79960024, -0.08856879, -0.35546583, 0.4758547, -0.4105173, -0.105331875, 1.0043154, 0
1044, 3125540964, -0.7983502, -0.08811326, -0.35616726, 0.47751063, 0.13356933, 1.2053647, 0.7435541, 0
1045, 3125557631, -0.79790574, -0.08800535, -0.3563909, 0.47810602, 0.4684675, -0.26885903, -1.2251043, 0
1046, 3125574298, -0.7972633, -0.08834628, -0.3572717, 0.47845754, -0.23229814, 1.7659544, -0.5541439, 0
1048, 3125607632, -0.7970489, -0.08925184, -0.35785386, 0.47821146, -0.30222774, 0.4317073, 0.24761009, 0
1050, 3125640966, -0.7971216, -0.0905282, -0.35796368, 0.47776815, 0.7348556, 0.28618175, 0.721509, 0
1052, 3125674300, -0.79743963, -0.0915978, -0.35805538, 0.47696432, 0.26708972, -0.20454776, 0.16664219, 0
1053, 3125690967, -0.79743665, -0.091861494, -0.35838324, 0.47667202, -0.40574217, 0.30055663, -0.6444788, 0
1054, 3125707634, -0.7971542, -0.09185344, -0.35895696, 0.47671458, 0.59500647, 0.19392012, -0.28265476, 0
1057, 3125757635, -0.7980397, -0.09352595, -0.3576428, 0.4758948, -0.3076631, -1.4044571, -0.38332844, 0
1058, 3125774302, -0.79827684, -0.09441995, -0.3571997, 0.47565317, -0.27124795, 0.480952, -0.33085155, 0
1060, 3125807636, -0.7989178, -0.09601169, -0.35634482, 0.474899, 0.03984744, 0.0040781614, 0.6205702, 0
1061, 3125824303, -0.79917747, -0.0967707, -0.3561069, 0.47448605, -0.06285542, 1.2898812, 0.40837193, 0
1062, 3125840970, -0.7993036, -0.09704235, -0.35572428, 0.4745051, 0.32487428, -0.6096394, 0.18656254, 0
1064, 3125874304, -0.79914856, -0.09738208, -0.35518143, 0.475103, -1.0656041, -0.9966216, -0.69741344, 0
1065, 3125890971, -0.79883075, -0.097480446, -0.35510385, 0.47567523, -1.420411, -0.07384818, -0.21822739, 0
1066, 3125907638, -0.79850703, -0.097745724, -0.35504597, 0.47620696, -1.4917568, 0.4725936, -0.303648, 0
1068, 3125940972, -0.797837, -0.098210715, -0.35492265, 0.47732526, -0.32251734, 0.38141635, -0.7244587, 0
1069, 3125957639, -0.7974338, -0.09835524, -0.35498342, 0.4779234, -0.26837826, 0.7217616, 0.20542812, 0
1071, 3125990973, -0.7965228, -0.0982886, -0.35522288, 0.47927666, -0.7545871, -0.10589094, -0.026490211, 0
1073, 3126024307, -0.79544806, -0.09869573, -0.35595486, 0.4804334, -0.9947037, 1.7984273, 1.2240381, 0
1075, 3126057641, -0.7947138, -0.09902794, -0.35623157, 0.4813743, -0.14511982, 0.30798963, -0.6176052, 0
1076, 3126074308, -0.7941823, -0.099117905, -0.3565067, 0.4820285, 0.41726047, -0.059480093, -0.4551115, 0
1077, 3126090975, -0.79383516, -0.09927809, -0.3567762, 0.482368, 0.25383002, 0.48590916, -0.14661503, 0
1079, 3126124309, -0.7930401, -0.099301, -0.35748443, 0.48314586, 0.06768755, -0.2582999, 0.41171455, 0
1080, 3126140976, -0.79248834, -0.09934812, -0.3581407, 0.4835555, 0.29609856, 0.10279339, -0.51510143, 0
1081, 3126157643, -0.79219216, -0.09922876, -0.35870394, 0.48364776, 0.04370997, 0.19643424, 0.015079498, 0
1083, 3126190977, -0.7912152, -0.09875719, -0.36121255, 0.48347673, -0.004260157, 0.6770457, 0.13184357, 0
1085, 3126224311, -0.7910437, -0.10051768, -0.36337292, 0.4817723, 0.24524802, -0.36465853, 0.39555645, 0
1087, 3126257645, -0.7906324, -0.10394672, -0.36736417, 0.47868332, 1.2240229, -2.1278257, -0.8457699, 0
1088, 3126274312, -0.79054296, -0.10532193, -0.36919644, 0.47711807, 1.8816838, -1.9957145, -0.42096424, 0
1089, 3126290979, -0.7908806, -0.106394924, -0.3702363, 0.47551203, 1.1040572, -1.7365198, -0.7511463, 0
1091, 3126324313, -0.79105926, -0.107694075, -0.371716, 0.473765, 0.55403787, -2.5455885, 0.20671082, 0
1092, 3126340980, -0.7907877, -0.1083944, -0.3736663, 0.47252235, 0.50803804, -1.6365746, 0.62015724, 0
1093, 3126357647, -0.78995854, -0.10947841, -0.37680176, 0.47116774, 1.6004438, -3.0676117, -0.8670807, 0
1095, 3126390981, -0.78778267, -0.11048035, -0.38377434, 0.46894374, 1.7390736, -1.1114511, 1.2507515, 0
1096, 3126407648, -0.7880889, -0.10937529, -0.3830899, 0.46924776, 1.4064935, -4.247869, -0.5037632, 0
1098, 3126440982, -0.78539973, -0.110163845, -0.38990486, 0.4679573, 1.2038506, -1.4189456, 2.7418156, 0
1100, 3126474316, -0.78026843, -0.11514043, -0.40506703, 0.4624318, 2.686124, -1.557226, -1.5696154, 0
1102, 3126507650, -0.7801805, -0.11291568, -0.40905973, 0.45960537, 1.7363988, -2.366475, 0.60688305, 0
1103, 3126524317, -0.7822918, -0.109309666, -0.40674925, 0.4589385, 2.8145459, -4.757274, -2.5736117, 0
1104, 3126540984, -0.7839813, -0.106423005, -0.40515313, 0.45814484, 3.1878917, -0.027224325, 3.0630198, 0
1106, 3126574318, -0.7884756, -0.10270587, -0.39934057, 0.4563807, -1.2576256, 5.0783925, 2.9739685, 0
1107, 3126590985, -0.7922457, -0.099914104, -0.39245698, 0.45644277, -2.136766, 0.19264582, -1.4189835, 0
1108, 3126607652, -0.7961288, -0.096367516, -0.38433126, 0.45736215, -1.6271303, 1.1246647, -2.2764049, 0
1110, 3126640986, -0.7995964, -0.08950676, -0.37651876, 0.45920157, 0.43382165, 3.2207878, 3.2902937, 0
1111, 3126657653, -0.7996857, -0.08746706, -0.37655523, 0.45940945, -2.5201027, 3.7305071, 3.5885477, 0
1112, 3126674320, -0.79943365, -0.086414136, -0.37724608, 0.45948046, -2.9843738, 3.9352362, 3.1803951, 0
1115, 3126724321, -0.800919, -0.08681396, -0.37629724, 0.45759264, 0.041256916, 1.2950745, -2.9571967, 0
1116, 3126740988, -0.80197126, -0.08706839, -0.3742332, 0.45739418, -0.66138154, 2.017834, -0.6784344, 0
1118, 3126774322, -0.80343556, -0.086740285, -0.3700207, 0.45831287, -1.6637276, 3.4873176, 0.95907784, 0
1119, 3126790989, -0.8036917, -0.08671896, -0.36873, 0.45890746, -2.1745245, 2.8615935, -1.3070211, 0
1120, 3126807656, -0.8035742, -0.08694784, -0.36802155, 0.45963806, -3.3713536, 3.6112902, -0.7243805, 0
1122, 3126840990, -0.80328226, -0.086294234, -0.3657476, 0.4620804, -1.4564296, 0.16315691, -1.3163376, 0
1123, 3126857657, -0.80303997, -0.086130224, -0.3648096, 0.46327186, -1.9440384, 1.7940263, 0.05806732, 0
1125, 3126890991, -0.8020123, -0.08517507, -0.3632766, 0.46642265, -1.4551746, 2.0292745, 0.36380768, 0
1126, 3126907658, -0.80121297, -0.08492727, -0.36325216, 0.46785873, -0.31266648, 1.0824733, -1.5496597, 0
1127, 3126924325, -0.80059457, -0.084395245, -0.36310112, 0.46912888, -0.901088, 1.9160639, 0.24500561, 0
1130, 3126974326, -0.7984726, -0.0826516, -0.36289772, 0.47319564, 0.9030357, 0.7214201, -0.059375763, 0
1131, 3126990993, -0.7982681, -0.08265412, -0.36265296, 0.4737273, 0.46214142, 1.4656748, 0.09976578, 0
1133, 3127024327, -0.7978555, -0.082887426, -0.36225232, 0.47468755, 0.15287839, -0.32240173, 1.5821896, 0
1134, 3127040994, -0.79757905, -0.0827996, -0.3623798, 0.47506997, 0.43902862, 0.73910266, 0.37296772, 0
1135, 3127057661, -0.7975266, -0.08261559, -0.36257705, 0.47503936, 0.64562637, 0.63749903, -1.212286, 0
1137, 3127090995, -0.7974872, -0.08174092, -0.36283788, 0.47505754, 0.71226805, -0.07672294, 0.19311333, 0
1138, 3127107662, -0.79752505, -0.08100033, -0.3628743, 0.475093, 0.7560527, -0.09570445, -0.40499783, 0
1139, 3127124329, -0.7978178, -0.080786265, -0.36290577, 0.4746135, 0.5146887, 1.4143896, -0.59573174, 0
1141, 3127157663, -0.7991722, -0.08186724, -0.36154637, 0.47318524, -0.48412928, 1.1910294, 0.07963467, 0
1142, 3127174330, -0.79983455, -0.08266052, -0.36079618, 0.4725, -0.020425955, 0.0723298, 0.04544258, 0
1143, 3127190997, -0.80058074, -0.08330453, -0.3602292, 0.47155532, 0.6689991, 0.64413476, -0.30473423, 0
1145, 3127224331, -0.80220324, -0.08529526, -0.35891113, 0.46944222, -0.14492066, -0.60395336, 0.06848812, 0
1146, 3127240998, -0.8023701, -0.08579313, -0.35905674, 0.46895507, -0.5622082, -0.15253474, -0.7557421, 0
1147, 3127257665, -0.80252385, -0.085691616, -0.35885456, 0.46886492, -0.5868451, -1.2588882, 0.7461672, 0
1149, 3127290999, -0.80205625, -0.084800124, -0.35959762, 0.4692575, -0.9572937, 0.49835286, 0.16352844, 0
1150, 3127307666, -0.8013366, -0.08403309, -0.36044815, 0.4699722, -0.11440354, -0.4464932, 0.20126629, 0
1151, 3127324333, -0.8001459, -0.083295554, -0.3622677, 0.47073263, -0.8283281, 2.184102, -0.12966537, 0
1153, 3127357667, -0.7980862, -0.080821, -0.36548886, 0.4721682, -0.65932566, -0.37978578, -0.23023415, 0
1154, 3127374334, -0.79671764, -0.07966005, -0.36763838, 0.47300708, -0.60976774, -0.3642704, -0.20331001, 0
1157, 3127424335, -0.7952701, -0.07914748, -0.37071723, 0.4731262, 0.24909557, -1.1301917, 0.6692791, 0
1158, 3127441002, -0.79556084, -0.079329394, -0.3703346, 0.47290644, 1.0679538, -0.6215623, 0.8787737, 0
1160, 3127474336, -0.79643697, -0.080074355, -0.36943352, 0.47201028, 1.803419, 0.90806067, -1.1928988, 0
1161, 3127491003, -0.79721075, -0.08144862, -0.36907768, 0.47074556, 0.1525552, 0.8431679, -1.4935942, 0
1162, 3127507670, -0.79796934, -0.08265454, -0.36846405, 0.4697295, -0.1807831, -0.54307777, -0.32909203, 0
1164, 3127541004, -0.79933816, -0.08470167, -0.36718982, 0.46803227, -0.14716719, -0.75366193, 0.34930134, 0
1165, 3127557671, -0.8000927, -0.08530303, -0.36649945, 0.4671742, 0.90493554, -1.2698203, 0.5767355, 0
1166, 3127574338, -0.80093795, -0.085489206, -0.36543828, 0.46652275, 0.8978732, -0.49264145, 0.8922272, 0
1168, 3127607672, -0.80161667, -0.085714675, -0.36477035, 0.46583775, 0.5624661, 0.91709363, -0.9104738, 0
1169, 3127624339, -0.8020063, -0.08586418, -0.36435372, 0.46546546, -0.38892415, 0.62271726, -0.4053936, 0
1172, 3127674340, -0.80312616, -0.08648722, -0.36352637, 0.464064, 0.10840356, 1.2052226, 0.017868996, 0
1173, 3127691007, -0.80349493, -0.08636044, -0.3630041, 0.46385828, 0.4501723, 0.23072655, 0.6215458, 0
1174, 3127707674, -0.8038455, -0.08654595, -0.36272582, 0.46343374, -0.073027045, 0.04039846, 0.43300438, 0
1176, 3127741008, -0.80443, -0.08713327, -0.3625126, 0.46247518, -0.13099378, 0.34614986, 0.77096176, 0
1177, 3127757675, -0.8045528, -0.087439016, -0.3627291, 0.4620339, 0.908793, 0.9993426, -0.7498083, 0
1179, 3127791009, -0.80564195, -0.087930635, -0.3618234, 0.46075118, -0.26845673, 0.18209176, -0.923131, 0
1180, 3127807676, -0.8059305, -0.08850727, -0.3615664, 0.46033734, -1.3045845, 0.79351455, -0.4553995, 0
1181, 3127824343, -0.8062864, -0.08888788, -0.36101726, 0.460072, -0.8050275, 0.14985912, 0.7581558, 0
1183, 3127857677, -0.8066544, -0.08972436, -0.36059567, 0.459595, -0.21300763, -0.07031729, -0.58546543, 0
1184, 3127874344, -0.806514, -0.09013242, -0.36069587, 0.45968288, 0.1969395, 1.4423538, -0.3241291, 0
1187, 3127924345, -0.80607593, -0.09003058, -0.36037204, 0.46072415, -0.50742066, -0.4067697, -0.53326035, 0
1188, 3127941012, -0.80591995, -0.09022355, -0.36021045, 0.4610851, -0.010602784, -0.1415617, 0.03790474, 0
1189, 3127957679, -0.80575436, -0.09052184, -0.3600409, 0.46144834, -0.51237863, 0.34802276, -1.0611601, 0
1191, 3127991013, -0.80577433, -0.0917824, -0.3589617, 0.46200523, -0.28981963, -0.6887175, 0.5673084, 0
1192, 3128007680, -0.80599815, -0.09231073, -0.35821125, 0.4620916, -0.43326935, 0.153695, 0.5726013, 0
1193, 3128024347, -0.8061403, -0.0927889, -0.35761788, 0.46220803, 0.19817798, 0.19213152, -0.27866268, 0
1195, 3128057681, -0.8062341, -0.09408953, -0.35654944, 0.46260637, 0.064449735, 0.4350063, -0.7892494, 0
1196, 3128074348, -0.8063374, -0.09477496, -0.35628703, 0.46248874, -0.86240596, 0.7227912, 0.18215847, 0
1197, 3128091015, -0.8064067, -0.09539415, -0.35597652, 0.46247983, -1.0855823, -0.31192702, -0.32304955, 0
1199, 3128124349, -0.8058362, -0.09626674, -0.35613075, 0.46317422, 0.20228079, 0.26204386, -0.03897667, 0
1201, 3128157683, -0.80508333, -0.09739371, -0.35701084, 0.46356988, -0.8715121, 1.2080592, -1.1915064, 0
1203, 3128191017, -0.80400115, -0.097975835, -0.3577482, 0.4647553, -0.4749572, -0.2002551, 0.3151884, 0
1204, 3128207684, -0.80371535, -0.09795418, -0.35762602, 0.46534795, -0.37630552, -0.1834834, 0.36397743, 0
1206, 3128241018, -0.80322236, -0.09734496, -0.35688168, 0.46689588, 0.7044436, -1.4973905, -0.035884857, 0
1207, 3128257685, -0.802592, -0.09757937, -0.35751393, 0.46744704, -0.5517757, 1.8635961, 1.2524023, 0
1208, 3128274352, -0.80228025, -0.09798237, -0.35779974, 0.46767926, -0.34450006, 0.9296181, -1.9898219, 0
1210, 3128307686, -0.8019605, -0.099141546, -0.35815853, 0.46770847, -0.8898563, -0.7484333, 0.39826488, 0
1211, 3128324353, -0.80163467, -0.099352755, -0.35833704, 0.4680854, -0.28198215, -0.12718026, 0.22468281, 0
1212, 3128341020, -0.8013374, -0.09980052, -0.35846624, 0.46840012, 0.40094313, -0.17977108, -0.5891695, 0
1214, 3128374354, -0.8009127, -0.10064937, -0.35862613, 0.46882236, -1.4184664, 0.7170956, -0.04228115, 0
1215, 3128391021, -0.80046797, -0.10068562, -0.35880685, 0.46943542, -0.6429994, -0.0077770776, -0.3398409, 0
1216, 3128407688, -0.79994893, -0.100732274, -0.3590011, 0.4701612, -0.614649, 0.7341407, -0.3866167, 0
1218, 3128441022, -0.7992264, -0.09993071, -0.3590434, 0.47152662, -0.13779707, -1.1922786, -0.7451401, 0
1219, 3128457689, -0.79864806, -0.09935045, -0.35912827, 0.4725633, -0.77509534, -1.2510972, -0.8535013, 0
1220, 3128474356, -0.79774874, -0.09862801, -0.35952204, 0.47393247, -0.66248214, 0.46000335, -0.59322166, 0
1222, 3128507690, -0.79635787, -0.09714966, -0.3602653, 0.47600788, -1.3268391, 0.91932905, 0.79736996, 0
1223, 3128524357, -0.79544383, -0.09646677, -0.36106238, 0.47706982, -0.704028, 0.7472791, 1.1453085, 0
1224, 3128541024, -0.79449075, -0.09518432, -0.36172965, 0.47840852, 1.1837941, 0.49419838, 0.0044050217, 0
1226, 3128574358, -0.7925863, -0.09254521, -0.36423704, 0.4801793, 0.084921956, -0.19288106, -1.060523, 0
1228, 3128607692, -0.7908496, -0.09083207, -0.3665898, 0.4815775, -0.25398672, 0.6038456, 0.20406628, 0
1230, 3128641026, -0.7900256, -0.090220705, -0.36854723, 0.48155093, 0.4139717, 0.6285874, 0.03445816, 0
1231, 3128657693, -0.7895594, -0.089878365, -0.36967432, 0.48151556, 0.7662956, -0.714876, -0.07044315, 0
1232, 3128674360, -0.78900236, -0.08965766, -0.37114665, 0.48133704, 0.95704895, -0.61293876, -0.5368738, 0
1234, 3128707694, -0.7881011, -0.08848651, -0.37521324, 0.4798755, 1.3626902, -1.1423965, -0.35049438, 0
1235, 3128724361, -0.78749824, -0.08803646, -0.37823197, 0.47857645, 1.0007021, 0.37590453, -0.10959053, 0
1237, 3128757695, -0.78605837, -0.08771891, -0.38550666, 0.47518477, 1.9284861, -2.295845, -0.5647373, 0
1238, 3128774362, -0.78528094, -0.0885576, -0.39064616, 0.4721076, 2.2928345, -3.3027258, -3.1860847, 0
1239, 3128791029, -0.7841495, -0.08985662, -0.3962992, 0.46902126, 1.6919774, -1.9469614, 1.0401115, 0
1241, 3128824363, -0.78281677, -0.09188862, -0.40467986, 0.46366724, 2.8734572, -2.1755428, 0.1310072, 0
1243, 3128857697, -0.7783804, -0.09820545, -0.42015347, 0.45601463, 2.190146, -2.1211364, 0.59485626, 0
1245, 3128891031, -0.77552664, -0.102838434, -0.43202206, 0.44870734, 2.09405, -3.5052674, -1.6841145, 0
1246, 3128907698, -0.77670985, -0.102255315, -0.4321076, 0.44670704, 2.2730243, -4.345843, 1.1132679, 0
1247, 3128924365, -0.7776853, -0.10281637, -0.433085, 0.4439261, 2.5791438, -1.8731041, 3.1180239, 0
1249, 3128957699, -0.7722531, -0.11337818, -0.4511349, 0.43271965, 3.2935362, 1.4782646, -0.7166176, 0
1250, 3128974366, -0.76959914, -0.119866654, -0.45952758, 0.42682785, 0.8195019, 4.396533, -4.6742115, 0
1251, 3128991033, -0.7723539, -0.1184546, -0.45602825, 0.4259987, -3.416842, 4.474232, -6.860367, 0
1253, 3129024367, -0.7895098, -0.096222006, -0.41995063, 0.4370991, -2.1502066, -3.8413298, -1.6854897, 0
1254, 3129041034, -0.79489386, -0.08975647, -0.40684777, 0.44109058, -0.101015784, 0.010307635, 2.2883139, 0
1255, 3129057701, -0.7970776, -0.08661537, -0.40010765, 0.4439339, 1.8016928, 0.7731321, 7.1235275, 0
1258, 3129107702, -0.7916327, -0.089533314, -0.40944684, 0.4445824, -3.8812337, 0.33934212, -3.793315, 0
1260, 3129141036, -0.7956411, -0.08836127, -0.39686906, 0.4490446, -1.5229838, -1.0743724, 0.8099222, 0
1261, 3129157703, -0.79912376, -0.08779069, -0.38757756, 0.45108354, -0.05573787, 2.399278, 2.9460535, 0
1262, 3129174370, -0.80079234, -0.08763772, -0.3828169, 0.452218, 0.25647172, 4.146476, 2.090355, 0
1264, 3129207704, -0.80181235, -0.08853953, -0.3786145, 0.4537698, -1.2941254, 2.2103405, -0.7352123, 0
1265, 3129224371, -0.80161613, -0.08898027, -0.3776211, 0.45485705, -2.6232097, 2.3141267, -3.426649, 0
1266, 3129241038, -0.80162936, -0.0887285, -0.37533608, 0.45677027, -1.7523348, -0.90038234, -2.5609674, 0
1268, 3129274372, -0.8015662, -0.088011906, -0.37042302, 0.4610109, -2.1548781, 2.3414617, 0.34247017, 0
1269, 3129291039, -0.8016654, -0.08803041, -0.36817092, 0.46263558, -1.6856742, 3.6022165, 1.0767603, 0
1270, 3129307706, -0.8020766, -0.08866003, -0.3655888, 0.46384877, -1.0663658, 2.829691, 0.6575794, 0
1273, 3129357707, -0.8023552, -0.09159228, -0.36031815, 0.46691155, -1.4085422, 0.8674988, -1.0788927, 0
1274, 3129374374, -0.8024636, -0.09219782, -0.35825926, 0.46818867, -1.4700322, -0.36111915, -0.72431374, 0
1276, 3129407708, -0.8023832, -0.093890876, -0.3549774, 0.47048414, -0.41175938, 1.5435803, 1.2972317, 0
1277, 3129424375, -0.80239147, -0.09507422, -0.35357943, 0.47128415, -0.67551714, 0.92596245, 0.09365177, 0
1278, 3129441042, -0.8021915, -0.09637592, -0.352686, 0.4720291, -0.8310954, 1.3511693, -0.40299892, 0
1280, 3129474376, -0.8011346, -0.097538956, -0.35132638, 0.4745921, -0.78746676, -0.99866986, -0.43229866, 0
1281, 3129491043, -0.800202, -0.09748615, -0.35121578, 0.47625545, -0.78184986, 0.26616505, 0.122140884, 0
1282, 3129507710, -0.7991446, -0.09721537, -0.3512556, 0.47805366, -0.74475837, -0.30524802, 0.20166111, 0
1284, 3129541044, -0.79638565, -0.095791176, -0.35287955, 0.4817351, 0.016640317, 0.5743494, 0.17377853, 0
1285, 3129557711, -0.7950076, -0.09501803, -0.35429725, 0.48312157, -0.23220739, 0.32883054, -0.45931435, 0
1287, 3129591045, -0.7925855, -0.093905315, -0.3569961, 0.4853271, 0.026098266, 0.20442003, -0.7663393, 0
1288, 3129607712, -0.7914363, -0.09315009, -0.35826194, 0.48641416, -0.008095639, -0.1444125, -0.7895813, 0
1289, 3129624379, -0.790518, -0.092041925, -0.35946319, 0.48723146, 0.5395279, -0.31944555, 0.44396877, 0
1291, 3129657713, -0.7891109, -0.09009322, -0.36205494, 0.48795694, 1.4183615, 1.2059842, -0.79285145, 0
1292, 3129674380, -0.7888142, -0.089836635, -0.36281094, 0.48792258, 0.76499254, 0.35329306, 1.7081366, 0
1293, 3129691047, -0.7888847, -0.08959403, -0.36309704, 0.48764014, 0.51168174, -0.8566973, 0.32598686, 0
1295, 3129724381, -0.7891015, -0.089528546, -0.36422443, 0.48645917, 1.4733666, -0.13944286, -0.296031, 0
1296, 3129741048, -0.7894253, -0.089318156, -0.36449292, 0.485771, 0.86360556, 0.14189145, -0.081653595, 0
1297, 3129757715, -0.78962123, -0.08903831, -0.36492538, 0.4851791, 0.5701029, -0.21038397, -0.27856445, 0
1300, 3129807716, -0.79085875, -0.08874488, -0.36605385, 0.48235887, 0.5346772, -0.7680472, -0.18487453, 0
1301, 3129824383, -0.79125386, -0.08847995, -0.3662149, 0.48163643, -0.433479, 0.18802407, 0.9431753, 0
1303, 3129857717, -0.7920139, -0.08745184, -0.36646345, 0.48038465, 0.8594949, 0.052121826, -1.2861185, 0
1304, 3129874384, -0.79252976, -0.08684479, -0.36651072, 0.47960714, 0.258054, 0.032881886, -0.7234249, 0
1305, 3129891051, -0.7928677, -0.08636748, -0.36664033, 0.47903523, 0.071031526, 0.08767391, -0.5320492, 0
1307, 3129924385, -0.79374367, -0.08623218, -0.36642715, 0.47777075, -0.45598388, 0.0069872383, 0.53318596, 0
1308, 3129941052, -0.7945758, -0.086220525, -0.36578858, 0.47687796, -0.1300119, -1.1825954, 0.34396172, 0
1309, 3129957719, -0.7953319, -0.08642525, -0.3651471, 0.4760717, 0.53434616, -0.6445755, 0.03234577, 0
1311, 3129991053, -0.7966166, -0.08727445, -0.36405867, 0.4745999, 0.66185045, 0.72099763, 0.13479996, 0
1312, 3130007720, -0.79735315, -0.08790466, -0.36348084, 0.47368866, 0.21073383, 0.18263926, -0.91794777, 0
1315, 3130057721, -0.79847616, -0.089351155, -0.3621146, 0.4725717, -1.6423361, 0.5259444, 0.28059864, 0
1316, 3130074388, -0.79871404, -0.08959464, -0.36184284, 0.47233143, -0.26068294, -0.2899529, -0.30343246, 0
1318, 3130107722, -0.7987725, -0.08933616, -0.3609332, 0.4729771, 0.41290888, -0.65939784, 0.99046993, 0
1319, 3130124389, -0.7983989, -0.08897806, -0.3609941, 0.4736283, 0.012929554, 0.39069852, 0.35074615, 0
1320, 3130141056, -0.79787874, -0.08880511, -0.3614933, 0.47415632, -0.27833846, 1.617143, -1.0766764, 0
1322, 3130174390, -0.796669, -0.08893484, -0.36291486, 0.4750793, -1.076378, -0.041749984, -0.2926216, 0
1323, 3130191057, -0.79608375, -0.08901889, -0.3634853, 0.4756083, -0.6341422, 0.8253376, -0.9611845, 0
1324, 3130207724, -0.79564786, -0.088886894, -0.36373144, 0.47617397, -0.22613387, -0.665702, 1.0927877, 0
1326, 3130241058, -0.79510975, -0.08851399, -0.3640699, 0.47688276, -0.1964185, 0.35894945, -0.112389565, 0
1327, 3130257725, -0.79453284, -0.08835336, -0.364997, 0.4771655, 1.1060597, 0.5030013, -0.7774391, 0
1330, 3130307726, -0.79361457, -0.087847404, -0.36712176, 0.47715718, -0.29796714, 0.3042303, 0.27249622, 0
1331, 3130324393, -0.79347634, -0.08772556, -0.36729226, 0.4772783, 0.9178823, -1.1117004, -0.3618946, 0
1332, 3130341060, -0.7934959, -0.087565444, -0.36727196, 0.4772908, 0.7008399, -0.48081285, -0.71309566, 0
1334, 3130374394, -0.7937313, -0.08720955, -0.36698616, 0.47718424, -0.42905727, -0.041046645, 0.013669014, 0
1335, 3130391061, -0.7935197, -0.087040186, -0.36731943, 0.47731075, -0.48061633, 1.3841487, 0.8281975, 0
1336, 3130407728, -0.7933381, -0.086772814, -0.36775813, 0.47732314, 0.27093413, 1.1299858, 1.2760553, 0
1338, 3130441062, -0.7931454, -0.0855432, -0.36873186, 0.4771143, 0.95590794, -0.7825344, -0.6912565, 0
1339, 3130457729, -0.79275465, -0.084490955, -0.36966515, 0.477229, 0.70628303, -0.26876053, -1.9422631, 0
1341, 3130491063, -0.7922288, -0.08325551, -0.37117022, 0.4771513, -0.46477017, 0.9155242, 0.15382195, 0
1342, 3130507730, -0.7923734, -0.08293666, -0.37136218, 0.47681716, -0.39575046, 0.7910704, 0.65985394, 0
1345, 3130557731, -0.79311776, -0.0823787, -0.37165073, 0.4754494, 0.83176255, 0.23085971, -0.574358, 0
1346, 3130574398, -0.7933283, -0.08214444, -0.37164044, 0.47514695, 0.18680789, -0.6478215, 0.107881546, 0
1347, 3130591065, -0.7935739, -0.081770375, -0.37158328, 0.47484562, 0.02926075, -0.4819744, 5.168915E-4, 0
1349, 3130624399, -0.7942351, -0.08107629, -0.37163484, 0.47381797, 0.20441422, 0.16544636, -0.068873405, 0
1350, 3130641066, -0.7946957, -0.08136319, -0.37142986, 0.47315678, 0.28873292, 1.098657, 0.34386635, 0
1351, 3130657733, -0.7953548, -0.081780575, -0.37083337, 0.47244483, -0.08947536, 0.3417559, 0.6559801, 0
1353, 3130691067, -0.7965259, -0.083064854, -0.37015462, 0.47077686, 0.034461003, 0.34245542, -0.068491936, 0
1354, 3130707734, -0.79712665, -0.08357881, -0.36950347, 0.4701804, 0.22936118, -1.0151534, 0.09166622, 0
1355, 3130724401, -0.79760677, -0.08429385, -0.36922514, 0.46945637, 0.053218212, -0.26822743, -0.5092888, 0
1357, 3130757735, -0.79875094, -0.085843496, -0.368197, 0.4680356, 1.0023048, 0.104474425, -0.48386002, 0
1358, 3130774402, -0.799426, -0.086524904, -0.36732757, 0.46744046, -0.5894924, -0.5741324, 0.51426315, 0
1359, 3130791069, -0.8000366, -0.08679583, -0.3662674, 0.46717748, -0.38724157, -1.2345804, 0.91223717, 0
1361, 3130824403, -0.80095303, -0.08765909, -0.36506373, 0.4663875, 0.39480904, 1.0673676, -0.37809944, 0
1362, 3130841070, -0.8013364, -0.08797154, -0.3646605, 0.46598527, 0.27806643, -0.3304729, -0.16186142, 0
1363, 3130857737, -0.80158216, -0.08819796, -0.36432487, 0.4657822, 0.42918935, -0.57170767, -0.052466393, 0
1365, 3130891071, -0.80202496, -0.08839557, -0.36390758, 0.46530855, -0.5110753, -0.9382247, 1.1301298, 0
1366, 3130907738, -0.8019778, -0.08846639, -0.36423358, 0.46512127, -0.2451166, -0.99388826, -0.44366646, 0
1368, 3130941072, -0.80162984, -0.08803178, -0.36557928, 0.46474764, 2.0471423, -1.4864848, -0.18036747, 0
1369, 3130957739, -0.80157906, -0.088390164, -0.36658663, 0.46397305, 0.60523754, -2.0152457, -0.7515869, 0
1372, 3131007740, -0.80118686, -0.08963468, -0.36932006, 0.46224064, 0.95962965, -1.2753061, 0.2890768, 0
1373, 3131024407, -0.8009413, -0.09102037, -0.3717267, 0.46046293, 1.5765781, -0.77743983, 0.63864136, 0
1374, 3131041074, -0.80069745, -0.09250587, -0.3754698, 0.45754504, 2.0747857, -2.4231334, -0.6921358, 0
1376, 3131074408, -0.79853934, -0.09630812, -0.3862364, 0.45153046, 1.9369977, -2.3482547, -2.6134334, 0
1377, 3131091075, -0.7992942, -0.09686636, -0.38663322, 0.4497322, 0.85189617, -2.5408015, -1.3206291, 0
1378, 3131107742, -0.8009269, -0.097131275, -0.38535058, 0.44786733, 1.2210356, -1.9603497, -2.5390658, 0
1380, 3131141076, -0.8031913, -0.09604772, -0.3850601, 0.44428113, 6.3571615, -0.7165822, 1.5962276, 0
1381, 3131157743, -0.8012699, -0.09746926, -0.39238176, 0.44102302, 3.331071, 3.9603848, 0.77286434, 0
1382, 3131174410, -0.8015779, -0.09775138, -0.39433876, 0.43864903, 0.17906561, 3.486546, -0.011749268, 0
1384, 3131207744, -0.8088958, -0.09458276, -0.3810007, 0.4376969, -4.0514593, 0.33692572, -1.6311245, 0
1386, 3131241078, -0.8124562, -0.08840356, -0.37283936, 0.4394192, 1.9201379, 0.7225776, 5.5853405, 0
1388, 3131274412, -0.81192106, -0.0872998, -0.37412947, 0.43953258, -1.993462, 4.1733594, 0.8319664, 0
1389, 3131291079, -0.8118116, -0.08836926, -0.37437716, 0.43930945, -5.2622414, 0.489816, -1.7509718, 0
1390, 3131307746, -0.8123103, -0.08927248, -0.3730859, 0.43930364, -6.335135, 0.68619037, -1.5399094, 0
1392, 3131341080, -0.81380326, -0.09077458, -0.3683642, 0.4402166, -0.07848434, 2.2173445, 2.0276833, 0
1393, 3131357747, -0.8144239, -0.09177017, -0.36632058, 0.44056764, 0.9949098, 2.9348092, -0.03616047, 0
1394, 3131374414, -0.8149162, -0.09292761, -0.36431208, 0.4410798, -1.2267613, 2.8841934, 0.6488266, 0
1396, 3131407748, -0.81466097, -0.09475772, -0.3612712, 0.4436557, -4.463869, 1.5019786, -1.2018881, 0
1397, 3131424415, -0.81432176, -0.09547221, -0.36000398, 0.44515267, -2.74972, 1.1135272, -0.9862213, 0
1399, 3131457749, -0.8133128, -0.09713158, -0.3577432, 0.4484482, -1.507444, 1.6676985, -0.24527168, 0
1401, 3131491083, -0.8118451, -0.098825336, -0.35578725, 0.45227742, -1.8107837, 0.2629054, -0.9400034, 0
1403, 3131524417, -0.8102192, -0.100113906, -0.35385314, 0.45640832, -1.7770983, -0.069885574, -0.018749237, 0
1404, 3131541084, -0.8092159, -0.100313574, -0.35275206, 0.45898968, -1.0187901, -0.8626033, 0.02116108, 0
1405, 3131557751, -0.80809575, -0.10063946, -0.35217735, 0.46132725, -0.64770746, -0.07345066, 0.30282116, 0
1407, 3131591085, -0.8056951, -0.10061184, -0.3516791, 0.46588957, 0.17108017, -2.403165, 0.8757038, 0
1408, 3131607752, -0.8043298, -0.10046667, -0.3519493, 0.46807098, 0.6329961, -1.0772151, -1.2522364, 0
1409, 3131624419, -0.80283403, -0.10029468, -0.3524629, 0.47028416, -0.26810983, -0.8460827, -0.24659538, 0
1411, 3131657753, -0.79992324, -0.09772111, -0.3538855, 0.47469664, 0.37347406, -0.57842386, 0.48150158, 0
1412, 3131674420, -0.7982674, -0.09598399, -0.35565883, 0.4765097, 1.3691702, -0.7787451, -0.47991467, 0
1413, 3131691087, -0.7967171, -0.09442748, -0.35758048, 0.47797507, 1.6874355, 0.8100941, 0.84124947, 0
1416, 3131741088, -0.7942616, -0.09187618, -0.36135805, 0.47971496, 0.7418811, -0.598105, -0.8148184, 0
1417, 3131757755, -0.79402655, -0.09151048, -0.3618156, 0.47982875, 1.1521534, -0.27880767, -0.7463684, 0
1419, 3131791089, -0.79412425, -0.08988955, -0.36187607, 0.47992793, 1.5316856, 0.084091775, 0.38568497, 0
1420, 3131807756, -0.7942304, -0.08875851, -0.36177808, 0.48003662, 0.8939796, 0.4431786, 0.12304306, 0
1422, 3131841090, -0.793912, -0.08628733, -0.36267918, 0.4803338, -0.27870166, 1.2893645, -0.078455925, 0
1423, 3131857757, -0.7939096, -0.08520907, -0.3629788, 0.48030403, -0.55727524, 0.24060526, 0.49860096, 0
1424, 3131874424, -0.7939173, -0.084230214, -0.36346444, 0.48009664, -0.18310092, 0.50441855, -0.7002287, 0
1426, 3131907758, -0.79378265, -0.08275688, -0.36439642, 0.47986874, 0.7504977, 0.3660736, -1.0338755, 0
1427, 3131924425, -0.79398197, -0.0824277, -0.36477816, 0.47930557, -0.591766, 1.5916831, 0.29431152, 0
1428, 3131941092, -0.79423577, -0.08230546, -0.36501044, 0.478729, -0.73778856, 0.39053133, 0.6653023, 0
1430, 3131974426, -0.7946502, -0.08200194, -0.36547557, 0.47773734, 0.77426946, 1.1329483, -0.3432312, 0
1431, 3131991093, -0.7949149, -0.081813924, -0.36574057, 0.47712573, 0.9215542, 0.6938796, -0.06773186, 0
1432, 3132007760, -0.79525876, -0.08175224, -0.3659176, 0.4764273, 1.0013239, -0.5195723, -0.94539165, 0
1434, 3132041094, -0.7961376, -0.08221837, -0.36577082, 0.47498986, -0.28139678, 0.14324705, -0.9227781, 0
1435, 3132057761, -0.79654574, -0.08270468, -0.36564252, 0.4743198, -0.5792298, -0.3059166, 0.9281492, 0
1436, 3132074428, -0.79713935, -0.08316519, -0.36529583, 0.47350794, 0.37694877, -0.3413666, 0.048591614, 0
1438, 3132107762, -0.79798114, -0.083397225, -0.36483982, 0.47239983, 1.1270057, -0.5309296, 1.2944517, 0
1439, 3132124429, -0.7982829, -0.0830604, -0.36451268, 0.4722015, 0.7513417, -1.6987174, -0.40797997, 0
1440, 3132141096, -0.7982398, -0.082635626, -0.36482745, 0.47210592, -0.43021104, -0.09298013, -0.85040855, 0
1443, 3132191097, -0.7977222, -0.0823719, -0.36683637, 0.47146982, -0.8516945, -0.7734777, 0.8132744, 0
1444, 3132207764, -0.797444, -0.08204574, -0.36755252, 0.47143945, -0.13085365, 0.48075038, 0.07843685, 0
1446, 3132241098, -0.79758984, -0.08214242, -0.36791047, 0.47089633, -0.18345161, 0.4822492, -0.06497669, 0
1447, 3132257765, -0.79766876, -0.081911854, -0.36777052, 0.47091225, 0.19269365, -0.5676418, -0.08800411, 0
1449, 3132291099, -0.7980234, -0.08226106, -0.36756006, 0.4704145, 0.2950722, 0.73057336, -0.10827446, 0
1450, 3132307766, -0.7985334, -0.08236759, -0.36700264, 0.46996564, -0.34277076, 0.20237534, 0.25857544, 0
1451, 3132324433, -0.7989263, -0.08264639, -0.3665781, 0.46958008, 0.27005863, -0.026178563, -0.27569485, 0
1453, 3132357767, -0.79979485, -0.08327723, -0.36566785, 0.46869907, -0.37809965, 0.7865759, -0.671237, 0
1454, 3132374434, -0.7999737, -0.08345862, -0.36582166, 0.46824124, 0.06596448, 0.124353945, -0.78959274, 0
1455, 3132391101, -0.80006576, -0.08378291, -0.36613274, 0.46778238, -0.12515183, 0.7864487, 0.3344803, 0
1458, 3132441102, -0.8004247, -0.08356639, -0.36598724, 0.46732068, 0.55056715, -0.21273214, -0.609848, 0
1459, 3132457769, -0.80063295, -0.08354906, -0.36567307, 0.46721315, -0.42930514, 0.008723711, -0.18677998, 0
1461, 3132491103, -0.80047786, -0.08299276, -0.3656764, 0.46757534, -0.30591056, 0.29502782, -0.5274658, 0
1462, 3132507770, -0.8006189, -0.08301381, -0.36571085, 0.46730316, 0.48079446, 1.146825, -0.91302395, 0
1463, 3132524437, -0.8006896, -0.08320988, -0.36598977, 0.46692857, -0.3706073, 1.5648471, 0.53025055, 0
1465, 3132557771, -0.80079097, -0.08315764, -0.36620665, 0.46659386, 0.061991096, 0.33962074, -0.65171623, 0
1466, 3132574438, -0.80114603, -0.08362264, -0.36617073, 0.46592903, -0.10279674, 1.1582739, 0.50203323, 0
1467, 3132591105, -0.80183387, -0.08423361, -0.36559469, 0.46508723, 0.19930606, 0.3620355, 0.14046192, 0
1469, 3132624439, -0.80269134, -0.08514816, -0.3645856, 0.46423325, 0.91004896, 0.45525917, -1.1366119, 0
1470, 3132641106, -0.8032686, -0.08597584, -0.3641316, 0.46343762, 0.21048707, 2.0278792, 0.1130209, 0
1473, 3132691107, -0.80448425, -0.0872585, -0.36245513, 0.46240214, -0.08691435, -0.2575136, -0.101023674, 0
1474, 3132707774, -0.80470943, -0.0876233, -0.3620558, 0.4622542, 0.19915786, -0.61150676, 0.08796406, 0
1476, 3132741108, -0.8050849, -0.08757019, -0.36121634, 0.46226716, -0.6184863, -0.30980134, 0.5068693, 0
1477, 3132757775, -0.8048124, -0.08768355, -0.36140677, 0.46257135, -0.114760935, 0.45422995, -0.8409643, 0
1478, 3132774442, -0.8044879, -0.08776135, -0.36157802, 0.46298727, -0.2845463, 0.2120349, 0.051979065, 0
1480, 3132807776, -0.803969, -0.08699239, -0.36171126, 0.46392867, -0.36243564, -1.1986554, -0.15748215, 0
1481, 3132824443, -0.80331665, -0.08636772, -0.36220983, 0.4647858, -0.15608715, -1.1339474, -0.47816467, 0
1482, 3132841110, -0.802498, -0.08542676, -0.362913, 0.465824, -0.4053727, 0.61357105, -0.64537907, 0
1484, 3132874444, -0.80091554, -0.08368116, -0.3652402, 0.46704397, -0.5244633, 0.37056106, -0.2821808, 0
1485, 3132891111, -0.79991925, -0.082517415, -0.36658183, 0.46790648, 0.13250987, 0.25972053, 0.360734, 0
1488, 3132941112, -0.79757893, -0.07956279, -0.3703393, 0.46945208, 0.28030246, 0.9769577, -0.45351315, 0
1489, 3132957779, -0.7971711, -0.07884189, -0.37108868, 0.4696742, -0.3234219, 1.5728298, -0.21748924, 0
1490, 3132974446, -0.7969757, -0.07835297, -0.37134722, 0.46988353, 0.3245681, 0.90291625, 0.39863968, 0
1492, 3133007780, -0.7974935, -0.07888457, -0.37137944, 0.4688892, -0.6591236, 2.45742, 1.0515413, 0
1493, 3133024447, -0.79786867, -0.07903913, -0.37131965, 0.4682719, 0.4150707, 0.8863052, 0.6768522, 0
1494, 3133041114, -0.79815596, -0.07946345, -0.37139815, 0.46764794, 0.8092376, 0.5163251, -0.9799738, 0
1496, 3133074448, -0.7992025, -0.08016643, -0.3708722, 0.46615553, 0.16429007, -0.51797485, 0.42051125, 0
1497, 3133091115, -0.79956836, -0.08043072, -0.37095365, 0.46541733, -0.26279268, -0.59235805, -0.45529938, 0
1498, 3133107782, -0.80007714, -0.08081282, -0.37077838, 0.46461588, 0.18176207, -0.023376605, -0.2954769, 0
1500, 3133141116, -0.80140257, -0.08168507, -0.37011293, 0.4627057, 0.39613068, -2.7516937, 0.50726223, 0
1501, 3133157783, -0.8017738, -0.08174614, -0.37017825, 0.46199912, 0.25278914, -1.4804336, 0.1444912, 0
1503, 3133191117, -0.8018605, -0.08265622, -0.3718506, 0.4603406, 0.6139622, 0.009595355, -0.7614994, 0
1504, 3133207784, -0.80196065, -0.08304473, -0.3726686, 0.4594336, 0.076485015, -1.543966, 0.18313122, 0
1505, 3133224451, -0.80192167, -0.083179526, -0.37359652, 0.45872307, 0.21174678, -3.6396875, 0.3432169, 0
1507, 3133257785, -0.8015888, -0.08418787, -0.37627292, 0.45692983, 1.5382321, -1.8565257, -0.29753685, 0
1508, 3133274452, -0.8014255, -0.08465503, -0.37750244, 0.45611507, 0.6553422, -1.758399, -0.14797592, 0
1509, 3133291119, -0.8013114, -0.08487317, -0.3785664, 0.45539254, 0.6889789, -1.4109612, 1.3043966, 0
1511, 3133324453, -0.80036503, -0.086537115, -0.38372415, 0.4524173, 0.68686897, -0.45731053, -0.5600996, 0
1512, 3133341120, -0.7993076, -0.08743966, -0.3879894, 0.45047176, 2.3147266, -3.1247356, -2.3569531, 0
1515, 3133391121, -0.8027607, -0.08475795, -0.3834764, 0.4487046, 2.1408286, -3.568142, -1.4782639, 0
1516, 3133407788, -0.8035045, -0.0842508, -0.38285768, 0.44799638, 1.8612993, -0.3847618, 6.238207, 0
1517, 3133424455, -0.80323553, -0.08514462, -0.38530084, 0.44621187, 3.0597568, 0.056759104, 7.7228565, 0
1519, 3133457789, -0.79526466, -0.09353655, -0.41012326, 0.43658027, 4.842811, -2.5601614, -6.365091, 0
1520, 3133474456, -0.7939369, -0.094916046, -0.41501597, 0.43406844, 0.07777022, 2.7900271, -1.9601164, 0
1521, 3133491123, -0.7998041, -0.08968896, -0.40359667, 0.4351755, -2.8351843, -1.2619634, 0.9336376, 0
1523, 3133524457, -0.8100095, -0.08179725, -0.38202295, 0.4373228, -0.44365466, 3.4300654, 2.1150656, 0
1524, 3133541124, -0.81016576, -0.07825414, -0.3812257, 0.43837547, 3.7350903, 5.506429, 4.3744936, 0
1525, 3133557791, -0.8094967, -0.07652557, -0.38330385, 0.43810427, 2.437802, 7.5405474, 1.2617292, 0
1527, 3133591125, -0.8069427, -0.07303657, -0.38722435, 0.43996015, -2.6525044, -5.511629, -3.0786605, 0
1530, 3133641126, -0.80833226, -0.06926477, -0.383492, 0.44128647, -0.45380774, 5.6423225, 3.0610018, 0
1531, 3133657793, -0.8093536, -0.068805784, -0.38169366, 0.44104543, 0.123047456, 5.3882723, 1.7003632, 0
1532, 3133674460, -0.80993164, -0.069139995, -0.380264, 0.44116697, -1.6236296, 4.3136573, 0.5472851, 0
1534, 3133707794, -0.8115408, -0.06993126, -0.37662604, 0.44120577, -3.3451416, 1.932636, -2.49331, 0
1535, 3133724461, -0.8125898, -0.0704753, -0.3746313, 0.44088647, -2.0578592, 3.5856435, -0.81017876, 0
1536, 3133741128, -0.813556, -0.07144919, -0.372448, 0.44079792, -0.67667276, 2.3220522, 0.42642117, 0
1538, 3133774462, -0.8154037, -0.07375198, -0.36821216, 0.44056296, -1.7240028, 2.7158685, -1.0568581, 0
1539, 3133791129, -0.81623363, -0.07520864, -0.36659065, 0.44013196, -2.175612, 1.8234377, -0.80226326, 0
1540, 3133807796, -0.8169569, -0.0763915, -0.3647492, 0.44011664, -1.3029705, 0.6501791, -1.0005741, 0
1542, 3133841130, -0.8175982, -0.07908212, -0.3620796, 0.44065425, -0.6272328, 0.06290465, 0.032019615, 0
1544, 3133874464, -0.8176968, -0.08123658, -0.36065552, 0.44124675, -0.411313, 0.5900155, -0.24212837, 0
1546, 3133907798, -0.81755817, -0.08351989, -0.35925752, 0.44221666, 0.29128835, -0.4746896, -0.7216854, 0
1547, 3133924465, -0.81745684, -0.08466538, -0.3586942, 0.44264355, -1.5005627, 0.03862762, 0.22199154, 0
1548, 3133941132, -0.8172461, -0.08545364, -0.3581043, 0.44335794, -1.063075, -1.2728038, 0.8418217, 0
1550, 3133974466, -0.8164399, -0.08678864, -0.35801157, 0.4446571, 0.5284863, -0.049889937, 0.09667015, 0
1551, 3133991133, -0.8161965, -0.08705926, -0.35774022, 0.44526887, 1.3956878, -1.760577, -0.14632607, 0
1552, 3134007800, -0.8155947, -0.08720832, -0.35813746, 0.44602275, -0.17722812, -0.8138345, -0.500865, 0
1554, 3134041134, -0.81438285, -0.08717048, -0.35903808, 0.4475178, -0.21452036, 0.74541736, 0.68421745, 0
1555, 3134057801, -0.8138843, -0.087027214, -0.3594726, 0.4481033, -0.25750056, -1.2881393, -0.067007065, 0
1557, 3134091135, -0.8125745, -0.08680619, -0.36087295, 0.44939587, 0.8283064, 0.13534531, -0.17225456, 0
1559, 3134124469, -0.81153363, -0.086770415, -0.3622992, 0.45013556, 0.6005127, -0.10251975, -0.34372902, 0
1561, 3134157803, -0.81043017, -0.08627838, -0.36360747, 0.45116183, -0.22919935, -0.5315318, -0.13171291, 0
1562, 3134174470, -0.8100292, -0.086051255, -0.36390105, 0.45168823, 0.15355384, -0.5108496, 0.04018879, 0
1563, 3134191137, -0.8098672, -0.0864184, -0.36391833, 0.45189497, -0.67627734, 0.029323112, -0.47936344, 0
1565, 3134224471, -0.8099841, -0.08721926, -0.3632003, 0.4521092, 0.7335769, -0.41343465, -0.72486687, 0
1566, 3134241138, -0.8101389, -0.08786836, -0.36280563, 0.45202315, 0.15797314, 0.7565668, -0.51185703, 0
1567, 3134257805, -0.81033283, -0.08865541, -0.36243907, 0.4518156, 0.2098295, -0.47643268, -0.09302139, 0
1569, 3134291139, -0.81064224, -0.08984256, -0.36180407, 0.45153505, -0.10329472, -0.37088192, -0.3751335, 0
1570, 3134307806, -0.8105571, -0.09028578, -0.36188188, 0.45153707, -0.010208507, 0.47491893, 0.27649307, 0
1571, 3134324473, -0.81047183, -0.0907573, -0.36210614, 0.4514159, -0.008169846, 0.11021402, -0.006374359, 0
1573, 3134357807, -0.8104043, -0.091380015, -0.36248195, 0.45110974, -0.22128186, 0.12805666, -0.027017593, 0
1574, 3134374474, -0.8102927, -0.09143322, -0.36251447, 0.4512731, 0.10110027, -0.5946002, 0.605484, 0
1575, 3134391141, -0.81008726, -0.09171358, -0.36281934, 0.45134026, 0.2611056, 0.12706454, -0.5585604, 0
1577, 3134424475, -0.80978674, -0.09144395, -0.3631794, 0.4516445, 0.86222357, -0.34803522, 0.19238377, 0
1578, 3134441142, -0.80942404, -0.09143311, -0.36376712, 0.451824, -0.3099908, 0.2058917, -0.52316093, 0
1579, 3134457809, -0.80915684, -0.091156855, -0.36397195, 0.45219296, -0.18353632, 0.05626659, 0.84551907, 0
1581, 3134491143, -0.8088486, -0.09089183, -0.36401254, 0.4527648, -0.18987516, -1.0544518, -0.6381216, 0
1582, 3134507810, -0.80891454, -0.09131393, -0.3638554, 0.4526885, -0.2731438, 0.77926916, -1.2224865, 0
1584, 3134541144, -0.8089502, -0.092448756, -0.36338955, 0.4527687, -0.10119482, -0.30166447, -0.14231777, 0
1586, 3134574478, -0.80912346, -0.09305573, -0.36253604, 0.45301855, 0.9068772, -1.2664208, -0.4614277, 0
1588, 3134607812, -0.80910665, -0.09343528, -0.36158133, 0.45373306, -0.7025269, -0.42500162, -0.5061903, 0
1589, 3134624479, -0.8089509, -0.09356187, -0.3612892, 0.45421723, -0.39338705, 0.37701797, -0.5230522, 0
1590, 3134641146, -0.80874527, -0.09378191, -0.36107814, 0.4547057, -0.7165052, 0.40268826, -0.3790512, 0
1592, 3134674480, -0.8079205, -0.09375545, -0.36101177, 0.4562274, -1.3830799, 0.076757364, 0.6272907, 0
1593, 3134691147, -0.80731744, -0.093359664, -0.36132953, 0.45712376, -0.17957187, -0.7346154, -0.3572693, 0
1594, 3134707814, -0.80654454, -0.09284046, -0.3622472, 0.45786685, -0.34579957, 1.437674, -0.901392, 0
1596, 3134741148, -0.80448806, -0.09105895, -0.3643331, 0.46018177, -0.16836157, 0.8713826, 0.76655865, 0
1597, 3134757815, -0.8035168, -0.09031311, -0.36533493, 0.46123034, -0.79866254, 1.2940906, 0.66197395, 0
1598, 3134774482, -0.80259126, -0.08980767, -0.36633787, 0.4621441, -0.68070626, 0.34875178, -0.05230999, 0
1601, 3134824483, -0.80034167, -0.08917672, -0.3685204, 0.4644265, -0.5225087, 0.7360078, -0.42867374, 0
1602, 3134841150, -0.79986715, -0.08896493, -0.3688997, 0.46498337, -0.30653483, -0.020610353, -0.086195946, 0
1604, 3134874484, -0.79921365, -0.08893165, -0.36968476, 0.46548945, 0.12534294, 0.7976971, 0.56851006, 0
1605, 3134891151, -0.799185, -0.08867826, -0.36945564, 0.46576887, 0.6077266, -0.31096295, 1.1408253, 0
1606, 3134907818, -0.798992, -0.08845499, -0.36976305, 0.46589863, 0.362304, -0.10821581, -1.098299, 0
1608, 3134941152, -0.7989497, -0.08844953, -0.37038356, 0.4654791, 0.3532316, 0.55021304, -0.20862293, 0
1609, 3134957819, -0.7988619, -0.08821629, -0.37068632, 0.4654328, -0.69484925, -0.19297667, -0.14414406, 0
1611, 3134991153, -0.79889154, -0.08804946, -0.37111259, 0.46507365, 1.231118, 1.2972294, -0.5897217, 0
1612, 3135007820, -0.7994609, -0.08849107, -0.3704743, 0.46452, -0.24382871, 0.23732165, 1.1810284, 0
1613, 3135024487, -0.7996213, -0.08869243, -0.3702938, 0.46434966, -1.0182238, 0.5791092, 0.3814497, 0
1616, 3135074488, -0.8001697, -0.089191176, -0.37076074, 0.46293473, -0.23394811, 1.6539736, -0.85269165, 0
1617, 3135091155, -0.80013424, -0.08912155, -0.37112486, 0.4627171, -0.30091995, -0.27473322, 0.17103195, 0
1619, 3135124489, -0.80078834, -0.08930501, -0.3706771, 0.46190882, -0.27466145, 0.82557535, 0.20254707, 0
1620, 3135141156, -0.80132794, -0.0899319, -0.37018698, 0.461244, -1.1033674, -0.39905858, 0.08609295, 0
1621, 3135157823, -0.8018433, -0.09060589, -0.36957696, 0.46070537, -0.97069174, 1.3131306, 0.7876978, 0
1623, 3135191157, -0.8031484, -0.0926234, -0.36826485, 0.4590786, 0.060568433, 0.94704163, -0.35342693, 0
1624, 3135207824, -0.8037884, -0.093611084, -0.36794052, 0.45801687, 0.013181006, 0.28505787, -0.9884777, 0
1625, 3135224491, -0.8043705, -0.094828665, -0.36771908, 0.45692113, 0.37869868, -0.6004789, -0.8576565, 0
1627, 3135257825, -0.80561686, -0.09798198, -0.3667607, 0.4548254, -0.34732482, -1.0341164, 0.80748844, 0
1628, 3135274492, -0.8062029, -0.09950126, -0.36633885, 0.4537963, 0.2517006, -1.2664396, -0.6956606, 0
1631, 3135324493, -0.80762434, -0.10213055, -0.36427277, 0.45234537, 1.6014451, -2.1304328, 0.92758846, 0
1632, 3135341160, -0.80782574, -0.102078155, -0.36354145, 0.4525857, 0.53779405, -2.3055491, -0.05889225, 0
1633, 3135357827, -0.80751383, -0.102670826, -0.36403975, 0.45260787, 0.17918453, -0.11505357, -2.0776248, 0
1635, 3135391161, -0.8066117, -0.10439606, -0.36546934, 0.45266947, -1.0993013, -2.3534114, 0.3863325, 0
1636, 3135407828, -0.8057093, -0.10525072, -0.36709842, 0.45276058, -0.69176614, -1.3547912, -0.16696835, 0
1638, 3135441162, -0.8045082, -0.10697502, -0.36980098, 0.45229277, 1.7173734, -3.5130897, -0.5388613, 0
1639, 3135457829, -0.8036142, -0.10853503, -0.3718874, 0.45179942, 0.4568817, -2.0633242, 0.45169067, 0
1640, 3135474496, -0.8021218, -0.10999434, -0.37524205, 0.4513247, 1.0201067, -2.5413074, -1.7815266, 0
1642, 3135507830, -0.8005231, -0.11228772, -0.37858897, 0.45080304, 0.39784142, -4.420901, -0.3848467, 0
1643, 3135524497, -0.7983223, -0.11451918, -0.38386202, 0.44968373, 0.25160897, -2.2082438, -1.2651615, 0
