sep=,
DeviceTag:,Xsens_DOT_4,,,,,,,,,,,,,,,,,
FirmwareVersion:,3.0.0,,,,,,,,,,,,,,,,,
AppVersion:,2023.6.1,,,,,,,,,,,,,,,,,
SyncStatus:,Synced,,,,,,,,,,,,,,,,,
OutputRate:,60Hz,,,,,,,,,,,,,,,,,
FilterProfile:,General,,,,,,,,,,,,,,,,,
Measurement Mode:,Sensor fusion Mode - Extended (Quaternion),,,,,,,,,,,,,,,,,
StartTime:,2025-05-05 11:58:35.170 +0200,,,,,,,,,,,,,,,,,
 2025,,,,,,,,,,,,,,,,,,,

PacketCounter,SampleTimeFine,Quat_W,Quat_X,Quat_Y,Quat_Z,FreeAcc_X,FreeAcc_Y,FreeAcc_Z,Status
1, 3108157283, -0.024752408, 0.6832138, 0.12624513, 0.7188011, 0.69830984, 0.81801885, 0.002128601, 0
2, 3108173950, -0.024704278, 0.6830839, 0.12627663, 0.7189205, 0.72605866, 0.8083802, 0.016251564, 0
3, 3108190617, -0.024646476, 0.6829432, 0.12631314, 0.7190498, 0.7323659, 0.8140787, 0.052912712, 0
4, 3108207284, -0.024577484, 0.68280745, 0.12635979, 0.7191729, 0.7211966, 0.82417166, 0.034464836, 0
5, 3108223951, -0.024501562, 0.6826576, 0.12640199, 0.71931034, 0.67433167, 0.8197507, 0.030140877, 0
6, 3108240618, -0.024425864, 0.6825024, 0.12644887, 0.71945184, 0.70290565, 0.7982679, -0.00814724, 0
7, 3108257285, -0.02435261, 0.68235314, 0.12649935, 0.7195871, 0.6985545, 0.78385794, -0.026597023, 0
8, 3108273952, -0.024281576, 0.6822116, 0.12655681, 0.7197135, 0.70412046, 0.7926802, -0.0035076141, 0
9, 3108290619, -0.024206057, 0.68208045, 0.12660658, 0.71983165, 0.688385, 0.78946453, 0.022654533, 0
10, 3108307286, -0.024132982, 0.6819485, 0.12665766, 0.7199501, 0.71491575, 0.7755059, 0.021518707, 0
11, 3108323953, -0.024050757, 0.68181425, 0.1267026, 0.7200721, 0.7118111, 0.7832407, 0.039578438, 0
12, 3108340620, -0.023978874, 0.6816867, 0.12674215, 0.7201882, 0.7226516, 0.7841952, 0.056518555, 0
13, 3108357287, -0.02392067, 0.6815502, 0.12677082, 0.72031444, 0.6861467, 0.7762831, 0.029928207, 0
14, 3108373954, -0.023860753, 0.6814296, 0.12679216, 0.7204266, 0.69161576, 0.77616817, 0.021406174, 0
15, 3108390621, -0.02382563, 0.6813015, 0.12680215, 0.72054726, 0.6668621, 0.7474205, 0.02894497, 0
16, 3108407288, -0.023795485, 0.6811745, 0.12681434, 0.72066605, 0.67218953, 0.75478196, 0.0218153, 0
17, 3108423955, -0.023770943, 0.68104887, 0.12682611, 0.72078353, 0.6840144, 0.7433488, 0.0012207031, 0
18, 3108440622, -0.023757488, 0.6809204, 0.12682882, 0.72090495, 0.65508235, 0.7466969, -0.013841629, 0
19, 3108457289, -0.023756921, 0.6808049, 0.12681095, 0.7210172, 0.65916586, 0.73717856, -0.005419731, 0
20, 3108473956, -0.023777142, 0.68069357, 0.12676936, 0.72112894, 0.6658657, 0.73291576, 0.024784088, 0
21, 3108490623, -0.023811907, 0.6805736, 0.12671569, 0.72125036, 0.672028, 0.716701, 0.054603577, 0
22, 3108507290, -0.023865968, 0.68046343, 0.12665966, 0.7213623, 0.6711451, 0.71678406, 0.067798615, 0
23, 3108523957, -0.023913309, 0.68034893, 0.12659717, 0.7214798, 0.7026681, 0.727401, 0.036138535, 0
24, 3108540624, -0.023974732, 0.680233, 0.12652318, 0.72160006, 0.6580437, 0.74546206, 0.015068054, 0
25, 3108557291, -0.024043486, 0.68012804, 0.12644748, 0.72170997, 0.61973095, 0.7439049, 0.0074920654, 0
26, 3108573958, -0.024123996, 0.68002135, 0.12637396, 0.72182065, 0.60735893, 0.7482333, 0.0074157715, 0
27, 3108590625, -0.024199083, 0.67991966, 0.12629834, 0.72192717, 0.61400354, 0.7523673, 0.012848854, 0
28, 3108607292, -0.024268463, 0.67982304, 0.12622707, 0.72202826, 0.6441694, 0.7378881, 0.03467369, 0
29, 3108623959, -0.024322629, 0.6797228, 0.12616158, 0.72213227, 0.62917924, 0.73718405, 0.053926468, 0
30, 3108640626, -0.024374858, 0.6796143, 0.12611248, 0.7222412, 0.63890326, 0.7572592, 0.050723076, 0
31, 3108657293, -0.024402723, 0.67950255, 0.12607372, 0.7223522, 0.6414241, 0.7657316, 0.041794777, 0
32, 3108673960, -0.024426207, 0.67939186, 0.12605573, 0.7224586, 0.6079041, 0.80026555, 0.060352325, 0
33, 3108690627, -0.02445139, 0.6792839, 0.1260142, 0.7225666, 0.6046278, 0.81196034, -0.034996033, 0
34, 3108707294, -0.024475574, 0.67918324, 0.12597427, 0.72266734, 0.62680215, 0.7710726, -0.03357315, 0
35, 3108723961, -0.024505883, 0.6790776, 0.12593386, 0.7227726, 0.65957165, 0.7242195, 0.025547028, 0
36, 3108740628, -0.0245208, 0.678973, 0.12588847, 0.7228783, 0.67817485, 0.744747, 0.087379456, 0
37, 3108757295, -0.024531215, 0.67886466, 0.1258547, 0.7229855, 0.63498425, 0.74688405, 0.10809326, 0
38, 3108773962, -0.0245274, 0.67873657, 0.12583743, 0.723109, 0.6180898, 0.75920725, 0.07740021, 0
39, 3108790629, -0.02453047, 0.6786236, 0.12581965, 0.7232179, 0.5473369, 0.75062555, 0.0029745102, 0
40, 3108807296, -0.02452214, 0.67851806, 0.12580267, 0.72332007, 0.5348278, 0.74230003, -0.035154343, 0
41, 3108823963, -0.024510726, 0.678412, 0.12577948, 0.723424, 0.52589095, 0.70484114, -0.043852806, 0
42, 3108840630, -0.024490923, 0.6783061, 0.12575386, 0.7235285, 0.5787272, 0.67757094, 0.010665894, 0
43, 3108857297, -0.024468526, 0.67819214, 0.1257619, 0.72363466, 0.5872538, 0.70000345, 0.06197834, 0
44, 3108873964, -0.024424851, 0.6780659, 0.12579708, 0.72374827, 0.54800695, 0.7127502, 0.091747284, 0
45, 3108890631, -0.024368882, 0.677943, 0.12582727, 0.7238601, 0.5642522, 0.7240758, 0.046996117, 0
46, 3108907298, -0.024313286, 0.6778312, 0.12585634, 0.72396165, 0.59669256, 0.68549526, -0.009673119, 0
47, 3108923965, -0.024278134, 0.6777071, 0.12588671, 0.7240736, 0.56340194, 0.6861156, -0.0014209747, 0
48, 3108940632, -0.024255544, 0.67759883, 0.1258853, 0.72417593, 0.5870185, 0.6941044, 0.010362625, 0
49, 3108957299, -0.024229586, 0.6774973, 0.12588063, 0.72427255, 0.5560238, 0.7216119, 0.046617508, 0
50, 3108973966, -0.024196073, 0.6773803, 0.12589155, 0.7243813, 0.59245884, 0.71069115, 0.03545475, 0
51, 3108990633, -0.024155587, 0.6772652, 0.12592591, 0.72448426, 0.5746271, 0.7142869, 0.033020973, 0
52, 3109007300, -0.024119556, 0.6771408, 0.12596175, 0.7245954, 0.5481677, 0.70983523, 0.030324936, 0
53, 3109023967, -0.024066016, 0.6770239, 0.1259808, 0.7247033, 0.5814282, 0.6991822, 0.062487602, 0
54, 3109040634, -0.02400902, 0.67690545, 0.1260377, 0.72480595, 0.587224, 0.6947707, 0.05261898, 0
55, 3109057301, -0.02395299, 0.6767826, 0.12611863, 0.7249084, 0.57630867, 0.7420305, 0.017564774, 0
56, 3109073968, -0.023882851, 0.6766495, 0.12621753, 0.7250177, 0.55499053, 0.7656814, -0.00812912, 0
57, 3109090635, -0.023800641, 0.6765276, 0.12630528, 0.72511894, 0.56191623, 0.7492475, -0.016123772, 0
58, 3109107302, -0.023716673, 0.676407, 0.1263632, 0.725224, 0.6172245, 0.70515925, 0.0013046265, 0
59, 3109123969, -0.023637712, 0.6762978, 0.12640128, 0.7253219, 0.6246753, 0.6810649, 0.041729927, 0
60, 3109140636, -0.023550093, 0.67619234, 0.12641662, 0.7254203, 0.62345445, 0.72317094, 0.09951687, 0
61, 3109157303, -0.02350074, 0.6760785, 0.12643379, 0.725525, 0.63498986, 0.7491211, 0.096055984, 0
62, 3109173970, -0.023455948, 0.6759573, 0.12644827, 0.7256368, 0.6337953, 0.6717005, 0.036865234, 0
63, 3109190637, -0.02342987, 0.6758441, 0.12644312, 0.725744, 0.60718864, 0.6742373, 0.0068473816, 0
64, 3109207304, -0.023430496, 0.6757395, 0.1264304, 0.7258438, 0.5528741, 0.6737887, 0.03614807, 0
65, 3109223971, -0.023424447, 0.67564046, 0.12638813, 0.7259433, 0.5787694, 0.66821253, 0.041789055, 0
66, 3109240638, -0.023422152, 0.6755404, 0.12637044, 0.72603965, 0.5838273, 0.63589007, 0.05192852, 0
67, 3109257305, -0.023433238, 0.67542946, 0.12635744, 0.72614473, 0.5649478, 0.66696465, 0.053962708, 0
68, 3109273972, -0.023456573, 0.675334, 0.12631677, 0.72623974, 0.5091637, 0.68534994, 0.030918121, 0
69, 3109290639, -0.023510069, 0.67523384, 0.12622964, 0.72634655, 0.5679395, 0.63808846, 0.042276382, 0
70, 3109307306, -0.023589984, 0.67513806, 0.12614435, 0.7264477, 0.63301253, 0.55834633, 0.09998894, 0
71, 3109323973, -0.023680702, 0.6750284, 0.12608188, 0.72655755, 0.6084047, 0.59725475, 0.052866936, 0
72, 3109340640, -0.023770392, 0.67492324, 0.1260188, 0.7266632, 0.5263095, 0.6803579, 0.024824142, 0
73, 3109357307, -0.023876578, 0.67482734, 0.12594546, 0.72676146, 0.48725992, 0.6866927, -0.012176514, 0
74, 3109373974, -0.023982406, 0.6747244, 0.12586275, 0.7268679, 0.53183967, 0.68050843, 0.013031006, 0
75, 3109390641, -0.024080485, 0.67463243, 0.12578385, 0.72696376, 0.527024, 0.63721937, 0.05580139, 0
76, 3109407308, -0.024184361, 0.67454493, 0.12571824, 0.7270526, 0.5090507, 0.64043164, 0.0825901, 0
77, 3109423975, -0.024282783, 0.67445105, 0.12562276, 0.7271529, 0.50781286, 0.65752035, 0.048999786, 0
78, 3109440642, -0.024370268, 0.6743657, 0.12555692, 0.7272407, 0.52480114, 0.66528976, 0.026387215, 0
79, 3109457309, -0.02444467, 0.6742671, 0.12548915, 0.72734123, 0.4895792, 0.6991737, 0.021064758, 0
80, 3109473976, -0.024512202, 0.67417693, 0.12543239, 0.72743237, 0.47445574, 0.713067, -0.0070962906, 0
81, 3109490643, -0.024558365, 0.6740854, 0.12536906, 0.7275266, 0.4804324, 0.66619045, -0.0040273666, 0
82, 3109507310, -0.024600014, 0.6740022, 0.12530082, 0.7276139, 0.48786613, 0.6251427, 0.039399147, 0
83, 3109523977, -0.024644494, 0.6739018, 0.12526631, 0.72771144, 0.4565118, 0.63358176, 0.049144745, 0
84, 3109540644, -0.024679303, 0.67380106, 0.12523851, 0.72780824, 0.4233403, 0.66263777, 0.038746834, 0
85, 3109557311, -0.024680004, 0.6737025, 0.12520716, 0.72790486, 0.4380279, 0.64873475, 0.027545929, 0
86, 3109573978, -0.024668828, 0.67359805, 0.12520067, 0.728003, 0.44851768, 0.6419845, 0.0363369, 0
87, 3109590645, -0.024654314, 0.6734915, 0.12519903, 0.72810245, 0.44445524, 0.6457029, 0.02322197, 0
88, 3109607312, -0.024633229, 0.67339444, 0.12520891, 0.7281911, 0.39837345, 0.6107745, 0.019545555, 0
89, 3109623979, -0.024598256, 0.67329645, 0.12520976, 0.7282828, 0.39562675, 0.60547113, 6.1893463E-4, 0
90, 3109640646, -0.024540037, 0.67319703, 0.12523417, 0.7283724, 0.43722013, 0.60483265, -0.0060281754, 0
91, 3109657313, -0.024481505, 0.67309237, 0.12531729, 0.7284568, 0.42328238, 0.62965417, 0.04272175, 0
92, 3109673980, -0.024417683, 0.67298675, 0.12543207, 0.7285368, 0.42234176, 0.6747657, 0.057291985, 0
93, 3109690647, -0.024298012, 0.67287564, 0.12553994, 0.72862494, 0.4376411, 0.6594631, 0.06816864, 0
94, 3109707314, -0.02415967, 0.67275625, 0.12566821, 0.72871757, 0.50937843, 0.59940785, 0.10520649, 0
95, 3109723981, -0.024005353, 0.67262673, 0.12583861, 0.72881293, 0.52367246, 0.609515, 0.079852104, 0
96, 3109740648, -0.023856416, 0.6724911, 0.12603651, 0.72890884, 0.48029894, 0.68978286, 0.024644852, 0
97, 3109757315, -0.02368404, 0.67235816, 0.12621288, 0.72900647, 0.48964876, 0.7585918, -0.020151138, 0
98, 3109773982, -0.023513258, 0.6722345, 0.12634303, 0.72910357, 0.5189886, 0.7574584, -0.012191772, 0
99, 3109790649, -0.023342833, 0.67212594, 0.12641416, 0.72919667, 0.56932473, 0.71117955, -7.314682E-4, 0
100, 3109807316, -0.023189753, 0.67201895, 0.12646481, 0.7292914, 0.60048133, 0.69645876, 0.03929615, 0
101, 3109823983, -0.023048386, 0.6719221, 0.12650487, 0.72937816, 0.5973945, 0.69761735, 0.08633518, 0
102, 3109840650, -0.022918612, 0.6718298, 0.12654546, 0.7294601, 0.55360323, 0.708238, 0.04681015, 0
103, 3109857317, -0.022782281, 0.6717339, 0.12658483, 0.72954583, 0.59164554, 0.6881248, 0.03535652, 0
104, 3109873984, -0.022664815, 0.6716279, 0.12666497, 0.7296332, 0.5925912, 0.627735, 0.088664055, 0
105, 3109890651, -0.022525936, 0.67151105, 0.1267574, 0.7297292, 0.4895763, 0.70373917, 0.089562416, 0
106, 3109907318, -0.02236414, 0.6714053, 0.12682447, 0.7298198, 0.44696495, 0.7552835, 0.008489609, 0
107, 3109923985, -0.022222072, 0.6713061, 0.12691598, 0.72989947, 0.51319647, 0.7177699, 0.03208351, 0
108, 3109940652, -0.022026181, 0.6711823, 0.1270691, 0.7299927, 0.5702809, 0.6412732, 0.09509277, 0
109, 3109957319, -0.021780655, 0.67104995, 0.12732422, 0.7300772, 0.57852083, 0.6696672, 0.10555458, 0
110, 3109973986, -0.021480784, 0.6708981, 0.12764975, 0.73016876, 0.5203904, 0.6979562, 0.037475586, 0
111, 3109990653, -0.02113089, 0.670749, 0.12796725, 0.73026043, 0.41235134, 0.72074366, -0.040576935, 0
112, 3110007320, -0.020818815, 0.6706052, 0.12833336, 0.7303372, 0.4278159, 0.68967783, 0.04175949, 0
113, 3110023987, -0.020450532, 0.6704624, 0.1286374, 0.7304251, 0.47175416, 0.56181335, 0.07579708, 0
114, 3110040654, -0.020073473, 0.6703128, 0.12895292, 0.73051727, 0.51825917, 0.5597382, 0.111442566, 0
115, 3110057321, -0.019739792, 0.6701555, 0.12927099, 0.73061454, 0.4819549, 0.5873364, 0.026664734, 0
116, 3110073988, -0.019412994, 0.6700158, 0.12951103, 0.7307089, 0.50698775, 0.58888227, -0.046552658, 0
117, 3110090655, -0.01915127, 0.6698799, 0.1297234, 0.7308026, 0.4823091, 0.5549897, 0.018964767, 0
118, 3110107322, -0.01892975, 0.6697679, 0.12987703, 0.73088384, 0.47508454, 0.53314143, 0.01848793, 0
119, 3110123989, -0.018775776, 0.6696758, 0.12998538, 0.73095286, 0.41302696, 0.5826807, 0.035632133, 0
120, 3110140656, -0.018635437, 0.6695898, 0.12998937, 0.73103464, 0.3994187, 0.583016, 0.13044643, 0
121, 3110157323, -0.018563002, 0.6695058, 0.12998386, 0.7311144, 0.42431438, 0.50562495, 0.14711952, 0
122, 3110173990, -0.01852648, 0.66940427, 0.12998264, 0.7312084, 0.41881064, 0.461217, 0.07529068, 0
123, 3110190657, -0.01849164, 0.66929793, 0.13001224, 0.7313013, 0.4207402, 0.45660612, 0.011268616, 0
124, 3110207324, -0.01842773, 0.66920406, 0.13002306, 0.7313869, 0.36430165, 0.46247837, -0.060505867, 0
125, 3110223991, -0.018379614, 0.66911834, 0.13005556, 0.7314608, 0.31649223, 0.47709757, -0.088954926, 0
126, 3110240658, -0.01833649, 0.6690482, 0.13008183, 0.7315214, 0.3431289, 0.47744167, 0.001789093, 0
127, 3110257325, -0.01830408, 0.6689869, 0.13012564, 0.73157036, 0.35180604, 0.4788288, 0.065013885, 0
128, 3110273992, -0.018293709, 0.6689095, 0.13016875, 0.7316338, 0.36701518, 0.5224358, 0.112044334, 0
129, 3110290659, -0.018277213, 0.66883564, 0.1301896, 0.731698, 0.39819878, 0.5534609, 0.10519791, 0
130, 3110307326, -0.018276617, 0.6687566, 0.13022693, 0.7317636, 0.3747617, 0.5318956, 0.08319569, 0
131, 3110323993, -0.01826872, 0.6686761, 0.13028198, 0.7318276, 0.35170993, 0.5417146, 0.10086441, 0
132, 3110340660, -0.018220067, 0.66859597, 0.13032112, 0.731895, 0.35656068, 0.5706213, 0.07038498, 0
133, 3110357327, -0.018201217, 0.6684982, 0.13037452, 0.73197544, 0.34139597, 0.54806674, 0.0043907166, 0
134, 3110373994, -0.018162042, 0.6684043, 0.13043942, 0.7320505, 0.35085014, 0.5594156, 0.0046749115, 0
135, 3110390661, -0.018101513, 0.6683202, 0.13049519, 0.7321187, 0.35513845, 0.64975554, -0.053182602, 0
136, 3110407328, -0.01806426, 0.6682314, 0.13054761, 0.7321914, 0.35977048, 0.61580926, -0.0016841888, 0
137, 3110423995, -0.018003106, 0.6681485, 0.13060006, 0.7322592, 0.4567405, 0.5376775, 0.047867775, 0
138, 3110440662, -0.017955706, 0.66805005, 0.13070469, 0.73233175, 0.45703918, 0.48046523, 0.09256554, 0
139, 3110457329, -0.017882705, 0.6679601, 0.13078076, 0.7324018, 0.4673689, 0.5964941, 0.07761574, 0
140, 3110473996, -0.017848372, 0.66787314, 0.13085447, 0.73246884, 0.45810723, 0.6526908, 0.032761574, 0
141, 3110490663, -0.017822966, 0.66780216, 0.13084811, 0.73253536, 0.49306557, 0.65456665, 0.041744232, 0
142, 3110507330, -0.017844021, 0.6677436, 0.13081941, 0.73259324, 0.49871904, 0.58490825, -0.040818214, 0
143, 3110523997, -0.017885506, 0.66769725, 0.13074307, 0.73264825, 0.4795981, 0.5508585, -0.043403625, 0
144, 3110540664, -0.017963275, 0.6676779, 0.1306101, 0.73268765, 0.40868372, 0.568088, -0.029251099, 0
145, 3110557331, -0.018067047, 0.66766256, 0.13042615, 0.73273176, 0.3774456, 0.5284012, 0.033773422, 0
146, 3110573998, -0.018218055, 0.6676501, 0.13021255, 0.7327774, 0.34105092, 0.48482987, 0.119441986, 0
147, 3110590665, -0.018376157, 0.66763234, 0.1299751, 0.7328317, 0.32759115, 0.44680977, 0.13409424, 0
148, 3110607332, -0.018593803, 0.6676001, 0.12976013, 0.73289376, 0.34725845, 0.4776454, 0.10290146, 0
149, 3110623999, -0.018814132, 0.66756165, 0.12953413, 0.7329632, 0.3959019, 0.40614885, 0.035414696, 0
150, 3110640666, -0.019009903, 0.6675478, 0.12927042, 0.73301727, 0.37520227, 0.45369107, 0.09129715, 0
151, 3110657333, -0.019253328, 0.6675249, 0.12901907, 0.7330761, 0.35312817, 0.5801262, 0.16849995, 0
152, 3110674000, -0.019513756, 0.667476, 0.12877281, 0.73315686, 0.45020092, 0.5973586, 0.22463322, 0
153, 3110690667, -0.019718528, 0.667423, 0.12854391, 0.73323995, 0.5330547, 0.5721425, 0.17239475, 0
154, 3110707334, -0.019933373, 0.6673272, 0.12843436, 0.7333404, 0.43461213, 0.62118137, 0.09260845, 0
155, 3110724001, -0.020062283, 0.6672508, 0.12830815, 0.7334285, 0.32333338, 0.7483461, 0.0075101852, 0
156, 3110740668, -0.020132914, 0.66717434, 0.12813883, 0.73352575, 0.35206303, 0.7079303, -0.03419876, 0
157, 3110757335, -0.020230219, 0.66709346, 0.12802653, 0.73361635, 0.46484184, 0.5679375, -0.020638466, 0
158, 3110774002, -0.020308614, 0.66701764, 0.12792858, 0.7337, 0.5230226, 0.53432715, 0.016597748, 0
159, 3110790669, -0.02033788, 0.66695374, 0.12776308, 0.7337863, 0.53467023, 0.5568839, 0.027772903, 0
160, 3110807336, -0.020484328, 0.6668953, 0.1276156, 0.733861, 0.4999368, 0.6198325, 0.026633263, 0
161, 3110824003, -0.020678863, 0.666854, 0.12739801, 0.7339308, 0.5082277, 0.60059005, 0.11274338, 0
162, 3110840670, -0.020911738, 0.6668258, 0.12709332, 0.7340026, 0.49957672, 0.5351111, 0.13037682, 0
163, 3110857337, -0.021161765, 0.66679406, 0.12671304, 0.73409, 0.46021318, 0.5315077, 0.12967777, 0
164, 3110874004, -0.021516398, 0.66675806, 0.12634192, 0.7341764, 0.33436146, 0.5495599, 0.028089523, 0
165, 3110890671, -0.021872431, 0.66674846, 0.12588513, 0.73425305, 0.25494832, 0.5018656, -0.027757645, 0
166, 3110907338, -0.022245333, 0.66675806, 0.12540358, 0.73431563, 0.26554295, 0.4628646, -0.057890892, 0
167, 3110924005, -0.022672325, 0.6667515, 0.1249689, 0.7343827, 0.27071673, 0.41272214, -0.024507523, 0
168, 3110940672, -0.023026392, 0.6667562, 0.12449457, 0.73444784, 0.2704777, 0.38227767, 0.04487419, 0
169, 3110957339, -0.02338025, 0.6667576, 0.12405768, 0.73450935, 0.32499868, 0.39593366, 0.09257507, 0
170, 3110974006, -0.023697257, 0.66675204, 0.12367606, 0.7345685, 0.30030498, 0.47317895, 0.08637619, 0
171, 3110990673, -0.024009392, 0.66672796, 0.12332867, 0.7346386, 0.24304536, 0.58286035, 0.013402939, 0
172, 3111007340, -0.024364173, 0.66670674, 0.12296459, 0.7347072, 0.26752847, 0.59820116, -0.16376686, 0
173, 3111024007, -0.024735406, 0.66674966, 0.12259789, 0.7347172, 0.45157197, 0.6014828, -0.76780796, 0
174, 3111040674, -0.025080636, 0.66679853, 0.12225133, 0.734719, 0.24109845, 0.21517615, 0.9447775, 0
175, 3111057341, -0.025423825, 0.6668018, 0.12190656, 0.73476136, 0.5527057, 0.44211757, 0.20536709, 0
176, 3111074008, -0.025709629, 0.666726, 0.12168451, 0.73485714, 0.5996256, -0.09922355, 0.34829903, 0
177, 3111090675, -0.026041418, 0.6666522, 0.12148525, 0.7349453, 0.25242895, 0.5973863, -0.050822258, 0
178, 3111107342, -0.026482582, 0.66664106, 0.121070266, 0.73500824, -0.03129569, 0.89877164, -0.0053539276, 0
179, 3111124009, -0.027060762, 0.6666449, 0.12047173, 0.735082, 0.26482284, 0.4840333, 0.030338287, 0
180, 3111140676, -0.027784988, 0.66663915, 0.11986148, 0.7351598, 0.4420476, -0.032614563, 0.21632576, 0
181, 3111157343, -0.028540567, 0.66665405, 0.11924568, 0.73521763, 0.38974184, -0.023725342, 0.0173769, 0
182, 3111174010, -0.02932547, 0.6666837, 0.11856449, 0.73526996, 0.17162745, 0.18093362, -0.20330048, 0
183, 3111190677, -0.030121163, 0.6667577, 0.117792115, 0.7352949, 0.13345389, 0.29915074, -0.2675085, 0
184, 3111207344, -0.031007707, 0.66684395, 0.117057934, 0.735297, 0.23390281, 0.29949284, -0.016976357, 0
185, 3111224011, -0.03188251, 0.66691226, 0.11636981, 0.73530686, 0.29315853, 0.50713784, 0.272542, 0
186, 3111240678, -0.03277263, 0.6669261, 0.11567813, 0.73536426, 0.3565419, 0.55709755, 0.2501793, 0
187, 3111257345, -0.0336048, 0.6669073, 0.11503248, 0.735445, 0.3142238, 0.42152253, 0.3720169, 0
188, 3111274012, -0.0344034, 0.66690224, 0.114428684, 0.7355067, 0.01882454, 0.89391446, -0.06583023, 0
189, 3111290679, -0.035220638, 0.6669214, 0.11369844, 0.7355642, 0.19774102, 0.6939705, -0.07944775, 0
190, 3111307346, -0.036002517, 0.66695035, 0.11293903, 0.73561704, 0.39509434, 0.47070667, -0.16736698, 0
191, 3111324013, -0.036765367, 0.6670056, 0.112193555, 0.7356433, 0.49704242, 0.43502784, -0.02029705, 0
192, 3111340680, -0.03753735, 0.6670771, 0.11138849, 0.73566186, 0.43425688, 0.79135376, -0.0038614273, 0
193, 3111357347, -0.038350865, 0.66714704, 0.11048439, 0.7356926, 0.33955216, 0.7959366, 0.11710739, 0
194, 3111374014, -0.03916785, 0.6671947, 0.10961288, 0.7357369, 0.5047626, 0.5104194, 0.11000538, 0
195, 3111390681, -0.0399359, 0.6672061, 0.108863816, 0.73579633, 0.39608106, 0.4155163, 0.22483826, 0
196, 3111407348, -0.040627897, 0.6672132, 0.108181596, 0.7358528, 0.2574372, 0.8036928, 0.010346413, 0
197, 3111424015, -0.04121083, 0.667223, 0.10757908, 0.7358997, 0.28903913, 0.6136451, -0.04786873, 0
198, 3111440682, -0.041646197, 0.6672288, 0.10714528, 0.73593336, 0.35505363, 0.46832794, -0.014251709, 0
199, 3111457349, -0.041994676, 0.6672268, 0.10694237, 0.73594475, 0.20883313, 0.62675905, -0.022082329, 0
200, 3111474016, -0.04226075, 0.6672187, 0.10672666, 0.73596823, 0.12227673, 0.76664025, -0.02973175, 0
201, 3111490683, -0.04251191, 0.6672326, 0.10649429, 0.73597497, 0.25339592, 0.51263255, -0.03320217, 0
202, 3111507350, -0.04269302, 0.667231, 0.106372595, 0.73598325, 0.4687724, 0.30582425, 0.088988304, 0
203, 3111524017, -0.042821646, 0.66721576, 0.106397346, 0.735986, 0.3589267, 0.5280142, 0.06584549, 0
204, 3111540684, -0.042966023, 0.66718054, 0.10642587, 0.7360054, 0.12431098, 0.69604427, 0.17345333, 0
205, 3111557351, -0.043086037, 0.6671592, 0.10632837, 0.7360319, 0.13480698, 0.6478096, 0.14089012, 0
206, 3111574018, -0.043254614, 0.6671198, 0.106224835, 0.73607266, 0.22575127, 0.4977866, 0.20766258, 0
207, 3111590685, -0.04330845, 0.6670786, 0.10612129, 0.73612183, 0.23857723, 0.5387005, 0.09068489, 0
208, 3111607352, -0.043352887, 0.6670117, 0.10613248, 0.7361782, 0.12702928, 0.7208742, -0.0867939, 0
209, 3111624019, -0.04330817, 0.6669488, 0.10614455, 0.7362361, 0.11822528, 0.70490843, -0.104982376, 0
210, 3111640686, -0.04314956, 0.66689134, 0.106159866, 0.7362952, 0.2598798, 0.5326019, 0.021924973, 0
211, 3111657353, -0.042963386, 0.6668251, 0.10625577, 0.73635226, 0.35115322, 0.4689675, 0.13959503, 0
212, 3111674020, -0.04277326, 0.6667485, 0.10637273, 0.73641586, 0.37603933, 0.52106315, 0.20220089, 0
213, 3111690687, -0.04253523, 0.6666615, 0.10643911, 0.7364987, 0.3266881, 0.601167, 0.11103153, 0
214, 3111707354, -0.04233271, 0.6665676, 0.10653786, 0.7365811, 0.29346526, 0.56450844, 0.100868225, 0
215, 3111724021, -0.04205075, 0.6664802, 0.10661963, 0.73666465, 0.320674, 0.5589845, 0.040260315, 0
216, 3111740688, -0.041795924, 0.6663826, 0.106793374, 0.7367422, 0.32348582, 0.58718264, 0.04985237, 0
217, 3111757355, -0.04152806, 0.666286, 0.10697067, 0.7368189, 0.3474596, 0.5647341, 0.071876526, 0
218, 3111774022, -0.041245297, 0.6661842, 0.1071236, 0.7369046, 0.3811958, 0.46023306, 0.1553011, 0
219, 3111790689, -0.040940613, 0.66608524, 0.10727686, 0.7369888, 0.44456, 0.48376697, 0.034029007, 0
220, 3111807356, -0.04066743, 0.6659867, 0.10745974, 0.7370662, 0.43027776, 0.5805903, 0.03170204, 0
221, 3111824023, -0.04042524, 0.66589075, 0.10765506, 0.7371378, 0.47793272, 0.5939025, 0.028458595, 0
222, 3111840690, -0.040177345, 0.6658088, 0.10776776, 0.737209, 0.52794784, 0.5852346, 0.048145294, 0
223, 3111857357, -0.040004045, 0.6657176, 0.107897505, 0.7372818, 0.5817176, 0.4798529, 0.04475975, 0
224, 3111874024, -0.039817765, 0.66563016, 0.10799031, 0.7373573, 0.5529258, 0.47338557, 0.04205513, 0
225, 3111890691, -0.039683998, 0.6655509, 0.10809702, 0.7374203, 0.44086125, 0.48799136, 0.124212265, 0
226, 3111907358, -0.039601907, 0.6654685, 0.10822384, 0.7374805, 0.39130613, 0.4484868, 0.13891792, 0
227, 3111924025, -0.039455697, 0.66538763, 0.108322814, 0.73754674, 0.36639163, 0.4487436, 0.13899326, 0
228, 3111940692, -0.03930679, 0.66529894, 0.10842465, 0.73761976, 0.30222976, 0.48568505, 0.059230804, 0
229, 3111957359, -0.039176166, 0.66521263, 0.10851295, 0.7376916, 0.22769035, 0.50148237, 0.061919212, 0
230, 3111974026, -0.039074063, 0.66514015, 0.10860214, 0.7377492, 0.21038961, 0.45404577, -0.011897087, 0
231, 3111990693, -0.03898406, 0.66506076, 0.10868929, 0.7378127, 0.22802484, 0.37758636, 0.009708405, 0
232, 3112007360, -0.038943708, 0.664977, 0.10885088, 0.73786646, 0.26419437, 0.3454224, 0.0025949478, 0
233, 3112024027, -0.038825646, 0.6649121, 0.108966246, 0.7379141, 0.22133784, 0.43062142, 0.041752815, 0
234, 3112040694, -0.03867671, 0.6648498, 0.10903667, 0.7379678, 0.20421764, 0.46079162, 0.084768295, 0
235, 3112057361, -0.038568377, 0.6647789, 0.109123945, 0.73802435, 0.26194584, 0.46674868, 0.11291504, 0
236, 3112074028, -0.038517267, 0.6646949, 0.10925445, 0.7380834, 0.30835596, 0.4514289, 0.10276699, 0
237, 3112090695, -0.038348347, 0.6646347, 0.1092864, 0.7381416, 0.28594995, 0.46135074, 0.08897591, 0
238, 3112107362, -0.03825122, 0.6645636, 0.109343946, 0.7382021, 0.25965065, 0.4526799, 0.05733776, 0
239, 3112124029, -0.038164392, 0.6644922, 0.10937762, 0.73826593, 0.25116906, 0.42857614, 0.09560871, 0
240, 3112140696, -0.038088754, 0.6644263, 0.10941258, 0.73832387, 0.27458635, 0.41174403, 0.061347008, 0
241, 3112157363, -0.03803739, 0.6643513, 0.109510124, 0.7383798, 0.25432646, 0.44958088, 0.069919586, 0
242, 3112174030, -0.03794059, 0.6642897, 0.10957295, 0.7384308, 0.34063068, 0.52655643, 0.045657158, 0
243, 3112190697, -0.037856758, 0.6642227, 0.10963887, 0.7384855, 0.3626619, 0.5643447, 0.07654858, 0
244, 3112207364, -0.037718564, 0.66413903, 0.10967481, 0.7385626, 0.4397033, 0.5053076, 0.050292015, 0
245, 3112224031, -0.03762178, 0.6640502, 0.10975407, 0.73863566, 0.3923867, 0.36335003, 0.08548546, 0
246, 3112240698, -0.037540942, 0.6639661, 0.10984151, 0.7387023, 0.34619614, 0.34998563, 0.13369179, 0
247, 3112257365, -0.037501946, 0.66388553, 0.109922394, 0.7387647, 0.2589502, 0.4411236, -0.01158905, 0
248, 3112274032, -0.037428588, 0.66382855, 0.10992059, 0.7388198, 0.23652492, 0.47795263, 0.017131805, 0
249, 3112290699, -0.03740619, 0.6637641, 0.10995637, 0.73887354, 0.273232, 0.4352783, 0.06395531, 0
250, 3112307366, -0.037361175, 0.6637089, 0.109971, 0.7389232, 0.31602085, 0.43806204, 0.049498558, 0
251, 3112324033, -0.03732963, 0.6636555, 0.110006094, 0.73896754, 0.30160168, 0.49438226, 0.04349327, 0
252, 3112340700, -0.037283868, 0.6636066, 0.10998145, 0.73901737, 0.29866254, 0.4531509, 0.04181862, 0
253, 3112357367, -0.03732899, 0.66354203, 0.11002496, 0.73906666, 0.23817563, 0.3887895, 0.06946945, 0
254, 3112374034, -0.03736657, 0.6634957, 0.11005284, 0.73910224, 0.18025392, 0.33054805, 0.024411201, 0
255, 3112390701, -0.03740172, 0.66346586, 0.11003265, 0.7391302, 0.20530537, 0.35610834, 0.022641182, 0
256, 3112407368, -0.03745976, 0.663434, 0.10996561, 0.73916584, 0.22759531, 0.39541408, 0.045804977, 0
257, 3112424035, -0.0375361, 0.6634106, 0.10986295, 0.7391983, 0.2719681, 0.4188206, 0.047276497, 0
258, 3112440702, -0.037717298, 0.66336584, 0.109836906, 0.7392331, 0.30644125, 0.431087, 0.073039055, 0
259, 3112457369, -0.037827715, 0.66333544, 0.109744996, 0.7392684, 0.32235485, 0.40815187, 0.06624508, 0
260, 3112474036, -0.037939146, 0.66334647, 0.10962236, 0.73927104, 0.3285664, 0.5801719, -0.5541916, 0
261, 3112490703, -0.038018435, 0.66337085, 0.109416634, 0.73927546, 0.065307245, 0.3384613, 0.69388866, 0
262, 3112507370, -0.03817077, 0.66336286, 0.10920924, 0.73930544, 0.1306046, 0.58989507, -0.30662632, 0
263, 3112524037, -0.038296565, 0.6633515, 0.10909386, 0.73932624, 0.24133793, -0.3405316, 0.015287399, 0
264, 3112540704, -0.038323537, 0.6633385, 0.10915403, 0.73932755, 0.038603734, -0.25810024, 0.13868141, 0
265, 3112557371, -0.038319632, 0.66330427, 0.109176725, 0.7393551, -0.3673154, 0.29055008, 0.12084293, 0
266, 3112574038, -0.038380817, 0.66329527, 0.109123036, 0.73936796, -0.4877493, 0.4376908, 0.31995964, 0
267, 3112590705, -0.03849876, 0.6632613, 0.109018475, 0.73940766, -0.154879, 0.25118297, 0.3162136, 0
268, 3112607372, -0.038680196, 0.6631771, 0.1089721, 0.7394806, -0.0045743603, -0.0038445345, 0.10900593, 0
269, 3112624039, -0.03883007, 0.66309905, 0.1088672, 0.73955834, -0.0010184367, 0.14521122, -0.24645138, 0
270, 3112640706, -0.039006203, 0.6630462, 0.10868478, 0.7396232, -0.22033288, 0.29293397, -0.2862053, 0
271, 3112657373, -0.039255396, 0.66303253, 0.10845101, 0.7396565, -0.29975763, 0.29535896, -0.18603802, 0
272, 3112674040, -0.039543033, 0.66304123, 0.10819724, 0.73967046, -0.18603374, 0.17669381, 0.014093399, 0
273, 3112690707, -0.03976269, 0.6630455, 0.10792348, 0.739695, 0.028792547, 0.14295284, 0.20380116, 0
274, 3112707374, -0.039946944, 0.66303813, 0.10771084, 0.73972267, 0.21683897, 0.30525053, 0.1721735, 0
275, 3112724041, -0.040037706, 0.66301036, 0.10750739, 0.73977226, 0.23025863, 0.52072126, 0.072402, 0
276, 3112740708, -0.040092662, 0.6629737, 0.10740057, 0.7398176, 0.19809395, 0.6527052, -0.045121193, 0
277, 3112757375, -0.040121302, 0.66291547, 0.10734795, 0.73987585, 0.1755599, 0.572839, -0.034778595, 0
278, 3112774042, -0.040128976, 0.6628675, 0.10729846, 0.7399256, 0.13524188, 0.4566287, 0.126585, 0
279, 3112790709, -0.040056437, 0.6628234, 0.107201114, 0.7399831, 0.18455862, 0.42103884, 0.14387798, 0
280, 3112807376, -0.03995748, 0.66277856, 0.107166916, 0.7400335, 0.21583606, 0.5060474, 0.14093971, 0
281, 3112824043, -0.039796397, 0.66271937, 0.10717982, 0.74009335, 0.32254013, 0.7345097, 0.06995392, 0
282, 3112840710, -0.039624155, 0.6626555, 0.10725053, 0.74014956, 0.48557296, 0.79245627, 0.055280685, 0
283, 3112857377, -0.039357066, 0.6625913, 0.10728052, 0.74021703, 0.64392114, 0.6400704, 0.027812958, 0
284, 3112874044, -0.03915687, 0.6625323, 0.10739446, 0.740264, 0.72974753, 0.56963795, 0.019751549, 0
285, 3112890711, -0.038923427, 0.66246927, 0.107475504, 0.7403209, 0.63677603, 0.6490358, 0.06091118, 0
286, 3112907378, -0.038695693, 0.6624195, 0.107516766, 0.74037117, 0.48859194, 0.6915474, 0.08943939, 0
287, 3112924045, -0.038514584, 0.66235816, 0.10758294, 0.7404259, 0.47043073, 0.6098767, 0.1236248, 0
288, 3112940712, -0.038311943, 0.6623156, 0.107626185, 0.74046826, 0.45223042, 0.52739435, 0.18116951, 0
289, 3112957379, -0.03811471, 0.6622581, 0.10768974, 0.7405208, 0.47960186, 0.4780825, 0.1571722, 0
290, 3112974046, -0.03798212, 0.6622054, 0.107795, 0.74055946, 0.51606375, 0.5334504, 0.06152916, 0
291, 3112990713, -0.037828296, 0.6621567, 0.10783875, 0.7406044, 0.520602, 0.48500904, 0.077305794, 0
292, 3113007380, -0.03771712, 0.6621171, 0.10785642, 0.7406428, 0.5033557, 0.42290965, 0.08201027, 0
293, 3113024047, -0.037654415, 0.66208243, 0.107866734, 0.7406755, 0.52415603, 0.38931733, 0.04673958, 0
294, 3113040714, -0.037634075, 0.6620534, 0.10786888, 0.7407023, 0.4969138, 0.356915, 0.13301182, 0
295, 3113057381, -0.037620842, 0.662026, 0.10780911, 0.7407362, 0.37243155, 0.44199967, 0.06974316, 0
296, 3113074048, -0.037681773, 0.66201085, 0.107746154, 0.7407558, 0.33034316, 0.5036329, 0.09815502, 0
297, 3113090715, -0.03775473, 0.66198695, 0.1076619, 0.7407857, 0.30947614, 0.43405735, 0.12539768, 0
298, 3113107382, -0.03783512, 0.6619599, 0.10760258, 0.7408142, 0.36446565, 0.36125842, 0.091023445, 0
299, 3113124049, -0.037932634, 0.6619339, 0.10753986, 0.7408416, 0.37897947, 0.370157, 0.07787228, 0
300, 3113140716, -0.038063273, 0.66191536, 0.107444584, 0.7408653, 0.3993659, 0.39032727, 0.07478714, 0
301, 3113157383, -0.038211897, 0.66188335, 0.10734971, 0.74090004, 0.37557888, 0.4202372, 0.099121094, 0
302, 3113174050, -0.038353577, 0.6618521, 0.10723129, 0.74093795, 0.31841135, 0.45609832, 0.10887146, 0
303, 3113190717, -0.038574696, 0.6618015, 0.10717408, 0.7409798, 0.29885375, 0.42467687, 0.11619091, 0
304, 3113207384, -0.03871575, 0.6617655, 0.10702366, 0.7410262, 0.24938156, 0.3436105, 0.064626694, 0
305, 3113224051, -0.03891261, 0.66173875, 0.106895536, 0.7410583, 0.21740468, 0.31454253, 0.008790016, 0
306, 3113240718, -0.039131284, 0.66172403, 0.10676472, 0.74107885, 0.18190378, 0.34957024, 0.007932663, 0
307, 3113257385, -0.039337754, 0.661712, 0.106612936, 0.7411005, 0.1884878, 0.36193678, 0.04204464, 0
308, 3113274052, -0.039564297, 0.66170436, 0.10645762, 0.7411176, 0.20508079, 0.39842984, 0.09447861, 0
309, 3113290719, -0.03978257, 0.6616901, 0.10628855, 0.741143, 0.26364124, 0.44940487, 0.1169405, 0
310, 3113307386, -0.040006906, 0.6616668, 0.10611498, 0.7411765, 0.28768447, 0.4504763, 0.10892868, 0
311, 3113324053, -0.04023935, 0.6616347, 0.10596663, 0.74121386, 0.27879006, 0.43258652, 0.020783424, 0
312, 3113340720, -0.04044223, 0.6616028, 0.10581829, 0.7412524, 0.26558882, 0.41442454, -0.0033779144, 0
313, 3113357387, -0.040643066, 0.6615873, 0.10567948, 0.741275, 0.21596895, 0.38363037, 0.053520203, 0
314, 3113374054, -0.040820614, 0.66157615, 0.105567336, 0.7412912, 0.186592, 0.43082464, 0.08091736, 0
315, 3113390721, -0.04095857, 0.6615539, 0.105466455, 0.74131787, 0.19903828, 0.4482378, 0.07861996, 0
316, 3113407388, -0.041078135, 0.6615267, 0.10538156, 0.7413477, 0.19587016, 0.4405408, 0.09144306, 0
317, 3113424055, -0.041180015, 0.6614876, 0.105332375, 0.74138385, 0.20884123, 0.46385923, 0.09744263, 0
318, 3113440722, -0.041233435, 0.6614489, 0.105266765, 0.74142474, 0.21271856, 0.4721528, 0.09150696, 0
319, 3113457389, -0.04128325, 0.6614061, 0.105232164, 0.7414649, 0.23170973, 0.4832235, 0.055073738, 0
320, 3113474056, -0.041322142, 0.6613622, 0.105204746, 0.74150586, 0.2210889, 0.43554562, 0.036172867, 0
321, 3113490723, -0.041360304, 0.66132194, 0.10519132, 0.7415416, 0.14551313, 0.39014277, -0.0066747665, 0
322, 3113507390, -0.041369274, 0.6612822, 0.10517718, 0.7415785, 0.1614363, 0.36729413, 0.029956818, 0
323, 3113524057, -0.041405708, 0.6612439, 0.105205, 0.7416066, 0.15503652, 0.3707178, 0.08809471, 0
324, 3113540724, -0.041394427, 0.6612089, 0.105197966, 0.7416394, 0.16510935, 0.41041908, 0.107216835, 0
325, 3113557391, -0.041328877, 0.66117525, 0.10519068, 0.7416742, 0.16955313, 0.4152863, 0.117014885, 0
326, 3113574058, -0.04127428, 0.6611269, 0.10520448, 0.74171835, 0.21004139, 0.41353226, 0.06325817, 0
327, 3113590725, -0.0412433, 0.6610724, 0.10524011, 0.74176365, 0.2115012, 0.38087898, 0.0022678375, 0
328, 3113607392, -0.041210547, 0.6610276, 0.105266064, 0.7418017, 0.20073916, 0.35898373, -0.018605232, 0
329, 3113624059, -0.041168854, 0.66098565, 0.105293825, 0.7418375, 0.1828469, 0.32574287, 0.0047883987, 0
330, 3113640726, -0.04112564, 0.66094583, 0.10531868, 0.74187183, 0.16683677, 0.34361184, 0.09260559, 0
331, 3113657393, -0.04108712, 0.6609011, 0.10534999, 0.7419093, 0.1523048, 0.36802337, 0.12379742, 0
332, 3113674060, -0.041010156, 0.6608614, 0.10534868, 0.7419492, 0.20175375, 0.39489642, 0.1089983, 0
333, 3113690727, -0.040962458, 0.6608012, 0.105393365, 0.74199903, 0.21719223, 0.39079475, 0.10622215, 0
334, 3113707394, -0.04089497, 0.6607465, 0.10543695, 0.7420453, 0.24938285, 0.3513094, 0.07460785, 0
335, 3113724061, -0.040834725, 0.66068864, 0.105477676, 0.7420943, 0.2439179, 0.36574018, 0.024032593, 0
336, 3113740728, -0.040788278, 0.6606479, 0.105505005, 0.7421291, 0.20356895, 0.39773148, 0.0030822754, 0
337, 3113757395, -0.04075952, 0.66060877, 0.10552035, 0.7421634, 0.19795078, 0.39594963, 0.045116425, 0
338, 3113774062, -0.040733233, 0.66056454, 0.105544865, 0.7422008, 0.18598278, 0.34489983, 0.07882881, 0
339, 3113790729, -0.04072252, 0.6605138, 0.105628565, 0.7422347, 0.21717645, 0.3237346, 0.082894325, 0
340, 3113807396, -0.04061207, 0.6604608, 0.105653584, 0.7422844, 0.17763932, 0.35193065, 0.08711052, 0
341, 3113824063, -0.040522903, 0.6604092, 0.10572614, 0.74232477, 0.19621196, 0.38887745, 0.049146652, 0
342, 3113840730, -0.04043013, 0.6603483, 0.10581285, 0.74237174, 0.15664235, 0.39100316, 0.03567314, 0
343, 3113857397, -0.04035154, 0.66028935, 0.10590878, 0.74241465, 0.15813078, 0.43032736, -0.015084267, 0
344, 3113874064, -0.040364176, 0.6602293, 0.10603635, 0.74244916, 0.15067573, 0.3862344, 0.03592491, 0
345, 3113890731, -0.040278643, 0.660191, 0.106062666, 0.74248415, 0.20802423, 0.3087798, 0.08500099, 0
346, 3113907398, -0.04018663, 0.6601432, 0.10613252, 0.74252164, 0.21766183, 0.30581647, 0.17779827, 0
347, 3113924065, -0.04006274, 0.66008955, 0.10622904, 0.7425622, 0.1954698, 0.36037776, 0.15291977, 0
348, 3113940732, -0.039917856, 0.6600141, 0.10630414, 0.74262637, 0.14917813, 0.37073457, 0.10622978, 0
349, 3113957399, -0.0398764, 0.6599332, 0.1064543, 0.74267894, 0.13614805, 0.34442106, 0.014489174, 0
350, 3113974066, -0.03973429, 0.6598756, 0.10648957, 0.7427327, 0.12607801, 0.30861372, -0.05402851, 0
351, 3113990733, -0.03964266, 0.65982294, 0.10657972, 0.7427715, 0.1086435, 0.24853322, 0.0021152496, 0
352, 3114007400, -0.039538994, 0.65977657, 0.10665214, 0.7428078, 0.04799647, 0.29013672, 0.060126305, 0
353, 3114024067, -0.039450467, 0.6597366, 0.10673161, 0.74283653, 0.07110791, 0.31281286, 0.118273735, 0
354, 3114040734, -0.039332733, 0.6596874, 0.10679643, 0.7428771, 0.11862883, 0.30025366, 0.12338352, 0
355, 3114057401, -0.039207846, 0.6596298, 0.106882304, 0.7429225, 0.12062843, 0.32525772, 0.07227039, 0
356, 3114074068, -0.03908196, 0.65956897, 0.106959105, 0.7429721, 0.08594956, 0.30024695, 0.0014505386, 0
357, 3114090735, -0.03898047, 0.65951, 0.10704753, 0.74301714, 0.048487224, 0.30047137, -0.04946804, 0
358, 3114107402, -0.038848832, 0.6594719, 0.10711324, 0.7430483, 0.09477374, 0.24737789, 0.040688515, 0
359, 3114124069, -0.038753897, 0.6594172, 0.10721484, 0.7430871, 0.15291025, 0.28073394, 0.118252754, 0
360, 3114140736, -0.03863798, 0.6593534, 0.10729846, 0.7431377, 0.18784006, 0.35482424, 0.065176964, 0
361, 3114157403, -0.038548827, 0.6593388, 0.107360855, 0.74314636, 0.25284484, 0.55686367, -0.6799927, 0
362, 3114174070, -0.038519874, 0.6592965, 0.1073883, 0.7431813, -0.26986313, 0.47941896, 0.77565956, 0
363, 3114190737, -0.038473785, 0.6592544, 0.10732646, 0.7432301, 0.26653567, 0.0243894, -0.24855137, 0
364, 3114207404, -0.03837359, 0.659174, 0.10752745, 0.7432775, 0.068864144, -0.64088655, 0.14731884, 0
365, 3114224071, -0.038244292, 0.6590982, 0.10780482, 0.7433112, -0.35122254, -0.015620985, 0.21582222, 0
366, 3114240738, -0.038082197, 0.6590335, 0.10789409, 0.7433641, -0.6519936, 0.2724804, 0.38008595, 0
367, 3114257405, -0.038052216, 0.6589755, 0.107880235, 0.743419, -0.35956472, 0.061037812, 0.13226795, 0
368, 3114274072, -0.038155958, 0.6589037, 0.10785283, 0.74348116, -0.043905795, -0.2983803, -0.07360363, 0
369, 3114290739, -0.038337618, 0.6588588, 0.107774615, 0.74352294, -0.10333772, -0.31610835, -0.22947693, 0
370, 3114307406, -0.038535655, 0.65884525, 0.107583195, 0.7435525, -0.33811834, -0.07004661, -0.31968307, 0
371, 3114324073, -0.038713753, 0.6588718, 0.10727413, 0.7435643, -0.63616276, 0.111620694, -0.19794941, 0
372, 3114340740, -0.038946033, 0.65890384, 0.10699639, 0.743564, -0.6171225, 0.15803652, -0.092437744, 0
373, 3114357407, -0.039214924, 0.6589239, 0.10676728, 0.7435649, -0.48011315, 0.070435636, 0.067136765, 0
374, 3114374074, -0.039461672, 0.6589305, 0.10654324, 0.7435782, -0.35576344, 0.0056139748, 0.25274658, 0
375, 3114390741, -0.03959164, 0.65890145, 0.10629156, 0.743633, -0.19071509, 0.024069551, 0.26591682, 0
376, 3114407408, -0.039603174, 0.65883195, 0.1061317, 0.7437167, -0.17302217, 0.13963938, 0.19672775, 0
377, 3114424075, -0.039622977, 0.65873975, 0.10617237, 0.7437915, -0.18680894, 0.38377106, 0.018593788, 0
378, 3114440742, -0.039602786, 0.65864223, 0.10620935, 0.7438738, -0.16817199, 0.4077767, 0.02383709, 0
379, 3114457409, -0.039535597, 0.65854716, 0.10615629, 0.743969, -0.007408113, 0.2813001, 0.021662712, 0
380, 3114474076, -0.039459795, 0.6584613, 0.10607548, 0.74406064, 0.022524463, 0.13931797, 0.012111664, 0
381, 3114490743, -0.039390802, 0.6583756, 0.10602996, 0.74414647, 0.008589156, -8.162693E-4, 0.2593689, 0
382, 3114507410, -0.03935425, 0.65828896, 0.10604243, 0.7442233, 0.04417988, 0.12832572, 0.08202171, 0
383, 3114524077, -0.039351106, 0.6582004, 0.10603078, 0.74430346, 0.10519995, 0.28101557, -0.006485939, 0
384, 3114540744, -0.03937617, 0.65811604, 0.10595088, 0.74438816, 0.1197003, 0.20231152, 0.14344692, 0
385, 3114557411, -0.03942056, 0.658046, 0.10585785, 0.7444609, 0.09744332, 0.21822631, 0.20127583, 0
386, 3114574078, -0.039515644, 0.6579536, 0.10577053, 0.7445501, 0.115700975, 0.3624021, 0.3331623, 0
387, 3114590745, -0.039649397, 0.6578437, 0.1056277, 0.74466026, 0.21063425, 0.5369483, 0.26492596, 0
388, 3114607412, -0.039746076, 0.65769815, 0.1054277, 0.74481195, 0.38884628, 0.44857854, 0.016345978, 0
389, 3114624079, -0.03975627, 0.6575379, 0.10538414, 0.7449591, 0.4414715, 0.26921895, -0.17956161, 0
390, 3114640746, -0.039677933, 0.6573991, 0.10548285, 0.74507177, 0.0441285, 0.5463198, -0.21838188, 0
391, 3114657413, -0.039478526, 0.6573152, 0.10554153, 0.74514806, -0.3759337, 0.61635464, -0.21469593, 0
392, 3114674080, -0.03933488, 0.65727365, 0.10554846, 0.74519134, -0.90591687, 0.30896464, -0.22723198, 0
393, 3114690747, -0.03920172, 0.6572295, 0.105502546, 0.7452439, -0.6830788, -0.40682197, -0.14785099, 0
394, 3114707414, -0.038949907, 0.6571859, 0.10560158, 0.7452815, -0.65225834, -0.90296656, -0.10549164, 0
395, 3114724081, -0.03859, 0.6571812, 0.105760366, 0.7452819, -0.8749263, -0.13678423, -0.22978592, 0
396, 3114740748, -0.03829737, 0.6571799, 0.10579538, 0.7452931, -0.9385034, 0.4372014, -0.20087624, 0
397, 3114757415, -0.038048744, 0.65716344, 0.10561466, 0.7453459, -0.6676065, -0.1841322, 0.23677349, 0
398, 3114774082, -0.037920043, 0.6570805, 0.105511695, 0.7454402, -0.034218214, -0.6509371, -0.2778721, 0
399, 3114790749, -0.037903205, 0.65700406, 0.10528642, 0.74554014, -0.8097978, -0.045371678, -0.12723064, 0
400, 3114807416, -0.03799659, 0.65710294, 0.104840785, 0.74551123, -1.5655856, -1.2501239, 0.007973671, 0
401, 3114824083, -0.038067445, 0.6573465, 0.10433057, 0.74536437, -1.5083693, -1.3236113, -0.3687973, 0
402, 3114840750, -0.03825985, 0.6574061, 0.10379878, 0.7453763, -1.3611022, -0.21042036, 0.23522282, 0
403, 3114857417, -0.038512707, 0.6574445, 0.10322566, 0.7454089, -1.3511494, -0.5581124, 0.09264088, 0
404, 3114874084, -0.038888663, 0.6574522, 0.10262892, 0.74546504, -0.98258394, -0.7723785, -0.1971674, 0
405, 3114890751, -0.039379567, 0.65745944, 0.10190229, 0.7455327, -1.7959011, -1.0229294, -0.33773136, 0
406, 3114907418, -0.03991735, 0.6575831, 0.100929335, 0.74552727, -1.8944343, -1.0663335, -0.09157753, 0
407, 3114924085, -0.040504783, 0.65770334, 0.09990658, 0.7455272, -1.9723594, -1.4315854, 0.047369957, 0
408, 3114940752, -0.041119933, 0.6577994, 0.099019006, 0.74552727, -1.7207341, -1.2247156, -0.46702957, 0
409, 3114957419, -0.041701347, 0.6579021, 0.098219305, 0.74551004, -1.6435255, -0.9743007, -0.3760643, 0
410, 3114974086, -0.04224719, 0.65801835, 0.09738214, 0.7454866, -2.1039805, -0.86979866, 0.342515, 0
411, 3114990753, -0.04278326, 0.6581674, 0.09642102, 0.74544936, -1.8680799, -0.78624505, -0.48675346, 0
412, 3115007420, -0.043375164, 0.658316, 0.095419034, 0.74541295, -1.9986864, -1.1208843, -0.36225128, 0
413, 3115024087, -0.044015497, 0.65848845, 0.09445906, 0.74534535, -2.0990307, -1.1499944, -0.5512295, 0
414, 3115040754, -0.04467532, 0.6586497, 0.09344223, 0.7452918, -2.2761152, -1.0420676, 0.0128088, 0
415, 3115057421, -0.045316026, 0.6588106, 0.09230414, 0.7452526, -2.6088502, -1.2830803, -0.36338806, 0
416, 3115074088, -0.045965165, 0.65896773, 0.09110375, 0.7452217, -2.1521986, -1.3443512, -1.4194679, 0
417, 3115090755, -0.046642512, 0.6590949, 0.08993778, 0.7452087, -2.994333, -1.5847536, 0.29825592, 0
418, 3115107422, -0.047319025, 0.6592829, 0.08878605, 0.74513775, -3.1948264, -1.5454556, 0.49938965, 0
419, 3115124089, -0.04792349, 0.6594699, 0.087629035, 0.74507093, -2.5969698, -1.4612747, -1.0096378, 0
420, 3115140756, -0.04844755, 0.6595715, 0.08652675, 0.74507576, -2.862192, -1.5491468, -0.29694653, 0
421, 3115157423, -0.048906088, 0.65969974, 0.08554751, 0.74504554, -3.2645707, -1.7935033, -0.24352741, 0
422, 3115174090, -0.049385965, 0.6599181, 0.084668145, 0.7449208, -2.8705986, -1.9656438, -1.471571, 0
423, 3115190757, -0.04988867, 0.6601411, 0.08375114, 0.7447933, -2.8645747, -2.0553043, 0.105228424, 0
424, 3115207424, -0.050425246, 0.6602799, 0.082728505, 0.7447485, -2.3697798, -1.8233945, 0.53087044, 0
425, 3115224091, -0.051055536, 0.66029847, 0.08170156, 0.7448025, -1.7302365, -1.5086311, 0.15503693, 0
426, 3115240758, -0.051820993, 0.6603377, 0.08084011, 0.74480885, -2.1231437, -1.5474501, -1.3153019, 0
427, 3115257425, -0.052770928, 0.66055983, 0.07995997, 0.74464023, -2.822295, -2.083359, -0.34148502, 0
428, 3115274092, -0.05376041, 0.6608907, 0.07895307, 0.74438316, -1.8301059, -2.3076987, -1.7114191, 0
429, 3115290759, -0.054844543, 0.6610942, 0.077945516, 0.7442296, -1.7952429, -2.1176126, 1.0001755, 0
430, 3115307426, -0.056080103, 0.66135097, 0.07705748, 0.7440017, -1.8843613, -1.554361, 0.16077137, 0
431, 3115324093, -0.057626486, 0.66157264, 0.07618266, 0.7437768, -0.95041734, -1.1644378, -1.0229206, 0
432, 3115340760, -0.059416756, 0.6618148, 0.0751818, 0.74352217, -2.0601206, -2.5395198, -0.36331654, 0
433, 3115357427, -0.061386466, 0.6623538, 0.07410245, 0.7429904, -1.92597, -3.2865982, -2.417513, 0
434, 3115374094, -0.06349227, 0.66296256, 0.07317862, 0.74236166, -2.2472832, -3.2402582, -3.2861147, 0
435, 3115390761, -0.06585081, 0.6636553, 0.072285816, 0.7416243, -1.8828895, -1.6775445, -1.5687914, 0
436, 3115407428, -0.06845766, 0.6643676, 0.07126428, 0.740849, -1.5531505, -1.1883553, 2.5912237, 0
437, 3115424095, -0.07118259, 0.6649915, 0.07016823, 0.74013674, 0.5075769, -0.72706205, 2.1535826, 0
438, 3115440762, -0.07365522, 0.66515833, 0.06948596, 0.73980904, 1.0055689, -0.8838903, 1.3463945, 0
439, 3115457429, -0.07573846, 0.6652216, 0.069251806, 0.7395639, -0.41320533, 0.023157906, -0.18681526, 0
440, 3115474096, -0.07753301, 0.6654081, 0.069145724, 0.73922014, -0.646731, 1.2535651, -0.24340057, 0
441, 3115490763, -0.07928142, 0.6655544, 0.06902252, 0.73891425, 0.14289708, 1.0746425, 0.12209892, 0
442, 3115507430, -0.08104937, 0.66567165, 0.06912413, 0.7386072, 2.0152347, 0.6188715, 1.9222202, 0
443, 3115524097, -0.0827446, 0.6656162, 0.06960234, 0.73842424, 2.9495971, 1.2668414, 1.8950253, 0
444, 3115540764, -0.084219515, 0.665486, 0.07026538, 0.7383122, 2.9040267, 1.9684142, 1.0424118, 0
445, 3115557431, -0.0854249, 0.66532135, 0.071042255, 0.73824775, 2.6430395, 2.072747, 0.4540968, 0
446, 3115574098, -0.08651154, 0.66515964, 0.072020456, 0.738172, 2.6024776, 2.0095592, -0.041856766, 0
447, 3115590765, -0.08755855, 0.6650808, 0.07311095, 0.73801225, 2.3887296, 1.6701003, 0.09712124, 0
448, 3115607432, -0.0885047, 0.66495323, 0.07432222, 0.73789346, 1.9854139, 1.5318992, -0.26561928, 0
449, 3115624099, -0.089058, 0.66478634, 0.075753585, 0.7378317, 2.0380301, 1.438829, -0.43126106, 0
450, 3115640766, -0.08923815, 0.6645323, 0.07770154, 0.7378362, 1.4707733, 1.3910285, 0.4505043, 0
451, 3115657433, -0.08916615, 0.6642503, 0.08017413, 0.7378344, 0.88361627, 1.5257697, -0.21270943, 0
452, 3115674100, -0.08901045, 0.6639751, 0.08268681, 0.7378236, 1.1871741, 2.0985036, 0.23362637, 0
453, 3115690767, -0.088781536, 0.6636723, 0.08497587, 0.7378634, 0.9574316, 1.8309078, -0.04567814, 0
454, 3115707434, -0.08841483, 0.6634826, 0.08713539, 0.73782635, 1.4422369, 1.6051354, 0.05224991, 0
455, 3115724101, -0.08786212, 0.66316557, 0.0892846, 0.73792034, 1.2606915, 1.5942652, 0.8392687, 0
456, 3115740768, -0.08712411, 0.66279745, 0.09152305, 0.7380642, 0.924967, 1.9578747, 0.34229565, 0
457, 3115757435, -0.08619501, 0.6623929, 0.09357454, 0.7382792, 0.473482, 2.1236157, 0.77010536, 0
458, 3115774102, -0.08502594, 0.66204715, 0.09545414, 0.73848444, 0.7384243, 1.4404825, -0.42978382, 0
459, 3115790769, -0.08363545, 0.66169924, 0.09730287, 0.73871374, 0.008884249, 1.305757, 0.05554104, 0
460, 3115807436, -0.082147986, 0.66147435, 0.09903565, 0.7388518, -0.2896307, 1.3770578, -0.14799118, 0
461, 3115824103, -0.08067252, 0.66122013, 0.10047567, 0.73904747, -0.19120975, 1.9980326, 0.17384243, 0
462, 3115840770, -0.079300314, 0.660961, 0.101499885, 0.7392878, -0.016145458, 1.512076, 0.76126194, 0
463, 3115857437, -0.07793942, 0.66070944, 0.10217959, 0.73956376, 0.17988886, 0.97967905, 0.24875927, 0
464, 3115874104, -0.07648979, 0.66045785, 0.10263221, 0.739877, 0.10922251, 0.2985294, -0.8499489, 0
465, 3115890771, -0.074975386, 0.66026276, 0.103126794, 0.7401373, -0.46718454, 0.639045, -0.14492416, 0
466, 3115907438, -0.073539555, 0.6601305, 0.103362724, 0.7403664, -0.87665653, 1.116147, -0.21718216, 0
467, 3115924105, -0.072257385, 0.6600439, 0.10299675, 0.74062085, -1.138225, 0.83692145, 0.49093342, 0
468, 3115940772, -0.07111281, 0.66004705, 0.10226178, 0.7408306, -0.89085424, 0.48688185, -0.21245766, 0
469, 3115957439, -0.07001072, 0.6600178, 0.101389036, 0.7410816, -0.4637097, 0.25485787, 0.14802456, 0
470, 3115974106, -0.06885865, 0.66005945, 0.100392684, 0.74128807, -0.91161084, 0.31379443, -0.19955921, 0
471, 3115990773, -0.067674175, 0.66013277, 0.099126995, 0.74150205, -0.8454996, 0.8865331, -0.14304066, 0
472, 3116007440, -0.06649478, 0.66017926, 0.09758671, 0.7417716, -0.8682433, 0.37320918, 0.052467346, 0
473, 3116024107, -0.06535031, 0.66028893, 0.09596287, 0.7419874, -0.6365817, 0.24925382, 0.6802912, 0
474, 3116040774, -0.064273834, 0.66040426, 0.09443924, 0.7421744, -0.7509855, 0.41127625, -0.6297083, 0
475, 3116057441, -0.06322484, 0.6606233, 0.092730805, 0.742285, -1.2411087, 1.0590819, 0.00549984, 0
476, 3116074108, -0.06211488, 0.6608366, 0.090692535, 0.7424407, -0.89197975, 0.88196, -0.7832937, 0
477, 3116090775, -0.061024114, 0.6609502, 0.08854857, 0.7426887, -0.4722255, 0.56136554, 0.4598608, 0
478, 3116107442, -0.06000632, 0.6610074, 0.086317495, 0.74298334, -0.6805821, 0.43400818, 0.38556862, 0
479, 3116124109, -0.059043854, 0.6611146, 0.084170505, 0.74321145, -0.27759296, -0.32033217, 0.45003128, 0
480, 3116140776, -0.05795908, 0.66133064, 0.08211842, 0.7433343, -0.4756954, -0.7001111, -0.41725063, 0
481, 3116157443, -0.0568178, 0.6616318, 0.079874456, 0.74339885, -0.7934257, 0.2020423, 0.21486759, 0
482, 3116174110, -0.055855274, 0.661954, 0.07748844, 0.74343735, -1.3785293, 0.9770518, -0.070280075, 0
483, 3116190777, -0.055177033, 0.66222, 0.07502788, 0.7435036, -1.0870506, 1.2363315, 0.38163662, 0
484, 3116207444, -0.05464165, 0.6623737, 0.07242857, 0.7436639, -0.73313266, 0.3545375, -0.40114498, 0
485, 3116224111, -0.054047376, 0.662518, 0.069764614, 0.74383354, -0.17024879, -0.64593637, -0.6542406, 0
486, 3116240778, -0.0532441, 0.6626342, 0.06726453, 0.7440182, -0.36875045, -1.0089917, 0.84782696, 0
487, 3116257445, -0.052262753, 0.6628043, 0.0649696, 0.7441402, -0.88981664, 0.16160557, -0.47741032, 0
488, 3116274112, -0.051355317, 0.66290736, 0.0626629, 0.7443094, -1.5859905, 0.7495523, 0.078416824, 0
489, 3116290779, -0.050645694, 0.6629667, 0.06022413, 0.74450636, -1.5117419, 0.5901769, 0.4237995, 0
490, 3116307446, -0.050079077, 0.6629578, 0.057680562, 0.744754, -0.9957767, -0.07978138, -0.14608574, 0
491, 3116324113, -0.049464524, 0.66291326, 0.05531548, 0.7450142, -1.1278397, -0.5230599, 0.18396473, 0
492, 3116340780, -0.048640415, 0.66288936, 0.053226918, 0.74524176, -0.9239311, -0.23734058, -1.1584368, 0
493, 3116357447, -0.047614977, 0.6627969, 0.051313967, 0.7455243, -1.4857228, -0.6089082, 0.444664, 0
494, 3116374114, -0.04654923, 0.66275406, 0.049632296, 0.7457436, -1.7170336, -0.6676057, -0.36236095, 0
495, 3116390781, -0.045607626, 0.66281736, 0.048026204, 0.74585056, -1.8416626, -1.1607312, -0.52656746, 0
496, 3116407448, -0.044772997, 0.6629702, 0.04630752, 0.745874, -2.5107825, -0.923062, 0.098270416, 0
497, 3116424115, -0.04411365, 0.66321933, 0.04451804, 0.7458008, -1.859954, -0.8000898, -1.0502234, 0
498, 3116440782, -0.043470845, 0.66340715, 0.042787388, 0.74577296, -1.4754275, -1.1251392, 0.76897144, 0
499, 3116457449, -0.042894706, 0.66358536, 0.041081592, 0.74574363, -1.8167245, -0.9236258, -0.3439188, 0
500, 3116474116, -0.042433366, 0.6637832, 0.03942308, 0.7456833, -1.3901592, -0.75758356, 0.068626404, 0
501, 3116490783, -0.042075112, 0.66390735, 0.037921578, 0.7456711, -1.9303501, -1.6030428, 0.48551846, 0
502, 3116507450, -0.041702017, 0.66404074, 0.0367105, 0.7456337, -2.587755, -1.7956631, -0.03059864, 0
503, 3116524117, -0.041303173, 0.6642485, 0.035691366, 0.74552035, -2.59977, -1.1265407, -0.94763756, 0
504, 3116540784, -0.04084687, 0.66439855, 0.034765497, 0.7454556, -2.9475653, -1.4698863, -0.2659359, 0
505, 3116557451, -0.040251777, 0.66452545, 0.034118325, 0.74540466, -2.387863, -2.327718, -0.8636465, 0
506, 3116574118, -0.039546758, 0.66454494, 0.03408307, 0.7454266, -1.477483, -1.7476047, -0.2621994, 0
507, 3116590785, -0.038800284, 0.66443574, 0.03446348, 0.7455458, -1.8250964, -1.0623436, 0.43519115, 0
508, 3116607452, -0.038003758, 0.6643261, 0.03491351, 0.74566346, -1.8132344, -0.8620629, 0.4411497, 0
509, 3116624119, -0.037254035, 0.6642785, 0.03543763, 0.7457191, -2.5753074, -2.0633936, -1.5348825, 0
510, 3116640786, -0.036535606, 0.6646266, 0.036353216, 0.7454003, -2.454065, -3.4728954, -2.0689511, 0
511, 3116657453, -0.03591983, 0.66498584, 0.03755158, 0.74505043, -3.284874, -2.8966293, -0.72517395, 0
512, 3116674120, -0.03570734, 0.6654789, 0.038353592, 0.7445793, -2.708599, -1.533977, -0.5343828, 0
513, 3116690787, -0.035972282, 0.6659269, 0.03870955, 0.7441474, -1.5105335, -1.8356057, 1.9738998, 0
514, 3116707454, -0.036533788, 0.6659045, 0.038983986, 0.74412584, 0.76958096, -0.8264994, 4.0791693, 0
515, 3116724121, -0.037064657, 0.66529083, 0.03985259, 0.74460244, 2.2488756, -1.6082846, 3.0993052, 0
516, 3116740788, -0.037395746, 0.66455126, 0.041025385, 0.7451822, 2.2178984, 0.9423561, -2.4028006, 0
517, 3116757455, -0.03757468, 0.6640622, 0.04179862, 0.7455662, 1.4495701, 0.8310121, -3.088901, 0
518, 3116774122, -0.03777416, 0.6640161, 0.042355984, 0.74556565, -0.26186368, -0.007893137, -0.5442648, 0
519, 3116790789, -0.038174734, 0.66436857, 0.04277718, 0.7452071, 0.9859285, 1.0640482, -2.1437206, 0
520, 3116807456, -0.038902238, 0.66458416, 0.043075025, 0.74496007, 2.1076968, 1.1122823, 0.44307232, 0
521, 3116824123, -0.03971331, 0.6647711, 0.04321654, 0.7447423, 2.4510481, 0.93389827, -0.08965111, 0
522, 3116840790, -0.040534034, 0.6650456, 0.04307215, 0.7444613, 2.9561894, 0.9457325, -0.9712744, 0
523, 3116857457, -0.041421905, 0.6653786, 0.04247819, 0.74414915, 0.6382776, 0.87060255, -0.88839436, 0
524, 3116874124, -0.04268901, 0.6658283, 0.041377246, 0.743737, -0.5024999, 0.017931662, 0.6959219, 0
525, 3116890791, -0.04445219, 0.66622657, 0.040177867, 0.7433427, -2.4339411, -2.5555046, 0.9288635, 0
526, 3116907458, -0.046562627, 0.66668206, 0.038824692, 0.742877, -2.8671126, -2.7864733, -2.3381705, 0
527, 3116924125, -0.048810422, 0.6671377, 0.037309453, 0.7424011, -3.1081398, -4.0670924, -1.1880112, 0
528, 3116940792, -0.05094129, 0.66778505, 0.035922453, 0.7417441, -3.0866814, -3.2437565, 0.6691618, 0
529, 3116957459, -0.05289133, 0.6682924, 0.03500019, 0.7411945, -1.460212, -0.5618287, 0.032167435, 0
530, 3116974126, -0.05458924, 0.66839683, 0.03483072, 0.7409852, -0.54136926, 0.8562232, 0.26478195, 0
531, 3116990793, -0.055888295, 0.6684174, 0.035082772, 0.7408579, -0.7173686, 0.816906, 3.4028273, 0
532, 3117007460, -0.05694467, 0.6685916, 0.035444826, 0.740603, -0.074021846, 0.54854023, 1.6145296, 0
533, 3117024127, -0.057886273, 0.6683712, 0.03588125, 0.74070793, 3.3152742, 0.7582093, -0.69557476, 0
534, 3117040794, -0.05864373, 0.6678128, 0.0363169, 0.7411306, 2.8584826, 0.7817775, 0.32892036, 0
535, 3117057461, -0.059400022, 0.66750807, 0.036254704, 0.74134785, 2.0469663, 1.8904878, 1.1238213, 0
536, 3117074128, -0.060241565, 0.6673771, 0.03561738, 0.7414288, 2.6053507, 2.310871, -0.108989716, 0
537, 3117090795, -0.06090252, 0.6671928, 0.03514017, 0.7415637, 2.924752, 1.8996568, 0.17079449, 0
538, 3117107462, -0.061380103, 0.66694885, 0.035095766, 0.74174565, 2.247606, 2.3617797, 0.36028385, 0
539, 3117124129, -0.061681554, 0.6666545, 0.03507544, 0.7419861, 2.1297216, 2.7191293, -0.12306881, 0
540, 3117140796, -0.06181942, 0.66619694, 0.034919232, 0.7423929, 2.115659, 2.1501374, 0.18395615, 0
541, 3117157463, -0.06179738, 0.66573364, 0.03491865, 0.74281025, 0.5911213, 0.5903682, 0.30737305, 0
542, 3117174130, -0.061679363, 0.6655847, 0.03530407, 0.7429354, -0.38793787, 0.20061216, -0.41095066, 0
543, 3117190797, -0.06149286, 0.6655456, 0.03583908, 0.7429603, 0.45187318, 0.6048552, -0.12141514, 0
544, 3117207464, -0.060873017, 0.6654727, 0.036559522, 0.7430416, 0.19052674, -0.3909682, 0.4525242, 0
545, 3117224131, -0.05983509, 0.6654327, 0.037905335, 0.7430941, 1.5431175, -0.5624103, -0.6991463, 0
546, 3117240798, -0.05848311, 0.6653176, 0.039913267, 0.74319965, 0.6495924, 0.39090034, 0.08102226, 0
547, 3117257465, -0.057194486, 0.6653689, 0.041940585, 0.74314225, -0.028392348, 1.5644476, 1.6927605, 0
548, 3117274132, -0.05602795, 0.66536534, 0.043445498, 0.74314797, -0.16039334, 0.96290296, 0.78092384, 0
549, 3117290799, -0.054900542, 0.6654966, 0.044651672, 0.7430432, 0.10176056, -0.5757733, 0.5345621, 0
550, 3117307466, -0.053967923, 0.6657312, 0.046032637, 0.7428169, 0.18273428, -0.2773427, -0.31335926, 0
551, 3117324133, -0.053154677, 0.665926, 0.047296897, 0.74262166, 0.1453921, 0.52888095, 0.0780983, 0
552, 3117340800, -0.05228205, 0.6660243, 0.04821083, 0.7425364, 1.4696629, 0.76086193, -0.85584164, 0
553, 3117357467, -0.051223367, 0.6658208, 0.049008086, 0.7427405, 2.2758675, 1.0338497, 0.37600422, 0
554, 3117374134, -0.050144956, 0.66556644, 0.049818113, 0.7429883, 0.63710463, 1.3744613, 0.7822733, 0
555, 3117390801, -0.049288362, 0.66533077, 0.050593287, 0.7432041, 0.5217961, 2.067321, -1.1612978, 0
556, 3117407468, -0.048572794, 0.66512024, 0.050956026, 0.74341494, 0.39361608, 1.4902205, -0.36009312, 0
557, 3117424135, -0.047797278, 0.6650783, 0.050825134, 0.7435117, 0.5084, 1.049652, 0.29932022, 0
558, 3117440802, -0.046976954, 0.6650857, 0.05067967, 0.74356735, 0.7667374, 0.55625534, -0.0048713684, 0
559, 3117457469, -0.04596269, 0.6650537, 0.050768867, 0.7436531, 0.49146622, 0.64409626, 1.0252428, 0
560, 3117474136, -0.044732988, 0.66497535, 0.05085139, 0.74379253, -0.08768413, 1.1641603, -0.25928497, 0
561, 3117490803, -0.043417126, 0.6649196, 0.050526083, 0.7439426, -0.5994088, 1.2451937, 0.08599758, 0
562, 3117507470, -0.042236835, 0.6648545, 0.05002497, 0.7441025, -0.4344036, 0.6841906, -0.19284058, 0
563, 3117524137, -0.04124795, 0.66487163, 0.04960595, 0.74417067, -0.8667094, 0.22605012, -0.2505455, 0
564, 3117540804, -0.040379927, 0.6649606, 0.048987016, 0.74417984, -0.92004186, 0.31488013, 0.49358273, 0
565, 3117557471, -0.039481327, 0.66505295, 0.047960967, 0.7442123, -1.0623939, -0.37463498, 0.43226624, 0
566, 3117574138, -0.038473353, 0.66517246, 0.046781868, 0.7442334, -0.6068093, -0.7580846, -0.34355927, 0
567, 3117590805, -0.037531182, 0.6651964, 0.045908272, 0.7443145, -0.34629384, -0.26207787, -0.55358124, 0
568, 3117607472, -0.03680043, 0.66526, 0.04503092, 0.7443477, -0.93756825, 0.73593223, 0.18137646, 0
569, 3117624139, -0.036256492, 0.6654178, 0.043544635, 0.7443218, -1.6061333, 0.7294559, 0.22961426, 0
570, 3117640806, -0.035822093, 0.66564775, 0.041739896, 0.74424064, -0.84159166, -0.5243551, -0.75485325, 0
571, 3117657473, -0.03538181, 0.6658221, 0.040203825, 0.74419034, -0.053451896, -0.7557461, -0.20136833, 0
572, 3117674140, -0.03495817, 0.665945, 0.038899153, 0.7441697, -0.5324605, -0.053584773, 0.026753426, 0
573, 3117690807, -0.034551203, 0.66612285, 0.03759113, 0.74409676, -0.53257906, 0.3366665, 0.44280338, 0
574, 3117707474, -0.03412111, 0.66625714, 0.036214933, 0.7440647, 0.260241, 0.37468985, 0.48486996, 0
575, 3117724141, -0.03372246, 0.6662699, 0.035031766, 0.74412805, 0.98472935, 0.30595633, 0.27881813, 0
576, 3117740808, -0.0333578, 0.6662187, 0.0341994, 0.7442291, 1.1464578, 0.82805043, 1.3807259, 0
577, 3117757475, -0.0328788, 0.66617966, 0.03329979, 0.7443261, 0.20602603, 1.1808858, 0.9975319, 0
578, 3117774142, -0.032265916, 0.6662252, 0.03238763, 0.74435234, 0.56632, 0.49117464, 0.8681097, 0
579, 3117790809, -0.031472072, 0.6661181, 0.031848297, 0.74450564, 1.1634523, 0.12376415, 0.26988602, 0
580, 3117807476, -0.030541599, 0.66595596, 0.03166555, 0.74469703, 0.034888893, 0.16914041, -0.98808575, 0
581, 3117824143, -0.029571518, 0.66578734, 0.031544328, 0.7448922, -0.14531013, 1.0831481, -1.0263472, 0
582, 3117840810, -0.028645292, 0.6657162, 0.031121522, 0.74500954, -0.83536303, 0.9476601, -0.5358553, 0
583, 3117857477, -0.027746946, 0.6657809, 0.030546486, 0.7450095, -0.33920988, 0.31586757, -0.633132, 0
584, 3117874144, -0.026840076, 0.6658454, 0.03023763, 0.74499774, -0.7154985, -0.31740716, -0.56135464, 0
585, 3117890811, -0.02581267, 0.66604453, 0.030136615, 0.7448602, -0.7590601, -0.14714238, 0.19173145, 0
586, 3117907478, -0.024664849, 0.6662058, 0.029962197, 0.744762, -1.1908715, 0.49534884, -1.3113575, 0
587, 3117924145, -0.02348429, 0.66640216, 0.029664487, 0.7446364, -0.53731006, -0.18403889, 0.23832035, 0
588, 3117940812, -0.022260725, 0.66654646, 0.029310837, 0.7445588, -0.16286556, -0.2228667, 0.43313503, 0
589, 3117957479, -0.02110134, 0.6666876, 0.02880679, 0.74448586, -1.1586134, 0.668658, 0.52193165, 0
590, 3117974146, -0.020043656, 0.66677815, 0.028218463, 0.7444564, -0.25685307, 0.65580434, -0.09420776, 0
591, 3117990813, -0.018934652, 0.6666845, 0.02745545, 0.74459785, -0.5639928, 0.48877504, -0.30815315, 0
592, 3118007480, -0.017842948, 0.6665242, 0.026589438, 0.74479985, -1.2218925, 0.076276705, -0.6439562, 0
593, 3118024147, -0.016838998, 0.66632026, 0.025737628, 0.7450354, -1.6027193, -0.5384816, 0.38761806, 0
594, 3118040814, -0.015975922, 0.66607326, 0.024720088, 0.74530965, -1.7874792, -0.19078574, -0.21858215, 0
595, 3118057481, -0.015275583, 0.66578466, 0.023708016, 0.7456152, -1.8722006, -0.9083448, 1.8364611, 0
596, 3118074148, -0.014453441, 0.66552544, 0.022852167, 0.7458896, -1.5503974, -1.0476265, 1.2577991, 0
597, 3118090815, -0.013314426, 0.665279, 0.022235543, 0.7461495, -2.3572564, -0.54041576, 0.21949673, 0
598, 3118107482, -0.01206854, 0.6652117, 0.02179806, 0.74624354, -3.994898, -1.0597996, -0.4312687, 0
599, 3118124149, -0.010863721, 0.6656461, 0.021455333, 0.7458844, -4.8235273, -3.0696013, -3.444346, 0
600, 3118140816, -0.009867519, 0.66611356, 0.02117303, 0.7454888, -3.9814548, -3.419915, -1.5449362, 0
601, 3118157483, -0.009045064, 0.66624266, 0.02092667, 0.7453909, -2.5989196, -2.107448, -1.648323, 0
602, 3118174150, -0.008546889, 0.6660021, 0.020566866, 0.7456217, -3.593335, -0.6975808, 0.9639969, 0
603, 3118190817, -0.008394927, 0.6656851, 0.0201419, 0.7459181, -4.17261, -1.6331143, 0.98703194, 0
604, 3118207484, -0.008512959, 0.6653687, 0.01998496, 0.7462032, -2.2377064, -2.9359732, 0.9988127, 0
605, 3118224151, -0.008761749, 0.6651391, 0.020168632, 0.74639994, -1.9744648, -4.408092, 0.59642506, 0
606, 3118240818, -0.009009197, 0.66521734, 0.020622596, 0.746315, -2.031787, -4.226986, -1.817709, 0
607, 3118257485, -0.009253502, 0.6652963, 0.021239713, 0.74622434, -2.0771625, -3.0462358, -1.6399317, 0
608, 3118274152, -0.009556353, 0.6652469, 0.021852478, 0.7462468, -3.3965735, -2.0105715, 1.3227415, 0
609, 3118290819, -0.010007575, 0.6650785, 0.022605836, 0.7463685, -2.164828, -1.2347231, -0.32309532, 0
610, 3118307486, -0.0106589645, 0.66491127, 0.02363053, 0.7464768, -0.4443702, -1.6812286, 0.7851715, 0
611, 3118324153, -0.011396721, 0.6650342, 0.024703741, 0.7463217, -0.6303937, -1.3085116, -2.6189342, 0
612, 3118340820, -0.012173444, 0.6652526, 0.025625512, 0.7460835, -0.7608656, -1.9737767, -2.8752747, 0
613, 3118357487, -0.013185397, 0.6654133, 0.026332498, 0.7458985, -0.24606517, -1.1727769, -2.8925195, 0
614, 3118374154, -0.014752179, 0.6659879, 0.026266724, 0.74535835, -3.9649026, -1.160047, 2.0291414, 0
615, 3118390821, -0.017024815, 0.66696614, 0.025082886, 0.7444754, -1.8303968, -2.1940262, -3.0063887, 0
616, 3118407488, -0.01943861, 0.66773134, 0.023821428, 0.7437716, 2.2083566, -2.205972, -2.272067, 0
617, 3118424155, -0.021839038, 0.6682202, 0.022848263, 0.7432962, -2.3543713, -1.8869791, 6.9273205, 0
618, 3118440822, -0.024204165, 0.66882634, 0.021443203, 0.7427195, -0.7929875, 2.19251, -3.754057, 0
619, 3118457489, -0.026823893, 0.66906196, 0.019258618, 0.7424771, -1.8143399, 1.365319, 1.323987, 0
620, 3118474156, -0.02956234, 0.66944206, 0.016886115, 0.7420881, -3.1957502, -2.5207465, 0.8572588, 0
621, 3118490823, -0.032075673, 0.6703154, 0.01481007, 0.7412394, -0.74984974, 1.5501795, -2.601904, 0
622, 3118507490, -0.033983767, 0.67074263, 0.013675287, 0.7407895, 2.7244024, -0.07765522, 4.711277, 0
623, 3118524157, -0.034639567, 0.6705358, 0.01404801, 0.7409394, 6.266481, 1.9657258, 3.73596, 0
624, 3118540824, -0.03436525, 0.66985595, 0.01529488, 0.741542, 4.1959343, 3.4814446, 3.7122135, 0
625, 3118557491, -0.03380835, 0.6693705, 0.016389385, 0.74198246, 3.0628917, 3.2794616, -0.7454729, 0
626, 3118574158, -0.033196658, 0.66914195, 0.017116576, 0.7421999, 3.3624246, 1.7836902, -2.6584105, 0
627, 3118590825, -0.032745466, 0.66929376, 0.017862022, 0.7420655, 2.812572, 0.5293643, -2.609673, 0
628, 3118607492, -0.032461017, 0.66958296, 0.018535748, 0.7418004, 3.506601, 1.840554, 1.3092127, 0
629, 3118624159, -0.03234914, 0.6697287, 0.018876165, 0.7416651, 2.3848298, 1.9845461, 3.2163153, 0
630, 3118640826, -0.032349586, 0.6697316, 0.019158766, 0.74165523, 4.0455165, 1.2627783, 1.9181156, 0
631, 3118657493, -0.03217633, 0.66929823, 0.019772038, 0.7420379, 4.2845736, 0.21059653, -1.4170933, 0
632, 3118674160, -0.031824127, 0.66906494, 0.020674974, 0.742239, 1.7463194, 0.58952993, -0.37310028, 0
633, 3118690827, -0.03158313, 0.6688885, 0.021279618, 0.74239105, 1.2969327, 1.8177884, -1.9976001, 0
634, 3118707494, -0.03146963, 0.66888034, 0.021559149, 0.74239504, 0.6185213, 0.33104268, 1.2841511, 0
635, 3118724161, -0.031472504, 0.66932064, 0.021934137, 0.74198705, 0.6368854, -0.3851991, 0.82487106, 0
636, 3118740828, -0.031533018, 0.6695398, 0.022345275, 0.7417744, 2.2221496, 0.90665805, 0.2219181, 0
637, 3118757495, -0.031424493, 0.6694885, 0.022720829, 0.7418139, 1.818907, 0.39270467, 0.4025612, 0
638, 3118774162, -0.031122252, 0.66939324, 0.023204073, 0.7418978, 1.2418592, 0.19456176, -0.9762249, 0
639, 3118790829, -0.03076753, 0.6692821, 0.023642004, 0.74199903, -0.23173594, 0.5834363, -0.74373245, 0
640, 3118807496, -0.030602634, 0.66938055, 0.023983106, 0.7419059, -1.1913487, 0.8893425, -0.092796326, 0
641, 3118824163, -0.030637592, 0.6695839, 0.023834333, 0.7417258, -0.39105892, 1.0583578, 0.32491493, 0
642, 3118840830, -0.030673057, 0.6697146, 0.02314645, 0.7416281, 0.54564226, 1.0829921, 0.3720827, 0
643, 3118857497, -0.030646384, 0.6697551, 0.022378668, 0.74161625, 1.0032865, 1.001034, 0.75885105, 0
644, 3118874164, -0.03043954, 0.6697927, 0.021460071, 0.7416179, 0.008916463, 1.3128443, 0.49253178, 0
645, 3118890831, -0.030081093, 0.6698987, 0.020225942, 0.74157166, -0.079397306, 1.5748504, 0.3054409, 0
646, 3118907498, -0.029678762, 0.66995966, 0.018877968, 0.74156815, -0.012155137, 1.038575, -0.06777954, 0
647, 3118924165, -0.029243201, 0.67008793, 0.017503738, 0.74150324, -0.27717382, 0.6963863, 0.3948307, 0
648, 3118940832, -0.028860256, 0.67007077, 0.016164377, 0.7415644, 0.36665866, 1.2853435, -1.133606, 0
649, 3118957499, -0.028455555, 0.66981417, 0.014752582, 0.74184114, 0.93757004, 1.5155363, -0.15045452, 0
650, 3118974166, -0.02808091, 0.66954416, 0.012995705, 0.74213195, 0.106011115, 1.184679, 1.5222425, 0
651, 3118990833, -0.027762383, 0.66947806, 0.011079729, 0.7422347, -0.24343355, 0.054048114, 1.3949766, 0
652, 3119007500, -0.027427167, 0.6692903, 0.009573147, 0.7424373, 1.0629585, -0.64541477, -2.020194, 0
653, 3119024167, -0.026984125, 0.6690089, 0.008548409, 0.7427197, 0.65324515, -0.8069761, -0.04997444, 0
654, 3119040834, -0.026475176, 0.6689545, 0.0074813217, 0.74279845, -0.75400764, -0.20856541, -0.27440357, 0
655, 3119057501, -0.02607289, 0.6689143, 0.006310761, 0.7428597, 0.03189094, 0.05225867, -0.7606125, 0
656, 3119074168, -0.025944024, 0.66887915, 0.005510956, 0.7429023, 0.6072181, -0.152809, 1.9355173, 0
657, 3119090835, -0.026054084, 0.66858155, 0.00512816, 0.743169, 1.230728, 0.53623456, -0.2929592, 0
658, 3119107502, -0.026146233, 0.66798407, 0.004851803, 0.7437047, 2.0818574, 0.07356241, 0.11457157, 0
659, 3119124169, -0.026044533, 0.6674501, 0.0046937466, 0.7441886, 0.8089391, -0.94522357, 0.5014868, 0
660, 3119140836, -0.025834993, 0.66720945, 0.004673913, 0.74441177, -0.09337852, -1.4910252, -0.9658632, 0
661, 3119157503, -0.025718525, 0.6669432, 0.004919052, 0.7446528, 0.19642328, -0.85516214, -0.1444149, 0
662, 3119174170, -0.025761396, 0.6667246, 0.005299121, 0.7448444, -0.30803937, -0.11444126, -0.48080254, 0
663, 3119190837, -0.025899932, 0.6664774, 0.0054537356, 0.7450596, -0.027560545, 0.84626406, 0.14827251, 0
664, 3119207504, -0.026103437, 0.6661568, 0.005430728, 0.7453394, -0.23521514, 0.06620622, -0.2828722, 0
665, 3119224171, -0.026263744, 0.66594434, 0.0055895746, 0.7455224, 0.34811306, -0.6735933, 0.45975208, 0
666, 3119240838, -0.026298046, 0.66583943, 0.006079197, 0.7456111, -0.3707681, -0.76862353, 0.3293972, 0
667, 3119257505, -0.026185527, 0.6657913, 0.006673157, 0.74565303, -0.31336376, -0.5074933, -0.2778101, 0
668, 3119274172, -0.025923267, 0.6656308, 0.0070530325, 0.7458019, 0.43481737, 0.2285981, -1.4206562, 0
669, 3119290839, -0.025691971, 0.6653948, 0.0071430504, 0.74601954, -0.18607806, 0.3179987, 0.67054844, 0
670, 3119307506, -0.025544599, 0.665267, 0.007342726, 0.7461367, -1.0503266, 0.3673896, -0.3972597, 0
671, 3119324173, -0.025410607, 0.6652582, 0.007678136, 0.74614555, -0.782559, 0.57273924, 0.13393688, 0
672, 3119340840, -0.025167346, 0.66533095, 0.007845938, 0.74608743, -0.20293692, 0.35587958, 0.551589, 0
673, 3119357507, -0.024713606, 0.665352, 0.00792551, 0.7460829, 0.29056096, -0.1132567, 0.0049743652, 0
674, 3119374174, -0.024107933, 0.66528493, 0.008160695, 0.74616003, 0.278627, -0.0071226875, 0.4410658, 0
675, 3119390841, -0.023482934, 0.66517496, 0.008312643, 0.7462764, -0.036887676, 0.764635, 0.31023407, 0
676, 3119407508, -0.022919208, 0.66508806, 0.008200869, 0.7463725, -0.79972756, 0.9056688, 0.29770565, 0
677, 3119424175, -0.022381201, 0.6649978, 0.007909119, 0.74647236, 0.42354447, 0.8571879, -0.74208355, 0
678, 3119440842, -0.021841958, 0.66482043, 0.007443145, 0.7466512, 0.063305326, 0.30613172, 0.29831123, 0
679, 3119457509, -0.02133426, 0.66472733, 0.0068108737, 0.74675465, 0.14561707, 0.39481235, -0.8283434, 0
680, 3119474176, -0.020883903, 0.66466796, 0.006043881, 0.7468269, -0.5026057, 0.3922686, 0.4080696, 0
681, 3119490843, -0.020452723, 0.6647281, 0.005028099, 0.74679285, -0.83457124, 0.26569164, -0.3791895, 0
682, 3119507510, -0.020035878, 0.6647924, 0.003884539, 0.7467537, -0.11742872, -0.1035435, 0.08721542, 0
683, 3119524177, -0.019631863, 0.664848, 0.002673775, 0.7467202, -0.7749369, -0.0254845, 0.03191471, 0
684, 3119540844, -0.019377723, 0.66494477, 0.001397863, 0.7466443, -0.11388932, 0.6971501, -0.13659191, 0
685, 3119557511, -0.01921691, 0.6649488, -6.6161156E-6, 0.74664605, -0.2451602, 0.17622611, 0.028495789, 0
686, 3119574178, -0.019152328, 0.6649838, -0.0012821406, 0.74661547, 0.3821258, -0.016621988, 0.27889442, 0
687, 3119590845, -0.019257352, 0.6649941, -0.002349183, 0.746601, 0.028789898, -0.25107569, 0.60900116, 0
688, 3119607512, -0.019478783, 0.66497344, -0.0035215914, 0.7466091, 0.32573098, -0.20424335, 0.10434914, 0
689, 3119624179, -0.019724548, 0.6649023, -0.0048016906, 0.7466586, 0.07808721, -1.2767857, -0.61319065, 0
690, 3119640846, -0.019901037, 0.66500777, -0.005877897, 0.74655247, -0.12612492, -0.9433534, 0.72068596, 0
691, 3119657513, -0.020076782, 0.665089, -0.006923333, 0.74646634, -1.2165252, 0.5231491, -0.23625088, 0
692, 3119674180, -0.020402893, 0.6651713, -0.007984132, 0.74637353, -0.47869092, 0.13686402, 0.96033573, 0
693, 3119690847, -0.020804703, 0.6650374, -0.008750871, 0.7464734, 0.18744354, -0.7347004, -0.88068295, 0
694, 3119707514, -0.021226823, 0.66488504, -0.009188622, 0.7465918, 0.07091196, -1.051144, 0.3050003, 0
695, 3119724181, -0.021687433, 0.66484976, -0.009595983, 0.7466049, -0.5895747, 0.16489054, 0.27407837, 0
696, 3119740848, -0.02230917, 0.66497725, -0.010095924, 0.74646646, -0.80053055, -0.75359607, 1.3557711, 0
697, 3119757515, -0.022809327, 0.6652481, -0.010361873, 0.74620634, -0.7916294, -1.7393719, 0.67823887, 0
698, 3119774182, -0.023151368, 0.6656734, -0.010186568, 0.74581885, -0.63376856, -1.1180978, -1.2196283, 0
699, 3119790849, -0.023290351, 0.6659234, -0.009830587, 0.74559605, 0.22448787, -0.112424895, -0.98123646, 0
700, 3119807516, -0.023283094, 0.6657446, -0.009804413, 0.7457563, 0.31013927, 0.79726267, -0.42926502, 0
701, 3119824183, -0.023429468, 0.6654725, -0.009856112, 0.74599385, -0.8680227, -0.17547064, 0.2535839, 0
702, 3119840850, -0.023839533, 0.66531223, -0.00973279, 0.7461254, -1.7371707, -0.97957736, -0.32827663, 0
703, 3119857517, -0.024358392, 0.6653921, -0.0096549615, 0.7460385, -3.0600865, -1.4881728, 0.21876621, 0
704, 3119874184, -0.02481009, 0.665674, -0.009813078, 0.74577004, -2.6547687, -1.6252347, -0.49658585, 0
705, 3119890851, -0.025237933, 0.6657411, -0.010029927, 0.74569273, -0.71650976, -1.4600916, -1.0889654, 0
706, 3119907518, -0.025653958, 0.66565925, -0.009649284, 0.7457567, -2.2008677, -2.7340314, 1.9225664, 0
707, 3119924185, -0.02598223, 0.6657162, -0.008660167, 0.7457066, -2.5862966, -1.9979367, -2.261095, 0
708, 3119940852, -0.02619645, 0.66576576, -0.007537894, 0.7456671, -3.0992248, -2.634756, 0.504982, 0
709, 3119957519, -0.02639784, 0.66593564, -0.006112501, 0.7455213, -3.2616718, -3.6600091, -0.7279196, 0
710, 3119974186, -0.026647717, 0.66613775, -0.003881976, 0.7453468, -1.7782596, -3.8645122, -1.0534506, 0
711, 3119990853, -0.026850328, 0.66626817, -8.534342E-4, 0.7452326, -2.1148052, -3.9074266, -1.9227653, 0
712, 3120007520, -0.026964217, 0.6666173, 0.0026165992, 0.74491215, -3.2686071, -4.266846, -1.6694136, 0
713, 3120024187, -0.02716209, 0.666752, 0.006126106, 0.7447638, -3.7627127, -4.14317, 1.6187248, 0
714, 3120040854, -0.0278306, 0.6669073, 0.009187669, 0.74456835, -2.0677338, -3.2954688, -0.12957573, 0
715, 3120057521, -0.028964847, 0.66655797, 0.011919662, 0.7447993, -0.03019396, -3.5779703, 3.7072954, 0
716, 3120074188, -0.030291796, 0.6659746, 0.014740631, 0.74521786, 0.8337681, -3.0793433, 0.16740894, 0
717, 3120090855, -0.0312123, 0.6655285, 0.017772108, 0.7455122, 1.213969, -0.5755175, -5.340621, 0
718, 3120107522, -0.03174007, 0.6653977, 0.02054222, 0.74553525, -2.3720834, 0.6500948, -1.2034006, 0
719, 3120124189, -0.03201659, 0.66615045, 0.022515714, 0.7447941, -4.6022434, 1.0664035, 1.6342058, 0
720, 3120140856, -0.032394007, 0.6673844, 0.023709282, 0.7436352, 1.6651524, 4.549022, -7.8570704, 0
721, 3120157523, -0.033071443, 0.66806364, 0.024154544, 0.7429808, 1.6425025, 2.1752665, 0.8883047, 0
722, 3120174190, -0.033585966, 0.6686835, 0.024178132, 0.7423989, 1.3085672, -0.026753886, -1.5566387, 0
723, 3120190857, -0.03368236, 0.66915977, 0.023594141, 0.74198425, 0.9308229, 2.3088894, 2.4914684, 0
724, 3120207524, -0.03339669, 0.66932386, 0.022812426, 0.74187356, -1.6230325, 0.6830545, 4.4649324, 0
725, 3120224191, -0.03297329, 0.6696451, 0.022036165, 0.741626, -0.5649811, 3.5874994, 2.2915182, 0
726, 3120240858, -0.03275484, 0.6696377, 0.020341307, 0.74169093, 0.42023492, 5.281806, -0.21316624, 0
727, 3120257525, -0.032711163, 0.66950667, 0.0180192, 0.7418712, 2.4518754, 2.6423373, 3.6787195, 0
728, 3120274192, -0.03218931, 0.66933477, 0.016234592, 0.74209017, 4.2826476, 0.555195, 2.3204737, 0
729, 3120290859, -0.030367851, 0.6690941, 0.015403166, 0.7424018, 6.072795, 2.3197832, 1.6397858, 0
730, 3120307526, -0.027794972, 0.668439, 0.015238881, 0.74309576, 5.1333356, 5.155962, 0.70726395, 0
731, 3120324193, -0.025535628, 0.66791415, 0.014787197, 0.74365747, 2.6914265, 5.054003, 0.15668964, 0
732, 3120340860, -0.024239078, 0.6675609, 0.013615429, 0.74404037, 2.4329195, 1.7102405, -0.6283388, 0
733, 3120357527, -0.023667172, 0.6674674, 0.012109444, 0.7441687, 2.68349, -1.0728961, -1.1163721, 0
734, 3120374194, -0.023180291, 0.6674254, 0.010402739, 0.74424756, 2.2189128, -0.29431313, 2.139061, 0
735, 3120390861, -0.02264157, 0.6673703, 0.008700207, 0.7443356, 2.8825321, 1.1129334, 0.13481426, 0
736, 3120407528, -0.022136837, 0.66677773, 0.0073717833, 0.7448958, 4.1213856, 1.787192, 0.44549084, 0
737, 3120424195, -0.021864623, 0.6660596, 0.0063665807, 0.7455552, 1.6845477, 0.58746415, -0.2945366, 0
738, 3120440862, -0.021829411, 0.6657386, 0.0052394867, 0.7458516, 0.35985306, 0.13166422, -1.6729746, 0
739, 3120457529, -0.02193062, 0.6657928, 0.003887117, 0.74580854, -1.4035902, -0.6875295, -1.889565, 0
740, 3120474196, -0.022272035, 0.6662197, 0.0023609847, 0.7454235, -0.50714356, -0.40384638, -0.6937361, 0
741, 3120490863, -0.023007914, 0.6665274, 7.63461E-4, 0.74512935, 0.14041243, 0.030681064, 0.80976963, 0
742, 3120507530, -0.023869932, 0.6665571, -8.390248E-4, 0.7450756, 1.6611452, -0.61777264, 0.8404112, 0
743, 3120524197, -0.02465947, 0.6665398, -0.002153322, 0.7450628, 1.0161825, -1.228273, -0.32379627, 0
744, 3120540864, -0.02539292, 0.6666048, -0.003226027, 0.7449761, 0.51660377, -0.9312431, 0.14921474, 0
745, 3120557531, -0.026191026, 0.66678184, -0.004267171, 0.7447848, -1.3917499, -0.6360248, -0.10212612, 0
746, 3120574198, -0.02722536, 0.6670123, -0.005287394, 0.74453497, -1.1767446, -0.4676661, -1.2310743, 0
747, 3120590865, -0.028433159, 0.6668724, -0.0059969574, 0.74460953, 0.6564325, -0.6932826, -1.0196943, 0
748, 3120607532, -0.029717445, 0.66679305, -0.0065274835, 0.74462605, -0.16264942, -1.6797199, 1.679203, 0
749, 3120624199, -0.030792043, 0.6668947, -0.006889634, 0.7444882, -0.5423203, -1.7431954, 0.018312454, 0
750, 3120640866, -0.031676844, 0.6669039, -0.006619796, 0.7444451, 0.66017383, -1.7275062, -0.5217438, 0
751, 3120657533, -0.03233263, 0.66695434, -0.0054887086, 0.74438083, 0.21135813, -1.7076654, 1.1737022, 0
752, 3120674200, -0.032821104, 0.6670586, -0.0041712523, 0.7442747, -0.5866264, 0.17936446, 0.4776249, 0
753, 3120690867, -0.03342837, 0.6671437, -0.00338161, 0.7441754, -0.59075487, 0.093156844, 0.39056015, 0
754, 3120707534, -0.034157977, 0.6670858, -0.002426669, 0.7441979, 0.7823353, -1.7909963, -0.8963852, 0
755, 3120724201, -0.034808487, 0.6668618, -8.112788E-4, 0.74437183, 1.6203538, -1.877854, 0.112727165, 0
756, 3120740868, -0.03527367, 0.66680765, 8.980185E-4, 0.7443985, -1.0945867, -0.5863793, -0.5846138, 0
757, 3120757535, -0.035695866, 0.66671944, 0.002493918, 0.74445367, 0.53911644, 0.1876863, -0.011335373, 0
758, 3120774202, -0.03616339, 0.6665372, 0.004226744, 0.7445866, 0.2556682, -1.1449904, 0.9440069, 0
759, 3120790869, -0.036639184, 0.66635776, 0.005936891, 0.74471223, 0.76695645, 0.49772283, 0.25345707, 0
760, 3120807536, -0.037113324, 0.6661353, 0.007280454, 0.7448759, -0.53109384, 1.2514553, 0.349967, 0
761, 3120824203, -0.037452966, 0.6660372, 0.008276373, 0.7449362, -0.31346217, 0.5560272, -0.4194746, 0
762, 3120840870, -0.037530392, 0.66593015, 0.009240612, 0.74501646, 0.45256042, -0.25593123, -0.5810461, 0
763, 3120857537, -0.03724633, 0.6658108, 0.010291055, 0.7451236, -0.49077338, 0.25219426, -0.6651411, 0
764, 3120874204, -0.03679864, 0.665737, 0.011214957, 0.74519837, -1.2356802, 1.4644204, 0.5234585, 0
765, 3120890871, -0.036253735, 0.6656649, 0.011887819, 0.74527925, -0.60533077, 0.83919346, -0.6825962, 0
766, 3120907538, -0.03550622, 0.6659113, 0.012440696, 0.745086, -0.5288183, 0.3757018, -0.12982559, 0
767, 3120924205, -0.034623697, 0.66614956, 0.012889013, 0.74490684, -0.52400106, 1.4884192, 0.26239967, 0
768, 3120940872, -0.033791512, 0.66633075, 0.013081357, 0.7447798, 0.11931362, 1.1278969, 0.053175926, 0
769, 3120957539, -0.032943502, 0.66633534, 0.013025701, 0.7448146, 1.2398132, 0.16306701, 0.68422604, 0
770, 3120974206, -0.032108635, 0.66628045, 0.013246551, 0.74489635, 0.5387369, -0.15596734, 1.2432766, 0
771, 3120990873, -0.03126672, 0.6663784, 0.013665482, 0.744837, 0.1083334, 0.0864709, 1.06773, 0
772, 3121007540, -0.030258432, 0.6666371, 0.013815597, 0.7446443, -0.83678526, 0.023245012, 1.1349897, 0
773, 3121024207, -0.029173613, 0.6669104, 0.013964087, 0.7444402, -0.38632473, 0.4048912, -0.30104256, 0
774, 3121040874, -0.028080419, 0.6669089, 0.014409468, 0.7444749, 1.4650635, 0.8673808, -2.0464616, 0
775, 3121057541, -0.027007729, 0.666746, 0.014743105, 0.74465406, 1.5371739, 0.5345202, -0.07091427, 0
776, 3121074208, -0.025997415, 0.66664004, 0.014915973, 0.7447813, 0.1611697, 0.67556477, -0.38311863, 0
777, 3121090875, -0.025176257, 0.666516, 0.015158698, 0.7449157, 0.87853724, 0.013836569, -0.07910538, 0
778, 3121107542, -0.024340406, 0.6663265, 0.015439928, 0.7451071, -0.13098888, -0.49403405, 0.73907566, 0
779, 3121124209, -0.023569271, 0.66647893, 0.015675187, 0.74499065, -1.4085761, -0.099072345, 0.112895966, 0
780, 3121140876, -0.022779912, 0.6665284, 0.015571699, 0.74497306, -0.1713971, 0.8914878, -1.1965008, 0
781, 3121157543, -0.022022575, 0.6666545, 0.015147239, 0.74489176, -0.45721307, -0.004453831, 0.73518467, 0
782, 3121174210, -0.021260858, 0.666936, 0.014922172, 0.74466664, -0.49148145, 0.07386131, -0.578907, 0
783, 3121190877, -0.020444676, 0.6671585, 0.014509112, 0.7444983, 0.1591077, 1.28025, 0.25202656, 0
784, 3121207544, -0.01961705, 0.66731215, 0.013834432, 0.7443956, 0.05304982, 0.8282546, -0.08943653, 0
785, 3121224211, -0.01891075, 0.6671922, 0.013242215, 0.7445321, 0.6635095, 0.3681008, 0.05535698, 0
786, 3121240878, -0.01832354, 0.66713554, 0.012466505, 0.7446111, -0.12241729, 0.6192474, 0.87020016, 0
787, 3121257545, -0.017867908, 0.6671862, 0.011243165, 0.7445962, -0.87389153, 0.65142196, 1.0447178, 0
788, 3121274212, -0.017440692, 0.6672201, 0.009820819, 0.7445962, -0.24225762, 0.25179487, -0.33555222, 0
789, 3121290879, -0.016971588, 0.667219, 0.008496776, 0.74462426, 1.0804445, 0.54911745, 0.87933445, 0
790, 3121307546, -0.016557872, 0.6669043, 0.007296458, 0.744928, 0.7530383, 1.0749834, 1.4741869, 0
791, 3121324213, -0.01626122, 0.66662794, 0.00594832, 0.7451939, -0.24946767, 0.26157564, 0.5494423, 0
792, 3121340880, -0.01597251, 0.6664775, 0.0046194643, 0.7453442, 0.60187894, -0.65488255, -0.9914818, 0
793, 3121357547, -0.015633896, 0.66648734, 0.003649354, 0.7453478, -0.08698465, -0.72312725, -0.23371792, 0
794, 3121374214, -0.015408754, 0.66670084, 0.002677679, 0.7451656, -0.32824937, 0.7152888, -1.3704481, 0
795, 3121390881, -0.015385672, 0.6667141, 0.001364708, 0.7451579, -0.0678699, 0.9840699, 0.08834839, 0
796, 3121407548, -0.015526667, 0.66683877, 1.7599761E-4, 0.7450447, 0.16460188, -0.7761626, 0.08072376, 0
797, 3121424215, -0.015647277, 0.6669656, -6.083548E-4, 0.74492836, 0.38365623, -0.8030455, -1.3546896, 0
798, 3121440882, -0.015726611, 0.666961, -0.0013515651, 0.7449298, 0.3190604, -0.28045857, 0.057507515, 0
799, 3121457549, -0.015810713, 0.6670144, -0.0021027774, 0.7448785, 0.51097304, -0.6265826, -0.20121479, 0
800, 3121474216, -0.015895978, 0.66699386, -0.0027176887, 0.744893, 0.3386889, -0.1546361, 0.10799408, 0
801, 3121490883, -0.016080514, 0.6669655, -0.0030173957, 0.74491334, -0.17706865, -0.18161377, 0.60906696, 0
802, 3121507550, -0.016338646, 0.66711617, -0.0030288696, 0.7447728, 0.23516153, -0.07907117, 0.37117672, 0
803, 3121524217, -0.016473815, 0.66720897, -0.003263846, 0.74468565, 0.39268714, 0.14521201, 0.09678936, 0
804, 3121540884, -0.016536742, 0.6674135, -0.0034784824, 0.7444999, 1.1591328, -0.7497469, 0.2007122, 0
805, 3121557551, -0.016479999, 0.66748446, -0.0031568706, 0.744439, 1.4243836, -0.50065416, 0.9858856, 0
806, 3121574218, -0.016449168, 0.66748565, -0.0026263893, 0.7444408, 0.5405878, 0.43681568, 0.14114666, 0
807, 3121590885, -0.016393661, 0.6673944, -0.002251923, 0.7445249, 1.3442278, 0.95537907, -0.08300495, 0
808, 3121607552, -0.016367972, 0.6670931, -0.0017524809, 0.7447969, 1.6968936, 0.029672239, 0.7724428, 0
809, 3121624219, -0.01623626, 0.6669882, -0.0012691915, 0.7448947, 0.9775805, -0.099918894, 0.35019588, 0
810, 3121640886, -0.01613842, 0.66688585, -9.2849135E-4, 0.744989, 0.6793686, 0.4549136, -0.72916603, 0
811, 3121657553, -0.016028464, 0.6667905, -6.1902404E-4, 0.745077, 1.3807915, -0.04623088, 0.63457584, 0
812, 3121674220, -0.01595053, 0.6667819, -3.1992793E-4, 0.7450865, 0.2576447, 0.38830677, 0.23907661, 0
813, 3121690887, -0.015931353, 0.66670895, -2.167821E-4, 0.7451522, 0.44942325, 1.142945, -0.41111755, 0
814, 3121707554, -0.015913025, 0.666642, -3.8439035E-4, 0.74521244, 0.40415356, 0.5740259, 0.42099094, 0
815, 3121724221, -0.015878126, 0.6664948, -4.2264163E-4, 0.7453449, 1.329142, 7.985E-4, -0.74645424, 0
816, 3121740888, -0.0157457, 0.6665119, -3.8911402E-4, 0.7453326, 0.13887317, 0.1725463, 0.56614494, 0
817, 3121757555, -0.015567675, 0.66660184, -6.568432E-4, 0.74525553, -0.7756526, 0.8969381, -0.019982338, 0
818, 3121774222, -0.015318066, 0.6667235, -0.0010802895, 0.74515146, -0.27718952, 0.08630126, -0.049941063, 0
819, 3121790889, -0.0148961395, 0.666929, -0.0013533831, 0.74497557, -0.062880576, 0.20046777, -0.20678139, 0
820, 3121807556, -0.014463842, 0.66702616, -0.0014513582, 0.7448969, 0.223858, 0.97694427, -0.305686, 0
821, 3121824223, -0.014014706, 0.66694826, -0.0018536747, 0.7449742, 0.48235303, 0.8093095, 0.3269434, 0
822, 3121840890, -0.013623625, 0.6668534, -0.002494499, 0.7450647, 0.76129186, 0.16286339, 0.23438835, 0
823, 3121857557, -0.0132712275, 0.66669893, -0.0030530244, 0.7452072, 0.037518103, 0.05299604, 0.5509119, 0
824, 3121874224, -0.012990847, 0.6665875, -0.0035163164, 0.74530977, -0.35999703, -0.050960355, 0.16416359, 0
825, 3121890891, -0.012698755, 0.666638, -0.0042083412, 0.74526614, -0.28743896, 0.087767504, -0.27001476, 0
826, 3121907558, -0.012439802, 0.66666824, -0.005123481, 0.7452376, -0.13469598, 0.2579762, 0.63508034, 0
827, 3121924225, -0.01236102, 0.6668211, -0.0060328394, 0.7450954, -0.15623827, -0.0025278197, -0.6757345, 0
828, 3121940892, -0.012452975, 0.6668264, -0.0071105063, 0.74507946, 1.3862996, 0.10726063, -0.1566906, 0
829, 3121957559, -0.012712285, 0.66667295, -0.0083464235, 0.7451995, 0.9861221, -0.18187025, 0.7062206, 0
830, 3121974226, -0.013173625, 0.66653323, -0.009498529, 0.74530274, 1.1341381, -0.35941935, 0.06038952, 0
831, 3121990893, -0.0137408525, 0.6664606, -0.010543339, 0.74534357, -4.5637155E-4, -0.7166921, -0.19268513, 0
832, 3122007560, -0.014448151, 0.6664843, -0.011487797, 0.7452949, 0.94935405, -0.18022023, -0.46877003, 0
833, 3122024227, -0.015220836, 0.6664025, -0.012510948, 0.7453363, 0.8624562, -0.27513695, 0.64625835, 0
834, 3122040894, -0.016202018, 0.66629213, -0.013297081, 0.74540055, 1.1747301, -0.844753, -0.34265423, 0
835, 3122057561, -0.017280042, 0.6662385, -0.013892658, 0.74541366, 0.6309283, -0.7847038, 0.8358135, 0
836, 3122074228, -0.018455908, 0.66622907, -0.014343023, 0.7453851, -0.13101275, -0.59704894, 0.47635746, 0
837, 3122090895, -0.019685835, 0.666223, -0.014687553, 0.7453525, 0.42741206, -1.082224, 0.20302963, 0
838, 3122107562, -0.020718947, 0.66608447, -0.014754236, 0.7454468, 0.49069363, -1.4556744, -0.3581915, 0
839, 3122124229, -0.021605715, 0.66582346, -0.014166005, 0.74566627, 0.36591756, -0.502808, 0.043661118, 0
840, 3122140896, -0.022373289, 0.66568196, -0.013443001, 0.7457834, -0.17341876, -0.11637157, -0.061416626, 0
841, 3122157563, -0.023036271, 0.6655065, -0.012755245, 0.74593186, -0.19394758, -0.82679754, -0.8771801, 0
842, 3122174230, -0.02363868, 0.6653446, -0.01180014, 0.7460732, 0.05322644, -1.5757066, -0.49874783, 0
843, 3122190897, -0.024137095, 0.66530806, -0.010667279, 0.74610704, -1.2527136, -1.3117114, -0.19782162, 0
844, 3122207564, -0.02473481, 0.66528136, -0.009614669, 0.7461254, -1.910774, -0.88839835, -0.3180418, 0
845, 3122224231, -0.025305524, 0.66532713, -0.00875771, 0.74607605, -2.0609546, -1.7625014, -0.64035225, 0
846, 3122240898, -0.025790483, 0.6652217, -0.007878296, 0.74616325, -1.2871834, -1.0966374, -0.5373974, 0
847, 3122257565, -0.026362196, 0.66503674, -0.0068582743, 0.746318, -2.637891, -0.36271113, 1.8206873, 0
848, 3122274232, -0.027041093, 0.6650518, -0.0061341375, 0.74628663, -1.8452665, -0.5431481, 0.26923847, 0
849, 3122290899, -0.027568817, 0.6649853, -0.005699098, 0.74633, -1.2119931, -1.3351549, -1.3784008, 0
850, 3122307566, -0.027887657, 0.6647916, -0.0048154593, 0.746497, -1.4835267, -2.1080062, -0.699893, 0
851, 3122324233, -0.027743667, 0.6645946, -0.0033265948, 0.7466859, -3.1629052, -1.6205013, 0.3959427, 0
852, 3122340900, -0.027430922, 0.6645672, -0.0021532476, 0.74672616, -2.5789142, 0.5377033, -1.1328506, 0
853, 3122357567, -0.027157739, 0.66455233, -0.001194179, 0.7467515, -2.8444083, -1.8312807, 1.5897322, 0
854, 3122374234, -0.027073711, 0.6648255, -6.93351E-5, 0.7465124, -1.6706407, -2.0847883, -1.1878014, 0
855, 3122390901, -0.027016357, 0.66500574, 9.610802E-4, 0.74635315, -1.1004282, -1.1124794, 0.22737503, 0
856, 3122407568, -0.027099282, 0.66514015, 0.0016322136, 0.7462293, -1.4037461, -0.945423, -0.2811699, 0
857, 3122424235, -0.027025148, 0.665409, 0.002173543, 0.74599075, -2.5790954, -1.5978291, -0.47243977, 0
858, 3122440902, -0.02699931, 0.6655311, 0.002855301, 0.74588054, -1.4199392, -1.1305023, 0.073431015, 0
859, 3122457569, -0.027067035, 0.66541374, 0.0034848452, 0.74598014, -1.4587778, -0.9636439, -0.7370224, 0
860, 3122474236, -0.027358502, 0.66560614, 0.0038100928, 0.745796, -2.0121677, -0.7068443, -2.1144671, 0
861, 3122490903, -0.027965412, 0.6660036, 0.0033769011, 0.7454208, -2.9053211, -0.07013181, -2.6963992, 0
862, 3122507570, -0.02877663, 0.6664235, 0.002368316, 0.7450186, -1.6764911, -1.1125998, -0.41446972, 0
863, 3122524237, -0.02947937, 0.66673523, 0.001604557, 0.74471414, -1.8963903, -1.3156784, -0.81655025, 0
864, 3122540904, -0.03032042, 0.66709995, 8.4744394E-4, 0.74435484, -2.1378582, -1.3932207, -0.6363125, 0
865, 3122557571, -0.03140779, 0.6675109, -5.6807697E-4, 0.7439415, -3.0468118, -1.5348995, -0.08050251, 0
866, 3122574238, -0.03287694, 0.66812974, -0.0024493933, 0.7433185, -1.9554225, -2.182705, -1.2542458, 0
867, 3122590905, -0.03428401, 0.6686969, -0.0041371733, 0.7427372, 0.23712409, -1.5649599, -0.06345844, 0
868, 3122607572, -0.03538601, 0.6692537, -0.0050334334, 0.7421783, -0.80994356, -0.77500904, 2.393259, 0
869, 3122624239, -0.03629504, 0.66929936, -0.0055395663, 0.7420895, 1.0787419, 2.0296729, 4.792844, 0
870, 3122640906, -0.037109256, 0.66906977, -0.0060342997, 0.74225247, 1.5892179, 0.8039051, 3.2437582, 0
871, 3122657573, -0.03788598, 0.66873294, -0.006225437, 0.7425151, 3.7532613, 0.031896416, 1.9047785, 0
872, 3122674240, -0.0383299, 0.66814196, -0.0059787184, 0.74302614, 5.5712414, 1.0086199, -2.6277752, 0
873, 3122690907, -0.03795573, 0.66775626, -0.0050824136, 0.7433987, 6.053178, 2.3087392, 0.6715832, 0
874, 3122707574, -0.037111282, 0.66749823, -0.0035233349, 0.74368197, 4.2950892, 3.5059226, 1.3177834, 0
875, 3122724241, -0.03632778, 0.66735655, -0.0019475222, 0.74385357, 5.5861287, 3.5488772, 1.5920172, 0
876, 3122740908, -0.035842746, 0.66709447, -3.874898E-4, 0.74411464, 6.2453446, 1.9721699, -0.724452, 0
877, 3122757575, -0.035567805, 0.66670686, 9.2345476E-4, 0.7444747, 6.246783, 2.0664947, 0.07509613, 0
878, 3122774242, -0.03573619, 0.66635996, 0.0013577491, 0.74477655, 3.7409267, 2.2195683, 0.07665825, 0
879, 3122790909, -0.03631136, 0.6661593, 9.68501E-4, 0.74492884, 3.6658075, 1.3961633, 0.12392998, 0
880, 3122807576, -0.036999002, 0.665942, 7.0902705E-4, 0.74508953, 2.2272341, -0.2876824, -0.30794048, 0
881, 3122824243, -0.037626073, 0.6659102, 4.5377016E-4, 0.7450867, 1.474045, 0.2338606, -0.84343624, 0
882, 3122840910, -0.038248554, 0.6659335, -4.14595E-4, 0.7450343, 0.6760813, 1.0339483, 0.39402008, 0
883, 3122857577, -0.03898008, 0.66618484, -0.0016254783, 0.74476993, -0.026017467, 0.37665185, -0.3803501, 0
884, 3122874244, -0.03987348, 0.666409, -0.0028890371, 0.7445181, 1.7228118, 1.0285462, -0.057738304, 0
885, 3122890911, -0.040766552, 0.6664402, -0.00426732, 0.7444353, 0.60456914, 0.5762326, 1.2421341, 0
886, 3122907578, -0.041641697, 0.6664876, -0.00542368, 0.74433696, 0.5566033, -0.23051418, 1.330205, 0
887, 3122924245, -0.042378813, 0.66631037, -0.0062779486, 0.7444472, 0.45860568, -0.45145112, -1.4829884, 0
888, 3122940912, -0.042974308, 0.6661368, -0.0065556765, 0.7445661, 0.42727044, -1.0989586, -0.38762474, 0
889, 3122957579, -0.043470442, 0.6661788, -0.0063965917, 0.74450105, -0.435727, -0.84190226, -0.4201231, 0
890, 3122974246, -0.043978035, 0.6663677, -0.0062887967, 0.74430305, -1.0003641, -1.0100404, 1.2590199, 0
891, 3122990913, -0.04447177, 0.66662407, -0.005636856, 0.7440493, 0.5417418, -1.9648166, -0.9025965, 0
892, 3123007580, -0.044789642, 0.6667297, -0.0042804778, 0.7439447, 1.2225808, -2.2067227, 0.32113552, 0
893, 3123024247, -0.04499632, 0.66692406, -0.0023269057, 0.7437668, 0.029644258, -1.866338, 0.47364616, 0
894, 3123040914, -0.045365065, 0.6669231, -4.453957E-5, 0.74374884, 0.8882234, -1.0141048, -1.1330643, 0
895, 3123057581, -0.045719385, 0.6668642, 0.0022187382, 0.74377644, 1.3859004, -1.7207862, 1.1699057, 0
896, 3123074248, -0.04607369, 0.66671187, 0.004670292, 0.7438799, -0.17960732, -1.0490158, 0.38003922, 0
897, 3123090915, -0.046620816, 0.6665073, 0.0070586205, 0.7440103, 0.23613389, -0.5327773, -0.79035854, 0
898, 3123107582, -0.04713036, 0.6665729, 0.009119749, 0.7438969, -0.75441027, -1.2754065, -0.046977043, 0
899, 3123124249, -0.047648758, 0.6667509, 0.0113554, 0.7436737, 0.005558935, -0.5481057, -0.6222286, 0
900, 3123140916, -0.047958404, 0.66679174, 0.013562933, 0.7435799, 0.5835119, -0.55263805, -1.3356247, 0
901, 3123157583, -0.047951326, 0.6665778, 0.015666932, 0.74373084, 1.5522436, 1.0196176, 0.50387955, 0
902, 3123174250, -0.047974348, 0.6663499, 0.017702863, 0.74388814, -0.5386794, 1.1264539, 1.1356993, 0
903, 3123190917, -0.04780963, 0.66627526, 0.019283623, 0.7439262, -0.5920233, 0.7917694, 1.7978611, 0
904, 3123207584, -0.04752077, 0.66630656, 0.020724982, 0.743878, -0.6068788, -0.3011683, -0.00992012, 0
905, 3123224251, -0.047025412, 0.66639173, 0.022373617, 0.74378544, -0.031388428, -0.3392476, -0.20823288, 0
906, 3123240918, -0.04627399, 0.66621524, 0.024077907, 0.7439373, 0.86870503, 0.8189669, -1.9565105, 0
907, 3123257585, -0.04539819, 0.6657562, 0.025363892, 0.74435943, 1.1826786, 1.5466149, 0.6563139, 0
908, 3123274252, -0.044503793, 0.6652635, 0.026199684, 0.7448248, -0.058897953, 0.8552825, 0.15702343, 0
909, 3123290919, -0.043777615, 0.6648605, 0.027262121, 0.7451895, 0.45861486, 0.08644721, 1.2523642, 0
910, 3123307586, -0.042880923, 0.6648791, 0.028262272, 0.74518776, -1.4079564, -0.3606338, 1.405467, 0
911, 3123324253, -0.041847646, 0.6652948, 0.029103726, 0.74484295, -1.6993866, 0.20360596, 0.730731, 0
912, 3123340920, -0.04061486, 0.66579556, 0.02982524, 0.74443525, -0.9210371, -0.05223196, -1.4571419, 0
913, 3123357587, -0.039193034, 0.6658156, 0.030450955, 0.74446815, 2.2178478, 2.136752, -2.2221055, 0
914, 3123374254, -0.038008377, 0.6653981, 0.031082213, 0.74487674, 1.6106284, 1.8060899, 0.92725086, 0
915, 3123390921, -0.03696032, 0.6651087, 0.03130929, 0.7451782, 0.33788547, 1.2969196, 0.6952877, 0
916, 3123407588, -0.036070734, 0.66503984, 0.031335995, 0.74528223, -0.19247447, 0.08904678, 1.6045542, 0
917, 3123424255, -0.035072863, 0.6652714, 0.031409517, 0.7451198, -0.5917119, -0.9458902, 0.035553932, 0
918, 3123440922, -0.033909947, 0.6656195, 0.031594694, 0.74485505, -0.26786235, 0.52445227, -0.54717827, 0
919, 3123457589, -0.032832444, 0.66599965, 0.031536534, 0.7445659, 0.41355878, 1.7251191, -0.30981636, 0
920, 3123474256, -0.031908482, 0.666241, 0.030984163, 0.74441344, 1.2166208, 2.0750368, -0.1666727, 0
921, 3123490923, -0.031173572, 0.66619986, 0.030101612, 0.7445177, 1.0027767, 1.1308178, 0.9173498, 0
922, 3123507590, -0.030590564, 0.6661762, 0.02932401, 0.7445938, 0.11096287, -0.02526121, -0.56667614, 0
923, 3123524257, -0.03002359, 0.6660695, 0.028584495, 0.7447412, 0.31645125, 0.3344853, 0.38555908, 0
924, 3123540924, -0.029401869, 0.66619843, 0.0276137, 0.7446872, -1.161728, 0.2477583, -0.3550787, 0
925, 3123557591, -0.028717652, 0.66655356, 0.02637203, 0.7444412, -0.39732015, 0.61640084, -1.4994755, 0
926, 3123574258, -0.027955115, 0.6666914, 0.025057375, 0.7443922, 0.85700536, 1.3469903, -0.025907516, 0
927, 3123590925, -0.027441248, 0.6667593, 0.0238657, 0.74438965, 0.32735866, 1.4387524, 1.0923414, 0
928, 3123607592, -0.027029216, 0.66667634, 0.022543192, 0.74452025, 0.09807989, 0.7664173, 2.4092808, 0
929, 3123624259, -0.026592836, 0.66670656, 0.021270812, 0.74454635, -0.43066978, -1.4850432, 0.1790924, 0
930, 3123640926, -0.02592662, 0.6667206, 0.020546198, 0.74457765, 0.8855514, -1.4905291, -0.23187065, 0
931, 3123657593, -0.025141448, 0.6667215, 0.020198494, 0.7446132, -0.40053254, 0.41966194, -1.2204647, 0
932, 3123674260, -0.024518773, 0.66682005, 0.0196902, 0.7445594, 0.2225138, 1.7667426, 0.37779045, 0
933, 3123690927, -0.023994178, 0.666788, 0.01878734, 0.7446285, 0.23893169, 1.270746, 0.8553791, 0
934, 3123707594, -0.023599312, 0.6667732, 0.01819159, 0.74466914, 1.0086086, -0.23144616, 0.23856068, 0
935, 3123724261, -0.023127824, 0.6665659, 0.018152863, 0.74487036, 1.5779525, -0.4652104, 0.1480999, 0
936, 3123740928, -0.022493854, 0.6664095, 0.018164158, 0.74502945, -0.01611496, 0.055506, 0.32264328, 0
937, 3123757595, -0.021891892, 0.66640645, 0.018047735, 0.74505305, -0.09470579, -0.025215838, -0.46865273, 0
938, 3123774262, -0.021207765, 0.6664464, 0.017966792, 0.7450393, 0.52087367, -0.1489059, -0.20700073, 0
939, 3123790929, -0.020600513, 0.6664871, 0.017914414, 0.74502087, 0.113021955, 0.81245965, -1.0300245, 0
940, 3123807596, -0.020145595, 0.6664836, 0.01768975, 0.7450419, 0.6868784, 1.1661086, 0.9501524, 0
941, 3123824263, -0.019718707, 0.66662925, 0.017255366, 0.7449332, -0.24273463, 0.4806627, -0.42251492, 0
942, 3123840930, -0.019285142, 0.666732, 0.016782299, 0.7448634, 0.735175, 0.19515274, -0.6548052, 0
943, 3123857597, -0.018825606, 0.6667455, 0.016224012, 0.74487543, 0.19304962, 0.346895, -0.0022964478, 0
944, 3123874264, -0.018427193, 0.6668453, 0.015433937, 0.7448128, 0.105597414, 1.0009066, 0.49574566, 0
945, 3123890931, -0.01805593, 0.66687196, 0.014482304, 0.7448172, -0.23693058, 1.2425641, 0.50022316, 0
946, 3123907598, -0.017699853, 0.6668998, 0.013539776, 0.7448186, 0.6471723, 0.8912961, 1.1186581, 0
947, 3123924265, -0.017204419, 0.6668999, 0.012597486, 0.7448465, 0.32103592, 0.40033898, 0.7155628, 0
948, 3123940932, -0.016553313, 0.666982, 0.011788532, 0.74480116, 0.09748567, 0.24342503, -0.5117388, 0
949, 3123957599, -0.015816376, 0.66712224, 0.0111103505, 0.7447019, 0.56300735, 0.26864716, 0.32564926, 0
950, 3123974266, -0.014992833, 0.66725296, 0.010278925, 0.74461377, -0.37681112, 1.2111927, -0.048584938, 0
951, 3123990933, -0.01432164, 0.6672848, 0.009444043, 0.7446094, 0.6615962, 1.3342831, -0.140419, 0
952, 3124007600, -0.01368466, 0.66692865, 0.008718908, 0.74494934, 1.9561738, 0.88937145, -0.041916847, 0
953, 3124024267, -0.0129484385, 0.6666606, 0.0079021305, 0.7452114, 0.048328057, 0.64898187, 1.1032915, 0
954, 3124040934, -0.012320861, 0.6666141, 0.007145524, 0.74527127, -0.8309876, 0.21867089, 0.24398804, 0
955, 3124057601, -0.0116027, 0.6667418, 0.006218493, 0.74517703, -0.1847488, 0.08583255, 0.7777691, 0
956, 3124074268, -0.010918573, 0.6671633, 0.0051089674, 0.74481857, -1.5114874, -0.20004688, 0.028002739, 0
957, 3124090935, -0.010353312, 0.6673689, 0.004076928, 0.74464846, 0.92636573, 0.7985086, -1.8265395, 0
958, 3124107602, -0.009825185, 0.66722393, 0.0027368665, 0.74479175, 1.4204642, 0.95691013, -0.80691147, 0
959, 3124124269, -0.009500846, 0.6669459, 0.00124681, 0.74504894, 1.4475648, 1.191692, -0.36715412, 0
960, 3124140936, -0.009405538, 0.6666857, -2.0715594E-4, 0.745284, -0.395362, 0.2241683, 1.0018501, 0
961, 3124157603, -0.009328023, 0.6667894, -0.0018755496, 0.7451899, -1.2000831, 0.014705823, -0.33426476, 0
962, 3124174270, -0.009386048, 0.666902, -0.0036104769, 0.74508196, -0.3044833, -0.6276561, 0.5935917, 0
963, 3124190937, -0.00955984, 0.66706556, -0.0051751286, 0.7449241, -0.54712665, -1.0907048, 0.2453394, 0
964, 3124207604, -0.009881422, 0.6671861, -0.0065642297, 0.744801, 1.0806053, -0.44135606, -0.20593262, 0
965, 3124224271, -0.010335043, 0.6670595, -0.007843792, 0.7448958, 0.76676667, -0.56791604, 0.9995184, 0
966, 3124240938, -0.010964423, 0.66698766, -0.009240694, 0.7449352, 0.16927008, -0.32037273, 0.78339195, 0
967, 3124257605, -0.011832744, 0.6668195, -0.010457754, 0.7450564, -0.09793585, -0.8036518, 0.62733173, 0
968, 3124274272, -0.0128291845, 0.6667497, -0.011395134, 0.7450886, -0.59790474, -0.9335932, -1.0444698, 0
969, 3124290939, -0.013790131, 0.666693, -0.012250744, 0.7451084, -0.058090724, -0.9958881, -0.52635, 0
970, 3124307606, -0.014632329, 0.66676545, -0.01279626, 0.74501836, -1.4839678, -1.3376825, -0.14323616, 0
971, 3124324273, -0.015403017, 0.66692543, -0.012913629, 0.7448577, -1.2621493, -0.8431134, -0.015123367, 0
972, 3124340940, -0.016047299, 0.6668546, -0.0126302615, 0.7449123, -0.328605, -0.93298334, -0.7784014, 0
973, 3124357607, -0.016548216, 0.6663902, -0.012065686, 0.7453262, -0.3532998, -1.3441756, 0.75620747, 0
974, 3124374274, -0.01678294, 0.6659846, -0.011069834, 0.74569887, -1.8347763, -1.9178319, -0.87685394, 0
975, 3124390941, -0.016744673, 0.6656922, -0.009642214, 0.7459806, -2.7115872, -0.8655116, -1.4222412, 0
976, 3124407608, -0.016530618, 0.6656823, -0.0081710145, 0.74601185, -3.4509153, -1.2873247, -1.6462412, 0
977, 3124424275, -0.016098052, 0.66587293, -0.0068660453, 0.74586433, -2.101914, -0.2486566, -0.4965372, 0
978, 3124440942, -0.015696093, 0.66605514, -0.0056627095, 0.7457204, -2.1576734, -0.21046203, 0.15325642, 0
979, 3124457609, -0.015376195, 0.666283, -0.0045919865, 0.74553066, -1.1132609, -0.0074523687, 1.1899414, 0
980, 3124474276, -0.01500164, 0.66629106, -0.0040314943, 0.7455346, 0.0126355225, 0.34871408, 0.8235369, 0
981, 3124490943, -0.014613181, 0.66617614, -0.0037003607, 0.74564654, 0.4826726, -0.4602703, 1.2855282, 0
982, 3124507610, -0.014081821, 0.6661963, -0.0036406368, 0.745639, -1.2007535, -0.72182333, 0.36418247, 0
983, 3124524277, -0.013574004, 0.6664067, -0.003870353, 0.74545926, -2.5529935, -0.42456827, -3.438775, 0
984, 3124540944, -0.013360709, 0.66655463, -0.00423193, 0.7453289, -1.3655688, -1.1288944, -1.6816483, 0
985, 3124557611, -0.013478696, 0.66680044, -0.0048104525, 0.74510336, -3.420862, -0.43355358, 1.8674831, 0
986, 3124574278, -0.01405862, 0.66706806, -0.005973175, 0.74484456, -1.330941, 0.10543799, 3.994279, 0
987, 3124590945, -0.0147244185, 0.66678804, -0.007051818, 0.7450729, 2.5623016, -1.586195, -0.75387, 0
988, 3124607612, -0.015076965, 0.6666332, -0.00697881, 0.7452051, -0.6164053, -3.6503146, -4.191648, 0
989, 3124624279, -0.015195891, 0.66747093, -0.0060723573, 0.74446046, -5.2652, -4.844752, -6.901699, 0
990, 3124640946, -0.015334815, 0.66894484, -0.005193174, 0.74314004, -4.0906415, -5.3485327, -0.3860607, 0
991, 3124657613, -0.016036212, 0.6699583, -0.005051121, 0.7422128, 0.1395878, -0.28559548, 2.5857277, 0
992, 3124674280, -0.017876342, 0.67013377, -0.005928859, 0.74200577, 4.1146517, 3.6394815, 4.0902243, 0
993, 3124690947, -0.020247817, 0.6696359, -0.006996274, 0.74238497, 5.26866, 1.1745011, 4.5567703, 0
994, 3124707614, -0.021957248, 0.6689422, -0.007397786, 0.7429578, 5.273412, -0.9347359, 0.64053535, 0
995, 3124724281, -0.022516266, 0.6687303, -0.006901458, 0.7431364, 1.9801201, -0.2684717, -2.601112, 0
996, 3124740948, -0.022657558, 0.66901684, -0.006168723, 0.7428806, 1.2255318, 2.3614137, -2.8361554, 0
997, 3124757615, -0.02324599, 0.6693925, -0.0056994706, 0.7425276, -0.6576121, 1.9426306, 1.4879942, 0
998, 3124774282, -0.024281844, 0.669703, -0.0056194514, 0.74221504, 1.6170337, 0.5538398, 1.1279469, 0
999, 3124790949, -0.02539377, 0.669394, -0.00545983, 0.7424577, 3.2564197, -0.70877665, 1.6611967, 0
1000, 3124807616, -0.026394874, 0.6688832, -0.0051977783, 0.742885, 1.4446082, -1.0351292, 2.0268831, 0
1001, 3124824283, -0.027135476, 0.6683857, -0.004962519, 0.74330765, 1.2785203, 0.28530145, 0.25504494, 0
1002, 3124840950, -0.02769655, 0.6678702, -0.00457862, 0.7437526, 1.4127337, 0.087129824, -0.2909689, 0
1003, 3124857617, -0.028054744, 0.66749233, -0.0042100847, 0.74408036, 1.1842749, 1.3677887, -0.6598482, 0
1004, 3124874284, -0.02831848, 0.6674038, -0.0041079074, 0.7441505, 0.57247627, 2.1962976, 0.56072426, 0
1005, 3124890951, -0.028626263, 0.6672624, -0.0044406652, 0.74426365, 2.8029513, 2.8984647, 0.2688675, 0
1006, 3124907618, -0.028848976, 0.66694415, -0.004999608, 0.74453664, 3.5636668, 1.8356444, 0.6548872, 0
1007, 3124924285, -0.029066995, 0.66637856, -0.005400762, 0.74503165, 3.375495, 1.9041153, -0.126338, 0
1008, 3124940952, -0.029258981, 0.66602635, -0.005816862, 0.7453358, 1.106996, 0.6201772, 1.5723286, 0
1009, 3124957619, -0.02944681, 0.6660502, -0.0063646436, 0.7453028, 0.83375955, 0.027245894, -1.704505, 0
1010, 3124974286, -0.029536098, 0.66600007, -0.00691776, 0.7453391, 2.6234665, 0.47812274, -1.2770519, 0
1011, 3124990953, -0.029695034, 0.6659844, -0.0072440356, 0.7453436, 1.0193392, -0.3146089, 0.91340923, 0
1012, 3125007620, -0.029948696, 0.6661748, -0.007663384, 0.7451591, 1.6915768, 0.7546176, 0.7242279, 0
1013, 3125024287, -0.030371621, 0.66620034, -0.008197315, 0.7451134, 1.6753983, -0.19052725, -0.3131256, 0
1014, 3125040954, -0.030766547, 0.66605395, -0.008335441, 0.74522656, 2.0208561, -1.0256549, -0.31206703, 0
1015, 3125057621, -0.03104186, 0.6659808, -0.008078605, 0.74528325, 0.23786014, -0.14313099, 0.1227684, 0
1016, 3125074288, -0.031481564, 0.66621155, -0.007788241, 0.7450617, -1.3137788, 0.041070618, 1.51229, 0
1017, 3125090955, -0.03186199, 0.6665866, -0.007840708, 0.74470943, 0.058052223, -0.49901748, -0.53385544, 0
1018, 3125107622, -0.03215529, 0.6669926, -0.007571824, 0.7443361, 0.55202115, -1.3451103, -0.36287975, 0
1019, 3125124289, -0.032413438, 0.6671436, -0.006704241, 0.7441978, 1.7177736, -0.24575467, -1.712843, 0
1020, 3125140956, -0.03244014, 0.66696846, -0.0059451163, 0.74436015, 1.2381959, -0.027553337, 0.5314102, 0
1021, 3125157623, -0.032488585, 0.6669891, -0.0048877895, 0.7443472, -0.45588994, -0.8453753, 0.782753, 0
1022, 3125174290, -0.03252919, 0.6671417, -0.0036682785, 0.74421555, -0.44123375, -0.60273004, -0.39275455, 0
1023, 3125190957, -0.032394305, 0.66723984, -0.0023795664, 0.74413884, 0.848087, -0.24176957, -0.53436375, 0
1024, 3125207624, -0.03220147, 0.6673, -8.286238E-4, 0.7440966, 0.08234868, -0.027540484, 0.7866564, 0
1025, 3125224291, -0.03173074, 0.6674628, 6.673932E-4, 0.74397093, -0.5916282, 0.3961176, -0.1755209, 0
1026, 3125240958, -0.031150177, 0.66757923, 0.002341807, 0.74388754, 0.5752522, 0.7800366, 0.26222897, 0
1027, 3125257625, -0.030398235, 0.66745913, 0.0039839447, 0.7440192, 1.2365129, 0.89967203, 0.31472778, 0
1028, 3125274292, -0.029338598, 0.6672697, 0.0054090917, 0.74422276, 1.3396478, 0.38619998, 1.2120523, 0
1029, 3125290959, -0.02819568, 0.66710216, 0.0070614517, 0.74440324, -0.0017474522, 0.51959944, 0.32558632, 0
1030, 3125307626, -0.026922852, 0.66708934, 0.008571506, 0.7444462, 0.3045984, 0.847433, 0.4484434, 0
1031, 3125324293, -0.02556938, 0.6671061, 0.009860545, 0.74446297, 0.10071513, 1.2992102, -0.18619537, 0
1032, 3125340960, -0.024257809, 0.66717315, 0.010681242, 0.74443537, -0.23153481, 1.6952378, 0.41074657, 0
1033, 3125357627, -0.023005784, 0.66727287, 0.011029378, 0.74438065, 0.12425387, 0.9008535, 0.4387169, 0
1034, 3125374294, -0.021822527, 0.6673, 0.011135459, 0.7443905, 0.5612818, 0.50747687, 1.2567568, 0
1035, 3125390961, -0.020733416, 0.66735435, 0.010859206, 0.7443769, -0.40097955, 0.26715022, 0.068297386, 0
1036, 3125407628, -0.019873232, 0.667255, 0.010165364, 0.74449927, 0.80117977, 0.9430939, -0.55320644, 0
1037, 3125424295, -0.019212574, 0.66715443, 0.008963749, 0.74462223, -0.17968816, 0.19086128, -0.21895695, 0
1038, 3125440962, -0.018739983, 0.6671917, 0.0075134784, 0.74461675, -0.7879206, 0.35960308, -0.96824265, 0
1039, 3125457629, -0.018465608, 0.667028, 0.00588122, 0.7447849, 0.4169148, 0.8000582, -1.1073027, 0
1040, 3125474296, -0.018328816, 0.66705936, 0.00408113, 0.7447722, -0.2805731, -0.1751319, 0.7391653, 0
1041, 3125490963, -0.018303752, 0.6672936, 0.0023236722, 0.7445704, -0.65969366, 0.35210276, 0.7489681, 0
1042, 3125507630, -0.018340841, 0.66762346, 7.1436167E-4, 0.7442772, -0.4587417, -0.11913028, 0.09695816, 0
1043, 3125524297, -0.01829663, 0.6679695, -4.749596E-4, 0.7439681, 0.8773489, -0.38157892, 0.6748171, 0
1044, 3125540964, -0.018176317, 0.6682938, -0.0011605024, 0.743679, -0.21073635, -0.40723166, -0.2961254, 0
1045, 3125557631, -0.017914206, 0.6683953, -0.0018834919, 0.74359256, 1.2919163, 0.16980235, -1.574439, 0
1046, 3125574298, -0.017623201, 0.6681652, -0.0023440868, 0.743805, 1.4775735, -0.19183849, -0.031635284, 0
1047, 3125590965, -0.017567739, 0.6679491, -0.0022518337, 0.7440006, 0.5759111, -0.4007458, 0.4656334, 0
1048, 3125607632, -0.017615065, 0.6677124, -0.0022508204, 0.7442118, 0.6981479, 0.11200579, 0.10118961, 0
1049, 3125624299, -0.017706528, 0.6674788, -0.002464801, 0.74441844, 0.17304704, -0.47972015, 1.3852358, 0
1050, 3125640966, -0.017789096, 0.66723484, -0.002475962, 0.74463534, 0.824755, -0.78043747, 0.19771576, 0
1051, 3125657633, -0.01781848, 0.6669427, -0.0021625012, 0.74489725, 0.20918956, -0.56736, 0.3897915, 0
1052, 3125674300, -0.01783751, 0.6667281, -0.0017897487, 0.74508965, 0.39040375, 0.3502087, -0.053791046, 0
1053, 3125690967, -0.017875478, 0.6664175, -0.0017910004, 0.7453666, 0.25824678, 0.097525075, -0.4701414, 0
1054, 3125707634, -0.01786241, 0.6662935, -0.0017616004, 0.74547786, 0.2680334, -1.2909064, -0.30151272, 0
1055, 3125724301, -0.017856702, 0.6662725, -0.001372382, 0.7454975, -0.0751545, -0.33468086, -0.37337685, 0
1056, 3125740968, -0.017820284, 0.6663634, -0.0010577738, 0.7454177, -1.0566148, 0.42798126, -0.52309704, 0
1057, 3125757635, -0.017785296, 0.6664675, -8.9778006E-4, 0.7453258, -0.04932903, 0.40123564, -0.616662, 0
1058, 3125774302, -0.017712653, 0.66635114, -6.8852305E-4, 0.74543184, 0.51273966, -0.06935171, 0.82364655, 0
1059, 3125790969, -0.01761882, 0.66620874, -4.0063262E-4, 0.7455615, -0.047841914, 0.11781815, 0.5813942, 0
1060, 3125807636, -0.017507866, 0.6660347, -7.7188015E-6, 0.74571955, 0.9267979, 0.1753925, 0.38971615, 0
1061, 3125824303, -0.017250597, 0.6658167, 2.4725497E-4, 0.7459203, -0.0024774456, -0.10607042, 1.5767317, 0
1062, 3125840970, -0.016931131, 0.66588527, 2.1210313E-4, 0.7458664, -0.04105074, -0.04425959, -1.1018152, 0
1063, 3125857637, -0.016579717, 0.6660439, 6.28829E-6, 0.7457327, -0.16261011, 0.83024365, -0.03569126, 0
1064, 3125874304, -0.016291216, 0.6662502, -4.8612058E-4, 0.74555445, -0.5933925, 1.254366, -0.401927, 0
1065, 3125890971, -0.015996426, 0.66634846, -0.001141578, 0.7454724, 0.5123926, 1.3758286, -0.40415573, 0
1066, 3125907638, -0.015701577, 0.6664106, -0.0017620325, 0.7454218, 0.0031062434, 0.52964747, 1.0415621, 0
1067, 3125924305, -0.015343368, 0.6665473, -0.0024507344, 0.7453052, 0.07872431, 0.64106953, -0.9988098, 0
1068, 3125940972, -0.014938325, 0.666499, -0.0031365901, 0.745354, 1.0540218, 0.22646892, 0.379467, 0
1069, 3125957639, -0.014522806, 0.6666292, -0.003689155, 0.74524325, -0.2886262, -0.093728036, 0.38901424, 0
1070, 3125974306, -0.014057949, 0.66679114, -0.004290104, 0.74510396, -0.1836065, 0.71140254, -0.34955788, 0
1071, 3125990973, -0.013642803, 0.66688395, -0.005095497, 0.74502385, 0.3413199, 0.42201295, -0.0906744, 0
1072, 3126007640, -0.013274148, 0.66673714, -0.00583677, 0.7451563, 1.4702647, 0.23856369, 0.48046112, 0
1073, 3126024307, -0.013056785, 0.6665588, -0.006390497, 0.745315, 0.042307567, 0.36113548, 0.9842911, 0
1074, 3126040974, -0.012900531, 0.6665566, -0.00707072, 0.7453137, 0.19416447, 0.38502634, -0.30890083, 0
1075, 3126057641, -0.01273343, 0.6665549, -0.007994473, 0.74530864, 0.12334921, -0.3443445, -0.6451092, 0
1076, 3126074308, -0.012583688, 0.66657925, -0.0087705925, 0.7452807, 0.5091787, -0.6032936, 0.009227753, 0
1077, 3126090975, -0.012525275, 0.6664786, -0.009262659, 0.7453658, 0.7740953, 0.017040627, -0.25621796, 0
1078, 3126107642, -0.012525678, 0.66630965, -0.009991206, 0.7455074, -0.54121685, 0.24137756, 1.2740278, 0
1079, 3126124309, -0.012628794, 0.6662047, -0.0108490735, 0.7455875, 0.54886085, -0.34019458, -0.7463045, 0
1080, 3126140976, -0.012736514, 0.6659972, -0.011450931, 0.74576193, 0.42342126, -0.582412, 0.33074093, 0
1081, 3126157643, -0.0129736215, 0.66586953, -0.011834413, 0.74586606, -0.118433006, 0.15392824, -0.12579918, 0
1082, 3126174310, -0.013349071, 0.6657425, -0.0122591555, 0.74596596, 0.9708511, 0.18009512, -0.12999439, 0
1083, 3126190977, -0.0136128515, 0.6656527, -0.012718387, 0.74603343, 0.28601295, -1.1664072, 1.3022985, 0
1084, 3126207644, -0.013795778, 0.66555345, -0.012700982, 0.7461189, 0.6034636, -0.4489137, -0.5965729, 0
1085, 3126224311, -0.013890311, 0.6653965, -0.012421511, 0.7462619, -0.7873593, -0.3668347, 1.4257908, 0
1086, 3126240978, -0.013883755, 0.665193, -0.012250222, 0.74644625, -2.228241, -0.49130276, -0.9592209, 0
1087, 3126257645, -0.013860837, 0.66510975, -0.011779323, 0.7465285, -1.877069, -1.8046927, -0.8208065, 0
1088, 3126274312, -0.0136977285, 0.66513056, -0.010903314, 0.7465263, -2.2465668, -2.2330775, -1.1418209, 0
1089, 3126290979, -0.013541445, 0.6650754, -0.01007726, 0.7465899, -1.9408991, -0.40958259, 0.5375986, 0
1090, 3126307646, -0.01355055, 0.6650697, -0.009665437, 0.7466001, -1.6234937, -0.23394755, -0.10089016, 0
1091, 3126324313, -0.013691783, 0.6651802, -0.009419873, 0.7465022, -1.3622351, -1.0289469, 0.97125435, 0
1092, 3126340980, -0.013992265, 0.66527545, -0.009152412, 0.7464151, -1.9183824, -0.9822677, 0.10705185, 0
1093, 3126357647, -0.014439166, 0.6654278, -0.009040266, 0.7462721, -1.2564591, -0.98781776, -3.1825404, 0
1094, 3126374314, -0.014786467, 0.6654985, -0.008971989, 0.7462031, -2.3096666, -2.2568903, 0.47983932, 0
1095, 3126390981, -0.014946267, 0.66585296, -0.008713439, 0.7458868, -3.9161885, -2.5820916, 0.68011, 0
1096, 3126407648, -0.0151323825, 0.6662475, -0.008616976, 0.74553174, -1.5238216, 0.38746727, -2.3575478, 0
1097, 3126424315, -0.015645906, 0.66635865, -0.008689314, 0.74542105, -1.0475309, -1.0546218, 2.2554588, 0
1098, 3126440982, -0.016101286, 0.66649616, -0.008373953, 0.74529195, -0.75557876, -1.730695, -0.75600433, 0
1099, 3126457649, -0.016321614, 0.6666459, -0.0076320395, 0.7451611, -0.49958745, -1.7503124, -2.2026806, 0
1100, 3126474316, -0.016185477, 0.6668477, -0.0063251555, 0.7449957, -2.1492648, -3.21782, -3.3684769, 0
1101, 3126490983, -0.01602976, 0.66710955, -0.004395023, 0.7447787, -3.5541096, -3.9486742, 2.0669317, 0
1102, 3126507650, -0.016215503, 0.6677574, -0.0024288595, 0.7442028, -3.809217, -3.2786915, -3.0539837, 0
1103, 3126524317, -0.016766682, 0.6684954, -6.9883466E-4, 0.74353135, -0.42552325, -2.603707, 0.5131464, 0
1104, 3126540984, -0.017489567, 0.66900223, 0.0013868213, 0.7430577, -0.30723453, -4.6213584, 1.0426397, 0
1105, 3126557651, -0.01808934, 0.66911143, 0.0038080812, 0.7429366, 2.6451845, -1.8399175, 2.9553537, 0
1106, 3126574318, -0.019005239, 0.66852665, 0.0058976114, 0.7434263, 1.9597836, 0.74296683, 0.4946432, 0
1107, 3126590985, -0.020769387, 0.66831416, 0.006765783, 0.7435627, 0.7877398, 1.624284, -0.86702824, 0
1108, 3126607652, -0.023005322, 0.6684776, 0.006508678, 0.74335235, 1.7666528, -0.35827, -3.7509508, 0
1109, 3126624319, -0.025125638, 0.6691048, 0.005935937, 0.7427239, 2.5648952, 0.296644, 1.4033756, 0
1110, 3126640986, -0.026708871, 0.6693873, 0.005633965, 0.7424164, 3.0930684, 1.5211755, 3.4372253, 0
1111, 3126657653, -0.027848184, 0.6690907, 0.0053074956, 0.7426442, 3.5287344, 3.1288264, 4.349473, 0
1112, 3126674320, -0.02853778, 0.6683321, 0.005146146, 0.74330205, 3.5225303, 2.4213448, 1.7550716, 0
1113, 3126690987, -0.029054835, 0.6676263, 0.0056784004, 0.74391204, 2.5595243, 1.7082659, 0.5267811, 0
1114, 3126707654, -0.029336408, 0.6673515, 0.0067141056, 0.74413896, 1.4844974, 0.47320893, -1.9843702, 0
1115, 3126724321, -0.029249623, 0.6674089, 0.007806614, 0.7440802, 1.7573987, 0.87272006, -1.892736, 0
1116, 3126740988, -0.028907329, 0.66767985, 0.008457348, 0.7438434, 1.942661, 1.3883418, 1.4091043, 0
1117, 3126757655, -0.028461203, 0.6679948, 0.008891612, 0.7435728, 2.5396287, 1.7628918, 1.8627129, 0
1118, 3126774322, -0.028033182, 0.668123, 0.009108946, 0.7434713, 3.2874138, 2.3541934, 0.06317806, 0
1119, 3126790989, -0.027667105, 0.6678428, 0.008820146, 0.7437401, 3.7837386, 3.0809438, -1.5976801, 0
1120, 3126807656, -0.027453408, 0.66744775, 0.007876456, 0.7441131, 1.7367064, 2.6775877, 1.4224443, 0
1121, 3126824323, -0.027492777, 0.667409, 0.006496519, 0.74415976, -0.2306495, 1.5934248, -0.7073498, 0
1122, 3126840990, -0.027529731, 0.6674286, 0.004995808, 0.7441524, 2.1034625, 1.9557554, -0.8670454, 0
1123, 3126857657, -0.027374491, 0.6674533, 0.0034190714, 0.7441449, 0.11182373, 1.6159158, 1.1335325, 0
1124, 3126874324, -0.027018756, 0.66765815, 0.0018093586, 0.74397975, 1.2129784, 2.0237544, 0.3775015, 0
1125, 3126890991, -0.026477799, 0.6676655, 3.042668E-4, 0.74399465, 1.854948, 1.1088746, -1.1916771, 0
1126, 3126907658, -0.025888741, 0.66759515, -7.4231625E-4, 0.7440781, 1.9356309, 0.24546567, 0.42112064, 0
1127, 3126924325, -0.025254756, 0.66762584, -0.0016940981, 0.7440708, -0.38825053, 0.44534472, 0.15183926, 0
1128, 3126940992, -0.024693131, 0.6677876, -0.00282304, 0.7439411, 0.6945639, 0.627218, -0.047449112, 0
1129, 3126957659, -0.02426827, 0.66778725, -0.0038484633, 0.74395084, 0.69104, -0.5964806, 0.5062361, 0
1130, 3126974326, -0.023847476, 0.6677565, -0.004345849, 0.74398935, 1.090735, -0.79449594, 0.0023403168, 0
1131, 3126990993, -0.02357547, 0.66763556, -0.004314348, 0.74410677, 1.4041151, -0.12458154, 0.39877415, 0
1132, 3127007660, -0.023223236, 0.6676116, -0.0046288967, 0.74413747, -0.10210477, -0.046229072, 2.5789576, 0
1133, 3127024327, -0.022980615, 0.66776514, -0.004926324, 0.74400526, 0.20685963, -0.53513306, 0.65124416, 0
1134, 3127040994, -0.022853762, 0.66771704, -0.00464271, 0.74405414, 0.9440518, -1.098122, -0.9542494, 0
1135, 3127057661, -0.022743523, 0.6676068, -0.0041194707, 0.7441597, 1.6772852, -0.30771935, -1.2481651, 0
1136, 3127074328, -0.02268365, 0.66744155, -0.0036640316, 0.74431205, 1.0037661, -0.4184613, 0.08647728, 0
1137, 3127090995, -0.022625625, 0.6676322, -0.0033761263, 0.74414414, -0.2393852, -1.0583186, 0.26072598, 0
1138, 3127107662, -0.022744223, 0.6677288, -0.0027745068, 0.7440562, 1.1631129, -0.7052681, -0.86523914, 0
1139, 3127124329, -0.022945195, 0.66761875, -0.0017920732, 0.7441519, 1.2144268, -0.81750053, 0.14279556, 0
1140, 3127140996, -0.023111358, 0.6675054, -9.871721E-4, 0.74424994, 1.0640813, 0.31087333, 0.32134914, 0
1141, 3127157663, -0.023393452, 0.66734165, -2.9809773E-4, 0.7443886, 0.7469263, 0.15542153, 0.4848175, 0
1142, 3127174330, -0.023716241, 0.6672422, 3.9754808E-4, 0.7444675, 0.40748915, -0.6176381, 0.26577854, 0
1143, 3127190997, -0.024058, 0.66716516, 0.0014324188, 0.7445241, 1.1337569, -0.78038836, -0.86094, 0
1144, 3127207664, -0.024353698, 0.66699266, 0.0023052692, 0.74466693, 0.18629356, -0.074259385, 0.6437874, 0
1145, 3127224331, -0.024728611, 0.6668907, 0.0024425536, 0.7447455, -0.3554192, 0.57745975, -1.0573025, 0
1146, 3127240998, -0.02527684, 0.66674674, 0.0021834671, 0.74485683, -0.5964981, 0.13964039, 1.3097506, 0
1147, 3127257665, -0.026038706, 0.66683036, 0.0015685558, 0.7447573, -1.7388853, 0.17217365, -0.86954784, 0
1148, 3127274332, -0.026866615, 0.6668839, 6.209314E-4, 0.74468136, 0.41316703, 0.97216064, 0.22647953, 0
