sep=,
DeviceTag:,Xsens_DOT_3,,,,,,,,,,,,,,,,,
FirmwareVersion:,3.0.0,,,,,,,,,,,,,,,,,
AppVersion:,2023.6.1,,,,,,,,,,,,,,,,,
SyncStatus:,Synced,,,,,,,,,,,,,,,,,
OutputRate:,60Hz,,,,,,,,,,,,,,,,,
FilterProfile:,General,,,,,,,,,,,,,,,,,
Measurement Mode:,Sensor fusion Mode - Extended (Quaternion),,,,,,,,,,,,,,,,,
StartTime:,2025-05-05 11:58:35.170 +0200,,,,,,,,,,,,,,,,,
 2025,,,,,,,,,,,,,,,,,,,

PacketCounter,SampleTimeFine,Quat_W,Quat_X,Quat_Y,Quat_Z,FreeAcc_X,FreeAcc_Y,FreeAcc_Z,Status
1, 3108157283, -0.67732775, -0.3914483, 0.30111384, -0.5452865, 0.1942455, 0.03983582, -0.0502882, 0
2, 3108173950, -0.6772808, -0.39144358, 0.3011905, -0.5453057, 0.14229952, 0.034405127, -0.059114456, 0
3, 3108190617, -0.67730415, -0.39141038, 0.30126745, -0.54525805, 0.047319926, 0.049746606, -0.04923916, 0
4, 3108207284, -0.6773612, -0.39135724, 0.30135992, -0.54517424, 0.042991377, 0.05385187, -0.020886421, 0
5, 3108223951, -0.6774176, -0.39125893, 0.30145782, -0.5451205, 0.10315302, 0.06956327, -0.03476429, 0
6, 3108240618, -0.6774355, -0.3911577, 0.30152056, -0.54513615, 0.16750307, 0.07609208, -0.021967888, 0
7, 3108257285, -0.6774387, -0.3910747, 0.30159336, -0.5451515, 0.17965144, 0.09103325, -0.030036926, 0
8, 3108273952, -0.67744374, -0.39104295, 0.30165726, -0.54513276, 0.12745915, 0.08814904, -0.046732903, 0
9, 3108290619, -0.6774791, -0.39102805, 0.30173013, -0.54505926, 0.09039244, 0.086786725, -0.03646469, 0
10, 3108307286, -0.6775175, -0.39100635, 0.3018117, -0.5449819, 0.111707084, 0.08709777, -0.036501884, 0
11, 3108323953, -0.677578, -0.39097223, 0.3018945, -0.54488516, 0.1408516, 0.072346896, -0.04282856, 0
12, 3108340620, -0.6776583, -0.3909092, 0.30192626, -0.5448129, 0.122903295, 0.071932055, -0.0360651, 0
13, 3108357287, -0.6777259, -0.39087415, 0.30196673, -0.54473156, 0.114391245, 0.058116052, -0.03859234, 0
14, 3108373954, -0.67779005, -0.39081407, 0.30201948, -0.54466546, 0.13209303, 0.09960698, -0.061712265, 0
15, 3108390621, -0.6778391, -0.39075238, 0.30206043, -0.54462606, 0.10972251, 0.04156782, -0.0611372, 0
16, 3108407288, -0.6779069, -0.39067084, 0.30210665, -0.5445746, 0.11411677, 0.047925424, -0.0855484, 0
17, 3108423955, -0.6779873, -0.3905712, 0.30215612, -0.5445186, 0.11754412, 0.060861908, -0.056165695, 0
18, 3108440622, -0.67805606, -0.39047566, 0.3022264, -0.54446244, 0.13386169, 0.08983075, 0.0015707016, 0
19, 3108457289, -0.67811173, -0.3903913, 0.30235386, -0.54438287, 0.14654784, 0.080159344, 0.025445938, 0
20, 3108473956, -0.67818195, -0.39031404, 0.30245578, -0.5442942, 0.1330528, 0.06913435, 0.032318115, 0
21, 3108490623, -0.67826766, -0.390293, 0.30256128, -0.5441438, 0.11643818, 0.057771616, -0.02149868, 0
22, 3108507290, -0.67832446, -0.39035404, 0.3026655, -0.54397124, 0.14271794, 0.019588228, -0.06939983, 0
23, 3108523957, -0.67837876, -0.3903861, 0.3027445, -0.54383653, 0.17924778, 0.011458838, -0.088466644, 0
24, 3108540624, -0.6783806, -0.39042714, 0.3027929, -0.5437779, 0.1804353, 0.038284864, -0.08298874, 0
25, 3108557291, -0.67833346, -0.3904487, 0.30281627, -0.5438081, 0.15287258, 0.07719668, -0.086016655, 0
26, 3108573958, -0.67823553, -0.39049613, 0.3028763, -0.54386276, 0.15767692, 0.08252877, -0.06857872, 0
27, 3108590625, -0.6781226, -0.3905197, 0.30297232, -0.5439333, 0.17460899, 0.053239446, -0.010286331, 0
28, 3108607292, -0.67803293, -0.3905052, 0.3030534, -0.5440103, 0.15531401, 0.07451095, 0.04823208, 0
29, 3108623959, -0.6779087, -0.39056158, 0.30313548, -0.5440788, 0.11877389, 0.03351532, 0.0316391, 0
30, 3108640626, -0.67783237, -0.39062363, 0.30321062, -0.5440874, 0.14996892, 0.02466175, -0.06391621, 0
31, 3108657293, -0.6777878, -0.39070466, 0.30318996, -0.5440964, 0.15564905, -0.013450339, -0.09091568, 0
32, 3108673960, -0.67775345, -0.3907573, 0.3031878, -0.5441026, 0.06673404, 0.014142112, -0.052573204, 0
33, 3108690627, -0.6776861, -0.39081788, 0.3032189, -0.5441256, 0.13290796, 0.12884717, -0.039585114, 0
35, 3108723961, -0.67750347, -0.3909596, 0.3033882, -0.5441569, 0.19999336, 0.08673376, -0.010912895, 0
36, 3108740628, -0.67741096, -0.3910404, 0.30346805, -0.54416955, 0.15987837, 0.03226186, -0.053193092, 0
37, 3108757295, -0.6773392, -0.3911342, 0.3035003, -0.54417354, 0.08737971, 0.023717854, -0.07862377, 0
39, 3108790629, -0.676891, -0.39180845, 0.30363852, -0.54416907, 0.0013920387, -0.26584497, -0.6092062, 0
41, 3108823963, -0.67662317, -0.39189374, 0.30368415, -0.5444152, 0.18849696, 0.13259391, -0.040491104, 0
43, 3108857297, -0.6763934, -0.39215875, 0.30389163, -0.54439396, 0.09854989, 0.037846517, -0.016701698, 0
44, 3108873964, -0.6763233, -0.39224327, 0.3040033, -0.5443577, 0.11282644, -0.013401614, -0.0862236, 0
47, 3108923965, -0.6762839, -0.3921836, 0.30441985, -0.5442171, 0.13143031, 0.07556392, -0.021662712, 0
48, 3108940632, -0.6763509, -0.39216262, 0.3045913, -0.5440528, 0.115692765, 0.089245595, -0.024289131, 0
50, 3108973966, -0.6764797, -0.39213386, 0.30499965, -0.5436846, 0.15688263, 0.07521255, -0.071619034, 0
51, 3108990633, -0.67649543, -0.39210176, 0.30518568, -0.5435838, 0.14487104, 0.026249139, -0.06520653, 0
52, 3109007300, -0.6764909, -0.39209366, 0.3053908, -0.5434802, 0.1465427, 0.0355998, -0.08210564, 0
54, 3109040634, -0.6763594, -0.39223725, 0.30570757, -0.54336196, 0.20838404, 0.041804746, -0.005789757, 0
56, 3109073968, -0.6759042, -0.39260072, 0.305943, -0.5435332, 0.18878709, -0.00490678, -0.030695915, 0
58, 3109107302, -0.6752959, -0.39291632, 0.3060711, -0.5439893, 0.066325456, 0.09053839, 5.4454803E-4, 0
59, 3109123969, -0.6750762, -0.39300582, 0.30612907, -0.54416466, 0.05011642, 0.078409, -0.030365944, 0
60, 3109140636, -0.6749854, -0.39303216, 0.3061949, -0.544221, 0.019929308, 0.039892145, -0.055939674, 0
62, 3109173970, -0.67505866, -0.3930775, 0.30630627, -0.5440348, 0.11979065, 0.023428405, -0.023111343, 0
64, 3109207304, -0.6753239, -0.39312738, 0.30636376, -0.5436371, 0.043850113, 0.03845138, -0.06684208, 0
66, 3109240638, -0.6758668, -0.3930143, 0.30629802, -0.5430808, 0.13412744, 0.08704399, -0.03138256, 0
67, 3109257305, -0.67608637, -0.39298803, 0.30630025, -0.5428252, 0.19415118, 0.058224007, 0.06983948, 0
70, 3109307306, -0.67625886, -0.39311448, 0.30599618, -0.5426904, 0.19844821, -0.04492342, -0.13500309, 0
73, 3109357307, -0.6758524, -0.39377064, 0.3053928, -0.54306054, 0.24844515, 0.1086387, -0.0077342987, 0
74, 3109373974, -0.6755383, -0.3940866, 0.30521807, -0.5433205, 0.22320473, 0.08145572, -0.016925812, 0
75, 3109390641, -0.67522067, -0.39444256, 0.30502743, -0.5435641, 0.16606611, 0.03125449, -0.09229183, 0
77, 3109423975, -0.6741894, -0.3956641, 0.30454642, -0.5442258, 0.2502659, 0.26828662, 0.33664703, 0
78, 3109440642, -0.6738692, -0.39595726, 0.30424526, -0.5445775, 0.21265604, 0.11859396, -0.030284882, 0
79, 3109457309, -0.6734923, -0.3962506, 0.30397382, -0.5449817, 0.17972788, 0.16294318, 0.0038394928, 0
82, 3109507310, -0.67225987, -0.39732864, 0.3033532, -0.54606324, 0.15166092, 0.07131807, -0.119957924, 0
83, 3109523977, -0.6719055, -0.39764535, 0.30315918, -0.54637635, 0.17516978, 0.07266741, -0.033276558, 0
85, 3109557311, -0.6711267, -0.39830184, 0.30275726, -0.5470779, 0.25140828, 0.05406823, 0.014814377, 0
86, 3109573978, -0.670696, -0.39863056, 0.30251837, -0.54749846, 0.19773766, 0.004599226, -0.0096588135, 0
87, 3109590645, -0.67022735, -0.39902446, 0.30233052, -0.54788923, 0.15264884, -0.031400666, -0.04539776, 0
89, 3109623979, -0.66943026, -0.39973682, 0.30213267, -0.5484531, 0.19956444, 0.008924649, -0.10894394, 0
90, 3109640646, -0.6690462, -0.40012544, 0.30201805, -0.5487014, 0.18962705, 0.03639506, -0.081498146, 0
91, 3109657313, -0.66864884, -0.40048936, 0.3018266, -0.54902565, 0.16084753, 0.022089785, -0.07101822, 0
94, 3109707314, -0.66756797, -0.40128657, 0.30099833, -0.5502125, 0.16733253, -0.044517074, 0.009479523, 0
95, 3109723981, -0.66726077, -0.40156135, 0.30053687, -0.5506366, 0.21759969, -0.027771931, 0.06140232, 0
98, 3109773982, -0.6665708, -0.4018051, 0.2986368, -0.55232584, 0.059880015, 0.090595834, 0.08420944, 0
100, 3109807316, -0.6665632, -0.40143734, 0.2978402, -0.55303204, -0.21442671, -0.02407458, -0.10881233, 0
101, 3109823983, -0.6667904, -0.40120178, 0.29772282, -0.552992, -0.13818912, -0.08089068, -0.22280502, 0
102, 3109840650, -0.667291, -0.40090385, 0.29772493, -0.5526031, -0.075624265, -0.0138207, -0.22499275, 0
104, 3109873984, -0.66897786, -0.40026528, 0.29811102, -0.5508156, -0.03995093, 0.19921821, 0.028277397, 0
105, 3109890651, -0.66989434, -0.39995813, 0.29824045, -0.54985386, 0.002898069, 0.11235907, -0.0070238113, 0
106, 3109907318, -0.6707336, -0.3997394, 0.29845813, -0.5488709, 0.031464588, 0.29958358, 0.16441727, 0
108, 3109940652, -0.6713833, -0.39983726, 0.2984243, -0.54802275, 0.4251925, -0.20388897, -0.25605965, 0
109, 3109957319, -0.67162204, -0.39993033, 0.29828352, -0.5477388, 0.36637923, -0.15846698, -0.50259876, 0
110, 3109973986, -0.6718159, -0.40005335, 0.29759303, -0.5477871, 0.45335245, 0.09065283, -0.27115154, 0
113, 3110023987, -0.67032504, -0.4007307, 0.29468724, -0.5506813, -0.4158863, 0.544577, 0.53897095, 0
117, 3110090655, -0.66843086, -0.40177757, 0.29276317, -0.5532414, -0.06443029, -0.06850046, -0.22304726, 0
123, 3110190657, -0.66957414, -0.40102878, 0.2923184, -0.55263716, 0.59661573, -0.06213325, -0.07176304, 0
124, 3110207324, -0.6699525, -0.4002924, 0.2924153, -0.5526612, 0.08243806, 0.3031276, 0.31551456, 0
125, 3110223991, -0.67039543, -0.3998842, 0.29254085, -0.55235314, -0.12003087, 0.41240248, 0.31331062, 0
127, 3110257325, -0.67167014, -0.39991474, 0.29355827, -0.5502386, -0.23061262, -0.07253957, -0.12218952, 0
128, 3110273992, -0.67206484, -0.40056896, 0.29408976, -0.5489955, 0.33046234, -0.32032603, -0.52993774, 0
129, 3110290659, -0.67226595, -0.4012954, 0.29426005, -0.548127, 0.7664067, -0.4555518, -0.678957, 0
131, 3110323993, -0.67216957, -0.40222996, 0.2935134, -0.54796016, 0.46889642, -0.09390785, -0.10988617, 0
132, 3110340660, -0.6718564, -0.40234905, 0.2928775, -0.5485968, 0.09584459, 0.05553604, 0.16520691, 0
133, 3110357327, -0.6715565, -0.4021498, 0.2926579, -0.54922724, -0.26573455, 0.28326735, 0.28671646, 0
135, 3110390661, -0.6704581, -0.40183058, 0.29253882, -0.5508636, -0.2773798, 0.28514954, 0.07106686, 0
137, 3110423995, -0.6693533, -0.4023037, 0.29253638, -0.5518622, -0.37511688, 0.3316264, 0.09615898, 0
139, 3110457329, -0.6683116, -0.40274382, 0.29244632, -0.55285025, -0.1842035, 0.40452293, 0.24031258, 0
140, 3110473996, -0.66766536, -0.40332758, 0.2923744, -0.5532435, -0.110330686, 0.2614972, -0.054172516, 0
141, 3110490663, -0.6670377, -0.404006, 0.2921102, -0.553645, 0.15044522, 0.13229978, -0.19553757, 0
143, 3110523997, -0.66614485, -0.40520975, 0.29252934, -0.5536193, 0.19614871, 0.07725323, -0.05822754, 0
144, 3110540664, -0.6660058, -0.405657, 0.2930326, -0.5531925, 0.16010746, 0.008660903, -0.104730606, 0
145, 3110557331, -0.66603583, -0.40596992, 0.29372016, -0.5525619, 0.19899961, -0.06524477, 0.001127243, 0
148, 3110607332, -0.6656352, -0.406928, 0.29558882, -0.5513421, 1.095504, -0.4554606, -0.05694866, 0
150, 3110640666, -0.66549855, -0.4071345, 0.29582357, -0.5512288, 0.049548797, -0.5411651, -0.39345264, 0
151, 3110657333, -0.6662402, -0.40652475, 0.29578656, -0.5508025, -0.45120224, -0.027387936, -0.029472351, 0
152, 3110674000, -0.666695, -0.4064337, 0.2956971, -0.55036736, -0.24455334, 0.1484839, 0.14799309, 0
154, 3110707334, -0.6673721, -0.40651304, 0.29563218, -0.5495221, -0.001647514, 0.1746756, 0.10954571, 0
155, 3110724001, -0.6675075, -0.40633428, 0.2952441, -0.5496984, 0.12097885, 0.30248052, 0.30248547, 0
156, 3110740668, -0.66735464, -0.40607372, 0.2949662, -0.55022573, -0.024284683, 0.34420303, 0.24326992, 0
158, 3110774002, -0.6670157, -0.4055692, 0.29452926, -0.551242, -0.26557288, 0.09682492, -0.2854557, 0
159, 3110790669, -0.6670459, -0.40538925, 0.29405388, -0.55159163, -0.11820013, 0.08295058, -0.15238857, 0
160, 3110807336, -0.66692233, -0.40534818, 0.29370177, -0.5519584, 0.032270577, 0.025921468, -0.13919735, 0
164, 3110874004, -0.66714257, -0.4044884, 0.29365084, -0.55235004, -0.40632844, 0.10397934, 0.0506649, 0
166, 3110907338, -0.6686578, -0.40353173, 0.29476607, -0.55062073, -0.062281214, -0.08207373, -0.24187279, 0
167, 3110924005, -0.6698326, -0.40278, 0.29540828, -0.5493977, -0.017383944, -0.0018307946, 0.006550789, 0
168, 3110940672, -0.6711898, -0.40174896, 0.29619923, -0.54806906, -0.07117703, 0.055517487, 0.164361, 0
170, 3110974006, -0.67404765, -0.39948782, 0.29815495, -0.5451461, -0.04676718, -0.008570604, 0.02678299, 0
171, 3110990673, -0.67536503, -0.39849147, 0.29907843, -0.5437371, 0.13288538, -0.14548704, -0.25552082, 0
172, 3111007340, -0.6673078, -0.40782118, 0.31443524, -0.5380745, 37.37612, -9.880065, -1.74751, 1024
174, 3111040674, -0.66364396, -0.43567187, 0.28883734, -0.535118, -1.6876086, 1.5722593, -10.24401, 0
175, 3111057341, -0.66524583, -0.42838043, 0.2861762, -0.5404189, -6.055989, -4.7523932, -6.4782944, 0
176, 3111074008, -0.6711538, -0.42585576, 0.28009847, -0.5382895, 3.034756, -2.2642047, -2.4856014, 0
179, 3111124009, -0.6891051, -0.42147976, 0.2777504, -0.5199568, -0.17693934, 1.7029088, 2.9300032, 0
181, 3111157343, -0.68645245, -0.41843522, 0.28739992, -0.52067995, 1.358063, 1.0499445, 1.928875, 0
182, 3111174010, -0.68544686, -0.417952, 0.28800315, -0.52205795, 1.3784122, 0.6478132, 0.7102957, 0
183, 3111190677, -0.6854911, -0.41635543, 0.28610528, -0.5243142, 1.4285433, 0.14651945, 0.50312614, 0
185, 3111224011, -0.6872791, -0.40882877, 0.28207508, -0.53004885, -0.51270944, -0.70871747, -0.7647238, 0
186, 3111240678, -0.6877859, -0.40576544, 0.2813737, -0.532114, -0.65998054, -0.84272075, -1.528101, 0
187, 3111257345, -0.6875209, -0.4047493, 0.2807526, -0.53355646, 0.059169468, -0.40223905, -0.38820267, 0
189, 3111290679, -0.6869032, -0.40404803, 0.2787873, -0.5359088, 0.02646371, -0.39040202, -0.6854744, 0
190, 3111307346, -0.6869427, -0.40330192, 0.27688992, -0.5374019, 0.11835838, -0.20320211, -0.40839386, 0
191, 3111324013, -0.686723, -0.40285704, 0.275883, -0.5385332, -2.471905E-4, 0.0035719697, -0.16639328, 0
194, 3111374014, -0.68562204, -0.40212974, 0.27423164, -0.5413156, -0.19835657, 0.32238793, 0.28801346, 0
195, 3111390681, -0.6852826, -0.40230495, 0.27349094, -0.5419897, 0.040946234, 0.15973242, 0.15355682, 0
197, 3111424015, -0.6849125, -0.4027246, 0.27172044, -0.54303515, 0.20469607, 0.06236615, -0.115366936, 0
198, 3111440682, -0.6847189, -0.40286642, 0.27117229, -0.543448, -0.031914745, 0.11348468, -0.25693798, 0
199, 3111457349, -0.68449926, -0.40312424, 0.27098656, -0.54362607, -0.26184967, 0.19786038, -0.27973366, 0
201, 3111490683, -0.6838851, -0.40409285, 0.27136964, -0.54348886, -0.101402014, 0.022777535, -0.41623974, 0
202, 3111507350, -0.6838018, -0.40439495, 0.27172047, -0.5431937, 0.025237072, -0.055358347, -0.27997112, 0
204, 3111540684, -0.683822, -0.4048032, 0.2725063, -0.54246986, -0.143631, 0.013052486, -0.06525707, 0
205, 3111557351, -0.68383306, -0.40501207, 0.2729445, -0.54207957, -0.23055048, -0.14859812, -0.05369091, 0
206, 3111574018, -0.68388355, -0.4051354, 0.2734607, -0.54166347, -0.11025805, -0.21901298, -0.06399822, 0
208, 3111607352, -0.6840574, -0.40510464, 0.27461663, -0.54088163, 0.34301144, -0.03574808, 0.2486763, 0
209, 3111624019, -0.68419135, -0.40512556, 0.27517194, -0.5404142, 0.49615607, 0.067905694, 0.31563282, 0
210, 3111640686, -0.6843881, -0.40510634, 0.2756642, -0.5399281, 0.37439626, 0.05725463, 0.22202015, 0
212, 3111674020, -0.68508255, -0.40506822, 0.27658707, -0.5386024, -0.022454558, -0.07804581, -0.15621948, 0
213, 3111690687, -0.6854799, -0.40521792, 0.27686438, -0.5378414, 0.013620656, -0.1757583, -0.23736286, 0
214, 3111707354, -0.6859678, -0.40521234, 0.2770868, -0.5371084, 0.0519538, -0.274338, -0.15629768, 0
216, 3111740688, -0.6869694, -0.40476, 0.2776118, -0.535897, 0.14235629, -0.030196823, 0.06371403, 0
217, 3111757355, -0.68679196, -0.40467846, 0.27792868, -0.5360218, 0.41186845, 0.08483323, 0.06299019, 0
218, 3111774022, -0.68720764, -0.40415215, 0.27854696, -0.535565, -0.32356584, 0.18992858, 0.104738235, 0
221, 3111824023, -0.6882076, -0.40398973, 0.2794178, -0.5339473, 0.39596707, -0.04787826, -0.06470585, 0
222, 3111840690, -0.68837017, -0.40391004, 0.27953586, -0.5337362, 0.40602225, 0.0696216, -0.011033058, 0
224, 3111874024, -0.68842393, -0.40401828, 0.27969545, -0.53350127, 0.16801108, 0.112656064, 0.06832886, 0
225, 3111890691, -0.6875165, -0.40447026, 0.27962047, -0.5343677, 0.13328971, -0.09704843, -0.042250633, 0
226, 3111907358, -0.687452, -0.4048333, 0.27949902, -0.53423905, 0.13918868, 0.008282496, -0.12895966, 0
228, 3111940692, -0.68733656, -0.40534368, 0.27884597, -0.5343418, 0.23264189, -0.08447516, -0.13371563, 0
229, 3111957359, -0.6871347, -0.40560097, 0.27852315, -0.5345746, 0.18699384, -0.0071195583, -0.10009384, 0
230, 3111974026, -0.6868464, -0.40581757, 0.27831173, -0.53489083, 0.12846966, 0.010509579, -0.0819006, 0
232, 3112007360, -0.6862815, -0.40610644, 0.27829963, -0.5354027, 0.018386623, 0.01599213, -0.02732563, 0
233, 3112024027, -0.68608254, -0.40624347, 0.27841437, -0.5354941, 0.0130225355, 0.024254061, -0.017498016, 0
236, 3112074028, -0.686104, -0.40653336, 0.27853522, -0.5351838, 0.024014456, -0.07035472, -0.09620857, 0
237, 3112090695, -0.68617153, -0.40660757, 0.27854463, -0.53503555, 0.061673928, -0.057203222, -0.08613491, 0
239, 3112124029, -0.68607825, -0.40662837, 0.27870676, -0.53505504, 0.02177888, -0.06270656, -0.07825565, 0
240, 3112140696, -0.6859664, -0.40649238, 0.27885035, -0.535227, 0.001474515, 0.0030131782, -0.083966255, 0
241, 3112157363, -0.68590105, -0.4062962, 0.2789496, -0.5354081, 0.023649603, 0.08340377, -0.03417492, 0
243, 3112190697, -0.6858542, -0.4061219, 0.2789476, -0.5356014, 0.23762982, 0.12054948, 0.07334995, 0
244, 3112207364, -0.6858517, -0.40608373, 0.27887148, -0.5356732, 0.23554778, 0.15232676, 0.064492226, 0
245, 3112224031, -0.68580675, -0.40611693, 0.2787315, -0.53577816, 0.12297772, 0.105469055, 0.03404045, 0
247, 3112257365, -0.68555635, -0.4063235, 0.27837908, -0.5361253, -0.028363347, 0.0992963, -0.047325134, 0
248, 3112274032, -0.6853758, -0.40649867, 0.2782139, -0.5363092, -0.008820492, 0.11515253, -0.09905434, 0
251, 3112324033, -0.68492126, -0.40696043, 0.277674, -0.53681916, 0.052117858, 0.07112204, -0.14526176, 0
252, 3112340700, -0.6847848, -0.4070267, 0.27752718, -0.53701866, 0.059625432, 0.027631119, -0.1527319, 0
253, 3112357367, -0.6846279, -0.40706763, 0.27746844, -0.537218, 0.021499041, 0.01718323, -0.10649204, 0
255, 3112390701, -0.6844183, -0.40684986, 0.27757135, -0.5375968, -0.04182151, 0.09314768, -0.037683487, 0
256, 3112407368, -0.6843856, -0.40661842, 0.27774653, -0.537723, -0.088625126, 0.08771967, -0.011156082, 0
258, 3112440702, -0.68438023, -0.40605104, 0.27797723, -0.5380393, 0.047805175, 0.14756034, -0.06752682, 0
259, 3112457369, -0.70568705, -0.39053792, 0.2543778, -0.53365666, 20.25674, -7.6385393, -23.7901, 0
260, 3112474036, -0.7252472, -0.39493722, 0.23610577, -0.51215863, -8.442224, 13.031107, 34.54405, 0
262, 3112507370, -0.7288034, -0.39900792, 0.24497409, -0.49963737, -9.797148, 0.28709704, -6.472581, 0
263, 3112524037, -0.7251579, -0.40825728, 0.23980293, -0.49997813, 1.3053304, -3.193246, -2.4119225, 0
266, 3112574038, -0.72097766, -0.4190682, 0.22907364, -0.50210524, 0.1572018, 1.9942309, 2.670453, 0
267, 3112590705, -0.7123523, -0.42203918, 0.2311621, -0.51089394, -0.32896817, 1.3113328, 2.932022, 0
268, 3112607372, -0.705956, -0.42173767, 0.2345388, -0.51842684, -0.039375607, 0.2630238, 2.0997295, 0
270, 3112640706, -0.7027437, -0.41869667, 0.23998854, -0.5227441, 1.0135262, -0.18010831, 0.27698517, 0
271, 3112657373, -0.70286053, -0.4187168, 0.24304178, -0.5211578, 0.43487844, -0.17095277, -0.49120045, 0
272, 3112674040, -0.7033601, -0.4185575, 0.24602684, -0.5192075, -0.47973034, -0.022060953, -0.681592, 0
274, 3112707374, -0.70403385, -0.41989803, 0.2498971, -0.5153494, -0.5866494, -0.42283967, -0.80109596, 0
275, 3112724041, -0.7045371, -0.42026344, 0.25090665, -0.5138709, -0.3101249, -0.4740207, -0.7321348, 0
276, 3112740708, -0.7049871, -0.4202006, 0.25222647, -0.5126578, -0.1543424, -0.36993092, -0.46029663, 0
278, 3112774042, -0.70564604, -0.4194805, 0.25546002, -0.5107363, -0.022566315, 0.019000389, 0.07923794, 0
279, 3112790709, -0.70551217, -0.4189143, 0.2571102, -0.510558, -0.07772261, 0.41962367, 0.7126398, 0
280, 3112807376, -0.70441484, -0.41838825, 0.2592221, -0.5114355, -0.028026514, 0.4008803, 0.7051077, 0
282, 3112840710, -0.7029639, -0.41765696, 0.26200965, -0.5126079, 0.40357322, -0.06188582, 0.034823418, 0
283, 3112857377, -0.70220333, -0.41700134, 0.26360488, -0.51336586, 0.25033405, 0.13660777, 0.24208832, 0
284, 3112874044, -0.700838, -0.41653118, 0.2654711, -0.5146498, -0.009618657, 0.25437385, 0.088397026, 0
286, 3112907378, -0.6976424, -0.4154532, 0.26912165, -0.5179564, 0.022955004, -0.37721634, -0.83292675, 0
287, 3112924045, -0.6978223, -0.41517517, 0.26956287, -0.5177075, 0.042025354, -0.50602305, -0.8376579, 0
289, 3112957379, -0.69905883, -0.41389993, 0.27006868, -0.51679593, 0.045501873, -0.13888782, -0.15930939, 0
290, 3112974046, -0.6995026, -0.41354483, 0.27031982, -0.51634806, 0.080536045, 0.0032845493, 0.013648987, 0
293, 3113024047, -0.7001793, -0.4133247, 0.27116892, -0.5151608, 0.13879573, -0.10823123, -0.19783592, 0
294, 3113040714, -0.70031714, -0.41337395, 0.27139735, -0.51481366, 0.16403839, -0.14825703, -0.21374607, 0
295, 3113057381, -0.7005189, -0.41345644, 0.27147993, -0.5144289, 0.18337025, -0.1474354, -0.15011501, 0
297, 3113090715, -0.7005668, -0.41400963, 0.27166754, -0.51381934, 0.24850684, -0.16455829, 0.06690788, 0
298, 3113107382, -0.70050836, -0.41412848, 0.2717575, -0.5137556, 0.37756836, -0.054215524, 0.17828465, 0
299, 3113124049, -0.7004405, -0.41418707, 0.27192518, -0.5137122, 0.37614617, -0.016870981, 0.25896645, 0
301, 3113157383, -0.7002806, -0.4142211, 0.2722007, -0.51375675, 0.14877671, -0.057245914, 0.05912018, 0
302, 3113174050, -0.7002717, -0.41426104, 0.27205095, -0.5138162, 0.14530867, -0.07994321, -0.19170094, 0
303, 3113190717, -0.70024556, -0.4144778, 0.27191496, -0.5137492, 0.12188966, -0.14174834, -0.14118767, 0
305, 3113224051, -0.7000127, -0.41483992, 0.2717243, -0.5138749, 0.15758602, -0.16014747, -0.094519615, 0
307, 3113257385, -0.69983125, -0.41475827, 0.2717977, -0.51414895, 0.10887735, -0.008497229, 0.06787777, 0
309, 3113290719, -0.6997136, -0.41467208, 0.27188513, -0.5143326, 0.14096873, -0.07223044, -0.11402321, 0
310, 3113307386, -0.6995935, -0.4146952, 0.27190772, -0.51446533, 0.19176383, -0.09104532, -0.14864826, 0
311, 3113324053, -0.69945335, -0.41473854, 0.27188247, -0.51463425, 0.21423516, -0.056871083, -0.15486526, 0
313, 3113357387, -0.69899106, -0.41486454, 0.2717908, -0.5152089, 0.19789055, 0.012287849, 0.012436867, 0
314, 3113374054, -0.6986687, -0.41480097, 0.2718359, -0.5156735, 0.13190348, 0.035653, -0.012331009, 0
316, 3113407388, -0.69804883, -0.41508737, 0.2716707, -0.51636916, 0.1335738, -0.0051121884, -0.026000023, 0
317, 3113424055, -0.69775957, -0.41529194, 0.27143458, -0.51671934, 0.15481983, -0.046442416, -0.085523605, 0
318, 3113440722, -0.6974196, -0.415547, 0.27116504, -0.5171147, 0.14357132, -0.07516987, -0.111989975, 0
320, 3113474056, -0.6964901, -0.41581726, 0.2708763, -0.5183003, 0.14576264, 0.0070062373, -0.13628578, 0
322, 3113507390, -0.6955609, -0.41598862, 0.2708482, -0.51942396, 0.080447, 0.102933526, 0.01600647, 0
324, 3113540724, -0.69496083, -0.4163146, 0.2705165, -0.5201383, 0.082063004, 0.040020443, -0.03383255, 0
325, 3113557391, -0.69468987, -0.4163045, 0.27045605, -0.52053976, 0.10184949, 0.01674738, -0.052233696, 0
326, 3113574058, -0.69451165, -0.4164087, 0.27026644, -0.5207925, 0.10612105, 0.023345705, -0.05537033, 0
328, 3113607392, -0.69422257, -0.41648477, 0.26998186, -0.5212646, 0.038799167, 0.05634471, -0.08049965, 0
329, 3113624059, -0.69409037, -0.41632146, 0.2700922, -0.52151394, 0.026785346, 0.07639069, -0.042002678, 0
330, 3113640726, -0.6940038, -0.4163838, 0.27008155, -0.52158463, 0.055612482, 0.04654747, -0.11712074, 0
332, 3113674060, -0.6941177, -0.41647315, 0.26992783, -0.52144146, 0.188117, 0.016986985, 0.010332108, 0
333, 3113690727, -0.6941394, -0.41646415, 0.26978582, -0.521493, 0.19355842, 0.055405285, 0.035473824, 0
334, 3113707394, -0.69406426, -0.4163025, 0.26973033, -0.5217508, 0.15026732, 0.07227738, 0.002087593, 0
337, 3113757395, -0.69397026, -0.4164042, 0.26955813, -0.5218839, 0.17573506, 0.029803889, -0.12546635, 0
339, 3113790729, -0.69382447, -0.41641906, 0.26965472, -0.52201587, 0.17297176, 0.06763346, -0.019012451, 0
340, 3113807396, -0.693772, -0.41653085, 0.26957595, -0.522037, 0.16815345, 0.061241556, -0.008903503, 0
341, 3113824063, -0.69368863, -0.41664767, 0.26944387, -0.5221229, 0.14074655, 0.05090597, -0.06919193, 0
343, 3113857397, -0.6934666, -0.41688165, 0.26927912, -0.52231586, 0.14104092, 0.038395725, -0.15756702, 0
344, 3113874064, -0.6933017, -0.41703779, 0.26927102, -0.5224145, 0.17791833, 0.073343314, -0.107792854, 0
345, 3113890731, -0.6930396, -0.41705656, 0.2694195, -0.5226707, 0.18384813, 0.14977826, -0.0033826828, 0
347, 3113924065, -0.6927023, -0.41746506, 0.2692018, -0.5229039, 0.1731642, 0.04830316, 0.036227226, 0
348, 3113940732, -0.69261706, -0.41764444, 0.26897645, -0.5229896, 0.20092921, 0.033366684, -0.0035572052, 0
349, 3113957399, -0.6925416, -0.41778222, 0.26869342, -0.52312475, 0.17666396, 0.019469319, -0.068237305, 0
351, 3113990733, -0.69239223, -0.41811934, 0.26831746, -0.5232459, 0.13476534, 0.049071375, -0.15748692, 0
352, 3114007400, -0.69236803, -0.41819495, 0.26818842, -0.52328384, 0.10056787, 0.082829654, -0.09023285, 0
353, 3114024067, -0.6922623, -0.41807324, 0.26817116, -0.52352995, 0.08426952, 0.050973695, -0.062104225, 0
355, 3114057401, -0.69223166, -0.41808695, 0.26780286, -0.5237478, 0.21162474, -0.023695055, -0.059848785, 0
356, 3114074068, -0.6921652, -0.41814107, 0.26764446, -0.5238732, 0.25589982, -0.018877888, -0.03635788, 0
357, 3114090735, -0.69204736, -0.4182535, 0.2675593, -0.52398264, 0.24009068, 0.02271674, -0.02528572, 0
359, 3114124069, -0.69181067, -0.4181418, 0.26736915, -0.52448136, 0.07953731, 0.096481375, -0.07185078, 0
360, 3114140736, -0.6946554, -0.42813718, 0.26257846, -0.5149918, 3.8163822, -5.5526357, -7.378403, 0
361, 3114157403, -0.7238051, -0.41598362, 0.25174725, -0.4895903, 4.994651, 5.746344, 8.741985, 0
364, 3114207404, -0.7081113, -0.4235161, 0.2500099, -0.5066744, 1.5192891, -1.9103361, -2.0036254, 0
365, 3114224071, -0.70545083, -0.42269757, 0.25190037, -0.5101212, -0.6453905, 0.98601735, 0.27370167, 0
367, 3114257405, -0.6942561, -0.41754934, 0.25712717, -0.5268379, 0.016864946, -0.19762143, -0.124243736, 0
368, 3114274072, -0.69154036, -0.41962206, 0.25838903, -0.5281439, 0.08484619, -0.1892388, 0.103918076, 0
370, 3114307406, -0.68903244, -0.42313778, 0.2577479, -0.52892935, 0.61171025, -0.124918036, -0.010112762, 0
371, 3114324073, -0.6889252, -0.42371723, 0.2569377, -0.52899945, 0.6867802, -0.2056822, -0.3281536, 0
372, 3114340740, -0.68956506, -0.42367545, 0.2562763, -0.52851987, -0.035731006, -0.08774694, -0.17248249, 0
374, 3114374074, -0.69058186, -0.4234183, 0.25569314, -0.5276798, -0.26845717, -0.24757144, -0.21347618, 0
375, 3114390741, -0.69108355, -0.42266154, 0.25553176, -0.52770805, -0.20829195, -0.4132426, -0.18249798, 0
376, 3114407408, -0.6912368, -0.42147794, 0.25536534, -0.52853376, -0.103669554, -0.30995345, -0.08951759, 0
379, 3114457409, -0.6923851, -0.41830885, 0.254807, -0.5298164, 0.2407896, -0.09643556, -0.031701088, 0
380, 3114474076, -0.6929546, -0.41762757, 0.2545421, -0.5297364, 0.14041978, -0.039094426, -0.14156914, 0
382, 3114507410, -0.69260925, -0.41682345, 0.25420508, -0.53098196, 0.026558926, 0.07647585, -0.056385994, 0
383, 3114524077, -0.6923269, -0.4161339, 0.2535749, -0.53219104, 0.3073102, -0.0714153, -0.47912025, 0
384, 3114540744, -0.69252217, -0.4154401, 0.25235617, -0.53305763, 0.61204934, 0.07587818, -0.28297997, 0
386, 3114574078, -0.69354767, -0.41412657, 0.24910165, -0.534276, 0.25108954, 0.42799312, 0.08712864, 0
387, 3114590745, -0.6937532, -0.41369525, 0.24707076, -0.53528535, 0.3699439, 0.26628283, -0.014910698, 0
388, 3114607412, -0.693755, -0.4133097, 0.24488986, -0.5365815, 0.54739106, 0.32556963, -0.29590034, 0
390, 3114640746, -0.6933101, -0.41163793, 0.24180594, -0.5398303, 0.54611903, 0.56120974, -0.5121994, 0
391, 3114657413, -0.69312847, -0.41048324, 0.24120791, -0.5412085, 0.44104964, 0.99724126, -0.09705448, 0
394, 3114707414, -0.692996, -0.40646464, 0.23951504, -0.5451487, 0.8857376, 1.3123794, 0.20214367, 0
395, 3114724081, -0.69280434, -0.4053995, 0.2381466, -0.5467826, 0.9513809, 1.103593, 0.051924706, 0
397, 3114757415, -0.6934788, -0.40303993, 0.23486385, -0.54908687, 0.8961184, 0.9879409, -0.32773113, 0
398, 3114774082, -0.6944552, -0.40134698, 0.23319343, -0.54980445, 0.8615414, 1.3647753, -0.03072071, 0
399, 3114790749, -0.6960221, -0.39881563, 0.23148915, -0.5503849, 0.48636016, 1.4167008, 0.21335506, 0
401, 3114824083, -0.6990496, -0.39452967, 0.22624543, -0.5518156, 0.50879014, 1.1125975, -0.1601162, 0
402, 3114840750, -0.7006353, -0.39228982, 0.22314972, -0.55266154, 0.6690051, 1.1644473, -0.35238838, 0
403, 3114857417, -0.7022293, -0.39034566, 0.22010595, -0.5532352, 0.69198424, 1.1750678, -0.41431618, 0
405, 3114890751, -0.7063076, -0.3850286, 0.21437147, -0.55402064, 0.6116812, 1.2706242, -0.48985767, 0
406, 3114907418, -0.7089546, -0.3814178, 0.21175863, -0.55414206, 0.63101566, 1.6347657, -0.31110287, 0
409, 3114957419, -0.7166708, -0.37190974, 0.20297894, -0.55396503, 0.858298, 1.588317, -0.4214487, 0
410, 3114974086, -0.7193402, -0.36832926, 0.20029373, -0.5538747, 1.104601, 1.6594746, -0.5793438, 0
411, 3114990753, -0.72190285, -0.36461282, 0.19790836, -0.5538571, 0.8225804, 1.3985865, -0.62888145, 0
413, 3115024087, -0.7280506, -0.35418668, 0.19383615, -0.5540155, -0.06115873, 1.724738, -0.6091633, 0
414, 3115040754, -0.7314076, -0.34800208, 0.19283994, -0.5538611, -0.4634464, 1.2882147, -1.1528978, 0
415, 3115057421, -0.7353301, -0.3413181, 0.19236043, -0.55299234, -0.50511056, 1.558232, -1.124793, 0
417, 3115090755, -0.74176097, -0.32993814, 0.19262713, -0.55121475, -0.009079766, 1.7096318, -0.49100494, 0
418, 3115107422, -0.7452029, -0.3239141, 0.19263835, -0.55014044, 0.06621728, 1.956933, -0.307374, 0
419, 3115124089, -0.7488308, -0.3169845, 0.19314882, -0.5490705, -0.097047314, 1.7069045, -0.8378496, 0
421, 3115157423, -0.75665367, -0.3027264, 0.19556524, -0.5455253, 0.7940945, 2.2665799, -2.129405, 0
422, 3115174090, -0.7598202, -0.29876894, 0.19602151, -0.54313636, 1.7798678, 2.5026195, -2.6091347, 0
425, 3115224091, -0.76201844, -0.29652622, 0.19322556, -0.54228747, 2.8750262, 2.0496113, -2.994493, 0
426, 3115240758, -0.760883, -0.29727408, 0.19218522, -0.54383963, 3.6211684, 2.3651404, -2.199243, 0
428, 3115274092, -0.75866616, -0.30109632, 0.19022983, -0.5455189, 4.117109, 4.198167, -0.48948574, 0
429, 3115290759, -0.7572558, -0.30340272, 0.18914327, -0.5465771, 4.073807, 4.874231, -0.069075584, 0
430, 3115307426, -0.75596815, -0.3068881, 0.18627523, -0.54739815, 3.935871, 5.2250767, 0.9867344, 0
432, 3115340760, -0.75424373, -0.31367183, 0.17947531, -0.5482029, 4.0551677, 5.1414666, 3.590252, 0
434, 3115374094, -0.7552914, -0.31554228, 0.17719658, -0.54642546, 3.9511216, 5.2319474, 5.9656916, 0
436, 3115407428, -0.75845504, -0.31115443, 0.17825978, -0.54420924, 1.5369625, 4.257799, 6.2849236, 0
440, 3115474096, -0.7481533, -0.3153462, 0.17806886, -0.55599153, -0.086857356, -2.422735, 1.7441111, 0
441, 3115490763, -0.744681, -0.31326815, 0.17862491, -0.5616208, -1.0211023, -1.709025, 2.6897726, 0
444, 3115540764, -0.73394835, -0.30555406, 0.18372594, -0.57811135, -0.44435593, -0.5866669, 0.8541126, 0
445, 3115557431, -0.7304257, -0.3042455, 0.18643455, -0.5823801, 0.92798066, -0.4870125, 0.4856243, 0
446, 3115574098, -0.72708535, -0.30175483, 0.18980454, -0.5867512, 1.6173816, 0.20327677, 0.22974205, 0
448, 3115607432, -0.7204373, -0.2955019, 0.19809821, -0.5953295, -0.0620282, 0.97250485, -0.82630825, 0
449, 3115624099, -0.7168267, -0.29494578, 0.20238087, -0.5985148, -0.03936242, 1.1397102, -0.8193798, 0
451, 3115657433, -0.7090509, -0.2967211, 0.21078551, -0.60397375, -0.9291389, 0.27428135, -1.2242622, 0
452, 3115674100, -0.7045306, -0.29848862, 0.21616186, -0.60648733, -1.4280024, -0.2563735, -1.5792074, 0
453, 3115690767, -0.70014477, -0.30005395, 0.22237253, -0.6085447, -0.05941377, -0.21038067, -1.7793808, 0
456, 3115740768, -0.6874733, -0.3032302, 0.24232148, -0.6137782, 0.4409419, 0.17617346, -0.7353182, 0
457, 3115757435, -0.6837956, -0.30499697, 0.24807389, -0.6147125, 0.36708942, 0.30241838, -0.7909174, 0
459, 3115790769, -0.6778525, -0.30901086, 0.25954032, -0.6145556, -0.45376316, -0.06611916, -1.0622864, 0
460, 3115807436, -0.675427, -0.31029212, 0.26621106, -0.6137265, -0.3010704, -0.095427066, -1.0604515, 0
461, 3115824103, -0.67361647, -0.31104952, 0.27300656, -0.6123462, -0.46198407, 0.033977434, -0.9127712, 0
463, 3115857437, -0.6717512, -0.31339547, 0.2842966, -0.6080465, -0.11956155, 0.19443671, -0.7715664, 0
464, 3115874104, -0.6713908, -0.31452632, 0.28925744, -0.60551584, 0.57671034, 0.13810709, -0.79763126, 0
465, 3115890771, -0.67081183, -0.31550592, 0.29471967, -0.6030084, 1.0826268, -0.17024411, -1.0193901, 0
467, 3115924105, -0.6704062, -0.31499714, 0.30795303, -0.59708357, 0.09035176, 0.042612076, -1.1274338, 0
468, 3115940772, -0.6702187, -0.31485704, 0.31380475, -0.59431475, -0.052756432, -0.19957651, -1.1338873, 0
472, 3116007440, -0.67186224, -0.3166431, 0.33685878, -0.5786847, 1.0779345, -0.3320888, -0.4296198, 0
473, 3116024107, -0.6722921, -0.31724846, 0.34286642, -0.5743092, 0.35157558, -0.34419855, -0.6374798, 0
475, 3116057441, -0.6734967, -0.31832638, 0.3538972, -0.56554306, 0.60470515, -0.3410859, -0.5839119, 0
476, 3116074108, -0.6738779, -0.31844074, 0.3593341, -0.5615821, 1.1598121, -0.24079241, -0.76215935, 0
478, 3116107442, -0.67446935, -0.31854492, 0.36902034, -0.554487, 1.1565434, -0.68874055, 0.24561024, 0
479, 3116124109, -0.6748175, -0.3181769, 0.3728255, -0.5517223, 0.6168372, -1.1237627, 0.16756535, 0
480, 3116140776, -0.6750435, -0.31824717, 0.37642366, -0.5489552, 0.3438425, -1.5630958, -0.15737438, 0
482, 3116174110, -0.67627335, -0.31799546, 0.3868146, -0.5402956, -0.047949117, -0.634075, -0.4285679, 0
483, 3116190777, -0.67605925, -0.3187403, 0.39179245, -0.5365246, 0.27639723, -0.17701432, -0.11855793, 0
484, 3116207444, -0.6769155, -0.3186378, 0.39608485, -0.5323379, 0.39405558, -0.15338443, 0.006406784, 0
487, 3116257445, -0.6774481, -0.31867343, 0.40287805, -0.52650964, 0.57383597, -1.796906, 0.2250166, 0
488, 3116274112, -0.6766741, -0.31881627, 0.4056938, -0.5252547, 0.6143064, -1.74538, 0.18204308, 0
490, 3116307446, -0.6741344, -0.31968093, 0.41327444, -0.5220752, 0.12216056, -0.7558133, 0.42665768, 0
491, 3116324113, -0.67321575, -0.31988272, 0.41597444, -0.5209916, -0.15816447, -0.7166602, 0.8242378, 0
492, 3116340780, -0.6726846, -0.31975973, 0.41770884, -0.52036524, -0.28036615, -0.8672145, 1.0209856, 0
494, 3116374114, -0.6730182, -0.31832662, 0.4187657, -0.5199629, -0.06692783, -1.3100595, 0.39350033, 0
495, 3116390781, -0.67356, -0.31717762, 0.419224, -0.51959413, -0.25657746, -1.539357, 0.16375637, 0
496, 3116407448, -0.6746696, -0.31553668, 0.41973543, -0.51874006, -0.19275758, -1.1202968, -0.015785217, 0
498, 3116440782, -0.67770195, -0.31212392, 0.4182957, -0.5180145, -0.2748512, -0.9043674, -0.3742714, 0
500, 3116474116, -0.6833632, -0.30825981, 0.41097718, -0.51874816, 0.19045629, -1.1415967, 0.40575123, 0
502, 3116507450, -0.6908773, -0.30367208, 0.39938876, -0.52054954, 0.29465178, -1.1886051, -0.81960773, 0
505, 3116557451, -0.7039225, -0.29393017, 0.37694478, -0.5253782, 0.03581133, 0.13444279, -1.9451189, 0
506, 3116574118, -0.7080048, -0.29047522, 0.36728778, -0.5286442, -3.5247992E-4, 0.16629979, -2.4241872, 0
507, 3116590785, -0.71148366, -0.2875549, 0.35583654, -0.5333808, 0.1253264, -0.19769219, -2.793427, 0
509, 3116624119, -0.71617305, -0.28518432, 0.3268445, -0.5467634, 1.2195048, -0.77454287, -3.817584, 0
510, 3116640786, -0.7189251, -0.2826336, 0.31408143, -0.5519324, 1.2361321, -0.45417684, -5.0868897, 0
511, 3116657453, -0.7220909, -0.27835444, 0.30274495, -0.5562918, 1.4561572, 0.41563252, -4.5696154, 0
513, 3116690787, -0.7266342, -0.27203792, 0.27728885, -0.5666748, 0.7706561, -0.71887517, -2.2862654, 0
514, 3116707454, -0.72831553, -0.26906335, 0.2640342, -0.5722399, -1.0250794, -1.4383966, -1.0304155, 0
517, 3116757455, -0.73882973, -0.24909681, 0.24352261, -0.5768792, 1.3902794, 5.4559083, -0.4500084, 0
518, 3116774122, -0.74357265, -0.24567398, 0.23717798, -0.5748931, 3.8189085, 7.0366697, 0.7753515, 0
519, 3116790789, -0.7479764, -0.24481082, 0.23056984, -0.5722308, 5.8059673, 7.8238726, 2.4538574, 0
521, 3116824123, -0.75586367, -0.24694617, 0.21842003, -0.56567836, 6.6148844, 8.747183, 5.233041, 0
522, 3116840790, -0.75727475, -0.2521342, 0.21137196, -0.5641782, 7.167904, 7.210674, 6.7785816, 0
523, 3116857457, -0.7570665, -0.25803995, 0.20557058, -0.5639309, 5.872461, 7.362544, 7.0577145, 0
525, 3116890791, -0.75498474, -0.26701245, 0.19992957, -0.5645721, 4.1990786, 4.853115, 3.875452, 0
526, 3116907458, -0.7542388, -0.26668814, 0.20084311, -0.565398, 1.4551775, 4.379854, 3.5554981, 0
528, 3116940792, -0.7547819, -0.26528853, 0.19974038, -0.5657221, -0.76478755, 2.6017118, 3.0454893, 0
529, 3116957459, -0.7540674, -0.2711862, 0.19799747, -0.56448984, -1.5729142, -0.14865266, 2.5896578, 0
532, 3117007460, -0.7516352, -0.27819544, 0.20017566, -0.56355405, -0.099876985, -3.8605614, 1.8323841, 0
533, 3117024127, -0.7497957, -0.27626362, 0.19847861, -0.5675407, 1.4220355, -1.6065255, 2.1889029, 0
534, 3117040794, -0.7464791, -0.27327386, 0.19742785, -0.5736933, 0.49841937, -0.14800435, 0.700963, 0
536, 3117074128, -0.74120075, -0.2691677, 0.19603518, -0.5828824, -0.5084016, 1.5635556, -0.28529453, 0
537, 3117090795, -0.7391199, -0.26990634, 0.19649792, -0.58502346, 0.16000555, 1.6011789, -0.5552864, 0
538, 3117107462, -0.73651, -0.27094293, 0.19761303, -0.5874553, 0.7367334, 1.0966945, -0.04954052, 0
540, 3117140796, -0.73468506, -0.27004126, 0.20463525, -0.5877513, -2.1064718, 0.13686581, -1.0498562, 0
541, 3117157463, -0.7341828, -0.27030173, 0.20671704, -0.58753073, -1.3761274, 0.3563295, -0.87262154, 0
542, 3117174130, -0.73425114, -0.27029228, 0.21033457, -0.5861639, -1.1245041, 0.14415725, -1.4478502, 0
544, 3117207464, -0.7334074, -0.27247941, 0.21860327, -0.58317477, 0.3635657, -0.66939104, -1.0457754, 0
546, 3117240798, -0.73210585, -0.27449653, 0.22936323, -0.57972103, -0.13009974, -0.6153828, -1.6178427, 0
548, 3117274132, -0.7291874, -0.27834335, 0.23858976, -0.5778382, -0.051220678, -0.5673607, -0.21687698, 0
549, 3117290799, -0.7264001, -0.28075722, 0.24379152, -0.57800996, 0.3799347, -1.1359468, -0.49433517, 0
550, 3117307466, -0.72357833, -0.28268397, 0.2491433, -0.5783281, 0.77087474, -1.5778761, -0.43001366, 0
552, 3117340800, -0.71971273, -0.28406626, 0.2631097, -0.57628536, -0.007881737, -0.45922202, -0.14338589, 0
553, 3117357467, -0.71799445, -0.285289, 0.27081418, -0.574252, 0.27131745, -0.08874336, -0.4801817, 0
554, 3117374134, -0.716678, -0.2859238, 0.27912116, -0.5715971, -0.42101234, -0.18451184, -0.81602955, 0
556, 3117407468, -0.71472, -0.28775218, 0.29409048, -0.56559366, -0.5032828, 0.005999088, -1.5503759, 0
557, 3117424135, -0.71353114, -0.28986037, 0.30107, -0.56233674, -0.169993, -0.3474786, -1.3383932, 0
559, 3117457469, -0.7113758, -0.29311922, 0.31560627, -0.55536467, -0.032458104, -0.4178358, -0.8313036, 0
561, 3117490803, -0.70829725, -0.29574764, 0.32995325, -0.5495367, -0.10248784, -0.61871773, -0.49805832, 0
563, 3117524137, -0.705889, -0.29631597, 0.3443342, -0.543473, -0.21448818, -0.26916736, -0.5441208, 0
565, 3117557471, -0.70452493, -0.29776946, 0.3569752, -0.5362447, -0.06512385, -0.038145505, 0.2878456, 0
567, 3117590805, -0.7034868, -0.29836005, 0.3677524, -0.5299598, 0.335134, -0.7362633, 0.13689709, 0
569, 3117624139, -0.70276666, -0.29774904, 0.37771696, -0.5242193, 0.49093816, -0.8128435, -0.56235695, 0
571, 3117657473, -0.70261145, -0.29615697, 0.38686073, -0.51863134, 0.62573457, -0.31744713, -0.46674252, 0
572, 3117674140, -0.7021814, -0.29594117, 0.39123622, -0.5160484, 0.90024424, -0.30317822, -0.18769741, 0
573, 3117690807, -0.70223993, -0.29499814, 0.3954142, -0.513317, 0.69691116, -0.23005417, 0.19178677, 0
575, 3117724141, -0.70048034, -0.294907, 0.40226135, -0.5104455, 0.82586205, -0.68375987, 0.3789568, 0
576, 3117740808, -0.70018023, -0.29501826, 0.40530547, -0.5083804, 1.5008419, -0.60320145, 0.582325, 0
577, 3117757475, -0.6987052, -0.29582685, 0.40856507, -0.5073297, 1.3533562, -0.8628356, 0.69301224, 0
580, 3117807476, -0.695014, -0.2968562, 0.4181618, -0.50396836, 0.020033913, 0.27024415, 0.7317066, 0
581, 3117824143, -0.69369775, -0.29680318, 0.42119667, -0.5032854, 0.16913113, -0.07751697, -0.38166142, 0
583, 3117857477, -0.69153744, -0.29378656, 0.4274862, -0.50272524, -0.11761498, 0.07270396, -1.1931534, 0
586, 3117907478, -0.6873926, -0.291988, 0.43350652, -0.50429964, 0.4867721, -1.2969149, -0.9123745, 0
587, 3117924145, -0.68525434, -0.29349425, 0.43510506, -0.50495815, 0.4655844, -1.550917, -0.5312519, 0
588, 3117940812, -0.6827863, -0.29559538, 0.43764675, -0.5048794, 0.18160674, -0.9056463, -0.30639267, 0
591, 3117990813, -0.67915994, -0.30195433, 0.43721762, -0.5063766, 0.0053383834, -0.71093816, 0.9488096, 0
592, 3118007480, -0.6801021, -0.30306995, 0.43372145, -0.5074514, -0.2369224, -1.0727159, 0.6062279, 0
595, 3118057481, -0.6861564, -0.30403677, 0.41930044, -0.5108324, 0.33546746, -0.33851406, -0.42380333, 0
596, 3118074148, -0.6888107, -0.30518752, 0.4101576, -0.51398706, 0.6536491, -0.9827641, -1.0861597, 0
598, 3118107482, -0.69477224, -0.3068932, 0.38607216, -0.5235149, 0.9297138, -1.9897119, -2.801539, 0
599, 3118124149, -0.69976276, -0.30447677, 0.37609333, -0.5255392, 0.00439717, -0.8851341, -4.139215, 0
603, 3118190817, -0.7215936, -0.28396335, 0.3319602, -0.53710485, -0.36902124, 0.8851311, -4.164619, 0
604, 3118207484, -0.72448456, -0.2814909, 0.31321648, -0.5457033, 1.1102699, -0.53022456, -5.10377, 0
606, 3118240818, -0.7313876, -0.26753712, 0.28128, -0.5607041, 3.5491, -1.1982859, -5.1945615, 0
607, 3118257485, -0.7364352, -0.2531256, 0.27292082, -0.5649042, 1.8083553, -1.1847569, -3.2429028, 0
609, 3118290819, -0.75165904, -0.23813984, 0.25674438, -0.55892026, 3.052113, 3.424766, 3.1749163, 0
610, 3118307486, -0.7563422, -0.23416126, 0.24850586, -0.55800664, 4.638644, 5.6670036, 9.696548, 0
613, 3118357487, -0.76600784, -0.23338512, 0.22490975, -0.55514914, 8.429941, 8.331548, 10.273565, 0
614, 3118374154, -0.76825386, -0.23548791, 0.21742114, -0.5541399, 8.94313, 6.2378783, 6.5844746, 0
615, 3118390821, -0.76933056, -0.23529537, 0.21366602, -0.5541884, 5.3060956, 5.78233, 3.1614637, 0
617, 3118424155, -0.77107817, -0.2321806, 0.20512643, -0.5562959, 0.52452904, 3.5929167, 1.5217018, 0
618, 3118440822, -0.77060306, -0.23514798, 0.2049816, -0.5557609, -2.7281144, 0.30159518, 0.4499216, 0
619, 3118457489, -0.7682415, -0.24383985, 0.20821798, -0.5540794, -7.2248693, -3.8759632, -1.3917313, 0
621, 3118490823, -0.7690982, -0.24585481, 0.21234863, -0.5504206, -3.0027232, -5.8790474, 1.3559322, 0
622, 3118507490, -0.77270246, -0.24173418, 0.21064538, -0.5478463, 0.88918614, -2.2206485, 3.008953, 0
623, 3118524157, -0.7750603, -0.24026757, 0.20867333, -0.5459121, 2.004871, -1.1403315, 2.3705034, 0
625, 3118557491, -0.77324575, -0.23835027, 0.20598052, -0.5503306, 0.64792293, 1.6338813, 0.3615446, 0
629, 3118624159, -0.76669985, -0.23310101, 0.21485782, -0.5582856, -1.9399557, 1.8009219, 1.1998663, 0
631, 3118657493, -0.7660672, -0.236848, 0.22354256, -0.55415165, -0.84329385, -1.7018697, -2.2128816, 0
633, 3118690827, -0.76858306, -0.23691618, 0.23105234, -0.547519, 1.6983964, -1.3092744, -1.833446, 0
634, 3118707494, -0.7699158, -0.23654743, 0.2346309, -0.5442747, 1.1408852, -0.43455657, -1.1296597, 0
635, 3118724161, -0.770141, -0.23668292, 0.23887831, -0.542045, 0.022504626, -0.11231917, -0.7958641, 0
637, 3118757495, -0.7676659, -0.23942652, 0.24762584, -0.540423, 0.12136852, -0.85021794, -1.2928028, 0
638, 3118774162, -0.765589, -0.24110603, 0.2527164, -0.5402659, -0.3459547, -0.914767, -0.88899326, 0
640, 3118807496, -0.76146144, -0.24130474, 0.2653488, -0.53995365, 0.5835796, -0.6017839, -1.3859272, 0
641, 3118824163, -0.7596868, -0.24088573, 0.27171394, -0.5394747, -0.2009804, -0.066336855, -0.67460346, 0
642, 3118840830, -0.7578787, -0.24226043, 0.2773263, -0.53854555, -0.5739312, 0.044400178, -0.028373718, 0
645, 3118890831, -0.7482315, -0.2532009, 0.29644084, -0.53681785, -0.49184942, -0.3343354, -1.164958, 0
646, 3118907498, -0.7457072, -0.2569641, 0.30272567, -0.5350318, -0.2788695, -0.0711939, -0.91035175, 0
648, 3118940832, -0.74180806, -0.26228523, 0.3160237, -0.53015834, 0.18770596, -0.24029912, -0.017835617, 0
649, 3118957499, -0.7408291, -0.26336414, 0.32336125, -0.5265552, 0.69452894, -0.013406866, 0.09182644, 0
650, 3118974166, -0.7393318, -0.26501238, 0.33022764, -0.5235628, 1.0880673, 0.0041188966, 0.092188835, 0
652, 3119007500, -0.7363683, -0.27031946, 0.34137237, -0.5178469, 0.76917624, 0.2722248, 0.005672455, 0
653, 3119024167, -0.7344278, -0.27323127, 0.34666127, -0.515556, 0.95094347, 0.19634004, -0.40665054, 0
654, 3119040834, -0.7328648, -0.27427337, 0.35312808, -0.5128309, 0.5593308, 0.32941923, -0.3132515, 0
656, 3119074168, -0.7294323, -0.27593368, 0.36547947, -0.5081588, 0.8538975, 0.1784134, -0.39924526, 0
657, 3119090835, -0.7273484, -0.27727973, 0.37071544, -0.50661784, 0.24348854, -0.064193144, -0.064626694, 0
658, 3119107502, -0.7268623, -0.27768233, 0.3764829, -0.5028276, 0.39566532, -0.15931132, -0.14774227, 0
660, 3119140836, -0.7242032, -0.27860618, 0.38715923, -0.4980237, 0.2867461, -0.16274749, -0.20659733, 0
661, 3119157503, -0.72203714, -0.2794974, 0.3916765, -0.49713647, 0.80404854, -0.90061545, -0.2669201, 0
664, 3119207504, -0.71641034, -0.2791295, 0.40625378, -0.49377346, -0.32092884, -0.24605212, -1.3622112, 0
665, 3119224171, -0.714603, -0.27964273, 0.40964437, -0.49330062, 0.26799202, -1.1130731, -0.7904949, 0
667, 3119257505, -0.70999116, -0.28193575, 0.41496015, -0.49421087, -0.120969236, -1.1217699, -0.79428196, 0
668, 3119274172, -0.70837116, -0.28363463, 0.41774145, -0.49321926, -0.22044413, -0.63454086, -0.83489513, 0
669, 3119290839, -0.70625144, -0.28632605, 0.41956407, -0.49315703, 0.19801639, -0.64882314, 0.10603809, 0
671, 3119324173, -0.70266104, -0.29021227, 0.42445457, -0.49182725, 0.21877001, -0.35163146, 0.43723297, 0
673, 3119357507, -0.70027006, -0.29210064, 0.42743415, -0.49153897, -0.519599, -0.50594205, -0.067295074, 0
675, 3119390841, -0.6979357, -0.29414684, 0.42988628, -0.4915005, -0.1730549, -0.6483761, 0.4907303, 0
676, 3119407508, -0.6966731, -0.29503, 0.43238896, -0.49056602, -1.1029273, -0.1888537, 0.41901016, 0
677, 3119424175, -0.69592893, -0.29596174, 0.43455228, -0.48914754, -0.06722152, -0.21841697, 0.35123444, 0
679, 3119457509, -0.69560105, -0.29549444, 0.4375033, -0.48726237, -1.0301225, -0.4776979, -0.18235302, 0
680, 3119474176, -0.6960835, -0.2944097, 0.4383692, -0.48645127, -0.8942436, -0.5237419, -0.47473907, 0
681, 3119490843, -0.6968044, -0.29289618, 0.4393999, -0.4854018, -0.41596654, -0.58468854, -0.37630844, 0
683, 3119524177, -0.6986207, -0.28985155, 0.44179243, -0.4824379, -0.260229, -0.86802554, -0.14483261, 0
684, 3119540844, -0.6989965, -0.28889233, 0.4437185, -0.480698, -0.17181486, -0.9045494, -0.22483921, 0
685, 3119557511, -0.69940567, -0.28806365, 0.4448532, -0.47955018, -0.34823564, -1.0481019, -0.15658283, 0
688, 3119607512, -0.6989712, -0.28640667, 0.44892952, -0.47737235, -0.4286992, -0.4378819, 0.49172115, 0
689, 3119624179, -0.6980478, -0.2865512, 0.451296, -0.47640443, 0.13563615, -0.46712342, 0.5171442, 0
691, 3119657513, -0.6951564, -0.2874218, 0.45823437, -0.47347566, -0.36202437, -0.16233042, 0.7249479, 0
692, 3119674180, -0.69363767, -0.28799003, 0.46155187, -0.4721333, -0.45788237, -0.9867605, 0.2464037, 0
694, 3119707514, -0.69146615, -0.28865173, 0.46618038, -0.4703637, 0.5072059, -0.5324102, 0.25421906, 0
695, 3119724181, -0.69067657, -0.28867173, 0.4674074, -0.47029376, 0.8716259, -0.13267271, 0.6906967, 0
696, 3119740848, -0.69036514, -0.2884995, 0.46735385, -0.4709095, 1.078863, -0.05238473, 1.0100183, 0
698, 3119774182, -0.69080985, -0.28937128, 0.46294916, -0.4740628, 0.6089356, -1.080845, 0.25775146, 0
699, 3119790849, -0.6916785, -0.28940514, 0.4598741, -0.47576535, 0.1519745, -0.7593261, 0.45346832, 0
700, 3119807516, -0.6928822, -0.2884156, 0.45688984, -0.47748703, -0.47161144, -0.6389649, -0.3653078, 0
703, 3119857517, -0.6987558, -0.28136367, 0.44121155, -0.48776907, 0.23623946, -0.40137658, -0.35895061, 0
704, 3119874184, -0.70140564, -0.27801877, 0.43311766, -0.49310893, -0.11602423, -0.060633365, -1.2733479, 0
706, 3119907518, -0.7087127, -0.27120474, 0.41071057, -0.5054729, -0.07245329, -0.24645595, -2.7225866, 0
707, 3119924185, -0.7130427, -0.26617545, 0.3967743, -0.5131301, 0.7550925, 0.10378366, -2.6550565, 0
708, 3119940852, -0.71777403, -0.25994045, 0.38404965, -0.5193734, 0.13222714, 0.12427013, -4.498593, 0
710, 3119974186, -0.7270971, -0.24582219, 0.3572321, -0.5322575, 0.71092945, 1.217705, -5.4141736, 0
711, 3119990853, -0.73104566, -0.2386846, 0.3432282, -0.539266, 1.2801447, 0.54972774, -6.588187, 0
712, 3120007520, -0.735542, -0.23050843, 0.32864085, -0.5457568, 3.0948768, 1.473157, -7.4529667, 0
714, 3120040854, -0.74420893, -0.22687021, 0.28905883, -0.55779874, 4.7468786, 0.48344964, -4.7758083, 0
715, 3120057521, -0.7476664, -0.23050901, 0.26860106, -0.56189466, 4.1391797, -0.81313956, -1.7630663, 0
718, 3120107522, -0.7588687, -0.21486376, 0.24119696, -0.56549746, 4.8094206, 10.695401, 10.198872, 0
719, 3120124189, -0.76337457, -0.21218431, 0.23469901, -0.5631738, 3.9377682, 14.080061, 7.7713737, 0
721, 3120157523, -0.77222353, -0.22436756, 0.20958826, -0.5562502, 4.411856, 4.983563, 3.6201115, 0
722, 3120174190, -0.7715522, -0.22580966, 0.20507053, -0.55827844, 4.283309, 2.0756876, 4.0080814, 0
723, 3120190857, -0.7684092, -0.22798128, 0.20347673, -0.5622993, 1.4234844, -0.24254128, 5.6737823, 0
726, 3120240858, -0.76125324, -0.24833158, 0.21509863, -0.55907863, -7.460686, -5.912759, 1.3131561, 0
727, 3120257525, -0.7629895, -0.24503969, 0.21057579, -0.5598855, 3.1929152, -0.52633905, 7.9055767, 0
729, 3120290859, -0.7612056, -0.24743989, 0.21138182, -0.5609536, 0.2190903, 2.6913705, 6.712425, 0
730, 3120307526, -0.759329, -0.24834828, 0.21349968, -0.56229174, -1.0914975, 1.4608947, 3.2261095, 0
731, 3120324193, -0.7594482, -0.24652493, 0.21573813, -0.56207895, -2.360211, 1.9815812, 1.875143, 0
733, 3120357527, -0.7599531, -0.24693556, 0.2240636, -0.5579437, -1.4882094, 0.3105991, 0.2775669, 0
734, 3120374194, -0.76166415, -0.24708062, 0.22852592, -0.5537206, -0.3352131, -0.32636815, -0.16590595, 0
735, 3120390861, -0.76378673, -0.24614304, 0.23377565, -0.5490025, 0.37867633, -0.98276657, -1.003995, 0
737, 3120424195, -0.76579696, -0.24233216, 0.24792969, -0.54163873, 0.8525057, -0.7789887, -2.9736404, 0
738, 3120440862, -0.76583743, -0.24062392, 0.25705183, -0.538079, 0.5099173, -0.3670494, -3.407188, 0
739, 3120457529, -0.76526815, -0.23807347, 0.2667998, -0.5352709, 0.38052166, -0.18510684, -3.1029673, 0
741, 3120490863, -0.76480687, -0.23269418, 0.28639385, -0.5281232, -0.018788947, -0.06557378, -2.343689, 0
742, 3120507530, -0.76366776, -0.23217475, 0.29568046, -0.5248723, 0.15921365, -0.57317805, -2.5142365, 0
743, 3120524197, -0.76172155, -0.23254076, 0.30492568, -0.522242, -0.07820316, -0.9272713, -3.0895495, 0
746, 3120574198, -0.7569713, -0.23758477, 0.32896805, -0.5121908, 0.15970291, -0.83082855, -1.9708724, 0
748, 3120607532, -0.75530314, -0.2411363, 0.34147018, -0.50475717, 0.41990173, -0.81088877, -0.7895365, 0
749, 3120624199, -0.75436926, -0.24206239, 0.3480191, -0.5012257, 0.30639222, -0.74410695, -0.22114849, 0
750, 3120640866, -0.7524128, -0.24443762, 0.35447335, -0.49848303, 0.62159604, 0.10800336, -0.114974976, 0
752, 3120674200, -0.74627334, -0.2525426, 0.3646328, -0.49633923, 0.41683826, -0.2936322, 0.20820332, 0
753, 3120690867, -0.7431868, -0.25628048, 0.36906707, -0.4957769, -0.0031951494, -1.0304004, 0.29902554, 0
754, 3120707534, -0.73923016, -0.26080802, 0.37201896, -0.497123, 0.8628673, -1.81524, 0.26434803, 0
756, 3120740868, -0.73377043, -0.26164886, 0.38387883, -0.49575138, -0.10226835, -0.22166127, 0.20732594, 0
757, 3120757535, -0.73070604, -0.26163104, 0.38920367, -0.496135, 0.07406482, 0.7994288, 0.048110962, 0
758, 3120774202, -0.7279226, -0.263054, 0.39229375, -0.49703956, 0.5324396, 0.8628161, 0.09479618, 0
761, 3120824203, -0.7194308, -0.26987016, 0.3972351, -0.5018019, 0.141996, -1.2432361, -0.23469257, 0
762, 3120840870, -0.7163353, -0.2713682, 0.40032622, -0.5029646, -0.24726702, -1.2168643, -1.1412487, 0
764, 3120874204, -0.70900726, -0.27408054, 0.40687653, -0.5066078, -0.53160435, -0.5632084, -1.2170858, 0
765, 3120890871, -0.7057119, -0.27612898, 0.40881774, -0.5085303, -0.2109446, -0.13364264, -0.9772301, 0
766, 3120907538, -0.7034634, -0.27725607, 0.4113287, -0.50900733, -0.51721996, 0.17081933, -0.7561941, 0
768, 3120940872, -0.7004376, -0.2794091, 0.4164002, -0.50787777, -0.46756274, 0.009586024, -0.075987816, 0
769, 3120957539, -0.69973296, -0.28052914, 0.41849235, -0.5065104, -0.57491815, 0.32958224, -0.06174183, 0
770, 3120974206, -0.6999122, -0.2816476, 0.41955954, -0.50475603, -0.25850704, 0.2240523, 0.22579288, 0
772, 3121007540, -0.70136946, -0.28370014, 0.41955703, -0.5015758, 0.22403553, -0.0183579, 1.5923223, 0
773, 3121024207, -0.70192814, -0.284475, 0.4201252, -0.49987707, 0.36045265, -0.12390631, 1.9741936, 0
776, 3121074208, -0.70177674, -0.28241885, 0.4294594, -0.49328005, -0.8387109, 0.3705912, -0.9412575, 0
777, 3121090875, -0.7020419, -0.28060237, 0.43205208, -0.49167258, -0.53958976, -0.004877835, -1.7735043, 0
779, 3121124209, -0.70418173, -0.2775606, 0.43300653, -0.48949462, 0.25428936, -1.2301315, -1.2803993, 0
781, 3121157543, -0.7047628, -0.27860618, 0.4338302, -0.4873305, 1.1366018, -1.1718642, 0.35604858, 0
783, 3121190877, -0.7047046, -0.27989328, 0.43677476, -0.4840356, -0.08200556, 0.0914444, 0.19649315, 0
784, 3121207544, -0.70523393, -0.27977818, 0.43750262, -0.48267186, -0.06478791, 0.019153496, -0.15242958, 0
785, 3121224211, -0.7060247, -0.2796527, 0.43787453, -0.48124933, -0.14771345, -0.26795727, 0.097569466, 0
787, 3121257545, -0.70738214, -0.27919838, 0.4392632, -0.47824472, 0.18518004, -0.1712534, 0.5897417, 0
788, 3121274212, -0.7081763, -0.27875453, 0.43995607, -0.47668892, 0.13840012, -0.22466996, 0.6597185, 0
789, 3121290879, -0.70896494, -0.27837768, 0.44039938, -0.47532582, 0.022645885, -0.42564487, 0.58835983, 0
792, 3121340880, -0.71053267, -0.27867934, 0.4416814, -0.47160387, 0.46333164, -0.8115328, 0.77411175, 0
793, 3121357547, -0.71069837, -0.2778178, 0.4436086, -0.47005087, 0.28667906, -0.07932821, 0.15274048, 0
795, 3121390881, -0.7096481, -0.2758221, 0.44798845, -0.46865714, -0.12974972, 0.22487482, -0.82456875, 0
796, 3121407548, -0.7089782, -0.27415743, 0.45037684, -0.46835852, -0.23082429, -0.1914204, -1.18087, 0
798, 3121440882, -0.7075927, -0.27138928, 0.45324078, -0.46930254, 0.4680853, -1.4156917, -1.4011307, 0
799, 3121457549, -0.7069097, -0.27110463, 0.453905, -0.469854, 0.74006236, -1.6911873, -0.90079784, 0
800, 3121474216, -0.706306, -0.271543, 0.45473218, -0.4697089, 0.6536413, -1.1890174, -0.40763378, 0
802, 3121507550, -0.70602417, -0.27392727, 0.45489883, -0.4685852, -0.010065972, -0.03597583, 0.32450867, 0
803, 3121524217, -0.7060672, -0.27518088, 0.45439655, -0.4682732, -0.2516121, 0.13736357, 0.6724529, 0
804, 3121540884, -0.706189, -0.27581275, 0.45379457, -0.46830156, -0.23949681, 0.07712806, 0.99150944, 0
806, 3121574218, -0.7058648, -0.27625343, 0.45423302, -0.46810555, -0.25533852, -0.03824955, 0.9112663, 0
807, 3121590885, -0.70551205, -0.27607864, 0.4546743, -0.46831203, 0.020827385, -0.09692002, 0.7045088, 0
808, 3121607552, -0.7051667, -0.27578345, 0.45515844, -0.4685357, 0.1648104, -0.14457153, 0.33346176, 0
810, 3121640886, -0.705088, -0.27420205, 0.45539707, -0.46934968, -0.36119628, -0.25915858, -0.20453548, 0
811, 3121657553, -0.7049813, -0.27361295, 0.45565182, -0.46960637, -0.18851395, -0.36189395, -0.34400845, 0
812, 3121674220, -0.7046134, -0.27333587, 0.45641607, -0.4695779, -0.19520548, -0.20957737, -0.47473907, 0
814, 3121707554, -0.7033167, -0.2741504, 0.45837486, -0.4691387, 0.0038598452, -0.23649459, -0.54129314, 0
815, 3121724221, -0.70289063, -0.27463186, 0.4591635, -0.4687242, -0.15419197, -0.30423242, -0.5350418, 0
816, 3121740888, -0.70271766, -0.27499962, 0.4597813, -0.46816212, -0.34998554, -0.3199893, -0.5432377, 0
820, 3121807556, -0.70173514, -0.27605563, 0.463744, -0.46509582, -0.32649454, 0.12852465, 0.012170792, 0
822, 3121840890, -0.70048726, -0.27694523, 0.46564713, -0.46454623, -0.16900083, -0.2914495, -0.005288124, 0
823, 3121857557, -0.6999288, -0.2770974, 0.46674985, -0.46419048, -0.19820368, -0.42009863, 0.124712944, 0
827, 3121924225, -0.697049, -0.2785356, 0.4712485, -0.46311682, -0.36195153, 0.008553282, 0.29557037, 0
829, 3121957559, -0.6950074, -0.27821845, 0.47343034, -0.46414906, -0.16407192, -0.4401693, -0.1331644, 0
830, 3121974226, -0.6937479, -0.27816176, 0.47456995, -0.464903, 0.012558746, -0.60303485, -0.17791271, 0
831, 3121990893, -0.692155, -0.27871197, 0.47590473, -0.4655825, 0.3229807, -0.62551606, -0.17145729, 0
833, 3122024227, -0.68956286, -0.27849013, 0.4791879, -0.46619412, 0.24784234, 0.29695708, 0.3656273, 0
835, 3122057561, -0.689626, -0.27575478, 0.47911614, -0.46779725, 0.55950385, 0.10263803, 0.57091904, 0
837, 3122090895, -0.69198954, -0.27149373, 0.47570708, -0.47027183, 0.35713482, -0.20394607, 0.8745365, 0
839, 3122124229, -0.69492793, -0.26828313, 0.47163016, -0.4718855, 0.19334899, -0.3809375, 0.22336292, 0
842, 3122174230, -0.7019273, -0.26567248, 0.45763808, -0.4767546, -0.07392959, -1.2415437, -0.7757044, 0
843, 3122190897, -0.7032875, -0.26572216, 0.45175904, -0.48031637, -0.375388, -1.3835373, -1.2323933, 0
845, 3122224231, -0.70457524, -0.2657256, 0.4411382, -0.4882337, -0.41909775, -0.8116418, -1.3134384, 0
846, 3122240898, -0.70514655, -0.26569998, 0.43558207, -0.49239364, -0.51050895, -0.46169335, -1.3216019, 0
847, 3122257565, -0.7061978, -0.26553825, 0.42830753, -0.4973312, -0.22419892, -0.30600142, -1.4523745, 0
849, 3122290899, -0.7097279, -0.26680073, 0.40520394, -0.5108081, 0.14928922, -0.78846526, -1.7880983, 0
850, 3122307566, -0.7113926, -0.26802284, 0.39114884, -0.51874703, 0.027371844, -0.5759916, -2.4349918, 0
851, 3122324233, -0.7137048, -0.26840967, 0.377176, -0.5256724, 0.48772696, 0.28803763, -3.338368, 0
853, 3122357567, -0.71914595, -0.26412076, 0.3478115, -0.54047006, 0.85565567, 1.1585311, -4.046549, 0
856, 3122407568, -0.72798127, -0.25340548, 0.30018884, -0.561896, 0.9790405, -1.0795206, -4.5353885, 0
857, 3122424235, -0.7315613, -0.24872434, 0.28670833, -0.56636035, 1.3970469, -2.6744545, -0.96710396, 0
858, 3122440902, -0.73696876, -0.24154375, 0.2779248, -0.566836, 3.055435, 1.6520631, -0.304986, 0
860, 3122474236, -0.7458534, -0.24258587, 0.24807987, -0.5686147, 2.0417404, 8.13419, 8.033609, 0
861, 3122490903, -0.74868745, -0.24221128, 0.23923478, -0.56884027, 4.041201, 6.387266, 9.955006, 0
862, 3122507570, -0.75374055, -0.23888981, 0.23296867, -0.56616616, 1.9898813, 6.8563027, 7.568001, 0
864, 3122540904, -0.761501, -0.24185391, 0.21964961, -0.5598111, 2.9106255, 5.094431, 1.3237066, 0
865, 3122557571, -0.7616441, -0.24857515, 0.21107946, -0.5599693, 3.6819217, 3.806239, 2.118002, 0
866, 3122574238, -0.7610569, -0.25357044, 0.20654544, -0.56021875, 0.9474068, -0.23364289, 1.9946985, 0
868, 3122607572, -0.7572682, -0.2552496, 0.21963574, -0.55961066, -9.1033745, -6.3215075, 0.16001225, 0
870, 3122640906, -0.76080936, -0.2486923, 0.22163649, -0.556965, -1.8640202, -3.6679816, 2.4408188, 0
872, 3122674240, -0.7639665, -0.24386862, 0.21279745, -0.55822223, 3.540127, 2.0684164, 4.289482, 0
873, 3122690907, -0.7634307, -0.24056959, 0.21108815, -0.5610286, 0.27967373, 1.868156, 3.225484, 0
874, 3122707574, -0.7657155, -0.23202182, 0.21484914, -0.56008655, -2.5950017, 2.335491, 3.671914, 0
876, 3122740908, -0.77138436, -0.22233397, 0.22369668, -0.55272526, -3.5446937, 2.3400407, -0.50004387, 0
877, 3122757575, -0.77332073, -0.22178528, 0.22411127, -0.5500655, -1.401546, 1.0012988, -0.6914692, 0
878, 3122774242, -0.7760756, -0.22099218, 0.22498287, -0.5461349, 0.5568734, -0.47739032, -0.5237379, 0
880, 3122807576, -0.78110766, -0.21497658, 0.23229568, -0.5382434, 1.0193996, -1.3350892, -0.94378567, 0
881, 3122824243, -0.7827082, -0.2114734, 0.23705551, -0.5352223, 0.5421861, -1.1447525, -1.3448915, 0
883, 3122857577, -0.78418636, -0.20312077, 0.2471567, -0.531713, 0.037913162, -0.6223733, -1.7114849, 0
884, 3122874244, -0.7843486, -0.19884783, 0.2524652, -0.5305935, 0.14502057, -0.47720104, -1.8205876, 0
885, 3122890911, -0.7835104, -0.19629243, 0.25804263, -0.5301001, -0.16258585, -0.62208146, -1.6453199, 0
887, 3122924245, -0.7796482, -0.19653752, 0.26964962, -0.52992654, -0.54322475, -2.207, -1.9035282, 0
888, 3122940912, -0.77848893, -0.1954822, 0.27643248, -0.52852464, -0.4322354, -2.0410175, -2.5763636, 0
889, 3122957579, -0.7779494, -0.19395724, 0.28256866, -0.5266326, 0.05045224, -1.4056892, -2.089548, 0
891, 3122990913, -0.7748974, -0.19467129, 0.2915145, -0.5259921, 0.6110187, 0.5511414, -0.24018002, 0
892, 3123007580, -0.7726548, -0.19835365, 0.29487288, -0.5260437, 0.42201704, 0.2581703, 0.034827232, 0
893, 3123024247, -0.7705064, -0.2013876, 0.29968166, -0.525324, 0.05729777, -0.57325476, -0.18715954, 0
895, 3123057581, -0.7667759, -0.20633757, 0.3086615, -0.52365935, -0.18478955, -0.44824702, -1.1653786, 0
899, 3123124249, -0.7569567, -0.2234075, 0.31006473, -0.5300725, 0.09050598, -0.06379261, -0.15533447, 0
900, 3123140916, -0.75445974, -0.22668138, 0.31130156, -0.53151554, -0.46659827, -0.4060571, -0.25728512, 0
901, 3123157583, -0.75209695, -0.22962955, 0.31325895, -0.5324479, -1.1488271, -0.13785474, -0.7059374, 0
903, 3123190917, -0.7473937, -0.23708034, 0.31624445, -0.5340379, -1.60603, -0.19374304, -0.097123146, 0
904, 3123207584, -0.7450047, -0.2407837, 0.31641442, -0.53561604, -1.0775571, -0.75354826, 0.40150642, 0
905, 3123224251, -0.7432555, -0.24303235, 0.31762117, -0.53631616, -0.70415676, -0.53388876, 0.73111534, 0
907, 3123257585, -0.74257517, -0.24360433, 0.32306457, -0.5337412, 0.506108, 0.9644081, 0.13400269, 0
908, 3123274252, -0.7420177, -0.24455285, 0.32462478, -0.53313583, -0.27303672, 1.8723115, 0.13161945, 0
910, 3123307586, -0.7405117, -0.25039732, 0.32544854, -0.53201354, 0.19422852, -0.16649212, 0.030544281, 0
911, 3123324253, -0.7402939, -0.25161764, 0.32651561, -0.53108615, 0.11650993, -0.6763514, 0.7063856, 0
914, 3123374254, -0.74145424, -0.24854411, 0.33722782, -0.52417576, -0.2158639, -0.17032202, -0.37755013, 0
915, 3123390921, -0.74165106, -0.24753161, 0.34057212, -0.52221054, -0.79037803, 0.33042735, -0.8794718, 0
916, 3123407588, -0.7423206, -0.24686262, 0.3418112, -0.5207645, -0.9948727, 0.48121032, -1.0390606, 0
918, 3123440922, -0.74148774, -0.24985862, 0.3431332, -0.5196513, 0.7134789, -2.0408714, -0.5069628, 0
919, 3123457589, -0.7407001, -0.25062025, 0.34616005, -0.518399, 0.947661, -1.8543667, -0.26372147, 0
920, 3123474256, -0.7402947, -0.2503247, 0.35007438, -0.516489, 0.101620615, -0.66792226, 0.07887745, 0
922, 3123507590, -0.7406543, -0.24879025, 0.35810113, -0.5111845, -0.7755354, 0.01919004, -0.18459415, 0
924, 3123540924, -0.74076986, -0.25082815, 0.36183, -0.5073813, 0.5941258, -0.9481178, -0.48258877, 0
926, 3123574258, -0.7406149, -0.2510573, 0.36734402, -0.5035172, 0.7287888, -0.51120585, -0.3873539, 0
927, 3123590925, -0.74009144, -0.25074014, 0.37038872, -0.50221276, 0.020306151, -0.460219, -0.24074268, 0
931, 3123657593, -0.73738265, -0.25630522, 0.37780935, -0.49784154, 0.91586334, -0.9930611, 1.0750456, 0
933, 3123690927, -0.7350299, -0.25614098, 0.3852709, -0.49568212, -0.53307104, -0.0075674783, 0.07714462, 0
934, 3123707594, -0.733319, -0.2566781, 0.38832206, -0.49555755, -0.94128174, 0.32476717, -0.36841202, 0
935, 3123724261, -0.7318979, -0.25747657, 0.38992047, -0.49598867, -0.7577641, -0.45135456, -0.7753391, 0
937, 3123757595, -0.72874445, -0.2601184, 0.3920538, -0.49756932, 0.6380265, -1.5521451, 0.022987366, 0
938, 3123774262, -0.7268371, -0.2620023, 0.39402276, -0.4978153, 0.78164536, -1.133463, 0.29638195, 0
939, 3123790929, -0.7264043, -0.26255667, 0.3973245, -0.49552536, -0.044580776, -0.23720983, 0.11459637, 0
941, 3123824263, -0.7240173, -0.26346433, 0.40306753, -0.49389625, -0.5315529, 0.108625844, -0.9509325, 0
942, 3123840930, -0.72331756, -0.2643226, 0.40461087, -0.4932006, -0.3529471, -0.39854038, -1.1676598, 0
943, 3123857597, -0.7224879, -0.26569632, 0.40621084, -0.49236244, -0.19368762, -0.8770941, -0.96009064, 0
946, 3123907598, -0.72003454, -0.26914668, 0.41346353, -0.48802632, -0.0965111, -0.24195802, 0.5541153, 0
947, 3123924265, -0.71953005, -0.26978308, 0.4157494, -0.48647457, -0.115185164, -0.13940145, 0.9171114, 0
949, 3123957599, -0.7187351, -0.27134874, 0.42017972, -0.48295957, -0.020714734, -0.38422638, 0.8565426, 0
950, 3123974266, -0.71823436, -0.27192855, 0.4230769, -0.48084491, -0.41150343, 0.18085092, 0.49254036, 0
951, 3123990933, -0.7175385, -0.27210355, 0.42589128, -0.4792975, -0.4122659, 0.01628373, 0.17101574, 0
954, 3124040934, -0.7139475, -0.27245897, 0.43272302, -0.47833812, -0.009235555, -1.150577, -0.24326324, 0
955, 3124057601, -0.71188605, -0.27366892, 0.43505573, -0.4786039, 0.15054089, -1.1152977, -0.14394474, 0
957, 3124090935, -0.70843124, -0.27489236, 0.44073844, -0.47782898, 0.25795943, -0.69492877, 0.09521103, 0
958, 3124107602, -0.7069323, -0.27476794, 0.44388163, -0.47721055, -0.1442385, -0.42728302, -0.09452629, 0
959, 3124124269, -0.7057899, -0.27368563, 0.4472649, -0.47636375, -0.70851034, -0.02061147, -0.46124458, 0
961, 3124157603, -0.7030758, -0.2725804, 0.45329502, -0.47530967, -0.454894, -0.61794364, -1.1703081, 0
962, 3124174270, -0.70170236, -0.27224356, 0.4564882, -0.47447562, -0.12260512, -0.7106751, -0.6849842, 0
964, 3124207604, -0.7003659, -0.27331233, 0.46227294, -0.47021627, 0.9224889, -0.7997389, 1.3611546, 0
965, 3124224271, -0.6993613, -0.27398965, 0.4647768, -0.46884674, 0.47802, -0.91342455, 1.3036175, 0
968, 3124274272, -0.6969426, -0.27445295, 0.4673642, -0.46960503, 0.2807202, -0.75118226, 1.0444279, 0
969, 3124290939, -0.69667244, -0.27308318, 0.46720275, -0.47096333, 0.13968353, -0.43103334, 0.4702196, 0
970, 3124307606, -0.69724154, -0.27151448, 0.46546572, -0.4727444, -0.3146651, -0.5111573, 0.11782265, 0
972, 3124340940, -0.7011462, -0.26751068, 0.4575259, -0.47698382, 0.073506705, -0.9286594, -0.40784168, 0
973, 3124357607, -0.7034222, -0.26670903, 0.45078605, -0.4804862, 0.08771811, -1.6108572, -0.24216747, 0
976, 3124407608, -0.7067861, -0.26604074, 0.43283224, -0.492284, 0.6900522, 0.03649676, -1.9403396, 0
977, 3124424275, -0.7073955, -0.2642217, 0.42723358, -0.49725395, 0.37989113, 1.1005543, -2.0126982, 0
978, 3124440942, -0.7089793, -0.26154435, 0.4203116, -0.5022873, -0.0329771, 1.4903535, -1.3513613, 0
980, 3124474276, -0.713427, -0.26111802, 0.39997292, -0.51271075, 0.32711032, -0.5040458, -1.2728558, 0
981, 3124490943, -0.7154273, -0.26277435, 0.38667583, -0.5192365, 0.8950603, -0.9602793, -1.6406641, 0
982, 3124507610, -0.7164334, -0.26221427, 0.37423703, -0.5271859, 1.6224462, -0.8188772, -2.786652, 0
984, 3124540944, -0.72134197, -0.25087076, 0.35479707, -0.5393147, 0.5478079, 1.4773859, -3.373602, 0
985, 3124557611, -0.72559714, -0.24309738, 0.34564438, -0.5430964, -0.3355934, 3.1235933, -3.6089044, 0
986, 3124574278, -0.7302486, -0.23889372, 0.33116987, -0.54772705, -0.28280872, 2.2240307, -3.719047, 0
988, 3124607612, -0.7369221, -0.2459861, 0.29281175, -0.5574132, 5.133182, 0.9964501, -6.4554653, 0
991, 3124657613, -0.75563335, -0.236235, 0.27544993, -0.5452981, 0.23932426, 5.590109, 10.863871, 0
992, 3124674280, -0.75994426, -0.23254155, 0.27180266, -0.54271895, -3.6055663, 11.452329, 8.521521, 0
993, 3124690947, -0.7655362, -0.2313581, 0.26288342, -0.53975135, -0.13080336, 6.7512903, 6.3664265, 0
995, 3124724281, -0.77263445, -0.22430182, 0.25459054, -0.5365816, 5.0857897, 2.6204405, 2.970953, 0
996, 3124740948, -0.7739798, -0.22218247, 0.25447968, -0.5355763, 1.2708486, 1.1869298, 0.7418146, 0
997, 3124757615, -0.7745554, -0.22193146, 0.25715184, -0.53356785, -4.35341, -2.1807444, -0.07206249, 0
999, 3124790949, -0.77444243, -0.2237302, 0.2637954, -0.5297239, -6.323188, -4.617902, -1.2118511, 0
1000, 3124807616, -0.7761647, -0.2237179, 0.26086253, -0.52865964, -2.8394108, -2.4386766, 0.98516464, 0
1001, 3124824283, -0.777715, -0.22474656, 0.25908622, -0.5268152, 4.2749195, -1.726304, 3.4090786, 0
1003, 3124857617, -0.775382, -0.22636726, 0.25562206, -0.53123397, 2.2215111, -1.7832805, 1.1390095, 0
1005, 3124890951, -0.7747588, -0.2101109, 0.26091877, -0.5362229, -3.2114792, 3.0496523, 0.8685255, 0
1007, 3124924285, -0.7754574, -0.2034047, 0.26486945, -0.53586197, -2.773723, 2.2750301, 0.088624954, 0
1008, 3124940952, -0.7764002, -0.20353127, 0.26300138, -0.5353685, -1.8407015, 0.12552387, -0.7815323, 0
1009, 3124957619, -0.77826345, -0.20464686, 0.26226124, -0.5325941, -0.15448545, -1.3981451, -0.6520481, 0
1011, 3124990953, -0.78235936, -0.19844767, 0.2667229, -0.52669024, 0.66522664, -2.171908, -2.6012807, 0
1012, 3125007620, -0.7843002, -0.19391873, 0.2698012, -0.5239155, -0.38327017, -1.2769889, -1.9059448, 0
1013, 3125024287, -0.7850611, -0.19029209, 0.27281624, -0.52254283, -0.47875872, -0.76154166, -1.2048845, 0
1015, 3125057621, -0.7840252, -0.18489885, 0.28092486, -0.521737, -0.29628432, -1.1219579, -1.4967117, 0
1016, 3125074288, -0.78275937, -0.18444052, 0.2842615, -0.52199256, -0.05997389, -1.5437436, -1.2019072, 0
1018, 3125107622, -0.78088427, -0.18332909, 0.29200444, -0.5209175, -0.37371746, -1.5873054, -0.8791895, 0
1020, 3125140956, -0.7784825, -0.18225248, 0.30213827, -0.51910794, -0.1596296, -1.0971776, -1.4947176, 0
1022, 3125174290, -0.77420866, -0.18713471, 0.31018904, -0.5190141, -0.9204053, -0.029371949, -0.77976704, 0
1023, 3125190957, -0.77225065, -0.19105572, 0.31446725, -0.51792693, -0.66630936, -0.3652305, -1.0304966, 0
1024, 3125207624, -0.769802, -0.19627391, 0.3183537, -0.5172466, -0.7055086, -0.57915205, -0.5096855, 0
1026, 3125240958, -0.76608634, -0.20386669, 0.3280594, -0.5137495, -0.36879212, 0.4287544, 0.44117737, 0
1027, 3125257625, -0.76382965, -0.20813209, 0.3317172, -0.51305026, -0.34959304, -0.0329562, 0.2806015, 0
1028, 3125274292, -0.76184255, -0.21195027, 0.33506364, -0.5122666, -0.3497875, 0.13419439, 0.21028614, 0
1030, 3125307626, -0.7583966, -0.21975082, 0.34178478, -0.5096457, -0.14600872, -0.22112584, 0.769454, 0
1031, 3125324293, -0.75647306, -0.22323826, 0.34641826, -0.5078574, -0.13688828, -0.1769352, 0.37294006, 0
1032, 3125340960, -0.75399506, -0.22708328, 0.35130882, -0.5064763, -0.020905167, -0.094939925, 0.012124062, 0
1034, 3125374294, -0.7485626, -0.23423058, 0.3600615, -0.505131, -0.19522917, -0.099476114, -0.18379211, 0
1035, 3125390961, -0.746464, -0.23696263, 0.3636952, -0.5043586, -0.37977153, -0.0806646, 0.23428631, 0
1036, 3125407628, -0.74452776, -0.24014929, 0.36730298, -0.5030974, 0.18001778, -0.44968465, -0.21341515, 0
1038, 3125440962, -0.74081707, -0.24561718, 0.37692213, -0.49880213, 0.18323056, -0.05292228, -0.51640606, 0
1039, 3125457629, -0.7387653, -0.24797507, 0.38261354, -0.49633923, 0.26960757, -3.4454523E-4, -0.6005707, 0
1040, 3125474296, -0.73650956, -0.25011483, 0.3884668, -0.49406624, -0.19604589, -0.038697246, -0.7993212, 0
1042, 3125507630, -0.7337161, -0.25262684, 0.39888164, -0.4886157, -0.4836742, -0.14635974, -0.83371353, 0
1043, 3125524297, -0.7325037, -0.25450668, 0.40298453, -0.48608586, 0.02741051, -0.33936664, -0.38949108, 0
1045, 3125557631, -0.72952837, -0.25915283, 0.41227314, -0.48028165, 0.7326576, -0.6367463, 0.63493824, 0
1047, 3125590965, -0.7267271, -0.26151925, 0.42300686, -0.47386932, 0.11316059, -0.6487776, 0.122442245, 0
1049, 3125624299, -0.72485405, -0.26174143, 0.43072772, -0.4696415, -0.20721774, -0.31323352, -0.06441784, 0
1050, 3125640966, -0.7241601, -0.26220682, 0.43306017, -0.4683057, 0.1396367, -0.5243936, 0.53240967, 0
1051, 3125657633, -0.72308844, -0.26325607, 0.43490055, -0.46766686, 0.6112816, -0.96002835, 1.1213179, 0
1053, 3125690967, -0.7201904, -0.26572633, 0.43847203, -0.4674069, -0.33327526, -0.65647465, 0.9521656, 0
1054, 3125707634, -0.71931076, -0.2661657, 0.44049975, -0.46660423, -0.09055314, -1.0767277, -0.16125011, 0
1055, 3125724301, -0.71778953, -0.26650217, 0.44250688, -0.4668553, -0.74823195, -0.584539, -0.7141485, 0
1057, 3125757635, -0.7153359, -0.2661137, 0.44568846, -0.46781567, -0.8852065, -0.6355937, -1.0642786, 0
1058, 3125774302, -0.7138507, -0.2661747, 0.44721702, -0.46858984, -0.5101898, -0.9769349, -0.99123096, 0
1059, 3125790969, -0.71237403, -0.2666183, 0.44785675, -0.46997193, -0.050593052, -1.4942527, -0.45631695, 0
1062, 3125840970, -0.70734906, -0.27216327, 0.44845092, -0.47380143, 0.06574902, -0.29225, 1.1548948, 0
1063, 3125857637, -0.70525116, -0.27417922, 0.4491192, -0.4751317, -0.07669043, -0.4392945, 0.5500326, 0
1065, 3125890971, -0.7017408, -0.27685884, 0.45147642, -0.47653908, -1.4300613, 0.7053792, -0.07729912, 0
1066, 3125907638, -0.7003858, -0.27673203, 0.45307264, -0.47709078, -1.3218648, 0.44717464, -0.6737261, 0
1067, 3125924305, -0.69946563, -0.27594727, 0.4544777, -0.477559, -0.82863224, -0.1307743, -0.89822197, 0
1069, 3125957639, -0.6984074, -0.27514425, 0.45678747, -0.47736746, 0.031897534, -0.83983904, -0.36529255, 0
1070, 3125974306, -0.6979518, -0.2754088, 0.4582381, -0.47648996, 0.059954222, -0.6324376, 0.02434349, 0
1074, 3126040974, -0.69488186, -0.2767915, 0.46613604, -0.472498, 0.16674067, -0.12683299, 0.28493595, 0
1076, 3126074308, -0.69336325, -0.27657372, 0.46944317, -0.4715814, 0.26422718, -0.5782333, -0.032463074, 0
1077, 3126090975, -0.6922247, -0.27683902, 0.47120315, -0.47134322, -0.18237406, -0.39177698, -0.017415047, 0
1080, 3126140976, -0.68896735, -0.27429256, 0.47488487, -0.47390234, -0.27695847, -0.46028683, 0.9244337, 0
1081, 3126157643, -0.68654597, -0.27357355, 0.4760304, -0.47667468, -0.4936297, -0.23141481, 1.1107149, 0
1082, 3126174310, -0.68456113, -0.27194992, 0.47619423, -0.48028088, -0.6141242, -0.3888924, 0.7111044, 0
1084, 3126207644, -0.683169, -0.26661918, 0.4729952, -0.4883455, -0.60240585, -1.086771, 0.34614372, 0
1085, 3126224311, -0.68281037, -0.26393119, 0.47056434, -0.49263677, -0.56607497, -1.2778395, -0.23833275, 0
1086, 3126240978, -0.68204564, -0.26082686, 0.46924838, -0.49658912, -0.2704565, -0.90193665, -0.6983881, 0
1088, 3126274312, -0.6802995, -0.25448877, 0.4670521, -0.5042833, 0.10310474, 0.1601657, -1.1371555, 0
1089, 3126290979, -0.6803747, -0.2515354, 0.46417585, -0.5083034, 0.2973375, 0.22541784, -1.5187893, 0
1090, 3126307646, -0.68184155, -0.24838336, 0.45886523, -0.5126908, 0.1046557, -0.5418002, -1.700366, 0
1092, 3126340980, -0.6878905, -0.24446627, 0.44242635, -0.52087724, 0.32818744, -1.0916042, -2.2547483, 0
1094, 3126374314, -0.6941907, -0.24024564, 0.4242091, -0.5295654, 0.11168339, -0.15324965, -2.3519416, 0
1096, 3126407648, -0.70230097, -0.23166856, 0.40729454, -0.5359344, -0.7860803, 1.2036877, -2.6234555, 0
1097, 3126424315, -0.7077395, -0.2270456, 0.39630473, -0.5389891, -0.3447189, 0.8799027, -3.8786187, 0
1099, 3126457649, -0.7183015, -0.21839252, 0.37142706, -0.5462609, 2.5358434, 0.6664311, -5.1859083, 0
1100, 3126474316, -0.7232474, -0.21425083, 0.3594863, -0.5493549, 4.4175887, 1.2190375, -6.0026846, 0
1101, 3126490983, -0.7283146, -0.21369295, 0.34557647, -0.5517986, 6.711103, 2.4921403, -6.915884, 0
1103, 3126524317, -0.7379691, -0.22742067, 0.31413954, -0.5522766, 2.8261573, -1.6414979, 8.096409, 0
1104, 3126540984, -0.7438397, -0.22346163, 0.3082003, -0.5493552, 1.5417137, 1.2806555, 13.132902, 0
1105, 3126557651, -0.7474866, -0.2149109, 0.30862948, -0.5475731, -2.9510787, 8.493487, 11.054432, 0
1107, 3126590985, -0.7646808, -0.20953251, 0.28740653, -0.5373718, 5.074003, 3.6473699, 4.501506, 0
1108, 3126607652, -0.7708704, -0.20700723, 0.27982917, -0.53349197, 7.4527316, -0.27644005, 4.2718067, 0
1109, 3126624319, -0.7726913, -0.19875765, 0.2759583, -0.5360056, 1.8818604, 0.84612805, 4.0708923, 0
1111, 3126657653, -0.7745974, -0.20055038, 0.28087968, -0.52999663, -8.066557, -3.58345, 1.059741, 0
1112, 3126674320, -0.7717068, -0.20695156, 0.28726572, -0.528327, -5.695398, -6.5645747, -3.4547791, 0
1113, 3126690987, -0.76970506, -0.2114578, 0.28757545, -0.5292934, -4.2712255, -4.1093335, -3.4285393, 0
1115, 3126724321, -0.7707894, -0.21428221, 0.28045115, -0.53040147, 7.8260584, 0.21608695, 5.0619907, 0
1116, 3126740988, -0.7701591, -0.21240982, 0.2808127, -0.53187656, 1.8481686, 1.0855255, 3.2625084, 0
1117, 3126757655, -0.76849884, -0.20967945, 0.28496584, -0.53315115, -2.4523878, 1.4780073, 1.806117, 0
1119, 3126790989, -0.7653564, -0.2068929, 0.29357755, -0.5340868, -4.36698, 2.6039174, -0.17278957, 0
1122, 3126840990, -0.76515806, -0.20878346, 0.29675215, -0.5318762, -1.5066947, -2.0574028, -2.6090155, 0
1123, 3126857657, -0.7671515, -0.2072091, 0.29902345, -0.5283365, -0.7793119, -1.9688226, -2.1295156, 0
1124, 3126874324, -0.769473, -0.20462966, 0.3022422, -0.5241176, -0.22524965, -1.4416194, -1.3227797, 0
1126, 3126907658, -0.7737428, -0.1993781, 0.31035408, -0.51503617, 0.63062906, -0.31128544, -0.44166088, 0
1127, 3126924325, -0.77479684, -0.196619, 0.3148535, -0.51177096, 0.50840235, 0.18368417, -0.05238056, 0
1128, 3126940992, -0.7751174, -0.1951145, 0.31902573, -0.50927144, 0.37442756, -0.13536884, -0.24705791, 0
1130, 3126974326, -0.77419513, -0.1925717, 0.3296633, -0.5048482, -0.509686, -1.2967577, -0.98912907, 0
1131, 3126990993, -0.77360094, -0.19178535, 0.336357, -0.5016326, -0.14343676, -1.4978173, -1.1422997, 0
1132, 3127007660, -0.77203715, -0.19211787, 0.34300646, -0.49940705, -0.37891933, -1.5305626, -0.96875, 0
1134, 3127040994, -0.76965314, -0.193361, 0.35438272, -0.49464127, -0.25288904, -1.2212267, -0.13626957, 0
1136, 3127074328, -0.7673, -0.1942266, 0.36863002, -0.48749372, 0.98784524, -0.008681634, -0.44664097, 0
1138, 3127107662, -0.7628318, -0.19773862, 0.38108546, -0.48350006, -0.1101749, 1.2865244, -0.4461193, 0
1139, 3127124329, -0.76065814, -0.19952697, 0.38663274, -0.4817828, 0.009582671, 0.33276576, -0.9667969, 0
1140, 3127140996, -0.7579484, -0.20160332, 0.39207724, -0.4807881, 0.013423294, -0.34744313, -1.1639843, 0
1142, 3127174330, -0.7516559, -0.20821181, 0.40144566, -0.48011857, 0.8317373, -1.1051103, -0.68417263, 0
1143, 3127190997, -0.74804986, -0.21227285, 0.40538368, -0.48066318, 0.94830984, -0.5263544, -0.3095379, 0
1144, 3127207664, -0.74369466, -0.2174559, 0.40875196, -0.4822492, 0.93141156, -1.0312017, 0.2783556, 0
1146, 3127240998, -0.7340167, -0.22643721, 0.41659042, -0.48621976, -0.027563842, -0.31428537, -0.43264198, 0
1147, 3127257665, -0.72918653, -0.23068759, 0.42056638, -0.4880632, -0.5913567, 0.34802163, -0.8333578, 0
1148, 3127274332, -0.72466224, -0.2350156, 0.42401677, -0.48974848, -0.38161775, 0.10855644, -1.1380606, 0
1151, 3127324333, -0.71464735, -0.24629557, 0.43184873, -0.49207306, -0.35883576, -0.49610427, 0.22900295, 0
1153, 3127357667, -0.71042067, -0.251969, 0.43729, -0.4905128, -0.6062255, 0.13256252, 0.3037548, 0
1154, 3127374334, -0.7089, -0.25388187, 0.44097048, -0.48842734, -0.7425744, 0.9389385, 0.032910347, 0
1155, 3127391001, -0.70767516, -0.25486714, 0.44479546, -0.48621714, -0.69757766, 1.1381449, -0.10813427, 0
1157, 3127424335, -0.7066265, -0.25442642, 0.45101926, -0.4822232, -0.10189866, -0.23473185, 0.2364893, 0
1158, 3127441002, -0.7064419, -0.2540933, 0.45303383, -0.4807787, 0.010567245, -0.8985078, 0.35365486, 0
1159, 3127457669, -0.7060977, -0.2544157, 0.45475456, -0.47948748, 0.18357521, -1.4661715, 0.518198, 0
1161, 3127491003, -0.7041464, -0.25658476, 0.45958224, -0.47658953, -0.23495592, -0.4922365, 0.25204277, 0
1162, 3127507670, -0.70248544, -0.25748804, 0.46274686, -0.47548997, -0.6116298, -0.30100122, -0.6030321, 0
1163, 3127524337, -0.7006983, -0.25823072, 0.4657486, -0.47479308, -1.1191591, -0.69400233, -1.4380989, 0
1166, 3127574338, -0.6970184, -0.26047045, 0.47022963, -0.4745694, -0.6287046, -0.90368414, -0.39642334, 0
1167, 3127591005, -0.6960785, -0.26240638, 0.47064084, -0.47447497, -0.098057814, -0.646435, 0.4923172, 0
1169, 3127624339, -0.6941506, -0.26687765, 0.47275546, -0.4726997, -0.5189743, 0.29030657, 1.0352592, 0
1170, 3127641006, -0.69357073, -0.26769367, 0.47393787, -0.47190487, -0.7409678, 0.13073216, 0.18671227, 0
1171, 3127657673, -0.6933157, -0.26747662, 0.4748385, -0.47149706, -0.93474996, -0.3276929, -0.56607723, 0
1173, 3127691007, -0.69203115, -0.266707, 0.4767593, -0.4718816, -0.2484646, -1.0141394, -0.70577717, 0
1174, 3127707674, -0.69111055, -0.2672909, 0.47745138, -0.47220066, 0.22692913, -0.7753843, 0.009037018, 0
1175, 3127724341, -0.69040495, -0.26853693, 0.47782436, -0.47214872, 0.4092348, -0.29963857, 0.8939123, 0
1177, 3127757675, -0.6899888, -0.27311924, 0.47641265, -0.47155464, 0.39343643, -0.0023896887, 1.9842443, 0
1178, 3127774342, -0.68977314, -0.27437535, 0.47629935, -0.4712556, -0.39964384, 0.21093667, 0.9290724, 0
1180, 3127807676, -0.6886233, -0.27312994, 0.47717962, -0.47276765, -0.5293068, -0.015892554, -0.65570354, 0
1181, 3127824343, -0.68714345, -0.27183762, 0.47782204, -0.47501147, -0.15322015, -0.7842835, -1.0771942, 0
1182, 3127841010, -0.685376, -0.27099553, 0.4779207, -0.4779381, 0.19957437, -1.2307404, -0.94126034, 0
1184, 3127874344, -0.68193626, -0.272461, 0.47812733, -0.48180234, -0.10907209, -0.6477135, -0.14420891, 0
1185, 3127891011, -0.6811179, -0.27313837, 0.47909796, -0.48161227, -0.58796024, 0.4805618, 0.041342735, 0
1186, 3127907678, -0.68107444, -0.27406052, 0.4794863, -0.48076275, -0.8560294, 0.67647976, 0.020573616, 0
1188, 3127941012, -0.6825056, -0.27420616, 0.4803648, -0.47776362, -0.73056865, 0.22120038, -0.44644833, 0
1189, 3127957679, -0.6831236, -0.27378696, 0.48123053, -0.47624737, -0.57786995, -0.4344676, -0.2690878, 0
1190, 3127974346, -0.68353015, -0.27306992, 0.48256248, -0.4747255, -0.5361627, -0.7988834, -0.21826935, 0
1193, 3128024347, -0.6834231, -0.27456516, 0.48699048, -0.46946636, 0.100167334, -1.1145067, 0.49257088, 0
1194, 3128041014, -0.68326175, -0.27599803, 0.4883988, -0.4673934, 0.103375636, -0.32326132, 0.6486187, 0
1196, 3128074348, -0.68303704, -0.27644432, 0.4899687, -0.46581239, -0.19994262, -0.7480731, 0.17223263, 0
1197, 3128091015, -0.6827916, -0.2755991, 0.49071485, -0.46588755, -0.24821202, -0.6936525, -0.013136864, 0
1200, 3128141016, -0.6799355, -0.2747776, 0.4932633, -0.46785453, 0.13745332, -0.5549599, -0.1321392, 0
1201, 3128157683, -0.6791528, -0.27439433, 0.49413988, -0.4682908, -0.11664828, -0.4698833, -0.69658947, 0
1202, 3128174350, -0.67863053, -0.27389288, 0.49487847, -0.4685617, -0.62845784, -0.39364722, -0.9346361, 0
1204, 3128207684, -0.67789596, -0.2727556, 0.4967148, -0.46834552, -0.60344476, -0.3916052, -0.7349405, 0
1205, 3128224351, -0.67758787, -0.2725634, 0.49778292, -0.46776873, -0.15642732, -0.6285951, 0.21683693, 0
1207, 3128257685, -0.6777204, -0.27422416, 0.49899113, -0.46531236, 0.7268333, -0.8435384, 2.1163244, 0
1209, 3128291019, -0.679725, -0.2744213, 0.49996352, -0.4612103, -0.9024336, 0.11226083, 0.6951418, 0
1211, 3128324353, -0.6813348, -0.2702019, 0.50129, -0.4598845, -0.22516158, -0.27790728, -0.25888157, 0
1212, 3128341020, -0.68098617, -0.26822394, 0.5017715, -0.4610321, 0.4729476, -0.8631501, -0.20616531, 0
1213, 3128357687, -0.680152, -0.26729962, 0.50215536, -0.46238032, 0.6259056, -1.3324302, 0.03456402, 0
1215, 3128391021, -0.6794641, -0.26589638, 0.50235784, -0.46397793, -0.16727376, -0.725122, -0.52175236, 0
1216, 3128407688, -0.67890406, -0.26557258, 0.502646, -0.46467048, -0.34549785, -0.37244818, -1.0176, 0
1217, 3128424355, -0.6781292, -0.2652722, 0.5030367, -0.46555018, -0.648507, -0.4831978, -1.2385464, 0
1219, 3128457689, -0.6766597, -0.26436377, 0.5050561, -0.46601883, -0.6232315, -0.45216292, -0.67252445, 0
1220, 3128474356, -0.6760813, -0.2638917, 0.5065241, -0.46553212, -0.66496736, -0.4955723, -0.7405052, 0
1221, 3128491023, -0.6756223, -0.26353264, 0.50800884, -0.46478307, -0.4108718, -0.51873505, -0.80809593, 0
1224, 3128541024, -0.6765225, -0.26458064, 0.510561, -0.460058, -0.1099192, -0.17399836, 1.4675465, 0
1225, 3128557691, -0.676974, -0.26513165, 0.51159936, -0.4579181, 0.054414675, 0.53039366, 1.9871178, 0
1227, 3128591025, -0.67883086, -0.26312867, 0.5116517, -0.456263, -0.5032376, -0.29334554, 0.8372946, 0
1228, 3128607692, -0.67978996, -0.26099616, 0.5104896, -0.4573603, -0.34894797, -1.2005498, 0.54679203, 0
1229, 3128624359, -0.6802952, -0.25892276, 0.5096559, -0.45871538, -0.5069685, -1.4956007, 0.43093967, 0
1231, 3128657693, -0.68116283, -0.2561045, 0.50751644, -0.46137422, -0.5955342, -1.2782768, 0.2557602, 0
1232, 3128674360, -0.68167007, -0.25567207, 0.50599015, -0.46253997, -0.1619776, -0.70803523, -0.50635624, 0
1234, 3128707694, -0.68535316, -0.25430596, 0.49713832, -0.4674234, -0.13459459, -0.7206585, -0.78979397, 0
1235, 3128724361, -0.68850887, -0.25337553, 0.49009988, -0.4707122, -0.40402493, -1.0050998, -1.3308945, 0
1236, 3128741028, -0.6918255, -0.25246283, 0.48312002, -0.47354668, -0.2267968, -0.6850607, -1.7483015, 0
1239, 3128791029, -0.7030415, -0.24390961, 0.4564661, -0.48774076, 0.23331869, 0.6617838, -3.0287504, 0
1240, 3128807696, -0.7074515, -0.24058206, 0.44438607, -0.49413073, 0.8335701, 0.35133383, -2.7123322, 0
1242, 3128841030, -0.7146946, -0.24089706, 0.4105122, -0.51251465, 1.9401164, -0.9682105, -4.0281763, 0
1243, 3128857697, -0.71837276, -0.24125849, 0.3921806, -0.5214795, 3.1390562, -1.4393315, -4.90383, 0
1244, 3128874364, -0.7226027, -0.23952417, 0.37527773, -0.528821, 4.9446073, 0.23791283, -4.2727466, 0
1246, 3128907698, -0.7245369, -0.2480605, 0.334143, -0.54942906, 6.610723, 2.1956859, -4.007164, 0
1247, 3128924365, -0.7240503, -0.25489342, 0.31194088, -0.55989724, 1.1718787, -0.14385606, 0.1793127, 0
1248, 3128941032, -0.72277665, -0.25530034, 0.29614794, -0.5698453, -0.6316238, -2.4079626, 0.99118423, 0
1250, 3128974366, -0.73232245, -0.24300918, 0.2874977, -0.5674567, -3.4092119, 13.687658, 9.650412, 0
1251, 3128991033, -0.7388936, -0.24896443, 0.2726735, -0.563661, -0.64460397, 13.803922, 5.080846, 0
1252, 3129007700, -0.7482512, -0.2577417, 0.25411746, -0.5559902, 3.6350486, 6.944041, 3.872507, 0
1254, 3129041034, -0.75029665, -0.26900753, 0.23081097, -0.55805683, -2.4292142, -0.15284263, 5.6776476, 0
1255, 3129057701, -0.7478392, -0.27618575, 0.22979392, -0.5582689, -6.9598465, -3.7978418, 4.036725, 0
1257, 3129091035, -0.7427323, -0.28500885, 0.2391795, -0.5567076, -5.904859, -7.9814787, -5.6641097, 0
1258, 3129107702, -0.7454574, -0.28183606, 0.23540825, -0.556288, 4.0337186, -2.818986, 0.6789274, 0
1259, 3129124369, -0.7513838, -0.2816469, 0.23201448, -0.5497983, 6.1218395, 3.449197, 7.7371826, 0
1261, 3129157703, -0.7517427, -0.28235465, 0.22731316, -0.5509076, -3.281306, 2.4397373, 6.6304607, 0
1262, 3129174370, -0.74968773, -0.281779, 0.22633368, -0.5543946, -3.9143775, 1.7173429, 5.497143, 0
1263, 3129191037, -0.74734116, -0.28195843, 0.22710274, -0.5571503, -2.3690898, -1.1743737, 2.067402, 0
1266, 3129241038, -0.74977696, -0.27432662, 0.22976856, -0.5565944, -0.81096745, 0.23134921, -0.30033016, 0
1267, 3129257705, -0.7521156, -0.27090353, 0.23245317, -0.553995, -0.8566198, 0.987201, -0.12656689, 0
1269, 3129291039, -0.7545115, -0.2671587, 0.24288425, -0.54804856, -0.7668088, -0.34817305, -1.6126976, 0
1270, 3129307706, -0.75526154, -0.26559028, 0.2488324, -0.5451018, -0.007517635, -0.5334667, -1.6034765, 0
1271, 3129324373, -0.755884, -0.26390857, 0.254746, -0.54231685, 1.278407, -0.36999586, -1.8668423, 0
1273, 3129357707, -0.75769436, -0.25864595, 0.2678252, -0.5359876, 0.42181343, -0.3035981, -1.9845247, 0
1274, 3129374374, -0.75864875, -0.25642642, 0.27380756, -0.5326711, -0.12584606, -0.52001023, -1.7563667, 0
1275, 3129391041, -0.75889665, -0.25522107, 0.27993512, -0.5297036, -0.39451936, -0.64049506, -1.3241367, 0
1277, 3129424375, -0.75720537, -0.25505054, 0.29323027, -0.5249922, -0.4911523, -1.0858512, -1.0699415, 0
1278, 3129441042, -0.7560155, -0.25498715, 0.30089504, -0.5223944, 0.07028678, -1.152035, -1.71344, 0
1281, 3129491043, -0.7551236, -0.25498363, 0.3218363, -0.51108164, 0.033258967, 0.24972275, -0.004920006, 0
1282, 3129507710, -0.7549742, -0.2545991, 0.32888156, -0.5069927, -0.10707813, -0.137976, 0.06467056, 0
1283, 3129524377, -0.75436765, -0.25482732, 0.33601847, -0.503086, 0.3089184, -0.6040715, -0.24581909, 0
1285, 3129557711, -0.7522747, -0.25584993, 0.3498284, -0.4962409, 0.19409463, -0.45644462, -1.0924635, 0
1286, 3129574378, -0.7510391, -0.25647074, 0.35645095, -0.49306917, 0.8019777, -0.4705347, -1.1462078, 0
1288, 3129607712, -0.7487538, -0.25658372, 0.36960578, -0.48676038, 0.91974217, -0.36051834, -0.076135635, 0
1289, 3129624379, -0.74799055, -0.25521365, 0.3768185, -0.48311025, -0.061972097, 0.22385381, 0.25764084, 0
1290, 3129641046, -0.74528426, -0.2565974, 0.38223583, -0.48230323, 0.8884631, -1.2769623, 0.37724876, 0
1293, 3129691047, -0.73558855, -0.26012242, 0.3989975, -0.48172414, 0.7548473, -1.4105155, 0.118863106, 0
1294, 3129707714, -0.7322796, -0.26152173, 0.40499043, -0.48100623, 0.4464582, -0.53917545, -0.48250294, 0
1297, 3129757715, -0.718703, -0.268342, 0.4205307, -0.48437983, -0.056937847, -0.5271021, -0.1489687, 0
1298, 3129774382, -0.71467316, -0.270415, 0.42508748, -0.4852113, -0.1720167, -0.34741703, -0.6478548, 0
1300, 3129807716, -0.70670635, -0.2757339, 0.432099, -0.4876873, -0.27192184, -0.48076764, -0.5718584, 0
1301, 3129824383, -0.7026576, -0.27910107, 0.43501478, -0.4890282, -0.3232556, -0.77545345, 0.031404495, 0
1302, 3129841050, -0.6988693, -0.2825163, 0.43737307, -0.49039015, -0.2303292, -0.561449, 0.055342674, 0
1304, 3129874384, -0.69339496, -0.28678146, 0.44306174, -0.49057898, -0.8834821, -0.47689763, 0.09657383, 0
1305, 3129891051, -0.6909028, -0.28779235, 0.44616506, -0.4906903, -1.3776954, 0.08840228, -0.45646858, 0
1306, 3129907718, -0.6889905, -0.28915563, 0.4484675, -0.4904788, -1.495761, 0.11437516, -0.48250866, 0
1308, 3129941052, -0.6861916, -0.29091734, 0.45241612, -0.48973376, -0.8450437, -0.20831887, -0.19644642, 0
1309, 3129957719, -0.6850203, -0.2918065, 0.4539226, -0.48945063, -0.4246943, -0.28307524, 0.17743301, 0
1312, 3130007720, -0.6827282, -0.29359025, 0.459249, -0.48660958, -0.54355603, 0.25092146, 0.35628414, 0
1313, 3130024387, -0.6819916, -0.29376143, 0.46173352, -0.48518592, -0.7344665, 0.33545217, -0.09265041, 0
1315, 3130057721, -0.6807674, -0.2928729, 0.46604693, -0.4833144, -0.6240721, -0.09708062, -0.40514946, 0
1316, 3130074388, -0.68024343, -0.29223385, 0.46773943, -0.4828037, -0.46412554, -0.24431273, -0.48958588, 0
1317, 3130091055, -0.67966294, -0.29181635, 0.46899435, -0.48265657, -0.4220738, -0.38962576, -0.23893833, 0
1319, 3130124389, -0.67930454, -0.29191735, 0.47059998, -0.48153567, -0.38109004, -0.0919843, 0.8199177, 0
1320, 3130141056, -0.68006265, -0.29216304, 0.47100168, -0.4799214, 0.57017976, 0.029588198, 1.2695036, 0
1321, 3130157723, -0.680785, -0.29176128, 0.47239682, -0.47776544, -0.58067685, 0.24900427, 0.8140421, 0
1323, 3130191057, -0.68229795, -0.2894015, 0.47683194, -0.47260883, -0.916358, 0.27669674, -1.2056274, 0
1324, 3130207724, -0.6827921, -0.28729913, 0.47935057, -0.470626, -0.62919277, -0.24709626, -1.2675581, 0
1325, 3130224391, -0.6832331, -0.28550327, 0.48121932, -0.46916956, 0.2237662, -0.4216684, -1.0267677, 0
1327, 3130257725, -0.6844518, -0.28352728, 0.48326093, -0.46648538, 0.8150051, -0.9507801, 0.7608957, 0
1328, 3130274392, -0.6851287, -0.28317928, 0.4841354, -0.4647933, 0.36485586, -0.7917914, 1.03022, 0
1329, 3130291059, -0.6853843, -0.28311273, 0.48528582, -0.46325457, -0.04884652, -0.656206, 0.5392151, 0
1331, 3130324393, -0.6849184, -0.28224593, 0.48788798, -0.46173674, -0.5234034, 0.0056107338, -0.29705143, 0
1332, 3130341060, -0.6849557, -0.28161317, 0.48871377, -0.4611943, 0.11732374, -0.26020584, 0.1077137, 0
1333, 3130357727, -0.6842808, -0.28064495, 0.48963022, -0.46181357, -0.21603422, -0.5391633, 0.17230415, 0
1335, 3130391061, -0.68209976, -0.2794157, 0.491041, -0.46428105, -0.08904264, -1.1169099, 0.022508621, 0
1336, 3130407728, -0.6809751, -0.279684, 0.4916341, -0.46514207, -0.020560063, -1.0135422, 0.3593502, 0
1339, 3130457729, -0.6808219, -0.28024587, 0.4935566, -0.4629874, -0.9402477, 0.61952716, 0.3671713, 0
1340, 3130474396, -0.68037474, -0.2794537, 0.4942008, -0.46343595, -1.3220718, 0.26160684, -0.33164406, 0
1342, 3130507730, -0.6778128, -0.27634013, 0.49601203, -0.46710747, -0.32900235, -1.5024617, -0.84107876, 0
1343, 3130524397, -0.6764339, -0.2759502, 0.4969569, -0.46833104, 0.59637594, -1.8415488, -0.3560028, 0
1344, 3130541064, -0.6751515, -0.27540135, 0.4989778, -0.46835613, 0.038741946, -0.683121, -0.034640312, 0
1346, 3130574398, -0.6727424, -0.27637485, 0.50097805, -0.46911305, -0.25741363, 0.40282878, 0.046074867, 0
1347, 3130591065, -0.6720591, -0.2763298, 0.501185, -0.46989733, -0.4205725, 0.16134107, 0.121082306, 0
1348, 3130607732, -0.6711398, -0.2763101, 0.5012282, -0.4711752, -0.58806574, -0.49607503, 0.05199814, 0
1350, 3130641066, -0.66949946, -0.27624986, 0.50151855, -0.4732305, -0.331193, -0.24914855, 0.27849197, 0
1351, 3130657733, -0.6683951, -0.27670652, 0.50215167, -0.47385305, -0.43942112, 0.12769105, 0.4346094, 0
1354, 3130707734, -0.66893995, -0.27484536, 0.5004758, -0.47593567, -0.28398752, -0.074818954, 0.2120266, 0
1355, 3130724401, -0.6699748, -0.2737187, 0.49945837, -0.47619814, -0.25760046, -0.063906826, -0.3730564, 0
1356, 3130741068, -0.6706028, -0.27300248, 0.49760377, -0.47766465, -0.34429288, -0.22582442, -0.39165974, 0
1358, 3130774402, -0.67148817, -0.27031273, 0.4956636, -0.47996247, -0.7404993, 0.22677624, -0.37483978, 0
1359, 3130791069, -0.67265487, -0.26823467, 0.49363577, -0.48158166, -0.16640674, 0.39768654, 0.8620434, 0
1360, 3130807736, -0.67436767, -0.26684225, 0.4908379, -0.4828182, -0.02696818, -0.473341, 0.4737587, 0
1362, 3130841070, -0.67923605, -0.26203018, 0.48424354, -0.48528156, -0.2557878, -0.36069572, 0.119259834, 0
1363, 3130857737, -0.6820327, -0.25880867, 0.48084927, -0.48646176, -0.21665956, 0.060360074, 0.27091122, 0
1364, 3130874404, -0.68535614, -0.25489536, 0.4765842, -0.48805156, -0.028467504, 0.12836316, 0.40616798, 0
1366, 3130907738, -0.6935422, -0.24914777, 0.4635839, -0.49196142, 0.29836118, -0.8017367, -0.30788136, 0
1369, 3130957739, -0.7045935, -0.23821293, 0.43949065, -0.50364864, 0.2561825, -0.23491497, -1.6426497, 0
1370, 3130974406, -0.7086162, -0.2317643, 0.43190455, -0.5075611, -0.2869238, 0.32716703, -2.40492, 0
1371, 3130991073, -0.71346533, -0.22472857, 0.42133945, -0.5127855, 0.005942986, 0.1363248, -2.4938688, 0
1373, 3131024407, -0.72438306, -0.21182232, 0.3951496, -0.5237067, 0.75477576, 0.030459257, -4.7954946, 0
1374, 3131041074, -0.7295486, -0.2052981, 0.38080108, -0.5297296, 1.51177, 0.37373015, -5.370345, 0
1375, 3131057741, -0.73451316, -0.19775786, 0.36814505, -0.5346614, 2.2485604, 0.694808, -5.781365, 0
1377, 3131091075, -0.7433758, -0.19373754, 0.3380645, -0.5436746, 5.4971476, 1.9074558, -7.548136, 0
1378, 3131107742, -0.7448681, -0.20480034, 0.3139669, -0.5519643, 5.474696, 0.37474456, -5.3596363, 0
1379, 3131124409, -0.7469129, -0.2145816, 0.29622552, -0.5552817, 2.7668643, -2.9469147, 3.211114, 0
1381, 3131157743, -0.7519622, -0.20574296, 0.28330714, -0.5585439, 0.5735396, 4.3812037, 10.506065, 0
1383, 3131191077, -0.75417334, -0.20809804, 0.26814625, -0.5621626, 0.16338931, 7.2746577, 4.5036774, 0
1385, 3131224411, -0.7573626, -0.21751201, 0.2481512, -0.5634917, 2.4112484, 0.5019871, 5.4194365, 0
1386, 3131241078, -0.75508404, -0.22452849, 0.2434253, -0.56585395, -2.6104097, -1.1164544, 3.7755861, 0
1387, 3131257745, -0.75065535, -0.23312272, 0.24483086, -0.56766164, -5.2878265, -3.1219249, 2.0531378, 0
1389, 3131291079, -0.74391705, -0.24374984, 0.2485105, -0.57046247, -2.828976, -3.5018616, -2.1321673, 0
1390, 3131307746, -0.744094, -0.24408938, 0.24545074, -0.5714104, 3.8238266, 1.0595381, 4.0326033, 0
1392, 3131341080, -0.7442229, -0.25105006, 0.23823282, -0.5712817, -0.9772688, 1.3059325, 4.049592, 0
1393, 3131357747, -0.7406973, -0.2544008, 0.23827985, -0.5743534, -2.5248592, 0.6382086, 2.5905619, 0
1394, 3131374414, -0.73840886, -0.25473145, 0.23893309, -0.57687676, -2.823916, 1.2680113, 1.7418795, 0
1396, 3131407748, -0.73548925, -0.2538977, 0.24111462, -0.58005774, -2.613095, 0.55526954, -0.48433113, 0
1397, 3131424415, -0.7355477, -0.25144482, 0.24401389, -0.5798394, -2.9365938, 0.6607937, -1.1267624, 0
1398, 3131441082, -0.73637384, -0.24933206, 0.2469681, -0.5784508, -2.3108883, 0.62291855, -1.6920967, 0
1400, 3131474416, -0.7373783, -0.24892105, 0.25453532, -0.5740513, -0.4479936, -1.1046673, -2.431347, 0
1401, 3131491083, -0.73812246, -0.24829464, 0.25998756, -0.5709142, 0.88167566, -1.6639835, -2.4757142, 0
1402, 3131507750, -0.73971105, -0.24620035, 0.26598224, -0.5669902, 1.3486803, -1.5032493, -2.1750464, 0
1404, 3131541084, -0.7426861, -0.24287224, 0.2764246, -0.55949205, 0.7469383, -0.8182161, -0.42842197, 0
1405, 3131557751, -0.74273676, -0.24072978, 0.28345683, -0.556826, -0.32205176, -0.95620364, -0.8115225, 0
1406, 3131574418, -0.7426053, -0.2389577, 0.29136384, -0.5536742, -0.61100554, -1.2313179, -1.3424025, 0
1408, 3131607752, -0.74259776, -0.23654833, 0.3075538, -0.5459082, -1.349993, -0.93345064, -1.8962927, 0
1410, 3131641086, -0.7436863, -0.2345892, 0.32319906, -0.53614604, -0.41047618, -0.65749204, -1.3198452, 0
1412, 3131674420, -0.74496645, -0.23520294, 0.33720025, -0.52536863, 0.27914736, -0.20352855, 0.30868435, 0
1413, 3131691087, -0.74503595, -0.23640546, 0.34355742, -0.52058995, 0.9824443, -0.84089637, 0.5764065, 0
1414, 3131707754, -0.74486214, -0.23707284, 0.35027134, -0.51604116, 0.80388534, -1.0582364, 0.33901405, 0
1416, 3131741088, -0.74383134, -0.23586124, 0.3661208, -0.5070023, 0.36939874, -0.11729569, -0.97413826, 0
1417, 3131757755, -0.74168646, -0.23681504, 0.3723489, -0.5051608, 1.217476, -0.11618841, -0.59662056, 0
1418, 3131774422, -0.74029166, -0.23633096, 0.37860245, -0.5027799, 0.47310117, 0.5990372, -0.5167599, 0
1420, 3131807756, -0.73549795, -0.23908906, 0.3855757, -0.5032119, 0.80956036, -0.8998253, -0.09560585, 0
1421, 3131824423, -0.73307157, -0.24099174, 0.38854784, -0.5035583, 0.7995338, -1.3087629, -0.043821335, 0
1423, 3131857757, -0.72935, -0.24405539, 0.39549774, -0.5020743, 0.41025087, -0.6731719, 0.20514011, 0
1425, 3131891091, -0.7247473, -0.24802357, 0.4023319, -0.50136423, 0.04594197, 0.19488698, 0.2707405, 0
1427, 3131924425, -0.7207618, -0.25024986, 0.40943435, -0.5002525, -0.91621155, 0.54872596, 0.21550179, 0
1428, 3131941092, -0.71897995, -0.2511202, 0.41239777, -0.49994612, -0.6405144, 0.34978044, 0.017715454, 0
1429, 3131957759, -0.7176104, -0.25165883, 0.41482902, -0.49963164, -0.30984768, -0.09736456, 0.071567535, 0
1431, 3131991093, -0.7159126, -0.25196588, 0.41944465, -0.4980561, 0.1072214, -0.40302056, 0.12039471, 0
1432, 3132007760, -0.71472424, -0.25255573, 0.42152482, -0.4977079, 0.109661266, -0.29514876, -0.1593504, 0
1433, 3132024427, -0.71329755, -0.25318754, 0.42395684, -0.49736786, -0.21228948, -0.27504107, -0.2872572, 0
1435, 3132057761, -0.71045685, -0.25418282, 0.4288607, -0.49672133, -0.6323461, -0.2978985, -0.58180237, 0
1436, 3132074428, -0.708914, -0.25484765, 0.43097398, -0.49675596, -0.34423274, -0.2506681, -0.5285177, 0
1437, 3132091095, -0.7074306, -0.2561113, 0.4325458, -0.49685448, -0.21320409, -0.61193264, -0.3903637, 0
1440, 3132141096, -0.70450985, -0.25987732, 0.43488416, -0.49700806, -0.29261065, -0.4014078, 0.7715883, 0
1441, 3132157763, -0.7038146, -0.26043934, 0.43638152, -0.496386, -0.7326764, -0.19974324, 0.23502159, 0
1443, 3132191097, -0.7020722, -0.26105052, 0.44019568, -0.49516314, -0.9767288, -0.21831964, -0.11744785, 0
1444, 3132207764, -0.70173717, -0.26136896, 0.4414153, -0.49438366, -0.566855, -0.1614043, -0.36239433, 0
1445, 3132224431, -0.701614, -0.26203042, 0.4420121, -0.4936748, -0.22208269, -0.4091475, 7.829666E-4, 0
1447, 3132257765, -0.7012113, -0.2635091, 0.44368196, -0.49195886, -0.14365134, -0.024333185, 0.6575632, 0
1448, 3132274432, -0.7008219, -0.26358464, 0.44501552, -0.49126855, -0.6939733, 0.1373514, 0.29892159, 0
1450, 3132307766, -0.7001196, -0.26340616, 0.44683874, -0.49070987, -0.3486355, -0.39907122, -0.18809128, 0
1451, 3132324433, -0.6997994, -0.26345694, 0.44706672, -0.4909318, -0.20457783, -0.3450148, -0.23402691, 0
1452, 3132341100, -0.6994505, -0.26372093, 0.44699663, -0.49135095, -0.07917857, -0.28690112, -0.21147823, 0
1455, 3132391101, -0.6988714, -0.26294342, 0.44736806, -0.49225298, -0.90985733, -0.33025414, -0.340971, 0
1456, 3132407768, -0.6992178, -0.26222327, 0.447862, -0.4916954, -0.6484598, -0.34425867, -0.09062576, 0
1458, 3132441102, -0.7013109, -0.26150024, 0.44717896, -0.48971725, -0.12202511, -0.12559015, 0.34217358, 0
1459, 3132457769, -0.7015806, -0.26187736, 0.44681144, -0.489465, -0.3228095, -0.42738616, 0.71842957, 0
1460, 3132474436, -0.7018338, -0.2613343, 0.4471459, -0.4890865, -0.6470807, 0.013844392, 0.23291492, 0
1462, 3132507770, -0.70210457, -0.25905627, 0.44830042, -0.48885286, -0.9521641, -0.04113878, -0.675395, 0
1463, 3132524437, -0.70209694, -0.25800243, 0.44907764, -0.4887081, -0.7004225, -0.357224, -0.74326134, 0
1464, 3132541104, -0.7022737, -0.25728375, 0.44957653, -0.48837397, -0.08571744, -0.29103118, -0.49267578, 0
1466, 3132574438, -0.7028249, -0.25781548, 0.44952562, -0.48734668, 0.39349678, -0.31450284, 0.46752834, 0
1467, 3132591105, -0.70279264, -0.25838733, 0.44970074, -0.4869282, 0.20190729, 0.056909528, 0.57150745, 0
1468, 3132607772, -0.70246875, -0.25913602, 0.44979593, -0.48690987, 0.23864076, 0.09087891, 0.70423317, 0
1470, 3132641106, -0.7012571, -0.26041988, 0.45008743, -0.4877016, -0.13930087, -0.26029032, -0.08023167, 0
1471, 3132657773, -0.7002896, -0.26083386, 0.4505539, -0.48843932, -0.09054174, -0.21100383, -0.40116882, 0
1472, 3132674440, -0.69905835, -0.2612469, 0.451352, -0.48924458, -0.15795682, -0.3219408, -0.565382, 0
1474, 3132707774, -0.6963368, -0.26190576, 0.45289868, -0.49133968, -0.14369468, -0.25755677, -0.5244236, 0
1475, 3132724441, -0.6951558, -0.2625488, 0.45378712, -0.49184895, -0.101377204, -0.3873094, -0.2153635, 0
1477, 3132757775, -0.69377375, -0.26506263, 0.45525324, -0.49109665, 0.04188633, -0.25134355, 0.1955471, 0
1478, 3132774442, -0.69341475, -0.26555607, 0.4566677, -0.49002242, -0.25016084, 0.11313421, 0.03662014, 0
1479, 3132791109, -0.69310135, -0.2663956, 0.45791903, -0.4888411, -0.5068677, 0.117282614, -0.026123047, 0
1483, 3132857777, -0.692515, -0.26599514, 0.46312225, -0.4849729, -0.09591835, -0.18593763, -0.1507492, 0
1485, 3132891111, -0.6924458, -0.26570186, 0.46594805, -0.48251957, -0.11254816, -0.4589791, -0.3332119, 0
1486, 3132907778, -0.69252074, -0.26593772, 0.4668948, -0.48136565, 0.22536543, -0.5895722, -0.18719864, 0
1487, 3132924445, -0.6929561, -0.26617676, 0.46744046, -0.4800758, 0.3163486, -0.48990926, 0.2848215, 0
1489, 3132957779, -0.6954008, -0.26519105, 0.46844307, -0.47609246, -0.6725353, 0.77758324, 0.7930975, 0
1491, 3132991113, -0.6960614, -0.2640354, 0.469141, -0.4750812, -0.2452688, 0.19955707, 0.41606998, 0
1493, 3133024447, -0.69587606, -0.26234826, 0.46926445, -0.47616398, 0.32651934, -1.2398887, 0.46004677, 0
1494, 3133041114, -0.6956268, -0.26236212, 0.46873003, -0.47704646, 0.27845198, -1.2581242, 0.5673666, 0
1495, 3133057781, -0.69507384, -0.26255232, 0.46860126, -0.47787333, -0.8866131, -1.1057932, 0.2695427, 0
1497, 3133091115, -0.69272655, -0.2633208, 0.46812072, -0.48131788, -1.5442159, -0.8734084, -0.13986301, 0
1499, 3133124449, -0.6901066, -0.26406989, 0.46724758, -0.4855011, -1.3646957, -1.4824979, -0.014047623, 0
1501, 3133157783, -0.6879786, -0.26549834, 0.46597064, -0.488957, -0.67503864, -1.507393, 0.96652603, 0
1502, 3133174450, -0.68692535, -0.265889, 0.4646872, -0.49144045, -0.8060693, -1.3333422, 0.35834026, 0
1504, 3133207784, -0.68706214, -0.26329648, 0.45829022, -0.49860027, -0.8194946, -0.540262, -0.9865408, 0
1505, 3133224451, -0.68968743, -0.26110268, 0.45114356, -0.5026309, -0.4093481, -0.17321348, -1.1519756, 0
1506, 3133241118, -0.6924509, -0.25914, 0.4415355, -0.5083464, -0.5916775, 0.15367779, -1.7610874, 0
1508, 3133274452, -0.69859695, -0.2523914, 0.41941103, -0.5218874, 0.14154874, 0.3893022, -2.806015, 0
1509, 3133291119, -0.70267713, -0.24823701, 0.40711898, -0.5280992, 0.26461855, -0.09601323, -3.1196837, 0
1510, 3133307786, -0.7071174, -0.24289945, 0.3947452, -0.53401554, 1.0783999, 0.49251962, -3.1921062, 0
1512, 3133341120, -0.7140501, -0.22855109, 0.3732054, -0.5464669, 1.232875, 0.9544033, -3.7121768, 0
1514, 3133374454, -0.72116333, -0.21406043, 0.3534389, -0.5560522, 2.5184288, 2.8047144, -4.1091237, 0
1516, 3133407788, -0.72505766, -0.22478536, 0.31649917, -0.5688612, 8.101, 0.7139714, -4.237619, 0
1517, 3133424455, -0.7245911, -0.23559901, 0.29678306, -0.5756667, 7.8429294, -1.401908, -1.3630161, 0
1518, 3133441122, -0.7224999, -0.23746678, 0.28367323, -0.5840756, 3.7842956, -3.114546, 2.7997131, 0
1520, 3133474456, -0.72936445, -0.21618363, 0.27385795, -0.58847725, -1.0456889, 11.514345, 14.635256, 0
1521, 3133491123, -0.7283095, -0.2110511, 0.27146786, -0.5927392, -4.7611203, 17.448847, 7.9154167, 0
1522, 3133507790, -0.7352814, -0.2178335, 0.2501041, -0.59107465, -0.013096294, 11.30901, 4.5679703, 0
1524, 3133541124, -0.7361666, -0.23821768, 0.22292823, -0.59298027, 9.912594, 0.09758129, 2.6325893, 0
1525, 3133557791, -0.73055524, -0.23608448, 0.2207712, -0.6015187, -1.2736796, 0.27615952, 0.5787401, 0
1527, 3133591125, -0.7297441, -0.24230525, 0.23902714, -0.5929918, -10.5160475, -7.3644557, -1.7027416, 0
1529, 3133624459, -0.72909415, -0.26081678, 0.23769175, -0.5864387, -4.713313, -2.7365134, 2.941207, 0
1531, 3133657793, -0.73574173, -0.26389736, 0.2366698, -0.5770974, 6.2187696, 1.3010756, 8.185722, 0
1532, 3133674460, -0.734413, -0.26164714, 0.23868005, -0.57898325, 0.07079013, -0.044891458, 3.084961, 0
1533, 3133691127, -0.73279285, -0.25463867, 0.2423879, -0.58260906, -2.627958, 2.633479, 1.9842205, 0
1535, 3133724461, -0.7287205, -0.2470611, 0.24496813, -0.5898555, -1.699355, 1.492933, -1.305254, 0
1536, 3133741128, -0.7270157, -0.24582192, 0.24706736, -0.5915987, -1.3099728, -0.105352275, -1.9201593, 0
1537, 3133757795, -0.7261944, -0.24595192, 0.2508492, -0.5909617, -1.5444248, -1.7890304, -3.646469, 0
1539, 3133791129, -0.728584, -0.2411862, 0.26309273, -0.58462656, -1.2939044, -1.8278127, -4.2590914, 0
1540, 3133807796, -0.73126125, -0.23766065, 0.26946408, -0.57980597, -1.063006, -0.818536, -2.9665833, 0
1541, 3133824463, -0.73388803, -0.2347324, 0.27485123, -0.5751325, -0.6655024, -0.34718296, -2.02389, 0
1543, 3133857797, -0.73738205, -0.23248985, 0.2865271, -0.56580013, -0.25877994, -0.67414516, -0.67403984, 0
1544, 3133874464, -0.7387699, -0.23252442, 0.29294637, -0.5606651, 0.32382, -1.0148934, -0.8518381, 0
1545, 3133891131, -0.73956096, -0.2331124, 0.30018786, -0.555524, -0.2767682, -0.71156234, -0.59996605, 0
1547, 3133924465, -0.73930633, -0.2361365, 0.3151387, -0.5462277, -0.39905488, -1.1930676, -1.4457769, 0
1548, 3133941132, -0.73813164, -0.23929349, 0.32164264, -0.5426397, -0.1558833, -1.3619528, -1.1951494, 0
1549, 3133957799, -0.7365959, -0.24223472, 0.32832196, -0.5394118, 0.14935382, -0.9803095, -0.93098164, 0
1551, 3133991133, -0.73161674, -0.24988693, 0.34203073, -0.53415346, 1.0933206, -0.5601073, -0.42073345, 0
1552, 3134007800, -0.7279203, -0.25514773, 0.34860796, -0.53246164, 1.5083028, -0.402977, -0.3699999, 0
1553, 3134024467, -0.72500235, -0.25803062, 0.35648546, -0.5298315, 0.44602233, 0.61059964, 0.06038952, 0
1556, 3134074468, -0.71462154, -0.26924554, 0.37577394, -0.5250033, 0.08335782, -1.0600199, 0.097558975, 0
1558, 3134107802, -0.7066725, -0.2770296, 0.38806742, -0.5227655, 0.63214004, -0.5136807, -0.087387085, 0
1559, 3134124469, -0.702387, -0.28120697, 0.39387235, -0.5219685, 0.22935693, -0.22979401, -0.01671791, 0
1560, 3134141136, -0.6981945, -0.28498757, 0.39921743, -0.521482, 0.9204176, -0.25596815, -0.14547062, 0
1562, 3134174470, -0.69019896, -0.2905907, 0.4102978, -0.5204321, 0.064649336, -0.416352, 0.04821682, 0
1563, 3134191137, -0.6870713, -0.29218674, 0.4164158, -0.5188153, -0.5254403, 0.30284798, -0.2964058, 0
1564, 3134207804, -0.68362534, -0.2945711, 0.42137045, -0.518018, -0.09197894, -0.43892422, -0.20573902, 0
1566, 3134241138, -0.6779251, -0.29873678, 0.42992163, -0.51609397, -0.019421488, -0.1805674, -0.55935097, 0
1567, 3134257805, -0.6757374, -0.3006379, 0.43284076, -0.5154187, 0.07998344, -0.37216562, -0.34504604, 0
1568, 3134274472, -0.6736868, -0.30266774, 0.43520793, -0.51492107, -0.0798395, -0.6528914, -0.023644447, 0
1571, 3134324473, -0.67016333, -0.30604786, 0.44228116, -0.5114829, -0.4062949, -0.11511063, 0.059142113, 0
1572, 3134341140, -0.66989195, -0.3070602, 0.443726, -0.50997806, -0.4733725, 0.03767501, 0.26363945, 0
1574, 3134374474, -0.6706912, -0.30840266, 0.44589746, -0.5062095, -0.13646851, -0.011565901, 0.7913065, 0
1575, 3134391141, -0.6716334, -0.30839625, 0.44658637, -0.5043535, -0.088065445, -0.14697944, 0.9148464, 0
1576, 3134407808, -0.6727309, -0.3077721, 0.4472997, -0.502637, -0.40542835, -0.34196666, 0.8632965, 0
1578, 3134441142, -0.67504865, -0.30445838, 0.44981727, -0.4992898, -0.45772818, -0.38728493, 0.11329746, 0
1579, 3134457809, -0.67581904, -0.3032351, 0.4508459, -0.4980628, 0.033045944, -1.0116767, 0.20508862, 0
1580, 3134474476, -0.676507, -0.30187377, 0.45215878, -0.4967639, -0.09971539, -0.71264625, -0.07219124, 0
1582, 3134507810, -0.6778346, -0.29934973, 0.45447022, -0.49436653, -0.29720092, -0.47449866, -0.23990536, 0
1583, 3134524477, -0.67907375, -0.29738367, 0.4562063, -0.492249, -0.7186111, -0.1616277, -0.6696682, 0
1586, 3134574478, -0.68018806, -0.2950797, 0.4573487, -0.49103558, 0.36793363, -1.0789467, -0.35594177, 0
1587, 3134591145, -0.6805836, -0.29470858, 0.45702198, -0.49101454, 0.26954544, -0.8320407, -0.025752068, 0
1589, 3134624479, -0.6805149, -0.2944846, 0.45716894, -0.49110726, -0.33394355, -0.47316957, -0.047613144, 0
1590, 3134641146, -0.6798453, -0.29441428, 0.457801, -0.4914879, -0.6973097, -0.65235555, -0.3722782, 0
1591, 3134657813, -0.67945206, -0.29354778, 0.45886004, -0.49156234, -0.45881778, -0.62892187, -0.61015034, 0
1593, 3134691147, -0.6797527, -0.2922367, 0.4602814, -0.49059826, 0.021623984, -0.08175992, 0.27446556, 0
1594, 3134707814, -0.68085617, -0.29055694, 0.46061018, -0.48975644, -0.18805878, -0.18364868, 0.6003504, 0
1595, 3134724481, -0.68203175, -0.28937113, 0.46070573, -0.4887318, -0.43129775, -0.09741097, 0.99306107, 0
1597, 3134757815, -0.6834916, -0.28708825, 0.46128747, -0.48748845, 0.13673897, -0.4987288, 0.872159, 0
1598, 3134774482, -0.68425447, -0.28578892, 0.46206325, -0.4864456, 0.27341044, -0.45655861, 0.6531086, 0
1601, 3134824483, -0.68589616, -0.28080732, 0.46549556, -0.48375526, -0.29908, -0.23727857, -0.69046307, 0
1602, 3134841150, -0.68592596, -0.2785039, 0.4665831, -0.48399705, -0.3810194, -0.6806666, -1.0374746, 0
1603, 3134857817, -0.68552965, -0.2764754, 0.4675007, -0.4848352, 0.029360885, -0.87661535, -1.0522022, 0
1605, 3134891151, -0.68463004, -0.27430016, 0.4683021, -0.4865654, 0.45834818, -0.96222854, 0.24304676, 0
1606, 3134907818, -0.6841332, -0.2747903, 0.4687389, -0.4865672, 0.54360765, -0.8381701, 0.7004509, 0
1607, 3134924485, -0.6837164, -0.27499732, 0.47013873, -0.48568463, -0.6750279, 0.12270928, 0.41056252, 0
1609, 3134957819, -0.6828209, -0.274433, 0.47233376, -0.48513335, -0.5950952, 0.244936, -0.7065916, 0
1610, 3134974486, -0.6823791, -0.27337652, 0.47284466, -0.48585325, -0.2756138, -0.19550489, -0.68619347, 0
1612, 3135007820, -0.68118656, -0.27154186, 0.47427008, -0.48716444, 0.074276485, -0.48425367, -0.006708145, 0
1613, 3135024487, -0.68037367, -0.2714141, 0.47527927, -0.48738796, 0.28669068, -0.452362, 0.28106117, 0
1614, 3135041154, -0.6797511, -0.27184606, 0.47600013, -0.48731273, 0.4915363, -0.23205999, 0.54884243, 0
1616, 3135074488, -0.6800702, -0.2723862, 0.47685927, -0.48572332, -0.028249802, 0.3392739, 0.040768623, 0
1617, 3135091155, -0.68016565, -0.2723227, 0.4771587, -0.48533058, -0.3590637, 0.0998353, -0.0047445297, 0
1618, 3135107822, -0.6802363, -0.27165115, 0.4777276, -0.4850486, -0.62592477, 0.22178319, -0.26219463, 0
1620, 3135141156, -0.67960894, -0.26960605, 0.47889435, -0.48591763, -0.33365119, -0.54849523, -0.13762856, 0
1621, 3135157823, -0.6789112, -0.26907545, 0.4791824, -0.48690212, -0.057475016, -0.84101987, 0.02733326, 0
1622, 3135174490, -0.67827314, -0.26918867, 0.4790218, -0.48788586, 0.1678086, -0.97182494, 0.37802887, 0
1624, 3135207824, -0.67745227, -0.2713299, 0.47844845, -0.4884026, -0.77913177, -0.29821768, 0.5170307, 0
1625, 3135224491, -0.6764912, -0.27304763, 0.47819152, -0.4890289, -0.7900584, -0.55910414, -0.38050652, 0
1628, 3135274492, -0.6748165, -0.272954, 0.47435158, -0.49509704, -0.37713072, -1.145653, 0.38580322, 0
1629, 3135291159, -0.67423594, -0.2730685, 0.47278854, -0.4973147, -0.4707907, -1.3722864, 0.3885584, 0
1630, 3135307826, -0.6733964, -0.27398145, 0.4712815, -0.49937648, -0.56996965, -1.2079171, 0.4717083, 0
1632, 3135341160, -0.6723021, -0.27612576, 0.46854183, -0.5022397, -0.7596539, -0.64654696, 1.0006647, 0
1633, 3135357827, -0.6721622, -0.2774739, 0.4665743, -0.50351375, -0.8908241, -0.79378504, 0.43008614, 0
1634, 3135374494, -0.67297775, -0.2778235, 0.4638786, -0.5047208, -1.40323, -0.80313593, -0.25720024, 0
1636, 3135407828, -0.67682076, -0.27634865, 0.4560458, -0.5075221, -0.87362856, -0.8159783, -0.37745094, 0
1637, 3135424495, -0.67911273, -0.2743278, 0.4519684, -0.50920135, -0.5361899, -0.21933796, -0.4239607, 0
1639, 3135457829, -0.6850698, -0.26954088, 0.44149593, -0.51295197, 0.6695018, 0.72442234, -0.17984009, 0
1640, 3135474496, -0.689672, -0.26660576, 0.43458626, -0.5142181, 0.21385942, 0.26046368, -1.7157583, 0
1643, 3135524497, -0.70738685, -0.25805154, 0.4015572, -0.52132165, 0.62686044, -0.73512805, -3.2857795, 0
1644, 3135541164, -0.71260035, -0.25462937, 0.38931674, -0.52517474, 0.5390085, -0.5129634, -3.4546428, 0
1645, 3135557831, -0.71782887, -0.24975991, 0.3783368, -0.5284076, 0.7683582, 0.3417161, -3.4441652, 0
1647, 3135591165, -0.73019916, -0.24019568, 0.3524152, -0.5337887, 0.15853596, 0.87639153, -3.3551426, 0
1648, 3135607832, -0.736919, -0.24139978, 0.33075213, -0.5378577, 0.8463611, -0.06471907, -3.6960244, 0
1649, 3135624499, -0.74252737, -0.24659657, 0.3059099, -0.5424701, 0.8369124, -0.17599888, -5.274631, 0
1651, 3135657833, -0.7527572, -0.25284177, 0.26395276, -0.5475108, 7.318808, -1.4719046, -6.922949, 0
1652, 3135674500, -0.75592273, -0.24912128, 0.25332034, -0.5498727, 4.386883, -1.1112694, -4.940522, 0
1653, 3135691167, -0.76105404, -0.2455029, 0.24943963, -0.5461835, -0.30227008, -0.38036495, -2.7695146, 0
1655, 3135724501, -0.77503866, -0.24680804, 0.23131709, -0.53376484, 2.9725025, 14.768216, 9.908787, 0
1657, 3135757835, -0.7839113, -0.25906104, 0.20470625, -0.5258111, 3.1761003, 3.6687083, 7.829363, 0
1659, 3135791169, -0.7794616, -0.27230483, 0.19982035, -0.52761066, 2.1880999, -5.947756, 4.572524, 0
1660, 3135807836, -0.77365905, -0.27768904, 0.20322636, -0.53202546, -3.213837, -8.08312, 2.5078592, 0
1661, 3135824503, -0.7690947, -0.27752066, 0.20571749, -0.5377431, -5.6855717, -6.158866, 3.3309984, 0
1663, 3135857837, -0.7679534, -0.26283967, 0.2022854, -0.54795516, -2.1943374, 5.263113, 12.900795, 0
1664, 3135874504, -0.7664102, -0.2660013, 0.19900027, -0.54979014, -2.2027335, 6.1768146, 10.8881, 0
1666, 3135907838, -0.7605887, -0.27085036, 0.19861189, -0.55561656, -0.107123055, -0.15859877, 0.6798315, 0
1667, 3135924505, -0.75998783, -0.2669621, 0.20133346, -0.55733836, -0.67742085, 2.3760436, 1.714014, 0
1668, 3135941172, -0.7584706, -0.26591876, 0.20612112, -0.5581532, -0.77849597, 2.3075118, 1.5030375, 0
1670, 3135974506, -0.7579469, -0.2610404, 0.21926004, -0.55615723, -1.7463189, 2.2826078, -0.41137123, 0
1672, 3136007840, -0.7567415, -0.25937828, 0.2312883, -0.5536988, -0.08013364, 0.35484347, -2.0064988, 0
1674, 3136041174, -0.752427, -0.25876465, 0.2479539, -0.55265254, 1.6511621, -1.891692, -3.5846472, 0
1675, 3136057841, -0.75048107, -0.2568634, 0.25693867, -0.5520808, 1.2935158, -1.9708253, -3.4985147, 0
1676, 3136074508, -0.74865323, -0.2538317, 0.2662164, -0.55156875, 0.06123875, -1.3911903, -2.4586382, 0
1678, 3136107842, -0.7437646, -0.24958515, 0.2866065, -0.54989976, -1.6606231, -0.86753225, -2.8714519, 0
1679, 3136124509, -0.74146134, -0.24800134, 0.2978746, -0.5477343, -1.5310825, -0.4574311, -3.3672333, 0
1680, 3136141176, -0.7392794, -0.24711442, 0.3084915, -0.5452018, -1.1923383, 0.03751721, -2.8425684, 0
1682, 3136174510, -0.73542476, -0.24965459, 0.3271688, -0.5383262, -0.87987596, -0.058657624, -2.1072073, 0
1683, 3136191177, -0.73370147, -0.25160992, 0.33668447, -0.53388166, -0.21543854, -1.2867472, -1.9261432, 0
1684, 3136207844, -0.73215836, -0.25249475, 0.34770903, -0.5284888, 0.67767364, -1.2539887, -1.9322515, 0
1686, 3136241178, -0.7284915, -0.25364763, 0.36919382, -0.51833427, -0.31941947, -1.0113533, -1.351057, 0
1687, 3136257845, -0.72662014, -0.2545935, 0.37938765, -0.51310986, -0.27182862, -0.72916454, -1.2774591, 0
1688, 3136274512, -0.72391456, -0.25685164, 0.38914254, -0.50848246, -0.01374627, -1.1546605, -1.2639818, 0
1690, 3136307846, -0.7179749, -0.2616222, 0.4064437, -0.5008799, 0.4812102, -1.0909622, 0.0079422, 0
1691, 3136324513, -0.7156416, -0.26325727, 0.41406888, -0.49710292, 0.122562885, -0.62967485, 0.37975025, 0
1693, 3136357847, -0.70984715, -0.26755202, 0.4265275, -0.49256364, -0.013458248, -0.58788896, 0.4449072, 0
1694, 3136374514, -0.7067496, -0.26934078, 0.43269366, -0.4906609, -0.115487136, -0.19193023, -0.013087273, 0
1695, 3136391181, -0.7040167, -0.27053273, 0.438612, -0.48867518, -0.04295785, 0.26463598, -0.2552805, 0
1697, 3136424515, -0.6974906, -0.27453184, 0.44641533, -0.48873708, 0.5019229, -0.577149, 0.2599802, 0
1699, 3136457849, -0.6906034, -0.27969995, 0.45169637, -0.4907307, 0.2838771, -1.2475958, 0.6009016, 0
1701, 3136491183, -0.68623453, -0.283049, 0.45824108, -0.48886827, -0.23904756, -0.102464035, 0.63586617, 0
1702, 3136507850, -0.68405145, -0.28416246, 0.46159682, -0.48812437, -0.7300979, 0.62550503, 0.1065712, 0
1703, 3136524517, -0.68236405, -0.2847866, 0.46435714, -0.48750368, -1.1320869, 1.2303255, -0.38300896, 0
1705, 3136557851, -0.6805668, -0.2850892, 0.46752203, -0.48681384, -0.2307711, 0.07527257, -0.09543228, 0
1706, 3136574518, -0.6802285, -0.28535178, 0.46825075, -0.48643205, 0.21450092, -0.37723812, 0.17760944, 0
1707, 3136591185, -0.6802609, -0.28541905, 0.46906364, -0.48556328, 0.08234798, -0.2676296, 0.55179787, 0
1709, 3136624519, -0.68117, -0.284302, 0.47165176, -0.48242712, -0.44801807, 0.14555767, 0.06776714, 0
1710, 3136641186, -0.6814515, -0.28299063, 0.47320288, -0.48128033, -0.65729696, -0.08223934, -0.88705635, 0
