sep=,
DeviceTag:,Xsens_DOT_4,,,,,,,,,,,,,,,,,
FirmwareVersion:,3.0.0,,,,,,,,,,,,,,,,,
AppVersion:,2023.6.1,,,,,,,,,,,,,,,,,
SyncStatus:,Synced,,,,,,,,,,,,,,,,,
OutputRate:,60Hz,,,,,,,,,,,,,,,,,
FilterProfile:,General,,,,,,,,,,,,,,,,,
Measurement Mode:,Sensor fusion Mode - Extended (Quaternion),,,,,,,,,,,,,,,,,
StartTime:,2025-05-05 11:56:17.859 +0200,,,,,,,,,,,,,,,,,
 2025,,,,,,,,,,,,,,,,,,,

PacketCounter,SampleTimeFine,Quat_W,Quat_X,Quat_Y,Quat_Z,FreeAcc_X,FreeAcc_Y,FreeAcc_Z,Status
1, 2970854537, -0.018532008, -0.6655365, -0.0775574, -0.74209726, 0.27290586, 0.28856865, 0.11500549, 0
2, 2970871204, -0.018745452, -0.6654587, -0.07775339, -0.7421413, 0.23296212, 0.33346942, 0.05132103, 0
3, 2970887871, -0.018901974, -0.6653935, -0.07798662, -0.7421713, 0.2442367, 0.3501697, 0.021663666, 0
4, 2970904538, -0.01910431, -0.6653278, -0.078153834, -0.74220735, 0.25906655, 0.35776848, 0.012471199, 0
5, 2970921205, -0.019325368, -0.66528624, -0.078277335, -0.74222594, 0.27604654, 0.34652612, 0.054545403, 0
6, 2970937872, -0.01949387, -0.6652376, -0.07844825, -0.74224705, 0.29329315, 0.32761964, 0.10643387, 0
7, 2970954539, -0.019735217, -0.66518927, -0.07856732, -0.74227136, 0.33348414, 0.30745795, 0.11375618, 0
8, 2970971206, -0.01994498, -0.6651347, -0.07870956, -0.74229944, 0.29511756, 0.31740806, 0.09289932, 0
9, 2970987873, -0.02013389, -0.6650768, -0.07887402, -0.74232894, 0.28345895, 0.3140138, 0.05578327, 0
10, 2971004540, -0.020316169, -0.66501707, -0.07900951, -0.742363, 0.26654097, 0.3278501, 0.036411285, 0
11, 2971021207, -0.020540886, -0.66496783, -0.07911389, -0.74238986, 0.26531842, 0.30260643, 0.08316612, 0
12, 2971037874, -0.020717368, -0.664923, -0.079281695, -0.74240726, 0.2699603, 0.32599565, 0.042607307, 0
13, 2971054541, -0.020902894, -0.6648706, -0.079454325, -0.74243057, 0.28440037, 0.3081466, 0.05917549, 0
14, 2971071208, -0.021136321, -0.6648238, -0.079605095, -0.74244976, 0.28538576, 0.27961212, 0.10646629, 0
15, 2971087875, -0.02136144, -0.6647647, -0.07977817, -0.7424775, 0.28218964, 0.30328262, 0.0989933, 0
16, 2971104542, -0.021631159, -0.66470695, -0.079892814, -0.7425091, 0.2671129, 0.28921404, 0.10030174, 0
17, 2971121209, -0.021850646, -0.66465116, -0.08003503, -0.74253726, 0.2565372, 0.28783002, 0.07711029, 0
18, 2971137876, -0.02202607, -0.66457784, -0.08022977, -0.7425767, 0.25843042, 0.32065526, 0.03427601, 0
19, 2971154543, -0.022202782, -0.66453314, -0.08039541, -0.74259347, 0.27688333, 0.29922244, 0.07402897, 0
20, 2971171210, -0.022391677, -0.6644628, -0.0805515, -0.74263394, 0.27766624, 0.2691782, 0.15928268, 0
21, 2971187877, -0.022515245, -0.6643832, -0.08077376, -0.7426772, 0.273635, 0.2740282, 0.11658096, 0
22, 2971204544, -0.022612698, -0.6643018, -0.08098422, -0.7427242, 0.2766576, 0.2821259, 0.07049465, 0
23, 2971221211, -0.022859767, -0.66424763, -0.08102291, -0.7427609, 0.30781958, 0.253443, 0.03591919, 0
24, 2971237878, -0.023013115, -0.6641993, -0.08109055, -0.74279183, 0.32543713, 0.26699907, 0.050320625, 0
25, 2971254545, -0.02314572, -0.66415715, -0.08112395, -0.7428218, 0.2994456, 0.30422047, 0.025710106, 0
26, 2971271212, -0.023191124, -0.66411626, -0.08118519, -0.74285024, 0.3204222, 0.29113898, 0.010087013, 0
27, 2971287879, -0.023254767, -0.6640812, -0.081185244, -0.7428796, 0.28956932, 0.27864262, 0.063471794, 0
28, 2971304546, -0.023334064, -0.6640544, -0.08115113, -0.74290484, 0.26603493, 0.28244612, 0.10828686, 0
29, 2971321213, -0.023433946, -0.6640262, -0.08109035, -0.7429335, 0.2345244, 0.28701466, 0.109191895, 0
30, 2971337880, -0.023459978, -0.66398495, -0.081104815, -0.74296796, 0.20757464, 0.27908358, 0.06947231, 0
31, 2971354547, -0.023482792, -0.66393995, -0.08114806, -0.7430028, 0.19476481, 0.28315365, 0.027695656, 0
32, 2971371214, -0.023438111, -0.66388434, -0.08126744, -0.7430408, 0.1901879, 0.2618021, 0.055031776, 0
33, 2971387881, -0.0234586, -0.66383624, -0.08133898, -0.7430753, 0.19852628, 0.2528711, 0.05413246, 0
34, 2971404548, -0.023491986, -0.66379786, -0.08142965, -0.7430986, 0.19941705, 0.27349034, 0.03572178, 0
35, 2971421215, -0.023609504, -0.6637716, -0.08144992, -0.7431161, 0.1913132, 0.28956255, 0.04448986, 0
36, 2971437882, -0.023731656, -0.663744, -0.08148144, -0.7431334, 0.24629588, 0.2994325, 0.10376263, 0
37, 2971454549, -0.023825154, -0.66369545, -0.0815581, -0.74316525, 0.23930168, 0.3047886, 0.116666794, 0
38, 2971471216, -0.023931801, -0.66364497, -0.081624344, -0.7431997, 0.24916595, 0.2931992, 0.09872627, 0
39, 2971487883, -0.024067968, -0.6635965, -0.08164475, -0.7432363, 0.22093652, 0.2866525, 0.03697586, 0
40, 2971504550, -0.024121612, -0.66355705, -0.081737526, -0.74325955, 0.18777831, 0.2650342, 0.02191639, 0
41, 2971521217, -0.024324983, -0.6635299, -0.08169407, -0.7432821, 0.19100612, 0.26721215, 0.029034615, 0
42, 2971537884, -0.024464116, -0.6635028, -0.08172296, -0.74329853, 0.20746654, 0.23754326, 0.08730793, 0
43, 2971554551, -0.024648175, -0.66346514, -0.081749134, -0.7433232, 0.23116495, 0.25467402, 0.092196465, 0
44, 2971571218, -0.024863929, -0.6634314, -0.08175924, -0.7433451, 0.22055069, 0.27854323, 0.09619045, 0
45, 2971587885, -0.024993151, -0.6633888, -0.08183591, -0.7433703, 0.18378226, 0.27598938, 0.09791851, 0
46, 2971604552, -0.025063515, -0.6633393, -0.08192942, -0.7434017, 0.22929773, 0.20721903, 0.08926201, 0
47, 2971621219, -0.02510573, -0.6632871, -0.082014084, -0.7434376, 0.22509143, 0.18769377, 0.07235432, 0
48, 2971637886, -0.025139704, -0.66325176, -0.0820409, -0.74346495, 0.21438064, 0.21183848, 0.008437157, 0
49, 2971654553, -0.025137022, -0.66321075, -0.08201086, -0.74350506, 0.19254795, 0.2212633, 0.015922546, 0
50, 2971671220, -0.025083534, -0.6631875, -0.08195416, -0.74353373, 0.18598472, 0.15298194, 0.07857704, 0
51, 2971687887, -0.025018558, -0.66316086, -0.081923, -0.7435631, 0.22805476, 0.17072116, 0.10889721, 0
52, 2971704554, -0.024948493, -0.6631311, -0.081891194, -0.74359554, 0.19832003, 0.2093647, 0.12666225, 0
53, 2971721221, -0.024876475, -0.66309905, -0.08184293, -0.74363184, 0.18056603, 0.22762783, 0.04090309, 0
54, 2971737888, -0.024800897, -0.6630606, -0.081778504, -0.7436758, 0.14425604, 0.2415833, 0.0038061142, 0
55, 2971754555, -0.024741799, -0.6630464, -0.08167583, -0.74370164, 0.1284019, 0.2884814, -0.0027399063, 0
56, 2971771222, -0.024742432, -0.66303945, -0.08151094, -0.7437259, 0.14467233, 0.26903898, 0.028849602, 0
57, 2971787889, -0.024705455, -0.66303056, -0.08138586, -0.74374866, 0.19666293, 0.23874101, 0.113155365, 0
58, 2971804556, -0.024645321, -0.6630011, -0.081304155, -0.743786, 0.2206197, 0.19507998, 0.13685417, 0
59, 2971821223, -0.024586357, -0.6629726, -0.081261754, -0.74381787, 0.18725078, 0.24166584, 0.049448013, 0
60, 2971837890, -0.02451434, -0.662934, -0.0812286, -0.7438584, 0.18047275, 0.28406584, 0.04746151, 0
61, 2971854557, -0.024455532, -0.662902, -0.08115639, -0.7438968, 0.20909442, 0.29863605, 0.010951996, 0
62, 2971871224, -0.024368033, -0.66289663, -0.0810832, -0.7439124, 0.22486529, 0.24738821, -0.0010137558, 0
63, 2971887891, -0.024324626, -0.66288704, -0.08096821, -0.74393475, 0.2539774, 0.24306308, 0.06261635, 0
64, 2971904558, -0.024308562, -0.66287553, -0.08082047, -0.7439617, 0.1951828, 0.31975204, 0.13375664, 0
65, 2971921225, -0.02421613, -0.662867, -0.08070852, -0.74398446, 0.2112731, 0.32314688, 0.14957905, 0
66, 2971937892, -0.024203718, -0.66286355, -0.080496065, -0.744011, 0.22565578, 0.27649984, 0.060406685, 0
67, 2971954559, -0.024129793, -0.6628495, -0.08033586, -0.74404323, 0.17579328, 0.18748468, 0.025476456, 0
68, 2971971226, -0.024013117, -0.66283685, -0.08022317, -0.7440704, 0.08854511, 0.20210421, 0.03044033, 0
69, 2971987893, -0.023902304, -0.66283405, -0.08010783, -0.7440889, 0.09530617, 0.17444214, 0.095282555, 0
70, 2972004560, -0.023823403, -0.66280997, -0.0800297, -0.7441212, 0.15248486, 0.134281, 0.09116459, 0
71, 2972021227, -0.023765326, -0.66278654, -0.08001432, -0.74414563, 0.033266187, 0.18186322, -0.044962883, 0
72, 2972037894, -0.02371753, -0.662781, -0.080010734, -0.74415237, -0.16939574, 0.23108591, 0.015030861, 0
73, 2972054561, -0.02367054, -0.6627584, -0.08001013, -0.7441742, -0.12642013, 0.14507377, 0.021875381, 0
74, 2972071228, -0.023656353, -0.6627406, -0.080044106, -0.7441869, -0.07628542, 0.022773903, 0.025109291, 0
75, 2972087895, -0.023664929, -0.6627172, -0.080148265, -0.74419624, -0.11382763, 0.06603053, -0.068071365, 0
76, 2972104562, -0.023705311, -0.66269433, -0.08028867, -0.7442002, -0.15610768, 0.14234154, 0.04339218, 0
77, 2972121229, -0.023797221, -0.6626666, -0.08045399, -0.74420404, -0.03198999, 0.19195482, 0.12358189, 0
78, 2972137896, -0.02390942, -0.6626115, -0.08068225, -0.7442249, 0.034572396, 0.21508501, 0.11231613, 0
79, 2972154563, -0.02429185, -0.66258156, -0.080777906, -0.74422854, 0.05048244, 0.24949667, 0.053040504, 0
80, 2972171230, -0.024471618, -0.6625261, -0.081097916, -0.74423736, 0.07688359, 0.2681841, 0.068172455, 0
81, 2972187897, -0.024767697, -0.66246945, -0.081363596, -0.744249, 0.18681708, 0.21364698, 0.039622307, 0
82, 2972204564, -0.025056697, -0.66240287, -0.081697755, -0.7442621, 0.33557403, 0.2906858, 0.07454777, 0
83, 2972221231, -0.025266238, -0.662319, -0.082127, -0.7442823, 0.3524265, 0.46150687, 0.09716034, 0
84, 2972237898, -0.025509387, -0.66223425, -0.08247448, -0.7443111, 0.44888633, 0.4852382, 0.19740868, 0
85, 2972254565, -0.025726832, -0.6621646, -0.08279474, -0.74432987, 0.5859792, 0.43310106, 0.18248558, 0
86, 2972271232, -0.025993899, -0.6620921, -0.08304383, -0.7443573, 0.6702583, 0.5513004, 0.20676517, 0
87, 2972287899, -0.026227936, -0.6619948, -0.0833061, -0.7444064, 0.6901282, 0.59234846, 0.16548729, 0
88, 2972304566, -0.026487596, -0.6619098, -0.083520174, -0.7444488, 0.6801041, 0.6331106, 0.058242798, 0
89, 2972321233, -0.026745126, -0.6618551, -0.083658084, -0.7444726, 0.6739081, 0.6868727, 0.017057419, 0
90, 2972337900, -0.026845522, -0.6617869, -0.08380361, -0.7445134, 0.74821955, 0.5889908, 0.107917786, 0
91, 2972354567, -0.026972875, -0.66173834, -0.08384366, -0.7445475, 0.8243111, 0.50108904, 0.17181015, 0
92, 2972371234, -0.027094, -0.66168493, -0.08383611, -0.74459136, 0.8117254, 0.56110746, 0.16712666, 0
93, 2972387901, -0.027240857, -0.6616333, -0.08377542, -0.7446387, 0.72574276, 0.5655244, 0.12960911, 0
94, 2972404568, -0.027385332, -0.66158557, -0.08367379, -0.74468726, 0.6857364, 0.5285388, 0.031313896, 0
95, 2972421235, -0.027510747, -0.6615704, -0.083561346, -0.74470866, 0.5855264, 0.4660933, -0.013836861, 0
96, 2972437902, -0.027596705, -0.6615701, -0.083404094, -0.74472356, 0.4315384, 0.46252602, 0.055804253, 0
97, 2972454569, -0.027667738, -0.66157204, -0.08313964, -0.7447486, 0.39347973, 0.3518517, 0.18493271, 0
98, 2972471236, -0.027677707, -0.6615658, -0.08286644, -0.7447843, 0.40791473, 0.11352083, 0.26751995, 0
99, 2972487903, -0.027673192, -0.6615376, -0.082636304, -0.7448352, 0.37876338, 0.019588564, 0.20017433, 0
100, 2972504570, -0.02764801, -0.6615041, -0.08242435, -0.74488926, 0.21167219, 0.11103989, 0.11309624, 0
101, 2972521237, -0.02757246, -0.66148573, -0.08219616, -0.7449336, 0.029918605, 0.14603996, -0.014899254, 0
102, 2972537904, -0.02746974, -0.6614878, -0.08187215, -0.7449713, 0.049333345, 0.02938354, -0.046684265, 0
103, 2972554571, -0.027284853, -0.66149765, -0.08154743, -0.7450051, 0.06237281, -0.14380126, -0.060541153, 0
104, 2972571238, -0.026991092, -0.6615273, -0.081235714, -0.7450233, -0.058819823, -0.1093388, -0.012600899, 0
105, 2972587905, -0.026675656, -0.66155255, -0.08084877, -0.74505436, -0.110675275, -0.09174989, 0.116417885, 0
106, 2972604572, -0.026367947, -0.66157085, -0.08039725, -0.7450979, -0.039461058, -0.12225935, 0.24209595, 0
107, 2972621239, -0.025891356, -0.661551, -0.08010402, -0.74516386, 0.029336508, -0.1444781, 0.19910526, 0
108, 2972637906, -0.025426894, -0.6615298, -0.07975555, -0.7452361, 0.0261176, -0.0573565, 0.0163908, 0
109, 2972654573, -0.024898656, -0.661534, -0.07933256, -0.74529535, -0.0016736091, 0.0811746, -0.12317467, 0
110, 2972671240, -0.02426906, -0.6615634, -0.07879251, -0.74534726, 0.013549998, 0.058564752, -0.12899399, 0
111, 2972687907, -0.0235596, -0.66162926, -0.07817934, -0.74537605, 0.10257255, -0.03773301, -0.0440979, 0
112, 2972704574, -0.022808045, -0.66169614, -0.077568784, -0.74540395, 0.19607602, -0.04799192, 0.118151665, 0
113, 2972721241, -0.022033341, -0.66174096, -0.07695168, -0.74545133, 0.12335834, 0.12588222, 0.20169449, 0
114, 2972737908, -0.021240234, -0.6617715, -0.07631725, -0.7455124, 0.15347867, 0.24979381, 0.15470886, 0
115, 2972754575, -0.02043277, -0.6617876, -0.075690195, -0.74558467, 0.20128353, 0.14925033, 0.14286613, 0
116, 2972771242, -0.019593857, -0.6618138, -0.075046994, -0.745649, 0.22337742, 0.17789496, 0.07338333, 0
117, 2972787909, -0.018740408, -0.66185486, -0.07436442, -0.745703, 0.21709701, 0.34731835, -0.026593208, 0
118, 2972804576, -0.017872415, -0.6619121, -0.07361972, -0.7457473, 0.1840889, 0.35513374, -0.0516634, 0
119, 2972821243, -0.017001845, -0.66197556, -0.07287801, -0.7457842, 0.2288611, 0.28362715, 0.0054359436, 0
120, 2972837910, -0.016165175, -0.6620304, -0.07220565, -0.74581945, 0.28651378, 0.2733812, 0.06399536, 0
121, 2972854577, -0.015371546, -0.6620638, -0.07154777, -0.74587005, 0.23812157, 0.3552045, 0.10740852, 0
122, 2972871244, -0.014608309, -0.66210175, -0.07088286, -0.74591506, 0.15623474, 0.34309977, 0.14205456, 0
123, 2972887911, -0.013862826, -0.6621323, -0.070223205, -0.7459645, 0.17181994, 0.32195917, 0.110637665, 0
124, 2972904578, -0.013136603, -0.6621613, -0.06956591, -0.74601346, 0.1678012, 0.3292961, 0.06060791, 0
125, 2972921245, -0.012453988, -0.6621851, -0.06892395, -0.74606377, 0.13551702, 0.3345157, -0.041431427, 0
126, 2972937912, -0.011826411, -0.6622253, -0.0683079, -0.746095, 0.07049487, 0.33645695, -0.014596939, 0
127, 2972954579, -0.011244103, -0.6622619, -0.06773123, -0.7461241, 0.023944931, 0.34404397, 0.044356346, 0
128, 2972971246, -0.010724559, -0.66228676, -0.067214474, -0.7461563, -0.021157708, 0.29811913, 0.11587143, 0
129, 2972987913, -0.010260284, -0.6622971, -0.06676748, -0.7461938, -0.06503819, 0.29485622, 0.059741974, 0
130, 2973004580, -0.009888992, -0.6622953, -0.06638208, -0.7462349, -0.099378, 0.26823813, 0.059584618, 0
131, 2973021247, -0.009613469, -0.66228217, -0.066084646, -0.7462763, -0.09619975, 0.21702744, 0.08060646, 0
132, 2973037914, -0.009423748, -0.6622845, -0.06587097, -0.74629563, -0.11596811, 0.23093593, 0.0107011795, 0
133, 2973054581, -0.0093049705, -0.66227055, -0.06572688, -0.7463222, -0.1390017, 0.272297, -0.025832176, 0
134, 2973071248, -0.009230897, -0.6622528, -0.06563011, -0.7463474, -0.08635373, 0.18370496, 0.05687809, 0
135, 2973087915, -0.00920932, -0.6622357, -0.0655735, -0.74636775, -0.0032348472, 0.103055954, 0.11840534, 0
136, 2973104582, -0.009219661, -0.6621918, -0.065581724, -0.746406, 0.04055109, 0.11149731, 0.0870409, 0
137, 2973121249, -0.009253681, -0.662149, -0.06560576, -0.74644136, 0.0040584924, 0.17229557, 0.058875084, 0
138, 2973137916, -0.009280831, -0.6621134, -0.06562705, -0.74647075, 0.031692125, 0.24218032, -0.054255486, 0
139, 2973154583, -0.009300217, -0.66208625, -0.06563285, -0.74649405, 0.05114407, 0.17666002, -0.019355774, 0
140, 2973171250, -0.009301603, -0.66207176, -0.06561086, -0.7465089, 0.09836447, 0.09802574, 0.026995659, 0
141, 2973187917, -0.009295702, -0.6620635, -0.06558681, -0.7465184, 0.13991044, 0.09149268, 0.074915886, 0
142, 2973204584, -0.009280309, -0.662054, -0.06555177, -0.7465302, 0.14118873, 0.16539891, 0.110321045, 0
143, 2973221251, -0.009275362, -0.6620324, -0.065518394, -0.74655217, 0.08842125, 0.2697863, 0.10322285, 0
144, 2973237918, -0.009332195, -0.66200316, -0.06544519, -0.7465839, 0.11478488, 0.26847914, 0.06992912, 0
145, 2973254585, -0.009250015, -0.6619641, -0.06553894, -0.74661136, 0.060885068, 0.21309932, -0.033359528, 0
146, 2973271252, -0.0093468875, -0.6619567, -0.06549502, -0.74662036, 0.024063852, 0.17324115, -0.069111824, 0
147, 2973287919, -0.009385735, -0.6619568, -0.06551373, -0.7466183, 0.057263378, 0.075934395, -0.03367901, 0
148, 2973304586, -0.009511754, -0.6619731, -0.065480575, -0.74660516, 0.07913194, 0.086915806, 0.06882954, 0
149, 2973321253, -0.009573385, -0.66197026, -0.06557437, -0.7465986, 0.14351155, 0.24013337, 0.12435436, 0
150, 2973337920, -0.009720519, -0.66196257, -0.06567985, -0.7465943, 0.18421695, 0.32079542, 0.22915268, 0
151, 2973354587, -0.009966239, -0.6619168, -0.065844014, -0.74661726, 0.2366188, 0.35395882, 0.251626, 0
152, 2973371254, -0.010191426, -0.66184217, -0.06614976, -0.74665326, 0.19627987, 0.2760881, 0.14802456, 0
153, 2973387921, -0.010277614, -0.6617567, -0.06659786, -0.746688, 0.21334574, 0.26038343, -0.017238617, 0
154, 2973404588, -0.010478482, -0.66170466, -0.06688404, -0.74670565, 0.25813568, 0.18111059, -0.048090935, 0
155, 2973421255, -0.010703638, -0.66169083, -0.06704249, -0.74670064, 0.39886227, 0.20631409, -0.09004116, 0
156, 2973437922, -0.010800451, -0.6616675, -0.06724917, -0.74670124, 0.41138667, 0.30178216, 0.06344414, 0
157, 2973454589, -0.010903671, -0.6616448, -0.06736294, -0.7467097, 0.38736877, 0.36611304, 0.21913052, 0
158, 2973471256, -0.011082977, -0.6616353, -0.06727426, -0.7467235, 0.38450763, 0.335982, 0.24216461, 0
159, 2973487923, -0.011113405, -0.6616057, -0.06719742, -0.74675614, 0.35030127, 0.27730376, 0.16603088, 0
160, 2973504590, -0.011070043, -0.6615882, -0.06707873, -0.74678314, 0.27042428, 0.2009206, 0.058116913, 0
161, 2973521257, -0.011016697, -0.6615781, -0.06688698, -0.7468099, 0.1952479, 0.17538604, 0.012811661, 0
162, 2973537924, -0.01090166, -0.66157246, -0.06671214, -0.7468322, 0.18123528, 0.14341876, 0.037252426, 0
163, 2973554591, -0.01076971, -0.6615576, -0.066561654, -0.7468606, 0.15172935, 0.100294344, 0.062434196, 0
164, 2973571258, -0.010699213, -0.6615532, -0.066369094, -0.74688274, 0.1571246, 0.10879075, 0.08850002, 0
165, 2973587925, -0.010613129, -0.66154563, -0.066223145, -0.7469037, 0.2007867, 0.12488613, 0.12617302, 0
166, 2973604592, -0.010546505, -0.6615299, -0.066091485, -0.74693024, 0.21861508, 0.160959, 0.09317875, 0
167, 2973621259, -0.010425568, -0.6615022, -0.06606605, -0.7469586, 0.20658807, 0.18643802, 0.058254242, 0
168, 2973637926, -0.010316893, -0.66148293, -0.06602673, -0.7469807, 0.16012605, 0.2364875, 0.07087612, 0
169, 2973654593, -0.010232702, -0.6614803, -0.06592504, -0.74699324, 0.14340214, 0.26649192, 0.018753052, 0
170, 2973671260, -0.010197133, -0.66149503, -0.06572565, -0.74699813, 0.20649154, 0.2006597, 0.034430504, 0
171, 2973687927, -0.010057002, -0.66150445, -0.06562129, -0.747001, 0.24354489, 0.19979237, 0.13027573, 0
172, 2973704594, -0.009948432, -0.6615006, -0.065502994, -0.7470162, 0.23496048, 0.2311599, 0.168643, 0
173, 2973721261, -0.009805292, -0.66147417, -0.06540929, -0.7470497, 0.19266428, 0.23396783, 0.07926464, 0
174, 2973737928, -0.009752333, -0.6614562, -0.065207526, -0.74708384, 0.16449217, 0.1622708, 0.05106163, 0
175, 2973754595, -0.009564474, -0.6614451, -0.06507377, -0.747108, 0.15401722, 0.13333648, 0.034297943, 0
176, 2973771262, -0.009388313, -0.6614489, -0.06485789, -0.74712557, 0.100395046, 0.2216835, 0.050195694, 0
177, 2973787929, -0.009216353, -0.66145706, -0.06457029, -0.7471454, 0.09612664, 0.22429849, 0.0903883, 0
178, 2973804596, -0.008975193, -0.6614546, -0.064345166, -0.74716985, 0.12413753, 0.16708522, 0.16435051, 0
179, 2973821263, -0.008789539, -0.6614392, -0.06415092, -0.7472024, 0.100890145, 0.13486537, 0.15612698, 0
180, 2973837930, -0.008603677, -0.6614148, -0.06404336, -0.7472354, 0.03523961, 0.21256758, 0.060112, 0
181, 2973854597, -0.008511558, -0.6614001, -0.06393256, -0.74725896, -0.02245305, 0.24429993, -0.018734932, 0
182, 2973871264, -0.008446559, -0.66137624, -0.06387712, -0.74728554, -0.02004126, 0.19314112, -0.046135902, 0
183, 2973887931, -0.00829111, -0.6613498, -0.06398432, -0.7473016, 0.0013571427, 0.17284189, 0.07614231, 0
184, 2973904598, -0.008267418, -0.6613189, -0.06405138, -0.7473234, 0.006222796, 0.18207493, 0.115234375, 0
185, 2973921265, -0.008413002, -0.6612925, -0.06401454, -0.7473482, 0.04254812, 0.2070043, 0.15174484, 0
186, 2973937932, -0.008509994, -0.66125655, -0.0640352, -0.7473772, 0.12017842, 0.1867158, 0.11005497, 0
187, 2973954599, -0.008688435, -0.66121525, -0.06403152, -0.747412, 0.15377015, 0.222519, 0.018068314, 0
188, 2973971266, -0.008748502, -0.6611745, -0.0641181, -0.7474401, 0.12771237, 0.265132, 0.01346302, 0
189, 2973987933, -0.008854076, -0.66114604, -0.06409897, -0.74746555, 0.08367515, 0.3005572, 0.0070209503, 0
190, 2974004600, -0.008752182, -0.66112685, -0.06420009, -0.74747497, 0.07901633, 0.23058037, 0.036392212, 0
191, 2974021267, -0.008843169, -0.6611039, -0.064134166, -0.74749976, 0.11101299, 0.16634695, 0.07306385, 0
192, 2974037934, -0.008920178, -0.6610787, -0.06413211, -0.74752146, 0.08660018, 0.14904162, 0.12465954, 0
193, 2974054601, -0.008981675, -0.661039, -0.06419004, -0.74755085, 0.02720499, 0.22824958, 0.13721085, 0
194, 2974071268, -0.009120107, -0.6610002, -0.06420196, -0.74758244, 0.015874533, 0.21881165, 0.111058235, 0
195, 2974087935, -0.009206876, -0.6609319, -0.06431079, -0.7476323, 0.004223836, 0.22598785, 0.027091026, 0
196, 2974104602, -0.009353578, -0.6608911, -0.06442038, -0.74765724, -0.014514429, 0.27984005, -0.037837982, 0
197, 2974121269, -0.009502709, -0.6608538, -0.06456141, -0.74767613, 0.0409811, 0.29539862, -0.030890465, 0
198, 2974137936, -0.00971584, -0.66081595, -0.064655624, -0.74769884, 0.12918876, 0.2586372, 0.05230999, 0
199, 2974154603, -0.009957284, -0.6607819, -0.064787194, -0.7477142, 0.22578485, 0.2018825, 0.07673836, 0
200, 2974171270, -0.010259718, -0.6607467, -0.06496247, -0.747726, 0.271564, 0.1730116, 0.09204197, 0
201, 2974187937, -0.010574475, -0.66070306, -0.065202236, -0.7477394, 0.28113824, 0.29256806, 0.06178665, 0
202, 2974204604, -0.01091221, -0.6606612, -0.06545417, -0.7477495, 0.29161215, 0.3364036, 0.029857635, 0
203, 2974221271, -0.011194497, -0.6606339, -0.0657462, -0.7477439, 0.34386554, 0.2381939, 0.061056137, 0
204, 2974237938, -0.011597276, -0.6606277, -0.065930456, -0.747727, 0.4289786, 0.18292814, 0.14172745, 0
205, 2974254605, -0.012001023, -0.66060615, -0.06607943, -0.7477265, 0.40434104, 0.25404584, 0.19489956, 0
206, 2974271272, -0.012259796, -0.66057795, -0.066259764, -0.7477313, 0.36587176, 0.308572, 0.19306374, 0
207, 2974287939, -0.0124966055, -0.6605351, -0.06639842, -0.7477528, 0.35384083, 0.23113777, 0.12971115, 0
208, 2974304606, -0.01273559, -0.66051006, -0.06650475, -0.7477614, 0.3593706, 0.13374843, 0.0929842, 0
209, 2974321273, -0.012896448, -0.6604733, -0.06664019, -0.7477791, 0.274668, 0.08220628, 0.12234402, 0
210, 2974337940, -0.012978345, -0.66044295, -0.066750936, -0.74779475, 0.28785098, 0.12339379, 0.11570549, 0
211, 2974354607, -0.01303716, -0.6604105, -0.06674923, -0.74782234, 0.28384393, 0.098397166, 0.118577, 0
212, 2974371274, -0.013060331, -0.66038865, -0.066640474, -0.74785095, 0.29315954, 0.035652105, 0.060873985, 0
213, 2974387941, -0.012919664, -0.6604121, -0.066537015, -0.7478419, 0.39558557, 0.13121545, -0.78639793, 0
214, 2974404608, -0.012725756, -0.6604662, -0.066281214, -0.74782026, 0.16481867, 0.122580834, 1.0251236, 0
215, 2974421275, -0.012470424, -0.66049045, -0.06593537, -0.7478336, 0.24956244, 0.38407448, 0.08361244, 0
216, 2974437942, -0.012189016, -0.660475, -0.065637894, -0.7478781, 0.4128153, -0.4197769, 0.23146248, 0
217, 2974454609, -0.011945248, -0.66045845, -0.06541782, -0.7479159, 0.23488484, -0.26817307, 0.020906448, 0
218, 2974471276, -0.011566609, -0.6604692, -0.065147385, -0.747936, -0.15511157, 0.3162431, 0.034776688, 0
219, 2974487943, -0.011072025, -0.6604982, -0.06458266, -0.7479668, -0.09321823, 0.31717163, 0.12286663, 0
220, 2974504610, -0.010315597, -0.66051185, -0.06402432, -0.7480137, 0.18546642, -0.32972446, 0.06934261, 0
221, 2974521277, -0.009546742, -0.6605209, -0.06352482, -0.7480585, 0.16603786, -0.4273546, -0.34451485, 0
222, 2974537944, -0.008891031, -0.66058344, -0.06292138, -0.7480624, -0.29079953, -0.18790472, -0.2877159, 0
223, 2974554611, -0.008167684, -0.66062415, -0.062380254, -0.74807996, -0.49135026, -0.022234622, -0.16886711, 0
224, 2974571278, -0.0075249225, -0.66067004, -0.06182263, -0.74809265, -0.7774146, 0.18016429, 0.2193985, 0
225, 2974587945, -0.0067926496, -0.6606906, -0.06125433, -0.74812806, -0.83110195, 0.2068157, 0.32639503, 0
226, 2974604612, -0.005859062, -0.66068137, -0.06069982, -0.74818915, -0.5265641, -0.53360105, 0.1012516, 0
227, 2974621279, -0.0050610155, -0.6607289, -0.060101695, -0.74820143, -0.102491505, -0.73346037, -0.04211712, 0
228, 2974637946, -0.004267499, -0.66078514, -0.059572212, -0.74819905, 0.11772503, 0.20285287, -0.047961235, 0
229, 2974654613, -0.0034582168, -0.66081876, -0.05895695, -0.7482223, 0.09100148, 0.83167726, 0.0719738, 0
230, 2974671280, -0.0027481318, -0.6608369, -0.05830414, -0.74826044, 0.36328986, 0.5468555, 0.09961796, 0
231, 2974687947, -0.0020479262, -0.66083837, -0.057949543, -0.74828875, 0.4895156, 0.3029084, 0.14213467, 0
232, 2974704614, -0.0015835762, -0.6608436, -0.057589136, -0.7483132, 0.27943513, 0.7231621, 0.2650957, 0
233, 2974721281, -0.0011509955, -0.66082376, -0.05708924, -0.7483699, 0.122099094, 0.85530484, 0.22493744, 0
234, 2974737948, -8.1688166E-4, -0.66078156, -0.056589805, -0.7484455, 0.2513862, 0.17613687, 0.15349007, 0
235, 2974754615, -6.195754E-4, -0.6607403, -0.056421652, -0.74849474, 0.27493003, 0.020046933, -0.056889534, 0
236, 2974771282, -5.194992E-4, -0.66069174, -0.05646752, -0.7485342, 0.040888872, 0.43956393, -0.19707012, 0
237, 2974787949, -4.5196712E-4, -0.6606662, -0.056480497, -0.7485556, -0.14820926, 0.47034878, -0.11159897, 0
238, 2974804616, -4.7147274E-4, -0.6606828, -0.056384422, -0.7485482, 0.11675657, 0.06265515, 0.016867638, 0
239, 2974821283, -4.3584406E-4, -0.66069776, -0.056476057, -0.74852824, 0.32423523, -0.115228206, 0.14166546, 0
240, 2974837950, -4.5070052E-4, -0.6607012, -0.05660323, -0.74851555, 0.24444439, 0.3140994, 0.24265862, 0
241, 2974854617, -4.2018294E-4, -0.66067636, -0.056616485, -0.7485366, 0.16949224, 0.4994481, 0.21568203, 0
242, 2974871284, -4.441142E-4, -0.66065574, -0.056455895, -0.74856687, 0.30999118, 0.19319291, 0.1308527, 0
243, 2974887951, -4.5874715E-4, -0.66062975, -0.05631446, -0.7486004, 0.34319377, 0.13783385, 0.1052227, 0
244, 2974904618, -3.5315752E-4, -0.66060024, -0.056338876, -0.74862474, 0.14698665, 0.3788146, 0.0054473877, 0
245, 2974921285, -3.9188564E-4, -0.660602, -0.056214064, -0.7486326, 0.0026839157, 0.45108294, 0.0070648193, 0
246, 2974937952, -4.0782988E-4, -0.66060096, -0.0560823, -0.7486433, 0.07836811, 0.14034775, 0.023377419, 0
247, 2974954619, -4.28468E-4, -0.6605995, -0.056054935, -0.74864656, 0.16486673, -0.08675879, 0.06434727, 0
248, 2974971286, -4.516393E-4, -0.66058385, -0.05611682, -0.7486557, 0.059473306, 0.03194358, 0.12873268, 0
249, 2974987953, -4.824996E-4, -0.66055804, -0.056119554, -0.74867827, -0.09869522, 0.18081014, 0.1031971, 0
250, 2975004620, -5.491227E-4, -0.6605314, -0.056050837, -0.74870694, -0.18420255, 0.11268797, 0.019742966, 0
251, 2975021287, -5.209595E-4, -0.66051185, -0.056125462, -0.7487186, -0.21565038, 0.03070001, -0.02484417, 0
252, 2975037954, -6.7420304E-4, -0.6605125, -0.056215316, -0.74871117, -0.16641615, 0.031246273, -0.035456657, 0
253, 2975054621, -8.52257E-4, -0.660503, -0.05642174, -0.748704, -0.13880816, 0.09423781, 0.0843935, 0
254, 2975071288, -0.0010633618, -0.660479, -0.056682356, -0.748705, -0.013877277, 0.101671465, 0.043780327, 0
255, 2975087955, -0.0013678223, -0.6604607, -0.056982853, -0.74869806, 0.14655526, 0.07705375, 0.080210686, 0
256, 2975104622, -0.0016633719, -0.6604215, -0.057345413, -0.7487044, 0.13026337, 0.4328032, 0.14905262, 0
257, 2975121289, -0.001976937, -0.6603863, -0.057557173, -0.7487182, 0.085170895, 0.7524615, 0.15829563, 0
258, 2975137956, -0.002175957, -0.66033703, -0.05765854, -0.7487534, 0.16194293, 0.4786066, 0.07892227, 0
259, 2975154623, -0.0023423582, -0.6602844, -0.057786055, -0.7487895, 0.41391945, -0.12110212, 0.08625221, 0
260, 2975171290, -0.002625987, -0.6602373, -0.057996064, -0.7488137, 0.3936208, -0.15546292, 0.15063477, 0
261, 2975187957, -0.0029127002, -0.66017973, -0.05827815, -0.74884146, 0.17612204, 0.20312238, 0.12853622, 0
262, 2975204624, -0.0032198876, -0.6601231, -0.05846101, -0.7488758, 0.09682288, 0.30585435, 0.11129379, 0
263, 2975221291, -0.003371954, -0.6600589, -0.058703385, -0.74891305, 0.13013546, 0.10968033, 0.050019264, 0
264, 2975237958, -0.0036408901, -0.6600168, -0.05886659, -0.7489362, 0.14691247, 0.047200404, 0.08387661, 0
265, 2975254625, -0.003771603, -0.6599583, -0.05912932, -0.7489662, 0.17797038, 0.24384794, 0.16622257, 0
266, 2975271292, -0.0039432496, -0.6598924, -0.05927041, -0.74901235, 0.39895838, 0.1909066, 0.21075153, 0
267, 2975287959, -0.0040672272, -0.6598008, -0.059459522, -0.7490773, 0.50703174, 0.105020136, 0.30155277, 0
268, 2975304626, -0.004169211, -0.65970325, -0.05959566, -0.7491518, 0.36740986, 0.32262805, 0.19387054, 0
269, 2975321293, -0.0042348355, -0.65960616, -0.05961276, -0.7492355, 0.14097048, 0.34658456, 0.03266716, 0
270, 2975337960, -0.004284531, -0.659529, -0.059584662, -0.7493054, 0.01768602, 0.321101, -0.100091934, 0
271, 2975354627, -0.004397705, -0.6594688, -0.059573926, -0.7493585, 0.009314315, 0.12484126, -0.109825134, 0
272, 2975371294, -0.0046257377, -0.6594005, -0.05963938, -0.7494122, -0.09635585, 0.050798014, -0.08101177, 0
273, 2975387961, -0.004803419, -0.6593684, -0.059759386, -0.74942964, -0.14522555, 0.26905513, 0.12344742, 0
274, 2975404628, -0.0050017536, -0.65932715, -0.059842274, -0.74945813, 0.13660763, 0.1409101, 0.0645771, 0
275, 2975421295, -0.0052309483, -0.65927416, -0.059982166, -0.749492, 0.23702836, -0.0074953395, 0.013946533, 0
276, 2975437962, -0.0055202693, -0.6592163, -0.060224906, -0.7495214, 0.055843875, 0.29253665, -0.06648064, 0
277, 2975454629, -0.005852431, -0.65917844, -0.060547456, -0.7495261, -0.0702055, 0.29251963, 0.024072647, 0
278, 2975471296, -0.006243676, -0.6591268, -0.0609008, -0.74953985, 0.059270773, 0.29186848, 0.099944115, 0
279, 2975487963, -0.006644532, -0.6590632, -0.061290957, -0.74956053, 0.100416355, 0.08526265, 0.14911747, 0
280, 2975504630, -0.007065147, -0.6590048, -0.06164016, -0.74957925, 0.24642722, 0.09715818, 0.11570072, 0
281, 2975521297, -0.007429108, -0.6589633, -0.06190134, -0.7495907, 0.09592911, 0.37606272, 0.011191368, 0
282, 2975537964, -0.007646382, -0.6589315, -0.0620993, -0.74960023, 0.17079312, 0.096635886, -0.076631546, 0
283, 2975554631, -0.00789848, -0.65893525, -0.0622447, -0.7495822, 0.44444898, -0.2781264, 0.033444405, 0
284, 2975571298, -0.008058563, -0.6589464, -0.062391102, -0.74955857, 0.59009355, -0.038837723, 0.15680027, 0
285, 2975587965, -0.008169323, -0.65894514, -0.06238693, -0.74955875, 0.4800028, 0.4631304, 0.24696732, 0
286, 2975604632, -0.008117914, -0.65894264, -0.062216252, -0.74957573, 0.3042713, 0.6334425, 0.22357273, 0
287, 2975621299, -0.008087978, -0.65891397, -0.0620564, -0.74961454, 0.60393465, -0.22648087, 0.12279034, 0
288, 2975637966, -0.008033723, -0.65890396, -0.062013432, -0.74962735, 0.12397743, 0.07171508, -0.03979397, 0
289, 2975654633, -0.0078945905, -0.65890944, -0.06185256, -0.7496373, -0.1658691, 0.34173566, -0.037386894, 0
290, 2975671300, -0.0076916665, -0.6589385, -0.06155047, -0.7496388, -0.14076433, 0.048674863, 0.027575493, 0
291, 2975687967, -0.0074952543, -0.6589681, -0.061301634, -0.7496352, 0.029176291, -0.18238573, -8.9645386E-4, 0
292, 2975704634, -0.0072835684, -0.6589963, -0.061188392, -0.7496217, -0.15153357, -0.02579714, -0.0061626434, 0
293, 2975721301, -0.0071190298, -0.6590327, -0.060969025, -0.7496092, -0.22184409, 0.13162404, 0.11023617, 0
294, 2975737968, -0.0069351792, -0.6590524, -0.06069728, -0.7496156, -0.004050767, -0.11198122, 0.20108223, 0
295, 2975754635, -0.0067597926, -0.6590461, -0.060507208, -0.749638, 0.19679499, -0.11130487, 0.18555069, 0
296, 2975771302, -0.006546393, -0.6590223, -0.060442068, -0.74966633, 0.1943287, 0.06789463, 0.022435188, 0
297, 2975787969, -0.006334543, -0.6589873, -0.06033033, -0.74970776, 0.1358212, 0.28683835, -0.047938347, 0
298, 2975804636, -0.0061367154, -0.65896636, -0.059992343, -0.749755, 0.20799026, 0.3625113, 0.047441483, 0
299, 2975821303, -0.0058006644, -0.6589624, -0.059585758, -0.7497936, 0.29404303, -0.08105753, 0.5209074, 0
300, 2975837970, -0.0053681135, -0.65892726, -0.059253156, -0.74985397, 0.45311922, -0.27453348, 0.27520657, 0
301, 2975854637, -0.0049322397, -0.6589051, -0.05890467, -0.74990404, 0.32421127, 0.15697546, -0.50734615, 0
302, 2975871304, -0.004404545, -0.6589037, -0.058292873, -0.74995625, -0.44466844, 1.1780071, 0.37513733, 0
303, 2975887971, -0.0037013441, -0.6589061, -0.057821788, -0.74999434, 0.34116793, -0.26387286, -0.19558907, 0
304, 2975904638, -0.003213331, -0.6588765, -0.057724126, -0.7500302, 0.29972276, -0.8875345, 0.74308205, 0
305, 2975921305, -0.0029827654, -0.6587643, -0.057864778, -0.7501189, 0.16976264, 0.11803993, 0.07810879, 0
306, 2975937972, -0.0028230548, -0.6586515, -0.05783897, -0.7502205, -0.32561237, 0.9256443, -0.4028759, 0
307, 2975954639, -0.0026078075, -0.65858686, -0.057642363, -0.7502932, -0.5296605, 0.10803387, -0.10060406, 0
308, 2975971306, -0.0022673905, -0.65859616, -0.05750586, -0.75029665, -0.646318, -0.6433746, -0.21269512, 0
309, 2975987973, -0.0018905997, -0.658678, -0.057312585, -0.75024045, -0.83100283, -0.6108921, -0.37001514, 0
310, 2976004640, -0.0014345944, -0.6587964, -0.057013996, -0.7501604, -0.70562595, -0.043988522, 0.023611069, 0
311, 2976021307, -9.391904E-4, -0.65887827, -0.056596436, -0.75012094, -0.26364875, 0.21053769, 0.21038914, 0
312, 2976037974, -4.5280159E-4, -0.6589184, -0.056222767, -0.7501143, 0.20612544, 0.169822, 0.040946007, 0
313, 2976054641, 1.18002295E-4, -0.6589325, -0.055965215, -0.7501212, 0.05397204, 0.4849506, -0.060417175, 0
314, 2976071308, 6.148219E-4, -0.65893215, -0.055581026, -0.7501499, -0.23359415, 0.5567357, -0.014756203, 0
315, 2976087975, 0.0010043979, -0.6589644, -0.05517181, -0.7501512, -0.43162432, 0.26530597, -0.35617256, 0
316, 2976104642, 0.0012990385, -0.65904224, -0.054882318, -0.7501036, -0.563839, 0.06608261, -0.96910286, 0
317, 2976121309, 0.0014736652, -0.6592238, -0.054781333, -0.7499512, -0.45565975, -0.3598986, -0.4919691, 0
318, 2976137976, 0.001473695, -0.6594039, -0.054852657, -0.7497877, -0.2671549, -0.7084431, 1.067977, 0
319, 2976154643, 0.0012500435, -0.65951, -0.054914303, -0.7496902, 0.078836486, 0.028074792, 0.8102255, 0
320, 2976171310, 0.0010405928, -0.6595012, -0.055020787, -0.74969035, 0.1651409, 0.5744167, 0.8911228, 0
321, 2976187977, 8.826107E-4, -0.6594037, -0.055135146, -0.7497678, 0.28722382, 0.8006401, 0.4279356, 0
322, 2976204644, 8.713603E-4, -0.6592778, -0.055208795, -0.74987334, 0.33916354, 0.573604, -0.26415157, 0
323, 2976221311, 8.830428E-4, -0.6592055, -0.055129133, -0.7499426, 0.2567495, 0.07524748, -0.46672535, 0
324, 2976237978, 8.980185E-4, -0.65921193, -0.054954723, -0.74994975, 0.19166392, -0.047611, -0.3644619, 0
325, 2976254645, 9.0907514E-4, -0.65928894, -0.054827772, -0.7498914, 0.12499502, 0.1048428, -0.17774105, 0
326, 2976271312, 9.7087026E-4, -0.6593898, -0.0547442, -0.7498087, 0.22621025, 0.40571988, 0.024041176, 0
327, 2976287979, 0.0010728836, -0.6594791, -0.054595277, -0.74974084, 0.4765057, 0.33609837, 0.43619633, 0
328, 2976304646, 0.0011698753, -0.6595278, -0.054435194, -0.7497096, 0.88986385, 0.046702307, 0.572464, 0
329, 2976321313, 0.0012075752, -0.6595172, -0.0543468, -0.74972516, 0.97167385, 0.114994735, 0.46770668, 0
330, 2976337980, 0.0012750328, -0.65946513, -0.054329522, -0.74977225, 0.7969803, 0.48581815, 0.27900028, 0
331, 2976354647, 0.0013813525, -0.65941, -0.05424644, -0.74982643, 0.4938948, 0.6072965, 0.08730602, 0
332, 2976371314, 0.0015374869, -0.65936303, -0.054066762, -0.74988055, 0.3557485, 0.24162398, -0.049539566, 0
333, 2976387981, 0.0017275661, -0.6593594, -0.05388651, -0.7498963, 0.28236803, -0.006665715, -0.09471607, 0
334, 2976404648, 0.0019512922, -0.65938944, -0.053705797, -0.7498822, 0.22120242, 0.10482679, -0.0066919327, 0
335, 2976421315, 0.0021496564, -0.65943176, -0.05352039, -0.74985766, 0.31477514, 0.3492969, 0.13246346, 0
336, 2976437982, 0.0023396462, -0.659459, -0.053312182, -0.749848, 0.46553928, 0.41013712, 0.24201012, 0
337, 2976454649, 0.002518639, -0.6594643, -0.053126834, -0.74985594, 0.5147338, 0.26039243, 0.27250004, 0
338, 2976471316, 0.0026982278, -0.65944034, -0.052954033, -0.74988866, 0.43664595, 0.077189475, 0.12846184, 0
339, 2976487983, 0.0029014945, -0.65942997, -0.05284202, -0.74990493, 0.19001924, 0.10276081, 0.07496929, 0
340, 2976504650, 0.0030616522, -0.6594197, -0.05269578, -0.7499236, -0.004602607, 0.24818577, 0.08013439, 0
341, 2976521317, 0.0032009035, -0.6594044, -0.05253674, -0.74994755, -0.04953338, 0.29887304, 0.10051155, 0
342, 2976537984, 0.003328234, -0.6594081, -0.05238259, -0.7499546, 0.08267526, 0.27105236, 0.07037926, 0
343, 2976554651, 0.0034585446, -0.6594029, -0.052264154, -0.74996686, 0.30087307, 0.24433464, 0.040382385, 0
344, 2976571318, 0.0035575181, -0.6593852, -0.052179933, -0.7499878, 0.4040073, 0.22846879, 0.092513084, 0
345, 2976587985, 0.0036135465, -0.6593546, -0.05212441, -0.7500183, 0.39105764, 0.21179909, 0.17408752, 0
346, 2976604652, 0.0036641657, -0.6593128, -0.052108765, -0.75005585, 0.22265671, 0.28025067, 0.12599373, 0
347, 2976621319, 0.0037344396, -0.6592617, -0.052104436, -0.7501006, 0.2396383, 0.23344447, 0.13840199, 0
348, 2976637986, 0.0037858486, -0.6592328, -0.05209931, -0.75012624, 0.23225108, 0.085569754, 0.08058643, 0
349, 2976654653, 0.0038288236, -0.6592165, -0.05205778, -0.7501431, 0.24735922, 0.15748349, 0.02041912, 0
350, 2976671320, 0.0038829148, -0.6591906, -0.051996633, -0.7501699, 0.21220933, 0.27623788, 0.029895782, 0
351, 2976687987, 0.0039555877, -0.65917575, -0.05190958, -0.7501886, 0.18114252, 0.39013806, 0.14421177, 0
352, 2976704654, 0.004015386, -0.6591422, -0.051822536, -0.7502237, 0.19438234, 0.31872907, 0.14192963, 0
353, 2976721321, 0.0040956587, -0.6590964, -0.051765956, -0.75026745, 0.14067757, 0.20363936, 0.07657814, 0
354, 2976737988, 0.0041300803, -0.65905106, -0.05168646, -0.7503126, 0.11920424, 0.07975009, 0.023528099, 0
355, 2976754655, 0.0041505396, -0.65902925, -0.051643163, -0.75033456, 0.10147309, 0.014113781, 0.008070946, 0
356, 2976771322, 0.0041398257, -0.6590141, -0.05167111, -0.75034595, 0.114116356, 0.1310623, 0.07048416, 0
357, 2976787989, 0.0040686578, -0.65900254, -0.05169136, -0.7503551, 0.076075286, 0.2988229, 0.112057686, 0
358, 2976804656, 0.0039869994, -0.65896493, -0.05173058, -0.75038594, 0.11470976, 0.29584342, 0.13042831, 0
359, 2976821323, 0.0038873255, -0.6589259, -0.051781364, -0.7504172, 0.10996639, 0.21726498, 0.114684105, 0
360, 2976837990, 0.0037738383, -0.6588775, -0.051869877, -0.75045425, 0.13804105, 0.19619504, 0.050704002, 0
361, 2976854657, 0.003630191, -0.65883064, -0.051966153, -0.7504894, 0.09614968, 0.20195541, 0.049938202, 0
362, 2976871324, 0.0034267455, -0.65879726, -0.05204688, -0.7505141, 0.17889737, 0.21993865, 0.0633831, 0
363, 2976887991, 0.0032393634, -0.65875363, -0.052159473, -0.7505454, 0.20745417, 0.12074898, 0.071923256, 0
364, 2976904658, 0.0030399114, -0.6587202, -0.05231121, -0.7505651, 0.14241147, 0.08105105, 0.09395504, 0
365, 2976921325, 0.0028176457, -0.6586671, -0.052450687, -0.75060284, 0.07011317, 0.13873187, 0.08275604, 0
366, 2976937992, 0.0026090592, -0.65863794, -0.052582428, -0.75061995, 0.055621225, 0.19064236, 0.065060616, 0
367, 2976954659, 0.0024019927, -0.65860236, -0.052690104, -0.75064427, 0.10899657, 0.20759296, 0.070329666, 0
368, 2976971326, 0.0022010505, -0.6585719, -0.052767128, -0.7506663, 0.059246607, 0.21837959, 0.014561653, 0
369, 2976987993, 0.0020430088, -0.65854555, -0.05285018, -0.75068396, 0.039870102, 0.071618244, 0.034981728, 0
370, 2977004660, 0.001876086, -0.6585213, -0.052948043, -0.75069857, 0.08579615, -0.07860336, 0.09629631, 0
371, 2977021327, 0.0016930103, -0.65850484, -0.053101875, -0.7507026, 0.10613189, -0.011767007, 0.08480263, 0
372, 2977037994, 0.0015199631, -0.658478, -0.0532597, -0.7507154, 0.037328422, 0.18008685, 0.05458641, 0
373, 2977054661, 0.001341939, -0.65844256, -0.053370588, -0.750739, -0.014874843, 0.18819954, 0.058379173, 0
374, 2977071328, 0.0012110323, -0.65841526, -0.05350379, -0.7507537, 0.0040768483, 0.090632774, 0.045636177, 0
375, 2977087995, 0.0010419637, -0.65838677, -0.05360824, -0.7507715, -0.021248521, 0.039230876, 0.08149433, 0
376, 2977104662, 8.804947E-4, -0.6583533, -0.053737804, -0.75079185, 0.012641222, 0.08048556, 0.02758789, 0
377, 2977121329, 6.829798E-4, -0.6583151, -0.053843603, -0.75081784, -0.02015, 0.14459349, 0.045059204, 0
378, 2977137996, 4.8050284E-4, -0.65828097, -0.05397387, -0.75083864, -0.023962963, 0.0777297, 0.090592384, 0
379, 2977154663, 2.9467046E-4, -0.6582482, -0.05417639, -0.7508528, 0.02371017, 0.028976442, 0.113770485, 0
380, 2977171330, 1.3768673E-5, -0.6582097, -0.05433795, -0.750875, 0.0369589, 0.0515246, 0.08045387, 0
381, 2977187997, -2.0128489E-4, -0.65817773, -0.054527327, -0.75088924, 0.05285352, 0.096351855, 0.04087639, 0
382, 2977204664, -4.3722987E-4, -0.65814966, -0.054683134, -0.75090253, 0.07214554, 0.11220283, 0.073685646, 0
383, 2977221331, -6.63802E-4, -0.6581217, -0.054825313, -0.7509163, 0.086701654, 0.20090216, 0.06645775, 0
384, 2977237998, -8.265972E-4, -0.6580824, -0.05498693, -0.7509388, 0.096271224, 0.14336735, 0.08961105, 0
385, 2977254665, -9.810328E-4, -0.65804255, -0.055113867, -0.75096434, 0.14487411, 0.038972724, 0.09369755, 0
386, 2977271332, -0.0011433661, -0.6579989, -0.055221, -0.7509944, 0.07380702, 0.03186574, 0.044221878, 0
387, 2977287999, -0.0012879372, -0.6579658, -0.05532623, -0.75101554, 0.019570347, 0.11720662, 0.0049819946, 0
388, 2977304666, -0.0014197975, -0.65795606, -0.055423513, -0.7510165, 0.039615013, 0.14819176, 0.057322502, 0
389, 2977321333, -0.0015738457, -0.65793854, -0.055480912, -0.7510274, 0.12839322, 0.09752262, 0.11683369, 0
390, 2977338000, -0.0017131865, -0.65791833, -0.055540882, -0.7510403, 0.12580968, 0.06999174, -0.23015594, 0
391, 2977354667, -0.0018292218, -0.6579522, -0.0555712, -0.7510081, -0.009336332, 0.17490207, -0.6849556, 0
392, 2977371334, -0.0019778311, -0.657993, -0.055637203, -0.7509672, -0.3782354, -0.13427061, 0.64632607, 0
393, 2977388001, -0.0021218956, -0.6580107, -0.055761658, -0.75094205, -0.14384687, 0.05409455, 0.5518131, 0
394, 2977404668, -0.0023409277, -0.6579479, -0.05595155, -0.75098234, -0.060579065, -0.23784511, 0.38212872, 0
395, 2977421335, -0.0025565475, -0.65786415, -0.05618024, -0.7510378, -0.07787996, -0.004202267, -0.31132603, 0
396, 2977438002, -0.002710417, -0.65778756, -0.056300573, -0.75109535, -0.5783457, 0.015489783, -0.11695099, 0
397, 2977454669, -0.0028213114, -0.6577575, -0.05634459, -0.751118, -0.8317638, -0.33542982, -0.01829815, 0
398, 2977471336, -0.002902761, -0.65775573, -0.05640153, -0.75111496, -0.8212401, -0.5860394, -0.21300125, 0
399, 2977488003, -0.0029390454, -0.6577772, -0.05649525, -0.7510889, -0.8788592, -0.5710603, -0.3582964, 0
400, 2977504670, -0.0029187351, -0.6578551, -0.056533076, -0.75101805, -0.85308075, -0.48747092, -0.23947811, 0
401, 2977521337, -0.0028416663, -0.6579504, -0.056464173, -0.75093997, -0.74983037, -0.44547513, -0.1234951, 0
402, 2977538004, -0.002611503, -0.65804625, -0.056453235, -0.75085765, -0.5290136, -0.33853897, 0.111141205, 0
403, 2977554671, -0.0024116784, -0.6581088, -0.056352668, -0.75081116, -0.33322766, 0.01239899, 0.22308636, 0
404, 2977571338, -0.0021963567, -0.6581343, -0.056197517, -0.750801, -0.2517774, 0.22430475, 0.3478756, 0
405, 2977588005, -0.0020229518, -0.6581007, -0.05601436, -0.75084466, -0.049654324, 0.13021004, 0.23373985, 0
406, 2977604672, -0.0018928647, -0.6580441, -0.055958495, -0.7508988, -0.013090008, 0.058886833, 0.11179829, 0
407, 2977621339, -0.0018250942, -0.6579876, -0.055986993, -0.7509463, -0.04582443, 0.18214093, -0.11067486, 0
408, 2977638006, -0.0018209517, -0.65795034, -0.05605316, -0.75097394, -0.11754088, 0.16008367, -0.01955223, 0
409, 2977654673, -0.0018864274, -0.6579344, -0.056150824, -0.75098056, -0.07814004, 0.20574155, -0.042129517, 0
410, 2977671340, -0.002005875, -0.65794605, -0.05630379, -0.75095856, 0.029219626, 0.13441432, 0.10782242, 0
411, 2977688007, -0.0021156222, -0.65793246, -0.056567103, -0.7509504, 0.25246206, 0.11632564, 0.29223537, 0
412, 2977704674, -0.0022283792, -0.6578804, -0.056821615, -0.7509764, 0.34100735, 0.18647857, 0.46623135, 0
413, 2977721341, -0.00232248, -0.65778023, -0.056988023, -0.75105137, 0.3512943, 0.23127428, 0.53464985, 0
414, 2977738008, -0.002392739, -0.6576479, -0.057081796, -0.7511598, 0.31721684, 0.069983356, 0.402277, 0
415, 2977754675, -0.0023561418, -0.6574917, -0.057117768, -0.75129396, 0.19735426, -0.026459798, 0.14534664, 0
416, 2977771342, -0.0021789372, -0.6573448, -0.05704067, -0.7514289, 0.009648384, -0.30028042, -0.04944229, 0
417, 2977788009, -0.0018942654, -0.65722555, -0.056885533, -0.7515458, -0.09491914, -0.39330786, 0.10409737, 0
418, 2977804676, -0.0015849173, -0.6571164, -0.056657568, -0.751659, -0.2969301, -0.06599745, 0.108159065, 0
419, 2977821343, -0.0012325048, -0.65701467, -0.05639655, -0.75176835, -0.46082684, 0.20481275, -0.38111782, 0
420, 2977838010, -8.6194277E-4, -0.65695393, -0.056113012, -0.7518431, -0.58210737, 0.18358164, -0.36810207, 0
421, 2977854677, -5.9105456E-4, -0.6569263, -0.055911556, -0.7518826, -0.7174745, -0.18759102, 7.953644E-4, 0
422, 2977871344, -4.4366717E-4, -0.65687096, -0.055853844, -0.7519351, -0.6828197, -0.287505, 0.037949562, 0
423, 2977888011, -4.567951E-4, -0.6567567, -0.055931024, -0.75202924, -0.7226111, -0.4330102, 0.10587406, 0
424, 2977904678, -5.377233E-4, -0.6566196, -0.056082882, -0.75213766, -1.0744531, -0.06970855, -0.123877525, 0
425, 2977921345, -5.878359E-4, -0.6564855, -0.056215033, -0.75224483, -1.2704859, 0.05117346, -0.18320274, 0
426, 2977938012, -7.072389E-4, -0.65639937, -0.056453064, -0.75230205, -1.227044, -1.1013402, -0.46133995, 0
427, 2977954679, -9.0289116E-4, -0.65636873, -0.056808762, -0.75230163, -1.5167117, -0.6773273, -0.56793976, 0
428, 2977971346, -0.0011231601, -0.6563462, -0.057040162, -0.75230354, -1.7210785, -0.36394843, -0.19003773, 0
429, 2977988013, -0.0012391359, -0.6563376, -0.05727926, -0.7522928, -1.4365141, -0.808314, -0.06540966, 0
430, 2978004680, -0.0012166351, -0.6563097, -0.05766976, -0.7522873, -0.90264654, -0.94400674, -0.52480316, 0
431, 2978021347, -0.0011431128, -0.65628254, -0.057926312, -0.75229144, -1.1637582, -0.9901399, -0.41445827, 0
432, 2978038014, -9.879619E-4, -0.6563014, -0.05788424, -0.7522784, -1.6044716, -1.0629194, 0.084052086, 0
433, 2978054681, -5.455911E-4, -0.6563325, -0.05767262, -0.752268, -1.6608586, -1.0106915, -0.101943016, 0
434, 2978071348, -2.7179718E-5, -0.65634865, -0.05727022, -0.752285, -1.8057569, -0.8714485, 0.46334267, 0
435, 2978088015, 6.7548454E-4, -0.6563208, -0.056987807, -0.7523304, -1.4596176, -1.1276121, 0.18986034, 0
436, 2978104682, 0.0013359487, -0.65626866, -0.056723967, -0.75239474, -1.2489083, -0.7278292, -0.47630692, 0
437, 2978121349, 0.002103895, -0.65622634, -0.056389414, -0.75245506, -1.3037063, -0.58364266, -0.7170181, 0
438, 2978138016, 0.0028903633, -0.6562075, -0.055950843, -0.7525017, -1.5635014, -1.0218806, -0.21317673, 0
439, 2978154683, 0.0037558526, -0.65620524, -0.05554512, -0.75252986, -1.9122617, -1.2238177, 0.29075336, 0
440, 2978171350, 0.0047008544, -0.6562342, -0.055116527, -0.75253075, -2.0220928, -1.0035961, -0.35893917, 0
441, 2978188017, 0.0057080835, -0.6562987, -0.05464156, -0.7525023, -1.9879079, -0.7845085, -0.20596218, 0
442, 2978204684, 0.0067367554, -0.6563623, -0.05415964, -0.7524731, -2.1245768, -1.1664873, -0.4376402, 0
443, 2978221351, 0.00776954, -0.65649295, -0.0536696, -0.7523844, -2.23232, -1.2871553, -0.78978825, 0
444, 2978238018, 0.008829176, -0.65664154, -0.053186163, -0.75227726, -2.448201, -1.1333822, -0.3913231, 0
445, 2978254685, 0.009941101, -0.6567383, -0.0526528, -0.7522163, -2.776118, -1.1306269, -0.07518101, 0
446, 2978271352, 0.01111643, -0.6568161, -0.052137293, -0.75216794, -2.4498396, -1.1640832, -0.4430046, 0
447, 2978288019, 0.0122255385, -0.6569093, -0.05169657, -0.75209975, -2.9033098, -1.5244555, 0.2987814, 0
448, 2978304686, 0.013288647, -0.65703803, -0.051409274, -0.75198907, -2.830146, -1.3958325, -0.3066597, 0
449, 2978321353, 0.014209181, -0.6571154, -0.051304907, -0.75191164, -2.8026793, -1.5524805, -0.8827114, 0
450, 2978338020, 0.014922634, -0.6571596, -0.051429704, -0.75185066, -2.9545066, -1.7828764, -0.7662382, 0
451, 2978354687, 0.015482798, -0.65720063, -0.051775783, -0.75177974, -2.8438318, -1.3887475, -0.3591175, 0
452, 2978371354, 0.01600483, -0.65719116, -0.052233696, -0.75174546, -2.8343093, -1.2915646, 0.46862602, 0
453, 2978388021, 0.01654248, -0.65715104, -0.052711047, -0.75173557, -2.5850422, -1.3025686, -0.76856995, 0
454, 2978404688, 0.017106667, -0.6570868, -0.053259186, -0.75174046, -2.0647774, -1.5781893, -1.4239655, 0
455, 2978421355, 0.0176664, -0.6570804, -0.05392433, -0.7516856, -2.6758254, -2.2465708, 0.26468182, 0
456, 2978438022, 0.018313318, -0.65720344, -0.054505013, -0.75152063, -2.226596, -1.4533156, -1.1042557, 0
457, 2978454689, 0.019238293, -0.65734386, -0.054814138, -0.75135225, -2.3423588, -1.3112454, -0.058703423, 0
458, 2978471356, 0.020503655, -0.6574343, -0.054913864, -0.7512324, -1.6358331, -1.4981955, -1.5461311, 0
459, 2978488023, 0.022122934, -0.65764874, -0.054766767, -0.75100946, -2.1270618, -1.5125482, -0.78734016, 0
460, 2978504690, 0.024057418, -0.6581163, -0.05430364, -0.750574, -1.655551, -1.9068931, -1.4470873, 0
461, 2978521357, 0.026098818, -0.658734, -0.053704984, -0.75000674, -1.2237853, -1.9804604, -1.0944042, 0
462, 2978538024, 0.02822958, -0.6594036, -0.05305641, -0.7493869, -1.1542405, -1.682775, 0.08888054, 0
463, 2978554691, 0.030513152, -0.66006887, -0.052161172, -0.74877435, -0.88392264, 0.18651274, -0.24387741, 0
464, 2978571358, 0.03303528, -0.6606382, -0.050876334, -0.7482533, -0.78089607, 0.43180424, 1.760912, 0
465, 2978588025, 0.035571054, -0.66115236, -0.04947731, -0.7477767, -0.0097387945, 0.07976082, 1.0586615, 0
466, 2978604692, 0.037942946, -0.6615673, -0.048315622, -0.74736905, 0.45586592, 0.10582891, 0.8321781, 0
467, 2978621359, 0.040013134, -0.6618249, -0.047471553, -0.747087, 0.45043212, 0.64363694, 1.5902176, 0
468, 2978638026, 0.041701034, -0.6618825, -0.046939433, -0.7469774, 1.2808187, 1.3688368, 1.5098772, 0
469, 2978654693, 0.043122247, -0.66185725, -0.046787888, -0.7469285, 1.2791541, 1.4291713, 0.34415627, 0
470, 2978671360, 0.044468775, -0.6617491, -0.046843834, -0.74694186, 2.4233832, 1.705825, 0.74284935, 0
471, 2978688027, 0.045860976, -0.66149867, -0.046886005, -0.747077, 2.539154, 0.991955, 0.71933556, 0
472, 2978704694, 0.0471994, -0.66126484, -0.047103763, -0.7471867, 2.6887212, 0.42398468, 0.7162914, 0
473, 2978721361, 0.048390284, -0.6610508, -0.04763165, -0.74726653, 2.0452015, 0.6081312, -0.34915257, 0
474, 2978738028, 0.049444884, -0.6608657, -0.048318647, -0.7473172, 1.6455127, 0.8596553, -0.09035587, 0
475, 2978754695, 0.050464734, -0.66070026, -0.049147703, -0.74734133, 1.9181964, 0.6266476, -0.20052624, 0
476, 2978771362, 0.051412076, -0.6605209, -0.050312966, -0.74735755, 1.7978483, 0.034909036, 0.29185867, 0
477, 2978788029, 0.052286208, -0.6603404, -0.05175011, -0.7473583, 1.1766376, 0.39771202, 0.21958065, 0
478, 2978804696, 0.053127617, -0.660114, -0.053201832, -0.7473971, 0.11388672, 0.90534884, -0.06579685, 0
479, 2978821363, 0.0539736, -0.65999854, -0.054542445, -0.7473419, -0.30017075, 0.60939133, 0.26663303, 0
480, 2978838030, 0.05466555, -0.65995675, -0.056050293, -0.74721676, -0.033226375, -0.02755669, 0.179842, 0
481, 2978854697, 0.055071414, -0.6599724, -0.057860896, -0.7470351, 0.37248325, -0.3628489, -0.17706203, 0
482, 2978871364, 0.055216953, -0.6599733, -0.059927113, -0.74686074, 0.44600227, -0.25932968, 0.02007389, 0
483, 2978888031, 0.05522111, -0.6599174, -0.06196432, -0.7467436, 0.27927452, 0.51913464, -0.41716957, 0
484, 2978904698, 0.055324778, -0.65988255, -0.063737996, -0.7466173, -0.12034823, 0.7879611, 0.35738945, 0
485, 2978921365, 0.055567577, -0.65981174, -0.06542992, -0.7465155, -0.46413755, 0.06857679, -0.062146187, 0
486, 2978938032, 0.055821285, -0.6596871, -0.067152426, -0.74645394, -0.73688376, -0.07511041, 0.28067493, 0
487, 2978954699, 0.056030855, -0.6595391, -0.068717025, -0.74642664, -1.034327, 0.047916625, -0.5397043, 0
488, 2978971366, 0.056144476, -0.6594371, -0.07001164, -0.7463878, -0.9785725, 0.08261408, 0.03253746, 0
489, 2978988033, 0.056144536, -0.65931445, -0.07128032, -0.7463761, -0.8502967, -0.4770493, -0.5615463, 0
490, 2979004700, 0.0560008, -0.6591598, -0.072714254, -0.7463852, -0.83353525, 0.28380546, 0.46520424, 0
491, 2979021367, 0.055821806, -0.6590028, -0.07405441, -0.7464054, -1.2503045, 0.60282147, -0.35901737, 0
492, 2979038034, 0.055605575, -0.65888906, -0.07515076, -0.7464125, -1.0987966, 0.17434882, 0.35258484, 0
493, 2979054701, 0.055323035, -0.6587312, -0.07604365, -0.7464823, -1.0635068, -0.47258094, -0.92480373, 0
494, 2979071368, 0.05495508, -0.65856105, -0.07696767, -0.7465649, -0.7232642, -0.109179035, 0.27019405, 0
495, 2979088035, 0.05456586, -0.658335, -0.078036495, -0.7466818, -1.3504173, -0.0055412212, -0.06534767, 0
496, 2979104702, 0.054092452, -0.6582617, -0.07896916, -0.74668276, -1.436445, 0.04572114, 0.18056202, 0
497, 2979121369, 0.053563416, -0.65819794, -0.07975338, -0.74669385, -1.3846349, -0.019470884, -0.49137115, 0
498, 2979138036, 0.053025305, -0.65815616, -0.080559984, -0.74668247, -0.76635, 0.26483446, -0.11465454, 0
499, 2979154703, 0.0524998, -0.6580909, -0.081187606, -0.7467092, -1.1971309, 0.29653898, -0.53645325, 0
500, 2979171370, 0.0519464, -0.6580837, -0.08154822, -0.74671495, -0.97337276, -0.35597435, -0.3374796, 0
501, 2979188037, 0.051284105, -0.6580867, -0.08191113, -0.74671835, -0.750738, -0.45085034, -0.106580734, 0
502, 2979204704, 0.050553277, -0.6580927, -0.082333416, -0.74671656, -1.4234033, -0.056631032, 0.22725868, 0
503, 2979221371, 0.049791485, -0.65811956, -0.08260998, -0.7467135, -2.2519886, 0.37100703, 0.16256905, 0
504, 2979238038, 0.04905781, -0.658133, -0.08259574, -0.74675184, -2.3254673, 0.2538032, -0.2797451, 0
505, 2979254705, 0.04831639, -0.6581179, -0.08250366, -0.74682355, -1.6931803, -0.4921107, 0.009618759, 0
506, 2979271372, 0.047389686, -0.6580544, -0.08270854, -0.74691623, -1.8800724, -0.9319483, 0.41557026, 0
507, 2979288039, 0.046199694, -0.6579634, -0.083151326, -0.74702173, -2.1200838, -0.39276055, -0.14674854, 0
508, 2979304706, 0.044877708, -0.65772945, -0.08351281, -0.7472681, -1.6214482, -0.07777301, -0.35313892, 0
509, 2979321373, 0.04350318, -0.65734214, -0.08378655, -0.74765944, -0.8469784, -0.36885828, -0.023917198, 0
510, 2979338040, 0.042200014, -0.656999, -0.08412059, -0.7479981, -1.7885123, -0.42909527, 0.30580807, 0
511, 2979354707, 0.04099804, -0.6567766, -0.08444664, -0.7482233, -2.4756866, -0.35902205, -0.033898354, 0
512, 2979371374, 0.039769948, -0.6566784, -0.0846233, -0.7483559, -2.4344828, -0.5812661, -0.72823906, 0
513, 2979388041, 0.038582012, -0.6566229, -0.08461762, -0.74846745, -2.2348266, -1.0130317, -0.4540739, 0
514, 2979404708, 0.037567645, -0.65642387, -0.08453666, -0.74870276, -1.3832409, -0.9968468, 1.218977, 0
515, 2979421375, 0.036798358, -0.65603626, -0.08455583, -0.7490786, -0.2975328, -0.5686935, 1.6656466, 0
516, 2979438042, 0.0362152, -0.65553164, -0.08435734, -0.7495709, -0.68278, -0.6748681, 0.3220644, 0
517, 2979454709, 0.035650194, -0.65526825, -0.083871074, -0.7498827, -2.0684123, -1.4648476, -1.7264872, 0
518, 2979471376, 0.035161033, -0.6552416, -0.08339893, -0.7499817, -2.4516823, -1.390296, -2.5309668, 0
519, 2979488043, 0.034959733, -0.6552309, -0.08279602, -0.7500673, -1.9322912, -0.43780455, -0.6312084, 0
520, 2979504710, 0.03499596, -0.655033, -0.08211382, -0.7503136, -0.6926328, -0.4009741, 2.9337263, 0
521, 2979521377, 0.035169646, -0.6547552, -0.0814408, -0.75062114, 1.0800653, 0.3192815, -0.23807144, 0
522, 2979538044, 0.035284907, -0.6544328, -0.08093404, -0.7509516, 2.3262968, -0.25723565, -3.0003142, 0
523, 2979554711, 0.035196155, -0.65424603, -0.08089843, -0.7511223, -0.14045471, -1.5942004, -1.5412655, 0
524, 2979571378, 0.035142407, -0.65436333, -0.08104506, -0.7510067, -1.7210923, -0.41232938, 0.5573263, 0
525, 2979588045, 0.0353847, -0.6546166, -0.08083251, -0.7507977, -0.8093032, 0.5338332, 1.3660164, 0
526, 2979604712, 0.036038697, -0.6546011, -0.08032264, -0.7508347, 2.4213421, 0.1848384, 1.117281, 0
527, 2979621379, 0.03688173, -0.6544018, -0.07972303, -0.75103146, 1.5429976, -0.7593985, 1.8697681, 0
528, 2979638046, 0.03785038, -0.65442824, -0.07882897, -0.7510545, 0.8855988, 0.61154896, -1.2914114, 0
529, 2979654713, 0.03899102, -0.6545213, -0.07759472, -0.7510436, -0.33589995, 0.70783645, -0.60339546, 0
530, 2979671380, 0.04022579, -0.654776, -0.076332115, -0.750886, -1.1580895, -0.10831807, -0.35446167, 0
531, 2979688047, 0.04147336, -0.6550519, -0.07505464, -0.75070614, -1.5034192, -0.007345418, -0.3798275, 0
532, 2979704714, 0.042794123, -0.6553227, -0.073544316, -0.75054514, -1.6886395, 0.061395545, -2.006072, 0
533, 2979721381, 0.04404913, -0.6556174, -0.071805306, -0.75038344, -1.6461672, -0.73812526, -0.5305176, 0
534, 2979738048, 0.045182496, -0.65610343, -0.070136, -0.7500492, -2.7911725, -1.7885202, -1.4152842, 0
535, 2979754715, 0.04621686, -0.6568175, -0.06864345, -0.74949896, -2.6281786, -1.6164991, -2.4848514, 0
536, 2979771382, 0.047268406, -0.6576067, -0.06707656, -0.748883, -3.8627286, -1.7045356, -1.2123356, 0
537, 2979788049, 0.048311517, -0.6585652, -0.065323226, -0.7481286, -3.6411254, -1.8284551, 0.32181263, 0
538, 2979804716, 0.049349055, -0.65934014, -0.06331263, -0.7475511, -3.0679736, -0.33688712, 1.6509533, 0
539, 2979821383, 0.05051668, -0.6599661, -0.061191373, -0.7470972, -2.4759774, -0.038935173, 1.4728928, 0
540, 2979838050, 0.051803246, -0.6603209, -0.059253834, -0.7468518, -1.355841, -0.043368444, 3.7942724, 0
541, 2979854717, 0.05295694, -0.66041535, -0.057432465, -0.7468296, -0.35930267, -0.0021010218, 2.4510498, 0
542, 2979871384, 0.053707823, -0.6604016, -0.055795796, -0.7469122, 1.1820842, 0.77814347, -0.88609314, 0
543, 2979888051, 0.053987265, -0.66027945, -0.054616548, -0.7470873, 1.8801391, 1.9210603, -1.3737955, 0
544, 2979904718, 0.053988084, -0.66020775, -0.053952143, -0.747199, 1.4576348, 2.2620373, 0.09293461, 0
545, 2979921385, 0.053789705, -0.66025215, -0.053501375, -0.7472063, 2.198457, 2.640947, 0.31146812, 0
546, 2979938052, 0.053429797, -0.66029155, -0.053100437, -0.747226, 3.3075283, 2.1313114, -0.17019558, 0
547, 2979954719, 0.052951857, -0.66019136, -0.052666225, -0.747379, 2.7919173, 1.5478793, 1.1812878, 0
548, 2979971386, 0.052389354, -0.6601294, -0.05236301, -0.7474948, 1.3671957, 1.0581957, -0.20229435, 0
549, 2979988053, 0.051785022, -0.66027033, -0.052296706, -0.74741703, 0.89845157, 1.9040426, -0.55961037, 0
550, 2980004720, 0.05117978, -0.66045815, -0.05207473, -0.7473084, 0.30488262, 1.8085519, 0.17082977, 0
551, 2980021387, 0.05048071, -0.6607405, -0.051642798, -0.7471363, 0.6395886, 0.8857417, 0.25482273, 0
552, 2980038054, 0.049693853, -0.66095036, -0.05116778, -0.74703604, 1.4451543, 0.8644357, 0.0051317215, 0
553, 2980054721, 0.048925474, -0.66100526, -0.050494157, -0.74708426, 0.83543366, 1.2159733, 1.0817509, 0
554, 2980071388, 0.048339173, -0.6610543, -0.049550183, -0.747142, -0.038417995, 1.1095084, 0.58555126, 0
555, 2980088055, 0.04788433, -0.66119456, -0.048250116, -0.7471322, -0.2668199, 0.67391104, 0.036794662, 0
556, 2980104722, 0.04759845, -0.6612943, -0.046691164, -0.74716145, 0.20402059, 0.41626048, 0.07605839, 0
557, 2980121389, 0.04741238, -0.6613516, -0.044983126, -0.7472273, -0.10847313, 0.2937413, 0.44145966, 0
558, 2980138056, 0.047300816, -0.6614612, -0.04331535, -0.7472359, -0.4038537, 0.2297179, 0.1443901, 0
559, 2980154723, 0.047147408, -0.6614696, -0.041722104, -0.7473287, -0.49640876, 0.4824612, -0.6475134, 0
560, 2980171390, 0.04698655, -0.66147447, -0.04004761, -0.7474261, -0.10556897, 0.80693513, 0.1705246, 0
561, 2980188057, 0.04683888, -0.661546, -0.03842333, -0.7474573, -0.15162197, 0.54020774, 0.26548862, 0
562, 2980204724, 0.046638325, -0.66168714, -0.036975518, -0.74741817, -0.59195846, 0.33025444, -0.045695305, 0
563, 2980221391, 0.046411887, -0.66177034, -0.035694957, -0.74742067, -0.26439032, -0.18885526, -0.4745369, 0
564, 2980238058, 0.045966104, -0.66173595, -0.034710005, -0.7475251, -0.3156526, -0.5839672, -0.93679905, 0
565, 2980254725, 0.045326605, -0.66169536, -0.03404817, -0.7476304, -0.018665217, -0.3512767, -0.821331, 0
566, 2980271392, 0.044620633, -0.6617227, -0.03377191, -0.7476611, -0.9539628, -0.4207618, 0.61580086, 0
567, 2980288059, 0.04389955, -0.66187465, -0.033711083, -0.74757206, -1.0468816, 0.5366142, -0.15072155, 0
568, 2980304726, 0.043193966, -0.6618738, -0.03369104, -0.74761486, -0.46096706, 0.82204264, 0.38088894, 0
569, 2980321393, 0.042380273, -0.66179913, -0.033842847, -0.7477207, -0.3102103, -0.37660983, 0.6824436, 0
570, 2980338060, 0.0413706, -0.6616769, -0.03422509, -0.74786806, 0.7582825, -0.7641124, -0.22974777, 0
571, 2980354727, 0.040201142, -0.6614031, -0.03489048, -0.7481432, 0.76899385, -1.0163232, -0.5982418, 0
572, 2980371394, 0.039044008, -0.6611641, -0.03573568, -0.74837583, 0.31424668, -0.19681266, 0.5538244, 0
573, 2980388061, 0.038122907, -0.6610233, -0.036189236, -0.74852604, -0.66794926, 1.1018286, 0.74929047, 0
574, 2980404728, 0.037581086, -0.6608118, -0.03609643, -0.7487446, -0.03162415, 0.93789166, 0.32307243, 0
575, 2980421395, 0.03726089, -0.6606109, -0.035925977, -0.748946, 0.301048, -0.34594738, -0.6891813, 0
576, 2980438062, 0.036972, -0.6605288, -0.035893753, -0.7490343, 0.3980965, -0.38864082, 0.08998299, 0
577, 2980454729, 0.03664662, -0.66049695, -0.035847656, -0.7490806, -0.46162567, 0.025630342, 0.10702896, 0
578, 2980471396, 0.036204815, -0.6605118, -0.035728104, -0.7490946, -0.18655674, 0.016685465, -0.42218304, 0
579, 2980488063, 0.035717785, -0.6603655, -0.035752177, -0.7492459, -0.5080712, -0.33310348, 0.56088924, 0
580, 2980504730, 0.035433635, -0.660243, -0.0357752, -0.7493663, -0.9579046, 0.0062863017, 0.0024871826, 0
581, 2980521397, 0.035336316, -0.66020894, -0.035609618, -0.7494086, -0.63302034, -0.25603387, -0.18045044, 0
582, 2980538064, 0.035270706, -0.6603003, -0.035327338, -0.7493446, -0.8846394, -0.91137487, 0.5483761, 0
583, 2980554731, 0.035139114, -0.66056246, -0.035153903, -0.749128, -0.3546716, -1.1453419, 0.5075121, 0
584, 2980571398, 0.03490834, -0.6607748, -0.035182767, -0.74894994, -0.7580018, -0.024266914, 0.87385845, 0
585, 2980588065, 0.03473799, -0.66088986, -0.035166323, -0.7488572, -0.9520639, 1.1179423, 0.027326584, 0
586, 2980604732, 0.03460434, -0.6608544, -0.035117403, -0.74889696, -0.53206956, 0.5457694, -0.8134937, 0
587, 2980621399, 0.034352913, -0.66075826, -0.035248466, -0.7489872, -0.06062944, -0.50514483, -1.3204165, 0
588, 2980638066, 0.03387299, -0.66065156, -0.0356069, -0.74908614, -0.18641378, -0.6843658, -1.0172272, 0
589, 2980654733, 0.033192754, -0.66059315, -0.03599059, -0.7491497, -0.64191747, 0.106437095, 0.47676945, 0
590, 2980671400, 0.03247623, -0.66049445, -0.03624802, -0.74925596, -1.3847734, 0.6294873, 0.01952362, 0
591, 2980688067, 0.03178896, -0.66036576, -0.036417946, -0.74939036, -1.1358535, 0.34710926, -0.0010566711, 0
592, 2980704734, 0.031172901, -0.6602509, -0.036494546, -0.7495139, -1.2704197, 0.43635395, 0.24894714, 0
593, 2980721401, 0.030588254, -0.66021764, -0.036551684, -0.7495646, -1.3290561, -0.085434474, -0.6669569, 0
594, 2980738068, 0.029853791, -0.66016597, -0.036690272, -0.749633, -0.8392347, -0.7510812, -0.2568531, 0
595, 2980754735, 0.028946131, -0.66017264, -0.03691338, -0.7496516, -0.94304466, -0.8380109, 0.37029934, 0
596, 2980771402, 0.027835295, -0.66013855, -0.03710735, -0.749714, -1.8405496, -0.18295954, -0.049438477, 0
597, 2980788069, 0.026770249, -0.660244, -0.037201166, -0.7496553, -2.6561754, 0.27889544, -0.44030857, 0
598, 2980804736, 0.025785416, -0.6604656, -0.037265077, -0.74949133, -1.8788705, -0.3738206, -0.91527176, 0
599, 2980821403, 0.024837852, -0.6606882, -0.037354507, -0.74932283, -1.528057, -0.49824607, 0.025865555, 0
600, 2980838070, 0.023989677, -0.6608541, -0.037196703, -0.7492121, -0.88010347, -0.020245133, 1.170269, 0
601, 2980854737, 0.02320014, -0.6608573, -0.03681694, -0.74925286, -0.8235281, -0.7263741, 1.6129036, 0
602, 2980871404, 0.02236566, -0.6607615, -0.036626764, -0.749372, -1.7098776, -1.2352564, -0.3108759, 0
603, 2980888071, 0.021531865, -0.6608072, -0.0365697, -0.7493589, -3.610454, -1.2039186, -1.9481082, 0
604, 2980904738, 0.020782277, -0.6609968, -0.03639456, -0.7492213, -4.3416905, -1.8088288, -1.7587566, 0
605, 2980921405, 0.020169735, -0.66128075, -0.036079653, -0.74900264, -3.0372365, -1.4171875, -1.836348, 0
606, 2980938072, 0.019850194, -0.66140866, -0.035555206, -0.7489233, -2.3728645, 0.022370517, 0.92020035, 0
607, 2980954739, 0.019837305, -0.66150093, -0.034847334, -0.74887544, -2.1615353, 0.110445015, 4.8435173, 0
608, 2980971406, 0.019797772, -0.66131294, -0.03425379, -0.74907, -0.8426692, -1.0076996, 3.9091892, 0
609, 2980988073, 0.01951842, -0.6610165, -0.03417904, -0.7493423, 1.175711, -2.1390798, -3.3888807, 0
610, 2981004740, 0.019017205, -0.6608021, -0.034682274, -0.7495211, -2.1304479, -2.6662495, -3.140954, 0
611, 2981021407, 0.018440261, -0.66097915, -0.035398915, -0.74934596, -3.7665935, -2.6829844, -0.8283968, 0
612, 2981038074, 0.018017784, -0.66113204, -0.036013983, -0.74919194, -1.3060492, -0.9086688, -3.1646023, 0
613, 2981054741, 0.018039018, -0.6610401, -0.03640253, -0.74925375, -0.46791756, -0.011135192, 2.410142, 0
614, 2981071408, 0.018324241, -0.660806, -0.03663308, -0.7494422, 0.7614415, -0.055022966, 1.5184813, 0
615, 2981088075, 0.018704042, -0.6605605, -0.036980942, -0.7496321, 3.5957975, 0.3521117, -1.3052845, 0
616, 2981104742, 0.018986672, -0.66024816, -0.037788495, -0.7498598, 2.2347531, -1.6473758, -0.07989979, 0
617, 2981121409, 0.01937373, -0.660506, -0.03862465, -0.7495801, 1.7132905, 0.9390387, -1.7809067, 0
618, 2981138076, 0.020276919, -0.6607526, -0.038701378, -0.74933493, 1.6663734, 1.4905288, 0.18401432, 0
619, 2981154743, 0.021621764, -0.6610395, -0.03809335, -0.74907553, 2.2274702, 0.26691872, -0.9312563, 0
620, 2981171410, 0.023290694, -0.6609696, -0.037040554, -0.74913996, 2.9628358, 0.55670744, -1.0482264, 0
621, 2981188077, 0.02519083, -0.6608455, -0.035615213, -0.74925697, 0.14692895, -0.22700311, -1.0148392, 0
622, 2981204744, 0.027183339, -0.66115075, -0.033790134, -0.7490025, -1.1095628, 0.23750392, -1.0697556, 0
623, 2981221411, 0.029124916, -0.6616545, -0.03185329, -0.7485696, -2.5470147, -0.51931906, 1.2422209, 0
624, 2981238078, 0.030927569, -0.6624091, -0.029867046, -0.7479114, -2.3494024, -0.19186375, 0.21278286, 0
625, 2981254745, 0.032555774, -0.6630644, -0.027674854, -0.7473456, -2.2786238, 0.34948766, 1.3295546, 0
626, 2981271412, 0.03399189, -0.6636426, -0.025455356, -0.7468473, -2.2496657, 0.7209408, 1.445076, 0
627, 2981288079, 0.035248727, -0.6639039, -0.023397997, -0.7466241, -0.46496063, 0.899869, 1.7690029, 0
628, 2981304746, 0.03628567, -0.6637854, -0.021782108, -0.7467289, 0.85240924, 0.2586284, 2.3186855, 0
629, 2981321413, 0.03685151, -0.66353524, -0.02079764, -0.7469514, 1.9389201, -0.05181522, 0.8056154, 0
630, 2981338080, 0.036776528, -0.66302425, -0.020280868, -0.7474229, 3.277936, 0.993074, -0.5557718, 0
631, 2981354747, 0.03647107, -0.6623497, -0.020315684, -0.74803483, 2.6061409, 1.3540547, -0.1268959, 0
632, 2981371414, 0.036260024, -0.66199785, -0.020598955, -0.7483486, 1.7290417, 1.276766, 1.2889862, 0
633, 2981388081, 0.03617981, -0.6619997, -0.02089087, -0.7483428, 2.5616026, 0.8413904, -0.03438759, 0
634, 2981404748, 0.036203876, -0.66194147, -0.021297194, -0.74838156, 3.3933375, 0.41347808, -0.22679138, 0
635, 2981421415, 0.036278427, -0.661798, -0.021683477, -0.74849373, 3.5393674, 1.0525157, -0.42948914, 0
636, 2981438082, 0.036488727, -0.6615703, -0.021985218, -0.74867606, 2.0228562, 1.6841199, 1.2113276, 0
637, 2981454749, 0.036722526, -0.6615382, -0.022274308, -0.7486844, 1.2827781, 1.0368569, 0.5601015, 0
638, 2981471416, 0.03683102, -0.66164374, -0.022669472, -0.748574, 1.1757878, 0.6865833, 0.167243, 0
639, 2981488083, 0.036691353, -0.66185135, -0.023127727, -0.7483833, 1.5736644, 0.67752284, 0.22101974, 0
640, 2981504750, 0.036409423, -0.66195256, -0.02365677, -0.748291, 1.8343892, 0.9403605, 0.11459923, 0
641, 2981521417, 0.036040023, -0.6620054, -0.024098918, -0.74824804, 1.2367663, 1.0401168, -0.14595032, 0
642, 2981538084, 0.03568338, -0.662192, -0.024310045, -0.7480932, 0.07052918, 1.178002, -0.672698, 0
643, 2981554751, 0.035452023, -0.6625551, -0.024268448, -0.747784, 0.18620965, 0.7589224, -0.41433907, 0
644, 2981571418, 0.03517209, -0.6628998, -0.024107255, -0.7474969, -0.13876227, 0.1566752, 1.1323881, 0
645, 2981588085, 0.034869224, -0.6632267, -0.023888655, -0.747228, -0.5626025, 0.73435587, 0.5113077, 0
646, 2981604752, 0.03464234, -0.66348153, -0.023705825, -0.747018, 0.0041708075, 0.9936817, -0.30965424, 0
647, 2981621419, 0.034383208, -0.66355777, -0.02337005, -0.7469729, -0.6088753, 0.11903741, -0.74453163, 0
648, 2981638086, 0.03391014, -0.6639204, -0.022042856, -0.74671274, -0.989304, -0.5637649, 0.008563995, 0
649, 2981654753, 0.033691555, -0.663601, -0.021221794, -0.74703014, 0.6106128, 0.075035386, 0.97284126, 0
650, 2981671420, 0.033869043, -0.663649, -0.02105727, -0.7469841, -0.9356666, 0.82102805, 1.9021912, 0
651, 2981688087, 0.034069806, -0.6634917, -0.019894727, -0.74714655, -0.7464226, 1.7429823, -0.8999729, 0
652, 2981704754, 0.03398712, -0.66348124, -0.017726801, -0.7472144, -0.69436383, -0.81459516, -0.31567574, 0
653, 2981721421, 0.03367491, -0.6635332, -0.01633986, -0.7472138, 0.51908344, -1.3601879, -0.8419981, 0
654, 2981738088, 0.033399284, -0.66343176, -0.01628711, -0.7473174, -0.466321, 0.3865177, -0.28086567, 0
655, 2981754755, 0.03311239, -0.66357744, -0.016115054, -0.74720454, -0.6159724, 1.7392648, 0.2852888, 0
656, 2981771422, 0.032804266, -0.6636965, -0.015234165, -0.74713093, 0.5431188, 0.18467724, -0.99627304, 0
657, 2981788089, 0.03246382, -0.66374487, -0.014400855, -0.7471195, 1.3473432, -1.7247387, 0.36698627, 0
658, 2981804756, 0.03229624, -0.6637436, -0.014245756, -0.7471307, -0.29906017, -0.48668873, 0.50105, 0
659, 2981821423, 0.032271847, -0.66379994, -0.014081053, -0.7470847, -1.3415303, 1.1965618, 0.7041025, 0
660, 2981838090, 0.032166258, -0.6638401, -0.013555355, -0.7470634, -0.9769064, -0.009074849, -0.35312462, 0
661, 2981854757, 0.031857446, -0.66390723, -0.01333876, -0.7470209, 0.08356978, -1.9055982, 0.023430824, 0
662, 2981871424, 0.031554326, -0.6638292, -0.013856314, -0.7470936, 0.72334313, -0.7811208, 0.32596397, 0
663, 2981888091, 0.031464517, -0.66371286, -0.014458314, -0.7471896, 0.14617811, 0.23567027, 1.8259258, 0
664, 2981904758, 0.03148274, -0.6636257, -0.014588587, -0.7472635, -0.14685084, -0.07390579, 0.6652365, 0
665, 2981921425, 0.03156826, -0.6635711, -0.014692992, -0.74730635, 0.40716228, -1.5817568, -0.9071274, 0
666, 2981938092, 0.031665012, -0.6635671, -0.015256166, -0.7472947, 0.26387683, -1.6088096, -1.1230059, 0
667, 2981954759, 0.03180507, -0.6634631, -0.016063534, -0.747364, -0.37364992, 0.048419055, -0.48774624, 0
668, 2981971426, 0.03202425, -0.66329676, -0.01659631, -0.74749076, -0.29568034, 0.20361337, -0.22130394, 0
669, 2981988093, 0.032287404, -0.6631273, -0.01696746, -0.7476214, 0.40460402, -0.52824724, 0.30390453, 0
670, 2982004760, 0.032631367, -0.66298735, -0.017690241, -0.74771374, -0.33216736, -0.7422033, 0.44221497, 0
671, 2982021427, 0.03296551, -0.66298944, -0.018705808, -0.7476727, -0.23148353, -0.32451388, -0.35325813, 0
672, 2982038094, 0.033148646, -0.66303504, -0.01966238, -0.74759954, -0.24602778, -0.08224841, 0.1988554, 0
673, 2982054761, 0.03309323, -0.66310984, -0.020624824, -0.74750954, -0.48219082, -0.6092743, -0.70729256, 0
674, 2982071428, 0.032758012, -0.66324675, -0.021886803, -0.74736714, -0.20868966, -1.0204006, -0.50634956, 0
675, 2982088095, 0.032314003, -0.663295, -0.023257092, -0.7473022, -0.6028331, 0.46217158, 0.5631399, 0
676, 2982104762, 0.0320303, -0.6633357, -0.024467707, -0.7472397, -0.8890759, 1.1765462, -0.051239014, 0
677, 2982121429, 0.031778857, -0.66330594, -0.02545397, -0.74724376, -0.647174, 0.8862704, 0.34049225, 0
678, 2982138096, 0.031374887, -0.66327643, -0.026351519, -0.7472559, -0.60462445, 0.42349994, -0.2628584, 0
679, 2982154763, 0.030746132, -0.66335744, -0.027283996, -0.74717677, -0.6006677, 0.25550437, 0.15319252, 0
680, 2982171430, 0.02984953, -0.66349274, -0.028466575, -0.7470488, -0.76394457, -1.3024857, -0.9657297, 0
681, 2982188097, 0.028668106, -0.6636453, -0.0299085, -0.7469032, -0.79954237, -1.373545, 0.3233137, 0
682, 2982204764, 0.027431637, -0.66373783, -0.030939728, -0.74682546, -1.4598855, 1.2663536, 0.8468895, 0
683, 2982221431, 0.026448205, -0.6637461, -0.031400293, -0.7468343, -2.047751, 1.8000554, 0.7037468, 0
684, 2982238098, 0.02562116, -0.6635996, -0.031618603, -0.74698406, -1.6306027, 0.72060907, -0.63014984, 0
685, 2982254765, 0.024917841, -0.663403, -0.03157237, -0.7471845, -1.9299941, 0.02201435, -0.004626274, 0
686, 2982271432, 0.024264142, -0.6634078, -0.03136216, -0.7472105, -1.8344885, -1.974658, -0.49027348, 0
687, 2982288099, 0.023304552, -0.6634559, -0.031442016, -0.747195, -0.8246267, -2.3636026, -1.3545256, 0
688, 2982304766, 0.022175625, -0.6633726, -0.03163051, -0.7472954, -1.4038635, -0.10730823, -0.17813396, 0
689, 2982321433, 0.021240532, -0.6632139, -0.03113573, -0.74748415, -2.2620642, 1.4419917, 0.98958206, 0
690, 2982338100, 0.020641297, -0.6631535, -0.029888801, -0.7476055, -2.5236096, 0.48685202, -0.3587818, 0
691, 2982354767, 0.020265952, -0.6631697, -0.028673038, -0.74764895, -1.1863366, -0.4047857, -0.61204433, 0
692, 2982371434, 0.019913211, -0.6630514, -0.027884446, -0.7477932, -0.924725, -0.9147331, 0.16797352, 0
693, 2982388101, 0.019549772, -0.6627632, -0.027153783, -0.748085, -0.16118103, -0.20869623, -0.28622246, 0
694, 2982404768, 0.019076228, -0.6623967, -0.02634681, -0.7484507, -1.8517689, -1.4107676, 0.43323803, 0
695, 2982421435, 0.018588841, -0.6623193, -0.025632665, -0.74855626, -3.009613, -1.259033, -1.2081146, 0
696, 2982438102, 0.018308744, -0.66232044, -0.024972372, -0.7485844, -4.100058, -1.6128598, -1.6702518, 0
697, 2982454769, 0.018266961, -0.66248673, -0.024564475, -0.74845177, -3.508984, -1.8609961, -2.119969, 0
698, 2982471436, 0.018440261, -0.6624002, -0.024208553, -0.7485357, -2.6435452, -1.6561035, 1.4221439, 0
699, 2982488103, 0.018721104, -0.662056, -0.023884296, -0.74884355, -0.8354983, -1.8667334, 1.5337191, 0
700, 2982504770, 0.018979356, -0.6613885, -0.024128318, -0.74941903, 1.6160985, -1.801138, 3.7662153, 0
701, 2982521437, 0.019108891, -0.6606204, -0.025149308, -0.75005925, 0.40300497, -1.7693771, 0.56629467, 0
702, 2982538104, 0.019081146, -0.6603282, -0.026397884, -0.7502743, 0.3633647, -0.91022676, -3.3696914, 0
703, 2982554771, 0.019013867, -0.6602497, -0.027665608, -0.75029945, -0.51680636, -0.98947227, -2.7570648, 0
704, 2982571438, 0.019034296, -0.6602534, -0.029171005, -0.75023866, 1.8094167, -0.3386996, -2.6576843, 0
705, 2982588105, 0.019217685, -0.6601162, -0.030863188, -0.75028706, 3.3237474, -0.19622426, 0.23534107, 0
706, 2982604772, 0.019559115, -0.6602338, -0.032512195, -0.7501049, 2.73774, -0.44514868, 2.028185, 0
707, 2982621439, 0.020211369, -0.66034454, -0.033623673, -0.7499413, 3.8600657, 1.8874466, -0.52830505, 0
708, 2982638106, 0.021230027, -0.66021866, -0.034083024, -0.7500032, 1.717409, 0.706602, 0.51957226, 0
709, 2982654773, 0.022650272, -0.6602999, -0.034120895, -0.74988836, -0.30369157, -0.17828377, -1.3985062, 0
710, 2982671440, 0.024427861, -0.6607495, -0.03357801, -0.7494608, -1.6498973, -1.0496327, -1.8418231, 0
711, 2982688107, 0.026233017, -0.66154265, -0.032462396, -0.7487491, -2.1207762, -1.5178142, -0.053753853, 0
712, 2982704774, 0.027862266, -0.662328, -0.031166203, -0.74805075, -0.65072143, 0.26654857, 1.187459, 0
713, 2982721441, 0.029021204, -0.66268075, -0.029945597, -0.7477441, -0.5609405, 2.3113241, 2.1957655, 0
714, 2982738108, 0.029579222, -0.66270155, -0.029008575, -0.7477406, -0.18805368, 2.7409108, 2.8414917, 0
715, 2982754775, 0.029642373, -0.6623872, -0.028468072, -0.7480375, 0.3167298, 2.2866096, 1.9709425, 0
716, 2982771442, 0.029330835, -0.6620475, -0.028319828, -0.7483561, 1.6783521, 1.1058037, 0.8325262, 0
717, 2982788109, 0.028685778, -0.66177505, -0.028531432, -0.74861395, 2.2143495, 0.950893, -0.2967558, 0
718, 2982804776, 0.027910665, -0.661522, -0.028756522, -0.7488582, 2.4591658, 1.41255, -1.3053942, 0
719, 2982821443, 0.027152508, -0.6613184, -0.0287382, -0.74906665, 2.0740287, 1.5295709, -0.35317707, 0
720, 2982838110, 0.026606202, -0.66131, -0.02856052, -0.7491005, 1.9511782, 1.5249318, 1.4976158, 0
721, 2982854777, 0.0262582, -0.66123426, -0.02814868, -0.74919516, 2.3137417, 1.045866, 0.5674181, 0
722, 2982871444, 0.026003212, -0.6609024, -0.027695596, -0.7495136, 2.913664, 0.50909007, -0.43722725, 0
723, 2982888111, 0.025817037, -0.6606235, -0.027286448, -0.749781, 1.0458703, -0.06726532, 0.780077, 0
724, 2982904778, 0.025716126, -0.6608679, -0.026750378, -0.74958825, -0.27174416, 0.3849683, -0.15805054, 0
725, 2982921445, 0.02573289, -0.66104, -0.02621366, -0.749455, 1.379329, 0.68115133, -1.0281439, 0
726, 2982938112, 0.025877714, -0.66107154, -0.025802135, -0.74943644, 1.2731857, 0.18667272, -0.4866047, 0
727, 2982954779, 0.026123375, -0.6610686, -0.025310852, -0.7494473, 1.6922139, 0.7698489, 0.62408924, 0
728, 2982971446, 0.026449278, -0.66091233, -0.024286322, -0.7496075, 0.4082643, 1.026317, 1.8088083, 0
729, 2982988113, 0.02700673, -0.66102463, -0.022956192, -0.7495306, 0.272076, 0.07098079, -0.17125988, 0
730, 2983004780, 0.027726427, -0.66108423, -0.021569587, -0.7494928, 0.8793455, -0.0147012295, 0.51531506, 0
731, 2983021447, 0.028515682, -0.6612466, -0.019923344, -0.7493656, -0.5296693, 0.15845326, 0.8186617, 0
732, 2983038114, 0.029357135, -0.66157657, -0.017928481, -0.7490923, 0.5720534, 0.64396304, 0.59483814, 0
733, 2983054781, 0.03020592, -0.6617429, -0.015924312, -0.74895674, 0.55231214, 0.16915482, 0.21157742, 0
734, 2983071448, 0.031087413, -0.66182613, -0.014299862, -0.7488801, 0.734729, 0.5801753, -1.2936401, 0
735, 2983088115, 0.031971708, -0.6617027, -0.012940861, -0.74897647, 1.1930186, 0.87597466, -0.82445145, 0
736, 2983104782, 0.03266418, -0.6616613, -0.011805147, -0.74900186, 0.4455488, -0.073217, 0.16304779, 0
737, 2983121449, 0.03317091, -0.66170126, -0.010862, -0.7489585, 0.74519634, 0.3223258, -0.074528694, 0
738, 2983138116, 0.033635497, -0.6616715, -0.010064125, -0.7489753, -0.19089197, 0.011049028, 1.0365973, 0
739, 2983154783, 0.034131616, -0.66170156, -0.009513319, -0.74893343, 0.033653956, -0.25299454, -0.28944492, 0
740, 2983171450, 0.034538984, -0.6615995, -0.009311087, -0.74900764, 0.8188438, -0.89885604, -0.6362257, 0
741, 2983188117, 0.03472118, -0.66169065, -0.009363651, -0.74891794, -0.38634142, -1.0119016, 0.6432247, 0
742, 2983204784, 0.034871235, -0.66186434, -0.009556837, -0.74875504, -0.1410189, -0.67301476, -0.46605682, 0
743, 2983221451, 0.035156637, -0.66194, -0.010095499, -0.7486677, 0.4079559, -0.8985503, -0.2881689, 0
744, 2983238118, 0.035627365, -0.66189694, -0.0108066425, -0.74867356, 0.40655756, -0.3327157, 0.55271244, 0
745, 2983254785, 0.036187857, -0.6617438, -0.011366256, -0.7487738, -0.051778592, -0.10461569, 0.5811701, 0
746, 2983271452, 0.03671062, -0.6615906, -0.011746623, -0.7488778, -0.81808484, -0.7568015, 0.2439413, 0
747, 2983288119, 0.037131324, -0.6616344, -0.012363724, -0.74880856, -0.27657208, -1.5129414, -0.65559864, 0
748, 2983304786, 0.03736706, -0.6616471, -0.01342272, -0.74876726, -0.066918, -0.6943126, -0.4740858, 0
749, 2983321453, 0.03751333, -0.6616756, -0.014622144, -0.74871236, -0.66435057, -0.19657049, 0.30760288, 0
750, 2983338120, 0.037620038, -0.6616971, -0.015766442, -0.7486647, -0.20897397, 0.32210898, -0.32705975, 0
751, 2983354787, 0.037755817, -0.6616951, -0.017076597, -0.74863094, -0.3621662, -1.0556779, 0.8850584, 0
752, 2983371454, 0.037793145, -0.6617487, -0.018712126, -0.74854267, -0.47524866, -0.79428446, 0.18491745, 0
753, 2983388121, 0.037736714, -0.66176, -0.020503514, -0.7484886, -0.27017298, -0.39051056, 0.31823444, 0
754, 2983404788, 0.037512556, -0.66162294, -0.022231579, -0.74857175, -0.44347045, -0.45211875, 0.57699203, 0
755, 2983421455, 0.03709653, -0.6613382, -0.023964226, -0.74879044, 0.70820016, -0.054451667, -0.803936, 0
756, 2983438122, 0.03659317, -0.6610522, -0.025737233, -0.7490089, -0.7271603, -0.14567468, 0.4041338, 0
757, 2983454789, 0.036040246, -0.66113394, -0.02748134, -0.7489016, -1.0659035, 0.19660893, -0.33116817, 0
758, 2983471456, 0.035329983, -0.66124815, -0.029194772, -0.7487697, -0.8170999, 0.4627624, -1.2808161, 0
759, 2983488123, 0.034549773, -0.66138387, -0.030771695, -0.7486232, -0.9154414, 0.5062146, 0.6702528, 0
760, 2983504790, 0.033723578, -0.66158354, -0.032012157, -0.74843234, -0.81852204, 0.6289971, 0.32553196, 0
761, 2983521457, 0.032758743, -0.6615006, -0.033109136, -0.74850065, -0.13547061, 0.6095113, -2.5173168, 0
762, 2983538124, 0.031806648, -0.66145194, -0.03418663, -0.74853647, -0.3934628, 0.49255127, 3.647318, 0
763, 2983554791, 0.030969784, -0.6615379, -0.034766488, -0.748469, -2.1458535, 1.0284433, -2.6664429, 0
764, 2983571458, 0.029937312, -0.6613504, -0.035169736, -0.7486578, 0.7555389, -0.27664545, 0.41308308, 0
765, 2983588125, 0.028918773, -0.66109097, -0.03536365, -0.7489178, -1.132774, 0.3565215, 0.18781376, 0
766, 2983604792, 0.028004453, -0.6610647, -0.03504815, -0.7489906, -1.1680282, 0.88654304, -0.04650879, 0
767, 2983621459, 0.027063116, -0.661009, -0.034465916, -0.7491013, -1.6050624, 0.60027003, 0.21510792, 0
768, 2983638126, 0.02616316, -0.6611006, -0.03375674, -0.7490846, -0.9449198, 0.54378, -0.36251163, 0
769, 2983654793, 0.0252714, -0.6610797, -0.032899186, -0.7491718, -0.7033156, 0.5633599, 0.3062582, 0
770, 2983671460, 0.02444984, -0.6610956, -0.031791277, -0.74923295, -0.8320615, 0.21788467, -0.20900631, 0
771, 2983688127, 0.023697361, -0.66108453, -0.030692637, -0.7493129, -0.13288912, -0.061638616, 0.37475395, 0
772, 2983704794, 0.023080453, -0.6609446, -0.029560842, -0.74950075, -0.41615486, 0.14032948, 0.5163622, 0
773, 2983721461, 0.022596061, -0.6608955, -0.028134301, -0.7496139, -0.762074, 0.12303538, 0.86238384, 0
774, 2983738128, 0.022206783, -0.66093427, -0.02662088, -0.74964654, -1.3140684, -0.26265174, -1.0371609, 0
775, 2983754795, 0.021752253, -0.66093093, -0.025310762, -0.7497081, -1.060408, -0.718589, -0.39012814, 0
776, 2983771462, 0.021311715, -0.66107345, -0.02429264, -0.74962884, -1.5657254, -0.6610036, 0.46419716, 0
777, 2983788129, 0.021007732, -0.66133165, -0.023342788, -0.7494398, -2.1508424, -0.3583952, 0.043027878, 0
778, 2983804796, 0.020814598, -0.66140646, -0.022528596, -0.7494041, 0.22400601, -1.4605917, -0.95403767, 0
779, 2983821463, 0.020746753, -0.6612026, -0.022338517, -0.74959165, 0.44341335, -2.101104, 0.8936796, 0
780, 2983838130, 0.020716399, -0.66084814, -0.022439353, -0.7499019, -1.1403909, -0.92166966, 0.25184727, 0
781, 2983854797, 0.020684063, -0.6607576, -0.022499084, -0.7499809, -3.1973302, -1.5141661, -2.5387654, 0
782, 2983871464, 0.020538688, -0.6607847, -0.023036577, -0.7499446, -2.0802865, -2.8659914, 1.4629583, 0
783, 2983888131, 0.020431057, -0.6606817, -0.02420751, -0.7500015, -3.2966068, -1.789251, -2.347784, 0
784, 2983904798, 0.020463943, -0.6611579, -0.025560357, -0.7495359, -2.218737, -1.6993155, -2.1558008, 0
785, 2983921465, 0.020375475, -0.6614677, -0.027250357, -0.7492054, -0.39274827, -2.4066544, 0.4912796, 0
786, 2983938132, 0.020249441, -0.66150033, -0.02892299, -0.7491174, 0.22202796, -0.92145926, 2.4645681, 0
787, 2983954799, 0.020307526, -0.6611544, -0.030268371, -0.7493679, 0.2340284, -0.039930925, 4.4261847, 0
788, 2983971466, 0.020624906, -0.6607123, -0.03135462, -0.74970436, -0.3040518, -0.58490574, -0.17362309, 0
789, 2983988133, 0.020966083, -0.6603873, -0.03222519, -0.7499442, 0.27210993, -0.7676112, -4.0928683, 0
790, 2984004800, 0.021031827, -0.6602273, -0.033070505, -0.75004655, -2.2100585, -1.8203751, -0.17449474, 0
791, 2984021467, 0.021001428, -0.6603882, -0.033850163, -0.74987084, -2.3640716, 0.38019085, -2.617478, 0
792, 2984038134, 0.021102965, -0.66044986, -0.034125842, -0.7498013, -0.61784947, 0.9920647, -0.044662476, 0
793, 2984054801, 0.021384522, -0.6605527, -0.03415884, -0.74970126, -1.5085313, -0.68860763, 4.913211, 0
794, 2984071468, 0.021716952, -0.66067815, -0.03413759, -0.74958205, 2.1874707, 0.90304714, -2.2811766, 0
795, 2984088135, 0.022009045, -0.6604873, -0.034142517, -0.74974144, 1.6917578, 0.51327336, -1.1630297, 0
796, 2984104802, 0.02209793, -0.6604139, -0.0343154, -0.7497956, 0.10273759, 0.9419138, -1.2242651, 0
797, 2984121469, 0.022162661, -0.66063374, -0.034171604, -0.7496066, 0.06598105, 1.7962893, -0.781003, 0
798, 2984138136, 0.022333503, -0.6610185, -0.033777334, -0.7492802, 0.29664156, 0.6362004, -0.078876495, 0
799, 2984154803, 0.02272506, -0.6614156, -0.033314362, -0.74893856, 2.426013, 0.05236808, -0.32787132, 0
800, 2984171470, 0.022970691, -0.66158944, -0.03284481, -0.7487983, 1.0032629, -1.3657042, 1.4642258, 0
801, 2984188137, 0.023148358, -0.66189486, -0.032374002, -0.7485434, 0.80262375, 0.1618735, -0.6109295, 0
802, 2984204804, 0.02339527, -0.66210973, -0.03141138, -0.7483866, -1.0339607, 0.94862634, 0.98962116, 0
803, 2984221471, 0.023820475, -0.6625835, -0.029889375, -0.7480162, -2.778891, 0.61235565, -0.007091522, 0
804, 2984238138, 0.024441063, -0.66315013, -0.028279372, -0.7475565, -0.7204331, 1.2186742, -1.4212732, 0
805, 2984254805, 0.025104478, -0.66327167, -0.026506588, -0.7474917, 0.030533211, 1.1338922, 1.6580744, 0
806, 2984271472, 0.02565585, -0.66324854, -0.024776593, -0.7475528, 0.52176416, 0.9800825, 2.4218178, 0
807, 2984288139, 0.025970042, -0.6631018, -0.023544408, -0.74771184, 1.995538, 0.31279588, 1.4719534, 0
808, 2984304806, 0.025828034, -0.6629014, -0.022873469, -0.7479152, 2.6032665, 0.5719693, 0.4592476, 0
809, 2984321473, 0.025485903, -0.6626812, -0.022296108, -0.7481395, 2.2329853, 1.346533, 0.3598833, 0
810, 2984338140, 0.025173917, -0.66249585, -0.021702103, -0.7483317, 2.9167085, 0.76557827, -0.32440376, 0
811, 2984354807, 0.024866343, -0.66229486, -0.021569826, -0.7485238, 3.8961174, 0.24920085, 0.1534462, 0
812, 2984371474, 0.024553418, -0.6620892, -0.021919131, -0.7487059, 2.6812541, 1.0814404, 1.0744448, 0
813, 2984388141, 0.024295643, -0.66205734, -0.022026353, -0.74873936, 1.7709501, 2.0326636, 1.1933308, 0
814, 2984404808, 0.024200976, -0.6621463, -0.021750584, -0.7486718, 1.5702325, 1.1550436, 0.69909, 0
815, 2984421475, 0.024186745, -0.66252387, -0.021583557, -0.748343, 0.955363, 0.3243723, 0.61984825, 0
816, 2984438142, 0.024174854, -0.6629712, -0.021525592, -0.7479486, 1.353531, 0.74224734, -1.8393183, 0
817, 2984454809, 0.024072602, -0.6630956, -0.021156147, -0.7478522, 2.3798728, 1.7166537, -1.4547625, 0
818, 2984471476, 0.023948386, -0.66296655, -0.02025114, -0.7479957, 2.392169, 1.7841663, 0.949913, 0
819, 2984488143, 0.023847252, -0.6627839, -0.01935897, -0.7481843, 1.333031, 1.0340399, 0.65993786, 0
820, 2984504810, 0.02382797, -0.6624888, -0.018669553, -0.7484637, 2.0262535, 1.3275518, 1.0062275, 0
821, 2984521477, 0.023870409, -0.6624151, -0.017620511, -0.74855304, -0.06322511, 0.7988415, 0.23041344, 0
822, 2984538144, 0.023942128, -0.66248846, -0.015967406, -0.7485231, 0.61466455, 1.3407185, -0.17817879, 0
823, 2984554811, 0.024090752, -0.6624463, -0.014312021, -0.7485889, 0.55239606, 0.30845925, -0.8542795, 0
824, 2984571478, 0.024307415, -0.6625303, -0.012947306, -0.74853253, 0.33117965, 0.51174456, 0.49911022, 0
825, 2984588145, 0.024569899, -0.6626632, -0.011442296, -0.7484309, -0.6438216, 0.2600021, 0.731266, 0
826, 2984604812, 0.024816364, -0.6628029, -0.009807199, -0.7483222, 0.1672404, -0.3997333, 0.5569868, 0
827, 2984621479, 0.02506192, -0.66285473, -0.008508913, -0.7482841, 0.63202095, -1.0998532, -1.3319607, 0
828, 2984638146, 0.0252375, -0.6627729, -0.007890515, -0.7483574, 0.67332804, -0.9401127, 0.096227646, 0
829, 2984654813, 0.025441289, -0.66264457, -0.007417619, -0.7484691, -0.5557246, 0.43605456, 0.250453, 0
830, 2984671480, 0.025736704, -0.66261953, -0.0065169707, -0.74848944, -0.8287201, 0.07966103, 0.13198757, 0
831, 2984688147, 0.026025444, -0.6626476, -0.0057943687, -0.7484604, -0.52492064, -1.2094936, 0.328537, 0
832, 2984704814, 0.026418611, -0.6627644, -0.00589896, -0.74834245, -0.37713873, -1.5448428, -0.25118923, 0
833, 2984721481, 0.026740044, -0.6627946, -0.006446801, -0.74829984, 0.2634822, -0.4193545, -0.024614334, 0
834, 2984738148, 0.027004883, -0.66250896, -0.0069944933, -0.7485383, 0.6666389, -0.16901983, 0.9949722, 0
835, 2984754815, 0.027194634, -0.6620407, -0.007490039, -0.7489407, 0.6067936, -0.17020518, 1.4157028, 0
836, 2984771482, 0.027440146, -0.6615678, -0.008229442, -0.7493418, -0.15671757, -1.0942656, 0.3232813, 0
837, 2984788149, 0.027640432, -0.6613194, -0.009364404, -0.74954057, -0.7927971, -1.6329488, -1.1245728, 0
838, 2984804816, 0.027644455, -0.66131735, -0.010399826, -0.74952847, -1.3406208, -1.0250856, -1.0171127, 0
839, 2984821483, 0.027583882, -0.66155416, -0.011143632, -0.749311, -1.8354882, -0.5266966, -1.088933, 0
840, 2984838150, 0.027597621, -0.66181844, -0.011756092, -0.7490676, -1.279233, 0.27994204, 0.053318024, 0
841, 2984854817, 0.027818352, -0.66205037, -0.0125107765, -0.74884236, -1.2450367, -0.053987097, -0.09262562, 0
842, 2984871484, 0.028061286, -0.662171, -0.013284981, -0.7487134, 0.08623162, -0.32486016, -1.2550869, 0
843, 2984888151, 0.028215885, -0.66220385, -0.013808005, -0.7486689, 0.3526103, -1.0958375, -0.15893078, 0
844, 2984904818, 0.028369457, -0.6621902, -0.014222272, -0.7486675, 0.21400355, -0.7856195, 0.20985126, 0
845, 2984921485, 0.028729334, -0.6621338, -0.014798433, -0.74869245, -0.33852625, -0.42912218, 0.54541206, 0
846, 2984938152, 0.029131189, -0.66219205, -0.015369169, -0.74861383, -0.42025453, -0.51549566, 0.2581501, 0
847, 2984954819, 0.029427722, -0.6622195, -0.015732981, -0.7485705, 0.017256651, 0.07601432, -0.20316696, 0
848, 2984971486, 0.029634729, -0.6621448, -0.01597169, -0.7486234, -0.5231422, -0.099595696, 0.9080086, 0
849, 2984988153, 0.029804006, -0.66237444, -0.016538426, -0.7484011, -0.29721802, -0.17133385, 0.2974062, 0
850, 2985004820, 0.029835343, -0.6625102, -0.017350666, -0.7482612, 0.42842534, 0.32931405, -0.41467857, 0
851, 2985021487, 0.029758811, -0.66254544, -0.018142574, -0.7482143, 0.47678587, 0.47984856, 1.23102, 0
852, 2985038154, 0.029569313, -0.66257966, -0.018975474, -0.7481709, 0.63507044, 0.42350733, 0.6463709, 0
853, 2985054821, 0.02910012, -0.66239905, -0.020098403, -0.74831986, 0.53807515, 0.056264076, -0.7248831, 0
854, 2985071488, 0.028320417, -0.6621663, -0.021375634, -0.7485205, 0.44495076, 0.5043953, 1.66893E-4, 0
855, 2985088155, 0.027475268, -0.66212165, -0.022432081, -0.7485603, -0.32681406, 0.95989496, 0.5128012, 0
856, 2985104822, 0.026659995, -0.6620801, -0.023396708, -0.74859715, 0.36822096, 0.23764026, -1.2799902, 0
857, 2985121489, 0.025828585, -0.66191065, -0.024518706, -0.7487403, 0.4874102, -0.09954831, -0.13452625, 0
858, 2985138156, 0.02502191, -0.66182333, -0.025428876, -0.7488143, -0.6852868, 0.9160363, 1.5565252, 0
859, 2985154823, 0.024223045, -0.6617082, -0.025882185, -0.7489269, -0.43059868, 1.0169227, -0.45173264, 0
860, 2985171490, 0.023281708, -0.6615228, -0.026278667, -0.74910665, -0.5488942, -0.12893386, -0.23488808, 0
861, 2985188157, 0.02235362, -0.66141444, -0.026953869, -0.7492066, -0.60643464, -0.5971951, -0.99864006, 0
862, 2985204824, 0.021460578, -0.66139865, -0.027468488, -0.749228, -0.6834402, 0.0798547, 0.25088024, 0
863, 2985221491, 0.020621628, -0.6615863, -0.027310237, -0.7490917, -1.4804736, 0.26450333, 0.86077785, 0
864, 2985238158, 0.019960165, -0.6617215, -0.026854977, -0.74900657, -0.57141703, 0.317722, -0.8091755, 0
865, 2985254825, 0.019388273, -0.66183007, -0.026491873, -0.7489386, -1.204795, -0.58968204, 0.7929535, 0
866, 2985271492, 0.018877715, -0.6620724, -0.026169926, -0.7487486, -1.4370385, -0.033234477, -0.70081043, 0
867, 2985288159, 0.018429369, -0.6621666, -0.025704145, -0.74869275, -0.7342235, -0.08150087, -0.54879665, 0
868, 2985304826, 0.01798898, -0.66219634, -0.024942644, -0.74870306, 0.15933873, -0.366865, 0.2609539, 0
869, 2985321493, 0.017673641, -0.6620181, -0.024252526, -0.74889076, 0.13304248, -0.15613721, 0.9545984, 0
870, 2985338160, 0.017567739, -0.66187036, -0.023657784, -0.7490428, -0.9401974, 0.13609268, 0.5394211, 0
871, 2985354827, 0.017566279, -0.6618897, -0.022867166, -0.7490503, -0.96588063, -0.6711499, -1.0147619, 0
872, 2985371494, 0.017532378, -0.66181964, -0.022004403, -0.74913883, -0.89209795, -0.73202235, -0.7596617, 0
873, 2985388161, 0.017626092, -0.6619878, -0.0212363, -0.7490103, -1.7534338, -0.9442877, -0.07880783, 0
874, 2985404828, 0.017734677, -0.6621977, -0.02063346, -0.74883896, -1.6823792, -0.85171074, 0.06217003, 0
875, 2985421495, 0.017872408, -0.66225594, -0.020077735, -0.7487994, -0.609605, -0.26976702, -0.16562271, 0
876, 2985438162, 0.018076628, -0.66217595, -0.01941406, -0.74888265, -0.19167775, 0.39050284, 0.3862524, 0
877, 2985454829, 0.01841022, -0.66196966, -0.018990539, -0.7490678, -0.31296793, -0.85956174, 0.062856674, 0
878, 2985471496, 0.01852043, -0.6620075, -0.018918097, -0.74903333, -0.78961855, -1.9432029, -0.1303978, 0
879, 2985488163, 0.01840289, -0.66204727, -0.01899945, -0.74899906, -1.2934572, -0.7022002, -1.3763132, 0
880, 2985504830, 0.018238723, -0.6622159, -0.019186899, -0.74884945, -1.5249113, -0.39770052, 0.5442209, 0
881, 2985521497, 0.018146932, -0.66233075, -0.019457825, -0.74874294, -0.66173947, 0.9124208, 0.2801733, 0
882, 2985538164, 0.01823011, -0.66218126, -0.019682206, -0.74886715, -0.4045833, 0.16894272, 0.39703846, 0
883, 2985554831, 0.018208683, -0.66205704, -0.020091169, -0.7489667, -0.5918045, -1.9816066, 1.5420771, 0
884, 2985571498, 0.018158257, -0.662079, -0.020908825, -0.7489262, -1.0138781, -2.2575765, -3.0970535, 0
885, 2985588165, 0.01798901, -0.66223973, -0.021956362, -0.7487582, -1.7497889, -2.6882133, -1.6462774, 0
886, 2985604832, 0.017883345, -0.6625989, -0.022950508, -0.7484131, -3.5125623, -1.3295219, 0.36238194, 0
887, 2985621499, 0.01807177, -0.66295326, -0.02342584, -0.7480799, -1.8855948, 1.0997086, -2.3395896, 0
888, 2985638166, 0.018476069, -0.6627958, -0.023553401, -0.7482055, -0.46610108, -0.48320684, 3.109684, 0
889, 2985654833, 0.018900067, -0.66263723, -0.024089307, -0.74831814, -0.110096164, -2.1673791, 3.8445148, 0
890, 2985671500, 0.018888146, -0.6623744, -0.025212035, -0.74851424, 1.4232497, -1.7881678, -1.2085743, 0
891, 2985688167, 0.018423274, -0.6619311, -0.026738733, -0.74886495, 0.37416756, -1.0399253, -1.9669504, 0
892, 2985704834, 0.017987758, -0.6614094, -0.028203823, -0.7492827, -0.66277224, 0.8114915, -1.0151415, 0
893, 2985721501, 0.017893463, -0.6612147, -0.029021144, -0.7494255, -1.9677311, 0.67671674, 1.8566542, 0
894, 2985738168, 0.018369958, -0.6612522, -0.029192887, -0.7493742, 1.5417727, 2.63733, -1.3634367, 0
895, 2985754835, 0.019201398, -0.66103566, -0.028663069, -0.74956477, 4.589223, 1.5347388, -0.92126846, 0
896, 2985771502, 0.01982376, -0.6607453, -0.028092347, -0.7498262, 4.344857, 0.89379334, 0.3492508, 0
897, 2985788169, 0.02016136, -0.66058123, -0.027390301, -0.7499877, 3.6910758, 2.623991, -0.6378002, 0
898, 2985804836, 0.020326927, -0.66081756, -0.026094496, -0.7498211, 0.72672975, 3.0895135, 0.66452503, 0
899, 2985821503, 0.020645514, -0.6613721, -0.024522662, -0.7493766, 1.0891346, 1.6009234, -1.6896, 0
900, 2985838170, 0.020951673, -0.66192937, -0.022619583, -0.7489356, 0.18722928, -0.2913735, 0.3565626, 0
901, 2985854837, 0.021359563, -0.66257125, -0.020352356, -0.74842155, -0.6206831, 0.20852955, 0.9698944, 0
902, 2985871504, 0.022102967, -0.6631104, -0.017835863, -0.74798656, -0.8078105, 0.6806014, 3.3262024, 0
903, 2985888171, 0.023092061, -0.6634582, -0.0152897835, -0.74770445, -0.47154975, 0.55789804, 1.8349133, 0
904, 2985904838, 0.024136767, -0.66350615, -0.013084076, -0.7476708, 1.3853879, 0.19893502, 0.92590046, 0
905, 2985921505, 0.024885908, -0.663283, -0.011450589, -0.74787104, 1.4654022, -0.5997928, -0.15200233, 0
906, 2985938172, 0.025244534, -0.6629947, -0.010524824, -0.74812824, 2.182663, -0.14679906, 0.7084055, 0
907, 2985954839, 0.025263935, -0.6627873, -0.010004982, -0.74831855, 1.7538712, 0.6804036, -0.3919611, 0
908, 2985971506, 0.025178775, -0.66271293, -0.00967893, -0.74839145, 2.3323376, 1.1264879, 0.08726311, 0
909, 2985988173, 0.025137112, -0.66265935, -0.009312458, -0.7484448, 2.6041996, 1.5114728, -0.2237854, 0
910, 2986004840, 0.025172725, -0.6626555, -0.00872384, -0.7484542, 2.667559, 1.6683544, 0.2994671, 0
911, 2986021507, 0.025415406, -0.66265595, -0.008053549, -0.7484532, 2.4470952, 1.4063792, 0.65541077, 0
912, 2986038174, 0.025648326, -0.662606, -0.007418789, -0.748496, 2.3909225, 0.8719256, 0.1892004, 0
913, 2986054841, 0.02581957, -0.66258234, -0.0069448724, -0.7485157, 2.2860901, 0.897527, -0.44684124, 0
914, 2986071508, 0.02585885, -0.6625472, -0.0064155012, -0.74855006, 1.6541291, 1.5807517, -0.98083305, 0
915, 2986088175, 0.025844917, -0.66256225, -0.005607493, -0.74854374, 1.1645106, 1.815919, 0.46532726, 0
916, 2986104842, 0.025852054, -0.6627785, -0.0044655353, -0.7483597, 0.48292953, 1.1376898, 0.48847294, 0
917, 2986121509, 0.0259604, -0.66282916, -0.003099285, -0.748318, 1.6867788, 1.3387592, 0.34985924, 0
918, 2986138176, 0.026293293, -0.66264635, -0.0015469566, -0.7484731, 1.1001614, 0.30499372, 0.25659466, 0
919, 2986154843, 0.026732042, -0.66265684, 2.758503E-4, -0.7484498, 0.43520474, -0.07423603, 1.6791706, 0
920, 2986171510, 0.027255207, -0.6627402, 0.0023271218, -0.7483536, 0.15549335, 0.0027707783, 1.0731716, 0
921, 2986188177, 0.02793637, -0.66279274, 0.004177004, -0.7482738, 0.7893258, -0.77977324, 0.12624931, 0
922, 2986204844, 0.028763503, -0.6627223, 0.00557182, -0.7482958, 1.1091534, -1.2487876, -1.265173, 0
923, 2986221511, 0.029731378, -0.66248745, 0.0066829175, -0.74845684, 1.3587217, -0.06221774, 0.13136292, 0
924, 2986238178, 0.030847907, -0.6623459, 0.007974133, -0.74852425, -0.25789535, 0.070177704, 0.8914795, 0
925, 2986254845, 0.032018915, -0.66231817, 0.0091017485, -0.74848676, 1.0124433, -0.52317154, 0.6281204, 0
926, 2986271512, 0.033294395, -0.6621781, 0.009756781, -0.74854684, 0.92588335, -1.2957257, -0.19310379, 0
927, 2986288179, 0.03453429, -0.66206586, 0.010061644, -0.748586, 1.1453577, -1.2209383, -0.4446144, 0
928, 2986304846, 0.03572789, -0.66188663, 0.010242954, -0.74868584, 0.9979114, -0.91772175, -0.32979965, 0
929, 2986321513, 0.036855713, -0.66174096, 0.010206051, -0.74876046, 0.9474685, -1.3916435, 0.15602112, 0
930, 2986338180, 0.038025215, -0.6615182, 0.00958015, -0.74890697, 1.0624653, -1.0837518, -0.3086462, 0
931, 2986354847, 0.039289996, -0.6613306, 0.008344993, -0.7490222, 0.29605618, -1.0376089, 0.43919945, 0
932, 2986371514, 0.04050231, -0.6613189, 0.0069137067, -0.74898267, 0.07010464, -0.80408996, -0.75008774, 0
933, 2986388181, 0.041585594, -0.6612883, 0.005455032, -0.74896246, 0.48434934, -1.0564512, -0.1403513, 0
934, 2986404848, 0.042565092, -0.6612147, 0.0036001205, -0.7489835, 0.47702608, -1.9843398, -0.7355461, 0
935, 2986421515, 0.043387517, -0.66121995, 0.0011372939, -0.74893945, 0.09108239, -2.0341246, -0.036143303, 0
936, 2986438182, 0.04400873, -0.6613707, -0.001586765, -0.74876934, -0.71672016, -1.3203264, -0.85401344, 0
937, 2986454849, 0.044399217, -0.66146404, -0.004162155, -0.7486538, -0.7093878, -0.6180529, -0.1357727, 0
938, 2986471516, 0.044767752, -0.6614818, -0.0066865236, -0.748598, -0.9119393, -0.7485423, 0.18790722, 0
939, 2986488183, 0.045218393, -0.6614643, -0.009401314, -0.7485571, -0.8561826, -0.04909529, 1.0554686, 0
940, 2986504850, 0.045575917, -0.6613823, -0.012013577, -0.7485704, -1.3321675, -0.008012492, 0.7371521, 0
941, 2986521517, 0.04562521, -0.6614218, -0.014341168, -0.7484917, -0.99990624, -0.6033958, -0.4334116, 0
942, 2986538184, 0.045308262, -0.6613652, -0.016765632, -0.74851054, 0.5970871, -0.54533964, -0.78507614, 0
943, 2986554851, 0.044784382, -0.6612367, -0.019294806, -0.74859464, -0.57554716, -0.010220242, 0.6258116, 0
944, 2986571518, 0.044348285, -0.66126853, -0.02140978, -0.74853504, -0.38464963, 1.0727742, 0.5589342, 0
945, 2986588185, 0.043937415, -0.66117096, -0.02290719, -0.7486009, -0.68262196, 0.9441156, 0.60123444, 0
946, 2986604852, 0.043530315, -0.6611476, -0.024158403, -0.748606, -1.1335515, -0.20162891, 0.6944237, 0
947, 2986621519, 0.043025404, -0.66114914, -0.025574341, -0.748587, -0.3166575, -0.42025584, -1.127986, 0
948, 2986638186, 0.042321995, -0.6610517, -0.026835658, -0.7486691, -0.29450828, 0.25539932, 0.049565315, 0
949, 2986654853, 0.04166442, -0.66098106, -0.027578063, -0.7487412, -0.44735134, 1.0085696, 0.556304, 0
950, 2986671520, 0.041156307, -0.6609702, -0.027970113, -0.7487644, -0.27641046, 0.14512886, -0.89847565, 0
951, 2986688187, 0.040725127, -0.6607852, -0.028451815, -0.7489331, 0.17326558, -0.61212564, -0.8958168, 0
952, 2986704854, 0.040366292, -0.66063553, -0.02888722, -0.7490678, -0.56005216, 0.10224969, 0.89087963, 0
953, 2986721521, 0.040067315, -0.6606894, -0.028929338, -0.7490349, -0.9438684, 0.39697042, -0.05347252, 0
954, 2986738188, 0.03981866, -0.660786, -0.02876199, -0.7489693, -0.32124528, -0.4829687, -0.11808491, 0
955, 2986754855, 0.039615527, -0.6608296, -0.028919064, -0.74893546, 0.58183074, -1.2522322, -0.8569422, 0
956, 2986771522, 0.039536655, -0.6606312, -0.029457316, -0.7490939, 1.0256739, -0.2705033, 0.22623158, 0
957, 2986788189, 0.039632127, -0.6605339, -0.029696733, -0.74916506, -0.13543686, 0.43184155, 0.3336792, 0
958, 2986804856, 0.039682224, -0.6604055, -0.029526778, -0.74928236, 0.35732433, 0.25802302, 0.2263422, 0
959, 2986821523, 0.03971207, -0.66028225, -0.029815651, -0.7493779, -0.11776332, -1.0093288, 0.76255417, 0
960, 2986838190, 0.039628044, -0.66038775, -0.030722298, -0.74925256, -0.5742497, -0.6739595, -0.4140396, 0
961, 2986854857, 0.03936234, -0.6604805, -0.031621315, -0.74914753, -0.34920955, -0.31360242, -0.26257896, 0
962, 2986871524, 0.038925454, -0.6605303, -0.032445863, -0.74909115, -0.5209979, -0.26166037, -0.13280582, 0
963, 2986888191, 0.038436905, -0.66037285, -0.033528253, -0.74920756, 0.17285195, 0.07192021, -0.061427116, 0
964, 2986904858, 0.037870288, -0.65986234, -0.03491638, -0.74962264, -0.009897238, 0.5830517, -0.19310474, 0
965, 2986921525, 0.03724481, -0.65944993, -0.036280334, -0.74995196, -0.63554317, 0.64072543, -0.18663788, 0
966, 2986938192, 0.036303714, -0.6592117, -0.03744459, -0.7501506, -0.42080894, 0.15275747, -0.6056919, 0
967, 2986954859, 0.035111293, -0.65910923, -0.038660765, -0.7502356, -2.6567347, -0.26707798, 3.3958921, 0
968, 2986971526, 0.033701703, -0.6596218, -0.03998214, -0.74978036, -2.360302, 0.53541785, -2.2154531, 0
969, 2986988193, 0.03195253, -0.6601054, -0.041312143, -0.74935913, -1.5241336, 0.4651395, 0.47291565, 0
970, 2987004860, 0.029941514, -0.66037625, -0.04245756, -0.74913955, -0.7848735, 0.97560966, -2.273601, 0
971, 2987021527, 0.027984604, -0.66034806, -0.04305712, -0.74920577, 1.3039044, 2.540654, -0.057579994, 0
972, 2987038194, 0.026191235, -0.6600214, -0.042668425, -0.74958044, -0.13267374, 2.4075327, 2.8556795, 0
973, 2987054861, 0.02450502, -0.65981346, -0.041723013, -0.7498738, -1.2658054, 0.7274648, 1.4919882, 0
974, 2987071528, 0.022965103, -0.6598999, -0.04072289, -0.7499014, -2.0631688, 0.41617197, -1.1474562, 0
975, 2987088195, 0.021676168, -0.6604027, -0.039483577, -0.7495635, -2.4569626, -0.21908247, 0.2842636, 0
976, 2987104862, 0.020433486, -0.6609784, -0.037862346, -0.7491745, -1.6235174, -0.21109469, -1.257597, 0
977, 2987121529, 0.0191032, -0.66139144, -0.035755992, -0.7489486, -0.9240826, 1.5821886, 0.6538067, 0
978, 2987138196, 0.01788935, -0.66159624, -0.0332198, -0.74891436, -0.8118881, 2.0707498, 0.38447857, 0
979, 2987154863, 0.016922623, -0.6614748, -0.030678421, -0.74915254, -0.41236794, 1.3635924, 0.4711027, 0
980, 2987171530, 0.016376242, -0.6613991, -0.02817522, -0.74932975, -1.2338947, -0.2448552, 0.001581192, 0
981, 2987188197, 0.01593259, -0.66165096, -0.025784865, -0.749203, -2.109957, -2.4812248, -1.2859583, 0
982, 2987204864, 0.015241906, -0.6620848, -0.023571149, -0.748907, -1.9130025, -1.0490904, -4.0167875, 0
983, 2987221531, 0.014732912, -0.6625501, -0.021423921, -0.74857, -3.7463393, -0.7528151, 2.3409395, 0
984, 2987238198, 0.014441937, -0.6629644, -0.019125096, -0.7482711, -2.1145365, 0.20220417, -0.91398144, 0
985, 2987254865, 0.01454398, -0.66293544, -0.016894467, -0.7483485, 0.5189735, -1.4042155, 0.48799992, 0
986, 2987271532, 0.014871806, -0.6627123, -0.015462041, -0.7485707, -0.9602318, -4.0728803, 1.9036407, 0
987, 2987288199, 0.015387908, -0.66283655, -0.014599167, -0.74846756, -2.8671281, -3.0581808, -2.5879693, 0
988, 2987304866, 0.016034886, -0.66347355, -0.0136365965, -0.74790746, -5.9275556, -2.6691062, -3.4112258, 0
989, 2987321533, 0.016991466, -0.66396654, -0.013026692, -0.7474597, -3.0167243, -2.7390914, -0.55494213, 0
990, 2987338200, 0.018122613, -0.6643425, -0.013194844, -0.7470959, -2.1247733, -3.2243922, 1.7078733, 0
991, 2987354867, 0.019330457, -0.6644838, -0.014172122, -0.7469221, 0.88097167, -1.5102851, 2.267313, 0
992, 2987371534, 0.020217746, -0.663983, -0.015773885, -0.7473117, 2.6144881, -2.571916, 6.4826717, 0
993, 2987388201, 0.020601407, -0.66329056, -0.017752334, -0.74787176, 2.9736252, -0.9231584, -0.39727116, 0
994, 2987404868, 0.020731166, -0.66282755, -0.019753002, -0.7482282, 1.8624259, 1.0841259, -4.9791374, 0
995, 2987421535, 0.02095595, -0.6627993, -0.021559395, -0.74819726, 1.4392011, 1.6086252, -3.2527266, 0
996, 2987438202, 0.021589816, -0.6632516, -0.02257821, -0.74774814, 4.3694496, 4.690989, -3.0467095, 0
997, 2987454869, 0.022519812, -0.6637142, -0.022635765, -0.74730843, 5.231918, 2.5018725, 3.635292, 0
998, 2987471536, 0.023146242, -0.6640758, -0.02240707, -0.7469748, 7.4162107, 1.8413429, 2.6707401, 0
999, 2987488203, 0.023425356, -0.6638494, -0.021962583, -0.74718046, 6.4348183, 1.8427103, 2.239853, 0
1000, 2987504870, 0.023542374, -0.66355515, -0.02139403, -0.74745464, 2.45109, 1.9068139, 0.7016287, 0
1001, 2987521537, 0.023875356, -0.6637016, -0.020759247, -0.747332, -0.40792325, 2.658407, -1.9370236, 0
1002, 2987538204, 0.02437219, -0.6639829, -0.019699, -0.74709475, -1.0680704, 1.6549404, -0.9069538, 0
1003, 2987554871, 0.024940312, -0.66429394, -0.018413879, -0.7468324, -0.2473588, 1.2626799, 1.6313047, 0
1004, 2987571538, 0.025546566, -0.66442585, -0.017318785, -0.7467206, 0.3104944, 0.2871689, 3.3679943, 0
1005, 2987588205, 0.025915489, -0.6644847, -0.016447209, -0.7466752, 1.2804034, -0.7051517, 0.96442795, 0
1006, 2987604872, 0.025946245, -0.66430885, -0.015866414, -0.74684316, 2.046284, -0.5615104, 0.35635853, 0
1007, 2987621539, 0.02589053, -0.6639668, -0.015323721, -0.74716055, 1.0804355, 0.10712719, -0.072473526, 0
1008, 2987638206, 0.0259393, -0.66346514, -0.014415145, -0.74762243, 1.2289883, 1.3285716, -0.13866997, 0
1009, 2987654873, 0.026307657, -0.66303843, -0.013272159, -0.7480094, 0.14905763, 1.1731243, 0.31487274, 0
1010, 2987671540, 0.026884869, -0.6628634, -0.012033485, -0.7481646, 1.8769459, 1.1508353, -0.79738045, 0
1011, 2987688207, 0.027353972, -0.66246593, -0.01075948, -0.7485192, 2.1768055, 1.5106429, 1.1303911, 0
1012, 2987704874, 0.02775167, -0.66258025, -0.009553447, -0.7484196, 1.6780084, 1.3584563, 2.1546078, 0
1013, 2987721541, 0.027960777, -0.6627804, -0.00847315, -0.74824744, 1.5991542, 1.7888701, -0.21359444, 0
1014, 2987738208, 0.027960777, -0.6628268, -0.0076270998, -0.7482156, 2.5757492, 0.883487, -1.4577589, 0
1015, 2987754875, 0.027921915, -0.6625796, -0.006941125, -0.74844253, 2.4384108, 1.26829, -2.9118962, 0
1016, 2987771542, 0.02798669, -0.66230303, -0.005940117, -0.7486935, 0.67182255, 0.680747, 0.9209204, 0
1017, 2987788209, 0.028198913, -0.6623266, -0.004457198, -0.7486751, -0.39409235, 0.07205007, -0.46006393, 0
1018, 2987804876, 0.028635353, -0.6623686, -0.002921708, -0.74862885, 0.12792158, -0.2507699, 1.2469654, 0
1019, 2987821543, 0.029244035, -0.6624256, -0.0016027391, -0.748559, -0.50802416, -1.1363871, 0.108231544, 0
1020, 2987838210, 0.029840827, -0.66255677, -3.4814328E-4, -0.7484208, 0.10240302, -0.5009927, -0.24860287, 0
1021, 2987854877, 0.030433074, -0.6626156, 9.230226E-4, -0.7483444, 0.05905214, -0.35061786, -0.4242134, 0
1022, 2987871544, 0.031031266, -0.6626269, 0.0020755827, -0.74830747, -0.13471529, -0.20422378, 1.125742, 0
1023, 2987888211, 0.03178595, -0.66256386, 0.0029091388, -0.74832886, -0.13359632, -0.3459108, 0.6702509, 0
1024, 2987904878, 0.032651946, -0.6624622, 0.0035317913, -0.748379, -0.07874796, -0.5233035, 0.55942154, 0
1025, 2987921545, 0.03344786, -0.66244704, 0.0038885772, -0.74835545, 0.10269268, -1.4426047, -0.8079462, 0
1026, 2987938212, 0.03390509, -0.6623797, 0.0038948953, -0.7483944, 0.3982951, -1.9009893, -0.38648415, 0
1027, 2987954879, 0.034169704, -0.6624578, 0.0033925027, -0.7483158, -0.024882965, -1.5790994, -0.40241146, 0
1028, 2987971546, 0.034416735, -0.66275567, 0.0024073347, -0.74804443, -1.1634104, -0.44655263, -0.3573494, 0
1029, 2987988213, 0.034683198, -0.66304547, 0.0012156889, -0.7477782, -0.032988865, 0.2673079, -0.5676136, 0
1030, 2988004880, 0.03489475, -0.6630721, -2.0697713E-5, -0.74774575, 0.872416, 0.27673998, 0.9706383, 0
1031, 2988021547, 0.035026297, -0.66286206, -0.0012829974, -0.74792475, 1.7393416, 0.4070803, 0.24244499, 0
1032, 2988038214, 0.0350392, -0.6623807, -0.0028296784, -0.74834615, 1.6426718, -0.7384825, 0.77846813, 0
1033, 2988054881, 0.034799144, -0.66207993, -0.0046467707, -0.7486144, 0.5889294, -1.0418997, -0.2536602, 0
1034, 2988071548, 0.034342483, -0.6620138, -0.006371662, -0.7486814, 0.016756445, -0.4786749, -1.168292, 0
1035, 2988088215, 0.033829123, -0.66190886, -0.0077849105, -0.74878407, -0.2517931, 0.68827146, -0.11484814, 0
1036, 2988104882, 0.033598125, -0.6619712, -0.009091236, -0.7487247, -0.52669597, 0.42701054, 0.5494871, 0
1037, 2988121549, 0.033446446, -0.6619829, -0.010439508, -0.7487034, 0.2505314, 0.25348637, 0.29683495, 0
1038, 2988138216, 0.03321068, -0.66192544, -0.0117227435, -0.7487458, 0.046032034, -0.6089813, 0.19298267, 0
1039, 2988154883, 0.0328691, -0.66192687, -0.012898795, -0.74874026, 0.33930972, -0.86217403, -0.029446602, 0
1040, 2988171550, 0.032494977, -0.66167915, -0.013981983, -0.74895614, 0.09703168, -0.62109816, -0.06671429, 0
1041, 2988188217, 0.032259256, -0.66163844, -0.015083939, -0.7489809, -0.950793, -0.34041995, 1.3941135, 0
1042, 2988204884, 0.032248363, -0.66172415, -0.01601544, -0.7488861, -1.0045621, 0.09639946, -0.35834408, 0
1043, 2988221551, 0.032241598, -0.6616243, -0.016727097, -0.748959, 0.53128093, -0.42004275, -0.88259506, 0
1044, 2988238218, 0.03235586, -0.66147107, -0.01731459, -0.7490762, -0.010917714, -0.59792846, 0.8108711, 0
1045, 2988254885, 0.032556146, -0.66132927, -0.017748646, -0.7491826, -0.62547684, -0.0138734495, 0.27920437, 0
1046, 2988271552, 0.032703087, -0.66122216, -0.017856717, -0.7492681, -0.5131164, 0.38285863, 0.4042673, 0
1047, 2988288219, 0.032883108, -0.66112065, -0.018015102, -0.74934614, 0.25765678, -0.11127235, -0.3477764, 0
1048, 2988304886, 0.03306374, -0.6608742, -0.018324636, -0.74954796, 0.2228606, -0.070163734, 0.20480728, 0
1049, 2988321553, 0.033228815, -0.66084635, -0.018328175, -0.7495651, -0.92221063, 0.4324029, 0.49344635, 0
1050, 2988338220, 0.033310786, -0.66094697, -0.018005215, -0.74948066, -0.7317234, 0.33197308, -1.1482668, 0
1051, 2988354887, 0.03328599, -0.66115993, -0.017842256, -0.74929774, -0.21273875, -0.30011922, 0.2698269, 0
1052, 2988371554, 0.03317745, -0.66140866, -0.017912582, -0.74908125, -0.92871106, 0.038156234, -0.16823006, 0
1053, 2988388221, 0.032882765, -0.6616879, -0.018046454, -0.74884444, -0.34076625, 0.53837866, -1.2133379, 0
1054, 2988404888, 0.03245522, -0.6618482, -0.018146232, -0.74871904, -0.18159729, 0.08573353, 0.7624321, 0
1055, 2988421555, 0.031933025, -0.6619897, -0.018304907, -0.7486125, 0.16479637, -0.4009736, -0.33798313, 0
1056, 2988438222, 0.031391457, -0.6620157, -0.018760026, -0.7486012, -0.12924063, -0.096973665, 0.18191051, 0
1057, 2988454889, 0.030930996, -0.6620254, -0.019193634, -0.7486009, -0.8554226, 0.38585266, 0.56444645, 0
1058, 2988471556, 0.030544668, -0.6621317, -0.01941102, -0.7485171, -0.29944965, -0.096953996, -1.1448069, 0
1059, 2988488223, 0.03007789, -0.6621944, -0.019536003, -0.7484772, -0.32301104, -0.70783556, 1.826499, 0
1060, 2988504890, 0.029711813, -0.6624094, -0.0197324, -0.7482963, -0.37856597, 0.25997144, -0.7331295, 0
1061, 2988521557, 0.029387146, -0.66244817, -0.019800708, -0.74827313, -0.2138953, 0.14264351, 0.86992836, 0
1062, 2988538224, 0.029084504, -0.6624359, -0.019654855, -0.74829954, -0.08322366, -0.36108306, -0.82110596, 0
1063, 2988554891, 0.028866082, -0.6623932, -0.019513525, -0.7483495, 0.12295423, -0.27978307, -0.15179443, 0
1064, 2988571558, 0.028691813, -0.6623687, -0.019354403, -0.7483821, -1.1194142, -0.38952753, 0.2524662, 0
1065, 2988588225, 0.02860862, -0.6624182, -0.019171707, -0.7483462, -0.31410873, 0.07789214, 0.05553341, 0
1066, 2988604892, 0.028550461, -0.6623405, -0.01882919, -0.74842566, -0.2510684, 0.21561457, -0.2832718, 0
1067, 2988621559, 0.028537735, -0.66232103, -0.01850833, -0.7484514, -0.83301884, -0.30328628, 0.32465267, 0
1068, 2988638226, 0.028540656, -0.6622965, -0.018456995, -0.7484744, -0.39161375, -0.12616971, -0.28094673, 0
1069, 2988654893, 0.028356746, -0.6623312, -0.01849506, -0.7484496, -1.3741815, -0.14757375, 0.8014679, 0
1070, 2988671560, 0.027979627, -0.6623996, -0.01844927, -0.74840444, -1.1766167, -0.2875369, -0.57393646, 0
1071, 2988688227, 0.027418181, -0.6621581, -0.018665679, -0.7486336, -0.34808835, -0.89675933, -0.51097393, 0
1072, 2988704894, 0.02684629, -0.66198736, -0.018894047, -0.7487996, -1.8411502, -0.19340877, 1.2891836, 0
1073, 2988721561, 0.02630274, -0.6620848, -0.018808842, -0.74873495, -1.9816862, 0.87656325, -1.3267536, 0
1074, 2988738228, 0.025905952, -0.6620751, -0.018684171, -0.74876046, -0.50063014, 0.019936237, -0.5160408, 0
1075, 2988754895, 0.025620133, -0.6621789, -0.018542424, -0.7486821, -0.45701197, -1.5156121, 1.0979805, 0
1076, 2988771562, 0.025337249, -0.6622756, -0.018442161, -0.74860865, 0.5314942, -0.3689549, -1.0499544, 0
1077, 2988788229, 0.02512759, -0.66217226, -0.018078595, -0.7487159, -0.26705164, -0.46417004, 1.6610632, 0
1078, 2988804896, 0.02492556, -0.66193694, -0.01743915, -0.74894583, 0.16240846, -1.0837662, -1.2300339, 0
1079, 2988821563, 0.02506964, -0.6617201, -0.016968697, -0.7491435, -1.0156308, -0.22485225, 0.91604996, 0
1080, 2988838230, 0.02574496, -0.6618127, -0.0161134, -0.74905765, -2.3448741, -0.08841647, -1.3066111, 0
1081, 2988854897, 0.026630387, -0.66216224, -0.014837369, -0.7487441, -0.23075448, -0.68328375, -0.09496117, 0
1082, 2988871564, 0.027650073, -0.6623849, -0.013775684, -0.7485303, -1.3814683, -1.760593, 0.68233013, 0
1083, 2988888231, 0.028601572, -0.6628139, -0.012980759, -0.74812907, -0.6031053, -1.9663043, -0.22976398, 0
1084, 2988904898, 0.029442474, -0.6630213, -0.01241149, -0.74792224, -1.0294672, -1.9849699, -1.5470028, 0
1085, 2988921565, 0.030387908, -0.66316736, -0.0119617805, -0.7477624, -1.148543, -1.8909913, -1.7677879, 0
1086, 2988938232, 0.031495407, -0.663199, -0.011757687, -0.7476916, -1.694733, -1.0149876, -0.03190708, 0
1087, 2988954899, 0.032768488, -0.6633377, -0.011714853, -0.7475145, -1.4522071, 0.07168396, 0.24651814, 0
1088, 2988971566, 0.033993915, -0.66340166, -0.011853844, -0.74740094, 0.12577395, -1.1816399, 1.9741592, 0
1089, 2988988233, 0.03487332, -0.66352844, -0.012944721, -0.7472295, 0.73395455, -3.0069938, 0.01707077, 0
1090, 2989004900, 0.035226986, -0.66371644, -0.014966175, -0.7470085, 1.199822, -1.7633668, -2.8544478, 0
1091, 2989021567, 0.03529562, -0.66387975, -0.017077886, -0.7468147, -0.86130273, -0.5790468, -2.8907666, 0
1092, 2989038234, 0.035369948, -0.6640865, -0.01920174, -0.74657565, 0.108048506, -0.21994133, 1.910181, 0
1093, 2989054901, 0.03557065, -0.66400343, -0.02153553, -0.74657637, 2.4906762, 1.6172318, 4.100771, 0
1094, 2989071568, 0.03602931, -0.6636996, -0.0235397, -0.7467639, 5.0089273, 2.833744, 3.3828487, 0
1095, 2989088235, 0.036454767, -0.6630211, -0.024777263, -0.74730587, 7.5889997, 3.3238156, 2.1310396, 0
1096, 2989104902, 0.0367987, -0.66238046, -0.025161259, -0.7478441, 5.204098, 2.2765443, -0.24811459, 0
1097, 2989121569, 0.036955595, -0.66238993, -0.025051273, -0.7478317, 3.7885134, 1.933063, -3.5111804, 0
1098, 2989138236, 0.03713125, -0.66279536, -0.024469063, -0.7474829, 1.5614263, 1.6638606, -0.76144886, 0
1099, 2989154903, 0.037490427, -0.6633544, -0.023076072, -0.7470133, 0.87095195, 2.6619716, 0.5084934, 0
1100, 2989171570, 0.03821987, -0.66355205, -0.02104541, -0.74686074, 1.3540986, 1.8770154, 3.2925987, 0
1101, 2989188237, 0.039060727, -0.6636282, -0.019134514, -0.74680096, 0.060221683, -0.88745046, 2.1422281, 0
1102, 2989204904, 0.039687738, -0.66365266, -0.017935626, -0.74677575, 0.5612034, 0.46740863, -2.5411344, 0
1103, 2989221571, 0.040048987, -0.66327137, -0.017052203, -0.74711597, -1.0775212, 0.8701023, -0.09626961, 0
1104, 2989238238, 0.04014714, -0.6632769, -0.016403526, -0.74712026, -1.8025682, -0.6662446, -0.41444588, 0
1105, 2989254905, 0.04006417, -0.66324604, -0.016364366, -0.747153, 0.2921345, -0.58396286, -0.3788948, 0
1106, 2989271572, 0.03992161, -0.6631042, -0.016840883, -0.747276, 0.38953432, -1.3946896, 1.3648205, 0
1107, 2989288239, 0.03969592, -0.6631328, -0.017532878, -0.7472467, 1.1792823, -0.7600902, 0.7984104, 0
1108, 2989304906, 0.03944893, -0.6632264, -0.018121824, -0.7471626, 1.2087797, 0.06721346, 1.6169758, 0
1109, 2989321573, 0.039242074, -0.6634778, -0.018382505, -0.746944, 0.67318255, 0.66583246, -0.13040447, 0
1110, 2989338240, 0.0390992, -0.66358876, -0.0185991, -0.7468475, 1.8825338, 1.5815115, -2.3387346, 0
1111, 2989354907, 0.03903821, -0.66337043, -0.018965006, -0.7470353, 1.6371508, 1.9239074, -1.1109858, 0
1112, 2989371574, 0.039018244, -0.663178, -0.01908239, -0.7472043, 1.1364204, 2.283802, -0.10425472, 0
1113, 2989388241, 0.03892614, -0.6630361, -0.018589087, -0.74734753, 1.0441848, 1.7988867, 1.5248928, 0
1114, 2989404908, 0.038696185, -0.6630021, -0.017864242, -0.7474072, 1.2632806, 1.1678233, 1.1735001, 0
1115, 2989421575, 0.03840278, -0.66285324, -0.01721441, -0.74756956, 1.9603295, 1.8796624, 0.31388664, 0
1116, 2989438242, 0.03803408, -0.66270185, -0.016395979, -0.747741, 1.2590905, 1.5040802, 0.027142525, 0
1117, 2989454909, 0.037518352, -0.6626567, -0.015255123, -0.7478312, 0.93140286, 1.0907948, 0.07025719, 0
1118, 2989471576, 0.03690359, -0.66259307, -0.0139295235, -0.74794406, 0.55677795, 0.7624366, 0.30741692, 0
1119, 2989488243, 0.036334723, -0.6626212, -0.012676559, -0.74796927, 0.030336967, 0.7519937, 0.102591515, 0
1120, 2989504910, 0.035795182, -0.6626022, -0.011534825, -0.7480307, 0.059411112, 0.291178, -0.5357113, 0
