sep=,
DeviceTag:,Xsens_DOT_3,,,,,,,,,,,,,,,,,
FirmwareVersion:,3.0.0,,,,,,,,,,,,,,,,,
AppVersion:,2023.6.1,,,,,,,,,,,,,,,,,
SyncStatus:,Synced,,,,,,,,,,,,,,,,,
OutputRate:,60Hz,,,,,,,,,,,,,,,,,
FilterProfile:,General,,,,,,,,,,,,,,,,,
Measurement Mode:,Sensor fusion Mode - Extended (Quaternion),,,,,,,,,,,,,,,,,
StartTime:,2025-05-05 11:56:17.859 +0200,,,,,,,,,,,,,,,,,
 2025,,,,,,,,,,,,,,,,,,,

PacketCounter,SampleTimeFine,Quat_W,Quat_X,Quat_Y,Quat_Z,FreeAcc_X,FreeAcc_Y,FreeAcc_Z,Status
1, 2970854537, 0.7524352, 0.33590406, -0.37592557, 0.42391148, 0.09294339, 0.106348805, -0.022978783, 0
2, 2970871204, 0.7525759, 0.33578727, -0.37601805, 0.42367232, 0.098245345, 0.13842873, 0.021977425, 0
3, 2970887871, 0.7527466, 0.3356721, -0.37614703, 0.42334563, 0.11646098, 0.14381717, -0.02740097, 0
4, 2970904538, 0.7529323, 0.3355763, -0.37626636, 0.42298546, 0.11961564, 0.1510599, -0.04773426, 0
5, 2970921205, 0.7531108, 0.33549896, -0.37634173, 0.42266154, 0.107560694, 0.16477822, -0.068226814, 0
6, 2970937872, 0.7532252, 0.335435, -0.3763615, 0.42249066, 0.08515687, 0.15083012, -0.069701195, 0
7, 2970954539, 0.75333756, 0.33532268, -0.376421, 0.4223266, 0.073258385, 0.09848897, -0.04737568, 0
8, 2970971206, 0.75347406, 0.3351855, -0.37659088, 0.4220404, 0.12094912, 0.050376244, -0.09257507, 0
9, 2970987873, 0.7536054, 0.3350873, -0.3767047, 0.42178223, 0.18652178, 0.032952067, -0.09624672, 0
10, 2971004540, 0.75376177, 0.33497462, -0.37674877, 0.4215531, 0.17778511, 0.09127576, -0.03217697, 0
11, 2971021207, 0.7538454, 0.33491716, -0.37676936, 0.4214306, 0.14292783, 0.18725513, 0.043022156, 0
12, 2971037874, 0.75397575, 0.33484444, -0.3767972, 0.42123032, 0.14504762, 0.23210144, 0.028160095, 0
13, 2971054541, 0.75417805, 0.3347469, -0.37683636, 0.42091033, 0.1663209, 0.13943699, 0.0033826828, 0
14, 2971071208, 0.75429183, 0.33477017, -0.3768288, 0.42069477, 0.20447503, 0.05070154, -0.05922985, 0
15, 2971087875, 0.75438356, 0.33486283, -0.3767402, 0.42053592, 0.15768325, 0.02895588, -0.11927986, 0
16, 2971104542, 0.75441873, 0.33498698, -0.37659097, 0.42050764, 0.13827652, 0.063036464, -0.12759972, 0
17, 2971121209, 0.7544575, 0.3350677, -0.3764773, 0.42047557, 0.11333157, 0.094704, -0.11747646, 0
18, 2971137876, 0.75446767, 0.33513513, -0.376427, 0.42044854, 0.15154223, 0.13838135, -0.087851524, 0
19, 2971154543, 0.7544218, 0.33523053, -0.37635034, 0.4205234, 0.15906098, 0.1398648, -0.029320717, 0
20, 2971171210, 0.754452, 0.33528057, -0.37631506, 0.42046082, 0.08179993, 0.1801387, 0.06622505, 0
21, 2971187877, 0.75448, 0.33534575, -0.37623134, 0.4204334, 0.012063441, 0.1647724, 0.07682705, 0
22, 2971204544, 0.7544929, 0.335398, -0.37618792, 0.4204077, 0.017575271, 0.18561924, 0.09350777, 0
23, 2971221211, 0.7545611, 0.3355394, -0.37611815, 0.4202348, 0.0705883, 0.11554591, -0.17221642, 0
24, 2971237878, 0.75470746, 0.33571622, -0.37595713, 0.41997468, 0.044594187, 0.22321166, 0.08606529, 0
25, 2971254545, 0.7548569, 0.33579195, -0.37585005, 0.4197413, 0.030489849, 0.16353504, -0.1448698, 0
26, 2971271212, 0.7550061, 0.33590436, -0.37569284, 0.41952372, 0.008832115, 0.17233743, -0.18021297, 0
27, 2971287879, 0.7551987, 0.33596265, -0.37557238, 0.41923797, 0.050269406, 0.1393344, -0.15486908, 0
28, 2971304546, 0.75537294, 0.3359782, -0.37544683, 0.4190243, 0.04407899, 0.1481779, -0.13823509, 0
29, 2971321213, 0.7554244, 0.33606124, -0.37525472, 0.41903713, 0.038769215, 0.13933015, -0.066560745, 0
30, 2971337880, 0.7555328, 0.33608896, -0.375081, 0.4189747, 0.065166876, 0.106106855, -0.06620216, 0
31, 2971354547, 0.7556715, 0.33606386, -0.37500986, 0.41880834, 0.07622038, 0.122652955, -0.035964012, 0
32, 2971371214, 0.755817, 0.33603263, -0.37492493, 0.41864684, 0.09512488, 0.1318514, 0.046988487, 0
33, 2971387881, 0.7559206, 0.3360266, -0.37491038, 0.41847762, 0.11002917, 0.1734389, 0.058138847, 0
34, 2971404548, 0.7559508, 0.33608437, -0.37488517, 0.41839916, 0.10364139, 0.16352208, 0.033329964, 0
35, 2971421215, 0.75598085, 0.33617577, -0.37484166, 0.41831058, 0.15321143, 0.12404969, -0.03686142, 0
36, 2971437882, 0.7560079, 0.33629563, -0.37472862, 0.41826653, 0.09701043, 0.12888874, -0.063798904, 0
37, 2971454549, 0.75603586, 0.3364494, -0.374592, 0.4182145, 0.041192096, 0.125412, -0.11907482, 0
38, 2971471216, 0.7560464, 0.3366078, -0.37444833, 0.41819715, 0.03431706, 0.13307314, -0.16254807, 0
39, 2971487883, 0.75604, 0.33673555, -0.3743562, 0.4181883, 0.07915309, 0.11394691, -0.123521805, 0
41, 2971521217, 0.7558304, 0.33700117, -0.37430766, 0.41839647, 0.17560944, 0.14054853, -0.012225151, 0
43, 2971554551, 0.75562805, 0.3372257, -0.3743466, 0.41854632, 0.09721919, 0.23084396, 0.03682232, 0
46, 2971604552, 0.7553658, 0.33785546, -0.37410957, 0.41872388, 0.0666348, 0.10826275, -0.14348984, 0
47, 2971621219, 0.7552843, 0.33808863, -0.3740611, 0.4187256, 0.095778495, 0.06711021, -0.12192154, 0
49, 2971654553, 0.75507414, 0.33855164, -0.37406182, 0.41873017, 0.13992627, 0.197931, 0.026675224, 0
50, 2971671220, 0.7549213, 0.33872056, -0.37417194, 0.41877064, 0.12966388, 0.24076815, 0.112820625, 0
51, 2971687887, 0.75474274, 0.33894563, -0.374242, 0.4188476, 0.0516943, 0.25419927, 0.024306297, 0
53, 2971721221, 0.75436336, 0.33959493, -0.37438264, 0.4188795, -0.059360348, 0.18864001, -0.02675438, 0
54, 2971737888, 0.7540629, 0.33986577, -0.37444836, 0.4191422, 0.015084666, 0.11320641, -0.30640125, 0
55, 2971754555, 0.75375104, 0.34006348, -0.37448126, 0.41951317, 0.033158816, 0.1441663, -0.17916775, 0
58, 2971804556, 0.75262403, 0.3406781, -0.37473008, 0.42081368, 0.06256127, 0.22315511, 0.13634205, 0
59, 2971821223, 0.75226706, 0.34096366, -0.3747572, 0.42119655, 0.030159721, 0.17574914, 0.022693634, 0
61, 2971854557, 0.7517287, 0.3414113, -0.37476146, 0.42179066, -0.0626176, 0.20975149, -0.07760143, 0
62, 2971871224, 0.75143915, 0.3416084, -0.37481654, 0.42209804, -0.049494263, 0.21549018, -0.10430527, 0
63, 2971887891, 0.7512269, 0.3417712, -0.37493485, 0.4222391, -0.011442953, 0.26540503, -0.068870544, 0
65, 2971921225, 0.7510741, 0.34177095, -0.37520897, 0.42226732, 0.0042474167, 0.1887663, -0.046297073, 0
66, 2971937892, 0.75096375, 0.3417713, -0.37530825, 0.42237496, 0.07043854, 0.10980275, -0.071398735, 0
68, 2971971226, 0.7508132, 0.3417498, -0.37539276, 0.42258516, 0.049034942, 0.14541887, -0.027492523, 0
69, 2971987893, 0.7508403, 0.34177342, -0.37546626, 0.42245245, -0.02779093, 0.13827026, -0.086740494, 0
70, 2972004560, 0.75102335, 0.34172958, -0.37553263, 0.42210352, -0.005352912, 0.090715416, -0.022595406, 0
72, 2972037894, 0.75121784, 0.34182692, -0.3754494, 0.42175242, 0.08226037, 0.038294476, 0.06178665, 0
73, 2972054561, 0.75133073, 0.34192055, -0.37524027, 0.42166156, 0.046046574, 0.0033768336, 0.06209469, 0
74, 2972071228, 0.75142634, 0.34208822, -0.37490273, 0.4216556, 0.07972528, -0.0057114265, 0.014269829, 0
76, 2972104562, 0.7514856, 0.3427148, -0.37392485, 0.4219091, 0.06693431, -0.0153653985, 0.030015945, 0
77, 2972121229, 0.7515188, 0.34305125, -0.37322915, 0.42219245, 0.052185804, -0.040579673, 0.013051987, 0
78, 2972137896, 0.7515217, 0.34329137, -0.37244597, 0.4226836, 0.03837449, -0.041119456, -0.034262657, 0
80, 2972171230, 0.7511252, 0.34388748, -0.3707388, 0.4244012, 0.08795534, 0.030547917, -0.034323692, 0
81, 2972187897, 0.75070024, 0.34443834, -0.36979356, 0.42552936, 0.13318042, 0.0816875, -0.103414536, 0
82, 2972204564, 0.7503601, 0.34500057, -0.36880305, 0.42653227, 0.1461435, 0.15974739, -0.16924477, 0
85, 2972254565, 0.7502813, 0.34598288, -0.36570472, 0.42853832, -0.09542818, 0.38536784, 0.004928589, 0
86, 2972271232, 0.7503756, 0.3460623, -0.36498398, 0.42892313, -0.047782823, 0.32498717, -0.071243286, 0
88, 2972304566, 0.7505688, 0.346117, -0.36365438, 0.42966998, 0.14714484, 0.3010791, -0.14839172, 0
89, 2972321233, 0.750716, 0.3460944, -0.36298537, 0.4299966, 0.16795702, 0.38747132, -0.068546295, 0
90, 2972337900, 0.75099427, 0.3459804, -0.36236027, 0.43012992, 0.106409155, 0.48420238, 0.0650816, 0
92, 2972371234, 0.7518097, 0.3457175, -0.3613871, 0.42973512, 0.055517934, 0.3915214, -0.074863434, 0
93, 2972387901, 0.752249, 0.34559855, -0.3610653, 0.42933232, 0.071521685, 0.28125104, -0.19505405, 0
96, 2972437902, 0.7528522, 0.34545523, -0.36060596, 0.42877597, 0.09708686, 0.4223777, -0.09964371, 0
100, 2972504570, 0.75354505, 0.3451274, -0.36150777, 0.4270602, 0.18306784, 0.20001705, -0.082826614, 0
101, 2972521237, 0.75360477, 0.34513566, -0.36155495, 0.42690802, 0.19894597, 0.17718141, -0.113007545, 0
104, 2972571238, 0.7532885, 0.3454416, -0.36213252, 0.4267292, 0.07622753, 0.06882657, -0.14356804, 0
105, 2972587905, 0.7530748, 0.34566292, -0.36249208, 0.4266218, 0.12052601, 0.07341752, -0.061691284, 0
107, 2972621239, 0.7523649, 0.3464188, -0.36277252, 0.4270227, 0.16176258, 0.037975296, 0.090034485, 0
108, 2972637906, 0.75184673, 0.34682247, -0.3625467, 0.42779857, 0.17430903, 0.100494556, 0.03196907, 0
109, 2972654573, 0.7512582, 0.34722435, -0.36216685, 0.4288271, 0.124724925, 0.17343533, -0.03293991, 0
112, 2972704574, 0.74987257, 0.34814706, -0.36169648, 0.43089637, -0.14051232, 0.24277173, -0.13326931, 0
113, 2972721241, 0.7496173, 0.34835953, -0.3618274, 0.4310587, -0.12392312, 0.18613735, -0.06108761, 0
115, 2972754575, 0.749171, 0.34876758, -0.36192915, 0.43141913, 0.18663734, 0.25139487, 0.13104725, 0
116, 2972771242, 0.7489949, 0.34902376, -0.3616801, 0.43172657, 0.16276124, 0.27752376, 0.12472248, 0
117, 2972787909, 0.7487219, 0.3493752, -0.3614391, 0.43211746, 0.102335185, 0.3048006, -0.09161377, 0
120, 2972837910, 0.74772996, 0.3501764, -0.3613292, 0.43327665, 0.2717401, 0.33405486, 0.045679092, 0
122, 2972871244, 0.74707705, 0.35081527, -0.36070472, 0.43440533, 0.41544017, 0.22848992, 0.17967129, 0
123, 2972887911, 0.7467104, 0.3513248, -0.3600192, 0.4351917, 0.2608414, 0.17622857, -0.010284424, 0
124, 2972904578, 0.74631906, 0.3519316, -0.35926858, 0.4359923, 0.12845871, 0.14729236, -0.19289494, 0
126, 2972937912, 0.7453666, 0.35317108, -0.35793057, 0.43771663, 0.08509943, 0.15199082, -0.24979973, 0
127, 2972954579, 0.7449216, 0.35357007, -0.35740215, 0.4385832, 0.042602018, 0.14527984, -0.13520908, 0
128, 2972971246, 0.7445339, 0.35383064, -0.3569853, 0.43936986, 0.07210193, 0.10246482, -0.04064846, 0
130, 2973004580, 0.7436789, 0.35438347, -0.35630992, 0.4409176, 0.15856725, 0.009740024, -0.085876465, 0
131, 2973021247, 0.74321795, 0.3545505, -0.35592178, 0.441873, 0.1379294, -0.038475297, -0.11917496, 0
132, 2973037914, 0.7428151, 0.35466576, -0.3554417, 0.44284332, 0.109030515, -1.122035E-4, -0.07194424, 0
135, 2973087915, 0.7423604, 0.35496482, -0.353786, 0.4446883, 0.025653923, 0.17760898, 0.09019184, 0
136, 2973104582, 0.74247634, 0.35500777, -0.3532316, 0.44490117, -0.044188958, 0.124379374, -5.6648254E-4, 0
138, 2973137916, 0.74277514, 0.35487783, -0.35219017, 0.44533157, -0.07920115, 0.18192323, -0.09339905, 0
139, 2973154583, 0.7430534, 0.35457665, -0.35188356, 0.44534957, -0.0448329, 0.24243109, 0.0068969727, 0
140, 2973171250, 0.74353284, 0.35407674, -0.35175982, 0.44504446, -0.13065964, 0.27456668, 0.118021965, 0
142, 2973204584, 0.74489594, 0.35292026, -0.35217452, 0.44335297, -0.1726166, 0.12026428, -0.18941021, 0
143, 2973221251, 0.745704, 0.3523032, -0.35252485, 0.44220537, -0.16732493, 0.0038857728, -0.38613892, 0
145, 2973254585, 0.7471215, 0.35093862, -0.3531653, 0.44038296, -0.030397315, 0.28631273, -0.13584042, 0
146, 2973271252, 0.7475234, 0.35040963, -0.3533815, 0.4399486, 0.1098583, 0.17261897, -0.06576347, 0
147, 2973287919, 0.7479453, 0.34971875, -0.35387164, 0.43938679, 0.18679157, 0.3380421, 0.16732407, 0
149, 2973321253, 0.7480275, 0.34890175, -0.354424, 0.4394511, 0.02636514, 8.359385E-5, -0.18897724, 0
150, 2973337920, 0.74806, 0.348553, -0.3549321, 0.4392624, -0.36917657, 0.2038351, -0.61453915, 0
151, 2973354587, 0.7480725, 0.34852222, -0.355007, 0.439205, -0.12130316, 0.2886757, -0.40465927, 0
153, 2973387921, 0.74705625, 0.34933507, -0.3550681, 0.44023848, 0.6123292, 0.1736043, 0.38341904, 0
154, 2973404588, 0.7465383, 0.34989992, -0.35498163, 0.44073784, 0.6880889, 0.12173879, 0.43679142, 0
155, 2973421255, 0.74634033, 0.35033983, -0.35469, 0.44095832, 0.3989704, 0.18754905, 0.31437206, 0
157, 2973454589, 0.74615896, 0.3511448, -0.35412496, 0.4410792, 0.106560916, -0.05298844, -0.24706173, 0
158, 2973471256, 0.7462932, 0.3512131, -0.3540836, 0.440831, -0.44368997, 0.19947794, -0.03832245, 0
159, 2973487923, 0.74653274, 0.351167, -0.35433137, 0.4402625, -0.24892035, 0.19868536, 0.0791235, 0
162, 2973537924, 0.7470473, 0.34995806, -0.35540092, 0.43948954, 0.29560786, -0.27082938, -0.34888744, 0
163, 2973554591, 0.74720114, 0.34922123, -0.35508928, 0.44006556, 0.49731767, -0.06254563, -0.0059375763, 0
165, 2973587925, 0.7467129, 0.34878832, -0.35391584, 0.442178, 0.27200186, 0.13241377, -0.04281044, 0
166, 2973604592, 0.74622023, 0.34867918, -0.35348076, 0.443442, 0.05051661, 0.18079695, -0.14656162, 0
167, 2973621259, 0.74566036, 0.34873283, -0.35317123, 0.44458693, 0.044011936, 0.41083893, -0.05609131, 0
169, 2973654593, 0.7445998, 0.34950957, -0.3524738, 0.44630456, -0.035032302, 0.4559358, 0.1832447, 0
170, 2973671260, 0.7440437, 0.35009304, -0.35247004, 0.4467773, -0.17126167, 0.31040227, -0.011180878, 0
171, 2973687927, 0.743747, 0.3505392, -0.35258877, 0.4468277, -0.23603326, 0.20835476, -0.15573692, 0
173, 2973721261, 0.74352545, 0.3512468, -0.3527879, 0.44648367, 0.033671558, 0.13506508, 0.05035305, 0
174, 2973737928, 0.74350417, 0.3513444, -0.35300636, 0.44626975, 0.051890768, 0.11159801, -0.07305813, 0
177, 2973787929, 0.7435418, 0.3511069, -0.35320345, 0.4462378, 0.065744996, -0.056665227, -0.28892994, 0
178, 2973804596, 0.7433952, 0.35114333, -0.35332167, 0.4463598, -0.0029248905, -0.09129319, -0.37370777, 0
180, 2973837930, 0.7428503, 0.35143176, -0.35360473, 0.44681546, 0.2719243, 0.09178023, 0.07523632, 0
181, 2973854597, 0.742447, 0.35170865, -0.35371247, 0.44718257, 0.31884414, 0.15175971, 0.13777447, 0
182, 2973871264, 0.7419334, 0.35211268, -0.35370377, 0.4477237, 0.22967029, 0.15245663, -0.01854515, 0
184, 2973904598, 0.74136394, 0.35231328, -0.3540638, 0.4482242, -0.3985274, 0.4513073, 0.20085907, 0
185, 2973921265, 0.7412604, 0.35221142, -0.35449064, 0.4481383, -0.28378546, 0.401902, 0.10449028, 0
186, 2973937932, 0.741007, 0.3523632, -0.35483378, 0.44816613, 0.034942452, 0.11440354, -0.051970482, 0
188, 2973971266, 0.7405083, 0.35269746, -0.3552396, 0.44840634, -0.026509084, 0.2708566, -0.044177055, 0
189, 2973987933, 0.74037814, 0.3526372, -0.35544595, 0.44850472, -0.2535768, 0.39423817, 0.028841972, 0
192, 2974037934, 0.74008924, 0.3521126, -0.35734877, 0.44788134, -0.23728582, -0.034769006, -0.1788845, 0
193, 2974054601, 0.7405254, 0.3516522, -0.35807636, 0.44694015, -0.33394065, -0.017268835, -0.13681793, 0
194, 2974071268, 0.7412984, 0.35103953, -0.35876486, 0.44558626, -0.45572907, 0.109538555, -0.056110382, 0
196, 2974104602, 0.7436076, 0.34903222, -0.36072218, 0.44171846, -0.5753706, 0.26761654, -0.03145027, 0
197, 2974121269, 0.7451592, 0.34743366, -0.36236703, 0.43900925, -0.54268163, 0.34100524, -0.032676697, 0
198, 2974137936, 0.7468999, 0.34559536, -0.36421058, 0.43596622, -0.3502428, 0.23646106, -0.11882305, 0
200, 2974171270, 0.75041705, 0.34194332, -0.36727047, 0.4302012, 0.1798146, -0.03752693, 0.06380463, 0
201, 2974187937, 0.7519955, 0.3401277, -0.36844146, 0.42787606, 0.28477943, -0.04307497, 0.059212685, 0
203, 2974221271, 0.75465286, 0.33679616, -0.37037408, 0.4241485, 0.20805524, -0.03162172, -0.1778183, 0
204, 2974237938, 0.7559006, 0.33524698, -0.37123263, 0.42239955, 0.16369218, -0.058129236, -0.35090637, 0
207, 2974287939, 0.7582555, 0.3319046, -0.37351733, 0.41878885, 0.43837038, -0.09338796, -0.049118996, 0
208, 2974304606, 0.75866497, 0.33096102, -0.374086, 0.41828644, 0.44440702, -0.005604364, 0.06538582, 0
209, 2974321273, 0.7590879, 0.3300274, -0.37454343, 0.41784668, 0.47279987, 0.12439167, 0.09535599, 0
211, 2974354607, 0.7598678, 0.3286949, -0.37483805, 0.41721493, 0.43187374, 0.17785306, 0.0196352, 0
212, 2974371274, 0.7601834, 0.32813713, -0.37455153, 0.41733623, 0.35534593, 0.15569894, -0.04978752, 0
213, 2974387941, 0.7545252, 0.3779172, -0.28569096, 0.454161, -16.95068, 3.1574996, 18.200802, 1024
215, 2974421275, 0.75656104, 0.37491667, -0.3091107, 0.43762392, -1.1897243, 2.7788732, 0.6416578, 0
216, 2974437942, 0.7572142, 0.37553915, -0.30669922, 0.43765718, 4.687869, -2.0873246, 3.6103573, 0
217, 2974454609, 0.7616682, 0.3719068, -0.30824453, 0.4319066, 0.7029201, -0.8447151, -0.9694071, 0
219, 2974487943, 0.76742923, 0.36875725, -0.30910718, 0.4237151, -1.439007, 2.3470652, 0.3734188, 0
220, 2974504610, 0.766231, 0.36651537, -0.31297576, 0.42498702, -0.63493055, 2.2170076, 1.50949, 0
221, 2974521277, 0.76365274, 0.36304516, -0.31783733, 0.42897964, 0.48716214, 0.9849443, 1.5345583, 0
223, 2974554611, 0.7597938, 0.3561407, -0.3263632, 0.43517298, 1.3898988, -0.4730351, -0.23500252, 0
224, 2974571278, 0.7589054, 0.3531972, -0.32875842, 0.4373141, 0.40431595, -0.5998158, -0.19376183, 0
225, 2974587945, 0.75831157, 0.35029098, -0.33172923, 0.4384367, -0.15446556, -0.41401595, -0.46864796, 0
227, 2974621279, 0.7564433, 0.34820205, -0.33594313, 0.4401161, -0.6306769, 0.18964784, -0.84534645, 0
228, 2974637946, 0.7559693, 0.3471506, -0.3348502, 0.4425872, -0.8327738, 0.3252884, -0.6954851, 0
230, 2974671280, 0.7559514, 0.3456789, -0.3327549, 0.4453414, -0.08236631, 0.13183576, -0.27301407, 0
231, 2974687947, 0.7555222, 0.3457852, -0.33306348, 0.4457565, 0.14259478, 0.37651092, 0.16029263, 0
234, 2974737948, 0.7546446, 0.34712595, -0.33260787, 0.4465404, -0.09441366, 0.20373675, -0.0068597794, 0
235, 2974754615, 0.7544422, 0.3476299, -0.33246857, 0.44659406, -0.16118436, 0.25368923, -0.124700546, 0
236, 2974771282, 0.7543629, 0.34797612, -0.3324295, 0.44648755, -0.1803032, 0.30657908, -0.2093811, 0
238, 2974804616, 0.7542749, 0.34828743, -0.3329156, 0.44603112, -0.16479565, 0.2932452, -0.14869308, 0
239, 2974821283, 0.75407094, 0.348539, -0.33332995, 0.44587, -0.1020368, 0.14582947, -0.20316792, 0
240, 2974837950, 0.75389755, 0.34874615, -0.333782, 0.445663, -0.076552965, 0.06491889, -0.2156725, 0
242, 2974871284, 0.75364363, 0.3490995, -0.33416697, 0.4455272, -0.0031776838, 0.0046763383, -0.08941078, 0
243, 2974887951, 0.7535204, 0.34934402, -0.33427817, 0.4454605, -0.013541756, 0.11405821, -0.0046844482, 0
244, 2974904618, 0.75339866, 0.3495981, -0.33449695, 0.44530264, -0.1775265, 0.15091461, -0.04872036, 0
246, 2974937952, 0.753256, 0.3499261, -0.33524907, 0.44472057, -0.25325516, 0.083430454, -0.13471317, 0
248, 2974971286, 0.75346434, 0.34977973, -0.3360666, 0.443865, -0.07591797, 0.020022513, -0.020596504, 0
250, 2975004620, 0.75366163, 0.34968245, -0.33691418, 0.4429632, -0.054639306, 0.067574225, -0.042755127, 0
251, 2975021287, 0.7536097, 0.34982434, -0.33739662, 0.44257212, -0.051369537, 0.023288261, -0.11004925, 0
252, 2975037954, 0.7535073, 0.35011235, -0.33789167, 0.44214094, 0.038113654, -0.04307251, -0.16914749, 0
254, 2975071288, 0.75356334, 0.350278, -0.3386529, 0.44133088, -0.077219926, -0.1498509, 0.038321495, 0
255, 2975087955, 0.75358325, 0.35028088, -0.3389869, 0.4410383, 0.12352175, -0.108709104, 0.09797096, 0
257, 2975121289, 0.75384265, 0.34985057, -0.33960712, 0.44045913, 0.22129303, 0.06724723, 0.31041718, 0
258, 2975137956, 0.75413376, 0.3496339, -0.33962584, 0.4401181, 0.12643972, 0.061207235, 0.20875072, 0
259, 2975154623, 0.7544087, 0.34968933, -0.33932036, 0.43983808, 0.18702446, -0.008057865, 0.0037155151, 0
261, 2975187957, 0.7551475, 0.3497089, -0.33845824, 0.43921876, 0.20394199, -0.20149735, -0.22701645, 0
263, 2975221291, 0.75545913, 0.34996837, -0.33750728, 0.43920797, 0.27294016, 0.0697081, 0.018609047, 0
265, 2975254625, 0.7553031, 0.35084498, -0.33636394, 0.4396541, 0.161584, 0.054108016, -0.077791214, 0
266, 2975271292, 0.7550338, 0.35156742, -0.335592, 0.44012934, 0.115388565, 0.070580475, -0.116622925, 0
267, 2975287959, 0.7544382, 0.3526309, -0.33468097, 0.44099244, 0.020329397, 0.0033444243, -0.12064648, 0
269, 2975321293, 0.7527132, 0.355208, -0.33310017, 0.44306415, 0.22578675, 0.016693959, -0.36104774, 0
270, 2975337960, 0.7517735, 0.3565114, -0.33227342, 0.44423178, -0.057205904, 0.1196552, -0.12535477, 0
271, 2975354627, 0.7509248, 0.35776013, -0.3313908, 0.4453212, 0.12985767, 0.24936625, 0.037374496, 0
273, 2975387961, 0.7498437, 0.35967395, -0.3296083, 0.44692153, 0.27679732, 0.50053024, 0.21976757, 0
274, 2975404628, 0.74931246, 0.3608231, -0.32821828, 0.44790804, 0.30204648, 0.42619807, 0.26064682, 0
275, 2975421295, 0.74911296, 0.3618282, -0.32674778, 0.4485054, 0.3712845, 0.3993526, 0.1537342, 0
278, 2975471296, 0.7485148, 0.36496598, -0.32157734, 0.45069343, -0.14172307, 0.29386076, -0.06975365, 0
280, 2975504630, 0.74818784, 0.36656627, -0.31851807, 0.45210797, 0.099828266, 0.2698235, -0.0043706894, 0
281, 2975521297, 0.74790585, 0.3671911, -0.3173179, 0.45291093, 0.12682438, 0.18861833, -0.12886429, 0
282, 2975537964, 0.7474894, 0.36760637, -0.31659088, 0.45376927, -0.016773976, 0.24476434, -0.28629875, 0
284, 2975571298, 0.7470835, 0.3677698, -0.31626344, 0.45453292, -0.42849982, 0.4339638, -0.32898426, 0
285, 2975587965, 0.74710363, 0.36763677, -0.31676897, 0.45425525, -0.530339, 0.41851774, -0.2575941, 0
286, 2975604632, 0.7471478, 0.3674432, -0.31760046, 0.4537584, -0.2716505, 0.3781437, -0.3488102, 0
288, 2975637966, 0.74741954, 0.3661887, -0.31983104, 0.45275715, 0.19096008, 0.3149074, -0.18290806, 0
289, 2975654633, 0.74769473, 0.36533016, -0.32098034, 0.4521828, 0.20327878, 0.35655725, -0.03676319, 0
290, 2975671300, 0.7480937, 0.36440653, -0.32222843, 0.45137984, 0.123779684, 0.45349506, 0.1175766, 0
292, 2975704634, 0.7488243, 0.36300755, -0.32462704, 0.4495733, 0.24418612, 0.22402681, 0.027070045, 0
293, 2975721301, 0.7490444, 0.36250255, -0.3256504, 0.4488737, 0.32258573, 0.048748177, -0.0062685013, 0
294, 2975737968, 0.749244, 0.36201295, -0.32652557, 0.44829953, 0.26258805, -0.0068513784, 0.0127744675, 0
296, 2975771302, 0.7498147, 0.3613767, -0.32717234, 0.447386, 0.16295235, 0.13922353, -0.010643005, 0
297, 2975787969, 0.7501385, 0.36120933, -0.32683185, 0.4472272, 0.07411399, 0.25439084, -0.052409172, 0
298, 2975804636, 0.7503824, 0.36103842, -0.3261966, 0.44742, -0.043037195, 0.16174626, 0.010560036, 0
300, 2975837970, 0.74946636, 0.362185, -0.32477403, 0.4490605, 2.1735933, -1.2332603, -1.2005949, 0
301, 2975854637, 0.7656042, 0.34294036, -0.3193935, 0.4407282, -7.5048604, 7.130424, 14.954527, 1024
302, 2975871304, 0.74272263, 0.3701023, -0.30013767, 0.4704423, -10.437545, 6.116195, -1.6826229, 0
305, 2975921305, 0.73369527, 0.3622629, -0.31125438, 0.48331004, 1.9861757, -4.1318355, -5.757635, 0
306, 2975937972, 0.7438579, 0.35487014, -0.30501917, 0.4771971, -3.3465827, -1.3683064, -4.8255944, 0
308, 2975971306, 0.7600589, 0.34849682, -0.2944167, 0.46280706, 0.37648433, 3.9123275, 4.116396, 0
309, 2975987973, 0.75682425, 0.353459, -0.30013904, 0.4606644, 1.4919928, 4.8746386, 6.365917, 0
311, 2976021307, 0.7513325, 0.3570553, -0.3060478, 0.4629869, 1.1031603, 1.0522635, 1.2906275, 0
312, 2976037974, 0.7489351, 0.35919476, -0.30776396, 0.46407738, -0.08265934, 0.5877595, 0.09188461, 0
313, 2976054641, 0.7454802, 0.36279097, -0.31059006, 0.46495938, -1.3060875, 0.47674286, -0.9018574, 0
315, 2976087975, 0.74018425, 0.3682495, -0.31734517, 0.4645675, -0.56916636, -0.29693282, -1.1220522, 0
316, 2976104642, 0.7402877, 0.36741057, -0.3201223, 0.46315932, -0.5345766, -0.23708019, -0.6778221, 0
317, 2976121309, 0.741171, 0.36609045, -0.322068, 0.46143997, -0.106597796, -0.6443434, 0.054122925, 0
320, 2976171310, 0.744018, 0.36252376, -0.32960212, 0.45429868, 0.40257388, -0.73458123, 0.36227894, 0
321, 2976187977, 0.74454457, 0.3621863, -0.33020493, 0.45326647, 0.5679996, -0.6291879, 0.07700634, 0
323, 2976221311, 0.74510676, 0.36044148, -0.33058664, 0.45345497, 0.08676929, -0.12661897, -0.79511356, 0
324, 2976237978, 0.7456253, 0.3586819, -0.33124247, 0.45351934, -0.22332878, 0.23363273, -0.6336365, 0
325, 2976254645, 0.74639845, 0.35652238, -0.33251932, 0.45301557, -0.49353024, 0.58081406, -0.23776531, 0
327, 2976287979, 0.74817866, 0.3530904, -0.3356669, 0.4504385, -0.14141732, 0.18926366, 0.4414034, 0
328, 2976304646, 0.7492196, 0.3520459, -0.33696678, 0.4485516, 0.17258888, -0.1637941, 0.51353836, 0
329, 2976321313, 0.7502412, 0.35152155, -0.33766142, 0.4467287, 0.42131588, -0.50386435, 0.29654884, 0
331, 2976354647, 0.75266975, 0.350084, -0.33821404, 0.44334182, 0.16609024, -0.3763148, -0.30347443, 0
332, 2976371314, 0.75374174, 0.3491039, -0.33858114, 0.44201133, 0.06943631, -0.083284505, -0.18733025, 0
335, 2976421315, 0.7556932, 0.3470471, -0.34105626, 0.43838093, 0.37368953, -0.383451, -0.116555214, 0
336, 2976437982, 0.7562707, 0.34651893, -0.34156638, 0.43740445, 0.31604686, -0.5065309, -0.10278034, 0
338, 2976471316, 0.7570673, 0.34594607, -0.34105235, 0.43688083, 0.1587579, -0.50764453, -0.17486191, 0
339, 2976487983, 0.7571934, 0.34570414, -0.3406664, 0.43715495, 0.11912481, -0.48768526, -0.121006966, 0
340, 2976504650, 0.7575357, 0.34504506, -0.3403814, 0.43730468, -0.006046249, -0.19831634, 0.023055077, 0
342, 2976537984, 0.7575124, 0.34492677, -0.33987048, 0.4378352, 0.15844677, -0.21448728, 0.02279663, 0
343, 2976554651, 0.7575653, 0.3448369, -0.33951655, 0.43808913, 0.13010421, -0.27254087, -0.17209911, 0
344, 2976571318, 0.75765693, 0.3447714, -0.33898947, 0.43839014, 0.06745261, -0.33286926, -0.14255905, 0
346, 2976604652, 0.7580735, 0.34394825, -0.33824772, 0.43888932, -0.024004398, -0.1548386, -0.16366863, 0
347, 2976621319, 0.75822407, 0.34375697, -0.33808225, 0.4389065, 0.10478332, -0.033477772, -0.04934311, 0
350, 2976671320, 0.7583867, 0.34353462, -0.33817476, 0.4387285, 0.109907135, 0.02123887, -0.14834309, 0
351, 2976687987, 0.7585247, 0.34308594, -0.33833838, 0.4387148, -0.03489529, 0.04161342, -0.056406975, 0
352, 2976704654, 0.75877213, 0.34245276, -0.33860567, 0.43857574, -0.12933779, 0.11187315, -0.08390808, 0
354, 2976737988, 0.75904197, 0.34169224, -0.33920714, 0.4382368, 0.19812256, -0.10015303, -0.21424675, 0
355, 2976754655, 0.7590458, 0.34156793, -0.3395043, 0.43809706, 0.3310057, -0.17099836, -0.18012714, 0
356, 2976771322, 0.7590418, 0.34137094, -0.34009415, 0.4378, 0.3431742, -0.16443737, -0.1297493, 0
358, 2976804656, 0.7584968, 0.34108678, -0.34171408, 0.43770453, 0.27808723, 0.0019123768, 0.18827248, 0
359, 2976821323, 0.7582448, 0.34080976, -0.3423469, 0.43786216, 0.29820964, 0.12209105, 0.20757389, 0
360, 2976837990, 0.75794667, 0.3407038, -0.3427454, 0.43814918, 0.3435324, 0.108870424, 0.13980293, 0
362, 2976871324, 0.7576355, 0.34074497, -0.34264925, 0.43873018, 0.42937085, 0.09397803, -0.042801857, 0
363, 2976887991, 0.7575152, 0.3408607, -0.34241942, 0.43902713, 0.32031238, 0.12556086, -0.050002098, 0
365, 2976921325, 0.7568742, 0.34157267, -0.3418917, 0.43998957, 0.20581229, -0.025338322, -0.17764568, 0
366, 2976937992, 0.7564893, 0.34180015, -0.34171316, 0.44061327, 0.2212385, -0.09285063, -0.15844822, 0
367, 2976954659, 0.75619453, 0.34176514, -0.34171724, 0.44114274, 0.16093268, 0.038002566, -0.07584286, 0
369, 2976987993, 0.75544626, 0.3418851, -0.34206402, 0.44206226, 0.072735585, 0.19236687, -0.006670952, 0
370, 2977004660, 0.7551992, 0.3421059, -0.34236085, 0.44208363, 0.08615508, 0.17861502, -0.036229134, 0
371, 2977021327, 0.7550137, 0.34236032, -0.34262264, 0.44200066, 0.13740459, 0.13817593, 0.009079933, 0
373, 2977054661, 0.75465155, 0.34281254, -0.34311628, 0.44188583, 0.20388047, -0.0015017835, -0.082751274, 0
374, 2977071328, 0.7544549, 0.34290358, -0.3432784, 0.44202513, 0.1482928, 0.028071886, -0.11050129, 0
377, 2977121329, 0.75400496, 0.34286165, -0.3436871, 0.4425072, 0.21767873, 0.08142245, 0.015631676, 0
378, 2977137996, 0.7541246, 0.34279788, -0.34361738, 0.4424069, 0.25800547, 0.12922826, 0.006869316, 0
379, 2977154663, 0.7542178, 0.34286705, -0.34340656, 0.44235814, 0.1770873, 0.063040264, 0.014888763, 0
381, 2977187997, 0.7545253, 0.34299105, -0.343196, 0.44190127, 0.14295486, 0.043924544, -0.057079315, 0
382, 2977204664, 0.754557, 0.34316427, -0.34305003, 0.44182575, 0.18701462, 0.09955155, -0.07941055, 0
383, 2977221331, 0.7545773, 0.34337205, -0.34288076, 0.44176114, 0.24329899, 0.111360416, -0.07495117, 0
385, 2977254665, 0.75466037, 0.3437407, -0.34226406, 0.44181067, 0.2387695, 0.14078812, 0.044830322, 0
386, 2977271332, 0.7547202, 0.34384695, -0.3419538, 0.44186598, 0.16568322, 0.14556661, 0.014863014, 0
387, 2977287999, 0.7547984, 0.3438914, -0.3417041, 0.441891, 0.15255453, 0.12727296, -0.12247658, 0
389, 2977321333, 0.75479573, 0.34395045, -0.34138468, 0.4420963, 0.13269584, 0.12526157, -0.1529007, 0
392, 2977371334, 0.7360896, 0.3445757, -0.3442427, 0.47005093, -6.953194, 12.84669, -5.5505533, 0
393, 2977388001, 0.72291416, 0.3541609, -0.3523605, 0.4773034, 2.547682, -14.906163, -8.049988, 0
394, 2977404668, 0.7220103, 0.35492304, -0.35060173, 0.47939605, 10.876516, -3.9733741, -3.07022, 0
396, 2977438002, 0.7441282, 0.34500325, -0.33187258, 0.4659592, -4.233113, -1.2484957, -5.1694818, 0
397, 2977454669, 0.7558788, 0.33660224, -0.32268053, 0.45960274, -3.034547, 1.412974, 1.0975113, 0
398, 2977471336, 0.7632444, 0.33107457, -0.316617, 0.45564535, -0.8496094, 2.8000698, 5.137518, 0
400, 2977504670, 0.7593831, 0.33976883, -0.32122663, 0.45245898, 0.6590302, 2.7140937, 2.639759, 0
401, 2977521337, 0.7541281, 0.34585613, -0.3261246, 0.45313185, 2.007209, 0.78825843, 2.3199644, 0
402, 2977538004, 0.7521591, 0.34780833, -0.32984248, 0.452218, 0.3556822, -0.9237235, -1.120491, 0
404, 2977571338, 0.75344217, 0.34697077, -0.33237958, 0.44885582, 0.20716096, -0.8704428, -0.53812695, 0
406, 2977604672, 0.7542689, 0.3459767, -0.33219415, 0.4483713, 0.45590675, -0.43235385, -0.034564972, 0
408, 2977638006, 0.75386435, 0.34573126, -0.331795, 0.4495351, 0.65181226, -0.04364515, -0.23683262, 0
409, 2977654673, 0.75412786, 0.34511524, -0.33131802, 0.44991815, 0.6441181, 0.18249586, 0.10257244, 0
410, 2977671340, 0.7544714, 0.34460253, -0.33068606, 0.4501999, 0.77039, 0.35926187, 0.4170742, 0
412, 2977704674, 0.75493014, 0.34435958, -0.3290441, 0.45081946, 0.59849995, 0.09917717, -0.14563751, 0
413, 2977721341, 0.75518686, 0.34460622, -0.32752246, 0.45130888, 0.48406157, -0.050189387, -0.4456787, 0
415, 2977754675, 0.755645, 0.3457908, -0.32337424, 0.45262513, 0.6181224, 0.22935738, -0.15689564, 0
416, 2977771342, 0.7557512, 0.34625822, -0.32110155, 0.4537076, 0.7149024, 0.3095905, -0.07599449, 0
417, 2977788009, 0.75602144, 0.34579194, -0.31912452, 0.45500588, 0.4785799, 0.48766795, -0.24151611, 0
419, 2977821343, 0.75675637, 0.3436568, -0.31584123, 0.45768481, 0.34004948, 0.3941367, -0.36179543, 0
421, 2977854677, 0.7574237, 0.34151876, -0.31357962, 0.45973194, 0.6784814, 0.48964512, -0.15840912, 0
423, 2977888011, 0.75948954, 0.3384622, -0.30968544, 0.46122175, 1.3926817, 0.9396952, 0.16631794, 0
424, 2977904678, 0.7608566, 0.33681455, -0.3070526, 0.46193406, 0.9727335, 0.8763762, 0.017427444, 0
425, 2977921345, 0.7620375, 0.33561403, -0.3039031, 0.46294296, 1.1258464, 0.71542495, 0.13674355, 0
427, 2977954679, 0.7633817, 0.33316365, -0.2973863, 0.46671522, 1.5139607, 0.91483873, 0.04309082, 0
428, 2977971346, 0.76384956, 0.33120632, -0.2945038, 0.4691642, 1.2265975, 1.2031204, -0.10993385, 0
429, 2977988013, 0.76454806, 0.32919297, -0.2915485, 0.47128433, 1.296855, 1.5555893, -0.10168934, 0
431, 2978021347, 0.7672712, 0.3247114, -0.28509587, 0.47390813, 1.1460238, 1.6237483, 0.11161709, 0
432, 2978038014, 0.76927656, 0.3224749, -0.28193623, 0.47407442, 0.94230247, 1.449706, -0.076678276, 0
433, 2978054681, 0.77176124, 0.3199731, -0.27880758, 0.47358155, 1.2613258, 1.5296525, -0.044332504, 0
435, 2978088015, 0.776552, 0.31603986, -0.27107933, 0.4728775, 1.5592402, 1.4830697, -0.1343813, 0
436, 2978104682, 0.77851367, 0.31438807, -0.26705155, 0.47304463, 1.2455883, 1.420037, -0.44285393, 0
437, 2978121349, 0.78030276, 0.31238356, -0.26297244, 0.47370976, 1.2697997, 1.6480917, -0.5131893, 0
439, 2978154683, 0.78399056, 0.3072628, -0.2555104, 0.47505146, 1.1774877, 1.88565, -0.973711, 0
440, 2978171350, 0.78634477, 0.30386668, -0.25195298, 0.47524512, 0.74793357, 1.9434049, -0.9205589, 0
441, 2978188017, 0.78879607, 0.30012363, -0.24909316, 0.4750689, 0.5736809, 1.9820324, -1.1021223, 0
443, 2978221351, 0.7943941, 0.2919398, -0.24422927, 0.47336304, 0.73424804, 2.3814023, -0.9085703, 0
444, 2978238018, 0.796993, 0.288263, -0.24244171, 0.47216523, 0.60539263, 2.0939908, -1.0513334, 0
446, 2978271352, 0.80168337, 0.28158516, -0.23877294, 0.4701192, 1.1131026, 1.8353986, -0.8775749, 0
448, 2978304686, 0.8056282, 0.27457717, -0.23544908, 0.46919662, 1.1770751, 1.7760922, -1.2292128, 0
450, 2978338020, 0.8082701, 0.27136645, -0.23087803, 0.46879238, 2.2109978, 1.7949148, -1.9060483, 0
451, 2978354687, 0.8086051, 0.2714707, -0.22791414, 0.4696042, 2.3712816, 1.5643716, -2.1302767, 0
452, 2978371354, 0.80867946, 0.27155852, -0.22533208, 0.47066984, 2.511962, 1.597915, -2.0984483, 0
454, 2978404688, 0.80811346, 0.27244583, -0.22052296, 0.47339913, 2.9482772, 2.1699567, -1.4462147, 0
455, 2978421355, 0.80747694, 0.27337313, -0.21862532, 0.47482872, 3.1439772, 2.6396947, -0.8988066, 0
456, 2978438022, 0.806684, 0.27559775, -0.21660827, 0.47581404, 4.3314433, 3.40183, -0.10154724, 0
458, 2978471356, 0.80556756, 0.27983183, -0.21295443, 0.47688216, 4.3347716, 4.120626, 2.0780687, 0
459, 2978488023, 0.80560714, 0.2803481, -0.21162978, 0.4771018, 3.744178, 4.484704, 3.300973, 0
460, 2978504690, 0.8065478, 0.27888346, -0.21165729, 0.47635812, 3.3396513, 4.8254633, 4.8271723, 0
463, 2978554691, 0.80818796, 0.27666777, -0.21529055, 0.47323185, 1.77347, 3.0855124, 5.6503077, 0
464, 2978571358, 0.80669713, 0.27818668, -0.21741258, 0.47391444, 1.7371724, 1.1049066, 4.1544085, 0
466, 2978604692, 0.80149657, 0.2803026, -0.22173464, 0.47945708, -0.9569868, -1.4774377, 2.6963272, 0
467, 2978621359, 0.79915667, 0.2797294, -0.22362661, 0.4828068, -1.582363, -2.2282557, 2.7061958, 0
468, 2978638026, 0.797269, 0.27731788, -0.22657336, 0.48593485, -1.1651943, -2.309381, 2.18264, 0
470, 2978671360, 0.79466873, 0.26779157, -0.2342643, 0.49185443, 0.049007673, -0.91418844, 1.854928, 0
471, 2978688027, 0.793501, 0.26151437, -0.23940209, 0.4946354, 0.6651039, -0.5167473, 1.1949186, 0
473, 2978721361, 0.78918725, 0.25336698, -0.25040823, 0.50029564, 1.4350097, -0.08729332, -0.8615942, 0
474, 2978738028, 0.786682, 0.25179845, -0.25518805, 0.5026126, 2.264724, -0.31720412, -0.9601946, 0
475, 2978754695, 0.78401196, 0.24967389, -0.25997755, 0.5053822, 2.044795, -0.5073874, -0.96134186, 0
478, 2978804696, 0.7751285, 0.24362251, -0.2757671, 0.51360285, -0.20463796, 0.677356, -1.578618, 0
479, 2978821363, 0.771799, 0.24393195, -0.28149116, 0.5153612, -0.91268945, 0.15440868, -1.8498349, 0
481, 2978854697, 0.76483035, 0.24559152, -0.29182363, 0.5192009, -0.056806266, -0.3834166, -1.9224157, 0
482, 2978871364, 0.7614494, 0.24640469, -0.2972142, 0.52072513, 0.39081553, -0.41736558, -2.0403662, 0
483, 2978888031, 0.7584896, 0.24746987, -0.30250317, 0.5214933, -0.3191687, -0.12382785, -1.7218866, 0
485, 2978921365, 0.75284255, 0.25227347, -0.31285408, 0.52126765, 0.09254174, -0.3611837, -1.8666744, 0
486, 2978938032, 0.7500589, 0.25524253, -0.3184078, 0.5204716, -0.31250957, -0.28861246, -1.5973368, 0
487, 2978954699, 0.7475268, 0.25790218, -0.3240558, 0.519316, -0.6769993, -0.25313368, -1.1513281, 0
489, 2978988033, 0.7421065, 0.26378027, -0.33332938, 0.5182673, 0.29761398, -0.38055652, -0.8631115, 0
490, 2979004700, 0.7395794, 0.26634544, -0.33732158, 0.5179846, 0.018604102, 0.02742381, -0.661932, 0
493, 2979054701, 0.733704, 0.27356213, -0.3456311, 0.51710016, -0.030728562, -0.34575677, -0.58321095, 0
494, 2979071368, 0.7325963, 0.27527153, -0.3475042, 0.516508, 0.23289804, -0.24061416, -0.538496, 0
495, 2979088035, 0.73173016, 0.2772243, -0.34856993, 0.5159726, 0.31280905, -0.23652655, -0.45509624, 0
497, 2979121369, 0.72887444, 0.28299847, -0.34930474, 0.5163829, 0.41125938, -0.19763876, -0.5482197, 0
498, 2979138036, 0.72724694, 0.28586024, -0.34889114, 0.51738006, 0.69652045, -0.3073738, -0.4773264, 0
500, 2979171370, 0.7239949, 0.29114753, -0.348247, 0.51942253, 0.56970656, -0.75745505, -0.65206623, 0
501, 2979188037, 0.7226387, 0.29338664, -0.34845167, 0.519914, 0.13538471, -0.44706336, -0.6932688, 0
502, 2979204704, 0.7214899, 0.2955307, -0.34853598, 0.52023846, -0.37944207, -0.2872281, -0.3818922, 0
504, 2979238038, 0.72112197, 0.29882413, -0.34835175, 0.5189893, -0.7682451, -0.23077422, 0.05944538, 0
505, 2979254705, 0.7217841, 0.30058795, -0.34796217, 0.51730853, -0.7265369, -0.03981973, 0.19348717, 0
506, 2979271372, 0.7230045, 0.30202588, -0.34706804, 0.51536393, -0.4894272, -0.22435705, 0.21347427, 0
508, 2979304706, 0.7266601, 0.3047601, -0.34184182, 0.5120955, 0.7711282, -0.52209085, -0.049773216, 0
509, 2979321373, 0.72867346, 0.30653623, -0.33694896, 0.511417, 1.2564847, -0.43676335, -0.48561764, 0
510, 2979338040, 0.7308857, 0.30642086, -0.33170462, 0.5117575, 1.2039838, -0.57697165, -1.0195541, 0
512, 2979371374, 0.7347408, 0.30579865, -0.317484, 0.5156146, 0.9268642, -0.2858657, -1.899343, 0
513, 2979388041, 0.736177, 0.3055156, -0.3090327, 0.5188582, 0.92187446, -0.40637293, -2.0711932, 0
514, 2979404708, 0.7377084, 0.30423647, -0.29991117, 0.5227723, 0.5571391, -1.1427314, -2.0439987, 0
516, 2979438042, 0.7403157, 0.2952056, -0.2844527, 0.5328077, -0.6899393, -1.3627578, -2.8013449, 0
517, 2979454709, 0.74266326, 0.28569987, -0.28067422, 0.5367122, -1.0670576, 0.22705306, -1.5594482, 0
520, 2979504710, 0.757308, 0.25386745, -0.2769358, 0.53418493, -0.85530007, 2.5308642, -2.0888605, 0
521, 2979521377, 0.76266176, 0.24554887, -0.27226052, 0.53285855, -0.4078204, 2.289697, -1.5635252, 0
522, 2979538044, 0.76756483, 0.23676202, -0.27052584, 0.530674, 2.28178, 1.5036399, -2.041256, 0
524, 2979571378, 0.7760298, 0.22071902, -0.27018636, 0.525425, 5.0674453, 3.867345, 0.6401558, 0
525, 2979588045, 0.77982527, 0.21519518, -0.2689879, 0.522705, 4.866378, 3.5121305, 1.3783998, 0
527, 2979621379, 0.7860079, 0.2086713, -0.2643801, 0.51842284, 3.8416433, 3.8584125, 2.2924328, 0
528, 2979638046, 0.78901625, 0.20911297, -0.2603385, 0.51571345, 5.2413807, 4.448502, 2.9230976, 0
529, 2979654713, 0.79139286, 0.21259728, -0.2549706, 0.51332355, 6.811061, 5.11144, 3.6787996, 0
531, 2979688047, 0.7936945, 0.22302324, -0.24259248, 0.51134133, 7.3355746, 4.452406, 4.4095154, 0
532, 2979704714, 0.7941474, 0.22673735, -0.23769896, 0.5113027, 5.7449474, 5.0389953, 3.9599314, 0
535, 2979754715, 0.7929337, 0.23258308, -0.23223415, 0.51306885, 1.6262541, 4.0963626, 3.7526073, 0
536, 2979771382, 0.791587, 0.23814304, -0.22951913, 0.5138191, 1.0934867, 1.3436475, 3.1331491, 0
537, 2979788049, 0.7884601, 0.2465334, -0.22868626, 0.5150397, -1.113821, -2.3943117, 1.0161228, 0
539, 2979821383, 0.7818704, 0.2540815, -0.23055345, 0.52055526, -4.424934, -6.0111103, 1.7384729, 0
540, 2979838050, 0.78045976, 0.25261423, -0.23156634, 0.52293104, -3.9511409, -4.887361, 2.07061, 0
541, 2979854717, 0.779663, 0.2507252, -0.23171411, 0.52495944, -1.2184346, -2.7458723, 2.9162197, 0
543, 2979888051, 0.7775846, 0.24596657, -0.23094608, 0.5306014, 0.5621355, -0.06378423, 0.5633879, 0
544, 2979904718, 0.7758359, 0.24259631, -0.23327446, 0.5336854, 0.12923363, 0.7332153, -0.31780148, 0
545, 2979921385, 0.77399385, 0.24033844, -0.23718059, 0.53565633, -0.14240524, 1.3081489, -0.76297665, 0
547, 2979954719, 0.7699934, 0.2404558, -0.24673246, 0.5370526, -0.023111686, 0.45953223, -1.6480064, 0
550, 2980004720, 0.7671511, 0.24269375, -0.2637393, 0.5320072, -0.3005342, 0.35336113, -1.4709053, 0
551, 2980021387, 0.7655209, 0.2453873, -0.26935527, 0.53030336, 0.15665106, -0.18313043, -1.2186089, 0
552, 2980038054, 0.7639987, 0.24721551, -0.27640247, 0.5280185, -0.94932365, -0.07347374, -1.1974974, 0
554, 2980071388, 0.76078725, 0.25027448, -0.28950694, 0.524178, 0.16120782, -0.5399567, -0.81825256, 0
555, 2980088055, 0.75985277, 0.25080645, -0.29665446, 0.52127457, -0.2144171, -0.66583085, -0.47581196, 0
556, 2980104722, 0.75884765, 0.25172955, -0.30378968, 0.5181755, -0.12625979, -0.81980944, -0.5683737, 0
558, 2980138056, 0.7573282, 0.25216362, -0.31872115, 0.51117086, -0.11755741, -0.47868997, -0.60684586, 0
559, 2980154723, 0.756703, 0.25198427, -0.325743, 0.50774723, -0.0414811, -0.18353342, -0.8019352, 0
560, 2980171390, 0.7560202, 0.25179553, -0.33226085, 0.50462514, -0.76307636, 0.5546779, -0.5552759, 0
562, 2980204724, 0.7537992, 0.25333327, -0.34325147, 0.49979883, 0.20673361, -0.041235905, -0.69089794, 0
564, 2980238058, 0.7528385, 0.25299424, -0.3542413, 0.49371305, 0.1498109, -0.10851833, -1.2420874, 0
566, 2980271392, 0.7517122, 0.25207, -0.36478895, 0.48819038, 0.19931746, 0.2551815, -1.2151604, 0
567, 2980288059, 0.7510427, 0.2521271, -0.36921617, 0.48585755, 0.3307719, 0.13990459, -0.62184143, 0
568, 2980304726, 0.7500586, 0.2526524, -0.3726783, 0.4844597, 0.61667067, -0.3063824, -0.34606743, 0
570, 2980338060, 0.74688077, 0.25477496, -0.37842587, 0.48380184, 1.2508308, -0.9139279, 0.11891556, 0
571, 2980354727, 0.7450509, 0.25566044, -0.38103688, 0.48410654, 1.2976412, -1.0231054, 0.034918785, 0
572, 2980371394, 0.74471056, 0.25549138, -0.38495934, 0.48160976, 0.7108499, -0.26249966, -0.4345789, 0
574, 2980404728, 0.7431711, 0.2545936, -0.39350355, 0.47754043, 0.3779564, 0.6911978, -0.58352184, 0
575, 2980421395, 0.7425489, 0.25567558, -0.3959571, 0.47589946, 0.30295452, 0.25201172, 0.08103752, 0
576, 2980438062, 0.74184746, 0.25678778, -0.3986274, 0.47416234, 0.09960564, -0.014624899, -0.66338253, 0
578, 2980471396, 0.73976034, 0.25777018, -0.40553108, 0.4710254, -0.11821913, -1.2888151, -0.8496876, 0
579, 2980488063, 0.73864084, 0.25794283, -0.40934274, 0.4693879, 0.021015136, -0.6569741, -0.8757696, 0
581, 2980521397, 0.7374415, 0.25960422, -0.41497937, 0.4653913, 0.8877787, -0.110368684, -0.17761803, 0
582, 2980538064, 0.7370637, 0.26137626, -0.41664678, 0.46350437, 1.1832222, -0.12514333, 0.4516306, 0
583, 2980554731, 0.73640716, 0.263453, -0.41797605, 0.46217346, 1.1137435, -0.41657674, 0.9332361, 0
585, 2980588065, 0.7343784, 0.26728636, -0.4208061, 0.46062988, 0.7593576, -0.74911505, 0.7184391, 0
586, 2980604732, 0.7331254, 0.26937228, -0.42173865, 0.46055794, 0.8634091, -0.5640792, 0.247056, 0
587, 2980621399, 0.7317725, 0.27140713, -0.4219094, 0.46135756, 0.5452203, -0.5083715, 0.091724396, 0
589, 2980654733, 0.72888696, 0.27309966, -0.42301372, 0.46390837, -0.6159136, -0.10358372, -0.5426941, 0
591, 2980688067, 0.7262813, 0.2743646, -0.42224652, 0.46793032, -0.39873144, -0.8577281, -0.57533264, 0
593, 2980721401, 0.72441614, 0.27612302, -0.4198041, 0.47196728, -0.0564777, -1.2168006, -0.029549599, 0
594, 2980738068, 0.7242998, 0.27704823, -0.41727608, 0.47384185, -0.17209446, -1.0432675, 0.09924507, 0
595, 2980754735, 0.7250061, 0.27729052, -0.41455314, 0.47500852, -0.46440628, -0.66533506, -0.20917511, 0
597, 2980788069, 0.72805566, 0.27792248, -0.4085809, 0.47514924, -0.23437837, 0.52164775, -0.75414467, 0
598, 2980804736, 0.7296921, 0.2789304, -0.40453917, 0.47550666, -0.0187961, -0.19516861, -0.71956253, 0
599, 2980821403, 0.73165053, 0.27920005, -0.40055618, 0.4757107, -0.021612138, -0.40867478, -0.6904793, 0
601, 2980854737, 0.7367639, 0.2801218, -0.3867059, 0.4787282, 0.34132528, -1.5769072, -0.39066792, 0
602, 2980871404, 0.73935056, 0.28043628, -0.3774695, 0.48191732, 0.2820888, -1.8623247, -1.5857077, 0
603, 2980888071, 0.74139744, 0.2784618, -0.36956534, 0.48602635, 0.05225241, -1.0636204, -2.832203, 0
606, 2980938072, 0.7496207, 0.26790792, -0.34599218, 0.49658313, -0.244763, 0.5837039, -2.7937899, 0
608, 2980971406, 0.75508404, 0.26491004, -0.32126585, 0.506429, -0.4784629, -1.478804, -2.4037437, 0
609, 2980988073, 0.75786155, 0.26033252, -0.31117088, 0.51093733, -1.1011789, -1.8435756, -3.1840792, 0
610, 2981004740, 0.76177526, 0.25206894, -0.30563697, 0.51259816, -0.84829146, -1.0436721, -3.439386, 0
612, 2981038074, 0.7753422, 0.23657858, -0.2938001, 0.50652516, 2.2490833, 5.2205205, -0.33115673, 0
613, 2981054741, 0.78136426, 0.23283759, -0.28276193, 0.5052855, 1.9475762, 3.8903654, -0.11873913, 0
614, 2981071408, 0.7873003, 0.22996119, -0.2724189, 0.50306594, 2.9035752, 3.2117372, 0.70742035, 0
616, 2981104742, 0.79849404, 0.22498655, -0.2562856, 0.49610204, 5.71475, 3.9287024, 3.2486458, 0
617, 2981121409, 0.8031989, 0.22484404, -0.2499225, 0.4917994, 7.6098847, 5.373991, 3.9897146, 0
618, 2981138076, 0.8065713, 0.22731024, -0.24352157, 0.48834562, 8.209057, 5.764846, 4.8925114, 0
621, 2981188077, 0.81168056, 0.2289227, -0.23333265, 0.48408312, 3.164797, 4.7957706, 3.0793076, 0
622, 2981204744, 0.8123422, 0.22792958, -0.23351248, 0.4833544, 2.7675354, 4.737968, 3.625453, 0
624, 2981238078, 0.81052715, 0.2397641, -0.2352056, 0.47984207, -2.6323595, -1.9123434, 1.1388721, 0
625, 2981254745, 0.8087523, 0.24480233, -0.23907359, 0.4783793, -3.4709885, -4.7954893, 0.25415516, 0
626, 2981271412, 0.8077585, 0.24476422, -0.24132797, 0.47894543, -2.9160283, -5.263459, 1.9787493, 0
628, 2981304746, 0.8068746, 0.23885554, -0.24372545, 0.48219377, -1.6843114, -1.2252865, 4.1881866, 0
629, 2981321413, 0.80638766, 0.23791392, -0.24463473, 0.48301238, -0.87690884, -0.43986723, 3.7874088, 0
630, 2981338080, 0.80520433, 0.23800156, -0.24568953, 0.48440596, -0.36569425, -0.08841636, 2.0694017, 0
632, 2981371414, 0.802168, 0.23719633, -0.25071543, 0.487255, 0.5326964, 0.17771794, 0.2566986, 0
633, 2981388081, 0.8004825, 0.23622559, -0.25488356, 0.4883346, 0.6138931, 0.2389025, 0.39548588, 0
636, 2981438082, 0.79660404, 0.23336658, -0.26948038, 0.48821464, -0.13838895, 1.6175302, -0.21819115, 0
637, 2981454749, 0.79494447, 0.23451525, -0.27552485, 0.48699415, -0.41842833, 0.8428146, -0.7439375, 0
639, 2981488083, 0.79067755, 0.23758131, -0.28623164, 0.4862786, 1.3167937, -0.9181925, -1.2699165, 0
640, 2981504750, 0.78863865, 0.23840383, -0.29197657, 0.48577115, -0.06757557, -0.6825231, -1.0752077, 0
641, 2981521417, 0.7867398, 0.23847783, -0.29809764, 0.4850956, 0.8128589, -0.6251482, -1.4794655, 0
643, 2981554751, 0.78307474, 0.23444214, -0.3144792, 0.4826436, 0.023144543, 0.29933032, -1.2242918, 0
644, 2981571418, 0.78122383, 0.23468262, -0.32191867, 0.4806174, -0.20617685, 0.7055467, -0.80237865, 0
645, 2981588085, 0.7790467, 0.23616052, -0.32851103, 0.47896364, -0.6590597, 0.831206, -0.8097429, 0
647, 2981621419, 0.7743778, 0.24036218, -0.34102818, 0.4756845, -0.3978383, -0.18691517, -1.5244255, 0
648, 2981638086, 0.7722964, 0.24119979, -0.34802756, 0.47357064, -0.5417563, 0.1461805, -1.6114445, 0
649, 2981654753, 0.77032125, 0.2422321, -0.3539329, 0.47188067, 1.4187756, -1.1517901, -0.7072773, 0
651, 2981688087, 0.76634836, 0.24391574, -0.36642957, 0.46792734, 0.065217055, -0.798646, 0.01944542, 0
652, 2981704754, 0.76471764, 0.24389845, -0.37377673, 0.46478269, 0.4645312, -0.41243002, -0.47251415, 0
653, 2981721421, 0.76372284, 0.24178858, -0.3815024, 0.46122986, 0.42138273, 0.049011808, -0.37548542, 0
655, 2981754755, 0.76218885, 0.23904109, -0.39338034, 0.45518208, 0.04900946, 0.85495436, -1.1318674, 0
656, 2981771422, 0.7607493, 0.2401571, -0.39835703, 0.4526676, 0.047906872, 0.5204676, -1.0665197, 0
657, 2981788089, 0.759854, 0.2406769, -0.40314084, 0.4496501, -0.12523462, -0.1255683, -1.2572756, 0
659, 2981821423, 0.75703186, 0.24096659, -0.41081023, 0.44730765, 0.25092793, -1.3608649, -0.27390766, 0
660, 2981838090, 0.755932, 0.24093688, -0.41380322, 0.4464243, 0.8597989, -1.4449784, 0.12674427, 0
663, 2981888091, 0.75139064, 0.24075636, -0.421593, 0.4468994, 0.23816736, -0.8762612, 0.83332634, 0
664, 2981904758, 0.74982506, 0.2404427, -0.42338717, 0.4480005, 0.036672663, -1.1118463, 0.5663662, 0
666, 2981938092, 0.74712753, 0.23875512, -0.42772797, 0.44928443, -0.039087277, -0.8273607, -0.7993965, 0
667, 2981954759, 0.74643815, 0.23759416, -0.42986554, 0.4490053, 0.48469052, -0.12127528, -0.44448662, 0
668, 2981971426, 0.74510044, 0.23611733, -0.4318576, 0.4500934, 0.089581534, 0.12214279, -0.5356865, 0
670, 2982004760, 0.7428721, 0.234884, -0.43293852, 0.4533717, 0.055367287, -0.44326502, -0.34331703, 0
671, 2982021427, 0.74197674, 0.23512526, -0.43195558, 0.45564482, -0.0048153633, -1.1404418, -0.3618183, 0
672, 2982038094, 0.74082905, 0.23612341, -0.4307708, 0.45811123, -0.0173265, -1.415963, -0.49486542, 0
674, 2982071428, 0.7370609, 0.24023983, -0.4295636, 0.46315482, -0.70130605, -1.102205, -0.84938717, 0
675, 2982088095, 0.7347114, 0.24233904, -0.43094382, 0.46451026, -0.55854726, -0.17029475, -1.166173, 0
678, 2982138096, 0.72881985, 0.25322595, -0.42853093, 0.4701817, -0.37545392, 0.10592927, 0.04126358, 0
679, 2982154763, 0.72702724, 0.2579309, -0.42594287, 0.47274426, 0.060599055, -0.26433235, -0.18001366, 0
680, 2982171430, 0.72520036, 0.26207453, -0.42339972, 0.4755476, 0.07412896, -0.6558627, 0.017773628, 0
682, 2982204764, 0.7206341, 0.26828614, -0.42252344, 0.47978553, -0.29605252, 0.12993288, 0.18831825, 0
683, 2982221431, 0.7195162, 0.2717841, -0.42048115, 0.4812866, -0.2832915, 0.38821977, 0.3433838, 0
684, 2982238098, 0.7191014, 0.275702, -0.41649723, 0.48313862, -0.21360463, 0.045176998, 0.21546936, 0
686, 2982271432, 0.71961534, 0.28001872, -0.40835023, 0.4868311, 0.28249848, -0.46633407, 0.1382513, 0
687, 2982288099, 0.72151095, 0.27961066, -0.40543133, 0.4866996, -0.5527639, 0.2721561, -0.80234814, 0
689, 2982321433, 0.72639036, 0.27853617, -0.39944246, 0.48500675, 0.64370614, 0.52395046, -0.9742193, 0
690, 2982338100, 0.7288003, 0.27888775, -0.39475948, 0.4850237, -0.010936503, -0.23914964, -1.0950623, 0
693, 2982388101, 0.7386613, 0.27556753, -0.37144178, 0.49039236, 0.70784384, -0.85998464, -2.5690718, 0
694, 2982404768, 0.74283576, 0.2718209, -0.36192152, 0.49328762, 0.7947531, -0.40444204, -2.4192333, 0
695, 2982421435, 0.7473037, 0.2672859, -0.35247713, 0.4958494, 0.40105957, -0.08744375, -3.3516521, 0
697, 2982454769, 0.7571824, 0.25947937, -0.32947332, 0.5008031, -0.33682173, -0.07403599, -2.4894447, 0
698, 2982471436, 0.7624662, 0.2546927, -0.3166514, 0.5035076, -1.0018364, -0.65016246, -1.2366724, 0
699, 2982488103, 0.7682365, 0.2464681, -0.30447662, 0.5063314, -1.472047, -1.3048351, -0.91728306, 0
701, 2982521437, 0.78135216, 0.22207546, -0.28440648, 0.50921077, -0.67637134, 1.9957975, -2.7030964, 0
702, 2982538104, 0.7886886, 0.21590473, -0.2718427, 0.5074132, 2.1827374, 4.5313573, -1.347559, 0
703, 2982554771, 0.79586524, 0.21333963, -0.25878212, 0.5041108, 5.8538527, 4.792754, 1.5517254, 0
705, 2982588105, 0.80557567, 0.21085137, -0.24240798, 0.4978345, 7.9649773, 4.4678674, 4.48964, 0
707, 2982621439, 0.8130542, 0.20800456, -0.23251542, 0.49155357, 4.8370843, 6.9623475, 5.3392878, 0
709, 2982654773, 0.8155502, 0.21788341, -0.22693503, 0.4857123, 5.0719285, 4.449975, 4.073488, 0
710, 2982671440, 0.8152695, 0.22130778, -0.22584021, 0.48514545, 3.2246552, 2.172386, 2.9325647, 0
711, 2982688107, 0.8137303, 0.22306493, -0.22625631, 0.48672843, -0.082265064, 0.38959146, 2.1246252, 0
713, 2982721441, 0.80707455, 0.2289362, -0.23478815, 0.49102414, -4.9290876, -2.176213, 3.2287111, 0
714, 2982738108, 0.80482054, 0.23008543, -0.2416043, 0.49088013, -5.5301332, -3.1657944, 2.54669, 0
716, 2982771442, 0.8045671, 0.22821, -0.24546997, 0.49025273, 0.7159218, -1.0405009, 3.342311, 0
717, 2982788109, 0.8036728, 0.2264496, -0.24581628, 0.49235773, 1.0940584, -0.38566244, 2.7578373, 0
718, 2982804776, 0.8023675, 0.223234, -0.24820456, 0.49475121, 0.27225488, 0.16559818, 1.3863258, 0
720, 2982838110, 0.80093795, 0.2173912, -0.2571177, 0.49511743, -0.9273717, 1.1908145, -1.0941725, 0
721, 2982854777, 0.8005404, 0.21637978, -0.26194578, 0.49367064, -1.487315, 1.4055088, -0.3982792, 0
722, 2982871444, 0.80003256, 0.21628755, -0.2672659, 0.49167866, -0.6515262, 0.95849127, -0.57320976, 0
724, 2982904778, 0.80125225, 0.21566187, -0.27745846, 0.4842652, 0.5262706, -0.29458645, -0.6380558, 0
725, 2982921445, 0.8013615, 0.2160061, -0.28207314, 0.48125577, 1.0728946, -0.7763708, -0.98754215, 0
726, 2982938112, 0.80057853, 0.21628371, -0.28752562, 0.47920305, 0.30046108, -1.2397497, -1.6821651, 0
728, 2982971446, 0.7979419, 0.21401292, -0.3011452, 0.47624588, -0.033381436, -0.99550176, -1.5328331, 0
729, 2982988113, 0.79604274, 0.21304101, -0.3072217, 0.47597846, 0.37882653, -0.95852214, -1.1213655, 0
730, 2983004780, 0.7943693, 0.2117813, -0.31371126, 0.47510278, 0.31795254, -0.8756541, -1.0698261, 0
732, 2983038114, 0.7921182, 0.21027264, -0.32760525, 0.47012776, -0.03201577, -0.16254711, -0.66282654, 0
734, 2983071448, 0.79027796, 0.21201423, -0.340764, 0.46303567, -0.5006134, 0.9320908, -1.3301182, 0
736, 2983104782, 0.78719574, 0.21670383, -0.35601002, 0.4545663, 0.45657283, -0.1483075, -1.7460699, 0
737, 2983121449, 0.7853089, 0.21789832, -0.364217, 0.45074105, -0.5700975, 0.544145, -1.4236431, 0
738, 2983138116, 0.78306174, 0.22044781, -0.37012082, 0.44859678, 0.8191906, -0.46808267, -0.7345991, 0
740, 2983171450, 0.7795496, 0.2242051, -0.38213417, 0.44274056, 0.53003365, -0.35990483, -0.24836159, 0
741, 2983188117, 0.7771752, 0.22541489, -0.3890712, 0.440252, 0.21625347, 0.20333287, -0.48560524, 0
743, 2983221451, 0.77090275, 0.22857416, -0.4030084, 0.4371022, 0.14139318, -0.7553797, -0.84824944, 0
744, 2983238118, 0.76711565, 0.2306052, -0.40927753, 0.43687278, -0.29372934, -1.0601333, -0.760478, 0
745, 2983254785, 0.7634244, 0.23272619, -0.41481912, 0.43698782, 0.2714907, -1.2927483, -0.6724758, 0
747, 2983288119, 0.75670666, 0.23652074, -0.42430916, 0.43752265, -0.47187808, -0.6697126, -0.017706871, 0
749, 2983321453, 0.7500258, 0.23935887, -0.43259552, 0.43936437, -0.13118824, -0.3038586, 0.41202068, 0
751, 2983354787, 0.7435291, 0.24189608, -0.4392913, 0.44236308, -0.14288647, -0.7856325, 0.35487366, 0
752, 2983371454, 0.7406214, 0.24310757, -0.4426488, 0.44322914, -0.43626377, -0.51176506, 0.015956879, 0
753, 2983388121, 0.73787946, 0.24455006, -0.44567722, 0.44397315, -0.4802444, -0.5934653, -0.012840271, 0
755, 2983421455, 0.7332557, 0.24823004, -0.4499577, 0.44527212, 0.023285579, -0.62104267, 0.30903053, 0
756, 2983438122, 0.7313558, 0.24982831, -0.4512228, 0.4462217, -0.12997481, -0.5644642, 0.35434246, 0
757, 2983454789, 0.7297966, 0.2515117, -0.4516046, 0.44744077, 0.21533686, -0.6955531, 0.25475502, 0
759, 2983488123, 0.7254636, 0.25512365, -0.4535879, 0.45042622, -0.6135956, 0.10683003, -0.51591396, 0
760, 2983504790, 0.7226355, 0.2570075, -0.4549545, 0.45251822, -0.73773247, -0.034597237, -0.65997887, 0
761, 2983521457, 0.7197585, 0.25930125, -0.45583904, 0.45489845, -0.45388106, -0.10393364, -0.7638998, 0
764, 2983571458, 0.71255124, 0.26620713, -0.45779946, 0.46025574, -0.21810886, 0.4079993, 0.3619175, 0
765, 2983588125, 0.7108639, 0.26813453, -0.45891827, 0.4606321, -0.056549672, 0.23142453, -0.0022382736, 0
767, 2983621459, 0.7100934, 0.27108535, -0.45888087, 0.46013004, 0.20581341, 0.4255195, 0.33019066, 0
768, 2983638126, 0.7097656, 0.27231333, -0.45989823, 0.45889312, 0.3349628, 0.24779508, -0.027155876, 0
770, 2983671460, 0.7104542, 0.27405447, -0.46142456, 0.45524442, 0.17180502, -0.25885135, 0.05832672, 0
771, 2983688127, 0.71092933, 0.2746474, -0.46269464, 0.45285028, -0.012632505, -0.38923752, -0.21792984, 0
772, 2983704794, 0.71125174, 0.27558848, -0.46355096, 0.45089212, 0.12588294, -0.4896054, -0.3412342, 0
774, 2983738128, 0.71166104, 0.27803892, -0.46269938, 0.449615, 1.1285902, -0.9745213, 0.2166357, 0
775, 2983754795, 0.71207666, 0.2783272, -0.46150032, 0.45001048, 1.1362227, -0.93294626, 0.2235136, 0
776, 2983771462, 0.71302867, 0.2778865, -0.45976126, 0.4505552, 0.79915804, -0.29188547, 0.3388958, 0
779, 2983821463, 0.71687526, 0.27635562, -0.44915396, 0.4560583, 0.46426725, -0.7882602, -0.6169987, 0
780, 2983838130, 0.7191014, 0.2754088, -0.4428937, 0.45923775, 0.90197086, -1.0258268, -0.7653513, 0
782, 2983871464, 0.72597086, 0.27224097, -0.4268994, 0.4654238, 0.27920857, -0.47032228, -1.9800596, 0
783, 2983888131, 0.7300022, 0.26953518, -0.41882437, 0.46802247, -0.2389966, 0.4585526, -2.0616536, 0
784, 2983904798, 0.73359835, 0.26722494, -0.40975726, 0.47173584, 0.8493584, 0.35598874, -1.8168702, 0
786, 2983938132, 0.7412516, 0.26146325, -0.3872775, 0.4818823, 0.4118575, -0.5691081, -1.3217983, 0
787, 2983954799, 0.7450559, 0.25971538, -0.37191483, 0.4890096, 0.7548754, -0.85472494, -2.6444473, 0
788, 2983971466, 0.7484228, 0.25662482, -0.3555256, 0.4976139, 0.6289118, -0.6182431, -4.0432568, 0
790, 2984004800, 0.75302786, 0.24252285, -0.32726637, 0.5167589, 1.7429672, 0.7607027, -7.307483, 0
791, 2984021467, 0.7551187, 0.2307379, -0.31759104, 0.5250741, -0.15638821, -0.5007009, -4.225796, 0
792, 2984038134, 0.7596353, 0.21586865, -0.31292817, 0.52767617, -1.6444308, -0.3616713, -1.3061333, 0
794, 2984071468, 0.7721306, 0.19034806, -0.30039597, 0.5266458, -0.21003312, 7.4241385, 4.1858788, 0
795, 2984088135, 0.7810436, 0.18975331, -0.28537706, 0.52204955, 3.3794014, 6.4583683, 6.627266, 0
797, 2984121469, 0.7958462, 0.1932887, -0.2648747, 0.50903904, 7.341063, 4.7312336, 8.203859, 0
798, 2984138136, 0.79916596, 0.19568601, -0.2588343, 0.5060204, 6.802518, 5.25238, 5.6416063, 0
799, 2984154803, 0.79962623, 0.20174345, -0.25513652, 0.5047909, 4.9531713, 5.672234, 3.6784554, 0
801, 2984188137, 0.79976815, 0.21301623, -0.24762374, 0.5036751, 3.268847, 2.9975536, 2.1934328, 0
802, 2984204804, 0.79749274, 0.22179717, -0.24916047, 0.5027342, -1.7775631, -1.260877, -0.18291187, 0
803, 2984221471, 0.794618, 0.22973986, -0.25317314, 0.5017135, -4.9158564, -3.5138378, -1.470912, 0
806, 2984271472, 0.7931504, 0.2364317, -0.26177362, 0.49648595, -1.4482394, -1.2500387, 3.9805422, 0
807, 2984288139, 0.7943245, 0.23649639, -0.26216286, 0.49436858, 0.43444213, -1.0444349, 4.2565145, 0
809, 2984321473, 0.7951982, 0.23720914, -0.26231876, 0.49253607, 0.29117098, -0.9224041, 0.17106438, 0
810, 2984338140, 0.79542565, 0.23611732, -0.2638933, 0.4918517, 0.38388842, -0.51174366, -0.30415916, 0
811, 2984354807, 0.7957388, 0.23509237, -0.2663101, 0.49053192, -0.10143845, 0.3409318, -0.5472441, 0
813, 2984388141, 0.795542, 0.23413956, -0.2740918, 0.4870077, -0.79224366, 1.1443489, -0.3547001, 0
814, 2984404808, 0.7947429, 0.23480523, -0.27832213, 0.4855907, -0.37609676, 0.94716096, -0.014259338, 0
815, 2984421475, 0.7935212, 0.23644982, -0.28232557, 0.48447832, 0.57586884, 0.17217247, 0.023944855, 0
817, 2984454809, 0.7900099, 0.23880148, -0.2892981, 0.48494965, 1.8912978, -1.0511253, -0.62225246, 0
818, 2984471476, 0.7884291, 0.23566654, -0.296244, 0.48486257, 0.48889413, -0.39532155, -1.4014406, 0
821, 2984521477, 0.7811586, 0.23072939, -0.31606832, 0.4864843, -0.2812182, -0.11859944, -1.3295355, 0
822, 2984538144, 0.7796152, 0.22918415, -0.32393828, 0.48451006, -1.7704471, 0.34223837, -1.0714836, 0
824, 2984571478, 0.77778906, 0.22745006, -0.338989, 0.47792083, -0.033417422, 0.43037832, -1.5543003, 0
825, 2984588145, 0.77677286, 0.22737917, -0.34653398, 0.4741815, -0.2817079, 0.63855046, -0.94364643, 0
826, 2984604812, 0.775296, 0.22834168, -0.35356593, 0.47093382, -0.3871079, 0.67883676, -0.6986437, 0
828, 2984638146, 0.7721854, 0.23029652, -0.36805078, 0.46394292, 0.7761744, -1.0625994, -0.9968538, 0
829, 2984654813, 0.7708883, 0.2296018, -0.37637505, 0.459747, -0.40271693, -0.14913706, -1.1539555, 0
830, 2984671480, 0.76978, 0.22914751, -0.38379303, 0.45568004, 0.23756723, -0.5468294, -0.86454487, 0
832, 2984704814, 0.7665344, 0.22868189, -0.39822236, 0.4489541, 0.168761, -0.46794757, -0.123978615, 0
833, 2984721481, 0.76421905, 0.2287498, -0.40491992, 0.44687116, 0.22335806, -0.2393051, -0.008131981, 0
836, 2984771482, 0.75573707, 0.23240523, -0.42056274, 0.4449579, 0.029839426, -1.4396187, 0.35836887, 0
837, 2984788149, 0.752504, 0.23454863, -0.42392567, 0.44612008, 0.38423264, -1.8023454, 0.33059025, 0
838, 2984804816, 0.7499422, 0.23445027, -0.42885798, 0.44577128, -0.1812842, -0.85535794, -0.4296379, 0
840, 2984838150, 0.74235386, 0.23333974, -0.44049117, 0.44770747, -0.814426, 0.21315916, -0.8232403, 0
841, 2984854817, 0.7387489, 0.23300108, -0.4458556, 0.44853604, -0.34714243, 0.08308591, -0.99452496, 0
842, 2984871484, 0.73582435, 0.23251843, -0.45014477, 0.44930905, -0.8044886, 0.14357132, -1.5258083, 0
844, 2984904818, 0.7307664, 0.23340335, -0.45574442, 0.45145503, -0.19903404, -1.1074687, -0.9297018, 0
845, 2984921485, 0.72873294, 0.23412946, -0.45851412, 0.45156157, -0.039490715, -1.2130474, -0.54617786, 0
846, 2984938152, 0.7263757, 0.23633483, -0.46124515, 0.45142934, 0.06631182, -1.1666003, 0.25629234, 0
848, 2984971486, 0.72201085, 0.24003944, -0.46844053, 0.44906145, 0.12319811, 0.5297955, 0.59325886, 0
851, 2985021487, 0.7162057, 0.24592865, -0.47569796, 0.44753915, 0.109924115, 0.699139, 0.7187691, 0
852, 2985038154, 0.7140116, 0.24708046, -0.47803554, 0.4479198, 0.21413122, 0.40959588, 0.5452738, 0
853, 2985054821, 0.7118106, 0.24807167, -0.4801988, 0.44856045, 0.5993594, 0.39521807, 0.29446697, 0
855, 2985088155, 0.70720583, 0.25016105, -0.4846017, 0.44994646, 0.3624264, 0.2585691, -0.11673069, 0
856, 2985104822, 0.7052616, 0.25108498, -0.48679957, 0.45011103, 0.09415215, 0.19599046, -0.3372326, 0
857, 2985121489, 0.70331985, 0.25230885, -0.48894498, 0.4501392, -0.0655255, 0.08359541, -0.66144276, 0
859, 2985154823, 0.70025223, 0.25342616, -0.4936388, 0.44917077, -0.038502343, 0.19349013, -0.64250946, 0
860, 2985171490, 0.69884247, 0.2552359, -0.4952025, 0.44861954, 0.46925876, -0.43659976, -0.003320694, 0
861, 2985188157, 0.69782335, 0.25668812, -0.49733576, 0.44701478, 0.31398743, -0.30855566, 0.010361671, 0
863, 2985221491, 0.6967029, 0.25796327, -0.50108945, 0.4438249, -0.20589745, -0.21506193, 0.012163162, 0
864, 2985238158, 0.6962708, 0.25861293, -0.50174904, 0.44337946, -0.14918193, -0.05280907, -0.049391747, 0
865, 2985254825, 0.69547606, 0.25920767, -0.50261617, 0.44329756, 0.053564433, -0.20103593, 0.14750195, 0
867, 2985288159, 0.69420636, 0.2610451, -0.50301504, 0.44375718, 0.43954092, -0.825684, 0.3725176, 0
868, 2985304826, 0.6944971, 0.26138246, -0.5027179, 0.4434397, 0.007523446, -0.6248908, 0.2162323, 0
869, 2985321493, 0.6951774, 0.26167676, -0.5017771, 0.4432658, -0.43358743, -0.6834148, -0.046607018, 0
871, 2985354827, 0.696463, 0.26229042, -0.49880722, 0.44423598, -0.07674362, -0.649227, -0.04163742, 0
872, 2985371494, 0.6972686, 0.26228404, -0.4965785, 0.44547123, 0.6336145, -0.27966258, 0.08016491, 0
873, 2985388161, 0.69863725, 0.26158217, -0.49395937, 0.44665027, 0.31673664, -0.3404955, 0.012270927, 0
875, 2985421495, 0.704094, 0.2574392, -0.48680913, 0.4483356, 0.032826006, -0.119952925, 0.29195118, 0
878, 2985471496, 0.7114034, 0.25591823, -0.46869656, 0.45688677, 0.33757296, -1.099152, -1.2035294, 0
879, 2985488163, 0.71292263, 0.2563711, -0.461539, 0.46152806, 1.1162566, -0.63832384, -1.1990166, 0
880, 2985504830, 0.7144321, 0.25599247, -0.45432693, 0.4665328, 0.70390356, -0.06782992, -1.3758135, 0
882, 2985538164, 0.7202883, 0.2535086, -0.4366129, 0.47570878, -0.0645492, -0.19833936, -1.3296518, 0
883, 2985554831, 0.72393626, 0.2520427, -0.4276946, 0.47904006, -0.6405821, -0.3879805, -2.111896, 0
884, 2985571498, 0.72783715, 0.2500896, -0.41773608, 0.48292446, 0.10493442, 0.59819824, -1.062521, 0
886, 2985604832, 0.73660535, 0.24322787, -0.3994866, 0.4885432, 0.43907174, 1.460078, -1.9753804, 0
887, 2985621499, 0.742611, 0.24024624, -0.38732746, 0.490713, 0.618592, 0.99354535, -0.73675156, 0
888, 2985638166, 0.74873585, 0.23841023, -0.37406427, 0.4925872, 0.6760868, -0.1899265, -2.1247005, 0
890, 2985671500, 0.7590777, 0.23008747, -0.34713006, 0.5003726, 0.42641288, -1.9277223, -1.0416651, 0
892, 2985704834, 0.7724162, 0.20950204, -0.32903743, 0.5012262, 1.6895494, 3.0872965, 2.297243, 0
894, 2985738168, 0.7883103, 0.19132403, -0.30442992, 0.49929512, 2.1502907, 6.3586802, 5.3507824, 0
895, 2985754835, 0.7955609, 0.18425977, -0.29329717, 0.49711102, 3.3242877, 6.4804106, 5.529484, 0
896, 2985771502, 0.8025533, 0.17823409, -0.2834788, 0.49375296, 4.0061164, 4.4625463, 2.8759365, 0
898, 2985804836, 0.8098118, 0.17622569, -0.27192453, 0.4890988, 4.098982, 2.5798488, -0.06774902, 0
899, 2985821503, 0.81222206, 0.17712551, -0.26693386, 0.48752376, 3.4500608, 1.9251877, 0.54390144, 0
900, 2985838170, 0.8133832, 0.1786016, -0.26676786, 0.4851343, -0.23859337, -0.58906, -0.58924484, 0
902, 2985871504, 0.8135922, 0.18328398, -0.27412236, 0.47889742, -5.9782257, -3.707862, -0.69810486, 0
903, 2985888171, 0.815338, 0.18404262, -0.27589217, 0.47460192, -3.4316988, -3.9997697, 1.2221212, 0
905, 2985921505, 0.82047385, 0.18622059, -0.2742394, 0.46577722, 3.230744, -1.8439127, 3.4298716, 0
907, 2985954839, 0.8179036, 0.19192316, -0.27158925, 0.4695209, 1.1641784, -0.36773425, 1.6399021, 0
909, 2985988173, 0.81262213, 0.18854234, -0.27506575, 0.47796154, -1.0718483, 2.039879, 1.0360365, 0
910, 2986004840, 0.8109095, 0.1853102, -0.27894214, 0.47988355, -2.62628, 2.8557231, -0.032772064, 0
911, 2986021507, 0.8101918, 0.18374446, -0.28257468, 0.4795727, -2.6641567, 2.5440934, -0.50999165, 0
913, 2986054841, 0.80913156, 0.18512297, -0.28861964, 0.47722697, -0.9480899, 0.83535886, -1.0998163, 0
914, 2986071508, 0.80824345, 0.18771145, -0.2921674, 0.47555906, -0.32046238, -0.8993462, -1.2493267, 0
915, 2986088175, 0.8075173, 0.18784201, -0.29629862, 0.47418326, 0.56740934, -1.6536859, -1.3156385, 0
917, 2986121509, 0.80774426, 0.18396983, -0.30584526, 0.4692275, -0.53782916, 0.008385759, -0.4242592, 0
918, 2986138176, 0.8069508, 0.1816698, -0.31089872, 0.46816635, -0.2084037, 0.2480758, -0.23561287, 0
919, 2986154843, 0.80583733, 0.18013185, -0.31658843, 0.4668638, 0.21908695, 0.47058886, 0.12742424, 0
922, 2986204844, 0.80005765, 0.1807378, -0.3369419, 0.46230167, -0.5329166, -1.2897868, -0.9949188, 0
923, 2986221511, 0.79777354, 0.18043551, -0.3451655, 0.46029592, 0.21372086, -1.6141136, -1.0495234, 0
925, 2986254845, 0.79069173, 0.1788994, -0.36449015, 0.45821375, 0.2895275, -0.43342498, -0.6540098, 0
926, 2986271512, 0.786548, 0.17968757, -0.37288073, 0.45828584, 0.25919703, -0.14908169, -0.6502485, 0
927, 2986288179, 0.7827671, 0.18060878, -0.38117212, 0.45757526, -0.0029085742, 0.241742, -0.6380949, 0
929, 2986321513, 0.7753105, 0.18318865, -0.39776227, 0.4551174, 0.28167325, 0.076039836, -0.575964, 0
930, 2986338180, 0.7712532, 0.18561554, -0.40573162, 0.4539916, -0.3313383, 0.5420481, -1.0282469, 0
932, 2986371514, 0.7628047, 0.192563, -0.41878366, 0.45351988, -0.42902842, -0.066736445, -1.4687853, 0
933, 2986388181, 0.7590542, 0.1957832, -0.42423993, 0.45336217, -0.37387863, -0.28788143, -1.4938087, 0
934, 2986404848, 0.754677, 0.19905919, -0.42937446, 0.45440802, -0.4224035, -0.5892668, -0.7676153, 0
936, 2986438182, 0.7455424, 0.20557679, -0.43842858, 0.4579261, -0.53230435, -0.8582666, -0.7708454, 0
937, 2986454849, 0.7409233, 0.20961192, -0.44160926, 0.46053004, -0.36306304, -0.9864769, -0.65303135, 0
938, 2986471516, 0.73628557, 0.21386442, -0.44464222, 0.4630875, -0.62536603, -0.94266784, -0.5058956, 0
940, 2986504850, 0.7260175, 0.22494012, -0.450337, 0.46851718, -0.70186174, -0.5588486, 0.07511139, 0
941, 2986521517, 0.72092783, 0.23066619, -0.453174, 0.47085106, -0.96293044, -0.45463255, 0.21992588, 0
942, 2986538184, 0.7160148, 0.23612158, -0.45592415, 0.4729841, -0.48693505, -0.51797503, 0.54205894, 0
944, 2986571518, 0.7062005, 0.24566881, -0.46272904, 0.4762572, -0.9652586, 0.6668259, 0.37843132, 0
945, 2986588185, 0.70200616, 0.24971193, -0.4659262, 0.47723716, -1.0902246, 0.9533327, 0.18677807, 0
946, 2986604852, 0.6980057, 0.25386888, -0.4690444, 0.47785687, -0.8227456, 0.7550934, 0.097387314, 0
949, 2986654853, 0.68681693, 0.26324528, -0.48254147, 0.4755517, -0.1889592, 0.57681865, -0.047801018, 0
950, 2986671520, 0.6839898, 0.2653393, -0.48708647, 0.47382596, 0.09929384, 0.73514014, -0.09648037, 0
952, 2986704854, 0.6788016, 0.26980868, -0.4949207, 0.47063422, 0.5119931, 0.17869917, -0.30876064, 0
953, 2986721521, 0.6762225, 0.27142087, -0.49905565, 0.4690509, 0.6972726, 0.0619075, -0.32785416, 0
954, 2986738188, 0.6740607, 0.27247483, -0.5035413, 0.46675134, 0.68493223, -0.1306985, -0.33684254, 0
956, 2986771522, 0.670713, 0.27344376, -0.5131175, 0.46053708, 0.5195505, 0.121081665, 0.15282917, 0
957, 2986788189, 0.66897035, 0.27401242, -0.5176914, 0.45760566, 0.67620224, -0.10529025, 0.35130215, 0
959, 2986821523, 0.66492075, 0.2754193, -0.5247039, 0.45466638, 0.9876586, -0.41290107, 0.2727766, 0
960, 2986838190, 0.6626491, 0.2760683, -0.52735764, 0.45451936, 1.089412, -0.39157334, 0.366477, 0
961, 2986854857, 0.6607102, 0.27657866, -0.52930844, 0.45476377, 0.96319824, -0.26770654, 0.6418867, 0
964, 2986904858, 0.6565106, 0.28048328, -0.53111935, 0.45634037, 0.09886112, -0.11484431, 0.24199772, 0
965, 2986921525, 0.6565508, 0.28205842, -0.5293051, 0.45741808, 0.17507143, -0.48530972, -0.31661224, 0
967, 2986954859, 0.6578288, 0.28546762, -0.5229528, 0.4607616, -0.06356664, 0.007880061, -0.02477932, 0
968, 2986971526, 0.6586027, 0.28740185, -0.51899856, 0.46291935, -0.05528146, 0.5384654, 0.47598648, 0
969, 2986988193, 0.6600914, 0.28983557, -0.513734, 0.46514845, 0.110734574, 0.6117939, 0.8678961, 0
971, 2987021527, 0.6655288, 0.29234236, -0.5027449, 0.46783137, -0.734615, -0.07462236, -0.14850807, 0
972, 2987038194, 0.6695745, 0.29147112, -0.4973947, 0.46832085, -1.4987254, 0.25856426, -0.34939766, 0
973, 2987054861, 0.6736711, 0.29049408, -0.492525, 0.46819985, -1.2626828, 0.57693654, -0.72561264, 0
975, 2987088195, 0.6793852, 0.29300064, -0.4798477, 0.47153383, 0.6814416, -0.027509974, -0.59039783, 0
976, 2987104862, 0.68224347, 0.29340154, -0.473568, 0.47350165, 1.5346234, -1.070463, -0.87920666, 0
979, 2987154863, 0.6938495, 0.29089087, -0.4540646, 0.47727573, -0.8483548, -0.62878686, -0.4946146, 0
980, 2987171530, 0.6981841, 0.28928277, -0.4457417, 0.4797711, -0.7288248, 0.32428813, -1.4288101, 0
981, 2987188197, 0.70259887, 0.28784314, -0.43570265, 0.4834002, 0.5264414, 0.4015084, -1.1560822, 0
983, 2987221531, 0.7138119, 0.27975667, -0.41636586, 0.48873258, 1.3116703, -0.12342754, -2.4088025, 0
984, 2987238198, 0.71996427, 0.2731532, -0.40675524, 0.49152848, 0.966158, -0.8639126, -2.2995653, 0
986, 2987271532, 0.73593163, 0.2568767, -0.38557717, 0.49372125, 0.016864276, 0.081389114, -2.1062121, 0
987, 2987288199, 0.74334574, 0.25120428, -0.37196594, 0.49596995, 0.10589095, 0.102225676, -1.0260363, 0
988, 2987304866, 0.7507494, 0.24842727, -0.35629785, 0.49771738, 0.5303558, 0.1587902, -0.88896656, 0
990, 2987338200, 0.765855, 0.24186793, -0.32433158, 0.49978608, 2.7591462, -1.9595497, -1.4180136, 0
991, 2987354867, 0.7720748, 0.23249334, -0.31160086, 0.502756, 0.54074174, -4.1666446, 3.6068916, 0
994, 2987404868, 0.78947514, 0.19726199, -0.28916076, 0.5041965, 1.2034156, 7.3105335, 4.5074434, 0
995, 2987421535, 0.7929187, 0.19451344, -0.27977288, 0.5051563, 6.497128, 5.003592, 5.878463, 0
996, 2987438202, 0.7943376, 0.18587038, -0.2765711, 0.5079368, 6.2567463, 5.4198484, 4.1951666, 0
998, 2987471536, 0.79814315, 0.1796411, -0.2684861, 0.5085503, 2.248921, 5.1835675, 0.2020998, 0
999, 2987488203, 0.7968007, 0.1847038, -0.26346156, 0.511461, 2.208318, 3.2346098, 0.6036091, 0
1000, 2987504870, 0.7929802, 0.19187489, -0.26388374, 0.5145319, 0.46486068, -0.5610591, -1.6602688, 0
1002, 2987538204, 0.78694904, 0.2030921, -0.27353704, 0.5144451, -2.5580683, -4.7589183, -3.023738, 0
1003, 2987554871, 0.7868062, 0.20181197, -0.2767229, 0.5134623, -1.5593569, -1.5507678, 0.78109837, 0
1004, 2987571538, 0.7875607, 0.20183674, -0.27794164, 0.51163447, -0.46211436, -0.20761052, 3.2122507, 0
1006, 2987604872, 0.7861689, 0.21089312, -0.27832046, 0.5099132, 0.99181485, 1.2671643, 3.3420048, 0
1007, 2987621539, 0.78326476, 0.21563932, -0.27927217, 0.51187336, 0.39143085, -0.48381066, 2.6148567, 0
1008, 2987638206, 0.78015006, 0.21644004, -0.2819822, 0.514798, -0.8492853, -1.2549964, 1.2710094, 0
1010, 2987671540, 0.77861416, 0.20839763, -0.28887174, 0.5166188, -3.0661848, 1.810458, 0.308218, 0
1011, 2987688207, 0.7784741, 0.2053909, -0.29025394, 0.5172589, -2.247623, 2.6340654, 0.3736086, 0
1013, 2987721541, 0.7773017, 0.20562613, -0.29441008, 0.51657903, -1.731922, 0.112128295, -0.9949436, 0
1014, 2987738208, 0.77670974, 0.20631813, -0.29699793, 0.51571167, -0.36443564, -1.2095366, -1.986228, 0
1015, 2987754875, 0.77650195, 0.2054592, -0.30084956, 0.5141324, 0.6439916, -1.6657968, -2.4817314, 0
1017, 2987788209, 0.77880245, 0.19772169, -0.30934557, 0.50861514, -0.0033788453, -0.35873437, -1.3128071, 0
1018, 2987804876, 0.7792202, 0.19569343, -0.31346756, 0.5062304, -0.09922545, -0.19452153, -0.7917805, 0
1021, 2987854877, 0.7762163, 0.19102132, -0.33046904, 0.50179744, -0.60263497, -1.808993, -1.3828335, 0
1022, 2987871544, 0.77516466, 0.18929239, -0.3374523, 0.49942496, -0.5987429, -1.5589148, -1.1584072, 0
1023, 2987888211, 0.77379555, 0.18825302, -0.34435305, 0.49722558, -1.295069, -0.9913257, -0.9216509, 0
1025, 2987921545, 0.772349, 0.18794152, -0.3552107, 0.49192625, -0.7044091, -0.62849927, -0.66737175, 0
1026, 2987938212, 0.771906, 0.18829775, -0.36083233, 0.48838127, -0.22091708, -0.5292038, -0.54824924, 0
1027, 2987954879, 0.7708839, 0.18891063, -0.36725485, 0.48495966, 0.09792952, -0.16682616, -0.55964375, 0
1029, 2987988213, 0.76680064, 0.1921635, -0.37995446, 0.48034996, -0.17683026, 0.6126772, -0.7765827, 0
1030, 2988004880, 0.7645385, 0.19399306, -0.38523796, 0.47900987, 0.025690356, 0.47528672, -0.77514744, 0
1031, 2988021547, 0.762011, 0.19656143, -0.3893372, 0.47867602, -0.33075604, 0.004532843, -0.27803898, 0
1033, 2988054881, 0.75624055, 0.20548172, -0.39624974, 0.47840896, 0.30329254, -0.83077556, 0.21762466, 0
1035, 2988088215, 0.7480199, 0.21428716, -0.40734577, 0.4781508, -0.071697816, -0.037776764, -0.430048, 0
1037, 2988121549, 0.74139154, 0.2189497, -0.41873983, 0.4765165, -0.55373734, 0.19378069, -0.07537365, 0
1038, 2988138216, 0.7392761, 0.22109783, -0.42240685, 0.47557345, -0.5606771, 0.2912425, -0.10976505, 0
1040, 2988171550, 0.7365248, 0.22471258, -0.4281166, 0.4730359, 0.025394648, 0.5059923, 0.563817, 0
1041, 2988188217, 0.7355037, 0.22632077, -0.4314933, 0.47078466, 0.23247717, 0.16117375, 0.63247204, 0
1042, 2988204884, 0.7343412, 0.22844584, -0.4344554, 0.4688447, 0.27768221, 0.022331068, 0.77503777, 0
1044, 2988238218, 0.73077595, 0.2335234, -0.4403999, 0.46636075, 0.028419672, -0.36017242, 0.3751421, 0
1045, 2988254885, 0.7283683, 0.2355224, -0.4432628, 0.46640974, -0.09235109, -0.35598317, 0.2444973, 0
1046, 2988271552, 0.72572726, 0.23742568, -0.4460829, 0.46687293, -0.072741844, -0.6441355, 0.3386488, 0
1048, 2988304886, 0.72024757, 0.24151711, -0.45181957, 0.46774268, -0.18757118, -0.5122501, 0.1572218, 0
1050, 2988338220, 0.7131671, 0.24591832, -0.45917505, 0.4691335, -0.60859156, 0.13900495, -0.26447487, 0
1052, 2988371554, 0.70709705, 0.24872465, -0.46678734, 0.46933034, -0.09258577, -0.035117798, -0.58017635, 0
1053, 2988388221, 0.7047868, 0.24913126, -0.4702659, 0.4691168, -0.5225292, 0.3673024, -0.6304302, 0
1056, 2988438222, 0.7007254, 0.24994402, -0.47872803, 0.46620026, 0.12515473, -0.29469886, 0.029886246, 0
1057, 2988454889, 0.69899285, 0.2508121, -0.48203728, 0.46492314, -0.053197425, -0.24163254, 0.09203243, 0
1058, 2988471556, 0.69670385, 0.25272387, -0.4850885, 0.4641496, 0.3534142, -0.69521844, 0.07573509, 0
1060, 2988504890, 0.6928747, 0.2544832, -0.49080187, 0.46291184, -0.07771993, -0.15194914, 0.11462498, 0
1061, 2988521557, 0.69163585, 0.25468495, -0.49296835, 0.46235126, -0.24750617, 0.21631248, 0.91999245, 0
1062, 2988538224, 0.69007546, 0.2558269, -0.49508074, 0.46179515, 0.47377372, -0.5010827, 0.33811855, 0
1064, 2988571558, 0.68808824, 0.25607115, -0.49878728, 0.4606352, -0.36341733, 0.07360349, 0.36848545, 0
1067, 2988621559, 0.6874823, 0.25362292, -0.49994126, 0.46164232, 0.48903695, 0.0053719105, 0.52113724, 0
1068, 2988638226, 0.6883426, 0.25204235, -0.49765024, 0.46369675, 1.1154512, 0.1365719, 0.54554844, 0
1069, 2988654893, 0.6895352, 0.25038332, -0.4935589, 0.4671833, 0.632547, -0.09018412, 0.66589546, 0
1071, 2988688227, 0.6918961, 0.24676967, -0.48419458, 0.47534338, 0.12684986, 0.13562743, 0.25085735, 0
1072, 2988704894, 0.6933072, 0.24379171, -0.4801544, 0.4789089, -0.04279245, 0.54946244, -0.08887577, 0
1073, 2988721561, 0.69530505, 0.24041025, -0.47572318, 0.4821335, -5.051393E-5, 0.70583147, -0.1803503, 0
1076, 2988771562, 0.7024239, 0.23260397, -0.45968157, 0.4911213, 0.024568321, -0.33797204, -1.0169601, 0
1077, 2988788229, 0.7052282, 0.23059656, -0.45319548, 0.4940683, 0.35502106, -0.84444946, -1.1302967, 0
1079, 2988821563, 0.7114579, 0.22660126, -0.44098678, 0.49801743, 0.41870907, -0.42095864, -1.7062559, 0
1080, 2988838230, 0.7151572, 0.22352965, -0.43562165, 0.4988284, 0.1985365, 0.20237651, -1.6500769, 0
1081, 2988854897, 0.71935695, 0.22032192, -0.4292866, 0.4997083, -0.014067011, 0.74412787, -1.8612089, 0
1083, 2988888231, 0.7297725, 0.21346065, -0.411474, 0.5025604, 0.026020037, -0.36846787, -1.4358768, 0
1084, 2988904898, 0.73545074, 0.2096636, -0.4015093, 0.50393933, 0.8565808, 0.016868075, -0.9636173, 0
1085, 2988921565, 0.74147874, 0.20465082, -0.39255726, 0.5042196, 0.25330076, 0.17913139, -1.5798359, 0
1087, 2988954899, 0.7545835, 0.19332033, -0.37212372, 0.5047439, 0.6441344, 0.36742318, -1.7921648, 0
1088, 2988971566, 0.7603225, 0.1886049, -0.36063954, 0.5062491, 2.0517156, 0.22700596, -2.6267433, 0
1089, 2988988233, 0.7653002, 0.18394205, -0.3482664, 0.50911963, 2.7139726, 0.37936354, -3.6864104, 0
1091, 2989021567, 0.7756509, 0.18261024, -0.3205835, 0.5121099, 1.568832, -1.6427692, 2.354618, 0
1092, 2989038234, 0.78052074, 0.18270597, -0.31237286, 0.50974536, 2.580834, 0.29272968, 8.393955, 0
1095, 2989088235, 0.789209, 0.17170125, -0.2956826, 0.51014775, 1.2950372, 7.8978376, 4.480278, 0
1096, 2989104902, 0.79063714, 0.1770829, -0.2871684, 0.51096, 4.285855, 2.985804, 1.5370226, 0
1098, 2989138236, 0.78872854, 0.17939818, -0.2818242, 0.51605225, 1.3476425, 1.5871602, -1.1132336, 0
1099, 2989154903, 0.7869543, 0.18196562, -0.28305542, 0.51718694, -1.6591415, 0.25590792, -0.8488455, 0
1100, 2989171570, 0.7842875, 0.18688786, -0.2892434, 0.5160579, -4.6350045, -2.2597816, -1.3851357, 0
1102, 2989204904, 0.7810608, 0.20098558, -0.2983541, 0.51043594, -2.764958, -2.8872502, -0.7315111, 0
1103, 2989221571, 0.78132457, 0.2049057, -0.29954308, 0.50777024, 2.564355, -1.0371102, 0.96633434, 0
1104, 2989238238, 0.781176, 0.21034318, -0.2997877, 0.5056266, 5.3452444, -0.9815699, 3.3085966, 0
1106, 2989271572, 0.7756311, 0.21628952, -0.30085793, 0.51099, 0.88521504, 0.9008038, 2.2679014, 0
1107, 2989288239, 0.7709493, 0.21702524, -0.30248928, 0.5167675, -0.83870244, 1.5714549, 2.117629, 0
1110, 2989338240, 0.7602548, 0.21973698, -0.3133681, 0.52491903, -3.8085442, -0.33075604, -2.6328645, 0
1111, 2989354907, 0.75796103, 0.22047345, -0.31482166, 0.5270532, -1.3857346, 0.8356083, -1.3128672, 0
1112, 2989371574, 0.7553371, 0.2214405, -0.3166112, 0.52933794, -1.5454898, -0.60865325, -1.8721209, 0
1114, 2989404908, 0.75130135, 0.22370496, -0.32267758, 0.53046465, -1.4035735, -1.2404608, -1.694788, 0
1115, 2989421575, 0.7510381, 0.22408088, -0.32497287, 0.5292764, -0.5437976, -1.090063, -0.7573452, 0
1116, 2989438242, 0.7514023, 0.22376814, -0.32743603, 0.52736986, 0.6330629, -0.55601794, 0.2254219, 0
1118, 2989471576, 0.7519308, 0.22126758, -0.3353381, 0.52268565, -0.28436437, 0.2977282, 0.2727728, 0
1119, 2989488243, 0.7507613, 0.21975602, -0.34160426, 0.52094394, -0.894628, 0.12877373, -0.3105173, 0
1121, 2989521577, 0.7489497, 0.21762566, -0.3576528, 0.51362324, -1.2613499, -0.3373704, -1.9642353, 0
1122, 2989538244, 0.7487382, 0.21660773, -0.36551172, 0.5088072, -1.3476536, -0.118190296, -1.8284125, 0
1125, 2989588245, 0.74784106, 0.21800303, -0.38440335, 0.49543285, 0.3666397, -0.64603895, -0.37286282, 0
1126, 2989604912, 0.7465387, 0.21949115, -0.39069074, 0.49180847, 0.6188372, -0.3470474, 0.25180054, 0
1127, 2989621579, 0.7441727, 0.22286756, -0.39625716, 0.48941654, 0.5837854, -0.26791, 0.7876997, 0
1129, 2989654913, 0.73829675, 0.22927015, -0.4080329, 0.4856683, -0.024143869, 0.37481624, 0.49201393, 0
1130, 2989671580, 0.7342341, 0.23301682, -0.41414663, 0.48486823, 0.4993818, -0.365257, 0.4740286, 0
1131, 2989688247, 0.72990763, 0.23503688, -0.42178082, 0.4838437, 0.03804414, 0.50272363, -0.25407982, 0
1133, 2989721581, 0.7220537, 0.23779418, -0.4339339, 0.48353392, -0.70962125, 0.026822226, -0.8622837, 0
1134, 2989738248, 0.7185818, 0.23928598, -0.43777427, 0.48450744, -1.0896795, -0.66560525, -1.4221935, 0
1135, 2989754915, 0.71575916, 0.24073592, -0.44139168, 0.48468536, -0.8828536, -0.97315353, -1.6286898, 0
1137, 2989788249, 0.7107024, 0.24469277, -0.44891217, 0.48323578, -0.44610727, -0.2497612, -0.47705364, 0
1139, 2989821583, 0.7068607, 0.24807012, -0.4571985, 0.4793643, -0.27762097, 0.105806895, 0.5304594, 0
1141, 2989854917, 0.70414793, 0.2503306, -0.46493176, 0.47472084, -0.25721335, -0.17386626, 0.86177063, 0
1142, 2989871584, 0.7029955, 0.25126734, -0.4683271, 0.47259194, -0.016080417, -0.6317793, 1.0633698, 0
1143, 2989888251, 0.70138425, 0.2526097, -0.4723631, 0.4702478, 0.25518027, -0.6819663, 1.0228682, 0
1145, 2989921585, 0.6968287, 0.2561875, -0.48064047, 0.4666838, 0.6371684, -0.42841595, 0.4478321, 0
1146, 2989938252, 0.69489336, 0.2570836, -0.4839932, 0.46561033, 0.4642963, -0.122052714, 0.16486359, 0
1148, 2989971586, 0.69136405, 0.25739208, -0.4894616, 0.46497703, -0.28957623, -0.15629333, 0.08994484, 0
1149, 2989988253, 0.6891315, 0.25800562, -0.49251693, 0.46472502, -0.28128815, -0.5680943, -0.48464584, 0
1150, 2990004920, 0.6863446, 0.25883073, -0.49573728, 0.46496624, -0.2092497, -0.20532805, -0.15467167, 0
1152, 2990038254, 0.6799352, 0.2613149, -0.50033927, 0.46805376, 0.21025763, -0.41014642, 0.71928596, 0
1153, 2990054921, 0.6773723, 0.26178664, -0.50186974, 0.46986428, 0.100488745, -0.5813948, 0.45447922, 0
1154, 2990071588, 0.67467606, 0.2618534, -0.5035263, 0.4719296, -0.0728013, -0.31921571, 0.032479286, 0
1156, 2990104922, 0.67009735, 0.26177412, -0.5054829, 0.47638464, -0.4904044, 0.78912544, -0.002875328, 0
1157, 2990121589, 0.66908824, 0.2613731, -0.50534636, 0.4781645, -0.48230675, 0.57963413, -0.18264675, 0
1158, 2990138256, 0.66887957, 0.26140028, -0.5042802, 0.47956523, -0.31697893, -0.027802665, -0.19531918, 0
1160, 2990171590, 0.6696137, 0.25966954, -0.50151384, 0.48237377, 0.08786831, 0.26252043, -0.18906784, 0
1161, 2990188257, 0.6706833, 0.257726, -0.49859446, 0.4849495, 0.46471965, 0.8328311, 0.49375153, 0
1162, 2990204924, 0.6723055, 0.25695878, -0.49419683, 0.48760474, 0.38708958, 0.5776818, -0.34684944, 0
1164, 2990238258, 0.6781103, 0.2553006, -0.48040146, 0.4941798, 0.25614002, 0.113476634, 0.012713432, 0
1166, 2990271592, 0.6829248, 0.25229463, -0.4648794, 0.50384486, 0.49023253, -0.094091356, -1.3919334, 0
1168, 2990304926, 0.6879808, 0.24756736, -0.45031136, 0.51246834, 0.6485908, 0.7141215, -2.0512772, 0
1169, 2990321593, 0.69162905, 0.24364161, -0.44353873, 0.51533735, 0.235691, 0.67821497, -1.9557705, 0
1170, 2990338260, 0.69591993, 0.24001399, -0.4359175, 0.5177606, 0.59870964, -0.061524957, -1.3451633, 0
1172, 2990371594, 0.7074066, 0.23519626, -0.4163322, 0.5205162, 1.1385859, -0.5686401, -0.8465948, 0
1173, 2990388261, 0.7129098, 0.23172599, -0.40519288, 0.5233477, 1.6381935, 0.023845144, -0.22383785, 0
1175, 2990421595, 0.7246269, 0.21568184, -0.38846037, 0.5267896, 0.7903369, 0.81981325, -0.44809723, 0
1176, 2990438262, 0.73045015, 0.20604861, -0.38031352, 0.52854466, 0.64454633, 1.7053353, -1.010067, 0
1177, 2990454929, 0.73580927, 0.19886312, -0.37008786, 0.53111625, 1.2845703, 1.2475233, -2.0134249, 0
1179, 2990488263, 0.74923915, 0.19143468, -0.3417906, 0.5340264, 3.129401, 0.05160875, -2.1059318, 0
1181, 2990521597, 0.760532, 0.18284076, -0.32367563, 0.53235865, 1.361383, -0.7364507, 8.320969, 0
1183, 2990554931, 0.7695852, 0.16033143, -0.3222568, 0.52744144, -2.3063726, 9.028681, 6.051013, 0
1184, 2990571598, 0.77865374, 0.15768597, -0.31163165, 0.5212779, 1.4300408, 6.711765, 3.943367, 0
1185, 2990588265, 0.78394365, 0.16155592, -0.3009707, 0.51842064, 4.5117717, 2.012535, 1.0723267, 0
1188, 2990638266, 0.7850718, 0.1645579, -0.28848436, 0.5228489, 0.5345218, 0.20708342, -1.8641844, 0
1189, 2990654933, 0.7823651, 0.16657837, -0.29314512, 0.52367324, -3.2411556, -2.0311458, -2.1250463, 0
1191, 2990688267, 0.77883816, 0.17271361, -0.30477533, 0.5202925, -3.4645956, -3.0102823, -3.2214918, 0
1192, 2990704934, 0.7790341, 0.17697549, -0.30430028, 0.51884305, -1.1324637, -0.26771498, -0.4529314, 0
1193, 2990721601, 0.77901316, 0.18224877, -0.30270717, 0.51798004, 3.9395463, -0.055318173, 2.1233377, 0
1195, 2990754935, 0.77806926, 0.18879147, -0.3027172, 0.51704895, 0.46606073, 0.22167791, 2.84871, 0
1197, 2990788269, 0.7746772, 0.1890144, -0.30683482, 0.5196273, -2.6543126, 0.016386405, 0.47337818, 0
1199, 2990821603, 0.7744902, 0.18840432, -0.31097138, 0.51766497, -3.2714033, 0.10321515, -1.0128317, 0
1200, 2990838270, 0.77429825, 0.18998815, -0.31204367, 0.51672685, -2.4058309, -0.4189109, -2.0036716, 0
1202, 2990871604, 0.7722579, 0.19428715, -0.31445265, 0.51672137, -0.17216438, -1.7821455, -1.7096453, 0
1203, 2990888271, 0.77113205, 0.1952982, -0.317023, 0.516451, 0.7041505, -1.707381, -0.81869507, 0
1204, 2990904938, 0.7703982, 0.19551091, -0.31964836, 0.51584727, 0.7157187, -1.2488134, 0.11139774, 0
1206, 2990938272, 0.76853716, 0.19702905, -0.32417536, 0.5152203, 0.15716067, -0.75854033, 0.8966923, 0
1207, 2990954939, 0.76688486, 0.196998, -0.32769543, 0.5154669, -0.0154849775, -0.5968593, 0.3174553, 0
1208, 2990971606, 0.76478994, 0.19629931, -0.33288968, 0.5155177, -0.5321066, -0.49197927, -0.6318102, 0
1210, 2991004940, 0.76109105, 0.19524631, -0.34541777, 0.5131444, -1.0647435, -0.25198382, -1.7329311, 0
1212, 2991038274, 0.75886375, 0.19721441, -0.3552604, 0.5089533, -1.0137681, 0.016816333, -1.526926, 0
1214, 2991071608, 0.7561483, 0.20260859, -0.36335078, 0.5051503, -0.27211428, -0.63453746, -0.7691431, 0
1215, 2991088275, 0.7545866, 0.20486203, -0.3682906, 0.5029951, 0.023990763, -0.554278, -0.39771843, 0
1216, 2991104942, 0.75271755, 0.20674221, -0.37421623, 0.50064707, 0.12826224, -0.5941918, -0.09974861, 0
1218, 2991138276, 0.748689, 0.21001434, -0.3848832, 0.4972272, -0.30105767, 0.15807061, 0.3292284, 0
1219, 2991154943, 0.7469381, 0.21203385, -0.3891809, 0.49565566, -0.5906124, 0.31357807, 0.27873325, 0
1220, 2991171610, 0.74514186, 0.21419612, -0.39325237, 0.4942138, -0.48555753, 0.19176406, 0.03672409, 0
1222, 2991204944, 0.74155986, 0.21704304, -0.4024358, 0.4909562, -0.09128872, 0.12698117, 0.14243317, 0
1223, 2991221611, 0.73977566, 0.21849173, -0.406563, 0.48960316, 0.09042619, 0.03750335, 0.37686443, 0
1224, 2991238278, 0.73813176, 0.22026032, -0.41027877, 0.48819014, 0.33135527, -0.3264576, 0.3087206, 0
1226, 2991271612, 0.73549163, 0.22297049, -0.4182169, 0.4841923, -0.21635942, -0.15857843, 0.3351736, 0
1227, 2991288279, 0.7342491, 0.22388832, -0.42363435, 0.48093405, -0.16000712, -0.32268247, 0.062275887, 0
1229, 2991321613, 0.73121953, 0.22449687, -0.4363557, 0.47383982, -0.48830876, 0.6350725, -0.86758995, 0
1230, 2991338280, 0.7297435, 0.22523499, -0.4419338, 0.4705841, -0.4080714, 0.36047694, -0.9601574, 0
1231, 2991354947, 0.7279698, 0.22655708, -0.44686377, 0.46803415, 0.036802974, -0.21767479, -1.032362, 0
1234, 2991404948, 0.71883273, 0.23387158, -0.4616433, 0.46419868, 1.1228446, -0.78378725, 0.66019917, 0
1235, 2991421615, 0.7153846, 0.23588914, -0.46863472, 0.4614912, 1.0413331, -0.0058216043, 0.99407387, 0
1237, 2991454949, 0.7084604, 0.23921692, -0.48280546, 0.45581737, 0.28871572, 0.42448428, 0.17246151, 0
1238, 2991471616, 0.7058412, 0.24077626, -0.48794734, 0.4535787, 0.2824037, 0.6892057, -0.21278, 0
1241, 2991521617, 0.69640815, 0.24638176, -0.49895698, 0.45317206, 0.6874946, -1.1405746, 0.38648415, 0
1242, 2991538284, 0.69334984, 0.24857584, -0.5025005, 0.45274788, 0.7002464, -0.9088016, 0.93302727, 0
1243, 2991554951, 0.69003415, 0.24963795, -0.50559455, 0.45378312, 0.32789126, -0.5845835, 0.81506824, 0
1245, 2991588285, 0.68386894, 0.25153223, -0.5099958, 0.45713282, -0.79100925, 0.225656, -0.12077618, 0
1246, 2991604952, 0.6817815, 0.25163382, -0.5112176, 0.458827, -0.939435, 0.33461922, -0.26548767, 0
1247, 2991621619, 0.6799006, 0.2512756, -0.5120419, 0.46089053, -0.6533829, 0.021159636, -0.58210564, 0
1249, 2991654953, 0.6769402, 0.25184983, -0.5117298, 0.4652608, 0.058193386, -0.31121475, 0.06888962, 0
1250, 2991671620, 0.6765657, 0.25278273, -0.510271, 0.46689892, 0.2614592, 0.029269356, 0.6068859, 0
1251, 2991688287, 0.67713636, 0.2539285, -0.5073742, 0.4686036, -0.14579277, 0.23331632, 1.2824974, 0
1253, 2991721621, 0.68051624, 0.25651017, -0.49895525, 0.47133368, -0.5045215, -0.01886047, 0.12792206, 0
1256, 2991771622, 0.6900303, 0.25447646, -0.48298073, 0.47522718, -0.2155655, 0.95687395, -1.5398617, 0
1257, 2991788289, 0.69309497, 0.25352365, -0.47852105, 0.4757877, -0.30810702, 0.81934613, -2.1113167, 0
1258, 2991804956, 0.6962114, 0.25325292, -0.4734745, 0.47643036, -0.37386477, 0.55959445, -2.1367273, 0
1260, 2991838290, 0.7037889, 0.25595808, -0.45513248, 0.48169744, 0.38259652, -1.6397455, -0.24937916, 0
1261, 2991854957, 0.70794374, 0.2561882, -0.44381395, 0.48602843, 0.9467839, -1.4612985, 0.14586353, 0
1262, 2991871624, 0.71315783, 0.2534131, -0.43309766, 0.48951542, 0.44568953, -0.5888844, -1.1163702, 0
1264, 2991904958, 0.72803175, 0.23843622, -0.4138569, 0.49178445, 0.22761688, 2.287179, -1.1385088, 0
1265, 2991921625, 0.7361001, 0.23061652, -0.40216964, 0.4931972, -0.39378223, 2.1623178, -1.5629883, 0
1266, 2991938292, 0.74461186, 0.22443104, -0.38653228, 0.49577004, 0.3693793, 1.2985657, -2.36063, 0
1268, 2991971626, 0.7610463, 0.22015616, -0.34892556, 0.50060165, 4.545961, -0.62134975, -5.995595, 0
1270, 2992004960, 0.7755176, 0.21924871, -0.31991783, 0.498163, 3.6686685, -1.1892304, -3.7078347, 0
1273, 2992054961, 0.79258645, 0.21535048, -0.29109457, 0.49061823, 2.4296024, 8.816351, 5.917701, 0
1274, 2992071628, 0.79781497, 0.21199399, -0.28334716, 0.48813504, 2.4748244, 9.626385, 4.874605, 0
1276, 2992104962, 0.80547523, 0.22128701, -0.26304305, 0.4827644, 5.122588, 2.2181065, 4.5137863, 0
1277, 2992121629, 0.8047918, 0.22573292, -0.2579767, 0.48457605, 1.9796858, -1.6347091, 4.196639, 0
1278, 2992138296, 0.8017494, 0.23136637, -0.25918996, 0.4863121, -4.89725, -3.3260329, 2.1510763, 0
1280, 2992171630, 0.7977209, 0.23701093, -0.25941247, 0.49008527, -5.825672, -4.322256, 0.72155, 0
1281, 2992188297, 0.7965853, 0.23748331, -0.2545267, 0.49424785, 0.83864987, -2.8630228, 1.7608948, 0
1282, 2992204964, 0.7973425, 0.23842493, -0.24950977, 0.49513108, 3.300235, -0.19259575, 5.4439907, 0
1284, 2992238298, 0.7925374, 0.24087566, -0.24687414, 0.5029192, -1.5152075, 2.2389388, 4.708994, 0
1287, 2992288299, 0.7862218, 0.244102, -0.24810764, 0.51061064, -1.3501968, 1.2285359, 0.96825886, 0
1288, 2992304966, 0.7862952, 0.24260837, -0.2496943, 0.5104361, -1.5128353, 1.0472581, 0.69221973, 0
1289, 2992321633, 0.78678966, 0.24138665, -0.2521245, 0.50905716, -1.1666108, 1.4585817, 0.08743858, 0
1291, 2992354967, 0.7879134, 0.24062026, -0.26023862, 0.5035691, -0.5348247, 0.27559304, -1.1583176, 0
1292, 2992371634, 0.7879813, 0.24113107, -0.26519537, 0.5006236, -0.29254493, -0.55473816, -1.5897589, 0
1293, 2992388301, 0.78749186, 0.24234845, -0.2702777, 0.49808133, -0.08494297, -1.0079368, -1.6825457, 0
1295, 2992421635, 0.7852895, 0.24222545, -0.2832316, 0.49440706, 0.031073218, -1.529265, -1.3506613, 0
1296, 2992438302, 0.7844736, 0.24006143, -0.2903204, 0.49264312, 0.024720086, -1.2820128, -0.8997021, 0
1297, 2992454969, 0.78393865, 0.23753785, -0.29805392, 0.49009305, 0.28717548, -0.576678, -1.0455055, 0
1299, 2992488303, 0.7822993, 0.23544732, -0.31221795, 0.4848746, -0.75123173, 0.52037036, -0.45490074, 0
1300, 2992504970, 0.7811724, 0.23514794, -0.31953752, 0.48206013, -0.46090874, 0.20392394, -0.8121052, 0
1301, 2992521637, 0.7798491, 0.23606467, -0.32630333, 0.47921425, -1.2599435, -0.3450575, -0.5637655, 0
1303, 2992554971, 0.77950966, 0.23428589, -0.34160408, 0.4698861, -0.17395611, -0.37372243, -1.304987, 0
1304, 2992571638, 0.78030735, 0.23157007, -0.34987757, 0.46378088, 0.4717612, -0.19601896, -0.8609009, 0
1305, 2992588305, 0.7805622, 0.2291525, -0.35848394, 0.45794362, 0.85672873, 0.41129312, -0.51694775, 0
1307, 2992621639, 0.7782195, 0.2266384, -0.37512913, 0.44977635, 0.82399595, 0.17068008, -0.35764694, 0
1308, 2992638306, 0.77649283, 0.22481126, -0.38374197, 0.4463991, 0.27015945, -0.3526212, -0.9153738, 0
1310, 2992671640, 0.7729422, 0.21957791, -0.40053222, 0.44037586, 0.8115123, -0.58541363, -1.1354723, 0
1311, 2992688307, 0.7711623, 0.21719486, -0.40822628, 0.43760437, 1.1135565, -1.2482954, -0.17575645, 0
1314, 2992738308, 0.76347715, 0.21218362, -0.42923826, 0.4334128, -0.01662847, -0.6882726, -0.5924673, 0
1315, 2992754975, 0.7607398, 0.2117833, -0.43499067, 0.43268615, -0.27539212, -0.6064475, -1.1437454, 0
1316, 2992771642, 0.75798804, 0.21195091, -0.4398241, 0.43254697, -0.85525715, -0.4615495, -0.8725872, 0
1318, 2992804976, 0.7522426, 0.21233931, -0.44911808, 0.43283665, -0.51182187, -0.28729388, -0.7817774, 0
1319, 2992821643, 0.74868864, 0.21348199, -0.45298097, 0.43440783, 0.24739175, -0.73557204, 0.03085804, 0
1322, 2992871644, 0.7365193, 0.2169348, -0.46591997, 0.43978223, -0.5578441, -0.5313996, -0.08520889, 0
1323, 2992888311, 0.7329416, 0.21806479, -0.46977407, 0.44109845, -0.46447265, -0.578086, -0.05502224, 0
1324, 2992904978, 0.7286838, 0.22003715, -0.47332916, 0.44336694, -0.76385975, -0.7269517, 0.36937618, 0
1326, 2992938312, 0.72018147, 0.22417712, -0.48140538, 0.4464789, -0.39505824, -0.14632834, -0.10720348, 0
1327, 2992954979, 0.71594244, 0.22642973, -0.4848935, 0.4483809, -0.33615297, 0.2507332, -0.22852516, 0
1330, 2993004980, 0.70448184, 0.23100848, -0.49354428, 0.45471516, -0.53401446, 0.15902723, 0.104192734, 0
1331, 2993021647, 0.70076764, 0.23205578, -0.49683726, 0.45633197, -0.5063918, 0.26402178, 0.13730907, 0
1332, 2993038314, 0.6967815, 0.23325458, -0.50058275, 0.45772934, -0.25246102, 0.10103998, 0.06860542, 0
1334, 2993071648, 0.690128, 0.23436435, -0.5069859, 0.46018815, -0.68913156, 0.39697647, -0.29178333, 0
1335, 2993088315, 0.6877652, 0.23426166, -0.50959814, 0.4608921, -0.67424893, 0.65762085, 0.064227104, 0
1337, 2993121649, 0.685388, 0.23315614, -0.5133821, 0.46079436, -0.33234096, 0.46433073, 1.3883553, 0
1338, 2993138316, 0.68504316, 0.23271547, -0.5141867, 0.46063286, -0.11093529, 0.058612026, 1.4931688, 0
1339, 2993154983, 0.6855924, 0.23301211, -0.51400614, 0.45986667, 0.19121623, -0.4963665, 0.8525963, 0
1341, 2993188317, 0.68750167, 0.23029947, -0.5112999, 0.4613971, 0.38329834, -0.11867527, 0.5671921, 0
1342, 2993204984, 0.68848264, 0.22919238, -0.50895274, 0.46307772, 0.07461533, -0.26575473, -0.0073919296, 0
1345, 2993254985, 0.6936131, 0.22487423, -0.49918014, 0.46814835, -0.046052385, 0.29420897, -1.2063599, 0
1346, 2993271652, 0.69512016, 0.22442514, -0.49472636, 0.4708484, 0.9182724, 0.21986662, -1.1959677, 0
1347, 2993288319, 0.69750214, 0.22332972, -0.48878336, 0.4740427, 1.2868472, 0.17690195, -0.76666737, 0
1349, 2993321653, 0.7022747, 0.21958768, -0.47555274, 0.48213303, -0.6997453, 0.17402825, -1.9195371, 0
1350, 2993338320, 0.705031, 0.21737564, -0.46885124, 0.48566335, -0.52009284, 0.6456643, -1.4680853, 0
1351, 2993354987, 0.70844203, 0.21487305, -0.46180025, 0.4885604, -0.24380413, 1.0857292, -1.6873274, 0
1353, 2993388321, 0.7179695, 0.21253234, -0.44009596, 0.49565762, 0.36795396, 0.40434164, -0.9450722, 0
1354, 2993404988, 0.72333986, 0.21143031, -0.42594528, 0.50065804, 0.51261824, -0.12622543, -0.54199314, 0
1355, 2993421655, 0.72850627, 0.20909496, -0.41366833, 0.50442797, -0.025389954, -0.5327648, -1.6046333, 0
1357, 2993454989, 0.7373197, 0.20003168, -0.39401695, 0.5109881, 0.107163735, 1.1079267, -1.9538884, 0
1359, 2993488323, 0.74939394, 0.19002983, -0.37171915, 0.51393914, 0.93297505, 1.1763941, -2.5103874, 0
1361, 2993521657, 0.76124763, 0.18784717, -0.33984557, 0.519357, 3.4150648, 1.2454485, -3.2648177, 0
1362, 2993538324, 0.7663506, 0.18862423, -0.32559803, 0.5206964, 3.9701846, 0.3075546, -0.61802197, 0
1364, 2993571658, 0.7735884, 0.19066705, -0.30517778, 0.52161735, 2.216887, 5.2795134, 3.8964787, 0
1365, 2993588325, 0.7768423, 0.19252789, -0.2962148, 0.521265, 2.2721274, 5.543034, 3.613822, 0
1366, 2993604992, 0.78138155, 0.19399984, -0.28615332, 0.51955223, 1.878535, 4.6233916, 2.9249887, 0
1368, 2993638326, 0.7836021, 0.20466188, -0.268256, 0.52166176, -0.62992567, 1.9863203, 3.3463297, 0
1369, 2993654993, 0.78113705, 0.21132462, -0.26547882, 0.52411735, -2.7780519, -0.9803922, 3.5435076, 0
1370, 2993671660, 0.77927136, 0.2142131, -0.2687177, 0.52407163, -5.744447, -4.6808305, 1.8903475, 0
1372, 2993704994, 0.78031296, 0.21695036, -0.26873207, 0.52138156, -1.1271718, -1.7594669, 2.554473, 0
1373, 2993721661, 0.7815508, 0.22146973, -0.26562184, 0.51921636, 3.8326442, 0.43025416, 6.165203, 0
1374, 2993738328, 0.78218985, 0.22409926, -0.26395997, 0.517972, 0.6145721, 1.8916601, 6.3271694, 0
1376, 2993771662, 0.78195745, 0.22113717, -0.2660023, 0.51855075, -2.493372, 2.858153, 3.8091211, 0
1377, 2993788329, 0.7816072, 0.21887448, -0.26947147, 0.5182475, -2.5803716, 2.71142, 1.8175936, 0
1378, 2993804996, 0.78143406, 0.21837275, -0.27284035, 0.5169561, -1.8085225, 1.9376035, 0.9583912, 0
1380, 2993838330, 0.781078, 0.21990378, -0.28049338, 0.51273227, -0.7523261, -0.7751152, -0.9297495, 0
1381, 2993854997, 0.78000087, 0.22086999, -0.2854834, 0.5112, 0.24379966, -1.6870413, -2.5274749, 0
1382, 2993871664, 0.7784398, 0.22075884, -0.29120988, 0.5103969, 0.6972596, -1.7595959, -2.5147128, 0
1384, 2993904998, 0.77563244, 0.21695298, -0.30354866, 0.5091122, -0.4072026, -0.15657322, -1.7692137, 0
1386, 2993938332, 0.7741904, 0.2083846, -0.31795186, 0.5060861, -1.0510652, 0.7330369, -1.4233398, 0
1388, 2993971666, 0.7713147, 0.20579882, -0.3332902, 0.50164676, -0.77031547, -0.31232718, -1.4009857, 0
1389, 2993988333, 0.7684704, 0.2073539, -0.34151945, 0.4998333, -1.8555359, -0.9460036, -1.3733225, 0
1391, 2994021667, 0.7614309, 0.2125276, -0.3561402, 0.49822742, -0.772936, -2.1983714, -1.1830254, 0
1392, 2994038334, 0.7578281, 0.21393225, -0.36319786, 0.49802423, -0.39972857, -1.8963679, -1.1643257, 0
1393, 2994055001, 0.75497216, 0.21259412, -0.3719213, 0.49649435, 0.10445565, -0.8729431, -1.2036467, 0
1395, 2994088335, 0.7487086, 0.20949623, -0.38984036, 0.49354082, 0.12369587, 1.1442529, -0.40274525, 0
1396, 2994105002, 0.7453227, 0.21138082, -0.39674437, 0.4923588, -0.45939913, 1.6441423, -0.057541847, 0
1397, 2994121669, 0.74196595, 0.21524388, -0.40269428, 0.4909226, -0.43200204, 0.8578183, -0.47534275, 0
1399, 2994155003, 0.7344404, 0.22315392, -0.4144778, 0.48889595, 0.30138242, -0.7399865, -0.724988, 0
1401, 2994188337, 0.72626966, 0.2291721, -0.427465, 0.48713174, 0.6267985, -0.24576378, -0.5377426, 0
1403, 2994221671, 0.7182271, 0.23446237, -0.4390062, 0.48627365, 0.25965658, 0.86923575, -0.2746849, 0
1404, 2994238338, 0.7142777, 0.23691273, -0.44432786, 0.48606992, 0.1585934, 1.1609098, -0.16274738, 0
1405, 2994255005, 0.71049845, 0.23924728, -0.4490307, 0.4861431, -0.005287646, 0.59433985, -0.2716217, 0
1407, 2994288339, 0.7042462, 0.24499588, -0.45502958, 0.48679948, 0.022566762, -1.417899, 0.5296917, 0
1408, 2994305006, 0.70106965, 0.2490578, -0.45726728, 0.4872265, 0.1955108, -1.5370855, 0.86255074, 0
1409, 2994321673, 0.6982613, 0.25231874, -0.46097204, 0.4860889, -0.2453296, -0.73423266, 1.0568027, 0
1411, 2994355007, 0.6919327, 0.25750658, -0.4693036, 0.48444277, -0.6140124, 0.47081628, -0.17542171, 0
1412, 2994371674, 0.68900543, 0.25918272, -0.47275543, 0.48436475, -1.0549297, 0.5790519, -0.5423765, 0
1413, 2994388341, 0.6866743, 0.25993913, -0.4755465, 0.48453754, -1.1659851, 0.3794299, -0.9720669, 0
1416, 2994438342, 0.6794145, 0.26502243, -0.48016077, 0.4874586, 0.38422745, -0.85444516, -0.2006855, 0
1417, 2994455009, 0.6767683, 0.26789466, -0.48212653, 0.48762953, 0.5195693, -0.4779373, 0.7417507, 0
1419, 2994488343, 0.67307717, 0.27179193, -0.48574176, 0.48699325, -0.48551708, 0.4235251, 0.80027485, 0
1420, 2994505010, 0.67215455, 0.2729621, -0.48587927, 0.48747587, -0.51268595, 0.5916015, 0.63362217, 0
1422, 2994538344, 0.67153645, 0.27424222, -0.48409542, 0.48937994, 0.15636162, -0.15574461, 0.46884632, 0
1423, 2994555011, 0.6710248, 0.27494705, -0.4833481, 0.49042404, 0.2720269, -0.69384915, 0.45403957, 0
1424, 2994571678, 0.6707531, 0.27501923, -0.48376274, 0.4903466, -0.51608783, 0.11625557, 0.20339012, 0
1426, 2994605012, 0.672328, 0.27480602, -0.48208687, 0.48995948, -0.4185345, 0.16340093, -0.093182564, 0
1427, 2994621679, 0.6747144, 0.27439985, -0.47955316, 0.48939255, -0.3746017, -0.6080472, -0.45294094, 0
1428, 2994638346, 0.67710364, 0.27358145, -0.47673815, 0.48930132, -0.43880892, -1.1475606, -0.6497412, 0
1431, 2994688347, 0.68596864, 0.26959038, -0.4731259, 0.4826297, 0.13507693, 0.08723677, -0.36053085, 0
1432, 2994705014, 0.6916056, 0.26686054, -0.4676932, 0.48139527, 0.35437936, 0.4486325, 0.3438549, 0
1434, 2994738348, 0.7030132, 0.25999826, -0.45550105, 0.48031595, -0.25746748, 0.3876355, -0.71850777, 0
1435, 2994755015, 0.70798016, 0.25578964, -0.4501963, 0.4802815, 0.21483126, 0.57177687, -0.96733284, 0
1436, 2994771682, 0.71279085, 0.24994935, -0.44604146, 0.48011744, 0.29473647, 1.2214022, -0.8691902, 0
1438, 2994805016, 0.72289985, 0.24168932, -0.4321215, 0.4819589, 1.0570676, 0.014093386, -0.60719204, 0
1439, 2994821683, 0.7291535, 0.2385096, -0.42135528, 0.4836521, 1.368145, -0.5281164, -0.004006386, 0
1440, 2994838350, 0.735102, 0.2353593, -0.40909484, 0.4867071, 0.29064083, -1.3374956, -0.82983303, 0
1442, 2994871684, 0.7464241, 0.22980915, -0.38473782, 0.49196225, 1.3795942, -0.19741324, -1.5811052, 0
1443, 2994888351, 0.75242317, 0.22427982, -0.37369272, 0.49388576, 1.322991, 0.40077925, -1.7638597, 0
1445, 2994921685, 0.7648333, 0.21025746, -0.3491041, 0.49895847, 0.4234891, 0.25089043, -1.2360277, 0
1446, 2994938352, 0.7715539, 0.20489416, -0.3335766, 0.5014589, 1.0677239, 0.2701054, -1.2409611, 0
1447, 2994955019, 0.7779273, 0.20054367, -0.3170743, 0.5040703, 1.4818125, -0.7086882, -2.486045, 0
1449, 2994988353, 0.7897607, 0.18304572, -0.29209054, 0.5074116, 2.7162504, 1.1703117, 0.44630718, 0
1450, 2995005020, 0.7946605, 0.17418212, -0.2822469, 0.5084518, 1.788525, 4.707801, 1.6559296, 0
1451, 2995021687, 0.7996341, 0.16988324, -0.27048868, 0.5084999, 1.851398, 7.1449943, 4.4163857, 0
1454, 2995071688, 0.8107092, 0.17502093, -0.2419859, 0.5035598, 3.9721503, 1.0463324, 0.99989986, 0
1455, 2995088355, 0.81063193, 0.18208368, -0.23690838, 0.50359416, 3.0715375, 0.9778059, 1.4463415, 0
1457, 2995121689, 0.80660844, 0.19605954, -0.23732617, 0.50460976, -3.6156545, -3.564433, 0.7750397, 0
1459, 2995155023, 0.80355483, 0.20120241, -0.24178025, 0.50534225, -3.1754315, -3.0041907, 4.8116674, 0
1461, 2995188357, 0.8015028, 0.20831722, -0.23925886, 0.50691587, 1.5728774, -0.2209096, 4.9629745, 0
1462, 2995205024, 0.79831904, 0.21296394, -0.2375056, 0.51081854, 1.2177795, 0.31436157, 3.0304918, 0
1463, 2995221691, 0.7941784, 0.21143189, -0.24006754, 0.51667774, -0.23027667, 0.14131528, 1.533556, 0
1465, 2995255025, 0.791319, 0.20306075, -0.25144562, 0.51900566, -3.455459, 3.7074363, -0.29271984, 0
1466, 2995271692, 0.7905773, 0.20371866, -0.2561887, 0.51755667, -3.268025, 3.2086117, -0.6833658, 0
1467, 2995288359, 0.7900509, 0.20541263, -0.26130444, 0.51512754, -3.256201, 1.1868796, -0.7930069, 0
1469, 2995321693, 0.79290617, 0.20624566, -0.2740724, 0.5036447, -1.0142429, -0.43679225, -1.163804, 0
1470, 2995338360, 0.7942709, 0.20435444, -0.2809367, 0.49845642, 0.37581715, -0.9141644, -1.1676903, 0
1472, 2995371694, 0.79486614, 0.20140466, -0.29610854, 0.489852, 0.36571974, -0.9226625, -1.3127041, 0
1474, 2995405028, 0.7924773, 0.19607249, -0.31528226, 0.48388398, 0.04372584, -1.0504783, -1.406704, 0
1476, 2995438362, 0.7873309, 0.193232, -0.33705786, 0.47872186, 0.6755013, -0.94149536, -1.4743404, 0
1477, 2995455029, 0.78466994, 0.19118422, -0.35025623, 0.4744196, -0.9432972, -0.8785123, -2.4602613, 0
1478, 2995471696, 0.7816516, 0.18980044, -0.36110485, 0.47181678, -0.12895468, -1.0291584, -1.9463024, 0
1480, 2995505030, 0.77431244, 0.18950596, -0.3790293, 0.46997434, 0.5963035, -0.7037405, -0.6252661, 0
1481, 2995521697, 0.7707312, 0.19038936, -0.38793582, 0.46823353, -0.117737465, 0.007660739, -0.22148514, 0
1482, 2995538364, 0.76685435, 0.19251171, -0.39601985, 0.46696165, 0.29438263, -0.5786632, -0.19790268, 0
1484, 2995571698, 0.7591281, 0.1976737, -0.41175747, 0.46380666, 0.5006368, -0.7371843, -0.8812847, 0
1485, 2995588365, 0.7545864, 0.20044377, -0.41907805, 0.46347237, 0.31865773, -0.34659275, -0.8158846, 0
1486, 2995605032, 0.7495086, 0.20341974, -0.426068, 0.4640416, -0.051382724, 0.031636134, -0.73284626, 0
1489, 2995655033, 0.7341108, 0.2150897, -0.4424529, 0.4680431, -0.8371709, 0.07626424, -1.3742847, 0
1490, 2995671700, 0.729354, 0.22017431, -0.4455545, 0.4701683, -0.1492928, -0.43655136, 0.1246109, 0
1492, 2995705034, 0.7211002, 0.22786136, -0.4535316, 0.47160816, -0.5646009, 0.009654977, 0.8100014, 0
1493, 2995721701, 0.7173893, 0.23107395, -0.4580539, 0.4713335, -0.48949605, 0.37429234, 0.8003359, 0
1494, 2995738368, 0.71394235, 0.23355162, -0.46316126, 0.47035384, -0.6847187, 0.8318226, 0.43773174, 0
1496, 2995771702, 0.70967686, 0.23651554, -0.4720365, 0.46648896, -0.48682126, 0.9499236, 0.039533615, 0
1497, 2995788369, 0.7084135, 0.23726499, -0.4757412, 0.46425968, -0.43815914, 0.43766597, -0.09745884, 0
1499, 2995821703, 0.7068007, 0.23807651, -0.48087093, 0.4610059, -0.18660915, -0.41583565, 0.21851444, 0
1500, 2995838370, 0.7058948, 0.23827186, -0.48362255, 0.45941225, -0.6290146, -0.73079157, 0.02315998, 0
1501, 2995855037, 0.7051949, 0.23859145, -0.48690352, 0.45684844, 0.21993674, -0.39405015, 0.5686102, 0
1504, 2995905038, 0.70230174, 0.23829657, -0.496439, 0.45116127, -0.42569786, -0.053797334, -0.17193031, 0
1505, 2995921705, 0.7017907, 0.23930857, -0.49765545, 0.45007944, 0.010520754, -0.31945896, -0.35148144, 0
1507, 2995955039, 0.698807, 0.2428199, -0.49970317, 0.45057195, 0.30796868, -0.68751323, 0.18607235, 0
1508, 2995971706, 0.6959795, 0.2451398, -0.5013597, 0.45185056, 0.23261797, -0.43624833, 0.50323486, 0
1509, 2995988373, 0.69295627, 0.24786025, -0.50215197, 0.4541272, 0.22042938, -0.30318883, 0.80055237, 0
1511, 2996021707, 0.68789357, 0.25213736, -0.5031364, 0.45836037, -0.67627376, 0.0038181602, 0.35443115, 0
1512, 2996038374, 0.6861497, 0.25339407, -0.50291896, 0.46051496, -0.67568505, 0.3111593, 0.1816845, 0
1513, 2996055041, 0.68470484, 0.25444174, -0.50209343, 0.46298173, -0.3345904, 0.34135434, 0.34214115, 0
1515, 2996088375, 0.6823572, 0.255368, -0.50095016, 0.4671576, -0.4904398, 0.6697291, 0.6191511, 0
1516, 2996105042, 0.68217903, 0.25473535, -0.50004953, 0.46872526, -0.53274626, 0.7236366, 0.67903805, 0
1517, 2996121709, 0.68339247, 0.25340164, -0.49770087, 0.47017813, -0.66861665, 0.83071506, 0.49377632, 0
1519, 2996155043, 0.68910223, 0.24946344, -0.49024397, 0.47178188, -0.7111704, 0.49489388, -0.14707088, 0
1520, 2996171710, 0.6924296, 0.24728554, -0.48628083, 0.47215825, -0.8234351, 0.52136004, -0.14653969, 0
1521, 2996188377, 0.6954305, 0.2458292, -0.48121455, 0.47369638, -0.30569553, 0.03863466, -0.15652466, 0
1523, 2996221711, 0.7019723, 0.24154156, -0.4715755, 0.4759416, -0.3506344, -0.39068186, -1.1913157, 0
1524, 2996238378, 0.7051449, 0.23990098, -0.4660014, 0.4775692, -0.14021593, -0.3509995, -0.91278744, 0
1526, 2996271712, 0.7114543, 0.24044089, -0.45176297, 0.4816043, 0.24324289, -1.2638645, -0.4360609, 0
1527, 2996288379, 0.71410197, 0.24058706, -0.44433323, 0.48451564, 0.8910297, -1.2225757, -0.45553493, 0
1528, 2996305046, 0.7174414, 0.23899639, -0.43701094, 0.48702303, 0.92951393, -0.5496352, -0.23491192, 0
1531, 2996355047, 0.7315111, 0.22641428, -0.40989816, 0.49560362, -0.67294836, 0.57619655, -1.7532587, 0
1532, 2996371714, 0.7367503, 0.21979886, -0.39955086, 0.49925727, -0.47586828, 0.4965273, -2.1721754, 0
1534, 2996405048, 0.7476076, 0.20864357, -0.37586868, 0.50624573, 0.79021555, -0.26339704, -3.2729049, 0
1535, 2996421715, 0.75303763, 0.20237777, -0.3636967, 0.50962114, 0.9066336, -0.29769316, -2.1966286, 0
1536, 2996438382, 0.7580743, 0.19708765, -0.35230196, 0.51222503, 0.9404931, -0.0028285563, -2.5410123, 0
1538, 2996471716, 0.7665928, 0.19332671, -0.3244174, 0.5193504, 2.3545341, -0.7299537, -3.267161, 0
1539, 2996488383, 0.7692926, 0.19568905, -0.30854094, 0.5241266, 3.6654892, -0.5105004, -3.645101, 0
1542, 2996538384, 0.7733708, 0.19625583, -0.27343446, 0.5372397, 2.0892992, 4.1347547, 3.792346, 0
1543, 2996555051, 0.7754666, 0.1960184, -0.2644092, 0.53882027, 1.8927634, 5.7072554, 4.838461, 0
1544, 2996571718, 0.7768239, 0.19788957, -0.2562342, 0.54012936, 1.1598704, 6.0674314, 3.7327795, 0
1547, 2996621719, 0.78119147, 0.20988338, -0.23280534, 0.539909, -1.4331532, 2.4277313, 3.500329, 0
1548, 2996638386, 0.78006417, 0.21567559, -0.2340761, 0.53870547, -3.7616556, -1.4604383, 0.81006527, 0
1550, 2996671720, 0.78024554, 0.2206262, -0.2386772, 0.5344018, -2.5424669, -2.2622514, 3.286703, 0
1551, 2996688387, 0.7814764, 0.22081071, -0.24142055, 0.5312859, -0.41761562, 0.46356317, 5.92517, 0
1552, 2996705054, 0.78269935, 0.22214034, -0.24382822, 0.52782047, -0.7272484, 0.39857143, 4.928565, 0
1554, 2996738388, 0.78414893, 0.22307777, -0.2473715, 0.5236083, 0.2304452, -0.01656622, 2.5175552, 0
1555, 2996755055, 0.78444153, 0.22050756, -0.2508824, 0.52258706, 0.31758487, 0.628729, 2.1111174, 0
1557, 2996788389, 0.7856496, 0.21595448, -0.261428, 0.5174794, -1.6029592, 1.3101707, 0.56167793, 0
1558, 2996805056, 0.7869244, 0.2157202, -0.26650324, 0.5130323, -1.0132327, 1.126126, 0.20767403, 0
1559, 2996821723, 0.7880389, 0.21530631, -0.27175376, 0.5087228, 0.5131902, 0.99607956, -0.3320675, 0
1562, 2996871724, 0.7886536, 0.2145153, -0.28992042, 0.49796188, 0.8737689, -1.394121, -1.9444809, 0
1563, 2996888391, 0.78717834, 0.2137558, -0.29688102, 0.49651968, 1.041658, -1.3284718, -1.5409861, 0
1565, 2996921725, 0.78235495, 0.21231914, -0.31200242, 0.49548668, 0.055950876, -0.7739627, -0.4388895, 0
1566, 2996938392, 0.77966535, 0.2110708, -0.31957808, 0.49543127, -0.04508055, -0.6128384, -0.37760258, 0
1567, 2996955059, 0.777805, 0.20787126, -0.3285323, 0.4938491, -0.6298318, -0.1650104, -0.8370342, 0
1569, 2996988393, 0.7744865, 0.19991834, -0.3470028, 0.48969746, -0.7014992, 0.26373652, -1.4893322, 0
1570, 2997005060, 0.77197826, 0.19891271, -0.35520163, 0.48818678, -0.8317686, 0.396112, -1.7449646, 0
1571, 2997021727, 0.7684802, 0.20088878, -0.3619472, 0.4879422, -0.9365671, -0.212929, -1.9869046, 0
1573, 2997055061, 0.76156074, 0.20428617, -0.37593392, 0.48680326, 0.25452715, -1.6466177, -1.9714851, 0
1574, 2997071728, 0.7590687, 0.20355546, -0.38434547, 0.4844272, -0.6487866, -0.8903681, -1.4796762, 0
1577, 2997121729, 0.7488085, 0.20817931, -0.4049241, 0.48165858, -0.5226111, 0.6682223, -0.40912437, 0
1578, 2997138396, 0.7447782, 0.21270189, -0.4094011, 0.48214683, -0.53600264, 0.2837425, -0.3247347, 0
1580, 2997171730, 0.73626775, 0.21970369, -0.41780227, 0.48486355, -0.069298625, -0.83490855, 0.036233902, 0
1581, 2997188397, 0.73174405, 0.22268611, -0.42200568, 0.48670736, -0.044730082, -0.6474921, -0.29292774, 0
1582, 2997205064, 0.7273643, 0.22606736, -0.42519966, 0.48892874, -0.19943972, -0.70239526, 0.0025577545, 0
1584, 2997238398, 0.7200271, 0.23368189, -0.429882, 0.49210417, -0.19477232, -0.26081324, 0.39330482, 0
1585, 2997255065, 0.7174894, 0.23651454, -0.4330391, 0.49168935, 0.05570658, 0.36102372, -0.034308434, 0
1586, 2997271732, 0.71454734, 0.23888977, -0.4369889, 0.49133062, -0.09026325, 0.4305577, 0.12861633, 0
1588, 2997305066, 0.7107847, 0.24146351, -0.44345042, 0.48973823, -0.7773237, 0.90003973, -0.5510292, 0
1589, 2997321733, 0.7099121, 0.24242456, -0.44530195, 0.4888482, -0.77435976, 0.385738, -0.6497803, 0
1590, 2997338400, 0.7092358, 0.2432513, -0.44660616, 0.48822927, -0.27046117, -0.14772664, -0.340621, 0
1592, 2997371734, 0.70630056, 0.24652237, -0.45112464, 0.48668677, 0.4275405, -0.43616676, 0.025748253, 0
1593, 2997388401, 0.70445156, 0.24816701, -0.45408854, 0.48577365, -0.12920748, -0.01185848, -0.157938, 0
1594, 2997405068, 0.703073, 0.24990918, -0.45617932, 0.484918, -0.13312186, 0.09575742, -0.09229469, 0
1596, 2997438402, 0.70063794, 0.2546376, -0.4599647, 0.4824003, 0.18695384, 0.14885907, 0.49982166, 0
1597, 2997455069, 0.69930875, 0.25707787, -0.46253568, 0.48057288, -0.076707855, 0.32595932, 0.6922445, 0
1598, 2997471736, 0.6980152, 0.25988114, -0.46502692, 0.4785373, 0.12573816, 0.47537088, 0.6291952, 0
1600, 2997505070, 0.6955172, 0.2630901, -0.47016883, 0.47538614, -0.32118902, -0.07406471, 0.0539217, 0
1601, 2997521737, 0.6939552, 0.26391461, -0.47307664, 0.47432587, -0.40071827, -0.19602478, -0.3958254, 0
1604, 2997571738, 0.68686044, 0.26788506, -0.4808774, 0.4745825, 0.46550193, -0.6016649, -0.6022577, 0
1605, 2997588405, 0.68376935, 0.270354, -0.48294234, 0.47554836, 0.24233788, -0.71067446, -0.6628294, 0
1607, 2997621739, 0.67766684, 0.27500403, -0.488152, 0.47629768, -0.30625477, 0.03081439, -0.4180193, 0
1608, 2997638406, 0.67540854, 0.27653074, -0.49088094, 0.47581613, -0.39478782, 0.5723235, 0.30751705, 0
1609, 2997655073, 0.67405146, 0.27811536, -0.49291447, 0.4747135, -0.25632375, 0.83452183, 0.68958664, 0
1611, 2997688407, 0.67421806, 0.279028, -0.4960044, 0.47070602, 0.25702024, 0.52261686, 1.0491991, 0
1612, 2997705074, 0.6748388, 0.27922255, -0.4971741, 0.46846187, 0.39945295, 0.080588266, 0.87882423, 0
1613, 2997721741, 0.6757608, 0.27855122, -0.4984564, 0.4661641, 0.020018267, 0.41010863, 0.6687479, 0
1615, 2997755075, 0.6773941, 0.2761026, -0.500352, 0.4632101, 0.15021189, -0.2991342, 0.45284462, 0
1616, 2997771742, 0.6780498, 0.2748658, -0.50082016, 0.4624799, 0.6955093, -0.44381264, 0.36109924, 0
1619, 2997821743, 0.68123555, 0.27055305, -0.500899, 0.46025056, 0.3431049, -0.31803882, 0.12862682, 0
1620, 2997838410, 0.68260765, 0.26862526, -0.5001712, 0.46013853, 0.30651093, -0.21202517, -0.27770138, 0
1621, 2997855077, 0.68407595, 0.26648113, -0.49853337, 0.46098107, 0.27871618, -0.52029765, -0.47878838, 0
1623, 2997888411, 0.68764144, 0.2626965, -0.49344382, 0.46331868, 0.15895571, -1.0864075, -0.1571579, 0
1624, 2997905078, 0.689787, 0.2615163, -0.4903542, 0.46407676, 0.092098065, -1.0358471, 0.14005375, 0
1625, 2997921745, 0.6923106, 0.26071292, -0.48673248, 0.4645831, -0.09720534, -0.6341529, 0.4358158, 0
1627, 2997955079, 0.69759965, 0.25890148, -0.4783543, 0.46638286, 0.16417697, 0.13065706, 0.40642166, 0
1628, 2997971746, 0.7008864, 0.2584222, -0.47127897, 0.4689178, -0.0143638365, -0.42982888, 0.19073868, 0
1629, 2997988413, 0.70467377, 0.25781316, -0.4633858, 0.47143632, -0.49115652, -0.8238132, -0.5156441, 0
1631, 2998021747, 0.712019, 0.25258708, -0.44949982, 0.47664446, -0.017402122, -0.3207219, -1.1771364, 0
1634, 2998071748, 0.7204144, 0.24871498, -0.42879573, 0.48506624, 0.6032644, -0.09407442, -1.2982073, 0
1635, 2998088415, 0.72268754, 0.25030938, -0.4180159, 0.4902469, 0.6908953, -1.112885, -0.24568748, 0
1636, 2998105082, 0.7256481, 0.25252187, -0.40504426, 0.49559844, 0.9445662, -1.9168676, -0.1118536, 0
1638, 2998138416, 0.73061883, 0.25243905, -0.3809083, 0.50733715, -0.01321118, -0.7891875, -2.820785, 0
1640, 2998171750, 0.7390759, 0.24369565, -0.3573763, 0.51640344, 0.56488097, 2.0730836, -2.1830487, 0
1644, 2998238418, 0.7622769, 0.24736434, -0.2926453, 0.5216461, 3.016127, 0.44066238, -0.7577915, 0
1646, 2998271752, 0.7731357, 0.24787351, -0.261894, 0.5217689, 1.3444346, 3.3224924, 2.5536308, 0
1647, 2998288419, 0.7762685, 0.24529031, -0.25268486, 0.522878, 2.531589, 4.88579, 3.2671394, 0
1648, 2998305086, 0.77869314, 0.24141589, -0.24597572, 0.52427334, 3.173971, 4.362994, 2.6932373, 0
1650, 2998338420, 0.78463006, 0.23771657, -0.23522973, 0.5220389, 0.7438947, 3.0773387, 0.6621237, 0
1654, 2998405088, 0.78535676, 0.24274504, -0.2368578, 0.5178797, -4.2959566, -3.7802296, 1.0976944, 0
1655, 2998421755, 0.7874776, 0.23909977, -0.23901641, 0.5153569, 0.12532327, -0.829706, 4.0372076, 0
1656, 2998438422, 0.78960836, 0.2372897, -0.24103199, 0.5119835, 1.0147557, -0.31841186, 4.944152, 0
1658, 2998471756, 0.7915968, 0.23585476, -0.24745587, 0.5064821, -0.66767967, 0.05365473, 1.6443796, 0
1659, 2998488423, 0.7920605, 0.23489901, -0.25227758, 0.5038154, -0.13498439, 0.24756272, 0.7432127, 0
1661, 2998521757, 0.79348356, 0.22876282, -0.26433283, 0.49818757, -0.83754975, 2.2744052, 1.4879704, 0
1662, 2998538424, 0.7940015, 0.22679368, -0.27093408, 0.49470437, -1.2397858, 2.4987044, 1.0469189, 0
1663, 2998555091, 0.7942308, 0.22552182, -0.27708915, 0.49149778, -0.36482254, 1.3538625, 0.30334473, 0
1665, 2998588425, 0.7936416, 0.22268812, -0.29226613, 0.48490697, 1.0663265, -0.28361315, -0.12818432, 0
1666, 2998605092, 0.7922095, 0.22058913, -0.29997572, 0.48349822, 0.90350014, -0.7944601, -1.1677675, 0
1667, 2998621759, 0.79040194, 0.21730697, -0.3088859, 0.4823311, 0.11695852, -0.82684046, -1.8358464, 0
1669, 2998655093, 0.7871633, 0.21158847, -0.32427636, 0.48006287, -0.42985207, -0.14918573, -0.9686718, 0
1670, 2998671760, 0.7848761, 0.21080904, -0.33137286, 0.47930405, -0.18718092, 0.02675897, -1.0244799, 0
1671, 2998688427, 0.7826358, 0.20976207, -0.3387592, 0.47826207, -0.07570898, -0.046693534, -1.2292957, 0
1673, 2998721761, 0.77896047, 0.20455709, -0.35631368, 0.47373915, -0.45863986, 0.6540777, -1.2122822, 0
1674, 2998738428, 0.7764787, 0.20320444, -0.36459762, 0.47208977, -0.9460235, 0.77092236, -1.4640388, 0
1675, 2998755095, 0.773466, 0.2035034, -0.3723473, 0.470856, -0.99848175, 0.5701196, -1.7361145, 0
1677, 2998788429, 0.7655908, 0.207794, -0.38562635, 0.47116464, 0.0054865726, -0.73271257, -0.6051693, 0
1678, 2998805096, 0.76042426, 0.21155909, -0.39182287, 0.47274053, 0.2805215, -1.1779948, -0.6467142, 0
1681, 2998855097, 0.7465434, 0.21738449, -0.41255596, 0.4745795, -0.60364974, -0.60312885, -0.51890755, 0
1682, 2998871764, 0.7423077, 0.21844074, -0.42018113, 0.4740486, -0.8916316, 0.443811, -0.8746519, 0
1683, 2998888431, 0.73822886, 0.22075115, -0.42639247, 0.47380152, -0.87109524, 0.80850446, -0.74925995, 0
1685, 2998921765, 0.73212326, 0.2266778, -0.43576065, 0.47195, -1.238176, 0.09945746, -0.76640797, 0
1686, 2998938432, 0.7295581, 0.22990598, -0.439584, 0.47081366, -1.0298257, -0.7388268, -0.4687748, 0
1687, 2998955099, 0.7268996, 0.23308468, -0.44350153, 0.46968728, -0.7616977, -1.1854143, 0.018717766, 0
1689, 2998988433, 0.7204981, 0.23932484, -0.45192876, 0.46837777, -0.5774625, -0.60229206, 0.28264713, 0
1690, 2999005100, 0.7166493, 0.24168968, -0.4567409, 0.46840024, -0.4218845, -0.26034287, 0.08696079, 0
1692, 2999038434, 0.7084133, 0.24735871, -0.46340698, 0.47141218, -0.44718638, -0.48166138, 0.042425156, 0
1693, 2999055101, 0.7050901, 0.24893796, -0.46674234, 0.47227156, -0.54338056, -0.47892892, -0.3535061, 0
1696, 2999105102, 0.6943979, 0.25661325, -0.47510645, 0.47565368, -1.2485244, 0.05539925, -0.21545029, 0
1697, 2999121769, 0.69144315, 0.25920877, -0.47895598, 0.47468907, -0.84569144, 0.42342144, 0.14375114, 0
1698, 2999138436, 0.6888212, 0.26160693, -0.48310417, 0.4729786, -1.0446303, 1.461089, 0.026783943, 0
1700, 2999171770, 0.6846427, 0.2669971, -0.48975518, 0.4691779, -0.4755504, 0.723452, -0.123643875, 0
1701, 2999188437, 0.6827077, 0.2689628, -0.4933973, 0.467054, -0.047455378, 0.6374489, -0.16012764, 0
