sep=,
DeviceTag:,Xsens_DOT_1,,,,,,,,,,,,,,,,,
FirmwareVersion:,3.0.0,,,,,,,,,,,,,,,,,
AppVersion:,2023.6.1,,,,,,,,,,,,,,,,,
SyncStatus:,Synced,,,,,,,,,,,,,,,,,
OutputRate:,60Hz,,,,,,,,,,,,,,,,,
FilterProfile:,General,,,,,,,,,,,,,,,,,
Measurement Mode:,Sensor fusion Mode - Extended (Quaternion),,,,,,,,,,,,,,,,,
StartTime:,2025-05-05 11:56:17.859 +0200,,,,,,,,,,,,,,,,,
 2025,,,,,,,,,,,,,,,,,,,

PacketCounter,SampleTimeFine,Quat_W,Quat_X,Quat_Y,Quat_Z,FreeAcc_X,FreeAcc_Y,FreeAcc_Z,Status
1, 2970854537, -0.82878214, 0.06885349, -0.25240993, -0.49470907, -0.13659662, 0.0020670479, 0.3509903, 0
2, 2970871204, -0.8287958, 0.06885046, -0.25239617, -0.4946937, -0.1187726, -0.022652311, 0.3472166, 0
3, 2970887871, -0.82883817, 0.06881803, -0.25238985, -0.4946304, -0.109390356, -0.048453026, 0.3420534, 0
4, 2970904538, -0.8288402, 0.06880465, -0.2523666, -0.49464062, -0.10528712, -0.036194347, 0.32584763, 0
5, 2970921205, -0.82885665, 0.06879051, -0.25234127, -0.49462807, -0.12220182, -0.02018065, 0.3315153, 0
6, 2970937872, -0.82886696, 0.06880032, -0.25230494, -0.49462798, -0.11803571, -0.034846116, 0.3431387, 0
7, 2970954539, -0.82889146, 0.068791315, -0.2522799, -0.494601, -0.11897117, -0.02280704, 0.3281374, 0
8, 2970971206, -0.82890314, 0.06877293, -0.25226822, -0.49458975, -0.12761872, -0.04632211, 0.32514668, 0
9, 2970987873, -0.82891494, 0.06876061, -0.25225157, -0.49458033, -0.116016105, -0.04631669, 0.3252144, 0
10, 2971004540, -0.82895905, 0.06874236, -0.2522472, -0.49451107, -0.12917249, -0.040866382, 0.3380232, 0
11, 2971021207, -0.82895017, 0.0687307, -0.25226745, -0.49451733, -0.119758785, -0.020856217, 0.33505535, 0
12, 2971037874, -0.8289253, 0.068722665, -0.25229478, -0.49454606, -0.11203445, -0.018816046, 0.32125854, 0
13, 2971054541, -0.8289236, 0.06871176, -0.2523078, -0.4945439, -0.13414921, -0.037572395, 0.34851742, 0
14, 2971071208, -0.8289219, 0.068710305, -0.25232607, -0.4945376, -0.10738497, -0.041883536, 0.3257103, 0
15, 2971087875, -0.8289223, 0.06871019, -0.25235102, -0.49452418, -0.12973222, -0.019409418, 0.33573818, 0
16, 2971104542, -0.82888985, 0.06871824, -0.25236237, -0.49457157, -0.114734314, -0.04260696, 0.31503963, 0
17, 2971121209, -0.82888824, 0.0687251, -0.25239763, -0.4945553, -0.12126483, -0.026554931, 0.33172607, 0
18, 2971137876, -0.8288828, 0.068706624, -0.25244713, -0.49454197, -0.12310999, -0.030114738, 0.32374477, 0
19, 2971154543, -0.8288779, 0.068693675, -0.2524909, -0.49452943, -0.12010639, -0.013778401, 0.2919941, 0
20, 2971171210, -0.82886904, 0.06867645, -0.25259075, -0.49449563, -0.17565444, -0.05671127, 0.28152466, 0
21, 2971187877, -0.8288277, 0.06866287, -0.25280055, -0.49445984, -0.15705892, -0.07089082, 0.34238052, 0
22, 2971204544, -0.82879686, 0.068675235, -0.2530513, -0.4943818, -0.13259342, -0.062987685, 0.34519863, 0
23, 2971221211, -0.8287332, 0.06871278, -0.25327978, -0.49436605, -0.0995791, -0.026179513, 0.36430454, 0
24, 2971237878, -0.8287049, 0.068733454, -0.25348204, -0.49430692, -0.10832837, -0.02918364, 0.32878304, 0
25, 2971254545, -0.82870466, 0.0687357, -0.25363353, -0.4942292, -0.07887002, -0.017399702, 0.34618855, 0
26, 2971271212, -0.82869077, 0.068742, -0.253725, -0.49420482, -0.07168142, -0.024561672, 0.35314465, 0
27, 2971287879, -0.8286784, 0.06875606, -0.25374907, -0.4942112, -0.09373632, -0.01880962, 0.33560848, 0
28, 2971304546, -0.8287025, 0.06873799, -0.25371513, -0.49419057, -0.10641561, -0.008642687, 0.34776402, 0
29, 2971321213, -0.8286985, 0.0687119, -0.25364769, -0.49423546, -0.09135138, -0.009875752, 0.32621384, 0
30, 2971337880, -0.82869864, 0.06867416, -0.2535834, -0.49427354, -0.11883463, -0.053128164, 0.33286285, 0
31, 2971354547, -0.82869595, 0.068654075, -0.253539, -0.49430344, -0.13770519, -0.04402331, 0.3261509, 0
32, 2971371214, -0.8287118, 0.06863211, -0.25353262, -0.49428314, -0.1361546, -0.051759288, 0.3511963, 0
33, 2971387881, -0.82870567, 0.068617195, -0.25357696, -0.4942732, -0.13750958, -0.039576404, 0.3389778, 0
34, 2971404548, -0.8287402, 0.06858576, -0.2536319, -0.49419135, -0.10896332, -0.020361751, 0.329154, 0
35, 2971421215, -0.8287373, 0.06859754, -0.25367534, -0.49417216, -0.09897964, -0.031968724, 0.31875134, 0
36, 2971437882, -0.8287323, 0.06859815, -0.25370508, -0.49416542, -0.12848969, -0.02689308, 0.331851, 0
37, 2971454549, -0.8287171, 0.06861136, -0.253716, -0.49418315, -0.12330493, -0.021981515, 0.32707882, 0
38, 2971471216, -0.82870394, 0.06861825, -0.2537123, -0.49420643, -0.1204513, -0.036640592, 0.32541943, 0
39, 2971487883, -0.828712, 0.06860322, -0.25371397, -0.49419403, -0.11016737, -0.045551885, 0.3223648, 0
40, 2971504550, -0.82871056, 0.06859042, -0.2537381, -0.49418578, -0.1391243, -0.053679373, 0.30216026, 0
41, 2971521217, -0.8287251, 0.0685757, -0.2537946, -0.49413443, -0.11831355, -0.038466748, 0.3178053, 0
42, 2971537884, -0.828741, 0.06858304, -0.2538731, -0.4940663, -0.12957162, -0.027589824, 0.3582449, 0
43, 2971554551, -0.82874984, 0.06858152, -0.25395045, -0.494012, -0.114568874, -0.033648983, 0.3320551, 0
44, 2971571218, -0.8287269, 0.06858167, -0.25401542, -0.49401718, -0.11567787, -0.029872563, 0.36353874, 0
45, 2971587885, -0.828734, 0.06857687, -0.2540696, -0.49397808, -0.09698412, -0.02861424, 0.3197441, 0
46, 2971604552, -0.8287295, 0.06857766, -0.25409645, -0.4939717, -0.10945022, -0.041335087, 0.3421383, 0
47, 2971621219, -0.8287488, 0.06857678, -0.2541128, -0.493931, -0.11677763, -0.033894006, 0.31393242, 0
48, 2971637886, -0.8287631, 0.06856835, -0.25416926, -0.49387914, -0.14145671, -0.024397781, 0.32745647, 0
49, 2971654553, -0.8287828, 0.06856115, -0.25428292, -0.4937886, -0.13086455, -0.06361098, 0.3255129, 0
50, 2971671220, -0.8287737, 0.068591595, -0.2544117, -0.49373344, -0.11259702, -0.02592767, 0.3312559, 0
52, 2971704554, -0.8288507, 0.06859458, -0.25461844, -0.4934969, -0.10707867, -0.024511548, 0.3510008, 0
53, 2971721221, -0.82884055, 0.068603516, -0.25468558, -0.493478, -0.08571984, -0.039109234, 0.32970333, 0
54, 2971737888, -0.8288561, 0.068613805, -0.25472197, -0.49343175, -0.116036646, -0.046585046, 0.31762218, 0
56, 2971771222, -0.8288798, 0.06860863, -0.2547599, -0.4933731, -0.10319385, -0.019918023, 0.34898853, 0
57, 2971787889, -0.82888603, 0.068600185, -0.25477815, -0.4933544, -0.104842424, -0.03802542, 0.32630634, 0
60, 2971837890, -0.8288754, 0.068601996, -0.25484824, -0.49333584, -0.1021332, -0.025253555, 0.3275423, 0
61, 2971854557, -0.82885337, 0.06861669, -0.2548319, -0.49337935, -0.12955807, -0.028938916, 0.3600607, 0
62, 2971871224, -0.8289147, 0.06860934, -0.25482547, -0.4932806, -0.11332891, -0.023202768, 0.34013653, 0
64, 2971904558, -0.8288908, 0.06875311, -0.25474876, -0.4933403, -0.11645274, -0.032099087, 0.3345871, 0
65, 2971921225, -0.8288849, 0.06881804, -0.25470537, -0.49336365, -0.12898245, -0.008739413, 0.35079575, 0
66, 2971937892, -0.8289163, 0.06883265, -0.25471634, -0.49330312, -0.109473616, -0.026171522, 0.31294918, 0
68, 2971971226, -0.8289147, 0.06891054, -0.2546997, -0.49330336, -0.1189705, -0.030939277, 0.35049057, 0
69, 2971987893, -0.82894576, 0.06897257, -0.25463164, -0.49327755, -0.12203014, -0.048426066, 0.3451004, 0
71, 2972021227, -0.8289594, 0.06912722, -0.25454926, -0.49327555, -0.12490713, -0.04515867, 0.32328415, 0
72, 2972037894, -0.82897973, 0.06924584, -0.2545382, -0.49323076, -0.13769323, -0.06801709, 0.32436275, 0
73, 2972054561, -0.8290137, 0.069400005, -0.25451213, -0.49316537, -0.09783154, -0.07454056, 0.3242178, 0
75, 2972087895, -0.8290442, 0.06966851, -0.25452086, -0.4930716, -0.115882024, -0.02625305, 0.3346386, 0
76, 2972104562, -0.82907164, 0.0697483, -0.25457564, -0.49298608, -0.13526009, -0.04860021, 0.31784058, 0
77, 2972121229, -0.829049, 0.06987181, -0.25469074, -0.4929473, -0.14905848, -0.12206009, 0.29911423, 0
79, 2972154563, -0.82901293, 0.070185184, -0.25514823, -0.4927268, -0.1281885, -0.018075213, 0.36473656, 0
80, 2972171230, -0.82898945, 0.07038057, -0.25535575, -0.4926309, -0.10312431, -0.018297218, 0.32588482, 0
81, 2972187897, -0.828958, 0.070577785, -0.2555339, -0.49256316, -0.07745372, -0.058352165, 0.33798313, 0
83, 2972221231, -0.8289556, 0.07089557, -0.25578794, -0.49238956, -0.11516711, -0.025907386, 0.3341217, 0
84, 2972237898, -0.8289596, 0.07101104, -0.25590026, -0.49230793, -0.1491108, -0.018379414, 0.31109715, 0
87, 2972287899, -0.8290225, 0.07158313, -0.25611904, -0.49200505, -0.113693655, -0.04915581, 0.34729958, 0
88, 2972304566, -0.8290775, 0.07190794, -0.25608504, -0.4918828, -0.1200746, 0.0045195436, 0.33425426, 0
89, 2972321233, -0.82910204, 0.072167516, -0.25608155, -0.49180537, -0.096969314, -0.021179752, 0.3611269, 0
91, 2972354567, -0.8290974, 0.0726541, -0.25604147, -0.49176243, -0.06764934, -0.047959454, 0.35333538, 0
92, 2972371234, -0.82913303, 0.07285123, -0.2559595, -0.49171558, -0.10185383, -0.040772423, 0.33197594, 0
93, 2972387901, -0.829182, 0.07299211, -0.25587434, -0.49165654, -0.087092124, -0.041672874, 0.3371086, 0
95, 2972421235, -0.8292113, 0.07317229, -0.25566125, -0.49169132, -0.11382387, -0.071816, 0.29529572, 0
96, 2972437902, -0.8292274, 0.0732243, -0.25556806, -0.49170476, -0.11012734, -0.042837374, 0.35966778, 0
97, 2972454569, -0.82925665, 0.07324216, -0.25548628, -0.49169523, -0.13923992, -0.061603438, 0.30863953, 0
99, 2972487903, -0.82922536, 0.073186785, -0.2555003, -0.49174905, -0.09484701, -0.06323925, 0.32860947, 0
102, 2972537904, -0.829171, 0.072596654, -0.25574142, -0.491803, -0.071996324, -0.029542685, 0.35013103, 0
103, 2972554571, -0.8291437, 0.07224923, -0.25577295, -0.49188364, -0.11821964, -0.034065776, 0.33870316, 0
104, 2972571238, -0.8291865, 0.07207947, -0.25560623, -0.4919231, -0.114895076, -0.06469289, 0.32975197, 0
106, 2972604572, -0.82927966, 0.07199821, -0.25520787, -0.49198487, -0.13089693, -0.028186157, 0.33124256, 0
107, 2972621239, -0.829296, 0.07194729, -0.2550955, -0.4920228, -0.12777576, -0.042845923, 0.32181263, 0
108, 2972637906, -0.82928956, 0.071868844, -0.25503916, -0.4920743, -0.106441036, -0.030969033, 0.3256712, 0
110, 2972671240, -0.829272, 0.071675904, -0.25490674, -0.49220064, -0.082233824, -0.06902315, 0.33690548, 0
111, 2972687907, -0.82929754, 0.071566164, -0.2547652, -0.49224707, -0.09961146, -0.04030475, 0.33976746, 0
112, 2972704574, -0.8293543, 0.07150498, -0.25455314, -0.49226987, -0.11446417, -0.06293219, 0.33909607, 0
114, 2972737908, -0.8294208, 0.07137291, -0.25419772, -0.49236077, -0.12001489, -0.033850145, 0.34841824, 0
116, 2972771242, -0.82943356, 0.071210906, -0.2540563, -0.49243563, -0.12360583, -0.056153495, 0.34461975, 0
118, 2972804576, -0.8294861, 0.07100111, -0.2538971, -0.4924596, -0.12382723, -0.0614702, 0.33932114, 0
119, 2972821243, -0.8295066, 0.07095866, -0.25382608, -0.49246782, -0.14770833, -0.05054198, 0.33285522, 0
120, 2972837910, -0.82950574, 0.070977114, -0.25379518, -0.49248233, -0.13427722, -0.04822365, 0.3365059, 0
122, 2972871244, -0.82953036, 0.07100887, -0.25385928, -0.49240333, -0.08752063, -0.044623245, 0.33862495, 0
123, 2972887911, -0.8295102, 0.07102776, -0.25386944, -0.4924292, -0.09313751, -0.030118287, 0.33265305, 0
124, 2972904578, -0.8294573, 0.07104007, -0.25383797, -0.49253294, -0.09134085, -0.044130594, 0.33858967, 0
126, 2972937912, -0.8294991, 0.07109124, -0.2535972, -0.4925791, -0.07788475, -0.098320864, 0.33698845, 0
127, 2972954579, -0.82956994, 0.07116457, -0.2533993, -0.49255127, -0.1285651, -0.063194156, 0.32063007, 0
129, 2972987913, -0.8296568, 0.071191326, -0.25320366, -0.4925016, -0.13684863, -0.033997886, 0.34974766, 0
131, 2973021247, -0.82964385, 0.07102612, -0.25326434, -0.49251604, -0.114227526, -0.03617233, 0.33584595, 0
133, 2973054581, -0.82965606, 0.07078728, -0.25335085, -0.4924854, -0.09651692, -0.02380136, 0.34035492, 0
134, 2973071248, -0.8296639, 0.070677385, -0.25336754, -0.49247932, -0.08534974, -0.038895976, 0.34171677, 0
135, 2973087915, -0.82965815, 0.070613116, -0.25335222, -0.4925061, -0.0949718, -0.043210838, 0.3189907, 0
137, 2973121249, -0.82968336, 0.07051226, -0.25340676, -0.49245003, -0.13767256, -0.039062716, 0.33673286, 0
138, 2973137916, -0.82967126, 0.07050495, -0.2534687, -0.49243957, -0.11282361, -0.072339185, 0.35474777, 0
139, 2973154583, -0.82966644, 0.07056327, -0.25353327, -0.49240607, -0.11085347, -0.060156893, 0.35665607, 0
141, 2973187917, -0.8296549, 0.070667565, -0.2536929, -0.4923284, -0.114368886, -0.040765133, 0.34323692, 0
142, 2973204584, -0.8296415, 0.07070184, -0.25374687, -0.49231803, -0.1051787, -0.019635474, 0.34865952, 0
143, 2973221251, -0.82964057, 0.070738, -0.25376323, -0.49230596, -0.08361502, -0.057775415, 0.3603077, 0
145, 2973254585, -0.82967913, 0.070744604, -0.25366032, -0.4922933, -0.09909724, -0.04293382, 0.3450594, 0
146, 2973271252, -0.82970417, 0.07072914, -0.25358108, -0.492294, -0.11313757, -0.055270787, 0.3424883, 0
147, 2973287919, -0.82971793, 0.07075311, -0.2535494, -0.4922837, -0.10304158, -0.0896259, 0.3458147, 0
149, 2973321253, -0.82978284, 0.07082781, -0.25333157, -0.4922758, -0.05244409, -0.022282314, 0.32431126, 0
150, 2973337920, -0.8298186, 0.07079456, -0.2530851, -0.49234712, -0.06629619, -0.008329042, 0.321064, 0
152, 2973371254, -0.82987416, 0.07065885, -0.25273815, -0.49245116, -0.125857, -0.11213536, 0.3384161, 0
153, 2973387921, -0.829912, 0.07068591, -0.25265893, -0.49242413, -0.13551566, -0.17107174, 0.30659485, 0
154, 2973404588, -0.8299514, 0.07076609, -0.2526493, -0.49235117, -0.13956262, -0.06490503, 0.33471584, 0
156, 2973437922, -0.82999235, 0.07096711, -0.2527992, -0.4921764, -0.11693684, -0.017420683, 0.32204628, 0
158, 2973471256, -0.8299921, 0.07115189, -0.2530526, -0.4920197, -0.074366555, 0.0048182686, 0.3333397, 0
160, 2973504590, -0.8299736, 0.07116373, -0.25315988, -0.49199408, -0.084125206, -0.022573523, 0.33178043, 0
161, 2973521257, -0.8300246, 0.07111234, -0.2531391, -0.49192622, -0.1014831, -0.066540085, 0.34297752, 0
162, 2973537924, -0.8300311, 0.071090944, -0.2531645, -0.49190524, -0.13073884, -0.09689337, 0.31340027, 0
164, 2973571258, -0.82995445, 0.07113438, -0.25339592, -0.4919091, -0.10009329, -0.063934065, 0.34315395, 0
165, 2973587925, -0.8299036, 0.07115512, -0.2534682, -0.4919548, -0.11352637, -0.0142095005, 0.36884308, 0
166, 2973604592, -0.82989323, 0.07114938, -0.253499, -0.49195722, -0.07857077, -0.042004958, 0.35249233, 0
168, 2973637926, -0.8299089, 0.07117902, -0.25352892, -0.49191082, -0.09668088, -0.06806663, 0.32188702, 0
169, 2973654593, -0.82991326, 0.07123566, -0.25351465, -0.49190274, -0.10300449, -0.06813678, 0.33946323, 0
170, 2973671260, -0.82993954, 0.07127828, -0.2534897, -0.49186516, -0.10039291, -0.034314938, 0.35309315, 0
173, 2973721261, -0.8299662, 0.071276404, -0.25334078, -0.49189723, -0.12967323, -0.030820705, 0.34648705, 0
174, 2973737928, -0.8299781, 0.071250975, -0.2532995, -0.49190193, -0.11128005, -0.03338272, 0.35625267, 0
176, 2973771262, -0.8299772, 0.07119221, -0.25317904, -0.491974, -0.12614417, -0.057620354, 0.3106537, 0
177, 2973787929, -0.82996416, 0.07115926, -0.25314972, -0.49201578, -0.1424778, -0.047735605, 0.32944775, 0
179, 2973821263, -0.8299644, 0.07107573, -0.25308958, -0.49205828, -0.09671318, -0.029039223, 0.3468008, 0
180, 2973837930, -0.82998943, 0.071004234, -0.2530051, -0.49206993, -0.0931978, -0.054886065, 0.33401585, 0
181, 2973854597, -0.83000976, 0.070934445, -0.25289825, -0.49210066, -0.09910072, -0.039046377, 0.33855724, 0
183, 2973887931, -0.83003235, 0.070815146, -0.25263855, -0.49221313, -0.12863006, -0.071648866, 0.30184746, 0
184, 2973904598, -0.8300478, 0.07078103, -0.25260112, -0.49221116, -0.1422757, -0.08969195, 0.31978416, 0
185, 2973921265, -0.83001447, 0.07080407, -0.2526512, -0.49223828, -0.13198921, -0.04850991, 0.352211, 0
188, 2973971266, -0.82998824, 0.07081398, -0.25283158, -0.49218845, -0.09399899, -0.01900729, 0.33551407, 0
189, 2973987933, -0.82995844, 0.07082869, -0.25277236, -0.4922671, -0.096398175, 0.00541896, 0.34652233, 0
191, 2974021267, -0.82999164, 0.07083166, -0.25260958, -0.49229425, -0.101642825, -0.062842235, 0.3277359, 0
192, 2974037934, -0.8300032, 0.070882805, -0.25247705, -0.4923352, -0.089785054, -0.065250024, 0.33278275, 0
193, 2974054601, -0.83002704, 0.070940815, -0.25234738, -0.49235317, -0.12049813, -0.039663352, 0.33284473, 0
195, 2974087935, -0.8300389, 0.07096843, -0.25217414, -0.49241814, -0.120539054, -0.03044417, 0.33419418, 0
196, 2974104602, -0.83009154, 0.07095894, -0.252078, -0.49238002, -0.078111224, -0.039288633, 0.33102226, 0
197, 2974121269, -0.8301356, 0.07097381, -0.25195032, -0.49236894, -0.100654505, -0.06536924, 0.32180023, 0
199, 2974154603, -0.8301649, 0.071014, -0.2517989, -0.4923913, -0.12350084, -0.07119536, 0.3128996, 0
200, 2974171270, -0.83015084, 0.07103671, -0.25184074, -0.49239022, -0.11192491, -0.072433226, 0.35496712, 0
203, 2974221271, -0.8300006, 0.07091355, -0.2520951, -0.49253124, -0.077168554, -0.08543193, 0.34387016, 0
204, 2974237938, -0.82996976, 0.07081322, -0.25216654, -0.49256098, -0.091141686, -0.06774471, 0.34963322, 0
205, 2974254605, -0.82990086, 0.07070036, -0.25224876, -0.49265116, -0.11981212, -0.06421122, 0.2970438, 0
207, 2974287939, -0.82982486, 0.070412844, -0.25252783, -0.4926774, -0.1412118, -0.09601362, 0.31379128, 0
208, 2974304606, -0.8297855, 0.07029065, -0.25274286, -0.4926508, -0.11679256, -0.046447333, 0.34654427, 0
210, 2974337940, -0.82967573, 0.07010833, -0.25312448, -0.4926658, -0.10866902, -0.01590306, 0.35542965, 0
211, 2974354607, -0.82961076, 0.070018545, -0.2532894, -0.49270332, -0.120214656, 0.018322363, 0.35782623, 0
212, 2974371274, -0.829554, 0.06993822, -0.25343713, -0.4927343, -0.06900129, -0.06720856, 0.34132862, 0
214, 2974404608, -0.82948864, 0.0696091, -0.2532569, -0.4929834, -0.03506245, -0.060861237, 0.29860592, 0
215, 2974421275, -0.82947797, 0.06943234, -0.2531071, -0.49310356, -0.17369191, -0.06133486, 0.326828, 0
216, 2974437942, -0.8294599, 0.06939417, -0.25317323, -0.49310482, -0.22531901, -0.18239664, 0.34847546, 0
218, 2974471276, -0.82942516, 0.06965801, -0.25358698, -0.49291372, -0.13942178, -0.082582645, 0.26760387, 0
219, 2974487943, -0.829421, 0.06982277, -0.25374573, -0.49281573, -0.096347325, -0.065612145, 0.33676815, 0
220, 2974504610, -0.829514, 0.0702077, -0.25383437, -0.4925589, -0.14243758, -0.10873989, 0.33528233, 0
222, 2974537944, -0.82960194, 0.07139547, -0.25416684, -0.49206805, -0.10526179, -0.04649318, 0.33129215, 0
223, 2974554611, -0.82962745, 0.07197222, -0.2543398, -0.49185172, -0.09701984, -0.0137622515, 0.33614445, 0
224, 2974571278, -0.8296518, 0.07245656, -0.2544696, -0.49167222, -0.058098216, 0.0272854, 0.32946873, 0
226, 2974604612, -0.82964474, 0.07311365, -0.25469536, -0.49147028, -0.11584481, -0.018792355, 0.3251915, 0
227, 2974621279, -0.82965684, 0.07330759, -0.254814, -0.4913592, -0.08405831, -0.05897786, 0.33392334, 0
230, 2974671280, -0.8297392, 0.07352753, -0.2546888, -0.49125224, -0.07090824, -0.016593881, 0.34562778, 0
231, 2974687947, -0.8298085, 0.073500276, -0.25449955, -0.49123743, -0.11851721, 0.040761333, 0.34520817, 0
232, 2974704614, -0.82983476, 0.073456585, -0.2543205, -0.4912923, -0.12280475, -0.05507077, 0.32435322, 0
234, 2974737948, -0.82988644, 0.073497444, -0.2541236, -0.49130052, -0.14604613, -0.117262386, 0.31438255, 0
235, 2974754615, -0.8299176, 0.073595665, -0.2541073, -0.4912416, -0.105151206, -0.09101981, 0.34305382, 0
237, 2974787949, -0.829954, 0.07387772, -0.25409967, -0.49114186, -0.09669556, -0.045660373, 0.34601688, 0
238, 2974804616, -0.8299689, 0.074034676, -0.25402832, -0.49113, -0.07753193, -0.036509946, 0.3372059, 0
239, 2974821283, -0.8300231, 0.07414285, -0.25391176, -0.49108225, -0.07585868, -0.05852871, 0.33351707, 0
241, 2974854617, -0.8300585, 0.07417163, -0.2536079, -0.49117512, -0.09394391, 0.010157825, 0.32422733, 0
242, 2974871284, -0.8300712, 0.07407237, -0.25343648, -0.49125707, -0.0843058, 0.022319166, 0.32035923, 0
245, 2974921285, -0.8300393, 0.07353605, -0.25284442, -0.49169657, -0.097154066, -0.10068599, 0.3511057, 0
246, 2974937952, -0.830052, 0.073354825, -0.25262672, -0.4918141, -0.11321349, -0.057061348, 0.35237312, 0
247, 2974954619, -0.83006376, 0.07320726, -0.25241303, -0.4919259, -0.09202749, -0.06651377, 0.34489918, 0
249, 2974987953, -0.83006775, 0.07284782, -0.2520998, -0.49213308, -0.12873645, -0.01653345, 0.34147072, 0
250, 2975004620, -0.8300476, 0.072697386, -0.25197488, -0.49225336, -0.10784253, -0.06330848, 0.3353367, 0
251, 2975021287, -0.83008844, 0.07254521, -0.25178668, -0.49230313, -0.07541753, -0.06557761, 0.3415804, 0
253, 2975054621, -0.8301908, 0.07234811, -0.2510929, -0.4925137, -0.14023268, -0.0097947, 0.35464, 0
254, 2975071288, -0.8302547, 0.07227722, -0.25074455, -0.4925938, -0.16674314, -0.101524554, 0.2846079, 0
255, 2975087955, -0.8303545, 0.072316624, -0.25046188, -0.49256372, -0.17275646, -0.14344765, 0.30490494, 0
257, 2975121289, -0.83044964, 0.072519094, -0.25025925, -0.49247646, -0.10591459, -0.021098394, 0.33502197, 0
260, 2975171290, -0.8304655, 0.07269654, -0.25005355, -0.4925282, -0.105777726, -0.017354831, 0.3528719, 0
261, 2975187957, -0.83049035, 0.07271418, -0.24998167, -0.49251997, -0.1290248, -0.03805023, 0.29938316, 0
262, 2975204624, -0.830493, 0.07274732, -0.24997652, -0.49251342, -0.165933, -0.078117386, 0.3104658, 0
264, 2975237958, -0.83055216, 0.07316332, -0.24989615, -0.49239296, -0.07295944, -0.024537113, 0.34413242, 0
265, 2975254625, -0.83059984, 0.073276766, -0.24982068, -0.49233383, -0.11872986, 0.06103597, 0.32069206, 0
266, 2975271292, -0.8305956, 0.07332275, -0.24979325, -0.49234807, -0.10696911, -0.060680777, 0.30648327, 0
268, 2975304626, -0.83068645, 0.0736327, -0.2495175, -0.4922884, -0.10012142, -0.06761599, 0.3388319, 0
269, 2975321293, -0.8306987, 0.07379316, -0.24935648, -0.49232537, -0.07918415, -0.0767774, 0.32187557, 0
270, 2975337960, -0.8307384, 0.07387199, -0.24918473, -0.4923333, -0.08424101, -0.066893406, 0.34415817, 0
272, 2975371294, -0.83078194, 0.07404735, -0.24889158, -0.49238193, -0.10586463, -0.06195237, 0.34433937, 0
274, 2975404628, -0.8307781, 0.07409286, -0.24894643, -0.4923538, -0.09273138, -0.023470648, 0.33089066, 0
276, 2975437962, -0.83076286, 0.07387648, -0.2490556, -0.49235657, -0.06387266, -0.10266514, 0.35483742, 0
277, 2975454629, -0.8307498, 0.0738148, -0.24911223, -0.49235928, -0.12618543, -0.09778865, 0.3422842, 0
278, 2975471296, -0.8307269, 0.07378907, -0.2492119, -0.49235144, -0.13059813, -0.0979179, 0.34179592, 0
280, 2975504630, -0.8306452, 0.073699936, -0.24963251, -0.49228954, -0.13674526, -0.11810229, 0.30331516, 0
281, 2975521297, -0.8306042, 0.07367647, -0.24995148, -0.49220052, -0.1724839, -0.0707178, 0.31175804, 0
282, 2975537964, -0.83058214, 0.07374841, -0.2503271, -0.49203593, -0.14850844, -0.1191737, 0.338459, 0
284, 2975571298, -0.8305462, 0.07404956, -0.25093946, -0.4917395, -0.069396526, -0.035461783, 0.3435278, 0
285, 2975587965, -0.83053756, 0.07415947, -0.2512599, -0.49157363, -0.11180475, -0.0687494, 0.33138752, 0
287, 2975621299, -0.8304083, 0.07419062, -0.25197914, -0.49141932, -0.10512695, -0.065271564, 0.33113194, 0
288, 2975637966, -0.8303325, 0.07415638, -0.2523016, -0.4913869, -0.07451323, -0.025067536, 0.36074543, 0
289, 2975654633, -0.8302467, 0.07410027, -0.25258642, -0.49139413, -0.11502906, -0.0076766643, 0.35663795, 0
291, 2975687967, -0.83010775, 0.073900804, -0.25317118, -0.4913581, -0.10449009, -0.103638485, 0.3645754, 0
292, 2975704634, -0.83007425, 0.07387315, -0.25339776, -0.4913019, -0.09709361, -0.0691016, 0.38493347, 0
293, 2975721301, -0.8300562, 0.07392336, -0.25355417, -0.49124444, -0.07551341, -0.0976482, 0.35944748, 0
295, 2975754635, -0.8299716, 0.07400095, -0.25378555, -0.4912559, -0.07468103, -0.024277754, 0.3405819, 0
296, 2975771302, -0.8299405, 0.073986776, -0.2538486, -0.49127787, -0.09928749, -0.08206569, 0.32445621, 0
297, 2975787969, -0.82989997, 0.07395955, -0.25390062, -0.49132365, -0.11119572, -0.06910858, 0.333313, 0
299, 2975821303, -0.8297907, 0.07382435, -0.25411105, -0.49141976, -0.066143796, -0.0063975556, 0.3293543, 0
301, 2975854637, -0.8297307, 0.07331137, -0.25390735, -0.4917031, 0.09956431, 0.054204617, 0.31479645, 0
303, 2975887971, -0.8298437, 0.072137035, -0.25283864, -0.49223664, -0.17844279, -0.2056546, 0.35234356, 0
304, 2975904638, -0.8298065, 0.07179219, -0.25280777, -0.4923653, -0.3392935, -0.16763645, 0.37321472, 0
305, 2975921305, -0.8297081, 0.071685754, -0.25306982, -0.4924122, -0.23349245, -0.0844242, 0.34058666, 0
307, 2975954639, -0.82973063, 0.071917064, -0.25318232, -0.49228263, -0.10196808, -0.15076195, 0.3038807, 0
308, 2975971306, -0.8298416, 0.072216466, -0.2531094, -0.4920894, -0.14685898, -0.15618096, 0.3038273, 0
309, 2975987973, -0.82995653, 0.072596766, -0.25312796, -0.49183, -0.12542708, -0.07988498, 0.34047794, 0
311, 2976021307, -0.83006704, 0.07340714, -0.253371, -0.49139783, -0.08838208, -0.013940782, 0.34690475, 0
312, 2976037974, -0.8301326, 0.07374774, -0.25348383, -0.4911779, -0.08144675, 0.008467229, 0.34954166, 0
313, 2976054641, -0.83022916, 0.07393938, -0.2536444, -0.490903, -0.063171126, 0.053770624, 0.3443432, 0
316, 2976104642, -0.8304131, 0.07423093, -0.2537271, -0.4905048, -0.06766506, -0.13442287, 0.36267948, 0
318, 2976137976, -0.83059, 0.074847214, -0.2535675, -0.49019405, -0.13494511, -0.16665319, 0.36372662, 0
319, 2976154643, -0.8306284, 0.07531057, -0.25362065, -0.4900304, -0.13483897, -0.20707375, 0.32362652, 0
320, 2976171310, -0.83068454, 0.07578722, -0.2537387, -0.4898007, -0.15836969, -0.1001936, 0.3226118, 0
322, 2976204644, -0.83075124, 0.07637372, -0.25379977, -0.48956487, -0.03847921, 0.09180303, 0.29599857, 0
323, 2976221311, -0.8308076, 0.07648057, -0.2535996, -0.48955604, -0.024381623, 0.0065726778, 0.32045364, 0
324, 2976237978, -0.8308697, 0.07654279, -0.25331876, -0.48958647, -0.045518484, -0.048868593, 0.31568527, 0
326, 2976271312, -0.8309922, 0.07675898, -0.25290483, -0.48955864, -0.13660331, -0.043044712, 0.3546381, 0
327, 2976287979, -0.83104795, 0.0770122, -0.25272733, -0.48951605, -0.117906675, -0.028688028, 0.34205723, 0
328, 2976304646, -0.8311106, 0.0772668, -0.25255996, -0.48945582, -0.07990647, -0.049292598, 0.34819603, 0
331, 2976354647, -0.8313466, 0.07789073, -0.25195402, -0.48926836, -0.1336992, -0.022461431, 0.33484554, 0
332, 2976371314, -0.8313724, 0.078019194, -0.25190708, -0.4892283, -0.13758291, -0.06754841, 0.33363533, 0
334, 2976404648, -0.831409, 0.07830911, -0.2519305, -0.48910767, -0.06387106, -0.05867922, 0.33726883, 0
335, 2976421315, -0.8314407, 0.078440346, -0.25187945, -0.48905918, -0.058833122, -0.04645711, 0.30907536, 0
336, 2976437982, -0.83147335, 0.07849116, -0.251762, -0.48905605, -0.05726548, -0.03265907, 0.3098669, 0
338, 2976471316, -0.83152807, 0.07840793, -0.25137538, -0.48917496, -0.124823675, -0.0068583274, 0.32520676, 0
339, 2976487983, -0.8315278, 0.07825985, -0.25121143, -0.4892832, -0.107625, 0.012358981, 0.35052395, 0
340, 2976504650, -0.8314986, 0.07809172, -0.25114006, -0.4893965, -0.118073456, -0.0367229, 0.32321644, 0
342, 2976537984, -0.83139205, 0.077746615, -0.25114387, -0.48963046, -0.09829382, -0.13509548, 0.33539295, 0
343, 2976554651, -0.8313835, 0.07761869, -0.25110814, -0.48968357, -0.101488024, -0.09819673, 0.3537588, 0
346, 2976604652, -0.8313697, 0.077024, -0.25089076, -0.48991236, -0.07856948, -0.012381836, 0.33760357, 0
347, 2976621319, -0.8313405, 0.07673561, -0.25081578, -0.49004537, -0.06380075, -0.0617611, 0.34096527, 0
349, 2976654653, -0.8312675, 0.076107375, -0.2506931, -0.49032992, -0.10115991, -0.057379484, 0.33155918, 0
350, 2976671320, -0.831243, 0.07583949, -0.25056335, -0.4904792, -0.07565752, -0.13204174, 0.36279488, 0
351, 2976687987, -0.8312549, 0.07565923, -0.25032812, -0.4906072, -0.086760014, -0.06192513, 0.3785801, 0
353, 2976721321, -0.8313383, 0.07533969, -0.24961694, -0.4908774, -0.055523254, 0.04186856, 0.36893368, 0
354, 2976737988, -0.83139247, 0.075083785, -0.24910901, -0.49108285, -0.07839767, 0.014754482, 0.31524086, 0
355, 2976754655, -0.8314471, 0.07476345, -0.24864332, -0.491275, -0.13915265, -0.16807213, 0.2762928, 0
357, 2976787989, -0.83147615, 0.07420994, -0.24817206, -0.491548, -0.14398769, -0.13058026, 0.32045746, 0
358, 2976804656, -0.831475, 0.074020974, -0.24809818, -0.4916157, -0.13431035, -0.09379129, 0.34849644, 0
359, 2976821323, -0.8314401, 0.07383792, -0.24811338, -0.49169463, -0.117391184, -0.06805472, 0.33769512, 0
361, 2976854657, -0.83135086, 0.07352561, -0.24823768, -0.49182957, -0.092963554, -0.083350524, 0.33189964, 0
362, 2976871324, -0.83132553, 0.073337264, -0.24826765, -0.49188524, -0.08044572, -0.036729883, 0.34905052, 0
363, 2976887991, -0.8312975, 0.07310029, -0.24830422, -0.49194956, -0.10038561, -0.008280428, 0.30752087, 0
365, 2976921325, -0.8311743, 0.07274918, -0.24843965, -0.49214125, -0.10399039, -0.09377103, 0.3293314, 0
366, 2976937992, -0.8311525, 0.072601765, -0.248483, -0.49217784, -0.08482322, -0.069282815, 0.34240627, 0
368, 2976971326, -0.8310425, 0.07230089, -0.24860543, -0.49234623, -0.101953566, -0.07336204, 0.3354063, 0
369, 2976987993, -0.8309952, 0.072168805, -0.2487033, -0.492396, -0.11587075, -0.048535474, 0.3563099, 0
370, 2977004660, -0.83096904, 0.07203397, -0.24877891, -0.49242187, -0.097090855, -0.04938636, 0.35614204, 0
373, 2977054661, -0.8308588, 0.07169458, -0.24906698, -0.4925115, -0.119967796, -0.071897626, 0.33544064, 0
374, 2977071328, -0.8308076, 0.07163549, -0.24913794, -0.49257058, -0.093335144, -0.04716844, 0.32437038, 0
376, 2977104662, -0.830755, 0.071459085, -0.24927883, -0.49261364, -0.06441737, -0.04696728, 0.34836483, 0
377, 2977121329, -0.83074486, 0.07136603, -0.24932544, -0.49262068, -0.08406303, -0.027810264, 0.32335186, 0
378, 2977137996, -0.8307221, 0.07125643, -0.2493535, -0.49266076, -0.10423076, -0.067524076, 0.32177448, 0
380, 2977171330, -0.83067346, 0.0709971, -0.2494892, -0.49271154, -0.11440287, -0.084165424, 0.34679413, 0
381, 2977187997, -0.8306383, 0.07085884, -0.24959739, -0.49273592, -0.086969174, -0.033130515, 0.33205128, 0
382, 2977204664, -0.8306007, 0.07068707, -0.24972144, -0.49276137, -0.1133901, -0.042924378, 0.3185835, 0
384, 2977237998, -0.83049816, 0.070408165, -0.25002453, -0.49282014, -0.09431868, -0.031049749, 0.3175869, 0
385, 2977254665, -0.83043706, 0.07027882, -0.25022742, -0.49283868, -0.122155964, -0.09838468, 0.30439377, 0
388, 2977304666, -0.8303434, 0.070058405, -0.25077233, -0.4927507, -0.07681899, -0.025844133, 0.34042835, 0
389, 2977321333, -0.8303221, 0.069998406, -0.25089923, -0.49273062, -0.108482435, -0.024814017, 0.3661852, 0
390, 2977338000, -0.8303101, 0.06990446, -0.25101823, -0.49270368, -0.07983371, -0.050936423, 0.35433197, 0
392, 2977371334, -0.83040875, 0.069255725, -0.2503956, -0.49294582, 0.04520655, -0.29333895, 0.41219807, 0
393, 2977388001, -0.8302898, 0.06917618, -0.2508793, -0.4929113, -0.3457423, -0.27981478, 0.3812971, 0
395, 2977421335, -0.8302122, 0.06960228, -0.2518279, -0.49249825, -0.04933447, -0.23289967, 0.26127815, 0
396, 2977438002, -0.8301965, 0.06984513, -0.2520792, -0.49236172, -0.06369587, -0.011231246, 0.34382915, 0
397, 2977454669, -0.83024085, 0.07004507, -0.25223297, -0.4921798, -0.05512773, -0.018415188, 0.35437107, 0
399, 2977488003, -0.8304237, 0.0706016, -0.25227803, -0.49176848, -0.09728473, -0.036811884, 0.3704605, 0
400, 2977504670, -0.8305012, 0.07085053, -0.25237796, -0.4915507, -0.11854839, 0.0130716525, 0.4147854, 0
403, 2977554671, -0.83083785, 0.070285186, -0.25256687, -0.49096543, -0.067987375, -0.006741542, 0.30285263, 0
404, 2977571338, -0.8308773, 0.06991113, -0.25243202, -0.49102157, -0.099047154, -0.022687599, 0.32882214, 0
405, 2977588005, -0.83089423, 0.06963702, -0.25219312, -0.49115473, -0.089285284, 8.706947E-4, 0.32768345, 0
407, 2977621339, -0.83106804, 0.06958255, -0.2512881, -0.49133188, -0.112939, -0.16070467, 0.26132298, 0
408, 2977638006, -0.8311829, 0.06963433, -0.2508902, -0.4913336, -0.18143986, -0.1613768, 0.24315548, 0
409, 2977654673, -0.8312571, 0.06967293, -0.25066456, -0.49131778, -0.17448883, -0.020479932, 0.29079914, 0
411, 2977688007, -0.8312855, 0.06943224, -0.25047252, -0.49140173, -0.039079018, 0.035914063, 0.3771658, 0
412, 2977704674, -0.8312675, 0.06929453, -0.2502602, -0.49155995, -0.031065315, -0.06062476, 0.40158367, 0
413, 2977721341, -0.8313245, 0.0690278, -0.24989624, -0.4916861, -0.0791202, 0.0193679, 0.33806133, 0
415, 2977754675, -0.83126396, 0.06825511, -0.24937381, -0.49216145, -0.1008611, -0.0282051, 0.30669594, 0
417, 2977788009, -0.83129054, 0.06772396, -0.2482335, -0.4927656, 0.071410574, 0.024019094, 0.45594978, 0
419, 2977821343, -0.831702, 0.067367084, -0.24598473, -0.49324778, -0.061600603, -0.06908327, 0.48259544, 0
420, 2977838010, -0.83186734, 0.06695925, -0.24503727, -0.4934961, -0.12446882, -0.092960835, 0.35847187, 0
421, 2977854677, -0.8320444, 0.06633205, -0.24423054, -0.49368215, -0.009545623, 0.08062319, 0.53489304, 0
423, 2977888011, -0.8324093, 0.06430018, -0.24260412, -0.4941378, -0.15034312, -0.26667538, 0.10388374, 0
424, 2977904678, -0.8325941, 0.06364508, -0.241749, -0.49433023, -0.16596676, -0.19217508, 0.12834167, 0
426, 2977938012, -0.83278495, 0.06295916, -0.24038604, -0.4947608, -0.11857288, -0.3063586, 0.24648571, 0
427, 2977954679, -0.83277464, 0.06291752, -0.2399708, -0.4949853, -0.2485282, -0.08338942, 0.22544765, 0
428, 2977971346, -0.83274233, 0.06290034, -0.2397306, -0.49515837, -0.1960596, -0.07786798, 0.24332142, 0
430, 2978004680, -0.83265674, 0.06274239, -0.23944028, -0.49546242, -0.07308447, -0.0705586, 0.30104637, 0
431, 2978021347, -0.8326423, 0.06270201, -0.23927473, -0.49557167, -0.17288654, -0.0076122647, 0.2708807, 0
432, 2978038014, -0.8326212, 0.06267994, -0.23913205, -0.49567884, -0.2301284, 0.031766836, 0.2179203, 0
434, 2978071348, -0.83258796, 0.06278041, -0.23960672, -0.4954927, -0.30288127, -0.10787414, 0.01606369, 0
435, 2978088015, -0.8325568, 0.06305841, -0.24030986, -0.4951692, -0.28230107, -0.21467502, -0.058732033, 0
436, 2978104682, -0.832397, 0.06347879, -0.24180944, -0.49465388, -0.4116117, -0.14229363, -0.07746124, 0
438, 2978138016, -0.8320059, 0.065263174, -0.24533337, -0.4933428, 0.027081497, 0.025095308, 0.7124758, 0
439, 2978154683, -0.8319904, 0.06620179, -0.24640924, -0.49270725, -0.105674334, -0.11490293, 0.48952866, 0
440, 2978171350, -0.83208966, 0.067144305, -0.2473979, -0.49191594, -0.20553477, -0.115987636, 0.4095974, 0
442, 2978204684, -0.8323346, 0.07004243, -0.24952602, -0.49001878, -0.38073477, -0.0699039, 0.35686016, 0
444, 2978238018, -0.8315502, 0.07486705, -0.25399807, -0.4883366, -0.72328186, 0.286086, 0.5037155, 0
446, 2978271352, -0.8294426, 0.08102468, -0.26349714, -0.48589903, -0.5559742, -0.4227582, 0.6218834, 0
447, 2978288019, -0.82808036, 0.08565047, -0.26985866, -0.48393363, -0.8089371, -0.32199574, 0.6627989, 0
448, 2978304686, -0.82624155, 0.091541156, -0.27771017, -0.4815501, -0.90062875, -0.41562125, 0.6362047, 0
450, 2978338020, -0.8218869, 0.10739111, -0.2961952, -0.47466412, -0.08902648, -0.4674903, 0.46113777, 0
451, 2978354687, -0.81982416, 0.116488904, -0.30525425, -0.47032678, -0.02873637, -0.3974163, 0.3197403, 0
453, 2978388021, -0.814973, 0.13736954, -0.32264194, -0.46143198, -0.17059538, -0.79109055, 0.421093, 0
454, 2978404688, -0.8123056, 0.14936994, -0.33113015, -0.4563655, -0.1279708, -0.3780687, 0.08588028, 0
455, 2978421355, -0.8091994, 0.16208245, -0.3399257, -0.45104843, -0.35727036, -0.2839789, 0.25457382, 0
457, 2978454689, -0.8021139, 0.18775034, -0.3570131, -0.4404243, 0.2518875, 0.5001994, -0.34195518, 0
459, 2978488023, -0.79046196, 0.21384773, -0.38032222, -0.42995661, -2.2844262, -0.7214622, -0.3232546, 0
461, 2978521357, -0.7633597, 0.2607748, -0.4266845, -0.4090076, -2.8815136, -3.1983206, -0.50195503, 0
462, 2978538024, -0.74004555, 0.2962796, -0.46129674, -0.3896469, -3.3233933, -4.1160874, 0.3588724, 0
463, 2978554691, -0.7085255, 0.3378671, -0.5031348, -0.36160946, -3.8722458, -3.8574607, 2.8076458, 0
465, 2978588025, -0.6447009, 0.4038741, -0.5817894, -0.28781283, -4.5487556, -7.071583, 10.511406, 0
466, 2978604692, -0.6232596, 0.41874272, -0.61434275, -0.24259745, -5.3046327, -10.05625, 10.185463, 0
469, 2978654693, -0.5508869, 0.4776262, -0.66675025, -0.15462674, 1.2522242, -32.46021, 7.4124813, 0
470, 2978671360, -0.51607966, 0.5005384, -0.673029, -0.17384934, -3.9937665, -14.669695, 2.374795, 0
471, 2978688027, -0.48950323, 0.5136236, -0.68034196, -0.18379572, -2.4384618, -4.114926, -0.35300446, 0
473, 2978721361, -0.4473186, 0.5293335, -0.69882584, -0.17726539, -8.654274, -7.9719357, -6.569887, 0
475, 2978754695, -0.44174257, 0.52725786, -0.70477694, -0.17384155, -13.396337, -11.413991, -9.87397, 0
477, 2978788029, -0.4728389, 0.512264, -0.6854763, -0.21023737, -8.526927, -9.359692, -4.8783627, 0
478, 2978804696, -0.49411145, 0.4998495, -0.67079335, -0.23687375, -3.722075, -2.254202, -4.0996175, 0
480, 2978838030, -0.53253317, 0.4740616, -0.6470971, -0.27019978, -1.5961905, -1.0102603, -3.6871586, 0
481, 2978854697, -0.5482545, 0.4646708, -0.6344873, -0.28459156, -3.1801481, -5.1931133, -3.4202895, 0
482, 2978871364, -0.5623668, 0.45766422, -0.6184875, -0.30303246, -3.9242103, -5.16299, -3.3900003, 0
484, 2978904698, -0.5915477, 0.4350176, -0.5846558, -0.34507543, -4.045508, -2.0888045, -2.757781, 0
485, 2978921365, -0.6060405, 0.41827714, -0.5691962, -0.36584616, -3.0316007, -1.029023, -1.6212692, 0
486, 2978938032, -0.6197033, 0.3996932, -0.55457634, -0.38565123, -2.7336938, -0.9597818, -0.953125, 0
488, 2978971366, -0.6465853, 0.3602699, -0.5223945, -0.42344493, -2.6554015, -2.9555511, -0.040780067, 0
490, 2979004700, -0.672477, 0.31947958, -0.48137885, -0.462656, -1.2514778, -4.1925926, 1.4461756, 0
492, 2979038034, -0.6921519, 0.27005738, -0.44000152, -0.504442, -0.18501264, -1.6826432, 4.4784813, 0
493, 2979054701, -0.69968796, 0.24239826, -0.41971076, -0.524968, 0.6706011, -0.25753295, 4.360406, 0
494, 2979071368, -0.7053652, 0.21541002, -0.3998586, -0.54427946, 1.1434739, 0.33124262, 5.0577154, 0
496, 2979104702, -0.71331084, 0.15979779, -0.35789028, -0.581064, 1.7778504, 2.3794818, 7.2167664, 0
497, 2979121369, -0.7152411, 0.12951255, -0.33672726, -0.59861517, 2.869026, 4.164876, 6.1267834, 0
498, 2979138036, -0.7148368, 0.09959401, -0.31658393, -0.6155751, 3.4197836, 5.201076, 4.9071617, 0
500, 2979171370, -0.70624065, 0.04490863, -0.28264156, -0.6476029, 4.5471544, 8.659177, 1.9237909, 0
501, 2979188037, -0.69885707, 0.019816384, -0.27397764, -0.6604626, 5.8627706, 10.298045, 0.28348923, 0
503, 2979221371, -0.67994654, -0.029015556, -0.27175874, -0.68047506, 7.904919, 12.725154, -3.0616288, 0
504, 2979238038, -0.67004967, -0.045777403, -0.27508384, -0.68799376, 7.8180137, 13.819072, -7.1215796, 0
505, 2979254705, -0.662904, -0.05271794, -0.28116402, -0.69194984, 8.202203, 16.089533, -10.277024, 0
507, 2979288039, -0.66414076, -0.047911577, -0.3059132, -0.68051976, 9.466368, 16.792717, -10.995478, 0
508, 2979304706, -0.66934633, -0.04162234, -0.3242474, -0.66721445, 11.391729, 15.432702, -6.1600204, 0
509, 2979321373, -0.67328006, -0.03534683, -0.34094298, -0.6551877, 12.355517, 10.889655, -3.2483716, 0
511, 2979354707, -0.6742276, -0.00846725, -0.3700489, -0.6391227, 11.134464, 10.279352, -4.9472675, 0
512, 2979371374, -0.67237777, 0.011176035, -0.38576892, -0.6316915, 11.667291, 11.385714, -3.5509353, 0
513, 2979388041, -0.6698477, 0.034729585, -0.4021834, -0.6232293, 15.075956, 6.548038, 9.994411, 0
515, 2979421375, -0.66665196, 0.14846805, -0.31607765, -0.658556, -3.908806, 2.4130235, 1.1556892, 0
517, 2979454709, -0.68776953, 0.16367579, -0.27182573, -0.6529646, 1.4021319, -0.60089046, 3.5525799, 0
519, 2979488043, -0.6986507, 0.15959877, -0.25069255, -0.65087414, -5.795898, 1.6321334, 0.44128513, 0
520, 2979504710, -0.69636196, 0.16318382, -0.25620526, -0.6502911, -4.0324054, -0.82096624, 0.29538822, 0
521, 2979521377, -0.69222796, 0.17119795, -0.26938355, -0.6473118, -2.001519, -2.6263428, 0.7513504, 0
523, 2979554711, -0.6809542, 0.20064805, -0.3028694, -0.6359092, 0.32721734, -0.9254696, 0.16958332, 0
524, 2979571378, -0.6747372, 0.21715426, -0.31874657, -0.6293192, 0.05489836, 0.30432373, -0.19310379, 0
525, 2979588045, -0.66762716, 0.23280627, -0.33390215, -0.6234205, 0.55172896, 0.34689322, -0.19187546, 0
527, 2979621379, -0.6507935, 0.26603007, -0.36472267, -0.61052585, -1.1060492, -1.4174024, -0.256135, 0
528, 2979638046, -0.63915586, 0.28659022, -0.383185, -0.60214925, 0.31007707, -0.9555752, -0.17553425, 0
529, 2979654713, -0.6278601, 0.30681372, -0.39972416, -0.5932504, 2.259757, 0.52493596, 0.0131931305, 0
532, 2979704714, -0.59562457, 0.3670469, -0.443115, -0.56055826, -2.1227553, -2.8233871, -1.0055189, 0
534, 2979738048, -0.54450125, 0.43846247, -0.50394326, -0.50732493, -4.7452955, -4.347088, 1.3997927, 0
535, 2979754715, -0.5067133, 0.47800288, -0.5455573, -0.46603727, -6.205089, -5.1075587, 4.020232, 0
536, 2979771382, -0.46613172, 0.50746405, -0.5915954, -0.41867048, -7.0434246, -8.161334, 10.902821, 0
538, 2979804716, -0.42577097, 0.5151801, -0.68053776, -0.3004089, -10.953531, -17.816402, 23.575283, 0
539, 2979821383, -0.42294577, 0.5213786, -0.69522303, -0.2569338, 13.986076, -23.730883, 11.173206, 0
540, 2979838050, -0.39201906, 0.5340809, -0.70489186, -0.25352457, 2.711947, -26.377813, 11.862164, 0
542, 2979871384, -0.3438862, 0.5588805, -0.7185152, -0.23065025, -3.053275, -10.2609005, 1.4199038, 0
543, 2979888051, -0.32094556, 0.56777966, -0.7269072, -0.21516176, -9.352862, -18.241863, -3.952477, 0
544, 2979904718, -0.30408898, 0.5724378, -0.7342814, -0.20185176, -14.432596, -10.5936775, -8.171354, 0
547, 2979954719, -0.3119651, 0.57502973, -0.7387339, -0.16235514, -9.360424, -11.060521, -14.4443655, 0
548, 2979971386, -0.320616, 0.5755775, -0.73415285, -0.1643301, -6.8251023, -10.713669, -14.532627, 0
550, 2980004720, -0.3438427, 0.5648119, -0.725275, -0.19184485, -6.5611935, -8.960747, -11.76795, 0
551, 2980021387, -0.36046374, 0.5538801, -0.7200309, -0.2119124, -6.8946443, -6.4789753, -10.149347, 0
552, 2980038054, -0.37990132, 0.5421166, -0.71262336, -0.2324248, -5.669837, -4.883339, -9.701132, 0
554, 2980071388, -0.41771162, 0.5256451, -0.68880427, -0.2735539, -6.1930985, -5.0375896, -7.019087, 0
555, 2980088055, -0.43756568, 0.5177387, -0.6731652, -0.29563498, -7.2223454, -5.590702, -4.8578653, 0
556, 2980104722, -0.4603202, 0.5057158, -0.6563246, -0.31884706, -7.474456, -6.3406878, -1.8289695, 0
558, 2980138056, -0.50935745, 0.4708375, -0.6187248, -0.36893776, -3.6726427, -3.431909, 0.54160595, 0
559, 2980154723, -0.5323069, 0.4514961, -0.59950966, -0.39173636, -4.349276, -1.8110719, 1.1932163, 0
562, 2980204724, -0.6072699, 0.37948906, -0.54028416, -0.44201, -3.8265562, -2.3550398, 3.2920847, 0
563, 2980221391, -0.63077945, 0.35300863, -0.5182092, -0.45719796, -2.994016, -2.4493914, 5.2081814, 0
565, 2980254725, -0.66909033, 0.29564142, -0.47566962, -0.48859096, 0.33322832, 1.6164267, 5.7754173, 0
566, 2980271392, -0.6825392, 0.26778537, -0.45694268, -0.50368947, 0.95958513, 2.144604, 5.563921, 0
567, 2980288059, -0.69268167, 0.24203125, -0.44012383, -0.51766056, 0.5618037, 3.037482, 3.5363865, 0
569, 2980321393, -0.70471656, 0.19345781, -0.4225778, -0.5361393, 0.13057075, 2.9719574, 3.511651, 0
570, 2980338060, -0.7076496, 0.16948302, -0.41766286, -0.54418176, 0.88513774, 1.4009395, 12.307053, 0
571, 2980354727, -0.7115711, 0.14308345, -0.4021449, -0.5581591, 2.4462354, 1.1879526, 18.631435, 0
573, 2980388061, -0.7186504, 0.09689465, -0.35096276, -0.592492, 3.3182724, 7.122515, 3.0053997, 0
574, 2980404728, -0.719767, 0.07427302, -0.33069816, -0.6059095, 4.488867, 7.7386274, 3.3375177, 0
575, 2980421395, -0.71989584, 0.054373093, -0.31233332, -0.6175032, 5.3942065, 7.452258, 2.2957296, 0
577, 2980454729, -0.7192753, 0.021611467, -0.27716196, -0.6367308, 7.8671618, 10.410793, 2.6255198, 0
578, 2980471396, -0.72047365, 0.006691426, -0.25751346, -0.64391637, 6.769038, 9.490581, -2.1200218, 0
579, 2980488063, -0.72207886, -0.0047782883, -0.24177687, -0.648222, 5.022892, 8.288969, -5.846459, 0
581, 2980521397, -0.7257987, -0.019013591, -0.22356485, -0.65033996, 3.6526124, 6.019726, -5.3591776, 0
582, 2980538064, -0.72764564, -0.02379857, -0.21846992, -0.6498499, 3.8197966, 5.7078238, -2.6082582, 0
583, 2980554731, -0.72964686, -0.028302684, -0.21254677, -0.64938974, 3.4953437, 4.2320666, -1.3351488, 0
585, 2980588065, -0.7329121, -0.034620278, -0.1990769, -0.64967567, 3.5850348, 3.6493375, -2.852806, 0
586, 2980604732, -0.7338241, -0.036548976, -0.19416659, -0.6500265, 3.6279209, 3.4290798, -3.596375, 0
589, 2980654733, -0.7320445, -0.036653142, -0.19219777, -0.65260714, 4.843185, 2.9523797, -1.9008307, 0
590, 2980671400, -0.73034036, -0.034488615, -0.19062123, -0.65509206, 3.7927928, 2.2324767, -2.652645, 0
592, 2980704734, -0.7253849, -0.027155492, -0.19050743, -0.6609499, 2.9606473, 3.5192182, -3.3471618, 0
593, 2980721401, -0.72251487, -0.022592839, -0.19327858, -0.66345596, 2.8208985, 3.9508789, -3.5310645, 0
594, 2980738068, -0.71963584, -0.017363027, -0.19872017, -0.6651328, 2.7321844, 4.577537, -4.1125345, 0
596, 2980771402, -0.7128601, -0.006087117, -0.21976896, -0.6660057, 3.9487247, 4.5914965, -4.343638, 0
597, 2980788069, -0.7089495, 0.0021214038, -0.23204102, -0.66604185, 4.520269, 4.571695, -2.7683911, 0
598, 2980804736, -0.7051389, 0.012701683, -0.24348253, -0.66588485, 4.0464, 5.2548547, -2.4746466, 0
600, 2980838070, -0.69791424, 0.036407016, -0.27148423, -0.66178185, 3.4517188, 7.3091416, -4.488417, 0
601, 2980854737, -0.6944083, 0.048744485, -0.29091942, -0.656396, 4.412905, 8.161729, -4.3008966, 0
604, 2980904738, -0.683566, 0.10137093, -0.35021463, -0.63236046, 9.6043415, 8.425846, 0.45559692, 0
605, 2980921405, -0.67808163, 0.12031348, -0.36461487, -0.6267812, 9.5138645, 9.897745, 3.7642927, 0
606, 2980938072, -0.67275214, 0.1374128, -0.3753915, -0.62263334, 9.595649, 9.816119, 1.1362162, 0
608, 2980971406, -0.6711204, 0.20187922, -0.34484005, -0.6244969, -4.984168, 20.582678, 20.767454, 0
609, 2980988073, -0.6820753, 0.19523096, -0.32449573, -0.62564313, -12.328528, -4.068738, 4.5465508, 0
611, 2981021407, -0.693287, 0.20200568, -0.30749273, -0.6197287, -4.7306805, 0.2684709, 0.7001791, 0
612, 2981038074, -0.69271684, 0.20817678, -0.310232, -0.61695266, -3.2008991, 1.3910546, -0.12792873, 0
613, 2981054741, -0.689565, 0.21625452, -0.3178913, -0.6137981, -1.4588206, -1.2884849, 0.013969421, 0
615, 2981088075, -0.6780268, 0.24262293, -0.34514794, -0.6019596, 0.3444785, -2.3046765, 2.0503998E-4, 0
616, 2981104742, -0.6702444, 0.26001042, -0.36145088, -0.593792, -0.16984193, -0.5710245, -0.4130993, 0
619, 2981154743, -0.6299522, 0.32315102, -0.4303127, -0.5600295, -2.1559038, -3.5162377, -0.94296074, 0
620, 2981171410, -0.60095084, 0.35882533, -0.4708153, -0.53712577, -3.3487525, -4.3375926, -0.49062157, 0
621, 2981188077, -0.56189126, 0.40185964, -0.51894987, -0.50353444, -5.1096992, -4.150471, 1.9772701, 0
623, 2981221411, -0.46678028, 0.47471327, -0.6219572, -0.41231245, -8.235439, -6.7580223, 12.420622, 0
624, 2981238078, -0.42666113, 0.49249905, -0.6680092, -0.35949585, -13.954997, -13.880573, 20.732468, 0
625, 2981254745, -0.4091769, 0.50270826, -0.6999908, -0.29990035, -10.239473, -17.574928, 24.602905, 0
627, 2981288079, -0.3593544, 0.538496, -0.71721935, -0.25797608, -8.563679, -28.77558, 12.070082, 0
628, 2981304746, -0.3367612, 0.55197436, -0.72241056, -0.2451687, 0.8916973, 5.8399315, 4.079835, 0
629, 2981321413, -0.31529996, 0.56372476, -0.7335452, -0.21161406, -5.4989066, -16.99184, 3.0747395, 0
632, 2981371414, -0.25666746, 0.5824238, -0.7570853, -0.14762993, -13.320938, -11.623571, -12.195751, 0
635, 2981421415, -0.24862362, 0.56932604, -0.7776116, -0.09717562, -5.1385756, -10.490085, -15.430258, 0
636, 2981438082, -0.24867037, 0.5617342, -0.7831073, -0.0971046, -5.3715425, -8.774803, -13.74614, 0
638, 2981471416, -0.26113915, 0.5411056, -0.7920337, -0.10845572, -9.497574, -5.1561494, -12.712294, 0
639, 2981488083, -0.27727798, 0.52881277, -0.7932215, -0.11976016, -10.620236, -4.697993, -12.089121, 0
640, 2981504750, -0.29891285, 0.51761866, -0.79016787, -0.13574022, -9.898443, -3.0184214, -10.33954, 0
642, 2981538084, -0.3486229, 0.49908805, -0.7742132, -0.17330882, -6.5292335, -2.3992848, -6.2923822, 0
643, 2981554751, -0.37276474, 0.49124777, -0.7626929, -0.19516718, -5.521047, -3.181078, -4.3746924, 0
644, 2981571418, -0.39605138, 0.48334706, -0.7489579, -0.22056717, -5.724128, -4.1861787, -1.7358685, 0
646, 2981604752, -0.44342905, 0.4672381, -0.71221113, -0.27907577, -5.4865856, -0.73037934, 1.5335207, 0
647, 2981621419, -0.4700201, 0.4576243, -0.69006836, -0.30583537, -4.148916, 0.8130644, 2.6640701, 0
648, 2981638086, -0.47627124, 0.4746792, -0.65658766, -0.34176975, 18.01384, 5.2375555, 7.296957, 0
650, 2981671420, -0.51991737, 0.45698667, -0.61317587, -0.38070107, -6.5779266, 7.0915947, 2.4831858, 0
651, 2981688087, -0.5568596, 0.42826763, -0.5984893, -0.38519287, 8.539464, -10.295216, -0.51644516, 0
652, 2981704754, -0.57335436, 0.43184507, -0.5672486, -0.40382192, 5.462331, -7.7240014, 1.4513903, 0
654, 2981738088, -0.59852666, 0.41428867, -0.52144796, -0.4452991, 0.52792084, 2.8138773, 0.75688267, 0
655, 2981754755, -0.6096365, 0.40279198, -0.5022906, -0.4624658, -1.3711004, 2.0205822, 3.6039038, 0
656, 2981771422, -0.62280554, 0.39307624, -0.4780101, -0.47872663, -3.4863698, 4.338013, 6.1630373, 0
658, 2981804756, -0.6575858, 0.37144822, -0.42172438, -0.5018209, 0.82992864, 2.2668564, 2.1909904, 0
659, 2981821423, -0.67206854, 0.36253023, -0.39434922, -0.5113248, 3.878763, -1.5012343, 0.066428185, 0
662, 2981871424, -0.689061, 0.3239827, -0.3339202, -0.55569434, 3.7136767, -3.3824286, 1.8497143, 0
663, 2981888091, -0.6919313, 0.30274385, -0.31940165, -0.5723885, 2.8105462, -2.6265202, 2.772398, 0
664, 2981904758, -0.69477654, 0.28065276, -0.30562124, -0.5875236, 1.7857609, -1.6073499, 2.2862492, 0
666, 2981938092, -0.7029812, 0.23465253, -0.28208065, -0.60930693, -0.7259349, 1.3318993, 3.2324295, 0
667, 2981954759, -0.7093726, 0.2103836, -0.2709716, -0.61576974, -0.05010032, 2.1102595, 5.359915, 0
669, 2981988093, -0.72664857, 0.1631839, -0.24437168, -0.6210507, 0.023347214, 3.299059, 3.1228828, 0
670, 2982004760, -0.7349866, 0.1417704, -0.2304032, -0.62183505, 1.430389, 2.3328133, 2.9676933, 0
671, 2982021427, -0.7412184, 0.12314654, -0.21614474, -0.62352264, 3.0103908, 1.7601426, 2.1690025, 0
673, 2982054761, -0.74562603, 0.092764586, -0.19014987, -0.63194, 4.5589895, 2.0297868, 2.6766453, 0
674, 2982071428, -0.74414635, 0.07863326, -0.1771583, -0.639333, 4.127818, 3.108913, 1.268158, 0
677, 2982121429, -0.7341751, 0.04516535, -0.14466089, -0.6618828, 2.3460212, 6.11762, -2.8061104, 0
678, 2982138096, -0.73120886, 0.03424515, -0.14159408, -0.66646886, 2.9895027, 5.500916, -4.4409246, 0
679, 2982154763, -0.7286525, 0.025449019, -0.14241625, -0.66948074, 4.5530243, 4.906054, -3.8342395, 0
681, 2982188097, -0.72439253, 0.01059901, -0.1456715, -0.67378896, 5.3008733, 5.2621446, -3.6999183, 0
682, 2982204764, -0.7214743, 0.0047200993, -0.15013096, -0.67600435, 4.35049, 4.878256, -6.3100443, 0
683, 2982221431, -0.7163135, 3.1399354E-4, -0.16018367, -0.67919433, 3.947327, 5.068761, -7.818065, 0
685, 2982254765, -0.7009869, 0.0030655377, -0.1973395, -0.6853713, 6.57819, 6.8889337, -7.336746, 0
686, 2982271432, -0.6928711, 0.010201503, -0.22029814, -0.68655884, 7.4656067, 8.383086, -6.0928235, 0
687, 2982288099, -0.68512225, 0.018546257, -0.2432738, -0.68640375, 7.425876, 9.514706, -5.2930946, 0
689, 2982321433, -0.6724016, 0.033761464, -0.28700504, -0.6814933, 5.2458253, 10.799694, -5.1042194, 0
691, 2982354767, -0.6674863, 0.04803908, -0.32552066, -0.6680263, 6.083621, 10.841004, -3.0748658, 0
693, 2982388101, -0.6739407, 0.068801716, -0.34982324, -0.6471185, 8.926941, 10.0063, -1.8389997, 0
694, 2982404768, -0.67880327, 0.080613256, -0.3584114, -0.63587534, 10.301144, 10.370935, -2.0159612, 0
696, 2982438102, -0.6850699, 0.10937012, -0.37230244, -0.6165849, 14.582796, 9.591112, -0.59081364, 0
697, 2982454769, -0.6873461, 0.14428139, -0.37097842, -0.60760343, 40.94797, 6.697182, 27.54206, 0
698, 2982471436, -0.69805133, 0.17921154, -0.32550082, -0.6121483, -2.8715584, 27.64763, 25.280434, 0
700, 2982504770, -0.7235998, 0.17415524, -0.28930727, -0.6020324, -4.601583, 0.9347495, 2.7217064, 0
701, 2982521437, -0.7250281, 0.1828359, -0.29361725, -0.5956197, -6.9362693, 1.7232034, 0.19112015, 0
702, 2982538104, -0.7188537, 0.19288447, -0.3085882, -0.5923571, -5.7821493, 4.6621943, -0.9776201, 0
704, 2982571438, -0.7050558, 0.21388042, -0.34318098, -0.58262086, 3.9628048, -3.1931024, 0.60631275, 0
706, 2982604772, -0.69514626, 0.247865, -0.3736429, -0.5619558, -4.317236, -1.846918, -1.2053013, 0
708, 2982638106, -0.647611, 0.31354028, -0.4502925, -0.5287702, -2.8113117, -5.418299, -1.3929119, 0
709, 2982654773, -0.604409, 0.36330733, -0.506159, -0.49655733, -4.0050883, -5.033348, 1.9720869, 0
710, 2982671440, -0.55291057, 0.41390353, -0.56515676, -0.4512651, -7.947303, -5.4395933, 8.913719, 0
712, 2982704774, -0.46604705, 0.4714854, -0.6693496, -0.3354721, -14.823517, -17.64499, 28.541405, 0
713, 2982721441, -0.4483663, 0.48660836, -0.6997696, -0.26939017, 3.232368, -23.889154, 29.24804, 0
714, 2982738108, -0.3915115, 0.52121747, -0.7165952, -0.24821588, 15.5350895, -36.2914, 24.183796, 0
716, 2982771442, -0.33120385, 0.5549818, -0.72953916, -0.22392036, -5.3428597, 4.245547, 6.782305, 0
717, 2982788109, -0.30627587, 0.57076377, -0.7376621, -0.19064882, -8.718388, -25.482851, 0.20477962, 0
719, 2982821443, -0.26882428, 0.5891663, -0.74922574, -0.13909042, -17.231787, -10.904172, -8.573709, 0
720, 2982838110, -0.2675772, 0.59148353, -0.75370383, -0.10270722, -14.094266, -12.557609, -15.797989, 0
721, 2982854777, -0.2703593, 0.59257734, -0.75526845, -0.07345915, -9.404617, -15.118548, -21.048267, 0
723, 2982888111, -0.2800866, 0.5933281, -0.7527442, -0.05438755, -5.6442976, -9.644116, -18.003895, 0
724, 2982904778, -0.2878966, 0.5906329, -0.7517553, -0.05657463, -5.176287, -8.258076, -15.248657, 0
725, 2982921445, -0.29883012, 0.58583206, -0.7506362, -0.06414879, -5.721952, -6.819762, -13.132456, 0
727, 2982954779, -0.32883006, 0.5689578, -0.74869573, -0.087642595, -4.39778, -4.0398984, -10.674562, 0
728, 2982971446, -0.34409565, 0.55704594, -0.7490239, -0.10163505, -3.8737378, -3.33072, -10.016375, 0
729, 2982988113, -0.35767642, 0.54505265, -0.74902153, -0.11840791, -4.264292, -3.1221232, -9.616274, 0
731, 2983021447, -0.3821847, 0.52495927, -0.7425133, -0.16460706, -6.339472, -2.7339838, -6.1689606, 0
733, 2983054781, -0.4089622, 0.5183029, -0.7180653, -0.22037032, -7.6929574, -0.528089, -1.917273, 0
735, 2983088115, -0.45531815, 0.50951797, -0.6790024, -0.26851678, -5.1535363, 0.419094, 0.67097664, 0
736, 2983104782, -0.48134997, 0.5021548, -0.6578239, -0.28892747, -2.3807714, 0.15791716, 1.7406836, 0
737, 2983121449, -0.50408226, 0.49439585, -0.6372406, -0.30897748, -1.3933553, -0.46197093, 1.756526, 0
739, 2983154783, -0.5392289, 0.47853062, -0.5964538, -0.3529197, -0.8709003, -1.0903496, 1.4964657, 0
740, 2983171450, -0.5537345, 0.4713294, -0.5753328, -0.37454975, -1.1696247, 0.25767165, 2.4588995, 0
741, 2983188117, -0.5700533, 0.46118546, -0.55554676, -0.39215276, -1.6858263, 1.2696631, 2.9226017, 0
743, 2983221451, -0.60917324, 0.43023795, -0.5182513, -0.41867346, -1.4900556, -1.01275, 2.2012968, 0
744, 2983238118, -0.6286559, 0.4130504, -0.49966815, -0.42962945, -1.4435751, -0.36920518, 1.0114517, 0
746, 2983271452, -0.664964, 0.3768708, -0.4642741, -0.44755933, -0.9580009, -3.5562444, 3.918604, 0
748, 2983304786, -0.69389886, 0.34149086, -0.42549717, -0.47000974, 0.6825992, -2.9117756, 3.3033848, 0
750, 2983338120, -0.7109113, 0.30456918, -0.3925909, -0.49777877, 0.6709855, -3.643084, 3.8662195, 0
751, 2983354787, -0.7150369, 0.28498554, -0.37713298, -0.5151162, -0.006439464, -3.1546702, 6.008894, 0
752, 2983371454, -0.7178819, 0.26496372, -0.36017308, -0.5336513, -0.048455037, -2.2468965, 6.374647, 0
754, 2983404788, -0.7229777, 0.2240326, -0.323148, -0.5681168, 0.2303229, 0.19036755, 6.559868, 0
755, 2983421455, -0.72573775, 0.20230314, -0.30532667, -0.582428, 0.9714783, 0.79770386, 6.5526447, 0
756, 2983438122, -0.7282784, 0.18022177, -0.28848025, -0.59496105, 2.1417627, 1.5562077, 7.147009, 0
758, 2983471456, -0.7316957, 0.13595869, -0.25551185, -0.6171863, 4.249491, 3.8476477, 6.4916096, 0
759, 2983488123, -0.7330516, 0.11610929, -0.23838344, -0.626415, 4.2646437, 5.0048223, 3.9156246, 0
760, 2983504790, -0.73428917, 0.09766449, -0.22299616, -0.6337367, 4.6378684, 5.355022, 1.8864985, 0
763, 2983554791, -0.73401105, 0.049095884, -0.18974905, -0.65029323, 6.2358456, 5.9228406, 0.96197605, 0
764, 2983571458, -0.7317136, 0.034042895, -0.1805067, -0.6564466, 5.894475, 6.472282, -0.3582716, 0
766, 2983604792, -0.7263011, 0.009914849, -0.16281092, -0.6677946, 4.817617, 7.450031, -2.740397, 0
767, 2983621459, -0.7251469, 0.0028965995, -0.15379097, -0.67124546, 3.8099604, 7.298724, -4.4111624, 0
768, 2983638126, -0.72520137, -0.0026641637, -0.14745685, -0.6726075, 3.1534145, 7.6398187, -5.1277027, 0
770, 2983671460, -0.725955, -0.015222922, -0.1441865, -0.6723365, 3.9927251, 6.060835, -4.899803, 0
771, 2983688127, -0.7262332, -0.019583594, -0.14464732, -0.67182416, 3.8904076, 5.528809, -5.4753356, 0
772, 2983704794, -0.7259358, -0.022746544, -0.14737779, -0.6714523, 3.2319005, 5.69472, -6.6498117, 0
774, 2983738128, -0.72302544, -0.025186315, -0.16115147, -0.67134106, 4.852783, 6.0443163, -6.1822457, 0
775, 2983754795, -0.72145706, -0.021661498, -0.16828625, -0.6714008, 5.4182367, 5.8993816, -5.448966, 0
778, 2983804796, -0.7183424, 0.0016852021, -0.18132676, -0.67169213, 2.9459507, 6.9741774, -5.742065, 0
779, 2983821463, -0.71702087, 0.00994838, -0.18812971, -0.6711614, 3.214079, 7.202799, -5.964268, 0
781, 2983854797, -0.7141962, 0.02670652, -0.21192233, -0.66660947, 4.8873415, 8.157784, -7.184301, 0
782, 2983871464, -0.7122715, 0.036034346, -0.22991168, -0.6622536, 6.4122562, 8.517705, -6.7483964, 0
783, 2983888131, -0.7099434, 0.04453247, -0.25040597, -0.6567821, 8.422541, 10.3500805, -3.4008002, 0
785, 2983921465, -0.70898944, 0.055321, -0.28025812, -0.64482373, 11.515267, 7.3185596, 1.5060043, 0
786, 2983938132, -0.7086914, 0.063856274, -0.28758866, -0.64112407, 9.865604, 4.1853604, -0.72935486, 0
787, 2983954799, -0.7055541, 0.07393781, -0.2938009, -0.64068425, 9.879036, 4.22533, 1.3012247, 0
789, 2983988133, -0.68904686, 0.106923625, -0.30653816, -0.6479852, 11.461604, 10.107755, -7.2867665, 0
790, 2984004800, -0.675684, 0.12992759, -0.32758155, -0.64755607, 14.888546, 16.42485, -3.2237387, 0
791, 2984021467, -0.6749747, 0.17574197, -0.3052219, -0.6484074, 9.557219, 34.552505, 65.983475, 0
793, 2984054801, -0.70046556, 0.17531036, -0.26361954, -0.6396778, -4.63853, 4.7086754, 4.739541, 0
794, 2984071468, -0.7018265, 0.18199629, -0.26416546, -0.6360836, -6.757494, 3.0558307, 1.0518064, 0
795, 2984088135, -0.6975416, 0.19454649, -0.2752521, -0.6323706, -1.6201477, -3.6932328, 0.77107334, 0
797, 2984121469, -0.6816428, 0.24793118, -0.32323286, -0.6078507, -4.183756, -5.0212765, -1.1662979, 0
798, 2984138136, -0.6596739, 0.2938891, -0.36558914, -0.5872588, -1.9422314, -4.9758162, -2.9245934, 0
799, 2984154803, -0.62409973, 0.34863496, -0.42346984, -0.55650246, -1.4756242, -5.787962, -1.2570591, 0
801, 2984188137, -0.5235643, 0.46433583, -0.5485089, -0.45768926, -9.188764, -3.2005594, 11.6999, 0
802, 2984204804, -0.47308898, 0.49467337, -0.6098945, -0.39947754, -11.166583, -9.608161, 17.712029, 0
805, 2984254805, -0.3425099, 0.552768, -0.707183, -0.2776609, -5.5883236, -39.76419, 28.487118, 0
806, 2984271472, -0.31555527, 0.56281126, -0.7092196, -0.28415605, -12.510469, 10.444063, 7.302883, 0
808, 2984304806, -0.28362244, 0.5803412, -0.73600733, -0.20279095, -5.452288, -29.280037, -0.47060394, 0
809, 2984321473, -0.2572371, 0.58980924, -0.7436654, -0.18161678, -9.660885, -19.738173, -8.276106, 0
810, 2984338140, -0.23752238, 0.5934078, -0.75299805, -0.15656605, -15.055126, -14.177397, -12.098099, 0
812, 2984371474, -0.23275377, 0.5909816, -0.76496124, -0.10709438, -9.963671, -13.158732, -16.872066, 0
813, 2984388141, -0.23670304, 0.5903792, -0.76624405, -0.09144712, -6.159611, -9.806306, -17.313677, 0
814, 2984404808, -0.2387599, 0.59084725, -0.7663163, -0.08198303, -4.9099646, -7.414848, -17.452015, 0
816, 2984438142, -0.24168126, 0.5865408, -0.7689175, -0.07996649, -8.171399, -6.93098, -17.350609, 0
817, 2984454809, -0.24992642, 0.58231497, -0.7685273, -0.088771865, -10.608831, -5.680326, -15.991144, 0
820, 2984504810, -0.32606035, 0.56804013, -0.74366355, -0.13434362, -8.25092, -1.1762898, -8.22689, 0
821, 2984521477, -0.35720828, 0.56734216, -0.72624224, -0.15220395, -6.513058, -1.3353547, -6.6539707, 0
822, 2984538144, -0.38680443, 0.56606114, -0.70751375, -0.17161077, -5.4612436, -3.5183983, -5.09112, 0
824, 2984571478, -0.43959826, 0.5540931, -0.6700269, -0.22553678, -3.589091, -6.728424, -1.8506298, 0
825, 2984588145, -0.46224678, 0.5445434, -0.6496628, -0.26039818, -3.2123613, -6.4683185, 0.9818182, 0
827, 2984621479, -0.5062832, 0.5176689, -0.60532695, -0.33067286, -3.5775368, -1.7796444, 2.735197, 0
828, 2984638146, -0.5298229, 0.5016707, -0.5807142, -0.36118388, -3.3586445, 0.11196572, 4.0325575, 0
829, 2984654813, -0.554077, 0.48377928, -0.55680066, -0.38600245, -3.005436, 2.594547, 3.5454683, 0
831, 2984688147, -0.6037942, 0.44099355, -0.51344484, -0.42118892, -3.1509314, 0.44705173, 3.9963856, 0
832, 2984704814, -0.6283501, 0.41787705, -0.49146748, -0.43483692, -3.2739131, -0.05597692, 3.8828163, 0
835, 2984754815, -0.6959333, 0.3435557, -0.42043722, -0.47005057, 0.14954391, -3.1351693, 5.617916, 0
836, 2984771482, -0.71113265, 0.31775963, -0.3971994, -0.4854076, 0.42215362, -2.8127804, 6.5998936, 0
837, 2984788149, -0.7219505, 0.29125756, -0.37461835, -0.5036727, 0.9848638, -2.2821078, 8.140028, 0
839, 2984821483, -0.7349299, 0.24301174, -0.32802796, -0.5415619, 2.1727195, 1.1675322, 8.226292, 0
840, 2984838150, -0.74050564, 0.21953037, -0.30653283, -0.55638504, 2.4784946, 2.4166932, 6.147005, 0
841, 2984854817, -0.74551296, 0.1960986, -0.28873175, -0.56785434, 2.5692105, 2.4481442, 4.951726, 0
843, 2984888151, -0.7497643, 0.15313153, -0.2583625, -0.58967936, 3.8960485, 2.5199616, 7.380287, 0
844, 2984904818, -0.74967813, 0.13403855, -0.24018872, -0.60199225, 4.5604053, 3.356673, 6.5851955, 0
845, 2984921485, -0.7487644, 0.117086045, -0.2208405, -0.6139552, 4.5689163, 3.8774688, 4.083246, 0
847, 2984954819, -0.7450532, 0.08555174, -0.18699881, -0.6345681, 4.5597878, 4.9388337, 1.7914772, 0
849, 2984988153, -0.74063635, 0.05757708, -0.16315289, -0.6493016, 4.5699043, 6.8166404, 2.1548843, 0
851, 2985021487, -0.7424482, 0.029536251, -0.13805865, -0.65490973, 3.8580496, 5.0741544, -0.36882877, 0
852, 2985038154, -0.7455146, 0.017222868, -0.12710974, -0.6540819, 4.174796, 4.405895, -1.2299061, 0
855, 2985088155, -0.75127447, -0.015470356, -0.10736294, -0.65106785, 4.4960003, 3.017356, -1.8467927, 0
856, 2985104822, -0.7512766, -0.02323359, -0.10045111, -0.6519369, 4.579412, 2.8806326, -1.4031239, 0
858, 2985138156, -0.74802905, -0.034652423, -0.086817354, -0.6571021, 2.8816965, 2.4744968, -3.4557657, 0
859, 2985154823, -0.744802, -0.038420744, -0.08210869, -0.66115105, 2.2205112, 2.8851862, -3.8163323, 0
860, 2985171490, -0.7414193, -0.04071542, -0.07889057, -0.665195, 2.2107656, 3.254957, -3.1876688, 0
862, 2985204824, -0.7362318, -0.0468468, -0.07309368, -0.6711886, 2.2879086, 3.7077682, -2.2242737, 0
863, 2985221491, -0.73473626, -0.049412742, -0.07002127, -0.6729684, 1.6889694, 3.523291, -2.9059033, 0
864, 2985238158, -0.7336042, -0.05158569, -0.06758085, -0.67428863, 1.4346166, 3.3630552, -3.0162148, 0
866, 2985271492, -0.7321296, -0.05439962, -0.065631494, -0.675861, 1.7001615, 3.7153854, -3.8007479, 0
867, 2985288159, -0.7314971, -0.05557295, -0.06597942, -0.6764163, 2.7109208, 4.4469805, -2.5511146, 0
868, 2985304826, -0.7314586, -0.05653888, -0.06500354, -0.6764723, 2.7658975, 4.095868, -2.498252, 0
870, 2985338160, -0.7314122, -0.056911867, -0.064369716, -0.67655176, 2.3289714, 3.0237973, -3.9752297, 0
871, 2985354827, -0.73090553, -0.054751456, -0.06546132, -0.67717266, 2.5604844, 3.07638, -4.0604863, 0
872, 2985371494, -0.72992516, -0.05172246, -0.06828765, -0.6781883, 2.6559947, 3.6979096, -3.9636836, 0
874, 2985404828, -0.72603613, -0.047825016, -0.07835975, -0.6815518, 3.9000292, 3.6289299, -4.410145, 0
875, 2985421495, -0.72410357, -0.042899102, -0.08433233, -0.6832205, 2.985754, 3.793129, -5.0804696, 0
878, 2985471496, -0.7162236, -0.022415288, -0.11919156, -0.6873015, 3.0633085, 4.728723, -6.869336, 0
879, 2985488163, -0.711445, -0.013028577, -0.13918564, -0.68874717, 4.479141, 4.74001, -7.272355, 0
880, 2985504830, -0.7058729, 0.0022865944, -0.16121532, -0.6897945, 6.714803, 4.7704487, -6.694646, 0
882, 2985538164, -0.69186044, 0.046395615, -0.20775357, -0.68998814, 7.6340456, 8.364871, -2.843144, 0
883, 2985554831, -0.6838366, 0.07063147, -0.23086552, -0.6885844, 6.9915786, 7.65528, -1.6913347, 0
885, 2985588165, -0.6668591, 0.114954636, -0.2717446, -0.6843302, 6.3475914, 9.027726, 5.5150394, 0
886, 2985604832, -0.66036737, 0.12800765, -0.28423998, -0.6832315, 7.0913754, 8.017554, 5.391492, 0
887, 2985621499, -0.6565034, 0.13935913, -0.2933352, -0.6808858, 6.521079, 9.947691, 0.9226866, 0
889, 2985654833, -0.65372044, 0.16018653, -0.32998732, -0.66194177, 13.479675, 14.135773, -1.7951508, 0
890, 2985671500, -0.6611142, 0.19039513, -0.3213525, -0.6507527, 39.14674, 30.726837, 69.4393, 0
893, 2985721501, -0.68731177, 0.18950465, -0.27504754, -0.6450644, -5.9736357, 0.26365945, 1.0900583, 0
894, 2985738168, -0.6813005, 0.20675012, -0.2931171, -0.63814974, -4.5269337, -2.2121975, 0.32165527, 0
895, 2985754835, -0.67003477, 0.23377207, -0.3230317, -0.62619734, -4.01322, -4.901605, -0.91724014, 0
897, 2985788169, -0.61840916, 0.32034153, -0.42423785, -0.5788285, -2.2425697, -6.092675, -0.7652769, 0
898, 2985804836, -0.5741175, 0.37546772, -0.49071127, -0.5372932, -4.203523, -4.933886, 5.292782, 0
899, 2985821503, -0.52817917, 0.41910523, -0.55586016, -0.48627725, -8.029292, -4.428747, 14.549549, 0
901, 2985854837, -0.47122607, 0.45137054, -0.67572665, -0.3430346, 4.389832, -2.8633506, 37.49096, 0
902, 2985871504, -0.44127095, 0.4773144, -0.70820475, -0.27561846, 25.973246, -24.38276, 33.06145, 0
903, 2985888171, -0.39300844, 0.49959517, -0.72904754, -0.25398323, -15.592723, -39.948406, 19.7855, 0
905, 2985921505, -0.33248702, 0.53066516, -0.7520247, -0.20585108, -12.658561, -13.596813, 0.55019665, 0
907, 2985954839, -0.2825688, 0.5555817, -0.7662978, -0.1560133, -16.387087, -16.592978, -12.957564, 0
909, 2985988173, -0.2570132, 0.57108045, -0.77030027, -0.12048856, -15.632823, -12.281342, -18.652391, 0
910, 2986004840, -0.25967464, 0.57586384, -0.7677145, -0.10785689, -13.295986, -10.327207, -17.900349, 0
912, 2986038174, -0.2840977, 0.5794381, -0.7584741, -0.09124492, -6.619185, -7.6257043, -15.195029, 0
913, 2986054841, -0.299338, 0.5785241, -0.7539483, -0.08565728, -6.2497706, -6.04323, -13.7035055, 0
914, 2986071508, -0.31543124, 0.5755439, -0.7501377, -0.081329525, -5.9933453, -5.5787287, -12.996361, 0
916, 2986104842, -0.34659776, 0.56560016, -0.74348533, -0.08523236, -7.5341263, -6.6639833, -12.141789, 0
917, 2986121509, -0.36196017, 0.55982625, -0.7390322, -0.097362414, -7.0955963, -4.9980283, -10.825223, 0
918, 2986138176, -0.3763471, 0.5559913, -0.7323097, -0.11413948, -6.5257263, -3.2236772, -9.377647, 0
920, 2986171510, -0.40356433, 0.55370784, -0.71226126, -0.15263107, -6.099446, -2.5387127, -6.788661, 0
922, 2986204844, -0.4355221, 0.55000776, -0.6838967, -0.20041478, -6.775299, -6.217091, -4.2583976, 0
924, 2986238178, -0.47323766, 0.53681314, -0.6464615, -0.2646393, -2.514516, -5.290115, -1.6272945, 0
925, 2986254845, -0.48770967, 0.5313209, -0.6252635, -0.29824746, -1.4539474, -3.192118, -0.50694466, 0
926, 2986271512, -0.50189364, 0.52465117, -0.60395426, -0.32886463, -3.8735287, -1.550284, 1.9058037, 0
928, 2986304846, -0.5412877, 0.5006538, -0.56036764, -0.37737298, -5.1603336, -2.2422807, 2.564066, 0
929, 2986321513, -0.5645704, 0.4872275, -0.5355153, -0.39643618, -3.8089268, -2.9183064, 2.1211586, 0
930, 2986338180, -0.58771086, 0.47165212, -0.51040035, -0.41436756, -2.5436652, -4.531021, 2.4348526, 0
932, 2986371514, -0.62788516, 0.432814, -0.46319738, -0.4516073, -1.7385035, -5.4446363, 2.8116188, 0
933, 2986388181, -0.6444886, 0.40968558, -0.44199544, -0.47063893, -2.3090184, -5.346945, 4.537966, 0
935, 2986421515, -0.6737772, 0.35805017, -0.3993158, -0.5083697, -2.4532783, -4.563505, 8.257471, 0
936, 2986438182, -0.68649673, 0.3301685, -0.37705857, -0.5268836, -1.7557244, -3.7824945, 8.107172, 0
937, 2986454849, -0.69693285, 0.30296478, -0.35479808, -0.5446869, -1.2190489, -2.8900373, 8.192528, 0
939, 2986488183, -0.71105075, 0.25176212, -0.31245327, -0.5774636, 0.5759295, -2.0073838, 9.710909, 0
940, 2986504850, -0.7155609, 0.2265245, -0.29208302, -0.5928031, 1.86619, -0.9700139, 12.127474, 0
941, 2986521517, -0.7189861, 0.2002499, -0.27101046, -0.60793173, 3.1530495, 0.35277945, 12.829863, 0
943, 2986554851, -0.72213185, 0.15155844, -0.22629298, -0.63593686, 5.167214, 3.0848386, 10.309311, 0
944, 2986571518, -0.7225391, 0.12918305, -0.20410162, -0.6478118, 5.640993, 4.4422116, 8.229273, 0
945, 2986588185, -0.7227089, 0.10742498, -0.18412954, -0.6575079, 5.7128844, 5.7822623, 6.4207706, 0
947, 2986621519, -0.72450614, 0.062808044, -0.1508546, -0.6696698, 7.2082586, 9.0078535, 5.3571396, 0
949, 2986654853, -0.72939277, 0.01626719, -0.12329096, -0.6727478, 6.26928, 8.223193, 0.61055565, 0
951, 2986688187, -0.73558104, -0.024729526, -0.103340045, -0.6691029, 4.953728, 6.8043094, -1.6440687, 0
952, 2986704854, -0.73726434, -0.042990215, -0.09576649, -0.66745055, 5.683359, 6.62294, -1.9572945, 0
953, 2986721521, -0.7373717, -0.059162445, -0.08747904, -0.66723216, 5.9981394, 6.311336, -2.759584, 0
955, 2986754855, -0.73502487, -0.0794766, -0.06955428, -0.6698156, 4.2895994, 5.1154866, -4.3984985, 0
956, 2986771522, -0.73259395, -0.0867582, -0.061917514, -0.67231965, 3.5461373, 4.594047, -3.4484253, 0
957, 2986788189, -0.7296578, -0.09307405, -0.054441407, -0.67530847, 2.7143679, 4.2029486, -3.6207457, 0
959, 2986821523, -0.723415, -0.10443944, -0.03929861, -0.68138635, 2.1943982, 4.954782, -4.7582726, 0
960, 2986838190, -0.7212236, -0.109033905, -0.031835455, -0.6833764, 2.3565693, 4.801597, -5.898354, 0
961, 2986854857, -0.71987057, -0.11236789, -0.025503602, -0.6845275, 2.562438, 4.4639335, -6.916024, 0
964, 2986904858, -0.71633387, -0.11665338, -0.017632572, -0.6877611, 3.6374562, 4.108624, -7.2443933, 0
966, 2986938192, -0.7150011, -0.11768197, -0.016674435, -0.6889956, 4.3697877, 3.8666945, -8.155163, 0
967, 2986954859, -0.715228, -0.11612505, -0.017693128, -0.68899906, 4.095908, 3.8427067, -8.889491, 0
968, 2986971526, -0.715346, -0.11319468, -0.020736162, -0.68927914, 4.803172, 3.674027, -8.332206, 0
970, 2987004860, -0.7157692, -0.10355277, -0.0312429, -0.6899593, 5.5165515, 5.024147, -6.168781, 0
971, 2987021527, -0.716534, -0.09772672, -0.037399106, -0.68970895, 5.9984274, 4.541741, -4.8049574, 0
972, 2987038194, -0.7169635, -0.09064278, -0.044056457, -0.68983686, 3.9769597, 2.6896868, -4.765047, 0
974, 2987071528, -0.7126168, -0.07414163, -0.06227915, -0.6948886, 0.94171125, 3.5071144, -2.977685, 0
975, 2987088195, -0.70885783, -0.06442591, -0.07201235, -0.6987509, 1.7145971, 5.7368164, -2.0559335, 0
976, 2987104862, -0.70614344, -0.052324533, -0.08063634, -0.7015625, 2.7397075, 7.206622, -2.3258314, 0
979, 2987154863, -0.7064193, -6.0804933E-4, -0.1127161, -0.6988096, -0.03839571, 5.6645675, -0.76229477, 0
980, 2987171530, -0.7069281, 0.01860612, -0.12537438, -0.69588524, -0.14820908, 5.097159, 0.29680634, 0
982, 2987204864, -0.70704895, 0.04885476, -0.15110636, -0.6891521, 1.9527032, 7.889191, 1.0205584, 0
983, 2987221531, -0.70775694, 0.05828474, -0.16442835, -0.68462753, 4.126497, 8.125264, -0.35633373, 0
984, 2987238198, -0.7083446, 0.06901732, -0.17869659, -0.6794268, 5.923347, 6.896838, -2.6237712, 0
986, 2987271532, -0.703224, 0.09487911, -0.21463181, -0.6711751, 8.027894, 8.920635, 0.9332924, 0
987, 2987288199, -0.69683206, 0.09936388, -0.2334367, -0.67091554, 11.696742, 8.714701, 5.851495, 0
988, 2987304866, -0.68781745, 0.10056925, -0.24651107, -0.6753471, 15.366911, 7.1854477, 4.3011284, 0
990, 2987338200, -0.6604396, 0.1256922, -0.28507403, -0.683244, 14.544536, 16.26938, -4.992548, 0
991, 2987354867, -0.66173136, 0.1656278, -0.26265934, -0.6824645, 12.48957, 34.640713, 65.49539, 0
994, 2987404868, -0.6850851, 0.19326665, -0.24386454, -0.6587148, -14.000736, -2.5256274, 1.7989368, 0
995, 2987421535, -0.67235744, 0.2280215, -0.2792177, -0.64656615, -6.7241974, -6.6380887, 0.47869682, 0
997, 2987454869, -0.61414254, 0.33987653, -0.3971531, -0.5913129, -0.20869729, -7.4101243, 1.2544899, 0
998, 2987471536, -0.57116145, 0.40134692, -0.46600622, -0.5436931, -5.611942, -4.3986926, 10.446466, 0
999, 2987488203, -0.52691156, 0.44677222, -0.53450245, -0.48696497, -5.1763525, -0.72769225, 12.945166, 0
1001, 2987521537, -0.43450573, 0.5040248, -0.6699948, -0.3291492, 21.807493, -6.0925055, 38.619347, 0
1002, 2987538204, -0.35395783, 0.53382665, -0.7208305, -0.2649808, -3.9638915, -37.388912, 58.082752, 0
1003, 2987554871, -0.30671778, 0.5494572, -0.7368662, -0.24722038, -34.446247, -17.471052, 18.270216, 0
1005, 2987588205, -0.27239868, 0.58066386, -0.7524662, -0.14997216, -8.686359, -27.121702, 0.92832375, 0
1006, 2987604872, -0.2440906, 0.5913534, -0.7601181, -0.114061624, -12.740331, -28.348953, -10.875453, 0
1007, 2987621539, -0.21492699, 0.6008219, -0.7647759, -0.08947613, -14.634111, -18.347057, -16.340591, 0
1009, 2987654873, -0.18872757, 0.6119725, -0.7667311, -0.045424983, -11.261944, -13.201029, -21.368542, 0
1010, 2987671540, -0.18996222, 0.61636674, -0.7637171, -0.028476704, -8.616421, -10.942307, -21.843273, 0
1011, 2987688207, -0.19908376, 0.6194351, -0.7593144, -0.013269089, -7.280119, -8.676238, -21.049965, 0
1013, 2987721541, -0.23302807, 0.6195377, -0.74944806, 0.016339734, -3.0996242, -6.4331083, -19.953678, 0
1014, 2987738208, -0.24923113, 0.61742914, -0.7456534, 0.02710364, -2.2784443, -7.0953627, -20.36865, 0
1015, 2987754875, -0.26105943, 0.6152043, -0.7433097, 0.030515134, -2.5625644, -7.216071, -20.665535, 0
1017, 2987788209, -0.28061366, 0.6108103, -0.7403187, 0.012791783, -5.7971935, -5.4512935, -18.145409, 0
1018, 2987804876, -0.29475808, 0.6078484, -0.73734957, -0.0047019944, -6.906945, -4.2983246, -16.034176, 0
1021, 2987854877, -0.36335164, 0.5919131, -0.71523553, -0.07823926, -6.630437, -6.878287, -9.667704, 0
1022, 2987871544, -0.3889317, 0.5839975, -0.70385396, -0.111073196, -4.8188705, -7.5614977, -7.5239964, 0
1024, 2987904878, -0.43245867, 0.5648807, -0.67818475, -0.18445379, -4.616043, -6.3449054, -2.0173106, 0
1025, 2987921545, -0.4531441, 0.5505364, -0.66509277, -0.2220144, -5.232246, -7.4615026, 1.2038746, 0
1026, 2987938212, -0.47380438, 0.53325546, -0.6503662, -0.2612291, -5.8854833, -7.230545, 4.735697, 0
1028, 2987971546, -0.52302897, 0.48751837, -0.6126155, -0.33695346, -5.021791, -2.0489454, 9.705921, 0
1029, 2987988213, -0.5495896, 0.46313328, -0.588834, -0.36986762, -1.4550138, -0.46453434, 8.641615, 0
1030, 2988004880, -0.5721756, 0.44313884, -0.56297994, -0.39920586, 0.6151389, -0.4096246, 6.79541, 0
1032, 2988038214, -0.6065151, 0.40985042, -0.5110629, -0.45060563, -1.041645, -2.2212696, 8.89645, 0
1033, 2988054881, -0.6235349, 0.38688803, -0.4869231, -0.47381043, -0.5242671, -0.18827033, 12.256449, 0
1036, 2988104882, -0.6681845, 0.3159532, -0.4220333, -0.5250329, 5.4951034, 5.0400453, 5.8092127, 0
1037, 2988121549, -0.67790127, 0.30060843, -0.40490264, -0.53498316, 3.7856345, 3.4029171, 5.6818733, 0
1038, 2988138216, -0.68666786, 0.28630263, -0.3898772, -0.5427545, 2.457667, 2.0984979, 5.535654, 0
1040, 2988171550, -0.70012003, 0.25464284, -0.36347824, -0.55941135, 1.9808974, 0.52367777, 4.8686943, 0
1041, 2988188217, -0.7032362, 0.2393483, -0.34963632, -0.5709591, 1.9865072, 0.32219014, 4.687974, 0
1042, 2988204884, -0.7046757, 0.22501431, -0.33472645, -0.58380437, 1.1862806, 1.2857724, 4.019474, 0
1044, 2988238218, -0.70750374, 0.19457829, -0.3079372, -0.60565746, 0.21118824, 2.3113554, 3.9258308, 0
1045, 2988254885, -0.70923364, 0.17834118, -0.2963255, -0.61436296, 0.8128033, 2.988955, 5.569357, 0
1047, 2988288219, -0.71305823, 0.1462599, -0.2650954, -0.6324153, 0.98512506, 2.686314, 3.4583483, 0
1048, 2988304886, -0.71404886, 0.13129401, -0.24987516, -0.6407238, 1.1391554, 3.511408, 2.7847433, 0
1051, 2988354887, -0.7166333, 0.09304519, -0.20957856, -0.65872955, 3.6383147, 3.8247395, 3.2682753, 0
1052, 2988371554, -0.71736777, 0.08155645, -0.19497551, -0.66391647, 3.5381293, 3.7588997, 2.6152773, 0
1053, 2988388221, -0.7174598, 0.07002892, -0.18025734, -0.6692707, 3.1247187, 3.105848, 0.83636475, 0
1055, 2988421555, -0.71575975, 0.050177403, -0.15459745, -0.67921895, 2.0921218, 3.249834, -0.80947113, 0
1056, 2988438222, -0.7146605, 0.041852366, -0.1440509, -0.68324727, 1.9839026, 3.6935291, -0.49237347, 0
1057, 2988454889, -0.71390235, 0.033266086, -0.13393563, -0.6865615, 2.4907036, 4.240751, 0.55046463, 0
1059, 2988488223, -0.71423393, 0.014102586, -0.111886315, -0.69081205, 2.1827621, 3.9312007, -0.9550619, 0
1060, 2988504890, -0.7149826, 0.00534432, -0.10167779, -0.6917379, 2.1467042, 3.8842077, -2.27064, 0
1061, 2988521557, -0.71613723, -0.00265076, -0.09324983, -0.6917465, 2.6071367, 4.3849773, -2.5767426, 0
1063, 2988554891, -0.7189409, -0.016262528, -0.079236194, -0.6903982, 3.5163565, 3.8923323, -2.264513, 0
1065, 2988588225, -0.72149086, -0.024912281, -0.06518531, -0.6889483, 2.9253008, 4.1302, -3.3863559, 0
1067, 2988621559, -0.72297657, -0.03141141, -0.055969063, -0.6879349, 2.8315666, 4.056961, -5.538099, 0
1068, 2988638226, -0.7233297, -0.032627787, -0.05437654, -0.68763465, 3.7949166, 4.6364837, -5.6513014, 0
1070, 2988671560, -0.7238264, -0.030921672, -0.052779093, -0.6873151, 5.136971, 5.0137353, -5.901903, 0
1071, 2988688227, -0.72375864, -0.028061537, -0.05334878, -0.6874652, 4.8181067, 4.707119, -6.9666476, 0
1072, 2988704894, -0.72337776, -0.023763264, -0.055727836, -0.6878393, 4.7968225, 4.9626684, -6.9218063, 0
1074, 2988738228, -0.7209517, -0.01103954, -0.06641604, -0.6897567, 4.633851, 4.71688, -6.250987, 0
1075, 2988754895, -0.7193149, -0.0019526295, -0.07340081, -0.6908424, 4.8986297, 4.728715, -4.1296024, 0
1076, 2988771562, -0.7174216, 0.007173637, -0.079451196, -0.69210607, 4.223581, 5.0174074, -2.6984582, 0
1078, 2988804896, -0.71461695, 0.024880543, -0.09268992, -0.69295096, 2.692736, 5.182704, -4.3712816, 0
1079, 2988821563, -0.713803, 0.033584043, -0.10284459, -0.6919893, 2.9342663, 5.56495, -4.1269035, 0
1080, 2988838230, -0.71361685, 0.042459875, -0.115967, -0.6896148, 2.84573, 6.112018, -4.347663, 0
1082, 2988871564, -0.71518666, 0.059357032, -0.14581816, -0.6810217, 5.2592373, 5.515026, -0.059334755, 0
1083, 2988888231, -0.7167593, 0.06817134, -0.15709895, -0.67601573, 5.290649, 4.2801757, 1.1124935, 0
1084, 2988904898, -0.7177545, 0.07716419, -0.16688007, -0.67163527, 5.030017, 3.4600642, 0.013676643, 0
1086, 2988938232, -0.7149618, 0.091535255, -0.1913756, -0.66625446, 8.375465, 7.048496, -1.461381, 0
1087, 2988954899, -0.71148956, 0.09797683, -0.2090876, -0.6637275, 11.361871, 11.702274, -4.34127, 0
1088, 2988971566, -0.7070861, 0.10782562, -0.23228402, -0.6591779, 17.16585, 16.618387, -4.6093817, 0
1090, 2989004900, -0.688896, 0.1545155, -0.29555997, -0.6436305, 22.507334, 24.027954, -5.8925285, 0
1092, 2989038234, -0.70063496, 0.17788434, -0.25218487, -0.64338106, 8.902436, -11.446878, 15.8533745, 0
1094, 2989071568, -0.68674123, 0.23513296, -0.3043543, -0.6168761, -10.380954, -7.0776076, -0.61679745, 0
1095, 2989088235, -0.65676606, 0.29294124, -0.36695054, -0.5901352, -2.827587, -8.613274, -2.3257232, 0
1096, 2989104902, -0.6125283, 0.35786057, -0.4447881, -0.5467879, -2.2449155, -8.084817, 6.723879, 0
1098, 2989138236, -0.5163048, 0.45781368, -0.5824187, -0.42975944, -3.456611, 1.4276925, 21.474564, 0
1099, 2989154903, -0.47332862, 0.4872442, -0.6456112, -0.34900972, 9.339661, 3.5499866, 31.8965, 0
1101, 2989188237, -0.34834328, 0.5460695, -0.7238253, -0.23792996, -30.080385, -45.7827, 18.395483, 0
1102, 2989204904, -0.31440783, 0.57436734, -0.7202077, -0.22938919, -23.600931, -9.464164, 2.2053137, 0
1103, 2989221571, -0.29509872, 0.5910974, -0.7253753, -0.1934427, -10.622283, -7.965021, -5.0363455, 0
1105, 2989254905, -0.2460089, 0.6069485, -0.74428856, -0.13113445, -12.957269, -22.420969, -27.965961, 0
1107, 2989288239, -0.22635517, 0.61297715, -0.7462096, -0.12752314, -11.2392645, -11.972307, -26.655113, 0
1109, 2989321573, -0.2535916, 0.6091825, -0.73741704, -0.14447382, -8.255183, -11.565245, -17.683403, 0
1110, 2989338240, -0.27856672, 0.60237074, -0.7311531, -0.1582209, -7.740411, -11.226911, -12.866163, 0
1111, 2989354907, -0.30836174, 0.59193087, -0.7239064, -0.17481136, -7.506942, -10.054707, -8.255893, 0
1113, 2989388241, -0.3742339, 0.5602781, -0.7092767, -0.20744342, -5.478571, -6.2043476, -5.232354, 0
1114, 2989404908, -0.40358302, 0.5426731, -0.7022624, -0.22253717, -3.468281, -4.92509, -5.101398, 0
1115, 2989421575, -0.42675784, 0.52944267, -0.6940721, -0.23643294, -2.7892303, -5.1467943, -4.574915, 0
1117, 2989454909, -0.462023, 0.5147244, -0.67204875, -0.2645992, -4.000475, -7.144771, -1.4451714, 0
1118, 2989471576, -0.47883675, 0.5081082, -0.658837, -0.2802566, -3.8256235, -7.381342, -0.17991734, 0
1119, 2989488243, -0.49625343, 0.49972892, -0.64468807, -0.29740453, -3.2520769, -6.8643875, 0.6980896, 0
1122, 2989538244, -0.5398427, 0.4635642, -0.6054594, -0.3566028, -1.672285, -3.4918888, 1.5850544, 0
1123, 2989554911, -0.5502124, 0.4512039, -0.59168845, -0.37901813, -3.2238915, -2.1440303, 2.4504967, 0
1125, 2989588245, -0.57354605, 0.42239636, -0.5618573, -0.42072704, -4.3338327, 0.5848945, 1.9305172, 0
1126, 2989604912, -0.5872278, 0.40593845, -0.54599005, -0.43856668, -4.729372, -0.017387968, 3.01797, 0
1128, 2989638246, -0.6165991, 0.37195104, -0.5076371, -0.47310805, -4.12635, -0.74726415, 2.6755514, 0
1129, 2989654913, -0.63040626, 0.35485935, -0.4868392, -0.48961094, -4.5314546, -1.1846989, 4.148014, 0
1130, 2989671580, -0.64451903, 0.33607072, -0.4649896, -0.505475, -4.2809973, -1.5782582, 6.4525585, 0
1132, 2989704914, -0.6736494, 0.29522815, -0.41663122, -0.5343443, -0.6310284, -0.8725153, 5.9335394, 0
1133, 2989721581, -0.6872476, 0.27362233, -0.39383942, -0.54569304, -0.02378502, -0.21175304, 5.49846, 0
1134, 2989738248, -0.69904274, 0.25060794, -0.37409627, -0.55556774, 0.46322328, -0.70585704, 5.191477, 0
1137, 2989788249, -0.7174438, 0.18700722, -0.31812057, -0.59090644, 1.2426006, 0.6569397, 8.63377, 0
1138, 2989804916, -0.71977925, 0.1651981, -0.2978155, -0.6049808, 1.7585839, 1.8157128, 7.4859257, 0
1140, 2989838250, -0.7196083, 0.12348197, -0.2587814, -0.6324688, 3.0442657, 4.642382, 6.82263, 0
1141, 2989854917, -0.7182178, 0.104833305, -0.23957281, -0.64486164, 3.5500972, 6.1131063, 6.028349, 0
1142, 2989871584, -0.7169189, 0.08734178, -0.22116259, -0.655404, 3.4307911, 7.50728, 4.9875765, 0
1144, 2989904918, -0.7166592, 0.053657763, -0.18842082, -0.6693927, 4.203602, 8.96887, 2.760046, 0
1145, 2989921585, -0.71886164, 0.038128883, -0.17294125, -0.6722679, 4.25878, 8.978433, 1.2963266, 0
1146, 2989938252, -0.7219844, 0.023788039, -0.15821575, -0.6732081, 4.7548857, 7.26439, -0.05599785, 0
1148, 2989971586, -0.72841173, 0.0024989434, -0.13192178, -0.67236555, 5.4153013, 4.753558, -2.226615, 0
1149, 2989988253, -0.7298789, -0.004364811, -0.121238634, -0.67277586, 5.405496, 3.6949763, -2.5566134, 0
1150, 2990004920, -0.7294256, -0.008953601, -0.111744575, -0.6748628, 4.808701, 3.0090058, -2.840272, 0
1152, 2990038254, -0.7238247, -0.013943028, -0.09081819, -0.6838889, 4.8422527, 3.8508139, -0.6319065, 0
1153, 2990054921, -0.72060955, -0.01566802, -0.07783424, -0.6888299, 3.3095617, 3.7096138, -2.253695, 0
1155, 2990088255, -0.715793, -0.021839038, -0.056750245, -0.69570947, 2.7393537, 4.091626, -4.0063124, 0
1156, 2990104922, -0.71535754, -0.026380442, -0.04899733, -0.6965885, 3.2135978, 4.5221457, -4.6165752, 0
1157, 2990121589, -0.7161747, -0.03220247, -0.041911647, -0.69596606, 3.8746324, 4.2754207, -5.1103253, 0
1159, 2990154923, -0.71957815, -0.043256305, -0.029918017, -0.6924664, 5.252564, 4.18718, -6.441819, 0
1160, 2990171590, -0.72092843, -0.047926415, -0.024880702, -0.69095206, 5.0792394, 3.202553, -7.78522, 0
1161, 2990188257, -0.7215408, -0.050245773, -0.021619212, -0.69025743, 4.5002847, 3.1554203, -8.994469, 0
1164, 2990238258, -0.7188765, -0.04804122, -0.027752837, -0.69296956, 5.1494627, 5.555793, -10.095246, 0
1165, 2990254925, -0.71783006, -0.04355306, -0.033090338, -0.6941157, 5.4724336, 6.3378773, -10.096266, 0
1167, 2990288259, -0.7159191, -0.029062657, -0.04927915, -0.6958847, 5.8114476, 6.818044, -9.483812, 0
1168, 2990304926, -0.7148183, -0.019483278, -0.06112152, -0.69641066, 4.9725103, 6.673248, -9.625733, 0
1169, 2990321593, -0.71295655, -0.008759255, -0.07792144, -0.6968595, 4.4121823, 7.1979446, -9.470146, 0
1171, 2990354927, -0.7053363, 0.014490286, -0.12832388, -0.69705963, 6.8979497, 8.88249, -6.6390266, 0
1172, 2990371594, -0.7005394, 0.026411224, -0.15667866, -0.69574946, 11.007081, 10.784464, -2.1648283, 0
1173, 2990388261, -0.6964513, 0.041989714, -0.17989857, -0.69346786, 12.363198, 9.817077, -0.862957, 0
1175, 2990421595, -0.6894487, 0.084047, -0.2221791, -0.68432564, 11.907497, 15.652728, -1.3937521, 0
1176, 2990438262, -0.685533, 0.10188386, -0.24869265, -0.67667186, 14.543204, 19.359383, 0.04848671, 0
1179, 2990488263, -0.67132246, 0.17401588, -0.34708086, -0.6313855, 29.500471, 9.099016, 17.997469, 0
1180, 2990504930, -0.671156, 0.20093217, -0.28454077, -0.65443176, -70.006744, 18.840948, 32.890205, 0
1182, 2990538264, -0.6837624, 0.20168278, -0.27754748, -0.64407223, -10.654842, -7.327848, 1.6324396, 0
1183, 2990554931, -0.672146, 0.23992059, -0.31325144, -0.626578, -9.225515, -7.6713257, -0.71362686, 0
1184, 2990571598, -0.6450055, 0.29567227, -0.37146968, -0.5988526, -3.628233, -8.261223, -1.8374138, 0
1186, 2990604932, -0.5610833, 0.4110608, -0.51312566, -0.50297636, -7.4579496, -4.722224, 15.158665, 0
1187, 2990621599, -0.518043, 0.44703174, -0.58106726, -0.44070795, -3.2986522, 2.18072, 18.68603, 0
1188, 2990638266, -0.48050663, 0.47390538, -0.6425191, -0.36299422, 7.7229424, 2.6889086, 34.088192, 0
1190, 2990671600, -0.36454216, 0.53619134, -0.7112005, -0.27179074, -27.528362, -37.619934, 23.173084, 0
1191, 2990688267, -0.3348332, 0.5611173, -0.71329933, -0.25358725, -24.527517, 4.5571814, 6.7718143, 0
1194, 2990738268, -0.27317798, 0.6010988, -0.7347661, -0.15569574, -13.747731, -17.699272, -15.803446, 0
1195, 2990754935, -0.25755462, 0.6089735, -0.73674357, -0.141754, -13.046574, -14.019142, -16.24024, 0
1196, 2990771602, -0.24963854, 0.61629844, -0.73555034, -0.12996516, -9.762216, -14.489876, -17.191877, 0
1198, 2990804936, -0.25177106, 0.6279975, -0.7270414, -0.11708858, -6.4702616, -11.453319, -15.809774, 0
1199, 2990821603, -0.26348564, 0.62802243, -0.72384024, -0.11084691, -5.529676, -9.201667, -13.958294, 0
1200, 2990838270, -0.28026193, 0.62376237, -0.7224428, -0.102561235, -3.98597, -7.458285, -12.777811, 0
1202, 2990871604, -0.31027505, 0.6107335, -0.72350734, -0.08567288, -3.2869413, -7.1163917, -13.156162, 0
1203, 2990888271, -0.32170904, 0.60348696, -0.7249472, -0.08262558, -4.943321, -7.775091, -13.132737, 0
1204, 2990904938, -0.33339897, 0.5958538, -0.72560966, -0.085804194, -6.502355, -7.5573225, -12.551293, 0
1206, 2990938272, -0.3634406, 0.5797144, -0.72111446, -0.10910788, -6.9054523, -6.9455447, -9.931247, 0
1209, 2990988273, -0.4117123, 0.5601566, -0.698299, -0.17077716, -3.772794, -6.1881356, -6.6292925, 0
1210, 2991004940, -0.42622158, 0.55346537, -0.6883882, -0.19545127, -5.1846, -7.571057, -4.706827, 0
1211, 2991021607, -0.44262648, 0.5434608, -0.6772032, -0.22404577, -5.4845552, -7.4993815, -3.5781965, 0
1213, 2991054941, -0.4791066, 0.51519656, -0.6505139, -0.28623402, -6.0158563, -5.6014166, -0.3145523, 0
1214, 2991071608, -0.4995455, 0.49616766, -0.63476366, -0.31845796, -6.3035674, -4.651233, 0.9637451, 0
1215, 2991088275, -0.5202765, 0.47556275, -0.6172055, -0.34968334, -5.6566815, -3.2697906, 1.8053589, 0
1217, 2991121609, -0.561837, 0.4335357, -0.57572275, -0.4061992, -6.8705945, -3.2612145, 7.112526, 0
1218, 2991138276, -0.58608484, 0.40845668, -0.5520458, -0.43009514, -6.949701, -1.466335, 8.016277, 0
1219, 2991154943, -0.6121709, 0.38021857, -0.528253, -0.44910792, -5.1899137, -1.3676293, 7.8815117, 0
1221, 2991188277, -0.6591334, 0.32496762, -0.47776476, -0.48140264, -2.37119, -3.5286906, 10.424438, 0
1222, 2991204944, -0.67798257, 0.29677796, -0.45153713, -0.49844286, -1.0931685, -2.7542489, 9.845942, 0
1223, 2991221611, -0.69277, 0.26786184, -0.42655933, -0.51617396, -0.6395717, -1.6700974, 10.070139, 0
1225, 2991254945, -0.71403956, 0.20858864, -0.3785646, -0.55081356, 0.6520258, 2.313092, 12.491756, 0
1226, 2991271612, -0.7226366, 0.17951535, -0.35530782, -0.56515086, 1.3365747, 4.7959895, 11.313416, 0
1227, 2991288279, -0.7302207, 0.15068151, -0.33368367, -0.5768851, 2.5505974, 6.2244477, 10.831396, 0
1229, 2991321613, -0.741251, 0.09666586, -0.29416195, -0.5956005, 5.080204, 7.9676547, 7.371914, 0
1230, 2991338280, -0.74416184, 0.07341134, -0.27542213, -0.60418963, 5.4766746, 8.174804, 4.8231707, 0
1231, 2991354947, -0.74549085, 0.054520085, -0.25742063, -0.612433, 5.506632, 8.219344, 2.970315, 0
1233, 2991388281, -0.74517745, 0.026502747, -0.2254266, -0.62710404, 4.6588507, 8.689025, 1.3006649, 0
1236, 2991438282, -0.74616724, -0.0071145, -0.18248491, -0.64027464, 3.4441733, 6.919172, -0.97195244, 0
1237, 2991454949, -0.7475015, -0.016791567, -0.17098007, -0.64171165, 2.7218678, 5.1831903, -1.8801126, 0
1238, 2991471616, -0.74890643, -0.024611387, -0.16008924, -0.64263, 2.8351097, 4.044249, -1.5955181, 0
1240, 2991504950, -0.750897, -0.038764626, -0.13696533, -0.6449497, 3.9958985, 3.5561645, -1.4990034, 0
1241, 2991521617, -0.7506545, -0.044839855, -0.124752164, -0.64731175, 4.8438993, 2.9655845, -2.3159385, 0
1242, 2991538284, -0.74956733, -0.049690824, -0.11305299, -0.6503594, 4.7236466, 3.5341547, -3.4185944, 0
1244, 2991571618, -0.74628174, -0.058536053, -0.09407772, -0.6563954, 4.9606495, 4.337737, -5.1649413, 0
1245, 2991588285, -0.7449261, -0.06194286, -0.08647579, -0.65866435, 5.0852895, 4.661693, -5.8382416, 0
1246, 2991604952, -0.74343675, -0.065302126, -0.07991196, -0.6608478, 5.3152256, 4.5683374, -6.2537527, 0
1248, 2991638286, -0.7405919, -0.06588911, -0.06759662, -0.6653433, 4.7577558, 3.900209, -7.631914, 0
1250, 2991671620, -0.7379477, -0.06083949, -0.0630481, -0.6691972, 4.212051, 4.427737, -7.644604, 0
1252, 2991704954, -0.7360575, -0.05599942, -0.06833206, -0.6711801, 5.3914475, 5.7767587, -7.536137, 0
1253, 2991721621, -0.73568404, -0.053239282, -0.07405999, -0.6712066, 6.1437225, 6.100916, -8.433446, 0
1254, 2991738288, -0.7354003, -0.049677517, -0.082673594, -0.6707847, 6.622333, 6.099467, -9.703226, 0
1256, 2991771622, -0.73294157, -0.036500163, -0.11071474, -0.67028, 6.410345, 6.2302804, -11.234049, 0
1257, 2991788289, -0.73000854, -0.025084592, -0.13128121, -0.6702926, 5.9357743, 6.716043, -10.446447, 0
1258, 2991804956, -0.7260375, -0.0104951, -0.15625218, -0.6696366, 6.2101097, 7.541489, -8.425021, 0
1260, 2991838290, -0.71708477, 0.023269434, -0.21261412, -0.66340923, 9.289301, 10.471348, -1.5398102, 0
1261, 2991854957, -0.7131555, 0.041439988, -0.23764446, -0.6582444, 11.656712, 10.469618, 1.6702251, 0
1263, 2991888291, -0.7065252, 0.08623671, -0.26957196, -0.6486794, 11.571768, 9.8187065, 1.7885838, 0
1265, 2991921625, -0.694467, 0.13020477, -0.30800304, -0.6371536, 12.766758, 14.578305, 0.8661537, 0
1267, 2991954959, -0.6814856, 0.15879303, -0.36769885, -0.61255884, 18.775887, 21.94843, 2.1238184, 0
1268, 2991971626, -0.6714433, 0.18474138, -0.40075535, -0.5953974, 21.754353, 18.022743, 3.4622498, 0
1269, 2991988293, -0.66692144, 0.23343232, -0.3677289, -0.6046231, -32.650536, 6.027428, 68.56871, 0
1271, 2992021627, -0.69345504, 0.2147322, -0.32469958, -0.60634047, -5.8213525, -3.077669, -0.1994257, 0
1272, 2992038294, -0.69512194, 0.22373533, -0.3272344, -0.5997785, -8.875646, -3.787621, 0.3544302, 0
1273, 2992054961, -0.6853499, 0.24818197, -0.35356644, -0.5863112, -8.387662, -6.4122524, -1.5803928, 0
1275, 2992088295, -0.61451733, 0.34360301, -0.47402006, -0.52884674, -4.463009, -7.8005137, 0.73345757, 0
1276, 2992104962, -0.5558666, 0.4040411, -0.5489894, -0.47585955, -8.584137, -6.8631315, 14.369551, 0
1277, 2992121629, -0.50267357, 0.44448712, -0.61691165, -0.41138682, -9.357944, -8.777723, 24.793365, 0
1280, 2992171630, -0.32970142, 0.5323881, -0.7439931, -0.23324376, -21.302004, -50.489044, 28.218739, 0
1281, 2992188297, -0.28348312, 0.55099803, -0.7540405, -0.21801388, -32.748016, 8.16782, 5.6783953, 0
1283, 2992221631, -0.23466495, 0.5781834, -0.7685527, -0.14153247, -15.861204, -29.346195, -10.017992, 0
1284, 2992238298, -0.21198368, 0.58703995, -0.7725557, -0.116932034, -21.333412, -13.136613, -11.231131, 0
1286, 2992271632, -0.20454466, 0.59795845, -0.77236533, -0.06424671, -12.716052, -14.12238, -21.285519, 0
1287, 2992288299, -0.20358424, 0.604457, -0.7685472, -0.050881855, -6.8529787, -12.614105, -24.086752, 0
1288, 2992304966, -0.2033174, 0.6064838, -0.76738197, -0.04508844, -5.395913, -10.045384, -23.662176, 0
1290, 2992338300, -0.22038238, 0.59138143, -0.7738663, -0.053842906, -6.568082, -9.981625, -20.409063, 0
1291, 2992354967, -0.23547255, 0.5814354, -0.7753486, -0.073406816, -5.993916, -7.8068285, -17.114378, 0
1292, 2992371634, -0.25166634, 0.5745777, -0.77250624, -0.09913175, -5.7961698, -4.6880903, -13.22075, 0
1294, 2992404968, -0.29220152, 0.56430346, -0.75838155, -0.14527848, -6.852446, -1.4259748, -9.030802, 0
1295, 2992421635, -0.31707296, 0.5590216, -0.7481972, -0.16501288, -7.542181, -4.4366484, -7.4829283, 0
1296, 2992438302, -0.343059, 0.5525161, -0.7358874, -0.18861252, -5.8821645, -6.160534, -6.135602, 0
1298, 2992471636, -0.39000225, 0.53549105, -0.70629734, -0.24971972, -5.767455, -6.6453032, -2.0086603, 0
1299, 2992488303, -0.41390568, 0.5228673, -0.6881582, -0.28600454, -5.8223486, -5.991735, 2.308343, 0
1300, 2992504970, -0.4381697, 0.50974333, -0.6665354, -0.32244098, -4.3000436, -1.9535184, 4.450487, 0
1302, 2992538304, -0.4911072, 0.48404986, -0.61743456, -0.37861925, -3.461557, 1.901032, 7.4271145, 0
1303, 2992554971, -0.5196683, 0.4688729, -0.5931045, -0.39799336, -2.298166, 0.5977167, 6.818983, 0
1304, 2992571638, -0.54715407, 0.45263404, -0.5674196, -0.41695136, -0.885498, -2.5784552, 8.287806, 0
1307, 2992621639, -0.6125891, 0.4016694, -0.48070782, -0.4820631, 2.439345, 4.6908054, 5.7262993, 0
1308, 2992638306, -0.62936085, 0.38481915, -0.4556694, -0.4982498, 2.5489442, 4.978863, 4.0908804, 0
1310, 2992671640, -0.6562289, 0.34967124, -0.41646564, -0.5231812, -0.35372603, 4.034768, 2.9867668, 0
1311, 2992688307, -0.6679978, 0.33224583, -0.39935416, -0.53289443, -1.6707714, 2.7231321, 3.051818, 0
1312, 2992704974, -0.67988765, 0.314619, -0.3820792, -0.54115766, -2.3579648, 1.633665, 3.521861, 0
1314, 2992738308, -0.7026453, 0.27714825, -0.3491811, -0.5546345, -1.8934107, -0.47364384, 3.0345535, 0
1315, 2992754975, -0.71251553, 0.25748453, -0.333828, -0.56093717, -1.7493805, -0.6598478, 2.94699, 0
1317, 2992788309, -0.7296453, 0.21862003, -0.30362913, -0.5724515, -1.274662, -0.6815044, 5.591939, 0
1318, 2992804976, -0.73745877, 0.19958302, -0.28653327, -0.57817686, -0.21307686, -0.18626429, 6.0834045, 0
1319, 2992821643, -0.744552, 0.18130508, -0.2688641, -0.58356756, 0.8349865, 0.2779272, 4.565234, 0
1322, 2992871644, -0.7596303, 0.1262627, -0.22071554, -0.5986426, 3.528119, 1.5159793, 4.744567, 0
1323, 2992888311, -0.7622911, 0.1090616, -0.2050928, -0.6041715, 3.6510997, 1.8188589, 3.3614607, 0
1325, 2992921645, -0.763837, 0.0788233, -0.17560938, -0.61609256, 4.9712553, 2.9978662, 2.6291924, 0
1326, 2992938312, -0.7632357, 0.06518304, -0.16137044, -0.62229455, 5.831163, 3.618489, 2.4050493, 0
1327, 2992954979, -0.7620118, 0.052444573, -0.14705576, -0.62851465, 5.508845, 4.09533, 1.2117243, 0
1329, 2992988313, -0.7581061, 0.03029617, -0.12195179, -0.6399636, 5.1472282, 4.8188996, -0.91749954, 0
1330, 2993004980, -0.7566305, 0.021823768, -0.11022925, -0.64416766, 5.1501994, 4.897039, -1.219121, 0
1331, 2993021647, -0.7556435, 0.014072144, -0.09934543, -0.647305, 4.6246157, 4.158812, -2.3029504, 0
1333, 2993054981, -0.752724, -5.20017E-4, -0.08228984, -0.65322524, 5.422151, 4.115055, -2.9643946, 0
1334, 2993071648, -0.7507612, -0.0064272415, -0.07510824, -0.65631044, 5.0446835, 4.6483893, -3.9385357, 0
1337, 2993121649, -0.74574524, -0.016810449, -0.06235705, -0.6631452, 3.653092, 4.4431386, -3.9018483, 0
1338, 2993138316, -0.7446417, -0.020550046, -0.058852438, -0.66459846, 3.5600448, 4.7227736, -3.241158, 0
1339, 2993154983, -0.7440058, -0.024862735, -0.055914618, -0.6654167, 3.259233, 4.870215, -4.3199854, 0
1341, 2993188317, -0.74507767, -0.03281019, -0.054310393, -0.6640042, 4.3391714, 5.39358, -6.1804647, 0
1342, 2993204984, -0.7465674, -0.03530952, -0.056507736, -0.6620164, 4.6429677, 5.244404, -6.8308926, 0
1344, 2993238318, -0.74787474, -0.03521469, -0.06549695, -0.6597136, 5.194298, 4.108096, -6.900648, 0
1345, 2993254985, -0.74688315, -0.032850765, -0.071054325, -0.6603834, 4.5343785, 4.1927133, -6.8932037, 0
1346, 2993271652, -0.74469995, -0.029208725, -0.078280725, -0.6622004, 4.491796, 4.483011, -6.8479424, 0
1348, 2993304986, -0.7375696, -0.016857738, -0.09816961, -0.6679356, 4.9953327, 5.835555, -7.427656, 0
1349, 2993321653, -0.73320675, -0.008016679, -0.11311674, -0.6705346, 4.8387313, 6.4181585, -8.445108, 0
1352, 2993371654, -0.71793234, 0.021557622, -0.17832002, -0.6725911, 9.071716, 8.3841305, -2.152576, 0
1353, 2993388321, -0.71436334, 0.035397973, -0.19627257, -0.6708036, 8.943135, 8.657885, -1.5826426, 0
1354, 2993404988, -0.7129201, 0.052397273, -0.21293904, -0.6661268, 8.917099, 10.66089, -1.3851242, 0
1356, 2993438322, -0.71592, 0.09161307, -0.25454202, -0.64369434, 14.735816, 11.02959, -1.0094643, 0
1357, 2993454989, -0.7158014, 0.11413647, -0.27895233, -0.62996435, 16.013876, 10.499582, 4.099292, 0
1358, 2993471656, -0.71256983, 0.13573426, -0.30469176, -0.6172942, 15.841588, 10.404318, 6.558529, 0
1360, 2993504990, -0.69612145, 0.1859379, -0.3687012, -0.5873413, 15.287272, 17.591066, 4.6780996, 0
1361, 2993521657, -0.6956261, 0.22971344, -0.37429678, -0.56860054, -14.368866, 29.982325, 66.39615, 0
1362, 2993538324, -0.70715445, 0.24038064, -0.3607178, -0.55865973, -6.7401032, -3.184536, -5.091711, 0
1364, 2993571658, -0.68973833, 0.2928025, -0.38915908, -0.5358652, -8.858971, -4.639466, -2.3924618, 0
1365, 2993588325, -0.6602285, 0.3375529, -0.43619177, -0.5098645, -2.0294592, -8.503054, -1.0428743, 0
1366, 2993604992, -0.61759275, 0.3909611, -0.49699295, -0.46775532, -4.73976, -6.648765, 6.298216, 0
1368, 2993638326, -0.5248083, 0.46879613, -0.6187217, -0.3493685, -1.6551296, -3.4215095, 26.66986, 0
1369, 2993654993, -0.47395948, 0.5010465, -0.6710218, -0.27223715, 26.288027, -15.882401, 48.88016, 0
1371, 2993688327, -0.32015026, 0.5653763, -0.7246803, -0.22969624, -39.127224, 2.9277453, 25.668888, 0
1372, 2993704994, -0.29704103, 0.5876589, -0.732944, -0.17112939, -20.39828, -12.746646, 7.0924187, 0
1373, 2993721661, -0.2616129, 0.6036303, -0.7406916, -0.13650511, -11.387591, -45.099087, -18.6248, 0
1375, 2993754995, -0.22211471, 0.61870414, -0.74748445, -0.09594675, -18.991343, -17.737015, -23.812565, 0
1376, 2993771662, -0.22318828, 0.6228359, -0.7454197, -0.08173449, -11.138169, -19.772808, -24.967096, 0
1379, 2993821663, -0.25839207, 0.6268573, -0.73048514, -0.082118794, -8.091207, -9.385624, -17.778948, 0
1380, 2993838330, -0.27906486, 0.62263596, -0.72637343, -0.08304928, -5.325401, -9.183549, -17.202326, 0
1381, 2993854997, -0.2987713, 0.615149, -0.7244791, -0.086752, -5.5137024, -9.56809, -17.062035, 0
1383, 2993888331, -0.33796814, 0.59363514, -0.7225792, -0.106407054, -8.57306, -6.9230947, -13.857924, 0
1384, 2993904998, -0.35976478, 0.58524466, -0.71680784, -0.119636424, -10.233202, -4.684192, -10.849997, 0
1385, 2993921665, -0.38511375, 0.57952076, -0.7058276, -0.13311158, -10.898558, -3.8590102, -8.699049, 0
1387, 2993954999, -0.44087353, 0.5651412, -0.6778204, -0.16393286, -6.2005258, -6.37988, -7.232181, 0
1388, 2993971666, -0.46397233, 0.5565778, -0.6637838, -0.18550053, -4.2974052, -6.957827, -5.9445543, 0
1389, 2993988333, -0.48228574, 0.5467451, -0.65086406, -0.21193053, -3.639121, -8.292494, -3.7563033, 0
1391, 2994021667, -0.50742054, 0.5246277, -0.62613946, -0.27442318, -3.9474275, -5.024181, 0.7408285, 0
1394, 2994071668, -0.54605156, 0.49006277, -0.5784299, -0.35658574, -3.751761, -2.51289, 5.199153, 0
1395, 2994088335, -0.5630309, 0.47730437, -0.558849, -0.378065, -0.9195663, -3.04031, 3.9283104, 0
1396, 2994105002, -0.57915646, 0.46473488, -0.53880036, -0.3979475, -0.22622807, -5.079996, 3.3183022, 0
1398, 2994138336, -0.61125827, 0.42525208, -0.50175345, -0.44026792, -0.28993833, -3.8835475, 4.9030657, 0
1399, 2994155003, -0.6271202, 0.39849842, -0.4856087, -0.46062136, 0.12066671, -1.9160044, 5.6029787, 0
1400, 2994171670, -0.64215475, 0.37068224, -0.46954668, -0.47940195, -0.118620396, -0.6840849, 6.3095036, 0
1402, 2994205004, -0.6698179, 0.31694135, -0.4329537, -0.51333386, 1.0110602, -0.4299533, 8.490654, 0
1403, 2994221671, -0.68154436, 0.28986186, -0.41328526, -0.5298501, 1.7575716, 0.18891366, 8.739668, 0
1404, 2994238338, -0.6915761, 0.26075423, -0.39490545, -0.54575455, 2.057891, 2.8952715, 8.622297, 0
1406, 2994271672, -0.706403, 0.20354457, -0.36046913, -0.5741906, 3.6771317, 4.561795, 7.289398, 0
1408, 2994305006, -0.7139685, 0.15836793, -0.32652947, -0.59884536, 3.6340895, 4.8862123, 6.637169, 0
1410, 2994338340, -0.71980405, 0.117518455, -0.2933041, -0.6181526, 5.460415, 6.4509134, 7.2063103, 0
1411, 2994355007, -0.72190493, 0.09467477, -0.2774928, -0.62686217, 5.6524906, 6.47176, 3.541171, 0
1412, 2994371674, -0.72181463, 0.07434949, -0.26310974, -0.635844, 5.6996293, 5.694618, 0.64543915, 0
1414, 2994405008, -0.7165421, 0.04759947, -0.23646459, -0.6545644, 4.865158, 6.8258867, -0.878767, 0
1415, 2994421675, -0.71327615, 0.038254473, -0.22454134, -0.6628902, 5.4391236, 7.1935525, -0.21997261, 0
1416, 2994438342, -0.71051085, 0.029822886, -0.21193956, -0.670399, 5.2803335, 7.362244, -0.52903557, 0
1418, 2994471676, -0.70364714, 0.014496837, -0.18919978, -0.68479383, 3.2913578, 6.4514475, -2.7193317, 0
1419, 2994488343, -0.699492, 0.0077075176, -0.18025196, -0.69154114, 2.9537666, 6.637991, -3.5324645, 0
1420, 2994505010, -0.6963559, 0.002545938, -0.17239204, -0.69672906, 3.2391765, 6.9231553, -3.7916455, 0
1423, 2994555011, -0.6951599, -0.010032389, -0.1509971, -0.70279473, 4.3261213, 6.671195, -4.3690677, 0
1425, 2994588345, -0.6961301, -0.0173168, -0.14108399, -0.7037519, 3.9404047, 5.6110234, -5.073188, 0
1426, 2994605012, -0.69639647, -0.018232156, -0.13751478, -0.70417154, 3.9397488, 5.3490715, -5.8405075, 0
1427, 2994621679, -0.6964798, -0.016761273, -0.1357532, -0.7044674, 4.049471, 5.4839897, -6.5630617, 0
1429, 2994655013, -0.6951194, -0.0069093034, -0.13951987, -0.70524037, 3.914783, 5.0226893, -5.901185, 0
1430, 2994671680, -0.6937288, 7.883832E-4, -0.14319314, -0.70590633, 3.8145382, 4.9748087, -3.8038292, 0
1431, 2994688347, -0.6925171, 0.010045785, -0.14608057, -0.7064332, 3.4207575, 4.3894687, -1.9278488, 0
1433, 2994721681, -0.6897154, 0.027236558, -0.15456904, -0.70691425, 2.024363, 3.9577775, -3.3358903, 0
1434, 2994738348, -0.68795973, 0.03580638, -0.16262308, -0.7064357, 1.6616826, 3.545895, -3.8478742, 0
1435, 2994755015, -0.6857184, 0.044012703, -0.17312235, -0.70565593, 1.5317011, 3.9101179, -3.8098269, 0
1437, 2994788349, -0.68073523, 0.054461725, -0.20396467, -0.7014986, 1.496372, 5.4843554, -4.4143157, 0
1438, 2994805016, -0.6792989, 0.05785419, -0.22251427, -0.6969663, 2.74408, 6.482989, -3.0963016, 0
1439, 2994821683, -0.6795881, 0.062293246, -0.24045768, -0.69031006, 3.8481224, 7.0738754, -3.0320601, 0
1441, 2994855017, -0.68479335, 0.079607226, -0.26920235, -0.6725469, 8.727968, 9.80842, -1.2926702, 0
1442, 2994871684, -0.6888052, 0.09086794, -0.28015223, -0.66247535, 10.233412, 11.220563, -2.6927586, 0
1443, 2994888351, -0.6936408, 0.10472673, -0.2924241, -0.6499624, 11.820269, 11.298352, -3.1067152, 0
1445, 2994921685, -0.70691884, 0.13493411, -0.3193157, -0.6165749, 13.849212, 9.856874, 5.97818, 0
1446, 2994938352, -0.7143239, 0.1491131, -0.330953, -0.59836894, 15.028133, 8.84611, 1.5092916, 0
1447, 2994955019, -0.7167235, 0.17114598, -0.35194373, -0.5772526, 38.242493, 3.5496268, 11.57041, 0
1450, 2995005020, -0.7497876, 0.20724311, -0.31440073, -0.54414105, -10.213958, -1.5498303, -1.0205412, 0
1452, 2995038354, -0.71735257, 0.27244377, -0.37788308, -0.5181241, -0.5335662, -10.480115, -0.21177864, 0
1453, 2995055021, -0.6874751, 0.32605904, -0.42942104, -0.48654836, -2.3469758, -6.944697, -0.33497715, 0
1454, 2995071688, -0.64463305, 0.3848123, -0.49109286, -0.44188672, -4.5816493, -5.8050027, 8.192369, 0
1456, 2995105022, -0.54861027, 0.46667492, -0.6131381, -0.32460994, 0.81558204, -4.7944946, 25.367214, 0
1457, 2995121689, -0.48880777, 0.49767607, -0.67008054, -0.25386256, 21.657677, -27.648846, 40.900578, 0
1458, 2995138356, -0.39151746, 0.531845, -0.7130408, -0.23557636, 1.4524703, -45.687645, 49.693565, 0
1460, 2995171690, -0.30667576, 0.57875454, -0.7316627, -0.18902731, -17.033115, -3.3142865, 17.260523, 0
1461, 2995188357, -0.2706291, 0.59610116, -0.7423265, -0.14297944, -11.653511, -41.971596, 2.0058918, 0
1462, 2995205024, -0.22234309, 0.6133586, -0.7491857, -0.11464682, -18.232935, -28.586277, -8.7452965, 0
1465, 2995255025, -0.16096738, 0.6270983, -0.76198894, -0.016696129, -13.133047, -15.351751, -27.296425, 0
1466, 2995271692, -0.16247955, 0.62921786, -0.76008713, 0.0046091974, -9.231448, -11.011272, -26.468723, 0
1468, 2995305026, -0.17767805, 0.63168836, -0.753847, 0.034403205, -4.9279065, -6.157469, -25.33352, 0
1469, 2995321693, -0.1891878, 0.6317672, -0.75069547, 0.04004002, -5.096124, -6.8880706, -25.31197, 0
1470, 2995338360, -0.2036162, 0.63124037, -0.7476207, 0.0347502, -5.7240233, -7.978725, -24.288013, 0
1472, 2995371694, -0.24366847, 0.6285857, -0.73854095, -0.011462912, -6.003216, -5.4755926, -16.786924, 0
1473, 2995388361, -0.2679025, 0.6263975, -0.7308353, -0.042455997, -5.2800965, -2.4058235, -12.911209, 0
1474, 2995405028, -0.295027, 0.6223445, -0.7216322, -0.07044114, -4.759719, 0.18322252, -10.654738, 0
1476, 2995438362, -0.36236528, 0.59810936, -0.70482165, -0.11938019, -5.6386786, -4.01322, -6.5076466, 0
1477, 2995455029, -0.39673424, 0.57925093, -0.69590133, -0.15119518, -5.771934, -7.156763, -3.62856, 0
1480, 2995505030, -0.47629055, 0.5253593, -0.6517703, -0.2690887, -4.71562, 1.2490765, 4.4064665, 0
1481, 2995521697, -0.50215495, 0.50492144, -0.63517874, -0.29918414, -6.343852, 1.2180617, 5.1694775, 0
1483, 2995555031, -0.55320454, 0.4609527, -0.5957445, -0.35587132, -2.4814663, -2.1362183, 6.155694, 0
1484, 2995571698, -0.5721591, 0.44217807, -0.57284784, -0.3860393, -2.5431335, -0.74650186, 6.021987, 0
1485, 2995588365, -0.5898696, 0.42232388, -0.54973567, -0.41419265, -3.9212804, 1.2911348, 6.5590115, 0
1487, 2995621699, -0.6313734, 0.37963367, -0.49865338, -0.45679218, -2.2922256, -0.10115012, 7.7299366, 0
1488, 2995638366, -0.652845, 0.35969752, -0.469614, -0.47322524, 0.40292206, -1.8516836, 7.4085884, 0
1489, 2995655033, -0.67163247, 0.34073496, -0.4403757, -0.48882216, 3.0965457, -3.351536, 6.843256, 0
1491, 2995688367, -0.69516903, 0.3014197, -0.38937718, -0.52377474, 4.6671944, -4.6048737, 6.114932, 0
1492, 2995705034, -0.7000803, 0.2778514, -0.36959782, -0.5441986, 3.8323996, -2.2076988, 7.890621, 0
1495, 2995755035, -0.7048701, 0.20661509, -0.3190692, -0.59894204, 2.3897915, 3.9238575, 6.5493107, 0
1496, 2995771702, -0.7071171, 0.18484645, -0.30489072, -0.61067766, 2.2926004, 4.283079, 6.1498327, 0
1497, 2995788369, -0.7107162, 0.16348244, -0.29118973, -0.61921966, 2.68086, 4.856932, 6.9028263, 0
1499, 2995821703, -0.7195434, 0.12175957, -0.26375222, -0.6308211, 3.6356716, 5.742615, 4.934313, 0
1500, 2995838370, -0.72366446, 0.10209194, -0.25039962, -0.63502413, 4.0616565, 5.942574, 3.5821962, 0
1502, 2995871704, -0.73070586, 0.06825846, -0.22767548, -0.6400329, 3.4915547, 5.9601874, 0.62533474, 0
1503, 2995888371, -0.7335622, 0.053776592, -0.21894957, -0.64118993, 3.289324, 5.2828875, 0.10721111, 0
1504, 2995905038, -0.7357119, 0.04023848, -0.21107277, -0.64235944, 2.804953, 4.784398, 0.47480774, 0
1506, 2995938372, -0.7387002, 0.019308023, -0.19075327, -0.64624375, 3.0352714, 3.8909476, 0.49396133, 0
1507, 2995955039, -0.73934746, 0.010275159, -0.18028449, -0.64871085, 2.7023983, 3.5749862, -1.343915, 0
1508, 2995971706, -0.73918146, 0.001967091, -0.17146346, -0.65136445, 3.3314612, 3.5479078, -1.5570154, 0
1510, 2996005040, -0.73693585, -0.011420149, -0.1567198, -0.6574971, 4.0064263, 4.161445, -0.8107176, 0
1511, 2996021707, -0.73539996, -0.016363304, -0.1483265, -0.66104984, 3.6563795, 4.2117324, -2.016058, 0
1512, 2996038374, -0.7338267, -0.020142436, -0.14064443, -0.66436464, 3.0435464, 4.4179482, -3.0118365, 0
1514, 2996071708, -0.73131, -0.026848495, -0.12888846, -0.6692689, 3.3529456, 5.0726037, -3.018095, 0
1515, 2996088375, -0.7306925, -0.030382551, -0.12529035, -0.67047465, 3.2987335, 5.0317173, -4.015451, 0
1516, 2996105042, -0.73061454, -0.03356502, -0.12342292, -0.6707543, 4.412595, 5.150876, -3.9459834, 0
1518, 2996138376, -0.7316927, -0.038594753, -0.12174165, -0.6696147, 4.769376, 4.820085, -5.8991985, 0
1519, 2996155043, -0.73197114, -0.039451607, -0.12384153, -0.66887486, 4.7205567, 4.629024, -6.4456835, 0
1522, 2996205044, -0.72915864, -0.034893528, -0.1385434, -0.6693164, 5.8201423, 4.82162, -5.4931707, 0
1523, 2996221711, -0.7267479, -0.030722722, -0.14527707, -0.6707133, 5.485828, 4.7133937, -5.3247485, 0
1524, 2996238378, -0.72351617, -0.02475433, -0.15249391, -0.67284906, 4.5338616, 4.7245793, -5.4711227, 0
1526, 2996271712, -0.7162476, -0.0076559223, -0.1711022, -0.6765524, 3.8730495, 5.2237287, -3.7433023, 0
1527, 2996288379, -0.71304107, 0.0013158768, -0.18290786, -0.67689276, 3.8465843, 4.932076, -2.8879766, 0
1528, 2996305046, -0.709488, 0.008831177, -0.1971185, -0.6765807, 3.8151104, 4.4886765, -2.1654692, 0
1530, 2996338380, -0.69921947, 0.02100841, -0.22619471, -0.6779051, 6.7484665, 4.331684, -0.88025856, 0
1531, 2996355047, -0.69404423, 0.032997362, -0.23673226, -0.67914665, 6.7911572, 5.6458945, -2.8417287, 0
1533, 2996388381, -0.68360776, 0.06613007, -0.2638624, -0.6773125, 7.9412394, 9.6207, -3.1055675, 0
1534, 2996405048, -0.6782333, 0.084416464, -0.27967978, -0.6743301, 10.388898, 10.402805, 1.2194891, 0
1537, 2996455049, -0.6587709, 0.14194512, -0.31933826, -0.66630626, 11.911658, 15.508014, 0.22756958, 0
1538, 2996471716, -0.6500795, 0.16674769, -0.34031752, -0.65866876, 10.416038, 19.525352, -4.807935, 0
1539, 2996488383, -0.64704144, 0.21258429, -0.35248724, -0.64184624, 23.405258, 35.714123, 53.69825, 0
1541, 2996521717, -0.6606686, 0.24301168, -0.32738423, -0.63035727, -10.389769, -5.5946093, -0.40057468, 0
1542, 2996538384, -0.6546001, 0.27270973, -0.3442225, -0.6153922, -9.085241, -4.5752206, -0.33533764, 0
1543, 2996555051, -0.63484293, 0.31696445, -0.37920356, -0.59395355, -4.276768, -7.284163, -1.7496548, 0
1545, 2996588385, -0.5570886, 0.43137735, -0.492731, -0.51073545, -5.763281, -5.959079, 8.846268, 0
1546, 2996605052, -0.5082844, 0.47904742, -0.5535934, -0.45361155, -10.151305, -5.853957, 12.202862, 0
1547, 2996621719, -0.46054548, 0.51080793, -0.61432827, -0.38683647, -9.257131, -11.62161, 20.480612, 0
1549, 2996655053, -0.30802074, 0.5703858, -0.7119421, -0.270167, 6.7698965, -44.17503, 45.032337, 0
1551, 2996688387, -0.24832731, 0.5913679, -0.7290213, -0.23919475, -25.198954, 14.295864, 7.957901, 0
1553, 2996721721, -0.21384227, 0.61346084, -0.7434902, -0.15883318, -2.7282135, -30.35386, -5.7808046, 0
1554, 2996738388, -0.18457146, 0.6186744, -0.7517763, -0.13444827, -15.373434, -16.71053, -11.568232, 0
1555, 2996755055, -0.17360698, 0.61902654, -0.7588709, -0.1041635, -15.091388, -17.330883, -16.845387, 0
1557, 2996788389, -0.17919405, 0.6167898, -0.7639843, -0.062099196, -6.514009, -13.158902, -19.468294, 0
1558, 2996805056, -0.18457057, 0.6180804, -0.7622841, -0.053868867, -4.5952144, -9.853238, -18.522938, 0
1560, 2996838390, -0.19906582, 0.61992306, -0.75738204, -0.05009234, -5.4568133, -6.948268, -17.281782, 0
1561, 2996855057, -0.2121909, 0.6176069, -0.7554027, -0.05451537, -6.3357463, -7.083086, -17.25007, 0
1562, 2996871724, -0.22986934, 0.6124437, -0.7536424, -0.06453321, -6.0277867, -5.7505536, -16.084862, 0
1564, 2996905058, -0.27173215, 0.59859896, -0.74759406, -0.0949337, -6.1346917, -2.1753917, -12.201755, 0
1566, 2996938392, -0.32000065, 0.5864899, -0.7337863, -0.12351264, -6.5655875, -0.7980178, -9.069372, 0
1568, 2996971726, -0.37126273, 0.57469237, -0.71304756, -0.15337662, -7.1382914, -6.44797, -4.514388, 0
1569, 2996988393, -0.39757973, 0.56663907, -0.6996503, -0.17722388, -7.3264318, -9.125145, -1.6124296, 0
1570, 2997005060, -0.42486802, 0.5559666, -0.6832674, -0.20881245, -4.689467, -7.0429406, 1.0848484, 0
1572, 2997038394, -0.47340485, 0.5278959, -0.6500593, -0.27332217, -1.5514238, -2.1559644, 2.4241, 0
1573, 2997055061, -0.49351653, 0.5118202, -0.63442045, -0.30341455, -1.755691, -0.6974242, 2.3261318, 0
1574, 2997071728, -0.5102762, 0.49616057, -0.6197511, -0.330787, -1.8674498, 0.23215145, 1.4185295, 0
1576, 2997105062, -0.5415348, 0.4643718, -0.5889164, -0.37992734, -5.5544147, -3.2082958, 4.9487705, 0
1577, 2997121729, -0.56059664, 0.44440454, -0.5698282, -0.40447506, -4.0992203, -1.6535369, 4.4650354, 0
1578, 2997138396, -0.58046806, 0.42368528, -0.54993236, -0.4256648, -2.6455638, 0.31495377, 3.427106, 0
1580, 2997171730, -0.62186307, 0.37944728, -0.51014197, -0.45730704, -1.7182518, -2.4922383, 6.126458, 0
1581, 2997188397, -0.641449, 0.3571873, -0.48709074, -0.47304508, 0.5868216, -3.8918269, 6.4147606, 0
1582, 2997205064, -0.65739834, 0.33653864, -0.46264663, -0.49050564, 2.25632, -3.6022384, 5.592244, 0
1584, 2997238398, -0.6776446, 0.2920742, -0.4205072, -0.52795124, 3.7805383, -1.3132885, 6.9176636, 0
1585, 2997255065, -0.6820988, 0.27035314, -0.40200666, -0.5478225, 3.932394, -0.90278673, 7.7067375, 0
1587, 2997288399, -0.6858012, 0.22937706, -0.3650045, -0.58643246, 2.0040805, 3.3283353, 6.3412094, 0
1588, 2997305066, -0.68839365, 0.20768596, -0.34858632, -0.60127914, 1.2672257, 4.076, 6.3281536, 0
1589, 2997321733, -0.6919216, 0.18555248, -0.33318618, -0.6130826, 1.7167677, 3.9245276, 6.168604, 0
1591, 2997355067, -0.69880956, 0.14489868, -0.3003498, -0.6328728, 3.3829753, 2.7863026, 5.8567963, 0
1593, 2997388401, -0.7020348, 0.10963598, -0.26475596, -0.6519966, 2.977347, 4.2605147, 3.4894667, 0
1595, 2997421735, -0.701092, 0.07391663, -0.23529711, -0.66911143, 3.610152, 5.5181527, 3.1280203, 0
1596, 2997438402, -0.70090216, 0.058274277, -0.22015668, -0.67597306, 3.1235158, 6.431429, 2.5619125, 0
1597, 2997455069, -0.7020185, 0.042661875, -0.20581007, -0.68048555, 2.257927, 7.1229405, 0.9518099, 0
1599, 2997488403, -0.7086263, 0.0114397, -0.18260306, -0.68150014, 3.0686903, 5.881438, -0.6356611, 0
1600, 2997505070, -0.7126416, -0.0019699037, -0.17296632, -0.6799184, 3.8069844, 4.0692506, -1.3955154, 0
1601, 2997521737, -0.7160201, -0.013010677, -0.16420028, -0.6784191, 4.076076, 3.335972, -1.3829288, 0
1603, 2997555071, -0.7185068, -0.028649412, -0.1464995, -0.6793625, 3.4418452, 1.6357858, -1.8258181, 0
1604, 2997571738, -0.71679664, -0.034020606, -0.1376934, -0.68275476, 3.2146845, 1.6207248, -1.9448333, 0
1605, 2997588405, -0.7135654, -0.038167857, -0.12904918, -0.68759173, 3.0295687, 2.439321, -1.6634369, 0
1608, 2997638406, -0.7045023, -0.050367404, -0.10697769, -0.69983137, 0.88891554, 4.1084275, -2.8764272, 0
1610, 2997671740, -0.7030919, -0.05861441, -0.09936367, -0.70172745, 1.2535136, 4.650246, -2.9970994, 0
1611, 2997688407, -0.7037504, -0.06270523, -0.096772626, -0.70107573, 2.050784, 4.7846923, -2.3632083, 0
1612, 2997705074, -0.70479137, -0.06676379, -0.09369732, -0.70007205, 1.9995514, 4.203163, -2.3221097, 0
1614, 2997738408, -0.70671546, -0.07271766, -0.08866115, -0.69819283, 1.9421508, 3.8955886, -3.8772988, 0
1615, 2997755075, -0.70726466, -0.073953405, -0.08733566, -0.6976737, 1.8282543, 3.8891518, -4.4020343, 0
1616, 2997771742, -0.70775074, -0.07359983, -0.08694114, -0.6972673, 1.3458645, 4.3510995, -4.76703, 0
1618, 2997805076, -0.70982236, -0.06953257, -0.08859534, -0.69536805, 1.1790023, 3.8716073, -3.15029, 0
1619, 2997821743, -0.71115625, -0.066484034, -0.08947817, -0.6941893, 1.1385559, 3.526244, -2.6987405, 0
1620, 2997838410, -0.7124108, -0.06360682, -0.09051746, -0.6930369, 1.2302775, 3.260084, -2.4750924, 0
1623, 2997888411, -0.716382, -0.052740954, -0.09508831, -0.689233, 2.5219033, 3.78133, -3.8418722, 0
1624, 2997905078, -0.7180687, -0.047607496, -0.0988763, -0.68731564, 2.9644969, 3.2065425, -3.4201508, 0
1626, 2997938412, -0.7205391, -0.036590815, -0.10777034, -0.68406045, 2.5794487, 2.2594347, -1.3017578, 0
1627, 2997955079, -0.72109056, -0.03212497, -0.11236575, -0.68296325, 2.7721403, 2.737726, -1.5368605, 0
1628, 2997971746, -0.72173643, -0.026787415, -0.11703792, -0.6817255, 3.824299, 2.9149787, -2.4469962, 0
1630, 2998005080, -0.722432, -0.010597959, -0.1317987, -0.6787321, 4.8924384, 2.9004705, -4.540515, 0
1631, 2998021747, -0.72091526, -4.971586E-4, -0.14552806, -0.67762166, 4.497741, 2.862683, -5.891489, 0
1632, 2998038414, -0.7176061, 0.011847634, -0.16572504, -0.6763911, 3.9114428, 2.6901436, -7.357445, 0
1634, 2998071748, -0.70675653, 0.046313554, -0.22234008, -0.6700624, 3.8842022, 5.670495, -4.7335157, 0
1635, 2998088415, -0.6997442, 0.064451106, -0.25695774, -0.66350985, 5.2996054, 8.381542, -1.3677988, 0
1638, 2998138416, -0.6889741, 0.09652355, -0.32270318, -0.641817, 6.901557, 8.281226, -1.9657254, 0
1639, 2998155083, -0.68831116, 0.12021756, -0.33839512, -0.63034356, 7.260016, 8.394467, -2.9519377, 0
1641, 2998188417, -0.6830104, 0.16519341, -0.37505814, -0.6046551, 7.5921416, 6.947638, 3.4408293, 0
1642, 2998205084, -0.6876828, 0.19689193, -0.3923198, -0.57834214, 40.43872, 55.29339, 49.13871, 0
1643, 2998221751, -0.70554286, 0.21798117, -0.36589855, -0.56646305, 15.792275, 18.688837, 5.997484, 0
1645, 2998255085, -0.7134875, 0.24855238, -0.3665173, -0.5430385, -6.640182, -0.374157, -1.1748066, 0
1646, 2998271752, -0.69936043, 0.278926, -0.38801548, -0.5316086, -9.202568, 2.2673886, -2.757226, 0
1647, 2998288419, -0.67354363, 0.31479454, -0.42698103, -0.51478076, -0.52660507, -7.803708, -1.3736744, 0
1649, 2998321753, -0.5836103, 0.4151309, -0.5441171, -0.43711624, -4.746235, -4.8733554, 7.0817356, 0
1650, 2998338420, -0.5306408, 0.45620874, -0.60208696, -0.38451755, -10.27509, -6.2633286, 15.098425, 0
1651, 2998355087, -0.4824239, 0.47988677, -0.65569717, -0.32726982, -12.6291065, -11.186415, 22.363266, 0
1653, 2998388421, -0.33405858, 0.5377151, -0.7284667, -0.2620536, 14.958825, -40.389748, 39.49244, 0
1654, 2998405088, -0.26511487, 0.55977046, -0.7344847, -0.27743816, -38.118526, 1.9004341, 16.566023, 0
1655, 2998421755, -0.2562803, 0.5701157, -0.746192, -0.22924805, -20.000135, 8.851837, 14.31427, 0
1657, 2998455089, -0.205886, 0.5896737, -0.7664166, -0.15023239, -9.176521, -25.138683, -0.8512802, 0
