sep=,
DeviceTag:,Xsens_DOT_5,,,,,,,,,,,,,,,,,
FirmwareVersion:,3.0.0,,,,,,,,,,,,,,,,,
AppVersion:,2023.6.1,,,,,,,,,,,,,,,,,
SyncStatus:,Synced,,,,,,,,,,,,,,,,,
OutputRate:,60Hz,,,,,,,,,,,,,,,,,
FilterProfile:,General,,,,,,,,,,,,,,,,,
Measurement Mode:,Sensor fusion Mode - Extended (Quaternion),,,,,,,,,,,,,,,,,
StartTime:,2025-05-05 11:56:17.858 +0200,,,,,,,,,,,,,,,,,
 2025,,,,,,,,,,,,,,,,,,,

PacketCounter,SampleTimeFine,Quat_W,Quat_X,Quat_Y,Quat_Z,FreeAcc_X,FreeAcc_Y,FreeAcc_Z,Status
1, 2970871204, 0.77693725, 0.1729283, 0.32152945, -0.51291335, 0.04295159, 0.13687095, -0.04734516, 0
2, 2970887871, 0.77698076, 0.17310913, 0.3214085, -0.512862, 0.006740927, 0.089811526, -0.11710167, 0
3, 2970904538, 0.77702725, 0.17326817, 0.32126608, -0.512827, -0.005168737, 0.11477636, -0.1300602, 0
4, 2970921205, 0.77708364, 0.17342009, 0.32110092, -0.51279384, -0.013089812, 0.1250945, -0.12565899, 0
5, 2970937872, 0.7771395, 0.17357837, 0.32094395, -0.512754, -0.005581789, 0.15520997, -0.08226776, 0
6, 2970954539, 0.77719444, 0.17375176, 0.32078955, -0.51270854, 0.03512551, 0.19610368, -0.061510086, 0
7, 2970971206, 0.7772393, 0.17394583, 0.3206603, -0.5126557, 0.046653412, 0.19002725, -0.04214096, 0
8, 2970987873, 0.7772832, 0.17412713, 0.32055143, -0.51259565, 0.032142058, 0.15671623, -0.08659935, 0
9, 2971004540, 0.7773304, 0.17431176, 0.32043648, -0.51253325, 0.02599098, 0.15051553, -0.108911514, 0
10, 2971021207, 0.77735317, 0.17449445, 0.32030246, -0.5125203, 0.030480238, 0.12808096, -0.09966278, 0
11, 2971037874, 0.7774145, 0.1746569, 0.32014212, -0.5124719, 0.040211324, 0.15203239, -0.061537743, 0
12, 2971054541, 0.7774705, 0.17483938, 0.31997553, -0.5124289, 0.026254727, 0.15327144, -0.093188286, 0
13, 2971071208, 0.7775208, 0.17502424, 0.31981948, -0.512387, 0.072358966, 0.15896957, -0.06546116, 0
14, 2971087875, 0.77756935, 0.17522599, 0.31967637, -0.51233333, 0.06259167, 0.15018651, -0.05327511, 0
15, 2971104542, 0.7776053, 0.17541884, 0.3195808, -0.51227254, 0.040095318, 0.14393228, -0.057151794, 0
16, 2971121209, 0.77762514, 0.17562905, 0.3195168, -0.51221037, 0.038332697, 0.13478982, -0.04390621, 0
17, 2971137876, 0.77766234, 0.17584193, 0.31942856, -0.512136, 0.02493533, 0.12828436, -0.10719681, 0
18, 2971154543, 0.77769613, 0.17606686, 0.31933215, -0.5120676, 0.009536404, 0.15621108, -0.124780655, 0
19, 2971171210, 0.77773184, 0.17628168, 0.3192573, -0.51198614, 0.027905593, 0.13479117, -0.037527084, 0
20, 2971187877, 0.77777255, 0.1765128, 0.31919998, -0.5118803, 0.050935697, 0.15749282, -2.8324127E-4, 0
21, 2971204544, 0.77780086, 0.17672163, 0.31915554, -0.5117929, 0.045243494, 0.1749313, -0.053730965, 0
22, 2971221211, 0.77781135, 0.17691824, 0.31910118, -0.5117429, 0.068413965, 0.17509155, -0.106321335, 0
23, 2971237878, 0.77782905, 0.17708004, 0.31902272, -0.5117091, 0.058570676, 0.18159008, -0.12635612, 0
24, 2971254545, 0.7778723, 0.17717512, 0.31896198, -0.5116481, 0.045223825, 0.1769752, -0.11586475, 0
25, 2971271212, 0.77788824, 0.17725733, 0.31888857, -0.51164114, 0.043855254, 0.18323357, -0.1501646, 0
26, 2971287879, 0.7779055, 0.17731848, 0.31882983, -0.5116304, 0.06125328, 0.1610108, -0.13708115, 0
27, 2971304546, 0.77791435, 0.1773645, 0.3187972, -0.51162136, 0.0691035, 0.13248809, -0.09561539, 0
28, 2971321213, 0.77790576, 0.17741933, 0.31879765, -0.5116151, 0.04396008, 0.1379094, -0.03691864, 0
29, 2971337880, 0.7778989, 0.17750618, 0.31881723, -0.51158303, 0.06424545, 0.08710088, -0.06420994, 0
30, 2971354547, 0.777901, 0.17758676, 0.3188546, -0.5115287, 0.029970406, 0.10537306, -0.09970951, 0
31, 2971371214, 0.7779154, 0.17769243, 0.31888083, -0.5114536, 0.05661561, 0.09389511, -0.09768772, 0
32, 2971387881, 0.77793753, 0.177798, 0.31886595, -0.5113926, 0.08279009, 0.08366191, -0.08844566, 0
33, 2971404548, 0.7779527, 0.17789015, 0.31881118, -0.51137173, 0.08532942, 0.085977614, -0.062226295, 0
34, 2971421215, 0.77797437, 0.17798376, 0.31872723, -0.51135844, 0.064527966, 0.09641064, -0.11845589, 0
35, 2971437882, 0.77801114, 0.17805256, 0.3186437, -0.51133066, 0.04484117, 0.109459996, -0.073679924, 0
36, 2971454549, 0.77806073, 0.17811826, 0.31857836, -0.5112728, 0.032990288, 0.115118116, -0.03591156, 0
37, 2971471216, 0.77808356, 0.1782121, 0.3185377, -0.5112307, 0.015555385, 0.11894834, -0.032339096, 0
38, 2971487883, 0.7780979, 0.17832416, 0.3185365, -0.51117057, 0.043432366, 0.106944576, -0.0803442, 0
39, 2971504550, 0.77809775, 0.17847992, 0.31854418, -0.51111174, 0.052229837, 0.08209083, -0.1276598, 0
40, 2971521217, 0.7780765, 0.17863262, 0.31854331, -0.5110914, 0.040904213, 0.07254851, -0.11431599, 0
41, 2971537884, 0.77808505, 0.17874718, 0.31850186, -0.51106435, 0.0678563, 0.11027951, -0.0800333, 0
42, 2971554551, 0.7781049, 0.1788558, 0.318432, -0.5110393, 0.088518955, 0.122342385, -0.05905819, 0
43, 2971571218, 0.7781364, 0.17897867, 0.31837207, -0.5109859, 0.06489676, 0.12496464, -0.045973778, 0
44, 2971587885, 0.7781573, 0.1791252, 0.31833562, -0.5109254, 0.030918324, 0.08178116, -0.06054783, 0
45, 2971604552, 0.7781565, 0.17926738, 0.31833243, -0.5108787, 0.06658161, 0.05540104, -0.051156998, 0
46, 2971621219, 0.7781586, 0.17939362, 0.31834957, -0.51082057, 0.13390371, 0.11710872, -0.06965351, 0
47, 2971637886, 0.77817583, 0.17949162, 0.31836322, -0.5107512, 0.10635618, 0.106475875, -0.09231758, 0
48, 2971654553, 0.77815163, 0.17957176, 0.31838387, -0.510747, 0.05054656, 0.07841047, -0.16122723, 0
49, 2971671220, 0.7781428, 0.17958316, 0.31839633, -0.51074874, 0.07857173, 0.100981586, -0.09819126, 0
50, 2971687887, 0.778132, 0.17957158, 0.3183538, -0.5107958, 0.14661087, 0.103543386, -0.04412365, 0
52, 2971721221, 0.77814734, 0.17951061, 0.31838667, -0.5107733, 0.10443844, 0.08759964, -0.046072006, 0
53, 2971737888, 0.7781465, 0.17948775, 0.31844842, -0.5107443, 0.111510836, 0.03340904, -0.13409805, 0
55, 2971771222, 0.77811724, 0.17940667, 0.3185867, -0.51073086, 0.010257456, 0.023996687, -0.13453484, 0
57, 2971804556, 0.778106, 0.17926632, 0.31860322, -0.51078683, 0.099627994, 0.15046713, 2.8419495E-4, 0
59, 2971837890, 0.77811664, 0.17909782, 0.31863153, -0.5108122, 0.07714035, 0.0786028, -0.09577751, 0
60, 2971854557, 0.77812755, 0.17898133, 0.3186441, -0.5108286, 0.027504163, 0.08511295, -0.124017715, 0
61, 2971871224, 0.77811253, 0.1788467, 0.31865647, -0.510891, 0.032975536, 0.11599428, -0.16186047, 0
63, 2971904558, 0.7781121, 0.1785393, 0.31855455, -0.51106274, 0.014932007, 0.099013895, -0.0757246, 0
64, 2971921225, 0.7780931, 0.17843124, 0.31853223, -0.5111434, -0.04029961, 0.08321421, -0.016786575, 0
65, 2971937892, 0.7780553, 0.17836255, 0.3185606, -0.511207, -0.010295006, 0.0912543, -0.03997898, 0
67, 2971971226, 0.77801555, 0.17823146, 0.31859684, -0.5112909, 0.09944494, 0.06440179, -0.13702393, 0
68, 2971987893, 0.77799916, 0.17809145, 0.31859952, -0.5113628, 0.1255298, 0.027507627, -0.07582569, 0
70, 2972021227, 0.77800566, 0.17774859, 0.31850517, -0.511531, 0.14670786, 0.008795458, -0.08210945, 0
72, 2972054561, 0.7781261, 0.17724833, 0.31824517, -0.51168334, 0.0700769, -0.1606305, -0.014006615, 0
74, 2972087895, 0.77836376, 0.17647752, 0.317397, -0.5121147, 0.2925018, -0.14171436, -0.023488045, 0
75, 2972104562, 0.7785314, 0.17587213, 0.31676227, -0.51246125, 0.26781747, -0.09404766, 0.079211235, 0
76, 2972121229, 0.7787214, 0.17511727, 0.31592974, -0.5129447, 0.18719344, -0.08926817, 0.11472988, 0
78, 2972154563, 0.77919054, 0.17354937, 0.3141051, -0.5138846, 0.10811746, -0.028442247, -0.00548172, 0
79, 2972171230, 0.7794229, 0.17277779, 0.3132096, -0.51433885, 0.11222116, -0.010605914, -0.006556511, 0
80, 2972187897, 0.7796505, 0.17186278, 0.31239915, -0.5147932, 0.14114419, 0.09846427, -0.049071312, 0
82, 2972221231, 0.7803315, 0.16953366, 0.31067592, -0.515576, 0.026784005, 0.33811924, 0.044732094, 0
83, 2972237898, 0.7806719, 0.16777594, 0.30986708, -0.51612204, -0.12650543, 0.5191673, 0.2812481, 0
84, 2972254565, 0.7810121, 0.1658737, 0.30907625, -0.5166958, -0.16590115, 0.37911654, -0.04983139, 0
87, 2972304566, 0.7823937, 0.1604565, 0.306845, -0.51764554, -0.24344584, 0.6116234, -0.18452549, 0
88, 2972321233, 0.78294045, 0.15877132, 0.3061886, -0.51772714, -0.28097904, 0.6427096, -0.17838955, 0
90, 2972354567, 0.78427106, 0.1552306, 0.30482367, -0.5175921, -0.28988558, 0.5711261, -0.30857468, 0
91, 2972371234, 0.78485906, 0.15379298, 0.304366, -0.5173995, -0.24292126, 0.5272568, -0.44168854, 0
92, 2972387901, 0.78532106, 0.15275095, 0.30419087, -0.5171101, -0.23063721, 0.38536382, -0.50300026, 0
94, 2972421235, 0.7857058, 0.15255432, 0.30437338, -0.51647574, -0.4002241, 0.33587414, -0.5337057, 0
95, 2972437902, 0.7857615, 0.15310964, 0.30445608, -0.516178, -0.40952268, 0.22301497, -0.3724699, 0
97, 2972471236, 0.78563213, 0.15482174, 0.3048373, -0.51563895, -0.04517957, 0.23897089, -0.09741497, 0
98, 2972487903, 0.78549504, 0.15593244, 0.3052053, -0.51529527, 0.21067795, 0.22054884, -0.103562355, 0
99, 2972504570, 0.78539515, 0.15713853, 0.30565557, -0.5148141, 0.25044626, 0.16703503, 0.0056991577, 0
101, 2972537904, 0.7851624, 0.15950207, 0.30671597, -0.51381075, 0.1176751, -0.031491075, -0.101091385, 0
102, 2972554571, 0.78499645, 0.160497, 0.3072883, -0.51341224, 0.29535517, -0.02915056, -0.15049171, 0
103, 2972571238, 0.7848558, 0.1614314, 0.30783826, -0.5130047, 0.32892615, -0.1314967, -0.16763115, 0
105, 2972604572, 0.78452086, 0.16268612, 0.3089366, -0.51246023, 0.3814765, -0.026284453, 0.2549858, 0
106, 2972621239, 0.7843359, 0.16294764, 0.30952078, -0.5123077, 0.4357535, -0.004141583, 0.29707718, 0
107, 2972637906, 0.7841778, 0.16295688, 0.31014165, -0.51217103, 0.4388639, 0.05227834, 0.13052654, 0
109, 2972671240, 0.78381795, 0.1625357, 0.31144664, -0.51206356, 0.118380286, -0.11483727, -0.28704262, 0
110, 2972687907, 0.7836227, 0.16219926, 0.31206986, -0.5120898, 0.20382214, -0.08558088, -0.28863525, 0
111, 2972704574, 0.78344506, 0.16181739, 0.31263107, -0.5121405, 0.31680593, 0.07937906, -0.1469698, 0
114, 2972754575, 0.7829355, 0.16056976, 0.3143014, -0.51228976, 0.06280647, 0.12973273, 0.09971714, 0
115, 2972771242, 0.782736, 0.16007213, 0.31493938, -0.5123587, 0.09736269, 0.06806059, -0.09759045, 0
117, 2972804576, 0.782373, 0.15934739, 0.31622237, -0.51234865, -0.081394926, 0.08113811, -0.2904272, 0
118, 2972821243, 0.7821721, 0.15897942, 0.31686783, -0.5123713, -0.01460836, 0.16204041, -0.101322174, 0
119, 2972837910, 0.7820009, 0.15847579, 0.31745565, -0.5124246, 0.032784432, 0.27884895, -0.060949326, 0
121, 2972871244, 0.7816487, 0.15728527, 0.31852144, -0.512667, -0.021070119, 0.14250761, -0.02309513, 0
122, 2972887911, 0.78145885, 0.15667115, 0.31906423, -0.51280713, -0.036866225, 0.10995105, -0.021051407, 0
124, 2972921245, 0.78099585, 0.15561494, 0.32023484, -0.51310426, -0.029652793, 0.11128118, -0.16971302, 0
125, 2972937912, 0.78077364, 0.15520902, 0.32081437, -0.5132034, -0.03190558, -0.015798567, -0.25002766, 0
126, 2972954579, 0.78057057, 0.15490681, 0.32134625, -0.51327085, -0.09316042, -0.03851866, -0.15842342, 0
129, 2973004580, 0.7801023, 0.15471065, 0.32277888, -0.51314294, 0.018240444, -0.12462177, -0.020367622, 0
130, 2973021247, 0.77999467, 0.15473828, 0.32319695, -0.51303506, 0.08523734, -0.12893769, 9.7084045E-4, 0
132, 2973054581, 0.77986115, 0.15481293, 0.32380906, -0.51282954, 0.054128356, -0.1251021, -0.08190918, 0
133, 2973071248, 0.77980125, 0.15481862, 0.323979, -0.51281166, 0.04897996, -0.13856506, -0.07084465, 0
134, 2973087915, 0.7797615, 0.15479898, 0.32407853, -0.51281506, 0.15528116, -0.10052082, 0.046344757, 0
136, 2973121249, 0.77969384, 0.15481465, 0.32417938, -0.5128495, 0.12857918, -0.029034333, -0.0071382523, 0
137, 2973137916, 0.7796811, 0.1547996, 0.32419306, -0.5128647, 0.02682245, -0.076000884, -0.15723705, 0
138, 2973154583, 0.7796557, 0.15481468, 0.3241847, -0.512904, 0.015530798, -0.049950004, -0.21405602, 0
140, 2973187917, 0.779627, 0.1548335, 0.32412896, -0.5129771, 0.17568476, 0.037397407, -0.1131773, 0
141, 2973204584, 0.7795933, 0.15489358, 0.32408905, -0.5130354, 0.11735012, 0.038457863, -0.0943079, 0
144, 2973254585, 0.7795436, 0.15543818, 0.32416764, -0.5128968, -0.027342563, -0.030315174, -0.17537308, 0
145, 2973271252, 0.77956927, 0.15571654, 0.3241807, -0.5127648, 0.095856436, -0.017978935, -0.16182137, 0
146, 2973287919, 0.77958596, 0.15593158, 0.32414168, -0.51269865, 0.18082802, 0.0050441287, -0.17679691, 0
148, 2973321253, 0.7796991, 0.15608041, 0.3239071, -0.51262975, 0.12999424, 2.7715607E-4, -0.0641489, 0
149, 2973337920, 0.77974516, 0.1562168, 0.3238141, -0.51257694, 0.01151047, 0.10315324, 0.024723053, 0
151, 2973371254, 0.7798523, 0.15664577, 0.3237661, -0.5123135, -0.049495827, 0.20493254, 0.11887169, 0
152, 2973387921, 0.7799087, 0.15688418, 0.3237907, -0.5121387, 0.025566082, 0.15932953, -0.076859474, 0
153, 2973404588, 0.7799508, 0.15701966, 0.32381052, -0.5120207, 0.12757851, 0.1853156, -0.17927456, 0
155, 2973437922, 0.7799757, 0.15684384, 0.3236829, -0.5121173, 0.0633771, 0.32397354, -0.2541275, 0
156, 2973454589, 0.77997, 0.15667842, 0.32360414, -0.5122264, -0.13608944, 0.32184568, -0.1140089, 0
159, 2973504590, 0.77989286, 0.15690115, 0.3237505, -0.5121833, -0.06565827, 0.15730317, -0.14019394, 0
160, 2973521257, 0.7798398, 0.15714464, 0.32388633, -0.51210356, 0.02997957, 0.14692837, -0.16089249, 0
161, 2973537924, 0.7798116, 0.15734403, 0.32400265, -0.5120114, 0.08285715, 0.14078645, -0.14127159, 0
163, 2973571258, 0.7797623, 0.15750001, 0.32413703, -0.5119535, 0.16625363, 0.12788662, -0.0218544, 0
164, 2973587925, 0.7797571, 0.15744817, 0.32420793, -0.51193273, 0.18788566, 0.117887326, -0.016541481, 0
165, 2973604592, 0.77973855, 0.15738302, 0.32427996, -0.5119355, 0.17037477, 0.16755638, -0.005765915, 0
167, 2973637926, 0.7796875, 0.15714704, 0.324474, -0.51196235, 0.0825943, 0.14770262, -0.089790344, 0
168, 2973654593, 0.7796568, 0.15699644, 0.32459745, -0.51197714, -0.016080864, 0.045599103, -0.1560955, 0
169, 2973671260, 0.779632, 0.15679303, 0.32472205, -0.5119983, -0.020854428, 0.08095963, -0.13149548, 0
171, 2973704594, 0.7795836, 0.15651868, 0.3249398, -0.5120179, 0.029666428, 0.17100406, 0.010279655, 0
172, 2973721261, 0.7795864, 0.15643267, 0.32502556, -0.5119854, -0.030496554, 0.17246617, -0.048086166, 0
173, 2973737928, 0.7795588, 0.15635785, 0.3251212, -0.5119896, 0.046656094, 0.110554315, -0.09658241, 0
175, 2973771262, 0.77951276, 0.15617737, 0.32531518, -0.5119914, 0.08264794, 0.01612009, -0.15810204, 0
176, 2973787929, 0.77947104, 0.15610169, 0.3254605, -0.5119859, -0.027378326, 0.03494033, -0.15541267, 0
178, 2973821263, 0.77935016, 0.15610264, 0.32582906, -0.5119352, 0.109960325, 0.07592322, 0.018980026, 0
179, 2973837930, 0.7793186, 0.15616032, 0.3260228, -0.51184237, 0.09590002, 0.036222175, 0.009839058, 0
180, 2973854597, 0.7792846, 0.15623605, 0.3262088, -0.5117524, 0.047096863, -0.049692966, -0.08736229, 0
182, 2973887931, 0.7792493, 0.15637356, 0.32644075, -0.5116161, 0.07899059, -0.021447409, -0.09386158, 0
183, 2973904598, 0.7792776, 0.15641503, 0.32643008, -0.51156723, 0.0887979, -0.037287213, -0.009331703, 0
186, 2973954599, 0.77933586, 0.15654878, 0.32634702, -0.5114906, 0.06902527, 0.09431576, -0.076761246, 0
187, 2973971266, 0.7793584, 0.15659858, 0.32633218, -0.51145047, 0.012955481, 0.07186254, -0.16226482, 0
188, 2973987933, 0.7793787, 0.15667325, 0.3263239, -0.5114019, -0.076378174, 0.030093784, -0.17457485, 0
190, 2974021267, 0.779381, 0.15678734, 0.3262684, -0.51139873, 0.006058095, 0.051434577, -0.09948254, 0
191, 2974037934, 0.7793793, 0.15687552, 0.32618496, -0.51142746, 0.07672842, 0.059607778, -0.06230545, 0
192, 2974054601, 0.77938783, 0.15699765, 0.32606426, -0.51145405, 0.066162966, 0.017476479, 0.028800964, 0
194, 2974087935, 0.77938426, 0.15733549, 0.32579628, -0.51152664, -0.01775207, -0.020754185, -0.08862209, 0
195, 2974104602, 0.779413, 0.15754579, 0.32561046, -0.5115362, -0.007862962, -0.072527274, -0.12807369, 0
196, 2974121269, 0.7794748, 0.15774985, 0.32536888, -0.511533, -0.018752066, -0.020196296, -0.15108204, 0
198, 2974154603, 0.77962106, 0.15815586, 0.324754, -0.51157546, 0.044387884, 0.14842087, -0.08082771, 0
200, 2974187937, 0.77979404, 0.15857421, 0.32406792, -0.51161724, 0.061321225, 0.26389235, -0.087750435, 0
202, 2974221271, 0.7799749, 0.15896836, 0.3233729, -0.51165926, -0.008670067, 0.26275846, -0.15954685, 0
203, 2974237938, 0.7800523, 0.15911573, 0.3230765, -0.5116826, 0.03738098, 0.35055035, -0.09689617, 0
205, 2974271272, 0.7802061, 0.15950462, 0.3225846, -0.5116374, -0.053456478, 0.28343174, -0.036501884, 0
206, 2974287939, 0.7802431, 0.15974972, 0.32247, -0.5115769, -0.05167217, 0.26890597, -0.07915878, 0
207, 2974304606, 0.78026706, 0.16006044, 0.32239166, -0.5114924, 0.023895994, 0.28029105, -0.10564613, 0
209, 2974337940, 0.7803583, 0.16044918, 0.32225704, -0.511316, 0.15036924, 0.24055034, -0.034662247, 0
210, 2974354607, 0.7803585, 0.16050172, 0.3222127, -0.5113274, 0.0971774, 0.22302413, -0.063949585, 0
211, 2974371274, 0.7803449, 0.16047093, 0.322235, -0.51134366, 0.15931512, 0.22935681, -0.05893421, 0
213, 2974404608, 0.78030664, 0.16028811, 0.32239717, -0.51135725, 0.21270365, -0.019142656, -0.6135807, 0
215, 2974437942, 0.78012234, 0.1600505, 0.3230225, -0.511318, 0.26419657, 0.288978, 0.025436401, 0
217, 2974471276, 0.7798895, 0.15964219, 0.3238381, -0.5112853, 0.21714686, -0.05306779, -0.14876461, 0
218, 2974487943, 0.7797048, 0.15926711, 0.32439703, -0.5113296, -0.2894305, -0.29881373, -0.056020737, 0
219, 2974504610, 0.7794209, 0.15877092, 0.32516897, -0.51142627, 0.028464375, -0.13100295, -0.1268158, 0
221, 2974537944, 0.77893215, 0.15791915, 0.32691598, -0.51132107, 0.6534428, -0.17710887, -0.4848318, 0
222, 2974554611, 0.7787485, 0.15737057, 0.3276808, -0.5112801, 0.22979702, -0.3627936, -0.34692383, 0
223, 2974571278, 0.77862954, 0.1567246, 0.3281697, -0.51134616, 0.1625308, -0.58064777, 0.02131939, 0
225, 2974604612, 0.7784231, 0.15534444, 0.3289795, -0.5115615, 0.059335537, -0.8577894, 0.2061081, 0
226, 2974621279, 0.7782894, 0.15474062, 0.32946265, -0.5116367, 0.940912, -0.48706266, 0.011723518, 0
227, 2974637946, 0.77823263, 0.15411605, 0.32983378, -0.5116725, 0.7558363, 0.0481695, -0.16273212, 0
230, 2974687947, 0.77781975, 0.15206532, 0.33082172, -0.51227564, -0.18216932, 0.42799154, -0.072981834, 0
232, 2974721281, 0.7777176, 0.15122855, 0.3312984, -0.5123705, -0.53794515, 0.26409563, 0.09233093, 0
233, 2974737948, 0.77748275, 0.1508975, 0.33161062, -0.51262236, -0.37363654, 0.17344964, 0.03139782, 0
234, 2974754615, 0.7773397, 0.15073651, 0.33183742, -0.5127402, 0.19414045, 0.21418364, -0.09458542, 0
236, 2974787949, 0.77744514, 0.15077747, 0.33184296, -0.5125645, -0.22029527, -0.09865493, -0.3182497, 0
237, 2974804616, 0.77744544, 0.15080367, 0.33177087, -0.5126029, -0.03927011, -0.16478057, -0.2561655, 0
238, 2974821283, 0.77747816, 0.15084794, 0.3316904, -0.5125922, 0.21083106, 0.16266234, -0.089328766, 0
240, 2974854617, 0.777737, 0.15099147, 0.33147764, -0.512295, -0.16374761, 0.2231036, 0.051548004, 0
241, 2974871284, 0.7777003, 0.15101862, 0.3315208, -0.51231486, -0.110486254, 0.20328648, 0.012553215, 0
242, 2974887951, 0.77761734, 0.15105245, 0.33161256, -0.5123713, 0.0728507, 0.29857364, -0.07875252, 0
244, 2974921285, 0.77759504, 0.15113193, 0.3317681, -0.512281, -0.19838451, 0.039598115, -0.21517277, 0
245, 2974937952, 0.77755404, 0.15116613, 0.33183473, -0.51229, -0.12949246, -0.03918115, -0.16405773, 0
246, 2974954619, 0.7775189, 0.15118086, 0.33191785, -0.5122851, 0.1971438, 0.04662726, -0.11256981, 0
248, 2974987953, 0.777584, 0.15126616, 0.33217767, -0.51199263, 0.08813809, -1.2315564E-4, -0.03383541, 0
249, 2975004620, 0.7775779, 0.1512298, 0.33230746, -0.51192844, 0.068444364, -0.13066836, -0.037852287, 0
250, 2975021287, 0.7775363, 0.15119939, 0.33237842, -0.5119544, 0.12851615, -0.20294519, -0.08389282, 0
252, 2975054621, 0.77766156, 0.15119514, 0.33212578, -0.51192963, 0.16609113, -0.13352664, -0.020342827, 0
253, 2975071288, 0.7777597, 0.1512254, 0.3318773, -0.5119328, 0.20275128, -0.11419411, -0.039396286, 0
254, 2975087955, 0.77783144, 0.15123542, 0.33168104, -0.5119478, 0.26233938, 0.13158911, -0.0121154785, 0
257, 2975137956, 0.7780742, 0.15104759, 0.33059496, -0.5123367, -0.5680984, 0.1449904, -0.03142643, 0
259, 2975171290, 0.7781571, 0.15052202, 0.32958737, -0.5130143, 0.50242406, 0.48149574, 0.053112984, 0
260, 2975187957, 0.77833045, 0.15014502, 0.32889512, -0.5133062, 0.33017737, 0.32743227, 0.066129684, 0
261, 2975204624, 0.77850705, 0.14965893, 0.32820982, -0.5136187, 0.03157076, 0.19047427, 0.08526325, 0
263, 2975237958, 0.77889216, 0.14819275, 0.32659593, -0.5144878, 0.11815096, 0.13007727, -0.002817154, 0
264, 2975254625, 0.779158, 0.14730348, 0.32560936, -0.5149658, 0.14493117, 0.249341, 0.2014389, 0
265, 2975271292, 0.77944887, 0.14597411, 0.32454732, -0.5155742, 0.23675588, 0.5589271, 0.41403294, 0
267, 2975304626, 0.7803958, 0.14209467, 0.32224575, -0.51666826, -0.04047909, 0.53945154, 0.107180595, 0
268, 2975321293, 0.7809936, 0.14005104, 0.32130283, -0.51691014, -0.19533847, 0.21247767, -0.22140217, 0
269, 2975337960, 0.78162485, 0.13816655, 0.32043377, -0.5170029, -0.0268524, 0.106919214, -0.34419155, 0
272, 2975387961, 0.7848137, 0.13271992, 0.31769106, -0.5152887, 0.19411117, 0.013840481, 0.17345524, 0
273, 2975404628, 0.7862422, 0.13072172, 0.3167321, -0.51421064, 0.50898147, 0.21384323, -0.024959564, 0
275, 2975437962, 0.7906851, 0.12612365, 0.31481326, -0.5097052, 1.6653061, 0.7857283, -0.29868984, 0
276, 2975454629, 0.7943721, 0.123194866, 0.3139971, -0.50517213, 1.3847551, 0.627148, -0.016627312, 0
277, 2975471296, 0.7984925, 0.11982474, 0.31309968, -0.5000172, 0.12467083, 0.17214632, -0.07196903, 0
279, 2975504630, 0.80563855, 0.11383309, 0.31160355, -0.49080408, -0.24424535, -0.38581908, -0.3482685, 0
280, 2975521297, 0.80838126, 0.11142204, 0.31121564, -0.48707938, -0.91495675, -0.5815066, -0.42064, 0
281, 2975537964, 0.8105802, 0.10899134, 0.3112823, -0.48392245, -0.02222434, -0.21905097, -0.5133877, 0
283, 2975571298, 0.8145494, 0.10366945, 0.3130959, -0.4772104, 0.30730617, -0.028856194, -0.808403, 0
284, 2975587965, 0.8154188, 0.10174082, 0.31508473, -0.47482586, -1.8985772, -1.2318617, -1.0803471, 0
287, 2975637966, 0.8122489, 0.10011392, 0.32319334, -0.47515446, -0.3262766, 0.16678229, -0.057325363, 0
288, 2975654633, 0.81169194, 0.10053756, 0.32462588, -0.4750403, -0.019123545, 0.079800665, -0.15778351, 0
290, 2975687967, 0.8108281, 0.10256442, 0.3265706, -0.47474924, 0.04864089, -0.2536981, -0.22968292, 0
291, 2975704634, 0.8104719, 0.10371369, 0.32746002, -0.47449484, 0.17938569, -0.10173907, -0.08060169, 0
292, 2975721301, 0.8100248, 0.10453548, 0.32857868, -0.47430485, 0.026289817, -0.07515662, 0.22734833, 0
294, 2975754635, 0.80922335, 0.10531704, 0.32971185, -0.4747134, 0.39136648, 0.35010886, 0.36468887, 0
295, 2975771302, 0.80897516, 0.10540006, 0.3299793, -0.47493222, 0.56609887, 0.44841817, 0.09971523, 0
296, 2975787969, 0.80864584, 0.105244845, 0.33053523, -0.47514084, 0.27477184, 0.124782644, -0.31564522, 0
298, 2975821303, 0.80622876, 0.10585675, 0.33608592, -0.47521865, 0.46999186, -0.2920219, -0.6133232, 0
299, 2975837970, 0.8043896, 0.106864884, 0.34066483, -0.47484928, 1.2102548, 0.40082058, 0.20470333, 0
302, 2975887971, 0.79020596, 0.12191985, 0.35456547, -0.4847578, 0.4348384, 0.279908, 0.561409, 0
303, 2975904638, 0.782044, 0.12764078, 0.36045733, -0.49212027, 2.6586356, 1.4010924, 2.4929705, 0
304, 2975921305, 0.7724955, 0.13210845, 0.36547112, -0.50222105, 0.2672008, 1.566963, 0.98167133, 0
306, 2975954639, 0.7522724, 0.13891128, 0.37448943, -0.52396995, 0.11224351, -0.8343903, -0.5403309, 0
307, 2975971306, 0.74447405, 0.14025533, 0.37891474, -0.53151417, 0.2580372, -1.6212331, -0.38726902, 0
309, 2976004640, 0.7381902, 0.14047998, 0.38477713, -0.53598875, -1.0559988, -1.5595388, -0.6709852, 0
310, 2976021307, 0.7395543, 0.14121003, 0.3844035, -0.53418195, -2.5535407, -1.0219685, -0.7240238, 0
311, 2976037974, 0.7429572, 0.14468938, 0.38075936, -0.5311297, -2.457467, -0.38752845, -0.76958275, 0
313, 2976071308, 0.75267607, 0.155281, 0.36672536, -0.5242859, -0.11095921, 0.7525015, 0.16467762, 0
314, 2976087975, 0.75721395, 0.15935, 0.35806766, -0.5225121, 0.2538698, 0.45422068, 0.10257435, 0
315, 2976104642, 0.7613073, 0.16015773, 0.34938118, -0.5221976, 1.9400858, 0.43207648, 0.11718178, 0
317, 2976137976, 0.7649262, 0.15806912, 0.3402728, -0.5235584, 1.7640487, -0.68199, 0.38514137, 0
318, 2976154643, 0.7656103, 0.15688442, 0.33823588, -0.52423406, 1.0964988, -0.28778926, 1.0483875, 0
319, 2976171310, 0.7657665, 0.15623455, 0.3374533, -0.5247042, 0.009508241, -0.03481583, 0.83926773, 0
321, 2976204644, 0.7655982, 0.15521987, 0.3374488, -0.52525383, -0.8248059, 0.30216214, -0.053609848, 0
322, 2976221311, 0.76551473, 0.15488535, 0.33753136, -0.525421, -0.36825144, 0.12645447, -0.7004862, 0
323, 2976237978, 0.7655079, 0.15467471, 0.33728945, -0.52564836, 0.17237096, 0.16686404, -0.7097502, 0
325, 2976271312, 0.7658137, 0.15438446, 0.33597288, -0.52613115, -0.07784017, 0.07642858, -0.30039215, 0
326, 2976287979, 0.766033, 0.15412766, 0.33530152, -0.52631545, -0.29670227, 0.26820785, -0.027125359, 0
329, 2976337980, 0.7663119, 0.15348297, 0.33411658, -0.52685124, 0.057573136, 0.9273953, 0.17636299, 0
330, 2976354647, 0.7663175, 0.15331419, 0.3340219, -0.52695215, -0.38469687, 0.69612896, -0.049791336, 0
331, 2976371314, 0.7662849, 0.15306929, 0.33399668, -0.5270867, -0.3141222, 0.36390948, -0.23270321, 0
333, 2976404648, 0.76631445, 0.15256083, 0.33376464, -0.5273381, 0.23046689, 0.22035584, -0.22815418, 0
334, 2976421315, 0.76634187, 0.15223536, 0.33360544, -0.5274932, 0.047612283, 0.28168008, -0.10348797, 0
335, 2976437982, 0.76633865, 0.15189107, 0.33341733, -0.52771574, -0.19958232, 0.3956993, -0.021957397, 0
337, 2976471316, 0.7662842, 0.15141398, 0.33329913, -0.5280067, 0.013321819, 0.50142497, 0.045428276, 0
338, 2976487983, 0.76627475, 0.15114994, 0.33332798, -0.5280777, 0.19777991, 0.3092712, -0.08726406, 0
340, 2976521317, 0.76611525, 0.15020832, 0.3335437, -0.52844167, -0.08519934, -0.0565775, -0.0068559647, 0
341, 2976537984, 0.7660168, 0.14958102, 0.33368403, -0.52867377, -0.15253575, -0.022734173, 0.062033653, 0
344, 2976587985, 0.765887, 0.14757577, 0.33381605, -0.5293413, 0.06373427, 0.44109443, -0.11308479, 0
345, 2976604652, 0.76585096, 0.14725126, 0.33382, -0.5294815, 0.012376807, 0.32902527, -0.092926025, 0
346, 2976621319, 0.76579416, 0.1470513, 0.33387452, -0.5295846, -0.060502723, 0.18295015, -0.10596657, 0
348, 2976654653, 0.76573145, 0.1469227, 0.3340125, -0.5296238, 0.09557839, 0.16556868, -0.12660503, 0
349, 2976671320, 0.76569873, 0.1469611, 0.3340424, -0.5296417, -0.028657267, 0.1799619, -0.25438404, 0
350, 2976687987, 0.7656766, 0.1471074, 0.33403605, -0.52963716, -0.18924595, 0.16458991, -0.14105797, 0
352, 2976721321, 0.7656936, 0.1476718, 0.33391702, -0.52953064, -0.15987256, 0.14763154, 0.00493145, 0
353, 2976737988, 0.7657119, 0.14791907, 0.33385557, -0.52947396, 0.066394076, 0.108761966, -0.10734844, 0
354, 2976754655, 0.76575655, 0.14818862, 0.33379468, -0.52937233, 0.18457276, 0.078563236, -0.1679821, 0
356, 2976787989, 0.7658519, 0.14873043, 0.33369347, -0.52914625, 0.025463937, 0.11435974, -0.11135006, 0
358, 2976821323, 0.7658905, 0.14938954, 0.33354607, -0.5289973, -0.11162662, 0.1168671, -0.07851219, 0
360, 2976854657, 0.7660102, 0.150343, 0.3332407, -0.5287463, 0.035544597, 0.13501233, -0.06819916, 0
361, 2976871324, 0.7660498, 0.15071745, 0.33308423, -0.5286813, 0.04411252, 0.18883157, -0.049876213, 0
362, 2976887991, 0.76605964, 0.1510406, 0.33296537, -0.5286496, 0.026042165, 0.18865176, -0.117801666, 0
364, 2976921325, 0.7661001, 0.15165307, 0.33276528, -0.52854156, 0.11212394, 0.11238947, -0.049394608, 0
365, 2976937992, 0.7661301, 0.15192574, 0.33271414, -0.5284518, 0.030189, 0.035516545, -0.113152504, 0
367, 2976971326, 0.76614004, 0.15252174, 0.33257505, -0.5283534, -0.09009137, 0.066069424, -0.13063717, 0
368, 2976987993, 0.7661719, 0.15283823, 0.3324789, -0.52827626, 0.010921961, 0.016849523, -0.16880226, 0
369, 2977004660, 0.7662143, 0.15316023, 0.33237898, -0.52818453, 0.18092324, 0.03648011, -0.09412193, 0
371, 2977037994, 0.76632965, 0.1538689, 0.33219343, -0.5279276, 0.16710857, 0.07472262, -0.11973858, 0
373, 2977071328, 0.7664108, 0.1545748, 0.33204308, -0.5276983, -0.009553838, -0.035843655, -0.0951395, 0
375, 2977104662, 0.76649505, 0.15513937, 0.331838, -0.5275391, 0.14963746, 0.011521087, -0.057828903, 0
376, 2977121329, 0.7665303, 0.15539742, 0.33173925, -0.5274742, 0.088733524, -0.023187233, -0.1321907, 0
377, 2977137996, 0.76656425, 0.15564662, 0.33163324, -0.52741796, 0.025433315, -0.01829677, -0.07197571, 0
379, 2977171330, 0.7666806, 0.15622495, 0.33139303, -0.5272286, 0.14030221, 0.0069018565, -0.021326065, 0
380, 2977187997, 0.76673067, 0.15651512, 0.33127835, -0.527142, 0.13428323, 0.00450658, -0.09591007, 0
381, 2977204664, 0.76675314, 0.1567866, 0.3311908, -0.5270839, 0.11860491, 0.046746727, -0.09959602, 0
383, 2977237998, 0.7667799, 0.15728125, 0.33101168, -0.5270097, -0.04759753, 0.08148534, -0.09218311, 0
384, 2977254665, 0.7668146, 0.15750432, 0.3309228, -0.5269482, 0.079695776, 0.11284689, -0.07956886, 0
385, 2977271332, 0.7668602, 0.15774718, 0.3308437, -0.52685905, 0.18155041, 0.0891278, -0.097408295, 0
387, 2977304666, 0.7668895, 0.15831338, 0.33072615, -0.5267205, 0.040282175, 0.011514158, -0.14297867, 0
388, 2977321333, 0.7668944, 0.15856767, 0.33068123, -0.52666485, 0.04908948, 0.04378384, -0.06310558, 0
390, 2977354667, 0.76704466, 0.1588057, 0.33032367, -0.5265991, 0.12530136, 0.019021064, -1.112257, 0
391, 2977371334, 0.76698476, 0.15897258, 0.33045232, -0.526555, 0.17782289, -0.21124935, 0.093110085, 0
392, 2977388001, 0.7670756, 0.15921758, 0.33034608, -0.52641535, 0.3332976, -0.41828772, 0.36203957, 0
394, 2977421335, 0.7670349, 0.15972388, 0.33072495, -0.52608323, 0.4052536, 0.030575119, -0.11883736, 0
395, 2977438002, 0.76700586, 0.15988977, 0.33087072, -0.5259834, 0.11420171, -0.3002958, -0.40139294, 0
396, 2977454669, 0.7669222, 0.15995987, 0.33105478, -0.5259685, 0.23883253, -0.8887562, -0.12210655, 0
398, 2977488003, 0.7668658, 0.16034804, 0.33148417, -0.525662, 0.77592665, -0.9902111, -0.36013412, 0
400, 2977521337, 0.76684546, 0.16050832, 0.3320205, -0.52530384, 0.5124544, -0.75797755, -0.23460484, 0
402, 2977554671, 0.76701725, 0.15983766, 0.3319611, -0.52529526, 0.2611787, -0.35596907, 0.14157867, 0
403, 2977571338, 0.76711506, 0.15944959, 0.33179048, -0.5253784, -0.04623857, -0.24155973, 0.2168274, 0
404, 2977588005, 0.7671891, 0.15913329, 0.33162227, -0.52547234, -0.10533272, -0.09287511, 0.24872017, 0
406, 2977621339, 0.7673186, 0.1589125, 0.33127168, -0.52557105, 0.19509575, 0.009847087, -0.10145855, 0
407, 2977638006, 0.7673852, 0.15885982, 0.33108133, -0.5256097, 0.072475865, -0.086250074, -0.2641983, 0
408, 2977654673, 0.76743954, 0.15882838, 0.33083534, -0.5256946, 0.08287212, -0.14486903, -0.17783737, 0
410, 2977688007, 0.76751715, 0.15868984, 0.3303913, -0.52590245, 0.10943217, 0.20846103, 0.025644302, 0
411, 2977704674, 0.7675786, 0.15864293, 0.33025545, -0.52591217, -0.015628919, 0.29540366, 0.20064163, 0
412, 2977721341, 0.76758075, 0.15871842, 0.33019906, -0.52592164, -0.07629816, 0.34211674, 0.31241512, 0
415, 2977771342, 0.7670871, 0.15943904, 0.33133182, -0.5257116, 0.24826053, -0.023997245, -0.0897913, 0
416, 2977788009, 0.76673174, 0.15985171, 0.33225736, -0.52552074, 0.45043582, -0.2873944, -0.14043236, 0
418, 2977821343, 0.7657516, 0.16207086, 0.33483055, -0.52463615, -0.10102383, -0.83276653, -0.26521683, 0
419, 2977838010, 0.7649547, 0.16435048, 0.33693925, -0.52373856, 0.51905364, -1.2037661, -0.61717224, 0
421, 2977871344, 0.7640675, 0.16660795, 0.34378675, -0.519856, 0.8476376, -0.35298127, 0.42059612, 0
422, 2977888011, 0.7651876, 0.1643346, 0.34693423, -0.51683235, 1.8931895, -0.34122506, 0.90061665, 0
423, 2977904678, 0.76821667, 0.15894322, 0.34972087, -0.51212525, 0.75232875, -0.40015468, 0.9501915, 0
425, 2977938012, 0.7743868, 0.14547189, 0.3555693, -0.5027231, -0.69420105, -1.0733427, -0.06840134, 0
426, 2977954679, 0.7757225, 0.13798681, 0.3597864, -0.4997649, -2.1954226, -1.7214686, -0.87324905, 0
427, 2977971346, 0.77671236, 0.13334239, 0.36311096, -0.4970767, 0.45814568, -1.5708035, -1.5068445, 0
430, 2978021347, 0.77889234, 0.12926832, 0.37080503, -0.488996, 0.061890066, -2.0296586, -0.061937332, 0
431, 2978038014, 0.7786095, 0.13387033, 0.37049186, -0.48844513, -0.17183207, -1.6895809, -1.7334843, 0
433, 2978071348, 0.7770248, 0.14779662, 0.36725092, -0.48939985, 2.1970532, -1.2781634, 2.1305418, 0
434, 2978088015, 0.77728385, 0.14773032, 0.36675933, -0.48937726, 2.8979604, -0.25609255, 2.1000023, 0
435, 2978104682, 0.77801776, 0.1459847, 0.3663509, -0.48904052, 0.53271097, -1.7435329, -0.20044136, 0
437, 2978138016, 0.7788088, 0.14311196, 0.3679858, -0.48740074, 1.2422495, -1.9826949, -0.7330456, 0
438, 2978154683, 0.7794112, 0.14176023, 0.36937553, -0.4857786, 0.76992947, -1.90269, -0.38358116, 0
439, 2978171350, 0.7801753, 0.14042306, 0.36991984, -0.48452446, 0.6115082, -1.4090118, 0.21525764, 0
441, 2978204684, 0.7811489, 0.13982095, 0.36808604, -0.48452666, 0.29590455, -1.8844453, -0.39269066, 0
442, 2978221351, 0.78187037, 0.1396045, 0.365931, -0.48505747, 1.7480875, -1.9916046, -0.2504568, 0
445, 2978271352, 0.7857505, 0.13866143, 0.3597322, -0.48369285, 1.2143723, -2.8660932, 0.006067276, 0
446, 2978288019, 0.7869688, 0.13840728, 0.35814756, -0.48296052, 1.4283495, -2.6718497, 0.25626755, 0
448, 2978321353, 0.7893536, 0.13624847, 0.35490727, -0.48207358, 1.9274906, -2.5421886, 0.06975746, 0
449, 2978338020, 0.78999674, 0.13456546, 0.35395098, -0.4821959, 2.346652, -2.8946147, -0.5306263, 0
450, 2978354687, 0.7902592, 0.13316071, 0.3537393, -0.48231107, 2.2479987, -3.2929282, -0.52630043, 0
452, 2978388021, 0.7900291, 0.13154349, 0.3558167, -0.48160335, 1.360577, -3.0340629, 0.47603035, 0
453, 2978404688, 0.7897696, 0.13079204, 0.35779446, -0.4807678, 1.7816823, -2.7542698, -1.0555725, 0
454, 2978421355, 0.78946847, 0.12989162, 0.35988313, -0.47994673, 1.7084528, -1.8299607, -0.6972656, 0
456, 2978454689, 0.79008377, 0.12811996, 0.36071947, -0.478781, 1.0893307, -2.4887612, -0.8347378, 0
457, 2978471356, 0.7906781, 0.12706803, 0.3606695, -0.4781176, 0.7507476, -2.3408391, -0.5374603, 0
458, 2978488023, 0.79157674, 0.12608168, 0.3605235, -0.4770006, 1.368914, -2.149221, -1.2884951, 0
460, 2978521357, 0.7936935, 0.121031955, 0.3590416, -0.47590756, 2.5002167, -1.8298572, -1.0708189, 0
461, 2978538024, 0.7944209, 0.11743239, 0.35855594, -0.47596177, 2.3437288, -0.8228026, -0.38122654, 0
462, 2978554691, 0.7950038, 0.113788605, 0.35801092, -0.47628382, 0.96382695, -1.5680568, 0.08128643, 0
464, 2978588025, 0.79529357, 0.10746037, 0.35812134, -0.4771857, -0.28301635, -0.20077354, 0.93204594, 0
465, 2978604692, 0.79524505, 0.10455328, 0.35852626, -0.47760823, 0.39397377, 0.45623833, 1.4118958, 0
466, 2978621359, 0.7951682, 0.10203172, 0.35909548, -0.4778539, 0.04952265, 0.4820767, 1.3117123, 0
468, 2978654693, 0.7950394, 0.09775531, 0.35997164, -0.478303, -1.22184, 1.6178751, 1.1846714, 0
469, 2978671360, 0.79510766, 0.096032046, 0.36012343, -0.47842428, -1.3136243, 1.7442446, 0.3103075, 0
472, 2978721361, 0.7957272, 0.09095534, 0.36026037, -0.47828305, 0.13263705, 2.5261629, -0.075294495, 0
473, 2978738028, 0.79572594, 0.08880155, 0.36099866, -0.4781333, 0.07382856, 2.048341, -0.48099995, 0
475, 2978771362, 0.7956475, 0.08472494, 0.3629303, -0.4775407, -0.11402312, 2.0151722, -0.5572128, 0
476, 2978788029, 0.7962464, 0.08394993, 0.36323765, -0.4764447, 0.20325263, 1.4690863, -0.47717476, 0
477, 2978804696, 0.79748124, 0.08447888, 0.362558, -0.47480035, -0.7398198, 0.51386917, -0.10768223, 0
479, 2978838030, 0.8000519, 0.08596029, 0.3608213, -0.47152132, 0.12732415, -0.22122088, 0.10505962, 0
480, 2978854697, 0.8012614, 0.08626648, 0.36012098, -0.46994463, 0.5888389, 0.35245484, 0.27138042, 0
481, 2978871364, 0.8024801, 0.08640493, 0.35943303, -0.46836406, 1.224063, 0.53784144, -0.4914961, 0
483, 2978904698, 0.8048313, 0.08692942, 0.3580293, -0.46529746, -0.4342801, 0.06481931, -0.507988, 0
484, 2978921365, 0.80596054, 0.087549336, 0.3573755, -0.46372652, -0.6225558, -0.53919053, 0.027311325, 0
487, 2978971366, 0.80942535, 0.09034465, 0.35553673, -0.45853975, 0.57587934, -1.2262926, -0.4120388, 0
488, 2978988033, 0.8102896, 0.09119111, 0.3550351, -0.4572327, 0.3060087, -0.55049115, -0.017792702, 0
489, 2979004700, 0.81115735, 0.09209846, 0.35446846, -0.4559503, 0.64231724, -0.85245126, -0.3143282, 0
491, 2979038034, 0.8127033, 0.09353542, 0.353376, -0.4537476, -0.07252593, -1.1239823, -0.4368124, 0
492, 2979054701, 0.8132413, 0.09409736, 0.3528776, -0.45305467, 0.27915338, -1.0626844, 0.035647392, 0
493, 2979071368, 0.8136587, 0.09472763, 0.35253736, -0.45243824, 0.7307975, -0.905172, -0.4512987, 0
495, 2979104702, 0.8147205, 0.09639226, 0.35149595, -0.45098397, 0.39340582, -1.5036186, -0.074456215, 0
496, 2979121369, 0.81519985, 0.09729807, 0.3509115, -0.4503781, 0.13890749, -1.4229807, 0.032906532, 0
497, 2979138036, 0.8156414, 0.09838556, 0.35031763, -0.44980395, 0.2262682, -1.3046491, -0.428977, 0
499, 2979171370, 0.8163084, 0.10048072, 0.34925306, -0.4489584, 0.3714687, -1.1997342, -0.19987583, 0
502, 2979221371, 0.81656766, 0.10386215, 0.34852177, -0.44828522, 0.059072908, -1.7514898, 0.07982445, 0
503, 2979238038, 0.81651604, 0.10520855, 0.3483269, -0.44821638, -0.35745555, -2.2283044, 0.31041813, 0
504, 2979254705, 0.8163476, 0.10652184, 0.34802723, -0.44844586, 0.0654989, -2.2165058, 0.21189594, 0
506, 2979288039, 0.8164272, 0.108932085, 0.346707, -0.44874457, 1.1040454, -2.052097, 0.62891006, 0
507, 2979304706, 0.816491, 0.11016461, 0.34599566, -0.44887674, 0.6313805, -1.450093, 0.01731968, 0
508, 2979321373, 0.8163135, 0.11148472, 0.34559554, -0.44918156, 0.47799766, -1.239612, -0.2634325, 0
510, 2979354707, 0.8161184, 0.11427438, 0.34479564, -0.44944957, 0.34681588, -1.8264427, -0.07516575, 0
511, 2979371374, 0.81605077, 0.11552127, 0.34435245, -0.4495937, 0.71083224, -2.7635796, -0.10170746, 0
512, 2979388041, 0.8158568, 0.116652906, 0.3440711, -0.44986856, 1.0395939, -2.4852946, -0.34379864, 0
514, 2979421375, 0.8150832, 0.11837898, 0.34487048, -0.4502078, 1.0001312, -1.0132276, 1.6404104, 0
516, 2979454709, 0.81332785, 0.12079491, 0.35033154, -0.448521, 1.4757869, -2.011482, -1.2354727, 0
518, 2979488043, 0.8117723, 0.12263969, 0.35724923, -0.44537094, 0.91327983, -1.9538885, -1.7849531, 0
519, 2979504710, 0.8108903, 0.12284388, 0.35950983, -0.44510224, -0.2505701, -0.14963092, 1.3673868, 0
520, 2979521377, 0.81034714, 0.123250335, 0.36079654, -0.44493777, 0.18559867, -0.34854198, 1.9692326, 0
522, 2979554711, 0.8088322, 0.12364208, 0.37191063, -0.43838617, 2.3036232, 0.46461257, -3.0535674, 0
523, 2979571378, 0.81016254, 0.12203698, 0.37587848, -0.432962, 0.02351781, 0.4529556, -0.9923477, 0
524, 2979588045, 0.81107914, 0.1209147, 0.37647012, -0.431042, -0.9225354, 0.07939605, 0.9765587, 0
526, 2979621379, 0.8090226, 0.120208494, 0.38050085, -0.4315651, 0.41030297, 2.5551443, 1.650939, 0
527, 2979638046, 0.80732536, 0.121017985, 0.38396782, -0.4314465, 1.1216357, 0.17395186, -0.01072979, 0
529, 2979671380, 0.80212325, 0.12485647, 0.39562628, -0.42951822, -0.594979, -0.79043496, -0.5338125, 0
530, 2979688047, 0.8003901, 0.12624261, 0.39996523, -0.42832607, -0.58598393, -0.37746584, -0.8035717, 0
531, 2979704714, 0.79910594, 0.12661439, 0.40302762, -0.42774296, -0.14591709, -0.74045146, -1.2671728, 0
533, 2979738048, 0.79692304, 0.12445127, 0.4067903, -0.42888683, 1.1374469, -0.7715999, -0.76221085, 0
534, 2979754715, 0.7971949, 0.12065467, 0.40520027, -0.43096685, 1.9246007, -2.6121085, -2.2698908, 0
535, 2979771382, 0.7984142, 0.11598292, 0.40154397, -0.43340746, 1.3296398, -2.5592058, -1.3494749, 0
537, 2979804716, 0.80334675, 0.10490585, 0.38745773, -0.4398889, 0.7495847, -3.3465202, 1.4548569, 0
538, 2979821383, 0.805768, 0.10026346, 0.38024488, -0.44282725, 0.6027713, -3.8942466, 1.9165516, 0
539, 2979838050, 0.80674577, 0.09782375, 0.37642065, -0.4448549, 0.39719123, -2.321439, 3.1026497, 0
541, 2979871384, 0.80703294, 0.09432136, 0.37299693, -0.44796383, 0.12576695, 0.5860588, 1.1164045, 0
543, 2979904718, 0.80705494, 0.09295, 0.3699306, -0.4507447, -1.5281672, 2.0350797, -1.4420547, 0
545, 2979938052, 0.8075681, 0.09213585, 0.36610374, -0.45311126, -1.8067118, 2.2125616, -0.02257061, 0
546, 2979954719, 0.80765754, 0.09222519, 0.3646538, -0.45410186, -1.4571104, 3.404341, -0.46991825, 0
547, 2979971386, 0.80771935, 0.09238326, 0.3633619, -0.45499417, -1.2545831, 2.7395766, -0.2458458, 0
549, 2980004720, 0.80811876, 0.09320436, 0.36095968, -0.45602825, -1.4924709, 0.36531326, -0.43870354, 0
550, 2980021387, 0.80822885, 0.09356912, 0.35974574, -0.45671707, -0.79447615, 0.3397978, -0.2831745, 0
552, 2980054721, 0.80801564, 0.09432925, 0.3579284, -0.4583631, -0.67109966, 1.2338274, -0.1497984, 0
553, 2980071388, 0.80773735, 0.09443251, 0.35722992, -0.45937622, -1.2579812, 1.1377023, 0.5951576, 0
554, 2980088055, 0.8071756, 0.09441194, 0.35695347, -0.46058145, -0.7520277, 0.039005917, 0.53441143, 0
556, 2980121389, 0.80547166, 0.0936486, 0.35725805, -0.46347478, -0.20712008, 0.37885568, -0.1514597, 0
558, 2980154723, 0.80362964, 0.092435375, 0.35813266, -0.46623272, -0.14857286, 0.39362615, -0.1286459, 0
560, 2980188057, 0.801731, 0.091656, 0.35915518, -0.46886152, -0.38468212, -0.46464446, 0.2708063, 0
561, 2980204724, 0.80094486, 0.09117872, 0.35929707, -0.47018754, -0.21334043, -0.20901135, -0.3009138, 0
562, 2980221391, 0.80012345, 0.090619184, 0.35960144, -0.47145987, -0.20238763, -0.30939424, -0.10284138, 0
564, 2980254725, 0.7983135, 0.08983513, 0.3609131, -0.4736705, 1.0388325, -0.58120716, -0.6649275, 0
565, 2980271392, 0.79777354, 0.09006205, 0.361187, -0.47432792, 0.6603845, -0.6094938, -0.5681, 0
566, 2980288059, 0.7977241, 0.09050397, 0.36062974, -0.4747509, -0.014068352, -1.2444831, -0.025073051, 0
568, 2980321393, 0.79778004, 0.09221719, 0.3594591, -0.47521475, -0.15945615, 0.010101165, 0.33584023, 0
569, 2980338060, 0.7978307, 0.0930268, 0.3587667, -0.4754953, 0.7050926, 0.3336046, 0.51211166, 0
570, 2980354727, 0.79775834, 0.09397803, 0.35834008, -0.47575107, 1.3831476, 0.64025044, -0.2082367, 0
573, 2980404728, 0.79724234, 0.09570051, 0.3580104, -0.47652012, -1.5368862, -0.14082366, 0.26306438, 0
574, 2980421395, 0.7968637, 0.09607133, 0.35829905, -0.47686192, -0.5681033, 0.41466957, 0.16181469, 0
576, 2980454729, 0.79667187, 0.09742201, 0.35852283, -0.4767402, 0.4124507, 0.0041456623, -0.65160656, 0
577, 2980471396, 0.7965609, 0.098053336, 0.3586402, -0.47670814, 0.14959097, -0.53601146, 0.23029804, 0
578, 2980488063, 0.7963775, 0.09882158, 0.3588874, -0.47666955, 0.2105767, -0.030672347, -0.4889784, 0
580, 2980521397, 0.7960694, 0.099432416, 0.3593742, -0.47669038, 0.008699125, -0.7963823, 0.44560432, 0
581, 2980538064, 0.7957909, 0.099356875, 0.35974014, -0.47689524, 0.9369442, -0.9539318, -0.06330395, 0
583, 2980571398, 0.795674, 0.09937447, 0.35966876, -0.47714025, 0.8732376, -0.16674078, 0.3742695, 0
584, 2980588065, 0.7958276, 0.0998743, 0.3593349, -0.4770312, -0.8226582, -0.67615825, 0.78393555, 0
585, 2980604732, 0.7958789, 0.10062407, 0.3592195, -0.47687513, -1.0160335, -0.7602211, -0.2633314, 0
588, 2980654733, 0.7961402, 0.104156926, 0.35893086, -0.47589692, 0.887289, -0.39904946, -0.34562016, 0
589, 2980671400, 0.79624856, 0.10530035, 0.35858947, -0.47572118, -0.20995198, -0.789342, 0.16281414, 0
591, 2980704734, 0.7961782, 0.10763506, 0.35830283, -0.4755324, -0.583962, -1.0448375, -0.05759144, 0
592, 2980721401, 0.79620945, 0.108598165, 0.35791048, -0.47555664, -0.1580735, -1.4431852, 0.045617104, 0
593, 2980738068, 0.7960958, 0.109525435, 0.35784626, -0.47558245, 0.5679558, -0.78177655, -0.44795895, 0
595, 2980771402, 0.7958352, 0.11160551, 0.35797986, -0.47543427, 0.98660475, -1.293535, 0.6052761, 0
596, 2980788069, 0.79566616, 0.11284926, 0.35802534, -0.4753895, 0.0061213495, -2.07924, -0.36736298, 0
597, 2980804736, 0.7954728, 0.11350409, 0.35779566, -0.47573018, -0.07268775, -2.2918532, -0.80443573, 0
599, 2980838070, 0.7953949, 0.11448294, 0.35649487, -0.47660145, 0.1762925, -1.2591301, 0.38935566, 0
600, 2980854737, 0.7949723, 0.11485719, 0.35654458, -0.4771787, 0.15318975, -0.5576253, 1.8123608, 0
601, 2980871404, 0.7942406, 0.115579166, 0.3577269, -0.47733802, 1.2270985, -1.7832835, 0.7320156, 0
603, 2980904738, 0.79243606, 0.11785519, 0.3630898, -0.4757288, 1.5606081, -3.2550209, -1.1131573, 0
605, 2980938072, 0.7926801, 0.11821795, 0.36169907, -0.47629145, 0.04116371, -2.438287, -0.7378502, 0
607, 2980971406, 0.7926225, 0.11789692, 0.36050984, -0.4773669, 0.24256073, -1.6028366, 5.032096, 0
608, 2980988073, 0.7914149, 0.118808284, 0.3642766, -0.47628412, 3.0454354, -2.1570165, 1.5359898, 0
610, 2981021407, 0.7859651, 0.12503187, 0.38222033, -0.4696063, 2.14599, -0.647893, -1.6773243, 0
611, 2981038074, 0.78538203, 0.124741316, 0.38358444, -0.4695471, 0.38131222, -1.3553056, -1.2990942, 0
612, 2981054741, 0.7858939, 0.12379025, 0.38261458, -0.46973374, -0.78181213, -0.062106762, -1.665719, 0
614, 2981088075, 0.7884179, 0.121200144, 0.37655154, -0.47107732, 0.7985959, 0.37374178, -0.8481226, 0
616, 2981121409, 0.7898767, 0.12132714, 0.37466714, -0.47010183, 0.8873071, 0.9637849, -2.2868037, 0
618, 2981154743, 0.79188436, 0.12068777, 0.37110576, -0.4697137, -1.2614765, 1.5806621, -1.0209103, 0
619, 2981171410, 0.79299664, 0.11935006, 0.36891094, -0.46990776, -0.18377459, 3.3917527, -1.3746395, 0
620, 2981188077, 0.79407805, 0.116850734, 0.36621913, -0.47081456, 0.237624, 2.505081, -1.3436718, 0
622, 2981221411, 0.79475504, 0.11029379, 0.36380872, -0.47311732, 0.27846092, -1.6319872, 0.52470875, 0
623, 2981238078, 0.79466295, 0.10691781, 0.363422, -0.47434226, 0.64792496, -3.1586602, 0.8388214, 0
624, 2981254745, 0.79434377, 0.10417215, 0.36341706, -0.47549015, -0.5518895, -1.8256073, 0.8770437, 0
626, 2981288079, 0.79343724, 0.0996359, 0.36298096, -0.47830087, -1.1822369, -0.9929268, 2.3080301, 0
627, 2981304746, 0.7929285, 0.098022856, 0.36302814, -0.4794406, -0.7420317, 0.6671683, 1.8852396, 0
628, 2981321413, 0.7925433, 0.09659373, 0.36302844, -0.48036656, 0.2867336, 2.0374382, 2.0578299, 0
631, 2981371414, 0.79163927, 0.09432477, 0.36320075, -0.48217443, -1.3279059, 2.096056, 0.15648842, 0
633, 2981404748, 0.792018, 0.0933092, 0.36196104, -0.48268232, -0.39866665, 3.1569004, -0.91587067, 0
634, 2981421415, 0.79244065, 0.09327881, 0.36106345, -0.48266646, -0.24058622, 3.36762, -1.1448078, 0
635, 2981438082, 0.7928891, 0.09361969, 0.36037868, -0.48237574, -1.4225786, 3.1174924, -0.09707928, 0
637, 2981471416, 0.7939822, 0.09425238, 0.35860863, -0.48177296, -0.6415754, 1.7773546, 0.14989948, 0
638, 2981488083, 0.79458433, 0.09448598, 0.35754532, -0.48152488, -0.024226792, 1.1521553, 0.033260345, 0
639, 2981504750, 0.79505396, 0.09482606, 0.35671544, -0.4812985, -0.09335734, 1.8151643, 0.19056416, 0
641, 2981538084, 0.79555094, 0.095312946, 0.3556078, -0.4812006, -1.296474, 1.0988116, -0.83838654, 0
642, 2981554751, 0.7955915, 0.09539111, 0.35522363, -0.48140186, -0.6447222, -0.6758293, -0.5077963, 0
643, 2981571418, 0.79557514, 0.09544477, 0.35480356, -0.4817281, -0.3232335, 0.369279, -0.78738976, 0
646, 2981621419, 0.7954209, 0.095786065, 0.35380635, -0.4826475, -0.67960167, 0.033385124, -0.70110035, 0
647, 2981638086, 0.7951611, 0.09590075, 0.35358122, -0.48321715, 2.1660576, -2.71182, -1.360034, 0
649, 2981671420, 0.7939777, 0.0958903, 0.35401312, -0.48484632, -0.6081363, -1.2084557, 1.8218613, 0
650, 2981688087, 0.7938153, 0.09553945, 0.35428894, -0.4849802, -1.4354664, 0.05155008, 0.23430443, 0
651, 2981704754, 0.7926192, 0.09499318, 0.35529628, -0.48630485, 0.12838472, -1.0503559, -0.6433668, 0
653, 2981738088, 0.79054785, 0.09384699, 0.3567409, -0.48883504, 0.36116946, 0.37203497, -0.38413525, 0
654, 2981754755, 0.7903803, 0.09374885, 0.3568606, -0.48903728, -1.100033, -0.78599304, -0.098667145, 0
655, 2981771422, 0.7899181, 0.093423076, 0.35703903, -0.4897156, -0.6864919, -0.12548503, -0.68650055, 0
657, 2981804756, 0.78867155, 0.09296334, 0.35779792, -0.49125612, 0.91568655, 0.92054397, 0.50624275, 0
658, 2981821423, 0.7885729, 0.09279451, 0.35803923, -0.49127072, -0.6073895, -1.1345967, 0.55335426, 0
661, 2981871424, 0.787184, 0.09204442, 0.36003107, -0.4921826, 1.4742651, 0.8580195, 0.114665985, 0
662, 2981888091, 0.7871508, 0.09210596, 0.36073196, -0.49171036, 0.0089230845, 0.7805072, 1.1661053, 0
664, 2981921425, 0.78710854, 0.092296034, 0.361296, -0.49132833, 0.7650216, 0.05483214, 0.08047867, 0
665, 2981938092, 0.7871392, 0.0925089, 0.36155507, -0.49104854, 1.7940444, -0.4228889, -1.3879995, 0
666, 2981954759, 0.7875044, 0.09284736, 0.36174765, -0.49025688, 0.76359135, 0.6063522, -0.7027912, 0
668, 2981988093, 0.7880211, 0.0934415, 0.36207974, -0.48906702, 0.019387513, 0.08695342, -0.0070905685, 0
669, 2982004760, 0.7885281, 0.09397979, 0.36167035, -0.48844945, 0.5293835, 0.19304462, -0.057743073, 0
670, 2982021427, 0.78931284, 0.09455456, 0.3610681, -0.4875157, 0.5484684, -0.39740217, 0.19552898, 0
672, 2982054761, 0.7908068, 0.09599253, 0.3600797, -0.48554072, 0.57509685, -0.46334022, -0.58291626, 0
673, 2982071428, 0.79138494, 0.0968824, 0.3597949, -0.4846318, 1.324345, -0.57304084, -0.0026903152, 0
674, 2982088095, 0.7921762, 0.09796998, 0.35921198, -0.48355162, 0.526892, 0.09418814, -0.5593958, 0
676, 2982121429, 0.7938976, 0.100275755, 0.35757905, -0.48146176, -1.2856841, -0.94829464, -0.17085266, 0
677, 2982138096, 0.7946605, 0.10162245, 0.3567781, -0.48051426, -0.6869541, -0.25728655, 0.3460455, 0
678, 2982154763, 0.7953069, 0.10342482, 0.3561287, -0.47954074, -0.051944636, -0.93665147, -0.07738209, 0
680, 2982188097, 0.7962122, 0.10665054, 0.35570556, -0.4776423, 1.9932358, -0.21404411, -0.7003746, 0
681, 2982204764, 0.79661715, 0.10804289, 0.3554657, -0.47683212, 0.42444775, -0.8540185, 0.6804619, 0
682, 2982221431, 0.7967192, 0.109318994, 0.35528684, -0.47650406, -1.9691458, -1.6969861, 1.3752985, 0
684, 2982254765, 0.7962107, 0.11308353, 0.35677543, -0.47536153, -0.7048072, -2.071219, -0.58057404, 0
685, 2982271432, 0.7956913, 0.115254775, 0.3584079, -0.47448114, 1.0337219, -2.0575378, 0.26871204, 0
688, 2982321433, 0.79317564, 0.11953187, 0.36328614, -0.47392452, -1.0351479, -0.86989826, 0.21314049, 0
689, 2982338100, 0.7922778, 0.119103946, 0.36357152, -0.47531325, -2.0146306, -2.2403276, 0.91370296, 0
691, 2982371434, 0.7901189, 0.117961586, 0.36535478, -0.47781798, 0.56380785, -0.70985603, 0.2100277, 0
692, 2982388101, 0.7887947, 0.11796817, 0.3675462, -0.47832316, 1.3748202, -1.2758535, -0.120121956, 0
693, 2982404768, 0.786643, 0.11853307, 0.37169507, -0.478521, 1.2103077, -0.48162985, 0.39570522, 0
695, 2982438102, 0.78300893, 0.12025115, 0.37854108, -0.47868586, -0.17991206, -2.8588133, -0.8804331, 0
696, 2982454769, 0.7829877, 0.11995432, 0.37820563, -0.47905988, 0.4395246, -3.8757348, -2.0437555, 0
697, 2982471436, 0.78478056, 0.118845336, 0.374168, -0.4795731, 0.21833482, -1.9238716, 0.09440327, 0
699, 2982504770, 0.78736436, 0.117580585, 0.36865616, -0.47991854, 3.3698614, -1.1235301, 2.8335629, 0
700, 2982521437, 0.7866696, 0.11930936, 0.37150472, -0.47843218, 2.6487317, 1.0939717, 3.8744154, 0
703, 2982571438, 0.78465635, 0.12339174, 0.38202986, -0.47237587, 0.30370528, 1.0909585, -4.342291, 0
704, 2982588105, 0.7860847, 0.12204484, 0.379853, -0.4721064, -0.6108732, 3.779376, -1.6259937, 0
705, 2982604772, 0.7882293, 0.12042376, 0.3756791, -0.47228643, 0.19590911, 3.1825106, 0.91976166, 0
707, 2982638106, 0.7916057, 0.11836433, 0.37021142, -0.471477, -1.3146502, 3.1472268, 0.057353973, 0
708, 2982654773, 0.7928553, 0.117149286, 0.3684638, -0.47104937, -0.37142065, 0.97022974, -0.5721102, 0
709, 2982671440, 0.7942303, 0.11517625, 0.36625755, -0.4709404, 0.93199337, -1.4416455, -2.9172087, 0
711, 2982704774, 0.7951485, 0.109878436, 0.3643192, -0.47215897, 1.302129, -1.3722178, 0.477664, 0
712, 2982721441, 0.79510057, 0.10759662, 0.36386263, -0.4731159, -1.0846654, -6.6360994E-4, 2.1093025, 0
714, 2982754775, 0.7946448, 0.10558216, 0.36337054, -0.47471124, -2.8872013, 1.2765138, 2.5645323, 0
715, 2982771442, 0.79459304, 0.10535281, 0.3627033, -0.4753584, -1.6757191, 1.273979, 1.1528978, 0
718, 2982821443, 0.7950722, 0.1056391, 0.3590754, -0.47724447, -1.3636184, 2.821613, -1.8369184, 0
719, 2982838110, 0.794981, 0.10545126, 0.3581082, -0.47816402, -1.2582682, 1.5811375, -0.2753439, 0
720, 2982854777, 0.7947681, 0.10526509, 0.35753608, -0.4789861, -1.4454051, 2.037908, 1.4274597, 0
722, 2982888111, 0.7937862, 0.10473444, 0.35824773, -0.48019725, -0.17807746, 2.733008, -0.77461433, 0
723, 2982904778, 0.7936225, 0.10411555, 0.35789818, -0.48086268, 0.19215678, -0.07514394, 0.67567253, 0
724, 2982921445, 0.7933666, 0.10365122, 0.35774192, -0.48150137, -0.20050944, 0.009708118, -1.4137449, 0
726, 2982954779, 0.7932464, 0.10312701, 0.3570041, -0.48235863, 0.12254433, 0.89818853, -0.5779915, 0
727, 2982971446, 0.79324865, 0.1028902, 0.35648993, -0.4827856, -1.0994886, 2.433435, 0.5560112, 0
728, 2982988113, 0.79293543, 0.10216331, 0.35619384, -0.4836723, -0.2031525, -0.01852995, 0.9830761, 0
730, 2983021447, 0.79163164, 0.09994341, 0.35690102, -0.4857462, -0.2500111, 1.0995092, 0.027956963, 0
732, 2983054781, 0.7893884, 0.09669879, 0.3587804, -0.48866016, -0.5356325, 0.69949055, 0.041166306, 0
734, 2983088115, 0.78704756, 0.09320545, 0.36182043, -0.49086803, -0.8220811, 1.1898148, -1.4433203, 0
735, 2983104782, 0.78624314, 0.09200277, 0.36290762, -0.49158126, -0.26590353, 1.0169182, -0.79479885, 0
736, 2983121449, 0.7857671, 0.09111731, 0.36332712, -0.49219707, 0.17201379, 0.50098896, 0.09580517, 0
738, 2983154783, 0.78489846, 0.08948054, 0.36415148, -0.493273, 0.13611381, -0.21556969, 0.17026138, 0
739, 2983171450, 0.78439265, 0.088527724, 0.3649733, -0.49364167, 0.65263927, 0.49170202, -0.48295212, 0
740, 2983188117, 0.7839501, 0.08780556, 0.36593223, -0.49376383, 1.3205228, 0.085776895, -0.2489233, 0
742, 2983221451, 0.7833563, 0.086396635, 0.36772987, -0.49361953, 0.7679116, 0.31064552, -0.08799267, 0
743, 2983238118, 0.78359747, 0.086513266, 0.3681549, -0.4928988, 0.56708056, 0.26177335, -0.05163288, 0
745, 2983271452, 0.78424615, 0.086846784, 0.36884165, -0.4912925, 0.2702475, 0.0050492138, 0.49037838, 0
746, 2983288119, 0.7843874, 0.08671087, 0.36929458, -0.49075055, 1.2669952, -0.74668473, -0.022509575, 0
747, 2983304786, 0.7847287, 0.086641535, 0.36963156, -0.48996273, 1.5467867, -0.40740153, -0.8512554, 0
749, 2983338120, 0.785724, 0.0871717, 0.3702702, -0.48778665, -0.1944279, -0.73739934, -0.25271225, 0
750, 2983354787, 0.7864362, 0.08799859, 0.3701739, -0.48656192, 0.023913205, -0.050379373, 0.29622364, 0
751, 2983371454, 0.7877037, 0.089105405, 0.3690859, -0.48513448, 1.100046, -0.42699456, 0.28681183, 0
753, 2983404788, 0.79034424, 0.091548, 0.36705178, -0.4819175, 0.37107217, 0.010301991, 0.5757742, 0
754, 2983421455, 0.79152703, 0.09296088, 0.36608166, -0.48044172, 0.6872118, 0.015741067, -0.3253994, 0
755, 2983438122, 0.7926063, 0.094757766, 0.3653656, -0.47885412, 0.20774613, 0.8839885, 0.032216072, 0
757, 2983471456, 0.7949333, 0.09796081, 0.36317685, -0.4760085, -0.07460415, -1.1466435, -0.66012955, 0
759, 2983504790, 0.79692745, 0.10116897, 0.36103153, -0.4736293, -0.47894982, -0.54747194, 0.42863178, 0
761, 2983538124, 0.7980738, 0.10454613, 0.35990185, -0.47182176, -0.15682586, 0.3524046, -1.0140705, 0
762, 2983554791, 0.7988667, 0.105385795, 0.35825774, -0.47154427, -0.9831302, -0.7554615, 2.017147, 0
763, 2983571458, 0.798749, 0.10677789, 0.3585309, -0.47122282, 0.22751048, -1.467243, -2.2476835, 0
765, 2983604792, 0.7984862, 0.10880554, 0.35822603, -0.47143632, -0.36896512, -2.1351576, 0.117259026, 0
766, 2983621459, 0.79793096, 0.10948002, 0.35841876, -0.4720733, -0.74461955, -0.57075226, -0.27565956, 0
767, 2983638126, 0.7972966, 0.10997826, 0.3585704, -0.47291338, -0.48133135, -1.8248101, -0.035365105, 0
769, 2983671460, 0.7957513, 0.11099187, 0.35920662, -0.47479284, -0.4985291, -0.6862348, -0.17864895, 0
770, 2983688127, 0.7947895, 0.11132953, 0.359755, -0.47590822, 0.12680449, -0.29965934, 0.043600082, 0
772, 2983721461, 0.7927018, 0.11145593, 0.36148039, -0.47804874, -0.15547383, -0.75007325, 0.38529396, 0
774, 2983754795, 0.7896787, 0.110277295, 0.36517018, -0.48051456, 0.6476346, -1.2952108, -0.8856716, 0
776, 2983788129, 0.78723407, 0.109573625, 0.36819872, -0.48237196, 0.077635884, -1.8026466, 0.7037144, 0
777, 2983804796, 0.7862668, 0.10933745, 0.36945552, -0.4830417, 0.56526047, -1.3478688, -0.38791847, 0
778, 2983821463, 0.78527176, 0.10977484, 0.37146172, -0.48302266, 2.0487993, 0.27353567, 0.0119524, 0
780, 2983854797, 0.78389347, 0.11195792, 0.3756572, -0.48151326, 1.2642357, -2.8180103, -0.109583855, 0
781, 2983871464, 0.7825623, 0.114030495, 0.37941042, -0.4802477, 2.035698, -3.2742476, -1.5481024, 0
782, 2983888131, 0.78352314, 0.1150476, 0.37845623, -0.4791905, 0.26700702, -0.42368075, 1.9995003, 0
784, 2983921465, 0.787813, 0.11404416, 0.37207383, -0.4773914, 1.8552078, -0.52909136, 0.055944443, 0
785, 2983938132, 0.7906399, 0.11337087, 0.3671641, -0.47667924, 2.217018, -0.42348486, 1.6646404, 0
786, 2983954799, 0.7917346, 0.11370112, 0.36614817, -0.47556385, 1.2706152, 0.50527126, 2.718176, 0
789, 2984004800, 0.7839653, 0.123700395, 0.39022768, -0.46670738, 1.4790224, -0.65567183, -2.458611, 0
790, 2984021467, 0.7812333, 0.12723397, 0.39851955, -0.46331957, 0.17836691, -1.2427319, -0.22562218, 0
792, 2984054801, 0.77737075, 0.13144422, 0.40990382, -0.45868585, -1.6815195, 0.8067918, 2.8558054, 0
793, 2984071468, 0.7773713, 0.1314827, 0.4106332, -0.45802096, -0.9334558, 0.78997314, 2.6213713, 0
794, 2984088135, 0.7777902, 0.13159679, 0.41045132, -0.4574398, -1.1959363, 3.0044873, -3.529745, 0
796, 2984121469, 0.7823791, 0.12731554, 0.39949197, -0.46051776, -1.7195791, 0.46257734, -2.5011535, 0
797, 2984138136, 0.7856104, 0.12372509, 0.39116034, -0.4631403, -1.4706602, -0.124073215, -0.5070715, 0
799, 2984171470, 0.79149956, 0.11665806, 0.37592995, -0.46753907, 1.601697, 2.5762534, -0.7918091, 0
800, 2984188137, 0.79352665, 0.11357548, 0.37008795, -0.4695187, 2.4413967, 0.15738676, 1.2100706, 0
801, 2984204804, 0.7943618, 0.111322425, 0.36715105, -0.4709496, 0.045882292, -0.49121374, -0.028188705, 0
804, 2984254805, 0.7938499, 0.10638526, 0.3638064, -0.47552732, -1.8284388, 0.77533144, 0.23770046, 0
805, 2984271472, 0.79383117, 0.1050536, 0.362146, -0.47711957, -1.4257954, 0.7265698, 1.6387119, 0
807, 2984304806, 0.79382133, 0.103367426, 0.35921237, -0.47971487, 0.19143863, 2.473646, 0.7812691, 0
808, 2984321473, 0.7937395, 0.10272945, 0.3582171, -0.48073024, -0.30710053, 3.1122894, -0.43978214, 0
809, 2984338140, 0.79323214, 0.10178982, 0.35783958, -0.48204684, -0.85142654, 2.6060562, -0.06882763, 0
811, 2984371474, 0.79233843, 0.10023813, 0.3580288, -0.48369864, -0.6473114, 3.764867, -0.2691841, 0
812, 2984388141, 0.7924638, 0.10009682, 0.35746002, -0.48394322, -1.0329591, 2.0421803, 0.29567242, 0
813, 2984404808, 0.7925638, 0.10030733, 0.35664085, -0.48433992, -1.7162524, 2.0677974, 0.74443054, 0
815, 2984438142, 0.79337347, 0.100257196, 0.35403255, -0.48493797, -0.50118107, 0.98146886, -0.31929588, 0
816, 2984454809, 0.79376274, 0.10056529, 0.35273182, -0.48518515, -0.50174993, 1.8022237, -2.251534, 0
817, 2984471476, 0.793713, 0.10074581, 0.3517386, -0.48594946, -1.7433642, 2.7679021, -1.2228804, 0
819, 2984504810, 0.7930888, 0.10108806, 0.3509181, -0.4874885, -0.6622009, 2.0501914, -0.46930313, 0
820, 2984521477, 0.7926836, 0.101116955, 0.35097778, -0.48809788, -1.1056157, 1.6224946, 0.5660286, 0
821, 2984538144, 0.7920131, 0.100791015, 0.3511913, -0.48909923, -0.91204596, -0.50013584, -0.1030035, 0
823, 2984571478, 0.7899357, 0.09960842, 0.3527739, -0.49155584, -0.19591627, 0.43434608, -0.91796684, 0
824, 2984588145, 0.7890688, 0.098775215, 0.35353222, -0.49257055, -0.39537588, -0.0052709943, 0.90859795, 0
826, 2984621479, 0.7864617, 0.09604962, 0.35677728, -0.49493378, 0.8364103, 0.3969594, -0.015254021, 0
827, 2984638146, 0.7853871, 0.0950687, 0.35839772, -0.4956582, 1.0855048, 0.4354674, -0.93326473, 0
828, 2984654813, 0.784753, 0.0942533, 0.359626, -0.4959285, 0.09233499, 0.66958594, -0.23516083, 0
831, 2984704814, 0.7826705, 0.09198452, 0.36313963, -0.49708354, 1.1372733, -0.28928885, -0.066251755, 0
832, 2984721481, 0.78283054, 0.09199414, 0.36348867, -0.49657452, 1.1885934, -0.42668405, 0.4536276, 0
834, 2984754815, 0.78369653, 0.093870535, 0.36306858, -0.4951629, 0.12760265, 1.0867215, 0.7593403, 0
835, 2984771482, 0.7840344, 0.09496843, 0.36301076, -0.49446064, 0.16728134, 0.76483804, 1.2827845, 0
836, 2984788149, 0.7844587, 0.09584262, 0.36319086, -0.4934855, 1.6727647, -1.3148754, -0.63540936, 0
838, 2984821483, 0.78527534, 0.097127, 0.36363837, -0.49160263, 1.0456295, -1.6417412, -0.52316475, 0
839, 2984838150, 0.78551954, 0.09751219, 0.3636727, -0.4911104, -0.023375878, -1.7997596, -0.93525505, 0
840, 2984854817, 0.78588444, 0.097635254, 0.3636266, -0.4905362, -0.8373768, -0.74549687, 0.25488663, 0
842, 2984888151, 0.7866654, 0.097588904, 0.36377552, -0.48918098, 0.8361483, 0.7112697, -0.6075306, 0
843, 2984904818, 0.78690416, 0.09739385, 0.36385643, -0.48877582, 1.2473956, 0.14035189, -0.22081089, 0
846, 2984954819, 0.7875844, 0.09623951, 0.36486286, -0.4871557, 0.48900163, -0.67720145, -0.01935482, 0
847, 2984971486, 0.78777117, 0.09622213, 0.36501256, -0.486745, -0.43645263, 0.6532249, 0.19754791, 0
848, 2984988153, 0.78813004, 0.096296184, 0.3646383, -0.48642975, 0.42917415, -0.7359191, 0.4494238, 0
850, 2985021487, 0.7895575, 0.09785837, 0.36299947, -0.48502675, -0.34899426, 0.3732216, 0.13294029, 0
851, 2985038154, 0.79025495, 0.098943494, 0.36220533, -0.484264, -0.5291137, 0.7182718, 0.66129494, 0
853, 2985071488, 0.7915039, 0.1020766, 0.3613159, -0.482234, 0.15751383, 1.033307, -0.92209435, 0
854, 2985088155, 0.79206526, 0.10370116, 0.36082068, -0.48133582, -0.6053976, 0.3237689, 0.42542553, 0
855, 2985104822, 0.792473, 0.104907826, 0.36028832, -0.48080143, -0.42134717, -0.7904807, -0.8741646, 0
857, 2985138156, 0.79321736, 0.10794402, 0.36000106, -0.47911417, -0.28075284, 0.568746, 0.75534916, 0
858, 2985154823, 0.79365945, 0.10899043, 0.35926598, -0.47869664, -0.8666594, -0.5943481, 0.28138065, 0
861, 2985204824, 0.7936785, 0.11200841, 0.3591973, -0.47801957, 0.65360487, -0.62356436, -0.775527, 0
862, 2985221491, 0.7935379, 0.11240984, 0.3591332, -0.4782068, -0.2557261, -0.542478, 0.47017288, 0
863, 2985238158, 0.7932204, 0.11247455, 0.35892227, -0.47887644, -0.27610222, -1.3990806, -0.16994953, 0
865, 2985271492, 0.7925278, 0.113003165, 0.35903803, -0.47981083, 0.2978127, -1.6106645, 0.20537567, 0
866, 2985288159, 0.7922691, 0.11334418, 0.35910395, -0.48010838, 0.34245783, -0.86630064, -0.85836506, 0
867, 2985304826, 0.79176456, 0.113606356, 0.35937715, -0.48067406, 0.12473722, -0.037183784, -0.16198921, 0
869, 2985338160, 0.7907944, 0.1134499, 0.35979393, -0.4819943, 0.15429054, -0.0061602406, 0.6450939, 0
870, 2985354827, 0.7901226, 0.11318285, 0.36067256, -0.4825018, 0.20872824, -1.4365897, -0.21993351, 0
871, 2985371494, 0.78938335, 0.11334504, 0.36170766, -0.48289895, 0.69133943, -0.94413203, -1.0763407, 0
873, 2985404828, 0.7886326, 0.11298752, 0.36201242, -0.4839796, 0.65018624, -1.2095965, -0.11645317, 0
875, 2985438162, 0.7885903, 0.11257949, 0.36111948, -0.48481008, -0.120149165, -0.9617608, 0.25230598, 0
877, 2985471496, 0.78811663, 0.112763554, 0.36201665, -0.48486844, 1.9276682, -0.583597, -0.10482025, 0
878, 2985488163, 0.78821886, 0.11302812, 0.36202988, -0.48463082, 1.7149482, -1.2415857, -0.19664383, 0
880, 2985521497, 0.7884743, 0.11360377, 0.36172387, -0.4843088, -0.473364, -1.0581459, 1.1383142, 0
881, 2985538164, 0.7889303, 0.114082925, 0.36113015, -0.48389667, -1.0702413, -0.7169373, 0.14445019, 0
882, 2985554831, 0.7889928, 0.114918604, 0.3618712, -0.48304263, 0.8036093, -0.09340193, 0.8578739, 0
884, 2985588165, 0.78940153, 0.11691792, 0.36336383, -0.4807692, 2.9085555, -2.1368544, -3.4363341, 0
885, 2985604832, 0.79044837, 0.11688639, 0.3621355, -0.4799832, 1.0567963, -0.38092637, -0.08061409, 0
886, 2985621499, 0.7925416, 0.11493902, 0.357749, -0.48029083, 0.3329335, -4.023006, -0.78514576, 0
888, 2985654833, 0.7939518, 0.114202194, 0.35525385, -0.4799896, 1.0248771, 0.3499377, 3.6173086, 0
889, 2985671500, 0.7943396, 0.11475952, 0.35544583, -0.47907215, 2.8403873, -0.43871066, 2.2628918, 0
890, 2985688167, 0.79406327, 0.1171669, 0.3580243, -0.47702324, 2.800772, 0.60612184, -1.3545341, 0
892, 2985721501, 0.7936768, 0.12102125, 0.36167943, -0.47393662, -2.6863346, 0.4463679, 0.33338165, 0
893, 2985738168, 0.7955687, 0.11984757, 0.35759464, -0.47416234, -2.849391, -0.47501147, 0.25847435, 0
894, 2985754835, 0.79699713, 0.11817728, 0.35404557, -0.47484562, -1.4762843, 2.9625168, -1.8588362, 0
896, 2985788169, 0.79817146, 0.11453892, 0.3500378, -0.47673216, -0.41411096, 3.7694726, -1.4261522, 0
897, 2985804836, 0.7981538, 0.112937495, 0.3491441, -0.47779778, -1.9219835, 2.273743, -0.39783478, 0
898, 2985821503, 0.7976395, 0.11069915, 0.3488973, -0.47935838, -1.810992, -0.36717552, -1.6369, 0
900, 2985854837, 0.7953345, 0.10695437, 0.35112736, -0.48240033, 0.21071371, -0.9489471, 0.5236664, 0
902, 2985888171, 0.792649, 0.10189095, 0.35413927, -0.4857038, -1.6453735, -0.49632, 3.1093397, 0
904, 2985921505, 0.79064703, 0.09790359, 0.35594508, -0.4884588, 0.19233379, 2.3978794, 0.83505535, 0
905, 2985938172, 0.7901976, 0.09676798, 0.35562003, -0.48964772, 0.81540275, 2.274536, -0.11953163, 0
907, 2985971506, 0.7897901, 0.0951489, 0.35419968, -0.4916481, -0.31600484, 1.7613069, -0.55988026, 0
908, 2985988173, 0.78958625, 0.094368465, 0.35344586, -0.49266753, -1.3647254, 2.5671213, -0.8850374, 0
909, 2986004840, 0.7893521, 0.09360251, 0.35272667, -0.49370295, -1.8868682, 2.223017, -0.8363466, 0
911, 2986038174, 0.78898317, 0.09266244, 0.3518789, -0.4950731, -0.6844948, 2.5703683, -0.2222662, 0
912, 2986054841, 0.78891385, 0.09271141, 0.35155985, -0.4954011, -0.52960324, 2.4769409, -0.7570133, 0
913, 2986071508, 0.78886276, 0.0929301, 0.35133916, -0.49559787, -0.521616, 1.8472803, -0.82648087, 0
915, 2986104842, 0.7881397, 0.09276411, 0.35129964, -0.4968057, -1.3422966, 1.1194278, 0.19619274, 0
917, 2986138176, 0.78623646, 0.09162604, 0.35277963, -0.4989793, -1.1674451, 1.7324702, -0.32355213, 0
919, 2986171510, 0.78320736, 0.08886574, 0.35671976, -0.50143504, 0.13604519, 0.41400868, 1.308567, 0
920, 2986188177, 0.7812222, 0.08680919, 0.35984588, -0.50265664, 0.56746966, 0.9024945, 0.60027885, 0
921, 2986204844, 0.7797063, 0.08532189, 0.36214113, -0.50361586, 0.8251537, 0.79545563, -0.108343124, 0
923, 2986238178, 0.7781853, 0.08330111, 0.3646306, -0.50450945, -0.5162738, 1.2004396, 0.3413229, 0
924, 2986254845, 0.7775307, 0.082101606, 0.3656248, -0.5049958, 0.48777747, 0.38139793, 0.89356995, 0
925, 2986271512, 0.77700764, 0.080886, 0.36669427, -0.50522155, 0.6746636, 1.2462742, 0.08374214, 0
927, 2986304846, 0.77576554, 0.07769622, 0.37024128, -0.50504416, 1.1873395, 1.0138131, -0.47688675, 0
928, 2986321513, 0.774976, 0.076073416, 0.372396, -0.5049189, 1.0811268, 0.77228916, -0.31848526, 0
929, 2986338180, 0.7746636, 0.074914314, 0.37405887, -0.5043421, 1.0768689, 0.9141059, -0.32208633, 0
932, 2986388181, 0.77697885, 0.075283654, 0.37551022, -0.49962527, 1.0337168, 0.29895216, -0.47212315, 0
934, 2986421515, 0.7794284, 0.076181896, 0.3749879, -0.49605316, 1.9549665, 0.17617665, -0.41658688, 0
935, 2986438182, 0.7810782, 0.07654511, 0.37451002, -0.49375793, 1.9801599, -0.64148664, -0.5033941, 0
936, 2986454849, 0.7826873, 0.07730789, 0.37403232, -0.49144757, 1.4111717, -0.861714, -0.6721554, 0
938, 2986488183, 0.78617615, 0.07971848, 0.3722388, -0.4868338, 0.30429277, -0.85825455, 1.041791, 0
939, 2986504850, 0.788286, 0.081112705, 0.37081233, -0.48427376, -0.20772356, -0.8306081, 0.9600401, 0
940, 2986521517, 0.790159, 0.082463555, 0.3694522, -0.48202753, 0.38721564, -1.041348, 0.39482212, 0
942, 2986554851, 0.79314417, 0.08537746, 0.36761412, -0.47800627, 0.567083, 0.8368295, -0.18614292, 0
943, 2986571518, 0.79457796, 0.08673763, 0.3665796, -0.47617093, -0.40398937, -0.6620178, 0.27097034, 0
944, 2986588185, 0.7956674, 0.088090874, 0.36591184, -0.4746146, -1.4284236, -0.6104291, 0.43079948, 0
947, 2986638186, 0.7977293, 0.09134849, 0.364907, -0.4712994, 0.18446681, -0.18992929, -0.81381226, 0
948, 2986654853, 0.79810804, 0.09229142, 0.36486325, -0.47050777, -0.58548886, 0.24712509, 0.09275913, 0
950, 2986688187, 0.7979421, 0.093516566, 0.36568424, -0.46990958, 0.39982155, -0.24841756, -1.5833826, 0
951, 2986704854, 0.7976993, 0.09427794, 0.36688116, -0.46923646, 0.33640534, 0.46548674, -0.35536957, 0
952, 2986721521, 0.7975137, 0.094400935, 0.36753896, -0.46901214, -0.11044289, -0.8337376, 0.6879444, 0
954, 2986754855, 0.7963251, 0.093132414, 0.36985064, -0.46946806, 0.6917545, -0.037700713, -0.20063686, 0
955, 2986771522, 0.7961484, 0.093191266, 0.37074384, -0.46905145, 0.9337698, 1.0922996, -0.58379364, 0
956, 2986788189, 0.79635173, 0.09365095, 0.37095466, -0.46844733, -0.37449417, 0.743675, 0.3441944, 0
958, 2986821523, 0.796586, 0.094928995, 0.37084466, -0.46787873, 0.13437577, 0.8433839, 0.28458214, 0
959, 2986838190, 0.7972281, 0.09569539, 0.37017447, -0.467159, 1.2748269, -0.6057367, 0.46446037, 0
961, 2986871524, 0.798533, 0.09786638, 0.36930242, -0.46516642, 0.5309159, -0.41559452, -0.24872589, 0
962, 2986888191, 0.7991734, 0.09939991, 0.36878198, -0.46415332, 0.23317297, -0.18529056, -0.2600565, 0
963, 2986904858, 0.7999563, 0.1014315, 0.36832687, -0.46272436, -0.41174418, 0.90662396, 0.32036114, 0
965, 2986938192, 0.8013112, 0.10629878, 0.36842552, -0.45919532, -0.02182917, -1.1503817, -0.7609844, 0
966, 2986954859, 0.8017442, 0.10932522, 0.36878714, -0.4574353, 0.14125907, 0.09571255, 0.76246643, 0
967, 2986971526, 0.8024311, 0.11172819, 0.36773476, -0.45649657, 0.6466648, -3.246977, 1.2066793, 0
969, 2987004860, 0.8016849, 0.117929585, 0.36989346, -0.45449963, 0.09396909, -0.67423487, -0.85939217, 0
970, 2987021527, 0.80028266, 0.12127598, 0.37289178, -0.4536392, -0.68610924, 0.0891848, -1.4904766, 0
971, 2987038194, 0.7983122, 0.124412775, 0.37643698, -0.45333362, -2.9727478, 1.966163, 1.5262814, 0
974, 2987088195, 0.7910179, 0.13175385, 0.38662845, -0.45546344, -0.163567, -3.0390782, -0.91431713, 0
975, 2987104862, 0.7884474, 0.13334791, 0.3897438, -0.45679963, -0.27073947, -0.9554383, -0.08220768, 0
977, 2987138196, 0.7843126, 0.13396545, 0.39172176, -0.4620151, -2.0153074, 0.08312201, 1.3216753, 0
978, 2987154863, 0.7819898, 0.13372299, 0.39300507, -0.46492386, -1.9228549, -0.7951081, 0.024460793, 0
979, 2987171530, 0.7789216, 0.13468944, 0.3966328, -0.46671095, -0.8760521, -1.405497, 0.12854385, 0
981, 2987204864, 0.7723313, 0.13793449, 0.40548342, -0.46910402, 2.7292004, -2.526148, -3.122836, 0
982, 2987221531, 0.769255, 0.13881424, 0.40910697, -0.4707503, -0.056532014, -1.315672, -1.4039373, 0
983, 2987238198, 0.7682782, 0.13611044, 0.40825096, -0.4738678, -1.4841063, -1.5276514, 1.7825766, 0
985, 2987271532, 0.7669945, 0.12903504, 0.40685928, -0.4790951, 1.9539092, 0.67317, 1.878089, 0
986, 2987288199, 0.7677124, 0.12623377, 0.40471426, -0.48050585, 3.6131, -2.4462023, 0.21441269, 0
989, 2987338200, 0.775493, 0.11816015, 0.38732994, -0.48437726, 1.4490296, -1.5597824, 1.6121492, 0
990, 2987354867, 0.78052735, 0.1154585, 0.3776518, -0.48458478, 3.0858405, -2.4064252, 2.0452642, 0
992, 2987388201, 0.7831817, 0.11735123, 0.37690356, -0.48041186, 2.8451524, 2.9623759, 5.1451044, 0
993, 2987404868, 0.7837407, 0.11925019, 0.37788913, -0.47825378, 0.1978112, 2.794211, -3.9232001, 0
994, 2987421535, 0.78589267, 0.11886976, 0.37438464, -0.47757307, -2.5435424, 3.4523306, -4.969493, 0
996, 2987454869, 0.79189396, 0.112384506, 0.36066943, -0.47977936, -2.9437597, 4.4935236, -0.47208977, 0
997, 2987471536, 0.7925777, 0.109561406, 0.3584111, -0.48099405, -0.238569, 5.820119, 2.3455992, 0
998, 2987488203, 0.7922651, 0.107922725, 0.35872903, -0.481642, -0.80704963, 8.247466, 1.6378222, 0
1000, 2987521537, 0.79069537, 0.10634169, 0.36121055, -0.48271754, -2.3003895, 0.54016274, -1.161766, 0
1001, 2987538204, 0.79005194, 0.10577329, 0.36215344, -0.48318896, -2.9007058, -0.97864723, -2.0553784, 0
1004, 2987588205, 0.78977776, 0.10424089, 0.36067268, -0.48507428, 0.26622114, 1.248912, 2.1490507, 0
1005, 2987604872, 0.7896204, 0.10395879, 0.36037785, -0.48561007, 1.302948, 2.5933738, 0.5711765, 0
1006, 2987621539, 0.7893259, 0.103670105, 0.36037716, -0.48615038, 1.0159144, 1.3693707, -0.019990921, 0
1008, 2987654873, 0.78794897, 0.10282797, 0.36179224, -0.48751014, -1.7454238, 1.1099404, -0.32566166, 0
1009, 2987671540, 0.78734183, 0.10171445, 0.36205608, -0.48852786, -1.2742362, -0.102197, -0.45692825, 0
1010, 2987688207, 0.7868082, 0.10107459, 0.36233282, -0.48931444, -1.5875236, 2.9073038, -0.5452318, 0
1012, 2987721541, 0.7863842, 0.09926153, 0.3611816, -0.49121454, -1.1617844, 1.2614574, 1.1878052, 0
1013, 2987738208, 0.78588015, 0.09890016, 0.3612789, -0.4920217, -0.97454107, 2.296701, -1.636714, 0
1015, 2987771542, 0.7847283, 0.098663524, 0.36218002, -0.4932437, -0.9847442, 1.8971033, -2.2920704, 0
1016, 2987788209, 0.7839356, 0.09786469, 0.3626578, -0.4943113, -0.44118595, 0.21910791, 0.27688408, 0
1019, 2987838210, 0.7809956, 0.093664095, 0.36623052, -0.4971369, 1.0512576, -0.42036998, 0.097556114, 0
1020, 2987854877, 0.7801896, 0.0922488, 0.36730716, -0.49787217, 0.7514043, 0.34954542, -0.32585335, 0
1021, 2987871544, 0.7795694, 0.0915536, 0.36800364, -0.49845746, 0.30728585, 0.075012624, -0.36507416, 0
1023, 2987904878, 0.7789553, 0.09041578, 0.36885917, -0.49899262, -0.11599294, -0.28653932, 0.6433315, 0
1024, 2987921545, 0.7788813, 0.089640744, 0.36916488, -0.49902168, 0.8419067, 0.024712486, 0.16378689, 0
1025, 2987938212, 0.7788032, 0.08894954, 0.36955145, -0.49898106, 2.162368, 0.48705065, -1.1501265, 0
1027, 2987971546, 0.77931315, 0.08798135, 0.3694791, -0.49840966, 0.8168149, -0.91800976, 0.13323212, 0
1028, 2987988213, 0.7802497, 0.08804227, 0.368482, -0.49767122, 0.023712937, -0.9030625, -0.579031, 0
1029, 2988004880, 0.7812992, 0.08884027, 0.36737236, -0.4967027, -0.49256468, 1.0869476, 0.0475502, 0
1031, 2988038214, 0.783403, 0.09049314, 0.36533317, -0.49459022, 0.1477177, 2.17106, 0.46437454, 0
1032, 2988054881, 0.78440386, 0.09117424, 0.36473098, -0.49332166, 1.3913964, 1.328532, -0.013792992, 0
1033, 2988071548, 0.78523284, 0.091771975, 0.364439, -0.49210626, 1.4189771, -0.14817043, -1.2980566, 0
1035, 2988104882, 0.78628844, 0.09321768, 0.3643872, -0.49018335, -1.1024283, -0.9391965, 0.4292717, 0
1036, 2988121549, 0.7869228, 0.09382586, 0.36416113, -0.4892164, -0.56773186, -0.35996908, -0.46043873, 0
1037, 2988138216, 0.7875506, 0.09448631, 0.3640658, -0.48814896, 0.028333843, 1.0946729, 0.75337505, 0
1039, 2988171550, 0.7884654, 0.09554927, 0.36409792, -0.4864385, 0.9203068, 0.38636076, -0.8949852, 0
1040, 2988188217, 0.7887737, 0.09614348, 0.36444104, -0.48556364, 0.43088156, -0.30384597, 1.0216303, 0
1042, 2988221551, 0.7894575, 0.09671742, 0.36484185, -0.48403487, 0.17295969, -0.16635516, -0.7459774, 0
1043, 2988238218, 0.7895619, 0.09722412, 0.36553538, -0.48323914, 0.62847996, 0.38892412, -0.1121254, 0
1046, 2988288219, 0.78995, 0.09828745, 0.36649182, -0.48166317, 0.048437938, -0.39858887, 0.28292274, 0
1047, 2988304886, 0.78996503, 0.09873997, 0.36698514, -0.48117, 0.22217433, 0.5039163, -0.59495354, 0
1048, 2988321553, 0.7900251, 0.09912453, 0.367411, -0.48066676, -0.22299552, -0.09643036, 0.24326801, 0
1050, 2988354887, 0.7896719, 0.09961303, 0.36812377, -0.48060122, 0.40905797, -0.19566715, -0.85829544, 0
1051, 2988371554, 0.78962964, 0.09973409, 0.36811098, -0.48065498, -0.11962167, -0.45224985, 0.24529552, 0
1052, 2988388221, 0.7896621, 0.09992582, 0.36805153, -0.4806073, 0.0596565, -0.9175079, -0.69318676, 0
1054, 2988421555, 0.7894931, 0.10048164, 0.36802348, -0.48079073, 0.082626484, 0.26472583, 0.26351452, 0
1055, 2988438222, 0.789583, 0.10084907, 0.36773407, -0.4807875, 0.2857888, -0.06504702, -0.14809322, 0
1056, 2988454889, 0.7898647, 0.10138485, 0.36733547, -0.4805169, -0.19825152, 0.09712895, 0.20661831, 0
1058, 2988488223, 0.7900379, 0.10232526, 0.3669031, -0.48036298, 0.1963767, 0.3816006, 0.21819878, 0
1060, 2988521557, 0.7904562, 0.102971725, 0.36578783, -0.48038733, -0.2421526, 0.19437777, -0.19528484, 0
1062, 2988554891, 0.79012024, 0.10354423, 0.36601204, -0.48064595, 0.69421446, -0.61212635, -0.7822809, 0
1063, 2988571558, 0.7899394, 0.10382019, 0.3662128, -0.4807307, 0.18697284, 0.054246258, -0.18387413, 0
1064, 2988588225, 0.7898983, 0.10398922, 0.36611572, -0.48083586, 0.02810005, -0.61716557, 0.3419094, 0
1066, 2988621559, 0.7895864, 0.104590826, 0.36624992, -0.4811153, -0.13191131, -0.3913699, -0.2944517, 0
1067, 2988638226, 0.7895339, 0.104918994, 0.36638305, -0.48102862, 0.24260186, -0.54214144, 0.011884689, 0
1069, 2988671560, 0.7895529, 0.10572322, 0.36649337, -0.48073718, 0.46149233, -1.0851231, 0.41288185, 0
1070, 2988688227, 0.7892338, 0.10618257, 0.36707234, -0.48071828, 1.0493612, -0.43187687, -0.7243118, 0
1071, 2988704894, 0.7889919, 0.106971875, 0.36766303, -0.4804892, 0.3583554, -0.54226863, 0.24047661, 0
1073, 2988738228, 0.7892626, 0.10766412, 0.3663187, -0.48091638, -0.38968903, -1.5035118, -1.5961971, 0
1075, 2988771562, 0.78950405, 0.1073903, 0.36450705, -0.48195666, 1.4333506, -0.69130594, -0.10671234, 0
1077, 2988804896, 0.78880197, 0.10691865, 0.36455482, -0.4831733, 0.92788696, -0.5603327, -0.15739727, 0
1078, 2988821563, 0.78815496, 0.10697619, 0.36557987, -0.4834419, 0.6136056, 0.31394953, -0.0057058334, 0
1079, 2988838230, 0.7878514, 0.1059611, 0.36591446, -0.48390698, -0.56093395, -2.4295483, -0.3727131, 0
1081, 2988871564, 0.7868272, 0.10289504, 0.36752826, -0.48501086, 0.7002643, 0.26680222, 0.9677563, 0
1082, 2988888231, 0.7865229, 0.10127444, 0.3679514, -0.48552424, 2.285585, -1.2224914, -0.14957142, 0
1083, 2988904898, 0.78621, 0.09978883, 0.36872336, -0.4857531, 2.3162534, -0.8748681, 0.13989925, 0
1085, 2988938232, 0.7863016, 0.097512946, 0.36906016, -0.485811, 0.7935287, -0.14154768, -1.0646114, 0
1086, 2988954899, 0.7871825, 0.09636182, 0.36771798, -0.48563218, 0.3393595, -1.9581393, 0.22512054, 0
1087, 2988971566, 0.78781396, 0.0956192, 0.36698848, -0.48530668, 0.19515364, -1.5802413, 0.83558464, 0
1090, 2989021567, 0.79090667, 0.09583488, 0.3661741, -0.48082834, 1.4417322, 1.3849711, -2.650576, 0
1091, 2989038234, 0.79250735, 0.09542459, 0.36450168, -0.4795431, 0.46909425, -0.8489202, -1.4724092, 0
1093, 2989071568, 0.7964839, 0.09526705, 0.35929197, -0.4769108, -2.8926964, 3.7043283, 3.4272404, 0
1094, 2989088235, 0.79802716, 0.0953742, 0.35729384, -0.47580978, -2.279782, 7.4117875, 1.8672113, 0
1096, 2989121569, 0.79918104, 0.09433108, 0.35526443, -0.47560018, 0.009401513, 3.549673, -3.7036772, 0
1097, 2989138236, 0.7986883, 0.09356267, 0.35610467, -0.47595146, -0.60549223, 2.479484, -3.3939805, 0
1098, 2989154903, 0.79770076, 0.092304595, 0.35760975, -0.47672382, -1.7066662, 0.38398755, -1.0725632, 0
1100, 2989188237, 0.79422045, 0.08913699, 0.3631496, -0.4789446, -1.2034557, 1.6170411, 2.9832373, 0
1101, 2989204904, 0.7930913, 0.08802324, 0.36483487, -0.47973973, 0.6913135, -0.26370183, 0.25520706, 0
1102, 2989221571, 0.7921874, 0.08788758, 0.36640716, -0.48006007, -1.1511078, 0.9776688, -1.8677206, 0
1104, 2989254905, 0.7917126, 0.08789846, 0.36646193, -0.4807992, 0.77347773, -0.96606034, -0.28718376, 0
1105, 2989271572, 0.7919712, 0.08806643, 0.36594543, -0.4807357, 0.68109, 1.064588, 0.31522465, 0
1106, 2989288239, 0.7924889, 0.08805323, 0.36510918, -0.4805209, 1.7350541, 0.76742685, 0.97887707, 0
1108, 2989321573, 0.79338104, 0.08773649, 0.36328405, -0.4804899, -0.23639244, 0.75489855, 0.5101404, 0
1109, 2989338240, 0.79366374, 0.08776881, 0.36245435, -0.4806437, -0.90336204, 0.892519, -0.73680973, 0
1110, 2989354907, 0.79398596, 0.08818393, 0.36182454, -0.48050997, -1.6142538, 2.2057571, -2.5243073, 0
1112, 2989388241, 0.7949344, 0.08953419, 0.35976434, -0.48023906, -1.9121743, 0.69008195, -0.09508228, 0
1113, 2989404908, 0.79507375, 0.08992006, 0.35877025, -0.4806799, -1.303789, 2.013221, 1.3136559, 0
1114, 2989421575, 0.7950681, 0.09021437, 0.358037, -0.48118055, -0.8670452, 1.6921418, 0.38263798, 0
1117, 2989471576, 0.7932678, 0.09038509, 0.35834005, -0.4838865, -0.58101296, 1.1518946, -0.3021288, 0
1118, 2989488243, 0.79208934, 0.09004066, 0.35927603, -0.48518553, -0.5456398, 0.37131783, 0.06679726, 0
1120, 2989521577, 0.789722, 0.08934155, 0.36168346, -0.48738012, -0.2623376, 0.20234695, -0.20132732, 0
1121, 2989538244, 0.78901976, 0.08923506, 0.36196622, -0.4883259, 0.49099985, -0.6627245, 0.03403282, 0
1123, 2989571578, 0.78811675, 0.089379735, 0.36220026, -0.48958296, 0.37325144, 0.9310292, 0.095892906, 0
1124, 2989588245, 0.7880359, 0.08967955, 0.36223778, -0.48963013, 0.7455684, 1.1201196, 0.25514317, 0
1125, 2989604912, 0.78796357, 0.09003387, 0.3623953, -0.48956513, 0.7546993, 0.61856854, 0.078193665, 0
1127, 2989638246, 0.7879039, 0.09126355, 0.36278287, -0.4891461, 0.6168544, 0.1846454, 0.9038477, 0
1128, 2989654913, 0.788162, 0.09238642, 0.362806, -0.4885023, 0.40482867, -0.39567536, -0.3228922, 0
1129, 2989671580, 0.78848004, 0.0934258, 0.36255035, -0.4879805, 0.10274712, -0.88859963, -0.566823, 0
1132, 2989721581, 0.78909236, 0.09653355, 0.3619923, -0.4867987, -0.22203465, -0.36695486, 0.24374008, 0
1133, 2989738248, 0.78927803, 0.09745982, 0.36188, -0.4863968, 0.40623188, -0.12937489, -0.7905979, 0
1135, 2989771582, 0.7891422, 0.09852116, 0.36254898, -0.48590463, 0.5557089, -0.7642915, 0.64277077, 0
1136, 2989788249, 0.7890294, 0.09882997, 0.36287677, -0.48578033, 0.15405184, -0.7816305, -0.46301842, 0
1137, 2989804916, 0.7887448, 0.09876186, 0.36323532, -0.48598856, -0.5273862, -0.87481964, 0.078502655, 0
1139, 2989838250, 0.7878747, 0.098249674, 0.3648756, -0.48627496, 0.53624356, 1.0397422, 0.3206501, 0
1140, 2989854917, 0.7873842, 0.097311586, 0.36587578, -0.4865066, 0.26686865, -0.8140564, 0.89680386, 0
1141, 2989871584, 0.7862912, 0.096088044, 0.36803535, -0.4868885, 0.5265681, -0.35783693, -0.071847916, 0
1143, 2989904918, 0.78453255, 0.09407532, 0.37212396, -0.48701042, 0.610746, -0.54590315, 0.17003155, 0
1144, 2989921585, 0.78384864, 0.09359652, 0.37414947, -0.48665172, 0.32776588, -0.28904814, -0.6108284, 0
1147, 2989971586, 0.78331137, 0.09345917, 0.3766802, -0.48558986, 0.678778, 0.29627386, 0.48312855, 0
1148, 2989988253, 0.7836534, 0.09319665, 0.37694356, -0.48488396, 0.9147471, -1.0650976, -0.75419617, 0
1150, 2990021587, 0.78417605, 0.0926134, 0.37778515, -0.48349375, 0.9808256, -0.5163915, 0.8015623, 0
1151, 2990038254, 0.7843226, 0.0923565, 0.3786073, -0.48266098, 0.7418891, -1.246247, -1.6677608, 0
1152, 2990054921, 0.7848111, 0.09277475, 0.37895572, -0.48151192, 0.45034888, 0.1724589, 0.8194666, 0
1154, 2990088255, 0.786486, 0.094465956, 0.37747866, -0.479607, -0.0057894327, -0.38160792, -0.34175682, 0
1155, 2990104922, 0.78748554, 0.095689334, 0.37647662, -0.4785105, 0.9830113, -1.1926663, 0.35953045, 0
1156, 2990121589, 0.78869516, 0.09697675, 0.37506452, -0.47736675, 0.44540948, -0.37207487, -0.14051628, 0
1158, 2990154923, 0.7902811, 0.09915388, 0.37319213, -0.47576123, 0.15515554, -0.50989485, 0.20548916, 0
1159, 2990171590, 0.79111516, 0.10010515, 0.37204283, -0.4750757, 0.036774587, 0.3515162, -0.041841507, 0
1162, 2990221591, 0.79255, 0.10161872, 0.36882284, -0.47487348, -0.16314545, 0.15403831, 0.53960323, 0
1163, 2990238258, 0.79300934, 0.101493634, 0.36733982, -0.47528282, 0.63777924, -2.0998375, -0.07354927, 0
1164, 2990254925, 0.7929607, 0.10180543, 0.36692965, -0.47561404, -0.08417073, -0.3586502, -0.74046993, 0
1166, 2990288259, 0.792537, 0.101890594, 0.36623618, -0.47683492, 0.27225778, -1.9534609, -0.5446615, 0
1167, 2990304926, 0.7922193, 0.10188735, 0.3661584, -0.47742304, 0.0856191, -0.96407175, -1.5179167, 0
1168, 2990321593, 0.7920361, 0.101480015, 0.3656783, -0.47818083, 0.45698944, -1.3359187, -2.2199287, 0
1170, 2990354927, 0.7919762, 0.098853275, 0.36389786, -0.4801842, 0.22769958, -1.4892616, 0.321743, 0
1171, 2990371594, 0.7916002, 0.09775721, 0.36392403, -0.4810082, 1.5866681, 0.032604672, 1.0712605, 0
1172, 2990388261, 0.7912675, 0.09725811, 0.36446783, -0.48124513, 2.0813646, -1.2464652, 0.3431654, 0
1174, 2990421595, 0.7909708, 0.09571736, 0.36535206, -0.48137113, 0.944498, -1.8854614, -1.3391123, 0
1175, 2990438262, 0.79132825, 0.09437522, 0.3648215, -0.48145118, 1.2255119, -2.064073, -0.1454544, 0
1177, 2990471596, 0.7924345, 0.092489265, 0.3646833, -0.4801002, 2.0416567, 1.8170065, 1.934514, 0
1178, 2990488263, 0.79304415, 0.09235118, 0.36524025, -0.47869462, 3.5951998, 2.4787753, 1.0592957, 0
1179, 2990504930, 0.79433316, 0.09239428, 0.3647983, -0.47688296, 3.318756, -0.4880098, -2.3628478, 0
1181, 2990538264, 0.7975536, 0.09229335, 0.36265022, -0.473151, -0.35011873, 0.18853866, 0.9342766, 0
1182, 2990554931, 0.7995205, 0.09223252, 0.3603924, -0.47156614, -2.7063267, 2.6884177, 3.394308, 0
1183, 2990571598, 0.8012839, 0.09203916, 0.3581958, -0.4702824, -2.715949, 4.964279, 1.4126387, 0
1185, 2990604932, 0.80351305, 0.09097268, 0.35528994, -0.46888903, -0.46851557, 5.0056953, -1.3018322, 0
1186, 2990621599, 0.80373096, 0.09005059, 0.354892, -0.4689948, 0.05970545, 2.91704, -2.2377844, 0
1189, 2990671600, 0.8012132, 0.08782209, 0.3579105, -0.47142518, -3.1397219, 1.6883711, -0.06149292, 0
1190, 2990688267, 0.8004821, 0.08790282, 0.3585387, -0.4721742, -3.648806, 2.0853627, 1.2537079, 0
1191, 2990704934, 0.800165, 0.08826039, 0.3585583, -0.47262985, -1.0785528, -1.4770476, -0.15337849, 0
1193, 2990738268, 0.7994159, 0.08934441, 0.35865882, -0.47361648, 1.3845549, -0.45791936, 0.9678421, 0
1194, 2990754935, 0.79925305, 0.08939542, 0.35808104, -0.47431856, 1.8386288, -1.2977972, 0.43957615, 0
1195, 2990771602, 0.7987567, 0.08967885, 0.3585164, -0.47477183, -0.18199028, 1.8502486, 0.23289394, 0
1197, 2990804936, 0.7976337, 0.089450896, 0.3600899, -0.47551158, -0.96539, 2.4861405, 0.11964798, 0
1198, 2990821603, 0.79746234, 0.08928013, 0.35998237, -0.47591254, 0.31043783, -0.40627697, 0.31990147, 0
1199, 2990838270, 0.79744804, 0.08975733, 0.35967544, -0.47607848, -0.5910143, 0.8185327, -0.17380142, 0
1201, 2990871604, 0.79833513, 0.091244996, 0.35781354, -0.47571176, -0.5280098, 1.1468731, -0.29941273, 0
1204, 2990921605, 0.7984258, 0.09233859, 0.35601947, -0.4766937, 0.05008903, 1.1438664, 0.95461655, 0
1205, 2990938272, 0.7980772, 0.092356145, 0.3560257, -0.47726914, -0.69957185, 0.1977418, 0.47729206, 0
1206, 2990954939, 0.797471, 0.09205064, 0.35645643, -0.4780196, -0.8931428, 0.2841429, -0.60254097, 0
1208, 2990988273, 0.7957636, 0.09173122, 0.35768634, -0.4800032, 0.058475908, -0.1233801, -0.689517, 0
1209, 2991004940, 0.7954253, 0.09175507, 0.35736722, -0.48079628, -1.5213195, -0.6491612, -0.4581957, 0
1210, 2991021607, 0.7950457, 0.09177584, 0.35700354, -0.4816897, -1.286487, 0.04120802, -0.45643806, 0
1212, 2991054941, 0.79425234, 0.09251927, 0.3562307, -0.48342547, 0.5990485, 1.4793307, -0.14892769, 0
1213, 2991071608, 0.79425615, 0.09327417, 0.35557953, -0.48375323, -0.16354689, 0.49058327, 0.37188435, 0
1214, 2991088275, 0.79424495, 0.093994714, 0.35507438, -0.4840032, -0.58486325, -0.7049781, -0.32186413, 0
1216, 2991121609, 0.79385793, 0.09526929, 0.35416237, -0.48505604, -0.14372553, -0.09507789, 0.07123375, 0
1218, 2991154943, 0.7937175, 0.09650581, 0.35316914, -0.48576465, -0.14910638, 0.32441616, -0.23258209, 0
1220, 2991188277, 0.79348946, 0.09825658, 0.3522659, -0.48644188, -0.3599037, 0.4649444, -0.01819706, 0
1221, 2991204944, 0.7935865, 0.09895515, 0.3513895, -0.4867756, -0.80678904, -1.4808857, 0.9940233, 0
1222, 2991221611, 0.7935325, 0.0994056, 0.3507432, -0.487238, -0.6368586, -0.23712769, -0.042128563, 0
1224, 2991254945, 0.7926114, 0.10033311, 0.35096473, -0.4883864, 0.17144784, 0.7361742, 0.47374058, 0
1225, 2991271612, 0.7918926, 0.10032896, 0.3514178, -0.48922703, 0.14709522, -0.076483175, -0.8298054, 0
1226, 2991288279, 0.79093003, 0.10028227, 0.35227975, -0.49017262, -0.21952124, 0.475601, -0.04709339, 0
1228, 2991321613, 0.7892646, 0.100703366, 0.3539793, -0.49154428, -1.3837204, 0.7132781, 0.009482384, 0
1229, 2991338280, 0.7885551, 0.10077493, 0.35465682, -0.4921797, -0.5677799, -0.96800643, 0.14276314, 0
1231, 2991371614, 0.78717744, 0.10065361, 0.35580304, -0.49358052, 0.99982595, -0.3215277, 0.23000336, 0
1233, 2991404948, 0.7862951, 0.099853806, 0.35660163, -0.49457204, 0.32261434, -0.26568404, -0.01488018, 0
1235, 2991438282, 0.7846273, 0.09912609, 0.3598611, -0.49500623, 0.10464743, 1.6904432, -0.93220997, 0
1236, 2991454949, 0.78397715, 0.09907132, 0.3614315, -0.49490294, 0.56565744, 1.0246073, 0.25866032, 0
1237, 2991471616, 0.7838399, 0.09906978, 0.36208525, -0.49464297, 1.2132843, -0.66350687, -0.30007553, 0
1239, 2991504950, 0.7840274, 0.099413946, 0.36269933, -0.493826, 0.51410306, -0.32114342, 1.1422071, 0
1240, 2991521617, 0.7843512, 0.09943704, 0.36253348, -0.4934287, 0.7176402, -1.4807289, 0.6343317, 0
1241, 2991538284, 0.784672, 0.09944815, 0.3625792, -0.49288276, 0.6804624, -0.38573128, -0.25991154, 0
1243, 2991571618, 0.7853398, 0.100009136, 0.36302665, -0.4913738, 1.1184832, 0.28730416, -0.81707764, 0
1244, 2991588285, 0.7858571, 0.10043341, 0.36283734, -0.4905996, 0.15170875, -1.1960225, -0.1321621, 0
1245, 2991604952, 0.7862627, 0.10097084, 0.36285034, -0.48982885, -0.15591727, -0.91437274, -0.32873058, 0
1247, 2991638286, 0.7871712, 0.10180812, 0.3626105, -0.48837182, 1.0451481, -1.948245, -0.17572689, 0
1248, 2991654953, 0.7878652, 0.102001496, 0.36207876, -0.48760656, 0.7176802, -1.6637176, 0.5001545, 0
1249, 2991671620, 0.78845286, 0.10222337, 0.36156693, -0.4869896, 0.2483135, -1.4377096, 0.8898287, 0
1251, 2991704954, 0.7889785, 0.10350091, 0.36177626, -0.48571137, 0.16542082, -0.15307084, 0.76853657, 0
1252, 2991721621, 0.7891664, 0.104048304, 0.36200485, -0.48511848, 1.4203625, -2.4687755, -0.53410816, 0
1253, 2991738288, 0.789038, 0.10547975, 0.36315548, -0.4841571, 1.4233763, -1.3610255, -2.3838744, 0
1255, 2991771622, 0.7889166, 0.10804128, 0.36479867, -0.48255217, 0.44134912, -2.7255263, -0.20672607, 0
1256, 2991788289, 0.7890058, 0.10935795, 0.36508882, -0.48188996, -0.62122476, -1.556607, -0.41674614, 0
1258, 2991821623, 0.79089874, 0.11079756, 0.36119118, -0.48139495, -0.9067961, 0.8137791, 0.84480095, 0
1260, 2991854957, 0.7914813, 0.11158697, 0.35977232, -0.48131767, 1.8479016, -0.16402555, 1.6243029, 0
1262, 2991888291, 0.79069144, 0.112630956, 0.36223328, -0.48052603, 2.5646403, -4.2084618, -1.9943943, 0
1263, 2991904958, 0.79093987, 0.112310976, 0.36155808, -0.48070082, 0.219327, -2.8182511, -1.4233265, 0
1264, 2991921625, 0.79220045, 0.11120989, 0.35836384, -0.4812723, -0.51572084, -2.3549914, -0.31004238, 0
1266, 2991954959, 0.7929874, 0.10978987, 0.35621688, -0.48189598, 1.9924248, -0.550923, 4.0409374, 0
1267, 2991971626, 0.79262835, 0.11070405, 0.35832348, -0.48071432, 4.4316483, 2.2912397, 2.6058502, 0
1268, 2991988293, 0.7920364, 0.11205832, 0.36240238, -0.47831216, 5.0327096, -2.800189, -5.218391, 0
1270, 2992021627, 0.79031044, 0.11299093, 0.37032425, -0.4748678, 0.10055848, 1.6114223, 3.7676544, 0
1271, 2992038294, 0.7918398, 0.1117086, 0.3684146, -0.47410834, 0.24425608, -0.24254587, -1.3254356, 0
1272, 2992054961, 0.7926269, 0.11135954, 0.36813077, -0.4730946, -0.69892234, 2.7524066, -0.06382561, 0
1275, 2992104962, 0.7992687, 0.10823092, 0.35815915, -0.47029224, 0.52558726, -1.9823035, -3.69735, 0
1276, 2992121629, 0.8007658, 0.10477495, 0.35499132, -0.47092953, 0.24088348, -2.5883503, 2.468051, 0
1278, 2992154963, 0.80256176, 0.10125933, 0.35339722, -0.4698388, -0.50458765, 6.7970476, 7.3301144, 0
1279, 2992171630, 0.8028892, 0.10050217, 0.35349587, -0.46936738, -0.7227575, 1.0325791, 0.6164961, 0
1280, 2992188297, 0.8027003, 0.10038174, 0.3540344, -0.46931043, -4.278789, 7.5432143, -1.4720011, 0
1282, 2992221631, 0.8033353, 0.10053253, 0.3518456, -0.46983734, -3.233554, 0.029388824, 2.731184, 0
1283, 2992238298, 0.80371284, 0.100899965, 0.35046396, -0.47014537, -1.3236194, 2.6046476, 1.0131645, 0
1285, 2992271632, 0.8043954, 0.10315767, 0.34791237, -0.47038335, -2.8342483, 4.385544, 0.40883255, 0
1286, 2992288299, 0.8043978, 0.10436652, 0.34702256, -0.47076982, -3.0482218, 2.7145925, 0.43389606, 0
1287, 2992304966, 0.80418533, 0.10519823, 0.34651226, -0.47132304, -3.0454783, 2.7975314, -0.38477135, 0
1290, 2992354967, 0.80301875, 0.10639244, 0.34461796, -0.47442278, -1.2743706, -1.4455755, -0.46631432, 0
1291, 2992371634, 0.8023917, 0.106465615, 0.34366712, -0.4761542, -1.6596541, 0.80496985, 0.52089596, 0
1293, 2992404968, 0.80037856, 0.10714128, 0.3439195, -0.4791984, -1.9386438, 1.7389547, 0.89115906, 0
1294, 2992421635, 0.7991343, 0.107156344, 0.34418994, -0.4810738, 0.23872949, -0.7782156, -0.05561924, 0
1295, 2992438302, 0.7978289, 0.1073691, 0.34443724, -0.48301208, -0.67145526, -1.1085565, -0.21771717, 0
1297, 2992471636, 0.7948717, 0.10676671, 0.34457454, -0.48789862, -1.2894728, -0.9737561, -0.46808338, 0
1298, 2992488303, 0.7932536, 0.106093585, 0.34459087, -0.49065992, -1.301826, -0.04181648, -0.7292652, 0
1299, 2992504970, 0.7912751, 0.105499126, 0.3450584, -0.49364495, -2.0616882, 1.7289562, 1.5193415, 0
1301, 2992538304, 0.78676337, 0.10483986, 0.34754875, -0.49921834, -0.29561666, -0.22951809, -0.2362833, 0
1302, 2992554971, 0.78456384, 0.104242414, 0.3490186, -0.50177276, -0.5062191, -0.36430705, -1.2859764, 0
1305, 2992604972, 0.77883214, 0.10167374, 0.35231733, -0.5088737, 0.09513248, 0.48537213, 0.9879255, 0
1306, 2992621639, 0.7773935, 0.10135835, 0.3535333, -0.5102909, 0.020285813, 1.0303422, -0.58423424, 0
1307, 2992638306, 0.77621526, 0.1011757, 0.35458955, -0.51138675, -0.07679212, 1.8196186, 0.32999992, 0
1309, 2992671640, 0.7742304, 0.10084163, 0.35682237, -0.51290643, 0.46690693, -0.06490308, -1.0913315, 0
1310, 2992688307, 0.77335864, 0.10041747, 0.35794115, -0.51352507, 0.7417711, 0.20776089, -0.5017147, 0
1312, 2992721641, 0.77177596, 0.09911392, 0.3603921, -0.5144441, 0.6037282, 0.489658, 0.045230865, 0
1313, 2992738308, 0.771101, 0.09879045, 0.3617583, -0.51455945, 1.0623143, 1.400248, -0.38986397, 0
1314, 2992754975, 0.77077013, 0.09886517, 0.36302698, -0.514147, 0.10766954, 1.8335823, 0.4942541, 0
1316, 2992788309, 0.7702326, 0.09874657, 0.3651044, -0.5135043, 0.7704469, -0.49266937, -0.626812, 0
1317, 2992804976, 0.770254, 0.09875945, 0.36567122, -0.513066, 1.8260144, 0.048352223, -0.5037451, 0
1318, 2992821643, 0.7706132, 0.09885064, 0.36592916, -0.5123248, 1.1055024, -0.20673485, -0.041353226, 0
1320, 2992854977, 0.77116615, 0.09891567, 0.3663341, -0.5111895, 0.23862667, -0.14716707, 0.5222521, 0
1321, 2992871644, 0.77147996, 0.098764434, 0.36626902, -0.51079196, 1.3173364, -0.65130043, -0.0227108, 0
1322, 2992888311, 0.7719524, 0.09888339, 0.36647168, -0.5099089, 0.692094, 0.22225429, -0.09901428, 0
1324, 2992921645, 0.77293724, 0.09896072, 0.36681727, -0.5081506, 1.0902902, -0.8024223, -0.22971916, 0
1325, 2992938312, 0.77344716, 0.099143304, 0.36681122, -0.5073427, 0.7966856, -0.22498071, -0.13464737, 0
1326, 2992954979, 0.77390003, 0.09937139, 0.36698544, -0.50648105, 0.7231149, -1.2636971, -0.8484583, 0
1328, 2992988313, 0.77485484, 0.09963725, 0.3671197, -0.50486875, 0.5310724, -0.5020958, -0.5454378, 0
1329, 2993004980, 0.77507824, 0.09975369, 0.36737838, -0.5043142, 0.3477019, -0.121119656, 0.22100258, 0
1332, 2993054981, 0.7755434, 0.09999184, 0.36857203, -0.50267863, 0.025728576, -0.50043166, -0.6741009, 0
1333, 2993071648, 0.7754729, 0.09972836, 0.36905313, -0.50248647, 0.54779094, -0.52954346, -0.098685265, 0
1334, 2993088315, 0.7755898, 0.099295266, 0.3693361, -0.50218385, 0.52986944, 0.18368669, 0.48594952, 0
1336, 2993121649, 0.775481, 0.09832275, 0.37062436, -0.50159395, 0.8005615, 0.8396207, 1.1895056, 0
1337, 2993138316, 0.77544606, 0.09739719, 0.371263, -0.50135607, 0.25928196, -0.5571676, 1.3816805, 0
1339, 2993171650, 0.7740554, 0.095723785, 0.3762261, -0.500126, 1.4741957, 0.62600654, 0.6623516, 0
1340, 2993188317, 0.7735989, 0.09463989, 0.3782732, -0.49949425, 1.3624455, -1.2915671, -0.9378691, 0
1341, 2993204984, 0.77295387, 0.093780436, 0.38066703, -0.49883574, 1.1431571, -0.06584317, -0.81608677, 0
1343, 2993238318, 0.7723583, 0.092771016, 0.3836434, -0.49766558, 0.2192548, 0.9471127, 0.931139, 0
1344, 2993254985, 0.772693, 0.09173692, 0.38373932, -0.4972633, 0.69021493, -1.769393, -0.1785183, 0
1347, 2993304986, 0.77370846, 0.089428656, 0.38463694, -0.49540818, 1.0622109, -1.9248451, -0.5178251, 0
1348, 2993321653, 0.77414197, 0.08872044, 0.3848176, -0.49471724, 1.5852622, -0.8832826, -1.3463306, 0
1349, 2993338320, 0.7753708, 0.08814924, 0.38374472, -0.49372754, 2.4470024, 0.085210964, -0.4461851, 0
1351, 2993371654, 0.7788411, 0.08808513, 0.38034305, -0.4909009, -0.19766614, -1.6548173, -0.13211346, 0
1352, 2993388321, 0.78058046, 0.088528775, 0.37869906, -0.48932695, -0.060597267, 0.021366386, 1.6045609, 0
1353, 2993404988, 0.7824232, 0.08842819, 0.3769204, -0.4877731, 2.5023568, -1.888235, -0.42493725, 0
1355, 2993438322, 0.7852327, 0.089829, 0.37699947, -0.48291692, 4.4338865, 1.7743231, -1.342617, 0
1356, 2993454989, 0.7869027, 0.0912694, 0.3766745, -0.4801741, 0.23779923, 0.29409146, 0.013963699, 0
1357, 2993471656, 0.7885733, 0.09219056, 0.37534463, -0.478295, -2.9358723, -4.625174, -0.4948616, 0
1359, 2993504990, 0.79076415, 0.09380157, 0.374646, -0.4749004, 0.9430047, 0.4691932, 1.7055302, 0
1363, 2993571658, 0.7848954, 0.10337194, 0.3942285, -0.4667271, -2.0222147, -0.1507556, -2.4914937, 0
1364, 2993588325, 0.78607064, 0.101203576, 0.39093798, -0.46799076, -2.9666154, -0.7730784, -0.26112938, 0
1366, 2993621659, 0.7915692, 0.09384626, 0.37596804, -0.47249985, 0.64876467, 1.8642462, 1.2820501, 0
1367, 2993638326, 0.7915855, 0.09216465, 0.37482724, -0.4737085, 1.5099955, 0.9776967, 0.035624504, 0
1368, 2993654993, 0.79132557, 0.090723194, 0.37493765, -0.47433296, 0.7886952, 2.4968414, 1.6499748, 0
1370, 2993688327, 0.789949, 0.08731109, 0.3753874, -0.47690555, -0.8748867, -1.6345009, 0.17045498, 0
1371, 2993704994, 0.7893345, 0.08573379, 0.3748381, -0.4786379, -1.6752131, 0.4226293, 2.3260536, 0
1372, 2993721661, 0.7888563, 0.08426943, 0.3744785, -0.4799658, -2.020705, 3.3003905, 3.089491, 0
1374, 2993754995, 0.78799355, 0.081941985, 0.3751515, -0.48125866, -0.024652809, 4.2856255, -0.15953445, 0
1375, 2993771662, 0.7875105, 0.08098236, 0.37548283, -0.48195308, 0.19080004, 3.2527704, -0.6462803, 0
1378, 2993821663, 0.78679323, 0.0774166, 0.37530395, -0.48384613, -1.5406853, 3.645568, 0.43324757, 0
1379, 2993838330, 0.7869134, 0.07603161, 0.37446412, -0.48452064, -0.62284166, 3.050174, 0.045887947, 0
1380, 2993854997, 0.7867196, 0.075360775, 0.3745101, -0.4849043, -0.50160086, 5.6535187, -1.0188017, 0
1382, 2993888331, 0.7867234, 0.07514599, 0.3745466, -0.48490334, -1.036314, 1.6475357, -1.0061903, 0
1383, 2993904998, 0.7865548, 0.0750347, 0.3746904, -0.48508286, -0.8305701, 1.2858788, -1.0035543, 0
1384, 2993921665, 0.78653264, 0.07489413, 0.37452197, -0.4852708, -0.034933064, 0.9736592, -0.38485813, 0
1386, 2993954999, 0.78707045, 0.07499403, 0.3744321, -0.48445213, 0.22595148, 1.0504067, 0.04970932, 0
1387, 2993971666, 0.78760046, 0.075206816, 0.37416708, -0.4837619, 1.3103588, -0.20355918, 0.40710545, 0
1388, 2993988333, 0.7885502, 0.07567726, 0.3731683, -0.4829122, 1.4173481, -0.036041465, 0.4683113, 0
1390, 2994021667, 0.791104, 0.0778851, 0.36997068, -0.48084, -0.13362566, 0.2934707, 0.34838295, 0
1391, 2994038334, 0.7919823, 0.07909003, 0.36882, -0.48008105, -0.27253917, 0.3863328, -0.018133163, 0
1393, 2994071668, 0.792901, 0.080978274, 0.36826688, -0.47867233, -0.22580753, 0.9055043, -0.79696083, 0
1394, 2994088335, 0.79324406, 0.080901876, 0.36789328, -0.4784042, 0.33320507, -1.4450493, 0.77837753, 0
1395, 2994105002, 0.7933815, 0.08050312, 0.36789936, -0.47823858, 0.5293949, -1.1381823, 0.3316145, 0
1397, 2994138336, 0.7935083, 0.08034498, 0.36863855, -0.47748527, 0.710937, 1.3793206, -0.6368265, 0
1398, 2994155003, 0.79367405, 0.08042207, 0.36889985, -0.4769946, -0.49817237, 1.3404741, 0.20732975, 0
1399, 2994171670, 0.7936909, 0.08029392, 0.36914653, -0.4767971, -0.07251431, -1.0091566, 0.41049004, 0
1401, 2994205004, 0.79410565, 0.08030533, 0.36928257, -0.4759989, 1.272652, -0.49709293, -0.21291065, 0
1402, 2994221671, 0.7945316, 0.08061446, 0.3691171, -0.4753635, 0.5407471, -0.62042403, -0.5464201, 0
1405, 2994271672, 0.7966334, 0.0822136, 0.3663621, -0.47370034, -0.10227774, 0.83168805, 0.5870609, 0
1406, 2994288339, 0.7973544, 0.08290012, 0.36585334, -0.4727598, -0.17942414, 0.6095475, 1.2038107, 0
1407, 2994305006, 0.79786736, 0.08362807, 0.36578757, -0.47181618, 0.43399823, 0.51143813, 0.5004282, 0
1409, 2994338340, 0.79904777, 0.08541528, 0.36526644, -0.4698983, 1.3865932, -1.0279967, -1.1783133, 0
1410, 2994355007, 0.7998059, 0.08656775, 0.36459523, -0.4689176, -0.20051838, -1.5835081, -1.0595951, 0
1411, 2994371674, 0.8003838, 0.08785633, 0.3640082, -0.46814737, -1.443326, -0.8032256, -0.14094543, 0
1413, 2994405008, 0.8012065, 0.0903019, 0.36292908, -0.4671113, -0.0062813847, -0.14011636, -0.37330723, 0
1414, 2994421675, 0.80159634, 0.09158254, 0.36254427, -0.4664918, 1.3308433, 0.21708897, -0.33351135, 0
1415, 2994438342, 0.80186355, 0.092850454, 0.36236212, -0.4659231, 0.8380207, -0.7364077, -0.39825344, 0
1417, 2994471676, 0.8021077, 0.094410285, 0.362086, -0.4654041, 0.22021659, -1.0557661, -0.36899662, 0
1420, 2994521677, 0.80242646, 0.096677184, 0.36173218, -0.46466348, 0.053316556, 0.21575537, 0.95814323, 0
1421, 2994538344, 0.8023848, 0.09752224, 0.36193684, -0.4643994, 1.3231344, -1.1236645, -0.61840534, 0
1422, 2994555011, 0.8022273, 0.09884682, 0.36273342, -0.4637698, 0.7749983, 0.74128395, -0.46553612, 0
1424, 2994588345, 0.8017807, 0.10020847, 0.3632693, -0.46383026, -0.2039862, -2.1129248, -0.51267433, 0
1425, 2994605012, 0.8015713, 0.10128086, 0.36366498, -0.46364936, 0.37009946, 0.10937305, -0.6741123, 0
1426, 2994621679, 0.80149245, 0.102504596, 0.36397237, -0.46327522, -0.026625087, -0.011328754, -0.2796402, 0
1428, 2994655013, 0.80078745, 0.10409956, 0.36495396, -0.4633663, 0.8850264, -0.16210897, -0.24298286, 0
1429, 2994671680, 0.8005212, 0.104828574, 0.3653258, -0.4633691, 1.1404449, -1.0637149, -0.19849396, 0
1430, 2994688347, 0.8002453, 0.10557193, 0.3656446, -0.46342546, -0.5594098, -0.86495656, -0.10858822, 0
1432, 2994721681, 0.7984246, 0.10745971, 0.36888576, -0.46356323, -0.52543044, -0.06683076, 1.8018045, 0
1434, 2994755015, 0.7959578, 0.11058629, 0.37472904, -0.4623819, 0.8397294, -0.8136726, -0.69759655, 0
1436, 2994788349, 0.7967688, 0.11333665, 0.37374493, -0.4611141, -1.5644729, -1.2365283, -0.30702496, 0
1437, 2994805016, 0.7982825, 0.1132923, 0.36995953, -0.46155924, -1.53461, -1.6731615, -0.4442358, 0
1438, 2994821683, 0.7999512, 0.112408005, 0.3653917, -0.462524, 1.1195201, -1.0352657, -0.16549206, 0
1440, 2994855017, 0.8013071, 0.1121622, 0.3617964, -0.46306238, 2.8657975, 0.14182355, 1.3423281, 0
1441, 2994871684, 0.801255, 0.11312843, 0.3627639, -0.46215987, 1.8390033, -0.7677721, -0.56538296, 0
1442, 2994888351, 0.8014509, 0.114263654, 0.3635809, -0.46089724, 0.0990491, -3.1012444, -2.1157842, 0
1444, 2994921685, 0.80347127, 0.11316219, 0.35913345, -0.46113822, 1.6179646, -2.6966846, -0.071564674, 0
1445, 2994938352, 0.80464095, 0.11179249, 0.356243, -0.46167418, 2.4740953, -2.164613, 1.535162, 0
1447, 2994971686, 0.80540335, 0.112092175, 0.35521773, -0.4610621, 0.6632711, 3.3678055, 3.456952, 0
1449, 2995005020, 0.8049958, 0.11505243, 0.3577212, -0.4591051, -2.4332652, -1.4424503, -2.9435034, 0
1451, 2995038354, 0.8078151, 0.11429885, 0.35136005, -0.4592534, -0.16243804, 1.5200837, -2.9266343, 0
1452, 2995055021, 0.8095371, 0.113674775, 0.3475925, -0.45924327, 0.7669299, 4.295389, -0.108226776, 0
1453, 2995071688, 0.8107131, 0.11324296, 0.3453709, -0.4589513, 0.21485987, 4.821387, 2.4127102, 0
1455, 2995105022, 0.8111034, 0.112654336, 0.3451299, -0.45858768, 0.85953784, 1.6672945, -1.4689493, 0
1456, 2995121689, 0.81104136, 0.11179932, 0.3455076, -0.4586224, 0.6313766, 0.05921255, -2.5643835, 0
1457, 2995138356, 0.81091225, 0.110682145, 0.3455185, -0.4591132, -2.9080098, -0.8716036, -0.07543945, 0
1459, 2995171690, 0.80945414, 0.10839472, 0.34573308, -0.4620608, -4.2050934, 5.2935677, 4.491947, 0
1460, 2995188357, 0.80832076, 0.10699642, 0.34633994, -0.46391276, -2.0096812, 4.994158, 3.0080786, 0
1461, 2995205024, 0.80710083, 0.10567932, 0.3469221, -0.46589947, -1.4132161, 3.726028, -0.47686005, 0
1463, 2995238358, 0.8034178, 0.10322636, 0.34818646, -0.47183385, -4.3241577, 2.83996, -2.3432932, 0
1464, 2995255025, 0.8014508, 0.10230241, 0.3488624, -0.47487134, -4.2477646, 2.953899, -0.053792953, 0
1465, 2995271692, 0.79927564, 0.10175518, 0.35013717, -0.4777085, -4.226993, 2.7552946, -0.27212715, 0
1467, 2995305026, 0.79476005, 0.10095489, 0.35277647, -0.48343602, -1.2916094, 1.8182652, -0.3464613, 0
1468, 2995321693, 0.7923895, 0.10058842, 0.35435078, -0.48624414, -1.4899403, 1.0792139, -0.7654743, 0
1469, 2995338360, 0.78990805, 0.099563204, 0.35621375, -0.4891229, -0.53243, -0.637422, -0.78254604, 0
1471, 2995371694, 0.78454655, 0.096070275, 0.3613585, -0.4946458, 1.4324034, -0.6602761, -0.118211746, 0
1472, 2995388361, 0.78213406, 0.09423817, 0.36379763, -0.497025, 1.1523232, -1.4077086, -0.34956837, 0
1474, 2995421695, 0.7782257, 0.091019355, 0.36790875, -0.50071996, 0.46769506, -0.39498478, 1.2838516, 0
1476, 2995455029, 0.77609384, 0.08859468, 0.3705984, -0.50247735, 1.1238772, 1.1541923, -1.1698179, 0
1478, 2995488363, 0.7759241, 0.08685305, 0.37173745, -0.502202, 1.5960121, -1.3709826, 0.10706806, 0
1479, 2995505030, 0.7758928, 0.08602597, 0.37236825, -0.5019251, 1.0471897, 0.55000305, 0.08446789, 0
1480, 2995521697, 0.7761162, 0.08569073, 0.37288156, -0.5012557, 2.3063374, 0.91791886, 0.25119114, 0
1482, 2995555031, 0.777831, 0.085467756, 0.37235734, -0.49902028, 0.6538731, -0.40742868, -0.29424, 0
1483, 2995571698, 0.77884865, 0.08554867, 0.37172636, -0.49788845, 1.0003262, 0.15029128, -0.38279915, 0
1484, 2995588365, 0.7799019, 0.08597292, 0.37111828, -0.49661842, 0.99548715, 0.6955428, -1.3077765, 0
1486, 2995621699, 0.78203106, 0.08662882, 0.36973315, -0.49418357, -0.41915384, -0.18062541, 0.11863041, 0
1487, 2995638366, 0.7827366, 0.08685099, 0.36920193, -0.49342433, -0.53480905, 0.52586377, 0.20236015, 0
1488, 2995655033, 0.7833388, 0.08698317, 0.368818, -0.49273187, 0.098299436, 0.32714003, -0.510046, 0
1491, 2995705034, 0.7844776, 0.08697807, 0.3692192, -0.49061596, 0.12148197, -0.24157548, 0.11263275, 0
1492, 2995721701, 0.7843791, 0.08700063, 0.3700102, -0.49017325, 0.47201845, 0.96244055, -0.11060238, 0
1494, 2995755035, 0.78418857, 0.086037315, 0.37141767, -0.48958346, -0.5330281, -0.45346794, 0.6899328, 0
1495, 2995771702, 0.7839505, 0.08545121, 0.3721882, -0.4894823, 0.18083182, -0.27166826, -0.22529316, 0
1496, 2995788369, 0.78384775, 0.0848492, 0.3729313, -0.48918566, 0.5522053, 0.7191589, -0.23664284, 0
1498, 2995821703, 0.78347325, 0.08401699, 0.37483424, -0.48847458, 0.34980762, 0.7894526, 0.12976837, 0
1499, 2995838370, 0.7830983, 0.08313193, 0.3759345, -0.48838162, 0.6527984, 0.015921833, -0.5229664, 0
1501, 2995871704, 0.78289604, 0.0819884, 0.37780893, -0.4874516, 0.07292893, -0.3643704, -0.6525955, 0
1502, 2995888371, 0.7828978, 0.08181759, 0.3787008, -0.48678514, -0.39276746, 0.98541206, -0.21117306, 0
1503, 2995905038, 0.78313625, 0.08150716, 0.37896568, -0.4862469, 0.45791233, 0.51368773, 0.7247238, 0
1506, 2995955039, 0.7843203, 0.08159309, 0.37994835, -0.48355007, 0.79746157, -0.7433321, -0.08011246, 0
1507, 2995971706, 0.7846911, 0.08152441, 0.3800179, -0.48290515, 0.14888489, -0.17452858, 0.8669052, 0
1509, 2996005040, 0.785875, 0.0819811, 0.38016695, -0.48078027, 0.919309, 1.1360544, -0.80321884, 0
1510, 2996021707, 0.7865046, 0.082608685, 0.38028014, -0.4795524, -0.10649722, 0.59242064, 0.3086462, 0
1511, 2996038374, 0.78699225, 0.08286295, 0.38009292, -0.47885635, -0.7608028, 0.13414907, 0.7569208, 0
1513, 2996071708, 0.78816867, 0.08435511, 0.3800442, -0.47669506, 1.1915812, -0.03167078, -0.3746767, 0
1514, 2996088375, 0.7891597, 0.08561075, 0.37951094, -0.47525388, 0.21333596, -0.85828805, 0.19276142, 0
1515, 2996105042, 0.7900073, 0.08691388, 0.37888885, -0.47410434, 0.3208886, -0.7653756, 0.0124902725, 0
1517, 2996138376, 0.7921272, 0.089922585, 0.3768892, -0.47159323, 0.7162041, -1.0359604, 0.23997498, 0
1518, 2996155043, 0.7931726, 0.09148813, 0.37593108, -0.47029796, -0.109229885, -1.0954468, -0.4396677, 0
1521, 2996205044, 0.79506326, 0.095387444, 0.37454012, -0.46743184, 0.9814227, -0.066166766, -1.7017612, 0
1522, 2996221711, 0.7952741, 0.095985435, 0.3744085, -0.46705607, 0.52244544, -0.40663606, 0.06303024, 0
1523, 2996238378, 0.7950948, 0.096409574, 0.37454274, -0.46716642, -1.1570379, -0.40086782, 0.3731451, 0
1525, 2996271712, 0.7942274, 0.09578209, 0.37508872, -0.46833134, 0.72825104, -2.1927223, -0.64936256, 0
1526, 2996288379, 0.79329824, 0.09512602, 0.37676525, -0.46869418, 2.2205055, -0.92284817, -0.5810766, 0
1528, 2996321713, 0.79071325, 0.09292304, 0.38069513, -0.47032556, 0.3768795, -1.4226955, 0.31316566, 0
1529, 2996338380, 0.78915405, 0.091739886, 0.38264152, -0.47159544, -0.45301494, -1.7707485, -0.3914137, 0
1530, 2996355047, 0.78766304, 0.09136003, 0.3849702, -0.47226632, -0.7407318, -0.5786892, -0.34374428, 0
1532, 2996388381, 0.78642917, 0.091144495, 0.3874892, -0.47230393, 1.5486664, -1.4714147, -1.9236727, 0
1533, 2996405048, 0.7853979, 0.09154926, 0.39038023, -0.47156048, 3.045656, -0.6048116, -0.1862526, 0
1534, 2996421715, 0.7853475, 0.091200076, 0.390985, -0.471211, 2.8240805, -2.3502946, -0.54821587, 0
1536, 2996455049, 0.7883551, 0.08949438, 0.38506103, -0.47139388, 0.8898558, -2.7745652, -0.26709938, 0
1537, 2996471716, 0.79052275, 0.08884047, 0.38122338, -0.4710065, 1.0036634, -0.49437287, 2.4438906, 0
1538, 2996488383, 0.7911151, 0.089099705, 0.3815768, -0.4696749, 1.456978, 0.32602987, 1.7942581, 0
1540, 2996521717, 0.7904163, 0.09233324, 0.38956133, -0.46363303, 2.614038, -0.6794701, -3.3335614, 0
1541, 2996538384, 0.79101855, 0.092665695, 0.3901475, -0.46204397, -0.66373247, 0.61810696, 0.24641514, 0
1542, 2996555051, 0.79396445, 0.091405004, 0.3848167, -0.46171287, -1.46356, -0.37022164, -2.8902125, 0
1544, 2996588385, 0.79917634, 0.088690825, 0.37409726, -0.46205997, -1.4996318, 2.1227798, 0.2822113, 0
1545, 2996605052, 0.80017006, 0.08690812, 0.37129822, -0.46293598, 0.055331077, 1.305442, 3.0497808, 0
1548, 2996655053, 0.79946727, 0.08358599, 0.37080488, -0.4651517, -2.5428765, 0.8615709, -1.284956, 0
1549, 2996671720, 0.7988286, 0.083224595, 0.37043726, -0.46660426, -4.584567, 1.4582957, 2.1715393, 0
1550, 2996688387, 0.7980106, 0.083159626, 0.37002873, -0.4683366, -4.3895664, 0.49681464, 2.9521494, 0
1552, 2996721721, 0.79680204, 0.0834195, 0.36913693, -0.47104403, -1.5732892, 2.808941, -0.12507915, 0
1553, 2996738388, 0.7958954, 0.08355988, 0.3689252, -0.47271502, -1.9401305, 2.3446183, -0.3294611, 0
1555, 2996771722, 0.79351854, 0.08307719, 0.3691589, -0.47659764, -0.9257457, 3.2862256, -0.49556255, 0
1556, 2996788389, 0.7923482, 0.08258947, 0.369867, -0.47807834, -1.9259651, 3.5138192, 1.3558655, 0
1557, 2996805056, 0.79103154, 0.08177309, 0.37063986, -0.4797976, -1.1138543, 1.8758738, 0.19233036, 0
1559, 2996838390, 0.7882952, 0.0802246, 0.3724981, -0.48311174, -0.19944017, 1.9267554, -0.86954117, 0
1560, 2996855057, 0.7873391, 0.07898915, 0.37309942, -0.48440892, -0.7021445, 0.9674577, -0.6510887, 0
1563, 2996905058, 0.78436273, 0.07591594, 0.37655157, -0.48705027, 0.76659644, 2.1854672, 1.8568058, 0
1564, 2996921725, 0.783758, 0.0745212, 0.37750387, -0.487502, 0.3066446, -0.6949527, 1.1837263, 0
1565, 2996938392, 0.78298837, 0.072777994, 0.37864715, -0.48811483, -0.24106744, 0.503457, 0.26658154, 0
1567, 2996971726, 0.78175575, 0.07030374, 0.38119808, -0.4884676, 0.602068, 2.0490873, -2.2343068, 0
1568, 2996988393, 0.7816272, 0.06976381, 0.38199633, -0.48812684, 0.9484274, 0.31081733, -0.11697006, 0
1569, 2997005060, 0.7817521, 0.069403104, 0.38230926, -0.48773313, 0.8483714, -0.67916137, 0.31607533, 0
1571, 2997038394, 0.7823249, 0.06943023, 0.38234526, -0.48678166, 0.843805, -0.80067945, -0.23285866, 0
1572, 2997055061, 0.7830533, 0.06972278, 0.38203648, -0.4858104, 0.74696624, 0.44921428, -0.82029724, 0
1573, 2997071728, 0.78389627, 0.06977528, 0.38159576, -0.4847883, 1.3867426, -0.89575094, 0.48150635, 0
1575, 2997105062, 0.78548, 0.070414245, 0.38104182, -0.48256314, 0.6872547, 0.5941962, -0.16404629, 0
1577, 2997138396, 0.7879267, 0.07227302, 0.3790847, -0.47983345, 0.20886682, 0.12301527, 0.24701786, 0
1579, 2997171730, 0.79050416, 0.07463968, 0.37693134, -0.47691905, 0.1559137, -0.48259878, -0.1141758, 0
1580, 2997188397, 0.79164916, 0.07591928, 0.37616125, -0.47542357, 0.6747606, 0.82751673, -0.06000042, 0
1582, 2997221731, 0.7936862, 0.078450575, 0.37482926, -0.4726603, -0.23563227, 0.89168376, 1.2681112, 0
1583, 2997238398, 0.7945089, 0.07928357, 0.37438616, -0.47148883, 0.7633893, -0.6903667, 0.19157314, 0
1584, 2997255065, 0.79521465, 0.08026887, 0.37423876, -0.4702479, 1.2911682, -0.19271785, -1.9786077, 0
1586, 2997288399, 0.7965188, 0.081675686, 0.37342998, -0.4684378, -0.9929335, -0.8835637, 0.70562553, 0
1587, 2997305066, 0.79710907, 0.08243299, 0.37315324, -0.46752077, -1.1248614, 1.1187413, -0.5168257, 0
1588, 2997321733, 0.79789627, 0.08332145, 0.37237343, -0.4666415, 0.386951, 1.2660369, 0.30693054, 0
1590, 2997355067, 0.7992715, 0.085212804, 0.37091535, -0.46510503, 0.29788265, 0.5939547, -0.26093674, 0
1592, 2997388401, 0.8001652, 0.08694775, 0.37045777, -0.46360967, -0.17282356, 0.43209854, 0.89902496, 0
1594, 2997421735, 0.8002897, 0.08717664, 0.3708142, -0.4630662, 0.18929647, 0.4946335, 0.7582493, 0
1595, 2997438402, 0.8002083, 0.08703271, 0.37142506, -0.4627447, 1.2395644, -0.799264, -0.21132374, 0
1596, 2997455069, 0.8004042, 0.08732499, 0.37162596, -0.46218884, 0.14380108, 0.52180994, 0.08000183, 0
1598, 2997488403, 0.800994, 0.08908928, 0.37097573, -0.4613523, -0.42115295, -0.09649937, 0.31122303, 0
1599, 2997505070, 0.80159414, 0.09050694, 0.37007785, -0.46075454, 0.06547723, 0.24892308, -0.33823395, 0
1600, 2997521737, 0.8020724, 0.09191111, 0.36941916, -0.46017247, -0.2290639, -0.15424746, -0.43475914, 0
1602, 2997555071, 0.803008, 0.095673345, 0.36779916, -0.4590702, -0.27983397, -0.20362483, 0.20052624, 0
1603, 2997571738, 0.8033266, 0.097514406, 0.366972, -0.45878747, -0.91109335, -0.8202517, -0.667387, 0
1604, 2997588405, 0.803554, 0.09907546, 0.36607522, -0.45877126, -1.1782901, -0.50650156, -0.27456284, 0
1606, 2997621739, 0.8038382, 0.10161163, 0.36392242, -0.45943108, -1.2178447, -0.23226024, 0.5865927, 0
1607, 2997638406, 0.8037057, 0.10251322, 0.36290228, -0.46026856, -0.49056086, -0.569115, 0.47162914, 0
1608, 2997655073, 0.8032927, 0.103253536, 0.36252505, -0.46112052, -0.6119329, 0.059159633, -0.055137634, 0
1610, 2997688407, 0.8021445, 0.104946025, 0.3624148, -0.4628204, -1.0018532, -0.119736284, 0.16240788, 0
1611, 2997705074, 0.8013668, 0.10573051, 0.36243415, -0.46397275, -1.3335652, 0.10425633, 0.0015830994, 0
1613, 2997738408, 0.799895, 0.10759751, 0.362616, -0.46593738, -0.22363633, 0.47884974, 0.14730453, 0
1614, 2997755075, 0.7992446, 0.108161904, 0.3624662, -0.46703798, -0.21637708, -0.046780366, 1.0285978, 0
1615, 2997771742, 0.7984669, 0.10866128, 0.36268476, -0.4680814, 0.04113488, -0.4108581, -0.24989605, 0
1617, 2997805076, 0.7968088, 0.10840386, 0.36401123, -0.46993315, 0.66211087, -1.5543222, -0.08312893, 0
1619, 2997838410, 0.7951356, 0.107747756, 0.3651304, -0.47204518, 0.614457, -0.2567499, -1.5276909, 0
1621, 2997871744, 0.7945255, 0.107449986, 0.36488417, -0.47332892, -0.080624476, -0.966528, 0.18518066, 0
1622, 2997888411, 0.7943636, 0.10709473, 0.3645486, -0.47393972, 0.6077442, 0.072026104, 0.07856274, 0
1623, 2997905078, 0.79436094, 0.10685439, 0.36405143, -0.47438043, 1.074308, 0.09869231, 0.32748318, 0
1625, 2997938412, 0.79460174, 0.10727186, 0.36320105, -0.47453436, 0.093818225, 0.054232176, -0.3961401, 0
1626, 2997955079, 0.79518384, 0.10814501, 0.36236632, -0.4739989, -0.4494005, -0.37501368, 0.48412514, 0
1627, 2997971746, 0.7958123, 0.109503984, 0.3616233, -0.4731991, -0.7411531, -0.09958407, -0.01568222, 0
1629, 2998005080, 0.7968098, 0.112840965, 0.36122566, -0.47103515, 1.6741118, -0.74452466, -0.1192379, 0
1630, 2998021747, 0.7975002, 0.11495397, 0.3610588, -0.46948135, 2.41645, -0.93635243, -1.4977131, 0
1631, 2998038414, 0.79838765, 0.11681284, 0.36023605, -0.46814433, 1.0948082, -0.815507, -1.0458603, 0
1634, 2998088415, 0.8010416, 0.11969624, 0.35416108, -0.46751708, -1.7507329, -1.0259609, 0.6191187, 0
1636, 2998121749, 0.80003333, 0.11966691, 0.35483655, -0.46873719, 2.118879, 1.286796, 0.7969732, 0
1637, 2998138416, 0.79855824, 0.1198647, 0.35734552, -0.46929553, 1.8884878, -0.38592127, 0.7448025, 0
1638, 2998155083, 0.7961964, 0.12065935, 0.36134884, -0.47003904, -1.520217, -2.474599, -0.40512657, 0
1640, 2998188417, 0.7900447, 0.120987736, 0.3705379, -0.4731702, -1.8528165, -2.8347456, -1.652379, 0
1641, 2998205084, 0.78897697, 0.119164795, 0.37054396, -0.47540438, -1.3546944, -0.26988697, 1.2314205, 0
1642, 2998221751, 0.7890437, 0.11574206, 0.3675523, -0.4784517, 0.55387896, -4.1848297, -1.6350269, 0
1644, 2998255085, 0.786094, 0.11194827, 0.36847028, -0.48347732, 1.4655329, -1.7443007, 4.2790966, 0
1645, 2998271752, 0.7843566, 0.11194432, 0.37051812, -0.48473358, -1.2326669, -0.97011024, -1.3116875, 0
1646, 2998288419, 0.78286356, 0.11141239, 0.37189922, -0.48620972, -1.4566205, 0.48867047, -3.709125, 0
1649, 2998338420, 0.784422, 0.10386422, 0.3634459, -0.4917301, 0.19793436, 2.7539828, 0.3413887, 0
1650, 2998355087, 0.78469265, 0.102463394, 0.36203012, -0.4926358, -0.70822716, 2.3083432, 1.6260376, 0
1652, 2998388421, 0.7838235, 0.100067906, 0.36152747, -0.49487585, -1.0306554, 1.2457151, 0.5125313, 0
1653, 2998405088, 0.7831744, 0.09924808, 0.3615368, -0.49606034, -1.7555693, 1.7999719, -0.0057754517, 0
1654, 2998421755, 0.7824916, 0.098225504, 0.36151493, -0.49735567, -3.2359667, 1.4812217, -0.35959053, 0
1656, 2998455089, 0.78051305, 0.09454462, 0.3619334, -0.5008613, 0.0044526015, 2.414882, 1.3018064, 0
1657, 2998471756, 0.77938783, 0.09236525, 0.36279684, -0.5023932, 0.87459636, 5.2846556, -0.017798424, 0
1658, 2998488423, 0.7778812, 0.08985623, 0.36429432, -0.5040967, -0.056218427, 3.783667, -0.9979305, 0
1660, 2998521757, 0.77417, 0.084924474, 0.36843944, -0.5076398, -1.1425564, 3.3790233, 0.610198, 0
1661, 2998538424, 0.77281755, 0.08279294, 0.37043095, -0.50860226, -0.82252455, 3.5674405, 0.36373806, 0
1664, 2998588425, 0.77067786, 0.07869734, 0.37497023, -0.5091729, 1.7540915, 2.3471198, -1.13239, 0
1665, 2998605092, 0.7705778, 0.07746087, 0.3758834, -0.50884026, 1.540034, 1.6487983, -0.910923, 0
1667, 2998638426, 0.7708891, 0.07560881, 0.3776532, -0.5073345, -0.041107386, 2.896489, 0.47916222, 0
1668, 2998655093, 0.7710698, 0.07466326, 0.37844434, -0.50661016, 0.93224126, 0.99871176, 1.5723448, 0
1669, 2998671760, 0.77127045, 0.07381291, 0.37955523, -0.5055971, 0.8430218, 1.3382725, -0.4461012, 0
1671, 2998705094, 0.77234906, 0.07213005, 0.3809834, -0.50311327, 1.2198668, -0.5077027, -1.5151978, 0
1672, 2998721761, 0.77291256, 0.071714185, 0.38122773, -0.50212145, -0.18868159, 1.1694236, -0.75994015, 0
