sep=,
DeviceTag:,Xsens_DOT_4,,,,,,,,,,,,,,,,,
FirmwareVersion:,3.0.0,,,,,,,,,,,,,,,,,
AppVersion:,2023.6.1,,,,,,,,,,,,,,,,,
SyncStatus:,Synced,,,,,,,,,,,,,,,,,
OutputRate:,60Hz,,,,,,,,,,,,,,,,,
FilterProfile:,General,,,,,,,,,,,,,,,,,
Measurement Mode:,Sensor fusion Mode - Extended (Quaternion),,,,,,,,,,,,,,,,,
StartTime:,2025-05-05 11:39:12.239 +0200,,,,,,,,,,,,,,,,,
 2025,,,,,,,,,,,,,,,,,,,

PacketCounter,SampleTimeFine,Quat_W,Quat_X,Quat_Y,Quat_Z,FreeAcc_X,FreeAcc_Y,FreeAcc_Z,Status
1, 1945250692, 0.645794, 0.28693357, -0.59236693, 0.3869313, 0.111731224, -0.11490209, 0.07316017, 0
2, 1945267359, 0.64563364, 0.2865716, -0.5925089, 0.38724977, 0.16372257, -0.11628809, 0.05331707, 0
3, 1945284026, 0.64544827, 0.2862661, -0.5926278, 0.3876026, 0.1641079, -0.122643456, 0.043792725, 0
4, 1945300693, 0.64527017, 0.28596258, -0.59275335, 0.38793096, 0.16788594, -0.13543634, 0.027659416, 0
5, 1945317360, 0.6451066, 0.28566688, -0.59287304, 0.38823798, 0.18924484, -0.106629536, 0.076405525, 0
6, 1945334027, 0.6449527, 0.28539217, -0.59298855, 0.38851905, 0.14603576, -0.08721129, 0.08317375, 0
7, 1945350694, 0.6447953, 0.28517243, -0.5930722, 0.38881382, 0.1467852, -0.061555244, 0.07413292, 0
8, 1945367361, 0.6446866, 0.2849356, -0.593158, 0.38903704, 0.216536, -0.1421605, 0.031111717, 0
9, 1945384028, 0.6445904, 0.2847193, -0.5932396, 0.38923028, 0.30305248, -0.18058115, 0.042170525, 0
10, 1945400695, 0.64451534, 0.2845065, -0.5933372, 0.38936144, 0.26350394, -0.15047655, 0.09657383, 0
11, 1945417362, 0.6444489, 0.28438878, -0.59337294, 0.38950288, 0.14824586, -0.15960804, 0.10262108, 0
12, 1945434029, 0.6444224, 0.28433073, -0.59337723, 0.3895823, 0.06830511, -0.09156264, 0.057911873, 0
13, 1945450696, 0.64443207, 0.2843345, -0.59335583, 0.38959613, 0.1294111, -0.21443218, 0.012356758, 0
14, 1945467363, 0.644461, 0.28437862, -0.5933286, 0.38955754, 0.10772564, -0.2559211, 0.051071167, 0
15, 1945484030, 0.64451724, 0.28444704, -0.59329, 0.38947338, 0.06978119, -0.30261418, 0.13450909, 0
16, 1945500697, 0.6446003, 0.2845539, -0.59321177, 0.38937703, 0.06477584, -0.3054225, 0.16397095, 0
17, 1945517364, 0.6446661, 0.28467733, -0.59315157, 0.38926968, 0.13582838, -0.24961011, 0.09332657, 0
18, 1945534031, 0.6447699, 0.28476968, -0.5930975, 0.38911268, 0.13558899, -0.15729535, 0.06900978, 0
19, 1945550698, 0.6448819, 0.28487486, -0.5930378, 0.3889411, 0.10196415, -0.0037839627, 0.05070877, 0
20, 1945567365, 0.64500034, 0.285014, -0.59296465, 0.38875422, 0.12071734, 0.027032439, 0.030351639, 0
21, 1945584032, 0.64510685, 0.2851599, -0.59288806, 0.38858718, 0.23477957, 0.023118392, 0.030618668, 0
22, 1945600699, 0.6452147, 0.2852723, -0.5928328, 0.38841006, 0.1929201, 0.010601142, 0.058250427, 0
23, 1945617366, 0.64532846, 0.28537348, -0.59276855, 0.3882445, 0.07905631, -0.016297894, 0.048535347, 0
24, 1945634033, 0.6454345, 0.28547058, -0.5927202, 0.38807082, 0.1040046, -0.040450033, 0.018406868, 0
25, 1945650700, 0.6455258, 0.28553578, -0.5926846, 0.38792527, 0.12904297, -0.07806078, -0.025269508, 0
26, 1945667367, 0.6456046, 0.28555834, -0.59269035, 0.3877686, 0.10357545, -0.06479484, 0.04128933, 0
27, 1945684034, 0.6456529, 0.28561962, -0.5926702, 0.38767388, 0.0371559, 0.006094528, 0.0890522, 0
28, 1945700701, 0.64567524, 0.2856981, -0.5926428, 0.38762072, 0.050760016, -0.0024283566, 0.09951401, 0
29, 1945717368, 0.64570653, 0.28571308, -0.59262997, 0.3875771, 0.11536465, -0.0067177936, 0.094779015, 0
30, 1945734035, 0.64574486, 0.28565592, -0.5926568, 0.38751432, 0.11910469, -0.063540265, 0.07233429, 0
31, 1945750702, 0.6457478, 0.28559077, -0.5926828, 0.38751778, 0.08499639, -0.07453643, 0.08117008, 0
32, 1945767369, 0.645706, 0.28556785, -0.5926835, 0.38760316, -0.012763483, -0.083471805, 0.13020992, 0
33, 1945784036, 0.64569235, 0.28554606, -0.5926577, 0.38768145, -0.07199084, -0.13581944, 0.15609169, 0
34, 1945800703, 0.6456517, 0.2855547, -0.59262174, 0.3877978, 0.02602272, -0.20035198, 0.13088703, 0
35, 1945817370, 0.6456558, 0.2854656, -0.5926304, 0.38784325, 0.07685479, -0.22278468, 0.06914139, 0
36, 1945834037, 0.6456446, 0.28535306, -0.59265864, 0.38790157, 0.096166894, -0.20987062, 0.07626915, 0
37, 1945850704, 0.6456005, 0.28525522, -0.5926902, 0.38799864, 0.097937346, -0.20156007, 0.041308403, 0
38, 1945867371, 0.64556134, 0.2851375, -0.5927276, 0.3880935, 0.09411885, -0.14541362, -0.001832962, 0
39, 1945884038, 0.645528, 0.28501907, -0.592787, 0.3881451, 0.10664362, -0.06980656, 0.06128025, 0
40, 1945900705, 0.6455182, 0.2849266, -0.5928115, 0.38819185, 0.17908819, -0.05361193, 0.07565689, 0
41, 1945917372, 0.64552623, 0.2848339, -0.59283185, 0.38821545, 0.21806103, -0.08527779, 0.0804739, 0
42, 1945934039, 0.6455321, 0.28479424, -0.5928351, 0.38822997, 0.17940067, -0.08802242, 0.045103073, 0
43, 1945950706, 0.645565, 0.28477418, -0.5928269, 0.3882024, 0.16038127, -0.039988704, 0.026101112, 0
44, 1945967373, 0.64560175, 0.2847998, -0.59280145, 0.38816124, 0.21491061, -0.061188906, 0.03675461, 0
45, 1945984040, 0.6456811, 0.28479034, -0.59280205, 0.38803515, 0.22069333, -0.036166295, 0.04959011, 0
46, 1946000707, 0.64574784, 0.2848758, -0.5927506, 0.38794, 0.12549783, 0.042236462, 0.03377247, 0
47, 1946017374, 0.6458283, 0.2849908, -0.59268993, 0.38781425, 0.15287368, 0.03983086, 0.08287907, 0
48, 1946034041, 0.64590436, 0.28513426, -0.59261966, 0.38768974, 0.20242362, -0.007941751, 0.038744926, 0
49, 1946050708, 0.64600635, 0.28524813, -0.59255654, 0.38753217, 0.19582507, -0.0424222, 0.06602287, 0
50, 1946067375, 0.6460897, 0.2853966, -0.5924758, 0.38740754, 0.14370988, -0.041153874, 0.090605736, 0
51, 1946084042, 0.6461892, 0.28553563, -0.59239644, 0.3872605, 0.1249272, -0.08559585, 0.053814888, 0
52, 1946100709, 0.6462952, 0.28566608, -0.5923222, 0.38710076, 0.13108878, -0.13804361, 0.027600288, 0
53, 1946117376, 0.64639235, 0.285792, -0.59226435, 0.3869341, 0.060051225, -0.18189573, 0.06180954, 0
54, 1946134043, 0.6464865, 0.2859371, -0.59219766, 0.38677168, -0.018019168, -0.19907516, 0.10041046, 0
55, 1946150710, 0.64658904, 0.2860907, -0.592116, 0.38661173, -0.060847826, -0.27824748, 0.1169014, 0
56, 1946167377, 0.64668614, 0.2862113, -0.59205264, 0.38645697, -0.036805432, -0.34650096, 0.09070206, 0
57, 1946184044, 0.6467872, 0.28628615, -0.59200376, 0.3863073, -0.015535939, -0.3472771, 0.1006937, 0
58, 1946200711, 0.64686954, 0.28636262, -0.5919504, 0.38619438, -0.03999228, -0.28283608, 0.17673874, 0
59, 1946217378, 0.6469649, 0.28641087, -0.5918976, 0.38607994, -0.049292654, -0.27841333, 0.12767124, 0
60, 1946234045, 0.64705795, 0.2864228, -0.5918652, 0.38596475, 0.004849493, -0.24918512, 0.10914612, 0
61, 1946250712, 0.6471408, 0.2864041, -0.591856, 0.38585368, 0.00636699, -0.2065177, 0.047177315, 0
62, 1946267379, 0.6471905, 0.28641275, -0.5918486, 0.38577563, 0.003997753, -0.1625736, 0.007413864, 0
63, 1946284046, 0.64723164, 0.2864231, -0.5918343, 0.3857207, 0.039390583, -0.17356183, 0.010998726, 0
64, 1946300713, 0.6472489, 0.28648907, -0.59179705, 0.3856998, 0.06513793, -0.12283255, 0.10415554, 0
65, 1946317380, 0.64729714, 0.28649706, -0.5917818, 0.38563642, -0.013071485, -0.10343565, 0.08482933, 0
66, 1946334047, 0.6473454, 0.28653687, -0.59174883, 0.38557613, -0.039552405, -0.039603814, 0.08861542, 0
67, 1946350714, 0.64737236, 0.28659707, -0.5917055, 0.38555273, 0.07554157, -0.042482994, 0.10499382, 0
68, 1946367381, 0.6474129, 0.286598, -0.5916873, 0.38551202, 0.15210213, -0.054966416, 0.030950546, 0
69, 1946384048, 0.6474066, 0.2866031, -0.59167373, 0.38553968, 0.14462249, 0.003983336, 0.026499748, 0
70, 1946400715, 0.6473679, 0.2866234, -0.59165573, 0.38561732, 0.06253356, 0.054273304, -0.024533272, 0
71, 1946417382, 0.64736164, 0.2865729, -0.59166807, 0.38564637, 0.11106135, 0.068063274, 0.032902718, 0
72, 1946434049, 0.64730734, 0.28651565, -0.5916966, 0.38573602, 0.123169705, 0.03022239, 0.07874489, 0
73, 1946450716, 0.64724064, 0.28643048, -0.591729, 0.38586164, 0.07375279, 0.038267206, 0.013699532, 0
74, 1946467383, 0.6471603, 0.28631634, -0.59178, 0.3860028, 0.16059875, 0.057155393, -0.0020608902, 0
75, 1946484050, 0.6470632, 0.28615928, -0.5918533, 0.38616982, 0.28589967, 0.033365455, 0.034365654, 0
76, 1946500717, 0.64696395, 0.28595063, -0.59195477, 0.38633516, 0.2768322, 0.079149626, 0.06681728, 0
77, 1946517384, 0.6468525, 0.28577173, -0.59205055, 0.3865071, 0.15069221, 0.13165885, 0.088573456, 0
78, 1946534051, 0.64677674, 0.28559807, -0.59211844, 0.3866582, 0.15210816, 0.07895427, 0.090807915, 0
79, 1946550718, 0.6466789, 0.28549254, -0.5921506, 0.38685036, 0.2146643, -0.011839034, 0.034199715, 0
80, 1946567385, 0.64659745, 0.2853721, -0.59219986, 0.38700008, 0.29604357, -0.055630587, 0.07656193, 0
81, 1946584052, 0.64651924, 0.2852764, -0.59222966, 0.38715562, 0.27351415, -0.04912446, 0.11740208, 0
82, 1946600719, 0.64649034, 0.28515193, -0.59227586, 0.38722485, 0.199931, -0.012412569, 0.08081722, 0
83, 1946617386, 0.6464765, 0.2850862, -0.59228694, 0.38727963, 0.15809004, -0.065054454, 0.049666405, 0
84, 1946634053, 0.6464367, 0.28517893, -0.5922307, 0.38736352, 0.17842011, -0.14705352, 0.07127571, 0
85, 1946650720, 0.6464946, 0.28522405, -0.5921935, 0.3872906, 0.19250083, -0.23309158, 0.13050556, 0
86, 1946667387, 0.6465772, 0.2853229, -0.5921212, 0.38719064, 0.16684236, -0.21465915, 0.06738186, 0
87, 1946684054, 0.64666736, 0.28543746, -0.59204775, 0.38706788, 0.18590735, -0.19567643, 0.07016468, 0
88, 1946700721, 0.6467681, 0.28554964, -0.5919914, 0.3869029, 0.19698621, -0.201278, 0.07548714, 0
89, 1946717388, 0.6468757, 0.2856905, -0.59191585, 0.38673452, 0.11924036, -0.18139708, 0.005194664, 0
90, 1946734055, 0.64699835, 0.28585893, -0.5918281, 0.38653916, 0.10903007, -0.09107181, 0.082476616, 0
91, 1946750722, 0.64714736, 0.286071, -0.5917153, 0.38630545, 0.10132423, -0.115396835, 0.0811224, 0
92, 1946767389, 0.64734584, 0.28627577, -0.5916137, 0.3859769, 0.17025898, -0.1351062, 0.10571098, 0
93, 1946784056, 0.6475629, 0.28649372, -0.59149164, 0.38563773, 0.20264624, -0.13204062, 0.11757469, 0
94, 1946800723, 0.6477612, 0.28676653, -0.59134394, 0.3853282, 0.1585972, -0.12732773, 0.10517597, 0
95, 1946817390, 0.6480026, 0.287004, -0.5912091, 0.38495257, 0.13395713, -0.08649001, 0.11737442, 0
96, 1946834057, 0.6482209, 0.2873292, -0.59103376, 0.38461143, 0.08596018, -0.03632767, 0.04145527, 0
97, 1946850724, 0.6484699, 0.28762263, -0.5908748, 0.38421658, 0.16566233, -0.016096326, -0.028772354, 0
98, 1946867391, 0.64872885, 0.28790265, -0.5907371, 0.3837813, 0.21999642, 0.0059175054, -0.0070266724, 0
99, 1946884058, 0.64898944, 0.2881872, -0.5906021, 0.38333467, 0.23445146, 0.005976513, 0.028772354, 0
100, 1946900725, 0.649198, 0.28854382, -0.5904199, 0.38299385, 0.24775137, -0.021702325, 0.077978134, 0
101, 1946917392, 0.6494142, 0.2888576, -0.5902725, 0.38261762, 0.23711036, -0.039103925, 0.011195183, 0
102, 1946934059, 0.64963573, 0.28916916, -0.5901206, 0.38224027, 0.19395962, -0.025411524, 0.0010538101, 0
103, 1946950726, 0.64987487, 0.289461, -0.5899853, 0.3818216, 0.16452543, -0.04059677, 0.027026176, 0
104, 1946967393, 0.65013915, 0.28974763, -0.58984756, 0.38136667, 0.1592246, -0.026018808, 0.07699776, 0
105, 1946984060, 0.6503945, 0.29006654, -0.5896959, 0.3809233, 0.21597007, -0.05514936, 0.11428833, 0
106, 1947000727, 0.65067166, 0.29040387, -0.58953047, 0.38044867, 0.17277932, -0.027818423, 0.06995487, 0
107, 1947017394, 0.6509317, 0.2908166, -0.58933735, 0.37998733, 0.13800763, -0.0039340514, 0.06777859, 0
108, 1947034061, 0.65123004, 0.29123387, -0.5891489, 0.37944853, 0.13000564, -0.07972416, 0.039603233, 0
109, 1947050728, 0.6515622, 0.29164797, -0.58896, 0.37885293, 0.12834774, -0.22347808, 0.1096611, 0
110, 1947067395, 0.6519033, 0.2921214, -0.5887453, 0.3782346, 0.054211725, -0.2889408, 0.11950779, 0
111, 1947084062, 0.6522609, 0.29264176, -0.58846986, 0.37764394, 0.043777693, -0.30554846, 0.08423042, 0
112, 1947100729, 0.6526214, 0.29319534, -0.5881702, 0.37705845, 0.076046705, -0.25202158, 0.11569214, 0
113, 1947117396, 0.65298843, 0.2937215, -0.587908, 0.3764217, 0.03967623, -0.22260962, 0.08845425, 0
114, 1947134063, 0.6533622, 0.29423317, -0.5876502, 0.37577546, 0.025213603, -0.22612917, 0.08010578, 0
115, 1947150730, 0.6537553, 0.294717, -0.5874017, 0.3751006, 0.025859108, -0.1606068, 0.09593773, 0
116, 1947167397, 0.6541931, 0.29516184, -0.58717054, 0.3743486, 0.048988674, -0.19699873, -0.012927055, 0
117, 1947184064, 0.65460944, 0.29567367, -0.5869096, 0.37362558, 0.14734198, -0.15468135, -0.02401638, 0
118, 1947200731, 0.6549743, 0.29621944, -0.5866476, 0.37296447, 0.2193089, -0.07435807, 0.07456398, 0
119, 1947217398, 0.655353, 0.2966812, -0.58642745, 0.3722775, 0.11471624, 0.062221985, 0.018352509, 0
120, 1947234065, 0.65569323, 0.29719087, -0.5861782, 0.37166438, 0.03921982, 0.16246709, 0.1091156, 0
121, 1947250732, 0.65603334, 0.2976912, -0.5859297, 0.37105522, 0.058362138, 0.12520458, 0.007153511, 0
122, 1947267399, 0.6563966, 0.2981283, -0.5857215, 0.37038958, 0.14964479, 0.0850932, -0.033899307, 0
123, 1947284066, 0.6567322, 0.2985393, -0.5855413, 0.3697483, 0.17446907, 0.056097504, 0.013806343, 0
124, 1947300733, 0.6570017, 0.29893434, -0.58535093, 0.3692514, 0.10693575, 0.030269243, -0.002547264, 0
125, 1947317400, 0.6572409, 0.29923013, -0.58521986, 0.3687936, -0.07816874, 0.071742296, 0.072078705, 0
126, 1947334067, 0.65742105, 0.29952165, -0.58508676, 0.3684469, -0.2190856, 0.0058430755, 0.15127373, 0
127, 1947350734, 0.65758646, 0.29976273, -0.5849716, 0.3681384, -0.21399711, -0.11803451, 0.16683769, 0
128, 1947367401, 0.6577253, 0.2999313, -0.58487284, 0.36791012, -0.1666868, -0.22042781, 0.19777012, 0
129, 1947384068, 0.6578303, 0.30001348, -0.5848089, 0.36775675, -0.19720995, -0.18766327, 0.17052078, 0
130, 1947400735, 0.65787935, 0.30000874, -0.58478904, 0.3677043, -0.14993294, -0.13920565, 0.04161167, 0
131, 1947417402, 0.6578177, 0.299945, -0.584814, 0.36782688, -0.107568294, -0.122741245, -9.756088E-4, 0
132, 1947434069, 0.65774184, 0.29970556, -0.5849329, 0.3679687, -0.10439776, -0.030076798, 0.076895714, 0
133, 1947450736, 0.65761715, 0.29944158, -0.5850452, 0.36822778, -0.074078456, 0.008816692, 0.10125542, 0
134, 1947467403, 0.65746814, 0.29911473, -0.585173, 0.3685566, 0.060312245, -0.055190083, 0.06817818, 0
135, 1947484070, 0.65729463, 0.2987109, -0.58534664, 0.36891776, 0.19036308, -0.053284593, 0.06978893, 0
136, 1947500737, 0.65707314, 0.29829034, -0.5855284, 0.3693639, 0.14064933, 0.015599864, 0.021194458, 0
137, 1947517404, 0.65683556, 0.29784167, -0.58574986, 0.36979693, 0.1460836, 0.07839158, 0.04712391, 0
138, 1947534071, 0.65662044, 0.29739377, -0.58596, 0.37020636, 0.18291317, 0.056889635, 0.03517723, 0
139, 1947550738, 0.6564208, 0.29697663, -0.58616847, 0.3705653, 0.25451666, 0.031356186, 0.07398701, 0
140, 1947567405, 0.656202, 0.29669806, -0.58630097, 0.37096575, 0.19047976, -0.028709121, 0.031448364, 0
141, 1947584072, 0.6560531, 0.29644772, -0.5864227, 0.3712366, 0.18147911, -0.091119304, 0.059624672, 0
142, 1947600739, 0.65600413, 0.2961851, -0.5865367, 0.37135267, 0.1984415, -0.19629925, 0.148983, 0
143, 1947617406, 0.6559785, 0.29598537, -0.5866197, 0.37142628, 0.1768068, -0.22310807, 0.110118866, 0
144, 1947634073, 0.6559642, 0.29588854, -0.5866393, 0.37149775, 0.14762673, -0.22433928, 0.047585487, 0
145, 1947650740, 0.6559118, 0.29593337, -0.58660156, 0.37161392, 0.15937434, -0.1518109, 0.0073394775, 0
146, 1947667407, 0.65588915, 0.29598823, -0.5865682, 0.37166294, 0.121167935, -0.17628154, -0.0052461624, 0
147, 1947684074, 0.65592843, 0.2960141, -0.58654356, 0.3716121, 0.11770648, -0.2096381, 0.06661701, 0
148, 1947700741, 0.656022, 0.29599383, -0.5865552, 0.3714444, 0.11373188, -0.20818444, 0.13880348, 0
149, 1947717408, 0.6560511, 0.29609203, -0.586499, 0.37140334, 0.09518478, -0.18484543, 0.07869434, 0
150, 1947734075, 0.65611875, 0.29612935, -0.586475, 0.3712923, 0.17655064, -0.19219254, 0.04475689, 0
151, 1947750742, 0.6561564, 0.29618427, -0.58644277, 0.37123272, 0.20840192, -0.19828807, 0.02202034, 0
152, 1947767409, 0.6561996, 0.29624495, -0.58640814, 0.3711627, 0.11854836, -0.116045356, 0.052690506, 0
153, 1947784076, 0.65625185, 0.2963469, -0.58636266, 0.3710608, 0.09994739, -0.026405597, 0.05374527, 0
154, 1947800743, 0.6563418, 0.29646498, -0.586291, 0.3709207, 0.13422422, -0.049611606, 0.10231209, 0
155, 1947817410, 0.65645856, 0.29656982, -0.5862486, 0.37069726, 0.15670516, -0.013643455, 0.074596405, 0
156, 1947834077, 0.6565886, 0.29671165, -0.5861667, 0.37048268, 0.16906966, 0.059308715, 0.08377266, 0
157, 1947850744, 0.6567244, 0.29686907, -0.58606625, 0.37027484, 0.20771194, 0.048268516, 0.09360695, 0
158, 1947867411, 0.6568461, 0.29704282, -0.585964, 0.37008163, 0.25014362, 0.04892587, 0.046486855, 0
159, 1947884078, 0.6569895, 0.29719052, -0.5858718, 0.36985415, 0.22742978, 0.05574481, 0.024119377, 0
160, 1947900745, 0.65712094, 0.29733783, -0.58578295, 0.3696427, 0.18565857, 0.0637716, -0.013673782, 0
161, 1947917412, 0.6572331, 0.2975176, -0.58568555, 0.36945298, 0.14535584, 0.124834, 0.041736603, 0
162, 1947934079, 0.6573612, 0.29767275, -0.58560777, 0.36922348, 0.15264973, 0.05304879, 0.03175831, 0
163, 1947950746, 0.6574874, 0.29777467, -0.5855571, 0.36899707, 0.20751256, -0.008491481, 0.017783165, 0
164, 1947967413, 0.6575901, 0.29785806, -0.58550566, 0.36882803, 0.15914235, -0.005423318, 0.057219505, 0
165, 1947984080, 0.6576781, 0.29791054, -0.5854788, 0.36867148, 0.06848013, 0.032365795, 0.07297611, 0
166, 1948000747, 0.65775275, 0.29796433, -0.585453, 0.36853567, 0.101644084, 0.0064677945, 0.052275658, 0
167, 1948017414, 0.6578099, 0.29800668, -0.58544225, 0.3684166, 0.14083193, -0.0339695, 0.12595081, 0
168, 1948034081, 0.6578613, 0.29804936, -0.5854262, 0.36831594, 0.064557694, -0.0732633, 0.050343513, 0
169, 1948050748, 0.65792423, 0.29809058, -0.58540386, 0.36820528, 0.029294949, -0.10281864, 0.036162376, 0
170, 1948067415, 0.6580091, 0.29809222, -0.5854044, 0.36805153, 0.09159248, -0.16151504, 0.06677914, 0
171, 1948084082, 0.6580585, 0.2981116, -0.5853997, 0.3679551, 0.044739246, -0.13907267, 0.13653088, 0
172, 1948100749, 0.6581262, 0.29809535, -0.5854039, 0.36784047, -0.060989, -0.10864268, 0.12255764, 0
173, 1948117416, 0.6581869, 0.2981038, -0.5853865, 0.36775255, -0.053147804, -0.052551694, 0.1514492, 0
174, 1948134083, 0.6582403, 0.2981399, -0.5853503, 0.36768544, 0.024069216, -0.14819936, 0.03357029, 0
175, 1948150750, 0.65828997, 0.29812708, -0.58533996, 0.36762336, 0.106402, -0.15853551, -0.004178047, 0
176, 1948167417, 0.6583006, 0.2981162, -0.58534664, 0.36760244, 0.045246176, -0.1246838, 0.034303665, 0
177, 1948184084, 0.6583025, 0.29808378, -0.5853594, 0.36760488, -0.03092123, -0.040091295, 0.13642597, 0
178, 1948200751, 0.65830034, 0.29805332, -0.5853638, 0.36762658, -0.037602924, -0.056246813, 0.08756065, 0
179, 1948217418, 0.65826386, 0.29803494, -0.5853675, 0.367701, 0.074322976, -0.07883213, 0.09323883, 0
180, 1948234085, 0.6582408, 0.29793438, -0.58540666, 0.36776116, 0.11482866, -0.1118375, 0.010375023, 0
181, 1948250752, 0.65818745, 0.29779184, -0.58548224, 0.36785188, 0.05371687, -0.07046648, 0.08109093, 0
182, 1948267419, 0.6581291, 0.29764122, -0.5855474, 0.36797464, -0.04775086, -0.038682494, 0.12309551, 0
183, 1948284086, 0.6580758, 0.29748806, -0.585608, 0.3680973, -0.061149567, -0.06948236, 0.120500565, 0
184, 1948300753, 0.65800464, 0.29733974, -0.5856688, 0.3682477, 0.008564055, -0.15432107, 0.08909893, 0
185, 1948317420, 0.6579174, 0.29718778, -0.58573914, 0.3684142, 0.038279723, -0.22324395, 0.039074898, 0
186, 1948334087, 0.657839, 0.29697692, -0.58583426, 0.368573, 0.04816436, -0.23191838, 0.053009987, 0
187, 1948350754, 0.6577332, 0.29677147, -0.58592325, 0.3687857, 0.004979422, -0.12284205, 0.118349075, 0
188, 1948367421, 0.6576244, 0.29657784, -0.5860008, 0.36901233, -0.053326167, -0.057753064, 0.18069172, 0
189, 1948384088, 0.6575105, 0.29639858, -0.58605695, 0.36926976, -0.061175495, -0.0745675, 0.11087704, 0
190, 1948400755, 0.65739614, 0.2962099, -0.58613133, 0.36950678, 0.0055462504, -0.10156876, 0.0768919, 0
191, 1948417422, 0.6572697, 0.29599267, -0.5862292, 0.36975047, 0.04314113, -0.1771871, 0.0014238358, 0
192, 1948434089, 0.6571235, 0.29576698, -0.5863268, 0.37003613, 0.13394484, -0.20965214, 0.0033159256, 0
193, 1948450756, 0.65695155, 0.2955181, -0.586442, 0.37035757, 0.068286784, -0.114614986, 0.084041595, 0
194, 1948467423, 0.65680426, 0.29525203, -0.5865536, 0.37065423, -0.013413012, -0.076678135, 0.087052345, 0
195, 1948484090, 0.65666723, 0.29501137, -0.58665466, 0.3709286, 0.04309598, -0.117078766, 0.11138153, 0
196, 1948500757, 0.65656626, 0.2947705, -0.58674616, 0.37115428, 0.11493285, -0.19480634, 0.07491875, 0
197, 1948517424, 0.656463, 0.29454798, -0.58682895, 0.37138242, 0.18983135, -0.22217411, 0.04640484, 0
198, 1948534091, 0.6563483, 0.29437244, -0.5869003, 0.37161162, 0.17769414, -0.18733974, 0.034433365, 0
199, 1948550758, 0.65623564, 0.2942221, -0.5869633, 0.37183002, 0.13918488, -0.092328064, 0.06455135, 0
200, 1948567425, 0.6561835, 0.29401538, -0.5870514, 0.37194625, 0.17411928, -0.00620919, 0.074718475, 0
201, 1948584092, 0.65608275, 0.293937, -0.5870721, 0.37215328, 0.2078809, 0.05347961, -0.018540382, 0
202, 1948600759, 0.6560292, 0.29382756, -0.58712727, 0.37224686, 0.3119548, 0.042243503, 0.030556679, 0
203, 1948617426, 0.6560012, 0.2937255, -0.58716154, 0.37232298, 0.38654643, 0.025542837, 0.10028362, 0
204, 1948634093, 0.6559897, 0.29365835, -0.5871748, 0.37237537, 0.28129733, 0.09188551, 0.068717, 0
205, 1948650760, 0.6560267, 0.2936053, -0.58719456, 0.37232077, 0.2332941, 0.13579798, 0.024222374, 0
206, 1948667427, 0.6560651, 0.29363176, -0.5871701, 0.3722707, 0.29200515, 0.04657384, 0.012768745, 0
207, 1948684094, 0.6561204, 0.29365677, -0.5871558, 0.372176, 0.36386457, -0.0131272515, 0.023107529, 0
208, 1948700761, 0.6561784, 0.29370424, -0.5871455, 0.37205246, 0.29793987, -0.051650938, 0.027778625, 0
209, 1948717428, 0.6562582, 0.2938127, -0.5871, 0.37189776, 0.19970153, -0.054936297, 0.0353899, 0
210, 1948734095, 0.6563555, 0.29397103, -0.5870315, 0.37170923, 0.17376322, -0.13240539, 0.017004967, 0
211, 1948750762, 0.65649223, 0.29416692, -0.58693665, 0.3714624, 0.17183945, -0.17125876, 0.11428833, 0
212, 1948767429, 0.65665245, 0.29438773, -0.586843, 0.37115207, 0.08629031, -0.16836716, 0.12519455, 0
213, 1948784096, 0.65684015, 0.29464355, -0.5867215, 0.37080914, 0.07285718, -0.20310476, 0.12152672, 0
214, 1948800763, 0.6570526, 0.29490513, -0.5865842, 0.37044185, 0.09411818, -0.29623738, 0.11504364, 0
215, 1948817430, 0.6572629, 0.29519683, -0.58642286, 0.37009153, 0.053633276, -0.3039528, 0.11488247, 0
216, 1948834097, 0.6574972, 0.2954574, -0.58628, 0.36969358, -0.005652196, -0.26207867, 0.0788908, 0
217, 1948850764, 0.65772945, 0.29573232, -0.58612365, 0.36930835, -0.056708813, -0.24552508, 0.06071186, 0
218, 1948867431, 0.65796036, 0.29597962, -0.5859928, 0.36890647, 0.024686558, -0.18708314, 0.088801384, 0
219, 1948884098, 0.65817153, 0.29624367, -0.58585846, 0.36853093, 0.04402356, -0.11246278, 0.08389473, 0
220, 1948900765, 0.6583886, 0.29649127, -0.5857328, 0.36814368, 0.059418686, -0.10612172, 0.03694725, 0
221, 1948917432, 0.6585905, 0.2967424, -0.58559924, 0.3677923, 0.06482336, -0.115554176, 0.026761055, 0
222, 1948934099, 0.6587799, 0.29698017, -0.58548456, 0.36744362, 0.063762434, -0.057615157, 0.05244732, 0
223, 1948950766, 0.6589687, 0.2971919, -0.5853657, 0.36712348, 0.053920712, 0.06256284, 0.14238358, 0
224, 1948967433, 0.6591363, 0.29741955, -0.5852546, 0.36681527, 0.01902587, 0.05594574, 0.08435249, 0
225, 1948984100, 0.65931875, 0.29761663, -0.58513856, 0.36651248, 0.10947218, 0.013092942, 0.031769753, 0
226, 1949000767, 0.65943164, 0.29786083, -0.58501524, 0.36630732, 0.16837275, 0.049855236, 0.0233078, 0
227, 1949017434, 0.6595512, 0.2980322, -0.5849334, 0.36608362, 0.09750194, 0.096390635, 0.079200745, 0
228, 1949034101, 0.6596691, 0.29813173, -0.584872, 0.3658879, 0.07581068, 0.09796617, 0.08231068, 0
229, 1949050768, 0.65974486, 0.29821402, -0.58482414, 0.36576113, 0.059952434, 0.11233493, 0.07236099, 0
230, 1949067435, 0.6597832, 0.2982636, -0.5847995, 0.36569098, 0.016570132, 0.074350245, 0.0181818, 0
231, 1949084102, 0.6597984, 0.29831165, -0.5847747, 0.3656639, 0.02475719, 0.008544453, 0.07352829, 0
232, 1949100769, 0.65980625, 0.2983214, -0.58476543, 0.36565638, 0.041555528, -0.11176833, 0.090236664, 0
233, 1949117436, 0.65980285, 0.29828155, -0.58477014, 0.36568758, 0.06808205, -0.15032968, 0.08642101, 0
234, 1949134103, 0.6597538, 0.29822397, -0.58478796, 0.3657946, 0.022440694, -0.123996206, 0.1333952, 0
235, 1949150770, 0.65970147, 0.29811507, -0.5848366, 0.3658999, -0.10551331, -0.10625113, 0.06142521, 0
236, 1949167437, 0.6596561, 0.2979845, -0.5849006, 0.36598545, -0.13526021, -0.14918908, 0.08988285, 0
237, 1949184104, 0.6595945, 0.29788458, -0.5849371, 0.36611977, -0.11502245, -0.28745866, 0.13485527, 0
238, 1949200771, 0.65952265, 0.29775542, -0.58498573, 0.36627635, -0.1077471, -0.33231458, 0.14194393, 0
239, 1949217438, 0.65943474, 0.29758814, -0.5850582, 0.366455, -0.08834975, -0.3342025, 0.11420536, 0
240, 1949234105, 0.65934324, 0.2973892, -0.58515054, 0.36663374, -0.086368985, -0.30263108, 0.04014969, 0
241, 1949250772, 0.65922594, 0.29718956, -0.585239, 0.3668653, 0.016158199, -0.23054914, 0.18230438, 0
242, 1949267439, 0.659116, 0.29697374, -0.58533096, 0.3670906, -0.05552464, -0.15291058, 0.08022022, 0
243, 1949284106, 0.6590029, 0.29677966, -0.5854, 0.36734062, -0.015264147, -0.058097053, 0.113245964, 0
244, 1949300773, 0.6589153, 0.29658574, -0.58546215, 0.3675555, 0.05048621, -0.098481596, 0.071460724, 0
245, 1949317440, 0.65881455, 0.29639855, -0.5855396, 0.36776346, 0.16539757, -0.051142894, 0.07549381, 0
246, 1949334107, 0.6587079, 0.29619494, -0.58562434, 0.36798355, 0.17021501, -0.025754523, -0.015242577, 0
247, 1949350774, 0.65857965, 0.2960044, -0.58570796, 0.3682331, 0.19576003, 0.060408175, -0.0036401749, 0
248, 1949367441, 0.6584471, 0.29580134, -0.58580744, 0.36847514, 0.2871701, 0.100833625, 0.05559063, 0
249, 1949384108, 0.6583292, 0.29560274, -0.5859042, 0.36869147, 0.26753718, 0.14410752, 0.08674812, 0
250, 1949400775, 0.65822875, 0.29543626, -0.58597416, 0.3688929, 0.27522582, 0.13996191, -4.6634674E-4, 0
251, 1949417442, 0.65814024, 0.29528785, -0.58603126, 0.36907884, 0.34710467, 0.168742, -0.06695938, 0
252, 1949434109, 0.65806574, 0.29515168, -0.5860876, 0.36923105, 0.33425045, 0.15877175, 0.22931767, 0
253, 1949450776, 0.6580128, 0.29501012, -0.5861385, 0.36935776, 0.38990673, 0.048776228, 0.047035217, 0
254, 1949467443, 0.65797246, 0.29492944, -0.58614403, 0.36948496, 0.21273963, 0.08327545, -0.053380966, 0
255, 1949484110, 0.6579548, 0.29490277, -0.5861297, 0.36956066, 0.31751692, 0.11752389, -0.0079164505, 0
256, 1949500777, 0.6579163, 0.29489964, -0.5861203, 0.3696465, 0.4186049, 0.06020165, -0.038721085, 0
257, 1949517444, 0.657901, 0.29477903, -0.586173, 0.3696866, 0.47914428, 0.09229308, -0.08729172, 0
258, 1949534111, 0.65784264, 0.2946749, -0.5862508, 0.36974993, 0.39889395, 0.2916262, 0.029595375, 0
259, 1949550778, 0.6578039, 0.29462445, -0.58629376, 0.36979103, 0.34622246, 0.3359007, 0.04259205, 0
260, 1949567445, 0.657823, 0.29461566, -0.5863047, 0.3697463, 0.4042424, 0.27595177, 0.03263855, 0
261, 1949584112, 0.657895, 0.29464558, -0.58629, 0.36961794, 0.38424203, 0.22281437, 0.043218613, 0
262, 1949600779, 0.65799266, 0.2947687, -0.5862241, 0.36945075, 0.3742624, 0.24227475, 0.14398289, 0
263, 1949617446, 0.6581056, 0.29495698, -0.5861361, 0.36923876, 0.3744631, 0.08148534, 0.057562828, 0
264, 1949634113, 0.65822375, 0.29518667, -0.5860293, 0.36901394, 0.32067358, -0.063427724, -0.0096235275, 0
265, 1949650780, 0.65837866, 0.29537725, -0.5859327, 0.36873832, 0.17507143, -0.109404005, 0.031641006, 0
266, 1949667447, 0.6585412, 0.2955684, -0.5858428, 0.36843762, -0.08415196, -0.05908118, 0.07723141, 0
267, 1949684114, 0.6587047, 0.29579788, -0.5857183, 0.3681589, -0.13567638, -0.14089072, 0.12561893, 0
268, 1949700781, 0.65885824, 0.29600614, -0.58560646, 0.36789465, -0.019539056, -0.33239004, 0.11575508, 0
269, 1949717448, 0.6589708, 0.2961455, -0.5855248, 0.36771107, -0.031356186, -0.47313547, 0.10449028, 0
270, 1949734115, 0.65905434, 0.29619193, -0.58551246, 0.3675435, -0.18415679, -0.4797548, 0.10323143, 0
271, 1949750782, 0.65911466, 0.29620638, -0.5855085, 0.36742976, -0.2593359, -0.47776178, 0.18235874, 0
272, 1949767449, 0.6591797, 0.2961572, -0.58551043, 0.36734986, -0.2170351, -0.5034399, 0.2078228, 0
273, 1949784116, 0.6592433, 0.29606023, -0.5855333, 0.36727723, -0.20889476, -0.45600364, 0.14272308, 0
274, 1949800783, 0.65928906, 0.2959792, -0.5855593, 0.36721903, -0.27317083, -0.32786334, 0.124173164, 0
275, 1949817450, 0.6593444, 0.29591718, -0.5855735, 0.3671467, -0.21637708, -0.24529876, 0.15587139, 0
276, 1949834117, 0.6593814, 0.2959041, -0.5855535, 0.36712316, -0.09241769, -0.25191954, 0.12270355, 0
277, 1949850784, 0.6594038, 0.2958772, -0.5855451, 0.36711776, -0.040667735, -0.1434238, 0.12179661, 0
278, 1949867451, 0.6594186, 0.29580066, -0.5855475, 0.36714917, -0.01566647, -0.044097096, 0.012722015, 0
279, 1949884118, 0.6594014, 0.29570282, -0.58557576, 0.36721376, 0.06515492, 0.07086992, 0.059876442, 0
280, 1949900785, 0.6593176, 0.295633, -0.5855898, 0.36739784, 0.09275899, 0.17161481, 0.060352325, 0
281, 1949917452, 0.65925276, 0.29549026, -0.5856335, 0.36755937, 0.13834983, 0.22253464, 0.065737724, 0
282, 1949934119, 0.6591607, 0.29531285, -0.585688, 0.36778015, 0.1904136, 0.27313307, 0.0094976425, 0
283, 1949950786, 0.6590571, 0.2950987, -0.5857747, 0.36799967, 0.22030371, 0.23716888, -0.048247337, 0
284, 1949967453, 0.65892416, 0.29487428, -0.58587873, 0.36825186, 0.27118984, 0.18074465, -0.080739975, 0
285, 1949984120, 0.6587625, 0.2946443, -0.5860027, 0.36852786, 0.21108921, 0.1017118, -0.008066177, 0
286, 1950000787, 0.6585892, 0.29437086, -0.5861383, 0.36884034, 0.095578834, 0.073116675, 0.056015015, 0
287, 1950017454, 0.6584223, 0.2940677, -0.5862814, 0.36915258, 0.06895956, 0.071126066, 0.12594223, 0
288, 1950034121, 0.6582446, 0.29377386, -0.5864225, 0.3694792, 0.08822504, -0.013722578, 0.061232567, 0
289, 1950050788, 0.6580426, 0.29350343, -0.5865562, 0.36984134, 0.108726986, -0.0839632, 0.054959297, 0
290, 1950067455, 0.657865, 0.2931927, -0.5867103, 0.37015933, 0.0523293, -0.0965006, 0.06905365, 0
291, 1950084122, 0.6576723, 0.2929207, -0.5868362, 0.37051746, -0.0033853273, -0.104181625, 0.09036255, 0
292, 1950100789, 0.6574632, 0.29268628, -0.58694756, 0.3708973, 0.03641652, -0.14775738, 0.1032238, 0
293, 1950117456, 0.6573127, 0.29236418, -0.58709157, 0.37118992, 0.060140632, -0.22609554, 0.06262493, 0
294, 1950134123, 0.6571041, 0.29206836, -0.5872399, 0.37155744, 0.06374142, -0.2624489, 0.04302597, 0
295, 1950150790, 0.6568944, 0.2917388, -0.58740306, 0.37192902, -0.030727668, -0.16675508, 0.08184147, 0
296, 1950167457, 0.6566861, 0.2914302, -0.58756, 0.37229073, -0.1059656, -0.1779794, 0.1300497, 0
297, 1950184124, 0.6564857, 0.29115018, -0.587693, 0.37265325, -0.021066543, -0.22970024, 0.115260124, 0
298, 1950200791, 0.6563176, 0.29083595, -0.58782595, 0.37298465, 0.07667255, -0.21929248, 0.11277008, 0
299, 1950217458, 0.65614957, 0.29051977, -0.58795595, 0.37332177, 0.10626566, -0.13490494, 0.13633537, 0
300, 1950234125, 0.655954, 0.29024914, -0.5880679, 0.37369943, 0.09825451, -0.106503144, 0.059155464, 0
301, 1950250792, 0.65577036, 0.28997952, -0.5881801, 0.3740541, 0.1445798, -0.15732507, 0.0554657, 0
302, 1950267459, 0.65559196, 0.28970045, -0.5883034, 0.37438905, 0.18173079, -0.11297093, 0.11963558, 0
303, 1950284126, 0.65542674, 0.28943053, -0.58840656, 0.3747247, 0.0716064, 0.010754325, 0.10317421, 0
304, 1950300793, 0.6552734, 0.28919908, -0.58849955, 0.3750255, 0.12155551, 0.023577487, 0.0131139755, 0
305, 1950317460, 0.65512574, 0.2889838, -0.5885912, 0.37530553, 0.257176, -0.05102924, 0.010960579, 0
306, 1950334127, 0.65498936, 0.28875893, -0.58869445, 0.37555468, 0.25789773, -0.080976285, 0.0532732, 0
307, 1950350794, 0.65489197, 0.28850818, -0.58878964, 0.37576804, 0.19197908, 0.029965041, 0.043224335, 0
308, 1950367461, 0.6547786, 0.28832772, -0.5888625, 0.37598988, 0.21670516, 0.07441618, 0.022642136, 0
309, 1950384128, 0.65465796, 0.2882024, -0.5889176, 0.37620965, 0.31362042, 0.017870978, 3.5095215E-4, 0
310, 1950400795, 0.6545745, 0.28803232, -0.58899575, 0.37636277, 0.33407587, 0.05288082, 0.050735474, 0
311, 1950417462, 0.65446395, 0.28794473, -0.58904046, 0.37655196, 0.1938919, 0.09658542, 0.028327942, 0
312, 1950434129, 0.6543893, 0.28788123, -0.5890682, 0.37668675, 0.2065624, 0.11567701, 0.037884712, 0
313, 1950450796, 0.65437347, 0.28776908, -0.5891195, 0.3767198, 0.3292395, 0.021818664, 0.03795147, 0
314, 1950467463, 0.6543788, 0.28765833, -0.58917236, 0.37671256, 0.33381817, -0.012981633, 0.071679115, 0
315, 1950484130, 0.65437907, 0.28759894, -0.589193, 0.3767252, 0.23777017, -0.012445648, 0.08557701, 0
316, 1950500797, 0.6543989, 0.28758663, -0.58918667, 0.37670985, 0.18324062, -0.010472141, 0.041088104, 0
317, 1950517464, 0.65446585, 0.28757986, -0.5891829, 0.3766045, 0.2048769, -0.027789366, 0.079509735, 0
318, 1950534131, 0.65452087, 0.28764534, -0.5891465, 0.37651587, 0.20540394, -0.05701793, 0.087659836, 0
319, 1950550798, 0.6545842, 0.2877207, -0.5891134, 0.37639982, 0.15082677, -0.07755631, 0.043766975, 0
320, 1950567465, 0.6546691, 0.28782913, -0.58904296, 0.3762796, 0.12315072, -0.13755713, 0.02448845, 0
321, 1950584132, 0.6547556, 0.2879459, -0.5889928, 0.3761185, 0.10064631, -0.117158346, 0.03661251, 0
322, 1950600799, 0.6548408, 0.28806174, -0.5889285, 0.375982, 0.0593637, -0.14275572, 0.10462284, 0
323, 1950617466, 0.6549399, 0.28815645, -0.5888784, 0.37581527, 0.013470232, -0.13311628, 0.12361336, 0
324, 1950634133, 0.65505326, 0.2882378, -0.5888329, 0.3756268, 0.022121077, -0.16763337, 0.091807365, 0
325, 1950650800, 0.6551484, 0.28833646, -0.5887764, 0.3754734, 0.07677446, -0.18511465, 0.062945366, 0
326, 1950667467, 0.6552351, 0.28839442, -0.58874196, 0.3753316, 0.06993542, -0.14594513, 0.072421074, 0
327, 1950684134, 0.655286, 0.28847992, -0.58870417, 0.37523624, -0.027576357, -0.09850562, -0.030991554, 0
328, 1950700801, 0.65534127, 0.2885768, -0.5886507, 0.3751492, 0.017120644, -0.18322766, 0.36075497, 0
329, 1950717468, 0.65540296, 0.28863293, -0.5886124, 0.37505832, 0.052516606, -0.20484415, 0.1068182, 0
330, 1950734135, 0.6554973, 0.2886594, -0.5885592, 0.37495658, -0.056928303, -0.12098041, 0.10729408, 0
331, 1950750802, 0.655619, 0.28864396, -0.5884968, 0.37485346, 0.069766216, 0.052015487, 0.038424492, 0
332, 1950767469, 0.6556844, 0.28859916, -0.58848834, 0.3747866, 0.2775555, 0.092871085, -0.009399414, 0
333, 1950784136, 0.6557085, 0.28845766, -0.5885196, 0.37480447, 0.51955014, 0.12786062, -0.08543968, 0
334, 1950800803, 0.65568423, 0.28819364, -0.58864367, 0.3748553, 0.538145, 0.3947145, -0.083434105, 0
335, 1950817470, 0.6555807, 0.28799808, -0.5887371, 0.37504008, 0.35480267, 0.65256137, -0.15783882, 0
336, 1950834137, 0.65551996, 0.28781715, -0.5888363, 0.37512955, 0.43952236, 0.7695727, -0.0562191, 0
337, 1950850804, 0.65551215, 0.28771335, -0.5889017, 0.37511986, 0.50311404, 0.6483613, 0.015314102, 0
338, 1950867471, 0.65555805, 0.28772512, -0.58888453, 0.37505758, 0.61320066, 0.5201875, 0.058916092, 0
339, 1950884138, 0.65563965, 0.2878084, -0.5888306, 0.37493557, 0.6969152, 0.43918407, 0.026711464, 0
340, 1950900805, 0.65571487, 0.28792763, -0.5887613, 0.37482136, 0.66569465, 0.39763904, -0.047779083, 0
341, 1950917472, 0.6557835, 0.28803387, -0.5887137, 0.37469476, 0.46708575, 0.32482535, -0.09549141, 0
342, 1950934139, 0.6558311, 0.28817642, -0.5886547, 0.37459412, 0.14237529, 0.27041245, -0.09566116, 0
343, 1950950806, 0.65594685, 0.28830034, -0.5886023, 0.37437838, 0.025852626, 0.09825596, -0.006866455, 0
344, 1950967473, 0.6560574, 0.2884611, -0.5885276, 0.3741786, 0.073201835, -0.10743474, 0.08065319, 0
345, 1950984140, 0.6561642, 0.2885598, -0.5884829, 0.37398505, 0.096960366, -0.3405727, 0.09697437, 0
346, 1951000807, 0.6562062, 0.28864026, -0.588458, 0.37388873, 0.017526386, -0.5045435, 0.1258316, 0
347, 1951017474, 0.6562542, 0.28862625, -0.5884887, 0.37376675, -0.15999818, -0.60710067, 0.15243053, 0
348, 1951034141, 0.656323, 0.28856188, -0.58850926, 0.3736634, -0.27938628, -0.5514184, 0.20444489, 0
349, 1951050808, 0.6563736, 0.2885136, -0.5885328, 0.37357423, -0.3490888, -0.5564478, 0.2850647, 0
350, 1951067475, 0.65648913, 0.28838044, -0.58857965, 0.37340057, -0.30248678, -0.5965194, 0.28032684, 0
351, 1951084142, 0.65656924, 0.28833753, -0.58857524, 0.37329972, -0.25269213, -0.5939199, 0.25666428, 0
352, 1951100809, 0.6566339, 0.28831112, -0.58855844, 0.37323317, -0.2699223, -0.5197968, 0.14570332, 0
353, 1951117476, 0.65670073, 0.28826633, -0.5885578, 0.37315103, -0.1410559, -0.40983492, 0.15101051, 0
354, 1951134143, 0.656742, 0.28820962, -0.58855194, 0.37313136, -0.12143638, -0.36853364, 0.040737152, 0
355, 1951150810, 0.65678596, 0.28812993, -0.5885577, 0.3731064, -0.19225511, -0.16590205, 0.02917862, 0
356, 1951167477, 0.65683323, 0.28809342, -0.58855826, 0.37305048, -0.15212291, -0.064770475, 0.06618881, 0
357, 1951184144, 0.65686375, 0.28811818, -0.58852625, 0.3730281, 0.022295864, -0.14290905, 0.031323433, 0
358, 1951200811, 0.65687615, 0.28809148, -0.58852404, 0.37303054, 0.12812468, -0.17406301, -0.012989998, 0
359, 1951217478, 0.6568611, 0.2880126, -0.58856267, 0.37305722, 0.041942205, -0.049906198, 0.059645653, 0
360, 1951234145, 0.6568242, 0.28794044, -0.58859664, 0.3731242, -0.014409433, -0.0021180087, 0.1052084, 0
361, 1951250812, 0.65678585, 0.28785878, -0.58862406, 0.37321115, 0.018629357, -0.026968626, 0.1335659, 0
362, 1951267479, 0.6567302, 0.28777683, -0.58864796, 0.37333465, 0.022018708, -0.028046405, 0.12600231, 0
363, 1951284146, 0.65669125, 0.2876609, -0.5886891, 0.37342766, -0.02375138, 0.002804864, 0.0866909, 0
364, 1951300813, 0.65663725, 0.28759685, -0.5887137, 0.37353322, 0.038447358, -0.06305479, 0.06075859, 0
365, 1951317480, 0.6565837, 0.28750208, -0.58874255, 0.37365463, 0.14478499, -0.13917705, 0.06610489, 0
366, 1951334147, 0.6565224, 0.2873407, -0.5887989, 0.37379783, 0.12957671, -0.04821264, 0.026734352, 0
367, 1951350814, 0.65640604, 0.28719857, -0.5888584, 0.3740177, 0.06698527, 0.056421712, 0.019809723, 0
368, 1951367481, 0.6563214, 0.2870096, -0.58895206, 0.3741639, 0.10478913, 0.08471387, 0.026802063, 0
369, 1951384148, 0.65622985, 0.2868442, -0.5890349, 0.37432066, 0.15887792, -0.003719926, 0.052760124, 0
370, 1951400815, 0.656127, 0.28668594, -0.5891066, 0.37450942, 0.20879908, 0.003109661, 0.026460648, 0
371, 1951417482, 0.65599406, 0.28652298, -0.589179, 0.37475297, 0.21590167, 0.08028563, 0.05832672, 0
372, 1951434149, 0.65587723, 0.28633812, -0.5892632, 0.37496626, 0.15466516, 0.1244414, 0.017663956, 0
373, 1951450816, 0.65575033, 0.28618976, -0.5893406, 0.3751798, 0.18978932, 0.053539958, 0.037908554, 0
374, 1951467483, 0.655644, 0.28602076, -0.5894237, 0.37536374, 0.21448259, -0.015510347, 0.05100918, 0
375, 1951484150, 0.65555227, 0.2858567, -0.58948886, 0.3755466, 0.1704179, 0.03637975, 0.09315014, 0
376, 1951500817, 0.6554542, 0.28572288, -0.5895475, 0.37572765, 0.19426785, 0.066469066, 0.051735878, 0
377, 1951517484, 0.65534574, 0.28559956, -0.58960813, 0.3759155, 0.24946617, -0.030719956, 0.0053195953, 0
378, 1951534151, 0.6552356, 0.28546014, -0.58967865, 0.37610257, 0.27549246, -0.058301456, 0.08479023, 0
379, 1951550818, 0.6551416, 0.2852949, -0.58976275, 0.37625983, 0.1163671, 0.04544264, 0.1187439, 0
380, 1951567485, 0.65507203, 0.28518403, -0.5898029, 0.3764022, 0.016101426, 0.057173945, 0.12884712, 0
381, 1951584152, 0.6550127, 0.2850926, -0.58983076, 0.3765309, 0.14967902, -0.051043987, 0.1302185, 0
382, 1951600819, 0.6549424, 0.28498185, -0.5898686, 0.37667793, 0.24621159, -0.1584128, 0.03402424, 0
383, 1951617486, 0.6548793, 0.28481737, -0.589933, 0.37681112, 0.17741394, -0.16550924, 0.05329132, 0
384, 1951634153, 0.6548087, 0.2846745, -0.589987, 0.3769569, 0.035475977, -0.08321421, 0.08549309, 0
385, 1951650820, 0.65476036, 0.28455874, -0.59002393, 0.37707058, -0.05778972, -0.09095066, 0.07092762, 0
386, 1951667487, 0.6547157, 0.2844448, -0.59005934, 0.3771785, 0.04932037, -0.18049207, 0.033823967, 0
387, 1951684154, 0.65465635, 0.28430817, -0.5901236, 0.3772842, 0.09138193, -0.22968538, 0.025223732, 0
388, 1951700821, 0.6545797, 0.28415263, -0.5901957, 0.3774216, 0.062214386, -0.23738427, 0.08393383, 0
389, 1951717488, 0.654487, 0.2839974, -0.5902744, 0.37757623, 0.01947066, -0.22089015, 0.13101959, 0
390, 1951734155, 0.6544244, 0.2838252, -0.590351, 0.3776942, -2.1367839E-4, -0.237258, 0.09786606, 0
391, 1951750822, 0.65435404, 0.2836628, -0.5904235, 0.37782463, 0.0041180025, -0.20298922, 0.07661533, 0
392, 1951767489, 0.6542998, 0.28351915, -0.59048826, 0.37792534, -0.021261446, -0.20177521, 0.071762085, 0
393, 1951784156, 0.6542294, 0.28344193, -0.5905107, 0.37806982, -0.061070893, -0.13908966, 0.12356281, 0
394, 1951800823, 0.6541689, 0.2833642, -0.5905487, 0.37817356, -0.0067760185, -0.1667828, 0.06365967, 0
395, 1951817490, 0.65409076, 0.28332078, -0.5905518, 0.3783364, 0.06724833, -0.18355067, 0.10097504, 0
396, 1951834157, 0.65401053, 0.2832248, -0.59059703, 0.3784763, 0.06105167, -0.050625127, 0.11592102, 0
397, 1951850824, 0.6539494, 0.28311703, -0.5906379, 0.37859878, -0.013863168, -0.009814678, 0.054143906, 0
398, 1951867491, 0.65389687, 0.28303686, -0.59065443, 0.37872368, 0.091003746, -0.065671794, 0.06911564, 0
399, 1951884158, 0.6538015, 0.28293628, -0.59068936, 0.37890893, 0.19967999, -0.009784838, -0.0705719, 0
400, 1951900825, 0.6536807, 0.28278515, -0.5907734, 0.37909937, 0.11310739, 0.14536288, -0.14884472, 0
401, 1951917492, 0.6535146, 0.28267822, -0.59087205, 0.37931144, 0.1593987, 0.08541324, -0.07362652, 0
402, 1951934159, 0.6533824, 0.28249496, -0.590998, 0.37947953, 0.26160693, 2.1043744E-4, -0.07375145, 0
403, 1951950826, 0.653222, 0.2822822, -0.59115905, 0.37966317, 0.38648766, -0.046783272, -0.024939537, 0
404, 1951967493, 0.65301675, 0.28210622, -0.59127486, 0.3799664, 0.20981385, 0.19706668, 0.2761774, 0
405, 1951984160, 0.65284604, 0.28184435, -0.5914228, 0.38022393, 0.09980971, 0.13757233, 0.1464119, 0
406, 1952000827, 0.6526758, 0.28153884, -0.59157366, 0.38050717, 0.08852946, 0.22589684, 0.28227234, 0
407, 1952017494, 0.6524857, 0.28129476, -0.5916936, 0.3808274, 0.020206464, 0.24368042, 0.26402283, 0
408, 1952034161, 0.6522972, 0.2809922, -0.5918235, 0.38117185, 0.07826574, -0.16320953, -0.28479576, 0
409, 1952050828, 0.6521205, 0.28056905, -0.5919934, 0.38152218, 0.50577694, 0.0040772115, 0.34667587, 0
410, 1952067495, 0.65191543, 0.28015715, -0.5921541, 0.38192558, 0.19470996, 0.20728625, -0.083091736, 0
411, 1952084162, 0.65163845, 0.27973735, -0.59233606, 0.38242328, 3.366105E-4, 0.53233, -0.004981041, 0
412, 1952100829, 0.6513945, 0.27928573, -0.5925501, 0.38283703, 0.16107863, 0.30199406, 0.21538162, 0
413, 1952117496, 0.6511304, 0.27885675, -0.5927095, 0.383352, 0.39314923, -0.17308664, 0.2218914, 0
414, 1952134163, 0.6509529, 0.27834344, -0.5928715, 0.38377574, 0.37495124, -0.23019466, -0.10007858, 0
415, 1952150830, 0.6507944, 0.2779357, -0.59299374, 0.3841512, 0.4702947, 0.29149956, 0.0598526, 0
416, 1952167497, 0.65066034, 0.2776293, -0.5930661, 0.38448796, 0.40444693, 0.46423262, 0.020820618, 0
417, 1952184164, 0.65056396, 0.2773802, -0.59309775, 0.38478193, 0.595331, 0.5269334, 0.0704546, 0
418, 1952200831, 0.6505116, 0.2771203, -0.5931353, 0.38499978, 0.67781824, 0.6678378, -0.009853363, 0
419, 1952217498, 0.6505116, 0.27685058, -0.5931903, 0.38510883, 0.5001674, 0.84147733, -0.046527863, 0
420, 1952234165, 0.65049434, 0.27677456, -0.59313786, 0.38527334, 0.8730261, 0.71524704, 0.005344391, 0
421, 1952250832, 0.6504824, 0.27674446, -0.59309006, 0.38538873, 0.729028, 0.4785686, -0.02391243, 0
422, 1952267499, 0.6504772, 0.27673817, -0.5930647, 0.38544106, 0.5952014, 0.104178384, 0.22829247, 0
423, 1952284166, 0.65051293, 0.27671275, -0.593012, 0.3854802, 0.31809828, 0.035387352, 0.0853014, 0
424, 1952300833, 0.6506012, 0.2766981, -0.5929217, 0.3854805, 0.106012866, 0.109046385, -0.24626255, 0
425, 1952317500, 0.65071106, 0.2766837, -0.59285516, 0.38540775, 0.5216019, 0.24389969, -6.599426E-4, 0
426, 1952334167, 0.6508042, 0.2766291, -0.59282213, 0.38534066, 0.6328676, 0.13066421, -0.15868664, 0
427, 1952350834, 0.650878, 0.27650702, -0.59284514, 0.38526845, 0.5887537, 0.27182886, -0.49321365, 0
428, 1952367501, 0.65087396, 0.27643538, -0.59290904, 0.38522807, 0.6912241, 0.26575086, -0.5912256, 0
429, 1952384168, 0.6508284, 0.27639586, -0.5930317, 0.3851446, 0.4669409, 0.18927501, -0.21600246, 0
430, 1952400835, 0.6508802, 0.27635422, -0.59311706, 0.3849553, 0.11368897, -0.11384208, 0.532959, 0
431, 1952417502, 0.65105313, 0.27639148, -0.59310365, 0.38465708, -0.061372634, 0.24394293, 0.88506985, 0
432, 1952434169, 0.6513474, 0.27668947, -0.5928841, 0.3842826, -1.6495257E-4, 0.66036546, 1.285388, 0
433, 1952450836, 0.65170753, 0.27713522, -0.59255356, 0.38386086, 0.6336666, 0.66028035, 0.19100761, 0
434, 1952467503, 0.65202206, 0.2774636, -0.5923515, 0.3834007, 0.717724, 0.5147376, -0.79779816, 0
435, 1952484170, 0.6522182, 0.27759883, -0.5922851, 0.38307166, 0.6531661, 0.68758935, -0.49054527, 0
436, 1952500837, 0.6523647, 0.2775962, -0.5922558, 0.38286966, 0.35690907, 0.6929719, -0.7465048, 0
437, 1952517504, 0.65246755, 0.27761647, -0.5921762, 0.38280252, 0.46766153, 0.698924, -0.37219524, 0
438, 1952534171, 0.65257317, 0.27754503, -0.5921305, 0.38274503, 0.9230021, 0.5561056, 0.0463171, 0
439, 1952550838, 0.65264726, 0.27743813, -0.592123, 0.38270804, 0.7456808, 0.7385655, -0.013390541, 0
440, 1952567505, 0.65272784, 0.27737427, -0.5921344, 0.3825989, 0.7177155, 0.9697153, -0.022384644, 0
441, 1952584172, 0.6528296, 0.27742004, -0.59209955, 0.38244617, 0.96900284, 1.1927938, -0.2220726, 0
442, 1952600839, 0.6528913, 0.27748486, -0.5920847, 0.38231707, 1.3033159, 1.3642651, -0.18849468, 0
443, 1952617506, 0.6529516, 0.27747616, -0.5920645, 0.38225117, 1.2763097, 1.6882621, -0.08414364, 0
444, 1952634173, 0.6530118, 0.27744555, -0.59203786, 0.38221183, 1.3181833, 2.2357738, -0.15207005, 0
445, 1952650840, 0.65310085, 0.27743924, -0.59198064, 0.3821532, 1.6048301, 2.0740426, 0.08619785, 0
446, 1952667507, 0.6533182, 0.27736175, -0.5918466, 0.3820451, 1.8463925, 1.7646741, 0.1348753, 0
447, 1952684174, 0.6535693, 0.27720386, -0.59170705, 0.38194633, 1.7870086, 1.8500252, -0.02268219, 0
448, 1952700841, 0.6538258, 0.27712324, -0.5915009, 0.3818851, 1.3793421, 2.1215205, -0.20879078, 0
449, 1952717508, 0.6540868, 0.27705023, -0.59126335, 0.38185918, 1.599148, 1.6970866, -0.51879597, 0
450, 1952734175, 0.6543055, 0.2768587, -0.5911551, 0.38179106, 1.4573681, 1.5195518, -0.6798153, 0
451, 1952750842, 0.6545148, 0.27659392, -0.59110326, 0.3817045, 0.83982825, 1.3971603, -0.71473885, 0
452, 1952767509, 0.6547116, 0.2764852, -0.5910151, 0.38158223, 0.8381861, 1.7091343, -0.53101444, 0
453, 1952784176, 0.65484846, 0.27648675, -0.5909248, 0.38148624, 1.581644, 2.4801977, 0.15527344, 0
454, 1952800843, 0.65489733, 0.2764512, -0.5909524, 0.38138524, 2.143659, 2.3346694, -0.66563034, 0
455, 1952817510, 0.65492547, 0.27619365, -0.59104, 0.3813878, 1.8102455, 1.9184245, -0.6010704, 0
456, 1952834177, 0.65493286, 0.2757633, -0.59116495, 0.38149294, 2.0482907, 2.4504147, -1.2182446, 0
457, 1952850844, 0.65491515, 0.27531362, -0.5912725, 0.3816813, 1.4152186, 2.3681831, 0.0828886, 0
458, 1952867511, 0.6549807, 0.27487373, -0.59126365, 0.38189936, 0.47991025, 1.0459672, -1.7067242, 0
459, 1952884178, 0.65495515, 0.27444744, -0.59135205, 0.38211313, 1.3816699, 1.6930451, 0.96828747, 0
460, 1952900845, 0.6548817, 0.27402735, -0.5915503, 0.38223368, 1.4493539, 2.0650082, -0.050919533, 0
461, 1952917512, 0.654434, 0.2739398, -0.5920797, 0.38224375, 3.4501972, 3.4647803, -2.849474, 0
462, 1952934179, 0.6541549, 0.27386168, -0.59238, 0.38231173, 1.4099307, 1.9161893, 1.498023, 0
463, 1952950846, 0.6540837, 0.27344605, -0.59249926, 0.38254657, 1.8985916, 1.0380133, -2.684668, 0
464, 1952967513, 0.65388995, 0.27289906, -0.592821, 0.3827696, 0.8019001, 1.112903, 3.420185, 0
465, 1952984180, 0.6539281, 0.27271456, -0.59279776, 0.38287187, 0.21966541, 4.2068577, 2.3896847, 0
466, 1953000847, 0.6541504, 0.27284437, -0.5925546, 0.38277566, 2.5643392, 1.3515629, -2.3222823, 0
467, 1953017514, 0.6542112, 0.27264762, -0.59264076, 0.38267896, 4.149964, 1.2509879, -1.7978668, 0
468, 1953034181, 0.6541446, 0.27239195, -0.5929603, 0.38247985, 2.9073207, 3.6910589, -0.15420341, 0
469, 1953050848, 0.65425014, 0.2727061, -0.59301263, 0.38199425, 0.9387196, 3.0758464, -1.3638592, 0
470, 1953067515, 0.65460306, 0.27337593, -0.59277475, 0.38127923, 2.186512, 2.0098207, -0.51272583, 0
471, 1953084182, 0.6550896, 0.2738036, -0.59258205, 0.3804357, 3.0438104, 1.8397162, 0.7617941, 0
472, 1953100849, 0.6557669, 0.27415997, -0.5922738, 0.37949032, 2.2940192, 2.8079703, 0.75987434, 0
473, 1953117516, 0.65653074, 0.2750302, -0.59171534, 0.37840977, 2.496755, 3.0340686, -0.9130087, 0
474, 1953134183, 0.65724176, 0.27629337, -0.5911882, 0.37707692, 3.354052, 4.047269, 0.19338799, 0
475, 1953150850, 0.6580217, 0.27757442, -0.5907636, 0.3754376, 3.4801493, 3.286417, -2.9044147, 0
476, 1953167517, 0.65896016, 0.27880353, -0.5902657, 0.37365985, 2.6855364, 2.165735, -1.9907222, 0
477, 1953184184, 0.65995264, 0.28013378, -0.5896862, 0.37182376, 4.3948574, 4.5259485, 0.36261368, 0
478, 1953200851, 0.6608399, 0.28170285, -0.58916354, 0.36988628, 2.5008788, 3.1543949, -1.361784, 0
479, 1953217518, 0.66180414, 0.28328016, -0.5885604, 0.36791256, 1.9609447, 2.2158403, -1.571415, 0
480, 1953234185, 0.66291165, 0.2849486, -0.5878068, 0.36582884, 1.6295679, 2.9457147, 0.24164677, 0
481, 1953250852, 0.66394997, 0.28673375, -0.58710563, 0.36367095, 0.34929243, 0.9934193, -3.422418, 0
482, 1953267519, 0.66482884, 0.28840405, -0.58657557, 0.36159375, 0.5437842, -0.50722307, -0.5190964, 0
483, 1953284186, 0.6656161, 0.2904967, -0.58602047, 0.3593636, -1.4177091, 1.2349476, 1.7361336, 0
484, 1953300853, 0.6666252, 0.2931864, -0.5851301, 0.35675007, -2.4468822, -2.2180953, -0.52176476, 0
485, 1953317520, 0.6677525, 0.29611143, -0.5839617, 0.3541309, -1.5460646, -3.2446043, -0.12111378, 0
486, 1953334187, 0.6687336, 0.29928657, -0.58268243, 0.35170934, -2.0256994, -2.6715703, 3.1756096, 0
487, 1953350854, 0.66969484, 0.30260935, -0.58115095, 0.34956452, -4.0455236, -2.8379023, 3.911684, 0
488, 1953367521, 0.6706378, 0.30576316, -0.5795028, 0.3477438, -3.8755107, -2.06109, 1.4295597, 0
489, 1953384188, 0.6714265, 0.30825543, -0.57810766, 0.34634063, -2.8497672, -1.7103097, -0.44265938, 0
490, 1953400855, 0.67184836, 0.3098018, -0.577176, 0.34569627, -2.3859718, -0.8137917, 1.6722803, 0
491, 1953417522, 0.6717912, 0.3104299, -0.576787, 0.34589309, -1.7812954, -0.099389285, 0.91302013, 0
492, 1953434189, 0.67141706, 0.310243, -0.57681704, 0.3467357, -0.7374837, -1.1909765, 1.0807428, 0
493, 1953450856, 0.67088854, 0.30956918, -0.57701707, 0.34802598, 0.11133091, -0.014662003, -0.17178345, 0
494, 1953467523, 0.67028135, 0.30870724, -0.5775283, 0.349112, 0.3666531, 0.0041392366, 0.088861465, 0
495, 1953484190, 0.66980827, 0.3077883, -0.57806563, 0.3499409, 1.0662162, -0.31586194, -0.3080778, 0
496, 1953500857, 0.6695779, 0.30702397, -0.5783595, 0.3505671, 1.5524466, -0.7445451, 0.27666378, 0
497, 1953517524, 0.6695425, 0.30638602, -0.57846516, 0.35101825, 1.627842, -0.26007956, 0.54600143, 0
498, 1953534191, 0.66956985, 0.30591637, -0.5785468, 0.35124108, 1.0538486, 0.41809082, -0.8473997, 0
499, 1953550858, 0.66970724, 0.30563667, -0.57851446, 0.35127553, 0.58113146, 0.9914076, 0.8366575, 0
500, 1953567525, 0.6699585, 0.30541202, -0.5783893, 0.35119814, 0.8612757, 0.90537435, -0.6445761, 0
501, 1953584192, 0.6701775, 0.30531687, -0.5782246, 0.3511344, 1.1863755, 0.7962825, -0.83634186, 0
502, 1953600859, 0.67025805, 0.3052593, -0.57810694, 0.3512245, 1.0598385, 1.6439953, -0.75521755, 0
503, 1953617526, 0.6702176, 0.30509987, -0.5781715, 0.35133368, 0.6684915, 1.7288582, -0.9752388, 0
504, 1953634193, 0.67017394, 0.30507874, -0.57819754, 0.35139242, 0.8544502, 1.8597995, -0.4836464, 0
505, 1953650860, 0.67005026, 0.30526045, -0.5782363, 0.35140684, 1.2862198, 1.6820873, 0.09998703, 0
506, 1953667527, 0.66990376, 0.3055186, -0.57827073, 0.35140514, 0.95935607, 1.5849679, -0.50680923, 0
507, 1953684194, 0.669832, 0.3059053, -0.57822984, 0.35127234, 1.0775071, 1.8235568, -1.2638493, 0
508, 1953700861, 0.6698115, 0.30652043, -0.5781163, 0.3509625, 1.2132685, 2.220259, -0.19170189, 0
509, 1953717528, 0.6698612, 0.30730885, -0.5779103, 0.3505171, 1.4040949, 1.8741632, -0.26203156, 0
510, 1953734195, 0.66991556, 0.30810136, -0.5776931, 0.35007516, 1.134588, 1.3243356, -0.82832146, 0
511, 1953750862, 0.6699498, 0.30886167, -0.57736695, 0.34987774, 0.7925564, 1.7277756, -0.25218678, 0
512, 1953767529, 0.6698863, 0.30928373, -0.577178, 0.3499383, 1.1539292, 2.112556, 0.20183754, 0
513, 1953784196, 0.66961527, 0.30948383, -0.5772589, 0.35014638, 0.80024475, 2.4681835, -0.10320377, 0
514, 1953800863, 0.669279, 0.30954054, -0.57746255, 0.35040322, 0.25960538, 2.0782745, -0.2772169, 0
515, 1953817530, 0.66887397, 0.3093806, -0.57783246, 0.3507081, 1.495195, 1.7350348, 0.783906, 0
516, 1953834197, 0.6684472, 0.30902785, -0.5781725, 0.35127202, 1.6330335, 1.5458783, -0.29389954, 0
517, 1953850864, 0.66802967, 0.30863625, -0.5784986, 0.35187325, 1.2974111, 1.7776979, -0.5995617, 0
518, 1953867531, 0.6676684, 0.30827326, -0.57878846, 0.35239986, 1.6236482, 1.8299407, -0.06866741, 0
519, 1953884198, 0.66734564, 0.30783877, -0.57909924, 0.35288012, 1.679032, 1.6051123, 0.4673481, 0
520, 1953900865, 0.66715896, 0.30741206, -0.57925695, 0.3533463, 1.121391, 1.8721696, 0.32469368, 0
521, 1953917532, 0.6670564, 0.30712527, -0.5792881, 0.3537377, 2.0957398, 2.152952, 0.2245779, 0
522, 1953934199, 0.6669215, 0.30694708, -0.57931954, 0.35409534, 2.5735486, 2.1933074, -1.18962, 0
523, 1953950866, 0.6668015, 0.30687976, -0.5792986, 0.35441342, 2.0105367, 3.536394, -0.5344782, 0
524, 1953967533, 0.6666968, 0.30689663, -0.57927, 0.3546425, 2.406621, 3.2490091, -0.40368557, 0
525, 1953984200, 0.6667071, 0.30686677, -0.57905954, 0.35499248, 2.1924922, 3.2420769, 0.23388386, 0
526, 1954000867, 0.6668089, 0.30689666, -0.57877445, 0.35524, 2.76825, 3.8916337, -0.4484558, 0
527, 1954017534, 0.6667829, 0.3071354, -0.5785719, 0.35541254, 2.6797786, 3.7928352, -1.9587226, 0
528, 1954034201, 0.66684306, 0.30746698, -0.5783162, 0.3554294, 2.8530414, 4.9454165, 1.2270479, 0
529, 1954050868, 0.6667369, 0.30806768, -0.5782118, 0.35527828, 3.0777037, 4.0198045, -2.40336, 0
530, 1954067535, 0.6667139, 0.3086988, -0.5779814, 0.3551485, 2.889097, 3.083733, -0.47223282, 0
531, 1954084202, 0.6667995, 0.30934379, -0.5776259, 0.35500526, 2.4820688, 4.400784, -0.49462795, 0
532, 1954100869, 0.6670844, 0.31054467, -0.5769186, 0.35457128, 1.1488019, 4.2022476, -1.2896938, 0
533, 1954117536, 0.66755736, 0.3121237, -0.5759077, 0.35393736, 2.5484953, 3.52129, -0.78970146, 0
534, 1954134203, 0.66793257, 0.31386742, -0.57506263, 0.3530604, 2.4784324, 3.091447, 0.6441431, 0
535, 1954150870, 0.668434, 0.31551224, -0.5741249, 0.35217032, 2.4940672, 2.182666, 1.2252951, 0
536, 1954167537, 0.6688397, 0.31723025, -0.5732004, 0.35136157, 0.8211627, -0.33120584, -3.5662308, 0
537, 1954184204, 0.6691434, 0.31908372, -0.5723338, 0.35051674, 0.024540829, 0.23925586, -0.032978058, 0
538, 1954200871, 0.66919273, 0.32113805, -0.57188165, 0.3492822, -0.8065031, 0.16351917, 0.6150398, 0
539, 1954217538, 0.6692382, 0.32334796, -0.5715231, 0.34773993, -1.6648759, -4.5033803, -1.817905, 0
540, 1954234205, 0.669309, 0.3256097, -0.5710808, 0.34621602, -3.93644, -4.048683, -4.632148, 0
541, 1954250872, 0.6696679, 0.3283877, -0.5702372, 0.3442835, -3.9383895, -2.3406658, 3.4355383, 0
542, 1954267539, 0.6702808, 0.33174723, -0.5688435, 0.3421691, -2.1256185, -2.9665036, 4.386115, 0
543, 1954284206, 0.6708842, 0.33501807, -0.5674882, 0.34004363, 0.5414418, -4.2496815, -0.031917572, 0
544, 1954300873, 0.6713777, 0.33785203, -0.56645066, 0.33798987, -0.9200446, -2.198978, -2.5645814, 0
545, 1954317540, 0.67189795, 0.34059504, -0.56548226, 0.335817, -2.0505924, -1.1486045, -1.2654047, 0
546, 1954334207, 0.67238456, 0.3428131, -0.5646768, 0.3339364, 0.56629735, -1.6151265, 3.9482584, 0
547, 1954350874, 0.67283523, 0.3439265, -0.5643917, 0.33236244, 1.1900688, -2.5523953, 4.5385914, 0
548, 1954367541, 0.67350835, 0.34390983, -0.5642851, 0.33119506, -0.96007127, -3.887263, 1.2769213, 0
549, 1954384208, 0.6742841, 0.3433125, -0.5640906, 0.33056706, -0.5759871, -2.8153706, 0.12355614, 0
550, 1954400875, 0.67482764, 0.3423869, -0.56422627, 0.3301864, -1.3703291, -2.6445222, 0.45876312, 0
551, 1954417542, 0.67549145, 0.34108233, -0.5643948, 0.3298908, -1.6375601, -3.1734986, 0.8842249, 0
552, 1954434209, 0.67625886, 0.3395604, -0.56462055, 0.32950202, 0.0030062492, -3.593839, 1.4457827, 0
553, 1954450876, 0.67698556, 0.33781192, -0.5650418, 0.32908478, 0.86905503, -2.7198162, -0.08191681, 0
554, 1954467543, 0.67756176, 0.33607918, -0.56562024, 0.32867903, 0.4830003, -2.3288212, -0.2211647, 0
555, 1954484210, 0.678101, 0.3342078, -0.56633884, 0.32823738, 0.69337654, -1.5423092, 0.6701622, 0
556, 1954500877, 0.6785027, 0.3320169, -0.5674874, 0.3276466, 0.5124982, -1.4819155, -0.56641865, 0
557, 1954517544, 0.67903507, 0.3294794, -0.56856614, 0.32723472, 0.13255847, -1.4803355, 0.007329941, 0
558, 1954534211, 0.6794773, 0.32655963, -0.5698974, 0.32692754, 1.9992863, -0.63920426, 0.91121674, 0
559, 1954550878, 0.6797772, 0.32334676, -0.5714858, 0.32672477, 1.092447, -0.89492667, -0.2446804, 0
560, 1954567545, 0.68006885, 0.32015112, -0.5730188, 0.32657984, 0.8474427, 0.46128044, -0.48778343, 0
561, 1954584212, 0.68032855, 0.31657752, -0.5747468, 0.32648632, 1.9508016, -1.1634685, -1.9111152, 0
562, 1954600879, 0.6805643, 0.31265292, -0.5765548, 0.32658857, 2.537444, -0.76874083, -0.30772305, 0
563, 1954617546, 0.6806739, 0.3091082, -0.5783264, 0.3266019, 0.9891164, 1.436056, 0.8434324, 0
564, 1954634213, 0.6808901, 0.30610767, -0.57995325, 0.32609248, -0.84522986, 1.1532273, -1.7879801, 0
565, 1954650880, 0.6812353, 0.303312, -0.5813821, 0.325439, 0.31122795, -0.52176595, 0.42242527, 0
566, 1954667547, 0.68154144, 0.30055305, -0.5826726, 0.32504943, 0.63817775, 0.056430317, 2.0648146, 0
567, 1954684214, 0.68171275, 0.2983401, -0.5836689, 0.3249412, -0.41421914, 0.3909228, -0.45843697, 0
568, 1954700881, 0.68168586, 0.29655156, -0.5845079, 0.32512662, -0.2278728, 1.1299134, 0.48981285, 0
569, 1954717548, 0.68158257, 0.29467195, -0.5853728, 0.32549617, -0.8409798, 1.1723737, -0.9761715, 0
570, 1954734215, 0.6813592, 0.29282153, -0.58622354, 0.326102, -1.4236734, 1.9420283, -0.25876617, 0
571, 1954750882, 0.68109435, 0.29134554, -0.5868088, 0.3269235, -1.2303215, 1.9095378, -0.5850172, 0
572, 1954767549, 0.680721, 0.29004845, -0.58729666, 0.3279768, -0.054000285, 0.8489062, 0.433074, 0
573, 1954784216, 0.6802086, 0.28846237, -0.58793783, 0.329287, 0.56288606, 1.2946334, -0.726244, 0
574, 1954800883, 0.67956287, 0.2868111, -0.58872086, 0.33066076, 0.21674812, 2.0766954, -0.0843029, 0
575, 1954817550, 0.6789444, 0.28549084, -0.5892802, 0.33207476, 0.2969296, 1.9956216, -0.7755022, 0
576, 1954834217, 0.6782649, 0.28455037, -0.5897266, 0.333475, 0.7244797, 1.9645553, -0.059817314, 0
577, 1954850884, 0.67752284, 0.28371567, -0.59019506, 0.3348631, 1.0865664, 2.8552096, 0.7664585, 0
578, 1954867551, 0.67668873, 0.28296003, -0.59075606, 0.33619687, 0.9919315, 3.2678528, -0.5925503, 0
579, 1954884218, 0.67577606, 0.2828185, -0.5910183, 0.33768788, 0.44668862, 2.7375338, -0.30011272, 0
580, 1954900885, 0.6749353, 0.2832736, -0.5908743, 0.33923644, 0.40677795, 3.3403618, -0.61647415, 0
581, 1954917552, 0.6742142, 0.2839745, -0.5904916, 0.3407473, 0.3070509, 2.746552, -0.98055744, 0
582, 1954934219, 0.6735872, 0.2846942, -0.59000415, 0.34222788, 0.6009152, 3.4854314, 1.5564318, 0
583, 1954950886, 0.67287916, 0.28585002, -0.58941895, 0.34366247, 0.2118116, 4.119365, -0.07751751, 0
584, 1954967553, 0.67197853, 0.28756684, -0.58872527, 0.34517825, 0.68093824, 3.3728762, -2.538093, 0
585, 1954984220, 0.67111045, 0.2892136, -0.5879585, 0.34679416, 1.533243, 2.8583858, -0.36142254, 0
586, 1955000887, 0.67031384, 0.29070413, -0.5872026, 0.3483662, 1.0752361, 2.8999813, 1.2979918, 0
587, 1955017554, 0.6695592, 0.2921204, -0.5864919, 0.34982675, 0.35073295, 2.733554, 0.27415562, 0
588, 1955034221, 0.6688315, 0.2935123, -0.58584255, 0.35113886, 0.7948304, 2.2618518, 0.57172775, 0
589, 1955050888, 0.6681601, 0.29493216, -0.5850646, 0.35252222, 1.40026, 1.158684, -0.660697, 0
590, 1955067555, 0.6675711, 0.29619864, -0.58429074, 0.35385695, 2.3092399, 1.7236824, -0.43196392, 0
591, 1955084222, 0.6668205, 0.29738605, -0.5838298, 0.35503533, 2.4553268, 3.6665406, -1.5439606, 0
592, 1955100889, 0.66600525, 0.29866466, -0.5836129, 0.35584792, 1.1387069, 3.2053943, -0.64571285, 0
593, 1955117556, 0.6652535, 0.29999492, -0.5833106, 0.35662976, 1.6493886, 1.7648437, 0.7358465, 0
594, 1955134223, 0.6647514, 0.30088928, -0.5828305, 0.35759658, 1.4630595, 0.31387448, 1.2917442, 0
595, 1955150890, 0.66451836, 0.30118716, -0.5823099, 0.35862535, 2.1022935, 1.0939544, 0.09354591, 0
596, 1955167557, 0.66433084, 0.30139533, -0.5818416, 0.3595569, 2.4830635, 2.595991, -2.1809335, 0
597, 1955184224, 0.66398025, 0.30190197, -0.58162487, 0.36012948, 2.696563, 3.7419386, -1.6316338, 0
598, 1955200891, 0.66354686, 0.30243206, -0.58170986, 0.36034623, 3.2643044, 2.6901126, -0.08053017, 0
599, 1955217558, 0.6632879, 0.30275816, -0.5817951, 0.36041132, 3.1884203, 0.89255303, -0.75814724, 0
600, 1955234225, 0.6634926, 0.3028779, -0.58146435, 0.36046773, 1.7582765, 0.42895836, 0.051197052, 0
601, 1955250892, 0.66410047, 0.3028867, -0.58088046, 0.3602824, 1.5168343, 0.47370943, -0.14317131, 0
602, 1955267559, 0.66478825, 0.30338064, -0.5802441, 0.35962304, 2.8958273, 2.478998, -1.2243834, 0
603, 1955284226, 0.665218, 0.30453718, -0.5798943, 0.35841322, 2.749702, 1.5983087, -2.1444502, 0
604, 1955300893, 0.6658066, 0.30572292, -0.57959026, 0.356799, 1.0702971, 0.29075313, -2.4613657, 0
605, 1955317560, 0.6665935, 0.30684394, -0.5791775, 0.355033, 0.25975558, -1.2965167, -0.4209385, 0
606, 1955334227, 0.6674318, 0.30818763, -0.57863224, 0.35317856, -1.5783687, -0.6231787, 2.1056309, 0
607, 1955350894, 0.66817653, 0.31081745, -0.57779855, 0.35082313, -4.1014895, -1.3664056, 0.20725346, 0
608, 1955367561, 0.66917485, 0.31431013, -0.5763307, 0.34821293, -3.7193964, -3.2122486, 0.028942108, 0
609, 1955384228, 0.6704152, 0.31805497, -0.574342, 0.34570345, -4.0626664, -5.556368, -5.6347866, 0
610, 1955400895, 0.6717335, 0.32151037, -0.57202435, 0.34378573, -4.4804645, -4.829998, 0.9349556, 0
611, 1955417562, 0.6723933, 0.32490364, -0.5703016, 0.34216398, -2.8986712, -0.17842905, 6.763506, 0
612, 1955434229, 0.671854, 0.32815716, -0.56990254, 0.34078068, -1.8506757, -2.2961302, 10.021677, 0
613, 1955450896, 0.67156655, 0.32975808, -0.56983685, 0.33991057, -3.6622016, -6.4985623, 1.3092604, 0
614, 1955467563, 0.67199796, 0.3292798, -0.569568, 0.3399723, -3.37285, -7.5727887, -2.3662248, 0
615, 1955484230, 0.67269963, 0.327695, -0.5692362, 0.34067088, -0.5626286, -2.8765106, -0.53078175, 0
616, 1955500897, 0.67282647, 0.3264603, -0.56952435, 0.34112406, 1.256415, 0.12659661, 2.3827095, 0
617, 1955517564, 0.67273915, 0.32544196, -0.57011586, 0.3412808, 1.7118621, -1.412761, 1.1675663, 0
618, 1955534231, 0.6726041, 0.32394168, -0.57102704, 0.34145108, 1.2683074, -1.5121655, -1.8749642, 0
619, 1955550898, 0.6726104, 0.32228073, -0.57190144, 0.34154707, -0.6401673, -0.93933547, 0.27474308, 0
620, 1955567565, 0.672707, 0.32116526, -0.57230514, 0.3417316, -0.5903545, -0.1453384, 0.7784443, 0
621, 1955584232, 0.6727066, 0.32043895, -0.572542, 0.3420169, 0.53615505, -0.51792145, 0.12572575, 0
622, 1955600899, 0.672711, 0.31942683, -0.5729728, 0.34223345, 0.10120242, -0.07356884, -1.2865906, 0
623, 1955617566, 0.6727984, 0.3183411, -0.573355, 0.34243348, -0.73461556, 1.3516049, -0.9077921, 0
624, 1955634233, 0.67284626, 0.31757602, -0.5736253, 0.342597, 0.027633801, 0.8958633, -0.7642317, 0
625, 1955650900, 0.67287385, 0.316792, -0.57381314, 0.34295416, 0.2922642, -0.44838688, 0.31134892, 0
626, 1955667567, 0.6729887, 0.3155721, -0.5739602, 0.34360656, 0.96143293, -0.29531986, 0.8183527, 0
627, 1955684234, 0.6730511, 0.31440252, -0.57416713, 0.34421042, 0.26711878, 2.1855896, 0.30845356, 0
628, 1955700901, 0.6727226, 0.31364003, -0.57477826, 0.3445278, 2.233702, 2.7857919, -2.6676369, 0
629, 1955717568, 0.6720634, 0.3130935, -0.57579607, 0.344612, 2.378071, 1.5158322, -2.541246, 0
630, 1955734235, 0.6713548, 0.31249115, -0.5769784, 0.34456253, 1.7890887, 0.14682163, 0.7083883, 0
631, 1955750902, 0.671152, 0.31159037, -0.57754546, 0.344823, -1.2758346, -1.6039605, 2.4726048, 0
632, 1955767569, 0.6715285, 0.31087938, -0.5773003, 0.34514228, -1.4942937, 1.9781265, 5.801717, 0
633, 1955784236, 0.67164385, 0.31070024, -0.57736766, 0.34496635, 1.5846398, 0.7907761, -4.708887, 0
634, 1955800903, 0.67149794, 0.31026566, -0.5777968, 0.34492302, 3.1508796, 0.041969977, -4.368369, 0
635, 1955817570, 0.671081, 0.30997717, -0.5785001, 0.34481493, 0.8284023, 2.8458989, -1.9020958, 0
636, 1955834237, 0.67073816, 0.31025028, -0.5788612, 0.34463054, -1.7424206, 1.6302885, 1.9604435, 0
637, 1955850904, 0.670768, 0.31055635, -0.57881373, 0.34437627, -0.07529391, 0.6499138, 2.9176512, 0
638, 1955867571, 0.67100424, 0.31035274, -0.5787312, 0.34423792, -0.5227718, -2.266005, 0.36444092, 0
639, 1955884238, 0.67129534, 0.30987376, -0.5785547, 0.34439877, 1.4258962, -1.1711264, -0.7488241, 0
640, 1955900905, 0.6705485, 0.30882737, -0.5796786, 0.34490362, 10.865517, 1.9016116, -4.33974, 0
641, 1955917572, 0.66964, 0.30910766, -0.58032566, 0.3453289, -6.595217, 6.3510585, -0.85303307, 0
642, 1955934239, 0.6697357, 0.31181297, -0.57909447, 0.3447776, -8.542738, 2.2151122, 6.0420866, 0
643, 1955950906, 0.6706281, 0.31327036, -0.5777777, 0.34393016, 0.30773443, -8.008705, 3.5756636, 0
644, 1955967573, 0.6711005, 0.3127971, -0.5776631, 0.34363195, 4.4314213, -5.426196, -3.0440717, 0
645, 1955984240, 0.6707978, 0.31250197, -0.578175, 0.34363022, -1.9343772, -0.2060291, 1.0387611, 0
646, 1956000907, 0.67049176, 0.31478348, -0.577381, 0.34348053, -5.380371, 2.5630727, -1.2426014, 0
647, 1956017574, 0.67043084, 0.31801277, -0.5758669, 0.34316576, -0.10836378, -2.0750587, -1.1878386, 0
648, 1956034241, 0.67098194, 0.31924856, -0.57472277, 0.34285918, 1.4756014, -0.95788723, -0.5969715, 0
649, 1956050908, 0.6717493, 0.31990644, -0.57390726, 0.34210894, -0.9294337, 3.1039531, 1.4813347, 0
650, 1956067575, 0.6724792, 0.3215776, -0.57265675, 0.3412024, 0.8611118, 2.1747034, 3.4624128, 0
651, 1956084242, 0.6728587, 0.32396367, -0.5712577, 0.3405415, 2.5982125, 0.96204245, 1.3003216, 0
652, 1956100909, 0.67329997, 0.32541698, -0.57019764, 0.34006003, -0.10271896, 0.53712845, -0.10161781, 0
653, 1956117576, 0.6741127, 0.32533938, -0.569442, 0.33979034, 1.2536104, 2.2824125, 1.4273787, 0
654, 1956134243, 0.67454153, 0.3252026, -0.5689875, 0.33983153, 2.1000938, 4.2255206, -3.1196074, 0
655, 1956150910, 0.67444736, 0.32592207, -0.56860954, 0.33996168, 2.8468113, 4.8516107, -3.498187, 0
656, 1956167577, 0.6742551, 0.32648486, -0.56854266, 0.33991507, 5.3794265, 3.5419567, 0.8082838, 0
657, 1956184244, 0.6741627, 0.32585198, -0.56910545, 0.33976373, 3.7429883, 1.0574065, -0.6731243, 0
658, 1956200911, 0.6742277, 0.32469824, -0.5697825, 0.33960456, 2.4738367, 2.344707, 1.1235723, 0
659, 1956217578, 0.67431307, 0.32405415, -0.57004106, 0.33961603, 2.4067822, 2.0273902, -2.150847, 0
660, 1956234245, 0.6743352, 0.32388484, -0.5701533, 0.33954546, 2.331022, 0.5653719, -3.6682525, 0
661, 1956250912, 0.6743988, 0.32354078, -0.5704726, 0.33921087, 3.4943552, 1.9772439, 1.5315161, 0
662, 1956267579, 0.67479366, 0.32294407, -0.57070094, 0.33860943, 1.8887405, 3.9771712, 0.6695652, 0
663, 1956284246, 0.6751562, 0.3227396, -0.5708409, 0.33784488, -0.8350247, 2.221445, -4.0830984, 0
664, 1956300913, 0.6752645, 0.3228544, -0.5711624, 0.33697465, 0.96120226, -2.454998, -6.5624685, 0
665, 1956317580, 0.6748416, 0.32254043, -0.5720868, 0.3365538, 5.9634347, -1.2621846, 6.187519, 0
666, 1956334247, 0.6740616, 0.32201487, -0.5735616, 0.33610985, 0.127604, -0.6930819, 7.3777485, 0
667, 1956350914, 0.67435986, 0.32154307, -0.57359064, 0.33591345, -4.3413906, 0.29614908, 3.688138, 0
668, 1956367581, 0.67530435, 0.32129678, -0.5728116, 0.33558112, -1.2931463, 1.845692, -1.2280731, 0
669, 1956384248, 0.6759874, 0.32063255, -0.5728669, 0.3347454, 5.123728, 2.9139965, -7.7323647, 0
670, 1956400915, 0.67559844, 0.3198831, -0.57431436, 0.33376634, 7.3616405, 3.741576, -6.9694614, 0
671, 1956417582, 0.6747978, 0.31937596, -0.5759368, 0.33307508, 2.7052798, 3.9633415, 0.27118874, 0
672, 1956434249, 0.67424875, 0.3192276, -0.57696617, 0.33254713, 0.5807832, 2.6071458, 7.470564, 0
673, 1956450916, 0.674978, 0.31891015, -0.576453, 0.33226243, -2.9837043, -1.050126, 5.3379154, 0
674, 1956467583, 0.6765608, 0.31884262, -0.57491297, 0.33177558, -0.9458045, 2.7347677, 1.8390169, 0
675, 1956484250, 0.67734396, 0.31988975, -0.5739302, 0.3308704, 1.3556074, 4.4967875, -9.448279, 0
676, 1956500917, 0.67694336, 0.32201687, -0.57371885, 0.32999232, 0.34467638, 4.0429688, -8.320226, 0
677, 1956517584, 0.6761024, 0.32456622, -0.5736595, 0.32932124, -0.9424366, 1.8060459, -2.672, 0
678, 1956534251, 0.6751276, 0.32727003, -0.573515, 0.3288965, -2.5961478, -0.13270947, 6.0380344, 0
679, 1956550918, 0.6748833, 0.3295445, -0.57234406, 0.3291661, -4.9748693, -3.1444626, 4.399556, 0
680, 1956567585, 0.6747345, 0.3313011, -0.5710062, 0.3300307, -2.9408877, -0.81988174, 2.5526886, 0
681, 1956584252, 0.67421156, 0.33239868, -0.57058233, 0.33072802, -0.48230955, -2.3272681, -2.2931628, 0
682, 1956600919, 0.6734606, 0.33289167, -0.57082283, 0.33134645, -1.1096194, -3.226956, -1.8440566, 0
683, 1956617586, 0.67291206, 0.33315143, -0.5709479, 0.33198366, -1.7091035, -4.9627185, 2.1994715, 0
684, 1956634253, 0.6728027, 0.33267412, -0.5708916, 0.33277994, 0.6824387, -6.681286, 5.3599863, 0
685, 1956650920, 0.6730708, 0.33139008, -0.5709785, 0.3333694, 0.64057606, -7.121601, 3.386817, 0
686, 1956667587, 0.67372096, 0.33003426, -0.5710517, 0.33327562, -0.6395175, -5.7323384, 0.77625656, 0
687, 1956684254, 0.6745673, 0.32939705, -0.57096106, 0.33234826, -1.4276624, -4.0757046, -2.4407387, 0
688, 1956700921, 0.6753591, 0.32946002, -0.5708975, 0.33078277, -0.5599469, -2.7963853, -1.9993801, 0
689, 1956717588, 0.6761093, 0.329495, -0.5710914, 0.32887536, -0.031090653, -3.0625107, 0.28210926, 0
690, 1956734255, 0.67697406, 0.32898697, -0.571459, 0.3269611, -0.6608983, -3.4999366, 2.1769638, 0
691, 1956750922, 0.6780496, 0.32801577, -0.5717272, 0.32523465, -0.85616416, -2.9031641, 0.359622, 0
692, 1956767589, 0.6790758, 0.32692134, -0.5718807, 0.3239233, -0.8444534, -2.006023, 0.9930897, 0
693, 1956784256, 0.6799355, 0.32539, -0.57234764, 0.322835, 1.5411627, -1.7969406, -0.35459518, 0
694, 1956800923, 0.6804584, 0.32332656, -0.5733476, 0.32203126, 1.551287, -1.4801322, 0.6464796, 0
695, 1956817590, 0.68097854, 0.32095283, -0.57447624, 0.3212941, 0.23239, -1.4681954, -0.95218086, 0
696, 1956834257, 0.6816612, 0.3182823, -0.57555914, 0.32056412, 0.8177396, -1.3656423, 2.0208912, 0
697, 1956850924, 0.6821766, 0.31552294, -0.5768686, 0.31984106, 2.205991, -0.7986577, 0.21399307, 0
698, 1956867591, 0.6825644, 0.31248546, -0.578474, 0.3190955, 1.4678212, -1.3046963, 0.23200989, 0
699, 1956884258, 0.6829832, 0.30937386, -0.5800333, 0.31839973, 1.3169068, -0.38899368, -1.6491404, 0
700, 1956900925, 0.68333864, 0.3063555, -0.5815552, 0.31777936, 0.25050372, -1.416889, -1.064578, 0
701, 1956917592, 0.6837256, 0.3035063, -0.5828896, 0.31723505, 1.0449432, 0.59336877, 2.163827, 0
702, 1956934259, 0.68393075, 0.30107546, -0.5842511, 0.31660387, 1.0023353, 0.31203336, -0.761363, 0
703, 1956950926, 0.6841522, 0.2990125, -0.5852393, 0.3162553, -0.85787064, -0.059607554, 0.08441353, 0
704, 1956967593, 0.6843681, 0.29738662, -0.5859535, 0.31599888, 0.1170287, 2.430071, 0.92135334, 0
705, 1956984260, 0.6842325, 0.29621768, -0.5868227, 0.31577748, 0.18460137, 1.7043862, -2.422998, 0
706, 1957000927, 0.6839517, 0.29533282, -0.58766466, 0.31564885, -0.46647707, 1.8355986, 0.4736185, 0
707, 1957017594, 0.6838384, 0.2946261, -0.58817047, 0.31561232, -1.049544, 1.3140212, -0.35163975, 0
708, 1957034261, 0.6837796, 0.2943081, -0.5882263, 0.31593233, -0.5437842, 1.1976607, 1.2472172, 0
709, 1957050928, 0.6835221, 0.29404277, -0.58835346, 0.31649917, 0.60138375, 1.9902174, -1.1697636, 0
710, 1957067595, 0.6829896, 0.2935949, -0.58889294, 0.31706083, 0.44471657, 1.7786347, 0.004542351, 0
711, 1957084262, 0.6823764, 0.2935545, -0.5892515, 0.3177522, -0.053016827, 1.9676721, -0.94608307, 0
712, 1957100929, 0.6816942, 0.2938698, -0.58947366, 0.31851146, -1.131005, 0.3600255, -0.47700596, 0
713, 1957117596, 0.6813205, 0.29396194, -0.589348, 0.3194576, -0.503977, 0.43012387, 0.21917725, 0
714, 1957134263, 0.6809393, 0.29409266, -0.58914876, 0.32051557, -0.9680769, 1.1077595, 0.6121645, 0
715, 1957150930, 0.6805796, 0.2944203, -0.5888007, 0.32161605, -0.060467854, 1.3753899, 0.9446163, 0
716, 1957167597, 0.68005586, 0.29515228, -0.58842844, 0.3227325, 0.6538277, 1.4230607, -0.89123917, 0
717, 1957184264, 0.67944527, 0.29633045, -0.5879834, 0.32374856, -0.7318337, 1.3561537, -0.7934389, 0
718, 1957200931, 0.6790164, 0.29755273, -0.58740336, 0.32457927, 0.2561135, 1.6931444, 1.4594116, 0
719, 1957217598, 0.6785336, 0.29865137, -0.5869225, 0.32544848, -0.2955923, 0.48482195, -0.36615467, 0
720, 1957234265, 0.6782417, 0.29930952, -0.5863407, 0.32649928, -0.5543622, 0.49158725, 1.1220074, 0
721, 1957250932, 0.6780106, 0.29974082, -0.58574426, 0.3276522, -0.066081606, 1.2769859, 0.064852715, 0
722, 1957267599, 0.67765737, 0.30002755, -0.5853719, 0.3287841, 0.88338286, 0.2190133, -0.24173355, 0
723, 1957284266, 0.6772597, 0.29986092, -0.58532286, 0.3298411, 2.7152367, 0.94150037, -0.92407227, 0
724, 1957300933, 0.6766896, 0.29950285, -0.5856251, 0.33079863, 1.6711152, 0.6365294, 0.3670683, 0
725, 1957317600, 0.6761871, 0.29910123, -0.5858758, 0.33174443, 0.78519434, 1.1514055, 0.20040417, 0
726, 1957334267, 0.67578596, 0.29884368, -0.58596283, 0.33263907, -0.714891, 0.27588293, 1.8435946, 0
727, 1957350934, 0.67578, 0.29847783, -0.58571565, 0.33341402, 0.42970902, 1.0040126, 0.61810684, 0
728, 1957367601, 0.67567664, 0.2980499, -0.58564055, 0.33413705, 2.2350366, 1.4552568, -3.6397514, 0
729, 1957384268, 0.6753573, 0.29785275, -0.58564615, 0.33494794, 1.959414, 2.8203816, -1.570507, 0
730, 1957400935, 0.6748115, 0.29820395, -0.5856297, 0.3357634, 0.73528475, 3.5018733, -0.73106575, 0
731, 1957417602, 0.67445564, 0.29876584, -0.5852726, 0.33660015, -1.0430491, 2.1873944, 3.6461487, 0
732, 1957434269, 0.6743974, 0.29909897, -0.5846037, 0.3375825, 0.27603805, 4.6876025, 2.6150484, 0
733, 1957450936, 0.6740677, 0.2993156, -0.5842906, 0.33858913, 1.0661659, 4.28204, -1.9923725, 0
734, 1957467603, 0.67337584, 0.29967397, -0.5840895, 0.3399931, 2.8327923, 6.6558876, -2.7532291, 0
735, 1957484270, 0.6723425, 0.2997923, -0.5840562, 0.34198487, 1.9171929, 5.018761, -4.945997, 0
736, 1957500937, 0.671114, 0.29937986, -0.5842266, 0.34445915, 3.3927155, 6.554224, 1.0178804, 0
737, 1957517604, 0.66958773, 0.29845735, -0.58487797, 0.3471145, 2.4366949, 5.0140944, -1.7671003, 0
738, 1957534271, 0.66808486, 0.2973838, -0.5854583, 0.3499419, 1.0614364, 4.744752, 0.2840271, 0
739, 1957550938, 0.66648775, 0.29691127, -0.58586615, 0.35269496, 1.7206928, 3.8295977, -4.289508, 0
740, 1957567605, 0.6649049, 0.29689607, -0.5862375, 0.35507023, 1.7551885, 3.1976166, -1.5986557, 0
741, 1957584272, 0.6634491, 0.2979518, -0.58631814, 0.3567723, 0.97730815, 3.121903, -3.2229204, 0
742, 1957600939, 0.6621233, 0.30057266, -0.58593726, 0.35766128, -1.348003, 1.5704871, -0.5686979, 0
743, 1957617606, 0.66124374, 0.3045477, -0.58471394, 0.3579277, -2.3393188, 1.4251299, 3.3920841, 0
744, 1957634273, 0.6606991, 0.3097202, -0.5827568, 0.35768688, -5.0038104, -0.50697476, -0.10251045, 0
745, 1957650940, 0.6604866, 0.31530446, -0.58034855, 0.35711545, -4.994917, -2.7615626, 4.126522, 0
746, 1957667607, 0.66058785, 0.32015738, -0.577935, 0.35652408, -4.1934776, -3.178179, 4.292717, 0
747, 1957684274, 0.66071504, 0.3243121, -0.57575667, 0.35605735, -4.2451754, -3.7376893, 1.6112003, 0
748, 1957700941, 0.6606127, 0.3276354, -0.5740641, 0.35593778, -1.6091754, -4.125856, 0.2709198, 0
749, 1957717608, 0.66002107, 0.32975042, -0.57338333, 0.35617927, -0.24807838, -5.4282947, 0.19532776, 0
750, 1957734275, 0.6593145, 0.33102655, -0.57325435, 0.35651192, -0.8948028, -5.3327417, 2.1509218, 0
751, 1957750942, 0.65874994, 0.33169857, -0.5734352, 0.35663998, -1.855706, -6.212539, 1.7882576, 0
752, 1957767609, 0.65897965, 0.33147597, -0.5732455, 0.35672745, -2.5842564, -7.184214, 0.12685871, 0
753, 1957784276, 0.6597949, 0.33064198, -0.5727114, 0.35685217, -1.2893399, -5.5994387, -0.7526264, 0
754, 1957800943, 0.66057813, 0.32950658, -0.5724283, 0.35690778, 0.46443132, -2.614589, -0.569808, 0
755, 1957817610, 0.66082466, 0.32850793, -0.57280266, 0.35677093, 1.0430715, -1.7160699, 2.5138626, 0
756, 1957834277, 0.66060674, 0.32742813, -0.5738704, 0.35645127, 1.2645501, -1.179536, 1.2997742, 0
757, 1957850944, 0.66044813, 0.32599428, -0.57501376, 0.35621667, -1.5668786, -3.5302637, -0.95869637, 0
758, 1957867611, 0.6607948, 0.32434195, -0.5755637, 0.35619402, -2.070948, -1.8291001, -1.7216501, 0
759, 1957884278, 0.661169, 0.3230917, -0.57591414, 0.35606956, -0.17653812, -1.3491609, 1.1737471, 0
760, 1957900945, 0.6614705, 0.32210672, -0.57622653, 0.35589683, 1.078159, -0.0025929739, 0.44420147, 0
761, 1957917612, 0.6615953, 0.32151604, -0.57659394, 0.35560367, 0.19341582, -0.14979994, -0.22586155, 0
762, 1957934279, 0.66183984, 0.3214771, -0.57653683, 0.35527572, -0.6243081, 0.48953405, -0.54081917, 0
763, 1957950946, 0.6620851, 0.32210916, -0.57612354, 0.35491693, -0.7221945, 0.37544075, 0.33505344, 0
764, 1957967613, 0.6624955, 0.32291916, -0.5755017, 0.35442364, -0.38135648, 1.1071517, 2.1395292, 0
765, 1957984280, 0.6628723, 0.32320705, -0.57519436, 0.3539547, -2.0658479, 0.47323927, -0.5208044, 0
766, 1958000947, 0.6635116, 0.32481647, -0.5740646, 0.35311761, -1.2267636, 0.41135636, 1.3654203, 0
767, 1958017614, 0.6636854, 0.32768503, -0.5720327, 0.35343775, 0.7234388, 0.5509725, -2.4185362, 0
768, 1958034281, 0.6637344, 0.32848978, -0.57179034, 0.35299033, 0.1945997, 1.207393, -1.2170248, 0
769, 1958050948, 0.6634166, 0.3295924, -0.57174575, 0.35263184, -0.89962745, 3.6063087, -2.3809114, 0
770, 1958067615, 0.66287863, 0.33198893, -0.5711716, 0.3523256, -2.274323, 1.3476607, 0.41830063, 0
771, 1958084282, 0.66289026, 0.3337039, -0.5701964, 0.35226327, 0.23671095, -1.9233167, 4.0491953, 0
772, 1958100949, 0.66295856, 0.33438712, -0.5692864, 0.35295817, 0.7282334, -1.851711, 2.2635574, 0
773, 1958117616, 0.66312534, 0.3340522, -0.56892186, 0.35354924, -0.42193726, 0.9257848, 0.2641201, 0
774, 1958134283, 0.66290504, 0.33434495, -0.56879807, 0.35388452, 0.7399002, 2.4304, -3.2000213, 0
775, 1958150950, 0.6622646, 0.33536023, -0.5687454, 0.35420802, 1.9831996, -0.28661793, -2.294921, 0
776, 1958167617, 0.6618306, 0.33555296, -0.5689487, 0.3545097, 2.7465324, -0.35300118, 1.2160387, 0
777, 1958184284, 0.66173476, 0.3352047, -0.5692587, 0.35452038, -0.29647675, -1.1730644, -0.96219635, 0
778, 1958200951, 0.66208166, 0.33533195, -0.568897, 0.354333, -0.746894, -0.08567855, 0.82860947, 0
779, 1958217618, 0.6623982, 0.33632812, -0.56826913, 0.35380438, 1.6731215, -0.034506153, 0.83090687, 0
780, 1958234285, 0.6625907, 0.33759686, -0.56777036, 0.3530355, 2.268181, 0.1329711, 0.37801456, 0
781, 1958250952, 0.6629022, 0.3387955, -0.56738913, 0.3519133, -0.23601305, 0.13962151, -1.1707783, 0
782, 1958267619, 0.66349775, 0.34023196, -0.5666613, 0.35057595, -1.1716437, -0.084457055, 0.34414387, 0
783, 1958284286, 0.66413546, 0.34193978, -0.5656533, 0.34933195, 1.3522681, 0.09335622, -1.0880518, 0
784, 1958300953, 0.6646219, 0.3431021, -0.5650826, 0.34818867, 1.4839052, -1.2820582, -0.26162434, 0
785, 1958317620, 0.6653311, 0.3436135, -0.5645096, 0.34725845, 0.5070257, -0.4963007, 0.5641079, 0
786, 1958334287, 0.6659689, 0.34409827, -0.56401354, 0.3463608, 0.30336118, -0.17013761, 1.6778402, 0
787, 1958350954, 0.6666361, 0.3445029, -0.5636222, 0.3453108, 1.8708372, -0.2624774, 0.2951107, 0
788, 1958367621, 0.6672487, 0.3447329, -0.5634954, 0.34410244, 1.6391253, -0.82916, -0.28196716, 0
789, 1958384288, 0.668074, 0.34446216, -0.56347734, 0.34279954, 1.1486018, -0.48982942, -0.17032433, 0
790, 1958400955, 0.6689085, 0.34394628, -0.56366205, 0.34138379, 1.6929419, -0.23489334, 0.40443993, 0
791, 1958417622, 0.6697114, 0.34333482, -0.5638525, 0.34010804, 2.1519115, -0.35048854, -0.32203865, 0
792, 1958434289, 0.6704288, 0.3425036, -0.5641566, 0.33902678, 1.473876, -0.23966634, -0.046560287, 0
793, 1958450956, 0.67128855, 0.34124568, -0.5645014, 0.3380189, 0.9917466, 0.21851036, 0.48217964, 0
794, 1958467623, 0.6720263, 0.34007186, -0.5649049, 0.33706012, 2.3873289, 1.7102219, -0.8179674, 0
795, 1958484290, 0.6725225, 0.33892134, -0.56557524, 0.33610353, 2.1410832, 1.3823689, -0.84412, 0
796, 1958500957, 0.67288554, 0.33774468, -0.5662818, 0.33537117, 2.1254694, 1.5706832, -0.11028004, 0
797, 1958517624, 0.6733529, 0.33645907, -0.5668218, 0.3348127, 0.561018, 1.5317978, 1.9496202, 0
798, 1958534291, 0.673976, 0.33520612, -0.5670671, 0.33440003, 0.3813187, 2.7038276, 0.33681965, 0
799, 1958550958, 0.67433476, 0.3342568, -0.56739116, 0.33407706, 2.5946033, 4.302656, -1.9811945, 0
800, 1958567625, 0.67426413, 0.3334394, -0.5681366, 0.3337693, 3.7022047, 4.832756, -4.289792, 0
801, 1958584292, 0.674102, 0.33251297, -0.5688244, 0.3338495, 3.0415883, 4.581944, 0.6238022, 0
802, 1958600959, 0.6740091, 0.33175308, -0.5691272, 0.3342772, 0.76684123, 4.7975583, 0.35155392, 0
803, 1958617626, 0.67393804, 0.3310993, -0.5692651, 0.33483344, 1.2432282, 4.3785257, 2.0943346, 0
804, 1958634293, 0.67392987, 0.33033314, -0.5692909, 0.3355621, 2.3119087, 3.673524, -1.5713968, 0
805, 1958650960, 0.6736979, 0.32950193, -0.5694965, 0.33649465, 1.5025839, 3.8319564, 0.4092579, 0
806, 1958667627, 0.673232, 0.32857388, -0.5699487, 0.33756742, 2.4088047, 3.5695357, -5.1759686, 0
807, 1958684294, 0.67228377, 0.3276915, -0.57090396, 0.33869848, 2.4063423, 3.643286, -1.6910162, 0
808, 1958700961, 0.6712156, 0.32646447, -0.57225144, 0.33972654, 3.454474, 2.1646223, -1.8082676, 0
809, 1958717628, 0.6700895, 0.32496515, -0.5739024, 0.34060088, 0.735847, 0.5087294, -4.769989, 0
810, 1958734295, 0.6693607, 0.32368812, -0.57516575, 0.34111863, 0.7315199, -1.9429152, 1.2036037, 0
811, 1958750962, 0.66899043, 0.32234597, -0.5760716, 0.3415867, 1.7674462, -2.6431403, 3.2275066, 0
812, 1958767629, 0.6684739, 0.32116833, -0.5772613, 0.34169853, -0.41740328, -3.740106, 1.4896946, 0
813, 1958784296, 0.6682601, 0.31999403, -0.5781556, 0.34170714, 0.06015002, -2.4510584, 1.0704374, 0
814, 1958800963, 0.6680076, 0.31909147, -0.5791388, 0.34137958, -1.4000316, -2.5265365, -1.0993748, 0
815, 1958817630, 0.667668, 0.3183565, -0.5801602, 0.34099522, -0.727954, -3.8289325, 2.2550192, 0
816, 1958834297, 0.6674503, 0.31769186, -0.58087003, 0.3408332, -0.8558566, -4.883767, 2.865716, 0
817, 1958850964, 0.6676155, 0.31706512, -0.58104223, 0.34079996, -3.9954913, -5.696207, 3.7553024, 0
818, 1958867631, 0.6681883, 0.3164763, -0.58077383, 0.3406821, -3.5641258, -4.4949074, 1.4904747, 0
819, 1958884298, 0.66883224, 0.31593347, -0.5805006, 0.34038764, -3.0917363, -3.9062545, -1.1411686, 0
820, 1958900965, 0.66956043, 0.3153742, -0.58015025, 0.34007165, -2.4818656, -2.287283, -0.9450979, 0
821, 1958917632, 0.6700712, 0.3148719, -0.5801452, 0.33953965, -1.0397384, -2.5967646, 2.019394, 0
822, 1958934299, 0.67050034, 0.3143744, -0.5801983, 0.33906227, -0.9001662, -3.134662, 1.0474873, 0
823, 1958950966, 0.67092824, 0.3139359, -0.58012056, 0.33875477, -2.1794038, -2.7061622, -0.89456844, 0
824, 1958967633, 0.6712281, 0.31338632, -0.58022463, 0.33849144, -0.91554886, -1.6537416, 0.58202076, 0
825, 1958984300, 0.6712099, 0.31298414, -0.5806532, 0.33816475, -0.18760248, -1.1279975, 1.5078411, 0
826, 1959000967, 0.6711643, 0.31300965, -0.58094794, 0.33772516, -1.7812561, -1.027785, -1.1539326, 0
827, 1959017634, 0.67147744, 0.3133492, -0.58070976, 0.337197, -2.1877146, -2.0582047, -0.50657845, 0
828, 1959034301, 0.671895, 0.31407273, -0.5800277, 0.33686575, -0.12401125, 0.36788198, 1.3278246, 0
829, 1959050968, 0.67214483, 0.3150472, -0.5794399, 0.33646867, 0.14943428, 1.0415555, -1.0329895, 0
830, 1959067635, 0.67238003, 0.31626496, -0.57877594, 0.33599886, -1.0312586, 0.8743378, 0.015928268, 0
831, 1959084302, 0.6725554, 0.317775, -0.5780713, 0.33543584, 1.1727248, 1.7140751, 0.83584595, 0
832, 1959100969, 0.6728486, 0.31907558, -0.57736164, 0.33483484, 0.08169175, -0.63945156, 0.18354034, 0
833, 1959117636, 0.6733161, 0.32008043, -0.5763236, 0.33472446, -1.260487, 0.21327695, 1.6018305, 0
834, 1959134303, 0.67365986, 0.32089534, -0.5754916, 0.33468395, 0.21365246, 0.7536763, 0.9017763, 0
835, 1959150970, 0.6737548, 0.3212148, -0.57527745, 0.33455446, 1.3757716, -0.07326755, -1.177453, 0
836, 1959167637, 0.67364866, 0.32137766, -0.5753357, 0.33451176, 0.62315345, -0.2536548, -0.8836479, 0
837, 1959184304, 0.6735932, 0.3216262, -0.57529664, 0.3344516, -1.6172783, -0.06388783, -1.5751791, 0
838, 1959200971, 0.6735875, 0.32198355, -0.57523555, 0.33422413, -0.70230925, -0.812494, 0.02490139, 0
839, 1959217638, 0.673555, 0.32218063, -0.5752107, 0.33414242, 1.2619289, -1.3725849, 0.34436417, 0
840, 1959234305, 0.6733886, 0.3220437, -0.5755862, 0.33396327, -0.04947057, -0.08214101, -1.0488205, 0
841, 1959250972, 0.67306924, 0.32159606, -0.57604134, 0.33425373, 1.1919743, -2.027857, -1.1038303, 0
842, 1959267639, 0.67255795, 0.32112575, -0.57649475, 0.33495235, 0.14656907, -0.17164767, 1.3005295, 0
843, 1959284306, 0.6718262, 0.3206309, -0.5771115, 0.33583188, 0.08291766, 0.7651386, 0.15680027, 0
844, 1959300973, 0.670923, 0.32058448, -0.57784885, 0.33641323, -2.098636, 2.700515, -0.8435879, 0
845, 1959317640, 0.67012376, 0.32037768, -0.5786451, 0.3368344, -0.33812705, -0.21976073, -0.96890545, 0
846, 1959334307, 0.66942525, 0.31996176, -0.5793396, 0.3374242, -0.9710878, -0.638279, 0.8797598, 0
847, 1959350974, 0.66859657, 0.32061636, -0.57968754, 0.3378482, -0.64868176, 6.177346, 1.0913906, 0
848, 1959367641, 0.6679076, 0.32024044, -0.5800535, 0.33893752, 5.178691, -7.4500017, 3.5091114, 0
849, 1959384308, 0.66733366, 0.3171769, -0.5812242, 0.34093732, -2.7021866, -2.5560381, -2.167562, 0
850, 1959400975, 0.66699547, 0.31581822, -0.5813921, 0.34257028, -8.402928, 3.9890223, -4.46874, 0
851, 1959417642, 0.66666657, 0.31647515, -0.58045137, 0.34419557, 0.5962588, 2.8626366, 0.9731636, 0
852, 1959434309, 0.66606414, 0.31671262, -0.5801366, 0.34567103, 2.8797212, 0.12783958, 6.504347, 0
853, 1959450976, 0.665537, 0.31569085, -0.5804203, 0.3471415, 0.8645995, 1.383494, 3.8250093, 0
854, 1959467643, 0.6651314, 0.3159189, -0.58010674, 0.3482339, -6.2276845, 3.514931, 0.33389091, 0
855, 1959484310, 0.6650169, 0.31804678, -0.57845974, 0.3492541, 4.0467577, 1.4100331, 1.2664957, 0
856, 1959500977, 0.6643662, 0.31945673, -0.5775485, 0.3507107, 5.5296817, 0.3611859, -5.718374, 0
857, 1959517644, 0.6638045, 0.32002372, -0.5774145, 0.3514772, -0.8922845, 3.2708623, -3.1971083, 0
858, 1959534311, 0.6636978, 0.32129562, -0.57662314, 0.35181734, -3.4213488, 3.5633593, 0.28224754, 0
859, 1959550978, 0.6637314, 0.32338288, -0.5750197, 0.35246533, 0.71790755, -0.14781202, 0.53453064, 0
860, 1959567645, 0.66348183, 0.32474017, -0.57402724, 0.35330397, 4.0858026, 0.6485521, 0.83678246, 0
861, 1959584312, 0.66301703, 0.32554874, -0.5737706, 0.35384893, 0.5139048, 1.1377971, -2.1602335, 0
862, 1959600979, 0.6628177, 0.32618535, -0.5736493, 0.3538329, -0.59073514, 0.80807465, -0.041950226, 0
863, 1959617646, 0.66269034, 0.32708004, -0.57332623, 0.35376891, 2.4637656, 0.34663942, 0.8719225, 0
864, 1959634313, 0.6623412, 0.32778698, -0.57346666, 0.35354084, 3.3429224, 1.3041344, -2.977229, 0
865, 1959650980, 0.6618319, 0.32797492, -0.5744557, 0.35271356, 1.459066, 1.1276323, -2.2634544, 0
866, 1959667647, 0.66178143, 0.32800606, -0.5751154, 0.351703, 1.4169184, 0.019541068, 4.3823442, 0
867, 1959684314, 0.66229415, 0.32787958, -0.5751629, 0.35077676, 2.7515848, -1.1015216, 1.5092154, 0
868, 1959700981, 0.6631283, 0.32777625, -0.57477367, 0.34993455, 1.7720749, -0.5755672, -1.4569921, 0
869, 1959717648, 0.6641115, 0.32814464, -0.57415825, 0.34873277, 1.172943, 2.5804002, 2.3760633, 0
870, 1959734315, 0.66513056, 0.3291799, -0.5734115, 0.34703976, 1.8686378, 3.5734117, 2.544693, 0
871, 1959750982, 0.6660544, 0.33077225, -0.5725674, 0.3451424, 1.2664472, 2.648446, -8.637235, 0
872, 1959767649, 0.6669092, 0.3323407, -0.5716858, 0.3434424, 0.79317147, 1.2340655, -1.1096926, 0
873, 1959784316, 0.6679356, 0.333592, -0.57063943, 0.34197113, 4.0884686, 5.0380964, 7.7199974, 0
874, 1959800983, 0.668515, 0.3348809, -0.5700075, 0.3406305, 1.8879603, 3.2216115, -1.4956169, 0
875, 1959817650, 0.6690346, 0.3359595, -0.5694558, 0.33946928, 1.8616192, 1.1445699, -4.615923, 0
876, 1959834317, 0.6695503, 0.3365121, -0.56909716, 0.33850512, 2.020458, 0.7276561, -0.59135056, 0
877, 1959850984, 0.67027265, 0.33712268, -0.56842387, 0.33759812, -0.27986908, 3.1507795, 1.3242569, 0
878, 1959867651, 0.6710131, 0.3380213, -0.5677763, 0.33631632, -1.1938356, -0.14551945, -4.5357537, 0
879, 1959884318, 0.6716831, 0.33866706, -0.56739604, 0.33496824, 2.19221, 0.4475903, 1.3242626, 0
880, 1959900985, 0.67178357, 0.33905026, -0.5679859, 0.3333751, 1.8118773, -0.5219112, -2.6166258, 0
881, 1959917652, 0.6718793, 0.33919445, -0.56874996, 0.33172902, -0.9480349, -4.290655, -4.870203, 0
882, 1959934319, 0.6724655, 0.33854264, -0.5692711, 0.33031034, 4.278144, -6.519724, 2.2616596, 0
883, 1959950986, 0.6726911, 0.3371128, -0.5706171, 0.32898796, 2.95157, -4.8846245, -2.479227, 0
884, 1959967653, 0.67278993, 0.3363108, -0.57223535, 0.3267889, -0.81629926, -3.7427049, 1.6864595, 0
885, 1959984320, 0.67335016, 0.3356413, -0.57326216, 0.3245154, 0.3320151, -4.500636, 9.775457, 0
886, 1960000987, 0.67468745, 0.33438024, -0.57372963, 0.32220554, -2.4011388, -7.8309445, 3.5728045, 0
887, 1960017654, 0.67663217, 0.33252653, -0.57354355, 0.32037196, -0.6814669, -5.844543, -0.23654366, 0
888, 1960034321, 0.677945, 0.3310466, -0.5739659, 0.31836632, -0.105581485, -1.3811656, -0.8920269, 0
889, 1960050988, 0.67872727, 0.33005267, -0.57465166, 0.3164892, -1.4257344, -1.8079265, -0.03529358, 0
890, 1960067655, 0.679274, 0.32884234, -0.5754228, 0.3151721, -2.3385522, -3.4258852, -0.219594, 0
891, 1960084322, 0.6799732, 0.3268335, -0.5760345, 0.31463614, -3.448893, -5.6791735, 2.0798655, 0
892, 1960100989, 0.68079174, 0.323647, -0.57681745, 0.31472576, -0.25387225, -3.6936967, 3.7105694, 0
893, 1960117656, 0.6810419, 0.31987563, -0.5783118, 0.31529707, -0.4784831, -3.2807071, 0.6117363, 0
894, 1960134323, 0.6808938, 0.31587875, -0.5801748, 0.3162227, -0.78668785, -3.0677664, -1.8129983, 0
895, 1960150990, 0.6803756, 0.31156993, -0.58244973, 0.31742898, -0.3922317, -2.7759805, -0.24380875, 0
896, 1960167657, 0.67971635, 0.30694348, -0.5848974, 0.31884438, -1.4216014, -2.8207943, 0.17885685, 0
897, 1960184324, 0.6790523, 0.30227, -0.5873794, 0.32015857, -1.741106, -1.6694335, 2.740569, 0
898, 1960200991, 0.6785579, 0.2981426, -0.58937407, 0.32140893, -1.5485954, -1.4594398, -0.07088566, 0
899, 1960217658, 0.6779952, 0.29477972, -0.59099835, 0.32271296, -0.080983214, -1.3080294, -0.31659603, 0
900, 1960234325, 0.6773793, 0.29179794, -0.59250796, 0.32394573, -0.31577104, -0.33273804, -1.7783155, 0
901, 1960250992, 0.6767761, 0.28962785, -0.59358555, 0.32517904, -2.7074034, 1.2012596, -0.40314865, 0
902, 1960267659, 0.67643934, 0.28860646, -0.5939144, 0.326186, -2.795366, 1.800923, 0.013228416, 0
903, 1960284326, 0.6759548, 0.28860015, -0.59399503, 0.3270478, -1.1146953, 1.7064368, 1.5993032, 0
904, 1960300993, 0.6756583, 0.28887358, -0.5936824, 0.3279852, -1.3363583, 0.89709896, -1.9655814, 0
905, 1960317660, 0.67530423, 0.2897146, -0.5931811, 0.32887852, -1.3494612, 2.18572, -0.47074413, 0
906, 1960334327, 0.67486, 0.29130173, -0.59246397, 0.32968003, -0.33615142, 2.562344, 0.69449997, 0
907, 1960350994, 0.674204, 0.29323408, -0.59182113, 0.3304629, -0.36350784, 2.1014082, -0.17089558, 0
908, 1960367661, 0.67368436, 0.29501954, -0.59104574, 0.33132017, -1.160955, 1.5799156, 0.936039, 0
909, 1960384328, 0.6732694, 0.29676327, -0.5900851, 0.33231717, -0.66658604, 1.9300367, -1.4875879, 0
910, 1960400995, 0.6728065, 0.29837322, -0.58922136, 0.3333442, 0.043978408, 1.2566364, 0.77415943, 0
911, 1960417662, 0.6723925, 0.29963553, -0.5883728, 0.3345439, 0.979402, 1.5956267, -0.18827057, 0
912, 1960434329, 0.67190874, 0.30060798, -0.58776623, 0.33570775, 0.80984664, 0.71455944, -0.26544857, 0
913, 1960450996, 0.6716222, 0.3012519, -0.5871038, 0.33686075, 0.86216545, 0.7850937, 0.93926334, 0
914, 1960467663, 0.6712233, 0.3019422, -0.5866113, 0.33789444, 1.1249747, 1.618157, -0.4999733, 0
915, 1960484330, 0.6707566, 0.30269393, -0.5863441, 0.33861187, 1.3036957, 1.0270652, -0.944396, 0
916, 1960500997, 0.6703397, 0.3033741, -0.5861818, 0.33910912, 0.9903718, 0.5008649, -0.94535446, 0
917, 1960517664, 0.6700493, 0.30382028, -0.586073, 0.33947137, 0.40108848, 0.04002877, -0.36602688, 0
918, 1960534331, 0.6698573, 0.30421382, -0.5858707, 0.3398471, 0.30130887, 0.23106948, 1.2759056, 0
919, 1960550998, 0.6697248, 0.30448145, -0.585645, 0.34025738, 0.98291564, 0.44232833, 1.2901926, 0
920, 1960567665, 0.66949886, 0.30447105, -0.58571017, 0.34059876, 1.4537276, 0.5625362, -0.15380001, 0
921, 1960584332, 0.66923434, 0.30430704, -0.5859516, 0.34085026, 1.0927877, 1.0085272, 0.27985764, 0
922, 1960600999, 0.6688305, 0.30424234, -0.58639985, 0.34092906, 0.7324788, 1.0591936, -0.19609451, 0
923, 1960617666, 0.6686225, 0.30419484, -0.5865734, 0.34108138, 0.14208473, 0.79582334, -1.5281668, 0
924, 1960634333, 0.66850275, 0.30410594, -0.586711, 0.3411585, 1.3431417, 0.47425872, 0.81881905, 0
925, 1960651000, 0.6685303, 0.30396387, -0.58673596, 0.34118834, 1.2474953, 0.744215, -1.6438332, 0
926, 1960667667, 0.6685906, 0.3040397, -0.58667743, 0.34110326, 0.52804846, 1.0079287, 0.7779112, 0
927, 1960684334, 0.66872865, 0.3042554, -0.5865007, 0.34094393, 1.168072, 1.901351, -0.09973717, 0
928, 1960701001, 0.6686986, 0.3048666, -0.58640623, 0.3406193, 1.3193482, 1.8629228, 0.19714546, 0
929, 1960717668, 0.66896844, 0.30541888, -0.58596504, 0.34035414, 0.8472851, 1.4375074, 0.1367836, 0
930, 1960734335, 0.66920143, 0.30586258, -0.58563495, 0.34006593, 2.0394094, 2.6691456, 0.83482456, 0
931, 1960751002, 0.66936576, 0.30603498, -0.58551913, 0.33978653, 2.4970155, 2.8381639, -0.5853176, 0
932, 1960767669, 0.66934353, 0.30634317, -0.58548397, 0.3396131, 2.187637, 3.5230403, -3.2087002, 0
933, 1960784336, 0.6693533, 0.30662632, -0.58539635, 0.3394893, 2.1182308, 2.7138748, -2.1691527, 0
934, 1960801003, 0.66949713, 0.30633995, -0.5853493, 0.33954504, 3.1862416, 2.3600886, 0.42454433, 0
935, 1960817670, 0.6696487, 0.30552033, -0.58543885, 0.3398303, 2.8607352, 1.8649184, 0.60291195, 0
936, 1960834337, 0.6697205, 0.30459115, -0.58558327, 0.34027383, 2.1680388, 2.8095467, 0.50059414, 0
937, 1960851004, 0.6695487, 0.3040938, -0.5857927, 0.34069583, 1.9610075, 3.7330167, -0.2763996, 0
938, 1960867671, 0.6693143, 0.3039114, -0.5860239, 0.34092143, 2.0483055, 2.093705, -1.918086, 0
939, 1960884338, 0.6691356, 0.30364078, -0.5863419, 0.34096652, 2.339834, 1.3275903, -0.33152485, 0
940, 1960901005, 0.66919, 0.30345532, -0.58643013, 0.34087336, 1.3344082, 1.9631855, 2.262414, 0
941, 1960917672, 0.6693035, 0.30377403, -0.58625525, 0.34066787, 0.4029409, 0.20803513, 0.07302666, 0
942, 1960934339, 0.66958934, 0.30470565, -0.58566636, 0.3402866, -0.2910438, 0.091425166, 1.3829851, 0
943, 1960951006, 0.66997635, 0.30590996, -0.58506507, 0.3394774, 1.28517, 1.8251549, -1.3778505, 0
944, 1960967673, 0.6701021, 0.30772793, -0.58484846, 0.33795607, 1.1991649, 0.60376203, -3.4253583, 0
945, 1960984340, 0.6703759, 0.30990928, -0.5844709, 0.33606756, -0.05378247, -1.4060034, -6.155968, 0
946, 1961001007, 0.6705715, 0.3120594, -0.5841901, 0.334171, 0.3699707, -1.1156795, 0.81069756, 0
947, 1961017674, 0.6705386, 0.31414643, -0.58420366, 0.33225203, -0.5396613, -0.63599384, 0.5659847, 0
948, 1961034341, 0.6704945, 0.3159021, -0.58428687, 0.33052585, -1.5514762, -2.2030773, 3.0215893, 0
949, 1961051008, 0.67067134, 0.31678766, -0.58430856, 0.32927868, -0.4233456, -3.7611196, -1.0414591, 0
950, 1961067675, 0.670772, 0.31633407, -0.5848549, 0.32853895, -0.6242435, -4.7300534, -0.25692272, 0
951, 1961084342, 0.67079157, 0.31516078, -0.5856414, 0.32822534, -0.3179816, -2.4561665, 3.2890854, 0
952, 1961101009, 0.67057264, 0.31415454, -0.5865597, 0.32799748, -2.191701, -2.838407, 3.850215, 0
953, 1961117676, 0.67076224, 0.31311947, -0.58694714, 0.32790652, -4.7468767, -5.8542414, 1.3142338, 0
954, 1961134343, 0.671315, 0.3121421, -0.5867588, 0.32804394, -3.4842987, -3.36938, 3.8622398, 0
955, 1961151010, 0.67158663, 0.31152362, -0.5869047, 0.3278148, -3.79613, -1.9339236, 3.1611786, 0
956, 1961167677, 0.6720181, 0.31148687, -0.5866258, 0.32746458, -5.78964, -3.5011873, -1.5398769, 0
957, 1961184344, 0.6728713, 0.31219825, -0.58511364, 0.32774055, -6.725504, -5.5601172, -3.42417, 0
958, 1961201011, 0.67376584, 0.31319192, -0.5832004, 0.32836387, -3.7150457, -3.2667665, 3.1510763, 0
959, 1961217678, 0.6738382, 0.31462845, -0.58219016, 0.32863504, -1.8229184, 0.6388056, 4.463066, 0
960, 1961234345, 0.67351687, 0.31686038, -0.5813532, 0.32863083, -5.6525264, -1.5563227, -1.7468586, 0
961, 1961251012, 0.67354286, 0.31948122, -0.57969666, 0.32896626, -5.486011, -3.3997426, -2.2684183, 0
962, 1961267679, 0.6734688, 0.32190222, -0.5779574, 0.329817, -1.7160915, -2.0096667, 1.0274496, 0
963, 1961284346, 0.6731836, 0.32392502, -0.5765676, 0.33084992, -1.4815619, 0.5918862, 1.7200003, 0
964, 1961301013, 0.6727818, 0.3258998, -0.5754967, 0.33159134, -1.9740732, 1.5454745, 0.26166916, 0
965, 1961317680, 0.6723322, 0.32795423, -0.5744599, 0.3322749, -0.29441798, 0.97217566, -0.88439083, 0
966, 1961334347, 0.67174387, 0.3297039, -0.57380694, 0.33286104, 0.91618115, 0.28343645, -1.5080032, 0
967, 1961351014, 0.671203, 0.3309884, -0.5734749, 0.33324933, 0.8168381, -0.2583554, -1.2332411, 0
968, 1961367681, 0.67093664, 0.33192107, -0.5730466, 0.33359456, 0.37683302, -0.4523672, 2.1897802, 0
969, 1961384348, 0.6709658, 0.3325771, -0.5724236, 0.33395234, 0.8574887, -1.037205, 1.9936085, 0
970, 1961401015, 0.6711954, 0.3328767, -0.5717482, 0.3343491, 1.3332083, -1.2256078, -0.13999367, 0
971, 1961417682, 0.6711984, 0.33295494, -0.5716071, 0.33450592, 2.8833506, 1.4189662, -3.418902, 0
972, 1961434349, 0.67079026, 0.3331257, -0.5721904, 0.33415747, 2.1977944, 1.88033, -3.8001428, 0
973, 1961451016, 0.6704191, 0.33349252, -0.5726986, 0.3336655, -0.5033078, -0.7727204, -0.19307041, 0
974, 1961467683, 0.6707506, 0.33347565, -0.5724285, 0.33347934, -0.07904178, -1.770732, 5.8753223, 0
975, 1961484350, 0.67131084, 0.3327475, -0.5721609, 0.33353853, 1.5529006, -0.577047, 2.675006, 0
976, 1961501017, 0.67159957, 0.33179492, -0.57245, 0.33341038, 1.7989608, 1.2075016, -1.7430983, 0
977, 1961517684, 0.671566, 0.33101252, -0.57310104, 0.3331371, 1.6574852, 1.5139467, -3.5616617, 0
978, 1961534351, 0.67163396, 0.33026457, -0.5735915, 0.3328983, 0.7734983, -0.80401295, -3.139873, 0
979, 1961551018, 0.67204106, 0.32914856, -0.57366955, 0.33304784, 0.8126434, -0.90158397, 2.4520092, 0
980, 1961567685, 0.67264825, 0.32775152, -0.5737094, 0.33313057, 1.1088201, 1.5650212, 3.224743, 0
981, 1961584352, 0.67295814, 0.32680747, -0.5741158, 0.33273196, 1.6248902, 1.393705, -0.43455505, 0
982, 1961601019, 0.6731175, 0.325981, -0.5746478, 0.33230165, 2.4592662, 0.13496104, -1.1251516, 0
983, 1961617686, 0.6731896, 0.32499993, -0.5752357, 0.33209923, 1.6572943, -0.32909903, -1.9457307, 0
984, 1961634353, 0.67319405, 0.3239632, -0.5759253, 0.33190823, 0.9277207, 0.97840786, 0.5324211, 0
985, 1961651020, 0.6732618, 0.3232194, -0.5765012, 0.3314957, 0.44553778, 2.1961293, 0.30352402, 0
986, 1961667687, 0.6733693, 0.3228737, -0.5769159, 0.3308926, 0.45805964, 0.50896573, -0.8165636, 0
987, 1961684354, 0.6735732, 0.3225094, -0.5772293, 0.33028534, 1.1186916, 0.14040346, 0.17390728, 0
988, 1961701021, 0.6738375, 0.32190216, -0.57749534, 0.3298736, 0.8932693, 0.22130063, 0.66498756, 0
989, 1961717688, 0.673914, 0.32125852, -0.5778847, 0.32966256, 1.4754494, 1.3686011, -0.41509628, 0
990, 1961734355, 0.6738516, 0.3206553, -0.57836425, 0.32953668, 1.3631362, 1.2272315, 0.33188152, 0
991, 1961751022, 0.67380494, 0.319824, -0.57892287, 0.3294588, 1.0071684, 0.28612754, -2.6184049, 0
992, 1961767689, 0.67383593, 0.31859684, -0.57954067, 0.32949853, 1.3411599, 0.4574584, 1.4312668, 0
993, 1961784356, 0.6737256, 0.31715935, -0.58037686, 0.32963926, 1.8489593, 1.6099948, -1.1916237, 0
994, 1961801023, 0.67343026, 0.31597388, -0.58134234, 0.3296795, 0.8608552, 1.1473396, 1.6715498, 0
995, 1961817690, 0.6733247, 0.31463775, -0.58211064, 0.3298173, 1.801611, 0.5927903, 1.8295507, 0
996, 1961834357, 0.6731143, 0.3132577, -0.5830812, 0.3298461, 2.1653233, 0.58326566, -1.4763327, 0
997, 1961851024, 0.6731827, 0.31172282, -0.5836386, 0.33017474, 0.09971271, -0.3105747, -0.9848404, 0
998, 1961867691, 0.6734088, 0.31039307, -0.5837939, 0.33069134, 0.8782479, 1.9621767, 0.7647772, 0
999, 1961884358, 0.6735284, 0.3094078, -0.5838819, 0.33121502, 1.3277411, 2.2849934, 0.5619421, 0
1000, 1961901025, 0.6734962, 0.30865216, -0.5841228, 0.33156082, 1.2816823, 3.1135533, -1.0861626, 0
1001, 1961917692, 0.6732912, 0.3084222, -0.58437985, 0.331738, 0.59408224, 2.7178166, -1.0331593, 0
1002, 1961934359, 0.6731314, 0.30858696, -0.58446735, 0.331755, 1.1464621, 2.299407, -0.44862938, 0
1003, 1961951026, 0.67290956, 0.30912447, -0.5844606, 0.33171692, 1.3617668, 2.6002934, -0.16984844, 0
1004, 1961967693, 0.67270815, 0.30996424, -0.58436006, 0.33151877, 0.7861784, 2.6262805, 0.12019348, 0
1005, 1961984360, 0.6726225, 0.31125334, -0.5839108, 0.33127624, 0.73371303, 3.1307166, 2.4458475, 0
1006, 1962001027, 0.6726901, 0.31306514, -0.58295053, 0.33112296, 0.46617717, 2.0496774, -2.4918518, 0
1007, 1962017694, 0.67294705, 0.3145594, -0.58193004, 0.33097944, 1.4764134, 1.8281821, -2.8580241, 0
1008, 1962034361, 0.6731904, 0.31568044, -0.5810665, 0.3309345, 2.3572235, 4.465558, -0.42935562, 0
1009, 1962051028, 0.6730566, 0.31708744, -0.58061576, 0.33065262, 1.9254552, 4.779388, 0.26034546, 0
1010, 1962067695, 0.6729086, 0.31859374, -0.5802589, 0.33013207, 2.0757952, 2.825557, 0.8777962, 0
1011, 1962084362, 0.6730235, 0.31956348, -0.5796533, 0.33002427, 2.5118248, 1.5682592, -0.04603958, 0
1012, 1962101029, 0.6731653, 0.31981748, -0.5794455, 0.32985342, 2.4242911, 0.83868635, -1.0033627, 0
1013, 1962117696, 0.67331535, 0.31966, -0.5793901, 0.32979745, 0.7473759, 1.632881, -3.2195053, 0
1014, 1962134363, 0.67323196, 0.3196831, -0.5795683, 0.3296324, 1.4810905, 1.3536104, 0.42138863, 0
1015, 1962151030, 0.67332894, 0.31950596, -0.5797449, 0.3292952, -0.17219393, -2.8792622, -1.231123, 0
1016, 1962167697, 0.6735006, 0.3188656, -0.5798846, 0.3293189, -0.13903892, -3.3324046, -0.3430996, 0
1017, 1962184364, 0.673658, 0.31883675, -0.5801081, 0.32863018, -2.5880687, -2.876824, -0.8340759, 0
1018, 1962201031, 0.67369556, 0.31963792, -0.5802222, 0.32757223, -3.1234553, -4.7079787, -1.0247965, 0
1019, 1962217698, 0.6737707, 0.3209398, -0.58014923, 0.32627138, -3.1961634, -5.6737638, -0.7287359, 0
1020, 1962234365, 0.6739523, 0.32209367, -0.58005416, 0.32492512, -2.6166348, -6.821097, 5.171921, 0
1021, 1962251032, 0.67423856, 0.32282174, -0.5798777, 0.32392263, -2.0358527, -5.5290194, 3.7523184, 0
1022, 1962267699, 0.67442447, 0.32322115, -0.5799559, 0.3229958, -2.123766, -3.9661121, 1.9934998, 0
1023, 1962284366, 0.6747014, 0.32301888, -0.5801527, 0.3222654, -2.2919247, -3.4892979, 1.4920511, 0
1024, 1962301033, 0.67500633, 0.3218558, -0.5806067, 0.32197315, -2.055347, -4.3905745, 2.0479221, 0
1025, 1962317700, 0.6754537, 0.31980315, -0.5811305, 0.32213467, -2.4345434, -4.9534774, 3.9354267, 0
1026, 1962334367, 0.67605186, 0.31716815, -0.58162093, 0.32259977, -1.1344726, -4.518087, 0.21566105, 0
1027, 1962351034, 0.6763169, 0.31405634, -0.5825691, 0.32337698, 0.18550234, -5.4154105, -1.7224369, 0
1028, 1962367701, 0.6763033, 0.31058148, -0.58387345, 0.324407, -0.13122267, -4.192207, -1.8438029, 0
1029, 1962384368, 0.6759799, 0.30717984, -0.5854073, 0.32555392, -2.001201, -2.716175, 2.3530369, 0
1030, 1962401035, 0.6756149, 0.3043893, -0.5866159, 0.32675472, -4.07001, -2.032672, 1.628006, 0
1031, 1962417702, 0.6753309, 0.30199435, -0.5874092, 0.3281364, -3.6904483, -2.293815, 1.1562557, 0
1032, 1962434369, 0.6749787, 0.29959506, -0.5881834, 0.32966974, -1.8405184, -0.009093625, -1.734829, 0
1033, 1962451036, 0.6741482, 0.2975598, -0.589429, 0.33098507, -0.74882025, 1.1984031, -1.1827431, 0
1034, 1962467703, 0.67315054, 0.29611275, -0.59062165, 0.33218515, -1.7004546, 0.9074363, -1.8166504, 0
1035, 1962484370, 0.67234415, 0.29512274, -0.59126544, 0.3335513, -1.0448614, -0.9094919, 1.5391598, 0
1036, 1962501037, 0.67179126, 0.29419476, -0.59149927, 0.33506703, -0.56717485, 0.74508756, 1.7128315, 0
1037, 1962517704, 0.6712184, 0.29354033, -0.59159404, 0.33661848, -0.7123389, 1.2543979, 0.045650482, 0
1038, 1962534371, 0.67057055, 0.29341725, -0.59157115, 0.33805403, 0.63184655, 3.1254823, -2.5734515, 0
1039, 1962551038, 0.66964686, 0.29375005, -0.5917439, 0.33929127, 1.5935028, 3.2862575, -0.89184093, 0
1040, 1962567705, 0.6687842, 0.2944826, -0.59174645, 0.3403516, -0.8328236, 1.2677149, -2.554078, 0
1041, 1962584372, 0.6683155, 0.2954783, -0.5912969, 0.34118968, -0.38677803, 1.3144909, 3.6879015, 0
1042, 1962601039, 0.66796523, 0.29645607, -0.5908386, 0.34182075, 1.0916681, 1.6026981, 1.1243353, 0
1043, 1962617706, 0.6674692, 0.29748458, -0.5906546, 0.342214, 0.55692184, 0.52450085, -0.82644176, 0
1044, 1962634373, 0.6670329, 0.2984265, -0.5904858, 0.3425351, 0.98008573, -0.14449687, 0.1921978, 0
1045, 1962651040, 0.6665025, 0.2989381, -0.5905139, 0.34307292, 2.768505, -2.318625, -2.6271443, 0
1046, 1962667707, 0.66559035, 0.29877645, -0.59125096, 0.34371495, 7.6003175, 0.20761493, -2.6226358, 0
1047, 1962684374, 0.66511905, 0.2988362, -0.59155345, 0.3440545, -7.894903, 5.1756206, 2.7120876, 0
1048, 1962701041, 0.6654018, 0.3004564, -0.5908484, 0.3433076, -2.1336684, -0.68705225, 1.2725468, 0
1049, 1962717708, 0.66594434, 0.30101982, -0.5904299, 0.34248093, 2.4304476, -4.4544806, 0.7635994, 0
1050, 1962734375, 0.6663796, 0.3008671, -0.5905417, 0.34157443, 2.7903807, -1.4409022, -2.219695, 0
1051, 1962751042, 0.6665148, 0.30089495, -0.590622, 0.34114686, 0.14074543, -1.8249091, -1.1525793, 0
1052, 1962767709, 0.6667197, 0.30145904, -0.5903124, 0.34078404, -1.4139975, 0.62790823, 1.5903454, 0
1053, 1962784376, 0.66691846, 0.30199873, -0.58998466, 0.34048513, -0.41145784, 0.111273244, 2.296031, 0
1054, 1962801043, 0.6675392, 0.30275524, -0.58924836, 0.33987132, -2.9050655, 2.286298, 1.0620537, 0
1055, 1962817710, 0.6681291, 0.3036853, -0.58860874, 0.3389893, 1.1432743, 0.35289925, -0.35699463, 0
1056, 1962834377, 0.6685015, 0.30418798, -0.5881843, 0.33854088, 4.9072695, -0.8077023, -0.28073597, 0
1057, 1962851044, 0.66853076, 0.3042176, -0.58800054, 0.33877572, 2.040128, 2.6465898, 0.7956953, 0
1058, 1962867711, 0.66890985, 0.3046862, -0.58720297, 0.33898947, -3.68622, 4.9637375, 3.437626, 0
1059, 1962884378, 0.6695448, 0.30568355, -0.58593637, 0.33902976, 0.45797873, 2.9121776, -0.59128284, 0
1060, 1962901045, 0.6698078, 0.30598876, -0.5854141, 0.33913723, 2.8837602, 0.169791, -2.9642372, 0
1061, 1962917712, 0.66978174, 0.3055656, -0.5853978, 0.33959797, 2.6581178, 3.5989327, 0.35788155, 0
1062, 1962934379, 0.6693717, 0.30574092, -0.585489, 0.34009105, 0.016502297, 2.7642822, -3.9150095, 0
1063, 1962951046, 0.6691556, 0.30670786, -0.5848895, 0.34067664, -1.8219552, 0.89564556, -4.489991, 0
1064, 1962967713, 0.6692441, 0.30766007, -0.5840046, 0.34116217, 1.7285691, 2.5327134, 4.432336, 0
1065, 1962984380, 0.6693905, 0.3083551, -0.5834764, 0.3411509, 0.5145206, 2.3719785, -1.2609406, 0
1066, 1963001047, 0.66954255, 0.30984563, -0.58279467, 0.34066716, -0.9981682, 1.5440278, -2.5118136, 0
1067, 1963017714, 0.66956556, 0.31180865, -0.5820938, 0.3400291, 1.6933836, -0.023708131, 0.3826599, 0
1068, 1963034381, 0.6694752, 0.31308648, -0.58182806, 0.33948696, 3.6972654, -1.9555533, 0.43221378, 0
1069, 1963051048, 0.66921234, 0.31370428, -0.58198845, 0.33915982, 1.7694502, -0.38542104, -0.747941, 0
1070, 1963067715, 0.66925913, 0.31449318, -0.581861, 0.33855504, -1.6210831, 0.98946255, 1.0862598, 0
1071, 1963084382, 0.6695236, 0.3158413, -0.5814389, 0.3375005, 1.7258427, 0.3404898, 2.5082464, 0
1072, 1963101049, 0.6697768, 0.316628, -0.5813825, 0.33635604, 2.8372595, -1.7662195, -4.6291223, 0
1073, 1963117716, 0.67022365, 0.31609565, -0.5820352, 0.33483467, 0.21997295, -1.657681, 1.1921272, 0
1074, 1963134383, 0.6708082, 0.31480148, -0.58286685, 0.33343366, 1.4149578, -2.273872, 4.479084, 0
1075, 1963151050, 0.6711628, 0.3135022, -0.58376056, 0.3323793, 2.0043597, -2.7207935, -0.78446865, 0
1076, 1963167717, 0.67154944, 0.31215784, -0.5845403, 0.3314921, 0.36647072, -0.4008497, -0.8052206, 0
1077, 1963184384, 0.67219317, 0.3107738, -0.585245, 0.33024138, -0.47220868, -1.3141302, 0.32303715, 0
1078, 1963201051, 0.67282236, 0.3092001, -0.586054, 0.32900077, 1.5205582, -2.4433742, 2.2766018, 0
1079, 1963217718, 0.6731935, 0.30773985, -0.5868655, 0.328163, 1.1522186, -1.0223236, 0.10954094, 0
1080, 1963234385, 0.6733232, 0.30699155, -0.5873296, 0.327767, -1.0532203, -0.80884916, 3.2226887, 0
1081, 1963251052, 0.67361665, 0.30662966, -0.58714575, 0.3278324, -2.6879516, -1.1210688, -0.9569807, 0
1082, 1963267719, 0.6738762, 0.3062325, -0.58682, 0.32825306, -4.214253, 0.33030498, 0.6391649, 0
1083, 1963284386, 0.6741598, 0.3064534, -0.5861862, 0.3285969, -6.0626855, 4.347073, -2.4707184, 0
1084, 1963301053, 0.674053, 0.3074502, -0.5856797, 0.3287881, -1.0292758, -0.40243128, -3.929566, 0
1085, 1963317720, 0.6738745, 0.3072899, -0.5856638, 0.32933176, 0.3093397, -2.4924107, 1.4494534, 0
1086, 1963334387, 0.6734797, 0.30597782, -0.5861882, 0.33042604, 0.8649223, -2.0750196, 1.360527, 0
1087, 1963351054, 0.673149, 0.30477694, -0.58642924, 0.3317793, -3.2086046, -0.5088042, 1.4700794, 0
1088, 1963367721, 0.6728233, 0.30453706, -0.5861582, 0.33313626, -2.215262, 0.3418338, 1.4140663, 0
1089, 1963384388, 0.67251474, 0.3043844, -0.58593166, 0.3342957, 1.166338, -1.2777777, -0.5236759, 0
1090, 1963401055, 0.6719663, 0.30410868, -0.58631635, 0.33497402, -1.2874246, -0.300618, 0.56769085, 0
1091, 1963417722, 0.6715937, 0.30441058, -0.5863115, 0.33545527, -1.2340442, -0.6921465, 0.6965418, 0
1092, 1963434389, 0.6713082, 0.30576664, -0.58562416, 0.33599353, -0.972343, -0.86686236, 1.0611, 0
1093, 1963451056, 0.67102784, 0.3072626, -0.58479035, 0.33664072, -0.52846533, -1.3323035, -0.2710352, 0
1094, 1963467723, 0.67083603, 0.30851063, -0.5840356, 0.3371916, -2.0214064, 0.5236079, 0.36571026, 0
1095, 1963484390, 0.67077494, 0.31002647, -0.5831067, 0.3375301, -2.6864588, 1.405764, -0.9697361, 0
1096, 1963501057, 0.67066926, 0.31165516, -0.5822455, 0.33772665, 0.1436652, 1.3218462, 0.72329617, 0
1097, 1963517724, 0.67030615, 0.3133036, -0.58168393, 0.33788988, 2.752678, 2.4359243, 0.65795135, 0
1098, 1963534391, 0.669876, 0.31474042, -0.58131206, 0.33804756, 1.3387175, 1.859136, -1.9577227, 0
1099, 1963551058, 0.6697616, 0.31579402, -0.58064306, 0.33844137, -0.7198589, 1.1681364, -3.1730375, 0
1100, 1963567725, 0.6695333, 0.31690824, -0.5800765, 0.338823, 2.274797, 4.124135, -0.49981403, 0
1101, 1963584392, 0.6690006, 0.31817946, -0.57994074, 0.33891612, 2.0582728, 3.195676, -0.3451357, 0
1102, 1963601059, 0.66879016, 0.31949452, -0.5794289, 0.3389697, 2.8984878, 4.6022058, 8.428209, 0
1103, 1963617726, 0.66844785, 0.32090363, -0.5790536, 0.33895507, 1.8663312, 2.2672355, -7.8534803, 0
1104, 1963634393, 0.66855764, 0.3217803, -0.57823837, 0.33929935, -1.780767, 0.9144028, -0.14673996, 0
1105, 1963651060, 0.66860527, 0.32292938, -0.57745284, 0.33945146, 2.2403307, 6.2828946, -1.2995005, 0
1106, 1963667727, 0.66802955, 0.32427254, -0.57735306, 0.33947423, 2.352564, 3.675654, -5.096209, 0
1107, 1963684394, 0.66736203, 0.32531327, -0.57739764, 0.3397153, 0.36039275, 2.20395, -3.2082314, 0
1108, 1963701061, 0.66677827, 0.32617843, -0.57741284, 0.34000602, 0.010795229, 1.4272013, 2.1298065, 0
1109, 1963717728, 0.66620547, 0.32682943, -0.5774296, 0.34047478, -0.36554247, -1.143073, 2.456812, 0
1110, 1963734395, 0.6660037, 0.32722154, -0.57691246, 0.3413684, -2.2326262, -2.7316787, 3.690033, 0
1111, 1963751062, 0.6657652, 0.3274666, -0.5764814, 0.34232548, -1.527454, -1.084235, -0.6974354, 0
1112, 1963767729, 0.66501915, 0.3272632, -0.5770139, 0.34307235, -0.9221655, -2.4812808, -3.186768, 0
1113, 1963784396, 0.6643177, 0.32636267, -0.5779165, 0.3437691, -1.4670067, -3.4339592, 4.6722193, 0
1114, 1963801063, 0.66395533, 0.32517353, -0.5786961, 0.34428453, -1.6670043, -5.50974, 7.3708286, 0
1115, 1963817730, 0.66403574, 0.32417142, -0.5789833, 0.3445912, -2.064082, -8.043812, 0.9443922, 0
1116, 1963834397, 0.66443044, 0.32340357, -0.5788154, 0.34483406, -1.2241145, -6.387169, -2.1415095, 0
1117, 1963851064, 0.6648729, 0.3233049, -0.57860667, 0.34442374, -1.4933777, -3.6825135, -1.6906443, 0
1118, 1963867731, 0.66547513, 0.3238815, -0.578168, 0.34345403, -2.8072994, -3.158955, 0.15617657, 0
1119, 1963884398, 0.6663117, 0.3247073, -0.5775845, 0.342031, -2.7928185, -3.850269, 3.3661442, 0
1120, 1963901065, 0.66719955, 0.32551226, -0.5770427, 0.34044608, -0.7899748, -3.3844662, 2.1111994, 0
1121, 1963917732, 0.66792876, 0.326177, -0.57672346, 0.33891764, -0.37318394, -4.1517954, -0.76626873, 0
1122, 1963934399, 0.66847515, 0.3264348, -0.57677597, 0.3374998, 1.0755061, -1.8645979, -1.4087839, 0
1123, 1963951066, 0.668816, 0.3261904, -0.5773152, 0.33613604, 0.4465248, -3.5107007, -2.9083495, 0
1124, 1963967733, 0.66939104, 0.3250646, -0.5779443, 0.33499897, 0.40197733, -2.5154023, 1.1378231, 0
1125, 1963984400, 0.67011863, 0.3234765, -0.578674, 0.33382002, 1.0056554, -3.032938, 0.9285736, 0
1126, 1964001067, 0.67091393, 0.321663, -0.5793553, 0.33279172, 1.254108, -2.2198026, 2.0635023, 0
1127, 1964017734, 0.6717097, 0.31957406, -0.58021337, 0.33170235, 2.8889997, -1.1015941, 0.051246643, 0
1128, 1964034401, 0.6723311, 0.31731525, -0.5813183, 0.33067548, 0.94239116, -1.5044447, -2.5515409, 0
1129, 1964051068, 0.6730633, 0.31494358, -0.58228564, 0.32975024, 1.2683824, -0.74479336, 0.87845516, 0
1130, 1964067735, 0.6735807, 0.312564, -0.58347934, 0.32884637, 1.1947501, -0.7151659, 2.724162, 0
1131, 1964084402, 0.6740552, 0.31038985, -0.5845263, 0.32807323, 0.4546477, -0.56099117, 0.36821938, 0
1132, 1964101069, 0.6743022, 0.3086295, -0.585651, 0.32721952, 0.2335422, 0.21971446, -1.6085405, 0
1133, 1964117736, 0.6745386, 0.3071352, -0.58656085, 0.3265079, -0.09840068, -0.2630798, -1.6719036, 0
1134, 1964134403, 0.6746742, 0.3057567, -0.58744705, 0.32592767, -0.30521053, 0.21108161, 0.68155956, 0
1135, 1964151070, 0.67490566, 0.30466655, -0.5880146, 0.3254454, -2.018792, -0.9041026, 0.90233135, 0
1136, 1964167737, 0.6753548, 0.30406648, -0.587975, 0.32514656, -1.5048884, 0.52668905, 0.9723892, 0
1137, 1964184404, 0.67576265, 0.30393276, -0.5877524, 0.32482618, -0.58078724, 0.029591775, -0.46031475, 0
1138, 1964201071, 0.676007, 0.3039999, -0.5875482, 0.3246243, 0.29021013, 1.021752, -1.1656885, 0
1139, 1964217738, 0.67593294, 0.30417922, -0.587668, 0.32439342, -0.07660974, 0.86363214, -0.38166428, 0
1140, 1964234405, 0.6758504, 0.30429643, -0.5877448, 0.32431674, 0.09780122, 0.5799571, -0.090851784, 0
1141, 1964251072, 0.6757851, 0.3042017, -0.5878394, 0.32436973, -0.2115584, -0.5062952, -0.23696327, 0
1142, 1964267739, 0.67580175, 0.3037542, -0.58794034, 0.32457173, 0.29461154, -0.47472185, 1.2194653, 0
1143, 1964284406, 0.675737, 0.30310544, -0.5881367, 0.32495716, 0.8224642, -0.2945749, 0.49533176, 0
1144, 1964301073, 0.6755029, 0.30218896, -0.58864355, 0.32537922, 0.20307873, 0.3030345, -0.93136406, 0
1145, 1964317740, 0.6752231, 0.30100882, -0.5892665, 0.32592613, 1.3804773, 0.12122739, 1.7271538, 0
1146, 1964334407, 0.6747072, 0.2997022, -0.5901132, 0.32666618, 1.1519909, 0.29632732, -0.629817, 0
1147, 1964351074, 0.6743271, 0.29830605, -0.5908556, 0.32738563, -0.119757794, -0.2883791, 0.48515224, 0
1148, 1964367741, 0.6740166, 0.29715437, -0.5913921, 0.32810304, 0.5447462, 0.8250538, 1.190422, 0
1149, 1964384408, 0.6738101, 0.2963867, -0.59165716, 0.32874313, -0.011244043, -0.188464, -1.9192028, 0
1150, 1964401075, 0.67362446, 0.2958979, -0.5918328, 0.32924742, 0.25762752, 1.5223094, 0.21755028, 0
1151, 1964417742, 0.6734776, 0.29591194, -0.5918487, 0.3295068, 0.69845855, 1.7597088, -1.3278885, 0
1152, 1964434409, 0.67334914, 0.2964832, -0.5916408, 0.32962865, -0.8742866, 1.1225302, -1.0962076, 0
1153, 1964451076, 0.6734636, 0.29738244, -0.59097916, 0.3297716, -0.77033854, 1.6207222, 0.5423422, 0
1154, 1964467743, 0.67345315, 0.29830262, -0.5902979, 0.3301818, 0.38080707, 1.7252775, 1.2271366, 0
1155, 1964484410, 0.67332923, 0.29908925, -0.5897269, 0.33074284, -0.37991503, 1.905064, -0.041175842, 0
1156, 1964501077, 0.6731351, 0.30012038, -0.58910215, 0.331317, -0.11333001, 2.7274094, 0.029911995, 0
1157, 1964517744, 0.6728862, 0.3014562, -0.58837116, 0.33190846, 0.10763468, 1.6524521, -1.6211462, 0
1158, 1964534411, 0.67273366, 0.30260348, -0.5876452, 0.33245915, 1.3139763, 2.6801245, 0.8233557, 0
1159, 1964551078, 0.67253095, 0.30367157, -0.58709574, 0.33286574, 0.8421519, 1.9289521, 0.9823599, 0
1160, 1964567745, 0.67246294, 0.30489412, -0.58627254, 0.33333623, 0.3846582, 2.2298226, -0.10448456, 0
1161, 1964584412, 0.67222637, 0.30647495, -0.58548313, 0.33375093, 1.088268, 3.117607, 2.0333815, 0
1162, 1964601079, 0.6722394, 0.3081292, -0.5843712, 0.33415008, 0.68705136, 2.7444437, -1.953774, 0
1163, 1964617746, 0.67229396, 0.30995435, -0.58323276, 0.33434117, 0.8356582, 3.8225238, -1.9420466, 0
1164, 1964634413, 0.6724174, 0.31184638, -0.5820456, 0.33440265, 2.7978392, 4.4728174, -1.3809547, 0
1165, 1964651080, 0.6724237, 0.31412652, -0.5807867, 0.33444417, 2.2695796, 4.965762, -1.6746674, 0
1166, 1964667747, 0.67240375, 0.3168515, -0.57935876, 0.33439064, 1.0889208, 4.0304055, 1.0268345, 0
1167, 1964684414, 0.6725006, 0.3196602, -0.577765, 0.3342805, 1.4255742, 4.6354256, 1.1954908, 0
1168, 1964701081, 0.6725439, 0.32231715, -0.57643783, 0.33393312, 1.0591997, 4.3152294, -1.5307331, 0
1169, 1964717748, 0.672621, 0.3247187, -0.5752091, 0.33356947, 0.9291417, 3.4740727, -4.0397353, 0
1170, 1964734415, 0.6724681, 0.32686627, -0.57431614, 0.33331865, 3.4614923, 4.3232136, 0.48323536, 0
1171, 1964751082, 0.6721638, 0.3284377, -0.5737273, 0.33340204, 1.4475385, 2.272094, -1.8470216, 0
1172, 1964767749, 0.6718795, 0.32919362, -0.57333356, 0.33390626, 1.249922, 1.7484609, 5.1371098, 0
1173, 1964784416, 0.6715763, 0.32889992, -0.5734026, 0.33468622, 1.73945, 0.8072936, -2.6869268, 0
1174, 1964801083, 0.671273, 0.32764584, -0.57383096, 0.33578858, 0.29499653, -0.34439686, -5.6292367, 0
