sep=,
DeviceTag:,Xsens_DOT_1,,,,,,,,,,,,,,,,,
FirmwareVersion:,3.0.0,,,,,,,,,,,,,,,,,
AppVersion:,2023.6.1,,,,,,,,,,,,,,,,,
SyncStatus:,Synced,,,,,,,,,,,,,,,,,
OutputRate:,60Hz,,,,,,,,,,,,,,,,,
FilterProfile:,General,,,,,,,,,,,,,,,,,
Measurement Mode:,Sensor fusion Mode - Extended (Quaternion),,,,,,,,,,,,,,,,,
StartTime:,2025-05-05 11:39:12.239 +0200,,,,,,,,,,,,,,,,,
 2025,,,,,,,,,,,,,,,,,,,

PacketCounter,SampleTimeFine,Quat_W,Quat_X,Quat_Y,Quat_Z,FreeAcc_X,FreeAcc_Y,FreeAcc_Z,Status
1, 1945250692, -0.85923207, -0.14235088, -0.104063794, 0.48030126, -0.037215803, 0.10537327, 0.38309765, 0
2, 1945267359, -0.85921, -0.1420128, -0.10433219, 0.4803824, 0.0476096, 0.13148873, 0.3887415, 0
3, 1945284026, -0.8591906, -0.1416904, -0.10458751, 0.48045686, 0.07639248, 0.1273743, 0.39391994, 0
4, 1945300693, -0.85918295, -0.14136662, -0.104810975, 0.48051727, 0.082983546, 0.14854196, 0.3509617, 0
5, 1945317360, -0.8591897, -0.1410512, -0.10502061, 0.4805524, 0.07045352, 0.12785916, 0.38440132, 0
6, 1945334027, -0.8591855, -0.1407783, -0.10522384, 0.48059523, 0.013090595, 0.15052253, 0.37177563, 0
7, 1945350694, -0.8591614, -0.14057377, -0.105435826, 0.48065165, 0.0018692388, 0.15598539, 0.39663887, 0
8, 1945367361, -0.85913944, -0.1404315, -0.10559492, 0.48069766, 0.11472462, 0.14227837, 0.39191818, 0
9, 1945384028, -0.85912555, -0.14030753, -0.10571886, 0.48073152, 0.21633227, 0.11735939, 0.37924862, 0
10, 1945400695, -0.8591168, -0.14024556, -0.10580717, 0.4807456, 0.19832115, 0.11017934, 0.37938976, 0
11, 1945417362, -0.8591219, -0.14018518, -0.105847836, 0.4807453, 0.030404244, 0.04713698, 0.43766403, 0
12, 1945434029, -0.85912, -0.14020315, -0.10586098, 0.48074043, -0.070858076, 0.07484921, 0.3670225, 0
13, 1945450696, -0.8591119, -0.14028172, -0.105814934, 0.48074216, -0.06874264, 0.03128413, 0.2869501, 0
14, 1945467363, -0.8590921, -0.140365, -0.105756134, 0.48076624, -0.0073760394, -0.01811391, 0.31731606, 0
15, 1945484030, -0.85907996, -0.14046715, -0.10567355, 0.48077607, 0.031318747, -0.055346165, 0.37852, 0
16, 1945500697, -0.85907, -0.1406229, -0.10559134, 0.48076653, 0.025857432, -0.07290129, 0.4587021, 0
17, 1945517364, -0.8590448, -0.14083737, -0.10554337, 0.48075962, 0.06725449, -0.028159615, 0.38588428, 0
18, 1945534031, -0.8589937, -0.14106104, -0.10554077, 0.48078567, 0.04274853, 0.050145242, 0.35154152, 0
19, 1945550698, -0.8589324, -0.14125103, -0.10554145, 0.48083928, -0.055626564, 0.14170364, 0.4000349, 0
20, 1945567365, -0.8588978, -0.1414236, -0.105514824, 0.48085618, -0.07763074, 0.18961725, 0.37022018, 0
21, 1945584032, -0.8588697, -0.14155908, -0.105443634, 0.48088208, 0.020950092, 0.20989914, 0.3714695, 0
22, 1945600699, -0.85884994, -0.1416555, -0.10533808, 0.4809121, 0.06001021, 0.2283979, 0.42346096, 0
23, 1945617366, -0.8588338, -0.14172195, -0.105216555, 0.4809478, -0.029948166, 0.19833714, 0.39064693, 0
24, 1945634033, -0.85883033, -0.14181727, -0.10510044, 0.48095134, -0.04077033, 0.18849249, 0.31180096, 0
25, 1945650700, -0.85882884, -0.14187913, -0.104978755, 0.48096257, 0.02866024, 0.14367428, 0.31035614, 0
26, 1945667367, -0.85883534, -0.141897, -0.10487266, 0.4809686, 0.023103528, 0.1476495, 0.31013966, 0
27, 1945684034, -0.85883904, -0.14189918, -0.104782194, 0.48098123, -0.088650934, 0.15498777, 0.3862772, 0
28, 1945700701, -0.8588448, -0.14188993, -0.104710415, 0.4809892, -0.10730387, 0.14516278, 0.41011524, 0
29, 1945717368, -0.85884714, -0.14185824, -0.10464824, 0.481008, -0.03777816, 0.17703016, 0.45710087, 0
30, 1945734035, -0.85885626, -0.14179908, -0.10459522, 0.4810208, 0.057201546, 0.1420887, 0.39877605, 0
31, 1945750702, -0.85887945, -0.14170042, -0.104539745, 0.4810205, 0.041070953, 0.104849845, 0.41430378, 0
32, 1945767369, -0.8589252, -0.14158198, -0.104476586, 0.48098737, -0.06329719, 0.061325725, 0.43242836, 0
33, 1945784036, -0.858961, -0.14151701, -0.10444935, 0.48094857, -0.17420007, 0.008552137, 0.4511795, 0
34, 1945800703, -0.85899115, -0.1414862, -0.10445693, 0.48090202, -0.080780156, -0.019826103, 0.43057632, 0
35, 1945817370, -0.85899544, -0.14144456, -0.104484215, 0.48090068, 0.0030787792, -0.028999968, 0.35148048, 0
36, 1945834037, -0.85898733, -0.14141081, -0.104542166, 0.4809125, 0.06653299, 0.013327602, 0.39383507, 0
37, 1945850704, -0.85897166, -0.14134602, -0.10459907, 0.48094726, 0.051123224, 0.022897534, 0.3361616, 0
38, 1945867371, -0.85894763, -0.14125474, -0.104674265, 0.48100054, -0.017037386, 0.049480096, 0.31188965, 0
39, 1945884038, -0.85890436, -0.14119212, -0.10473119, 0.48108393, -0.044548478, 0.13075718, 0.34439754, 0
40, 1945900705, -0.8588692, -0.1411226, -0.104769334, 0.48115844, -0.008079882, 0.1215678, 0.41121483, 0
41, 1945917372, -0.8588548, -0.14103162, -0.10477784, 0.48120916, 0.07582051, 0.14026044, 0.40320873, 0
42, 1945934039, -0.85882336, -0.14097299, -0.10478516, 0.4812808, 0.052632384, 0.14919637, 0.39148617, 0
43, 1945950706, -0.858798, -0.1409661, -0.10478624, 0.48132777, 0.012424974, 0.17512745, 0.33789444, 0
44, 1945967373, -0.8587824, -0.14099881, -0.10478614, 0.48134598, 0.049563773, 0.19474718, 0.3385725, 0
45, 1945984040, -0.8587651, -0.14104755, -0.10475786, 0.48136866, 0.04129648, 0.20000508, 0.37715912, 0
46, 1946000707, -0.858745, -0.14112604, -0.104750335, 0.48138314, -0.04477691, 0.23564535, 0.31603146, 0
47, 1946017374, -0.85872954, -0.141274, -0.10473943, 0.4813698, -0.07611108, 0.25240907, 0.41867542, 0
48, 1946034041, -0.85871184, -0.14145143, -0.10471238, 0.48135546, -0.0056917574, 0.2147693, 0.41341877, 0
49, 1946050708, -0.8586812, -0.14160798, -0.1046561, 0.481376, 0.05694064, 0.18375221, 0.4113655, 0
50, 1946067375, -0.85869133, -0.14176226, -0.10457115, 0.4813311, 0.032932065, 0.1525733, 0.42180634, 0
52, 1946100709, -0.8587278, -0.14210275, -0.10434019, 0.48121557, 0.01478337, 0.07393582, 0.34512997, 0
54, 1946134043, -0.8587872, -0.1423353, -0.104010865, 0.48111215, -0.056199316, -0.05914695, 0.38724232, 0
55, 1946150710, -0.8588296, -0.1424289, -0.10381458, 0.48105124, -0.067600824, -0.13304776, 0.39004135, 0
56, 1946167377, -0.85886365, -0.14251757, -0.1036309, 0.48100394, -0.027240641, -0.16555068, 0.36404705, 0
58, 1946200711, -0.8588355, -0.14271887, -0.10341679, 0.48104042, -0.008404534, -0.19123945, 0.46386147, 0
59, 1946217378, -0.85879195, -0.14283179, -0.103336155, 0.481102, -0.04633066, -0.14154573, 0.4409504, 0
60, 1946234045, -0.8587514, -0.14296974, -0.103278965, 0.48114592, -0.05826368, -0.09271368, 0.3778515, 0
62, 1946267379, -0.8586406, -0.14322115, -0.10325502, 0.48127377, -0.024169797, 0.002672712, 0.3204193, 0
63, 1946284046, -0.85859704, -0.14332508, -0.103239626, 0.48132396, -0.012125131, 0.020644076, 0.31688404, 0
65, 1946317380, -0.8585135, -0.14352906, -0.10321432, 0.48141766, -0.07260628, 0.025093688, 0.40606976, 0
66, 1946334047, -0.8584484, -0.14371853, -0.10326328, 0.4814668, -0.12867127, 0.12444176, 0.33488464, 0
67, 1946350714, -0.8583729, -0.14397629, -0.103356466, 0.48150402, -0.08915507, 0.10716921, 0.43754196, 0
69, 1946384048, -0.85821754, -0.14445673, -0.103566855, 0.481592, 0.026793169, 0.16366406, 0.3865881, 0
70, 1946400715, -0.85817313, -0.14462897, -0.10368854, 0.4815933, -0.052686363, 0.19106983, 0.32305527, 0
71, 1946417382, -0.85814005, -0.14479792, -0.10381963, 0.4815733, -0.089897245, 0.20216286, 0.33686638, 0
73, 1946450716, -0.85808176, -0.14486791, -0.10405885, 0.48160434, -0.071308196, 0.20387708, 0.36379147, 0
74, 1946467383, -0.8580289, -0.14483768, -0.10419351, 0.48167858, -0.049833667, 0.2378838, 0.33134174, 0
75, 1946484050, -0.8579885, -0.14476588, -0.10432409, 0.48174363, 0.08558982, 0.26022658, 0.37011814, 0
77, 1946517384, -0.8579524, -0.14447168, -0.10458018, 0.48184097, -0.014820138, 0.2608087, 0.43523502, 0
79, 1946550718, -0.8579551, -0.14420131, -0.10478303, 0.48187286, 0.035689544, 0.20829189, 0.40885925, 0
81, 1946584052, -0.85798204, -0.14405943, -0.10497807, 0.48182487, 0.13236292, 0.20607744, 0.4644766, 0
82, 1946600719, -0.8579672, -0.14402118, -0.10503055, 0.48185137, 0.06463291, 0.1742956, 0.44578838, 0
83, 1946617386, -0.857967, -0.1440197, -0.10505191, 0.48184758, -0.019924168, 0.1728049, 0.38123035, 0
85, 1946650720, -0.85797644, -0.14418827, -0.105030105, 0.48178494, 0.058436234, -0.0073558115, 0.42211056, 0
86, 1946667387, -0.85797054, -0.14429939, -0.1049605, 0.4817773, 0.06833238, -3.8539222E-4, 0.39425945, 0
87, 1946684054, -0.8579628, -0.14444685, -0.1048688, 0.4817673, 0.059402034, 0.043460082, 0.3786831, 0
89, 1946717388, -0.8579282, -0.14473619, -0.10467316, 0.48178434, 0.037656903, 0.028649975, 0.3000803, 0
90, 1946734055, -0.85789657, -0.14490294, -0.10457298, 0.48181245, -0.03436344, 0.06472446, 0.34871483, 0
92, 1946767389, -0.85782576, -0.14536037, -0.10431084, 0.48185754, 0.02350574, 0.07917474, 0.41705418, 0
94, 1946800723, -0.8577701, -0.14593333, -0.103925236, 0.48186663, 0.12798844, 0.08383119, 0.42819786, 0
96, 1946834057, -0.85775226, -0.1466838, -0.103577524, 0.4817454, -0.0500317, 0.13681789, 0.33850288, 0
97, 1946850724, -0.85768867, -0.1470781, -0.10342032, 0.48177212, -0.09464021, 0.1915355, 0.29039, 0
98, 1946867391, -0.8576485, -0.14742199, -0.1032147, 0.48178267, -0.0032883226, 0.17190246, 0.28077888, 0
100, 1946900725, -0.85760206, -0.14801823, -0.10262583, 0.48180848, 0.10528913, 0.1863369, 0.41166782, 0
101, 1946917392, -0.85760915, -0.14831217, -0.10229504, 0.4817757, 0.11103006, 0.20423101, 0.3796072, 0
102, 1946934059, -0.85759914, -0.14860886, -0.101945005, 0.48177648, 0.027422022, 0.15561636, 0.32143402, 0
104, 1946967393, -0.8576021, -0.14923316, -0.10123488, 0.4817278, 6.146606E-5, 0.2048243, 0.35562515, 0
105, 1946984060, -0.8574871, -0.14964412, -0.10086376, 0.4818829, 0.02992872, 0.15649323, 0.4496441, 0
106, 1947000727, -0.85745835, -0.15005733, -0.10051699, 0.48187816, 0.0117947785, 0.16591191, 0.4100256, 0
109, 1947050728, -0.8573713, -0.15148963, -0.099316895, 0.4818337, 0.06899297, 0.02013888, 0.36797905, 0
110, 1947067395, -0.8573508, -0.15211013, -0.09891774, 0.4817567, 0.10519101, -0.105499625, 0.46602917, 0
112, 1947100729, -0.8573313, -0.1536796, -0.098097436, 0.48146105, 0.053536158, -0.111554615, 0.37983608, 0
113, 1947117396, -0.85730696, -0.15455782, -0.097740084, 0.48129585, 0.007576307, -0.03710139, 0.3612585, 0
114, 1947134063, -0.85729146, -0.15545367, -0.09743804, 0.48109585, -0.06559971, -0.04594471, 0.3508749, 0
116, 1947167397, -0.8571397, -0.15723647, -0.096883, 0.4808992, -0.07158002, -0.0011284191, 0.30675125, 0
117, 1947184064, -0.8570127, -0.15808396, -0.096615255, 0.4809017, 0.008341727, 0.037897307, 0.23991394, 0
119, 1947217398, -0.8568672, -0.15961166, -0.096027836, 0.4807741, 0.055519275, 0.18986046, 0.3623953, 0
120, 1947234065, -0.85678303, -0.16034445, -0.09576614, 0.48073208, -0.13915302, 0.25878006, 0.42090702, 0
121, 1947250732, -0.8567374, -0.16100088, -0.095483944, 0.48065028, -0.21290387, 0.25982928, 0.36544323, 0
124, 1947300733, -0.85646015, -0.16269119, -0.09470582, 0.48072937, 0.088912226, 0.12804449, 0.34479332, 0
125, 1947317400, -0.85643744, -0.16297442, -0.09434832, 0.48074377, -0.06165404, 0.14118202, 0.3754158, 0
127, 1947350734, -0.85647476, -0.16340382, -0.093759276, 0.48064685, -0.27005774, -0.08729528, 0.4732504, 0
128, 1947367401, -0.8565014, -0.16356494, -0.09359872, 0.4805759, -0.14755666, -0.1177269, 0.46749306, 0
129, 1947384068, -0.85644877, -0.16371688, -0.0935393, 0.4806295, -0.08968089, -0.16389297, 0.44229412, 0
131, 1947417402, -0.8564122, -0.16382022, -0.093646064, 0.4806387, -0.069230564, -0.05339308, 0.260602, 0
132, 1947434069, -0.8563993, -0.16373323, -0.093792744, 0.48066273, -0.103057355, -0.0032297901, 0.3230934, 0
133, 1947450736, -0.8563664, -0.163554, -0.09397047, 0.4807476, -0.17976923, 0.007650625, 0.41679478, 0
135, 1947484070, -0.85631144, -0.16296342, -0.09431923, 0.4809779, 0.057116278, 0.13128762, 0.37850857, 0
136, 1947500737, -0.8563123, -0.16254379, -0.09455538, 0.48107192, 0.047807746, 0.20072106, 0.34857368, 0
137, 1947517404, -0.8562875, -0.16211793, -0.094797485, 0.48121217, -0.013315561, 0.22268768, 0.35646057, 0
139, 1947550738, -0.85623217, -0.16126572, -0.09523089, 0.48151118, 0.0062355646, 0.20371354, 0.40948296, 0
140, 1947567405, -0.85623324, -0.16083556, -0.095375955, 0.4816243, 0.015343941, 0.18561491, 0.38280106, 0
141, 1947584072, -0.85623056, -0.16046943, -0.0954577, 0.481735, 0.012612725, 0.12661524, 0.34441185, 0
143, 1947617406, -0.8562786, -0.15999722, -0.09555797, 0.48178697, 0.112384774, -0.01460931, 0.4297657, 0
144, 1947634073, -0.8563058, -0.15992762, -0.09561426, 0.4817505, 0.10762842, -0.028756563, 0.359334, 0
146, 1947667407, -0.8563085, -0.15997773, -0.09561001, 0.4817298, 0.04304524, 0.008722314, 0.292799, 0
147, 1947684074, -0.85633016, -0.16000366, -0.09554771, 0.48169494, 7.1524146E-6, -0.016070344, 0.31279945, 0
148, 1947700741, -0.8563554, -0.1600406, -0.095519155, 0.4816435, 0.011567913, -0.027443955, 0.40957642, 0
151, 1947750742, -0.8562644, -0.16035068, -0.0954245, 0.48172104, 0.1880324, 0.012392522, 0.34864807, 0
152, 1947767409, -0.8562584, -0.16046205, -0.095408306, 0.48169786, 0.04736653, 0.051357564, 0.34279728, 0
154, 1947800743, -0.85621333, -0.16079603, -0.09535016, 0.4816782, -0.046563447, 0.10229723, 0.3995819, 0
155, 1947817410, -0.85616267, -0.16098659, -0.09530635, 0.48171335, 0.004764626, 0.1368937, 0.42096615, 0
156, 1947834077, -0.8560951, -0.16122913, -0.09526867, 0.48175988, 0.008156323, 0.18994586, 0.39480782, 0
158, 1947867411, -0.8559633, -0.16179244, -0.095145926, 0.48182923, 0.08349583, 0.21778671, 0.40766335, 0
159, 1947884078, -0.8559098, -0.16209622, -0.09507517, 0.48183632, 0.084434815, 0.22779968, 0.3866644, 0
160, 1947900745, -0.85586226, -0.16239232, -0.094973475, 0.4818411, 0.021546649, 0.22603014, 0.31076336, 0
162, 1947934079, -0.85582817, -0.16288188, -0.09472006, 0.4817863, -0.04448489, 0.21227685, 0.37784958, 0
163, 1947950746, -0.8558067, -0.1630793, -0.09457691, 0.48178554, 0.050617862, 0.15242957, 0.36428833, 0
166, 1948000747, -0.85571647, -0.16342363, -0.09416726, 0.48190933, -0.040743284, 0.1392711, 0.34126282, 0
167, 1948017414, -0.8556801, -0.16351435, -0.094057165, 0.48196465, -0.008141235, 0.10120513, 0.44054317, 0
168, 1948034081, -0.8556453, -0.16354792, -0.09391929, 0.48204195, -0.038885333, 0.058833793, 0.37818813, 0
170, 1948067415, -0.85561705, -0.16363114, -0.0936498, 0.4821163, 0.029034222, 0.0033181196, 0.31539917, 0
171, 1948084082, -0.85558355, -0.16368647, -0.09354681, 0.48217702, 0.033431057, -0.008706849, 0.4107685, 0
173, 1948117416, -0.85552645, -0.16382486, -0.09347449, 0.48224527, -0.16458087, -0.016379056, 0.4546423, 0
174, 1948134083, -0.85550433, -0.16390829, -0.09344955, 0.482261, -0.07292647, -0.019336022, 0.36116695, 0
175, 1948150750, -0.8554734, -0.1639849, -0.093457796, 0.48228812, 0.040754125, 0.023201777, 0.30570507, 0
177, 1948184084, -0.8554438, -0.16403095, -0.09351002, 0.482315, -0.08915183, 0.013976139, 0.40803337, 0
178, 1948200751, -0.8554044, -0.16403925, -0.093537435, 0.4823768, -0.1328485, 0.028101278, 0.38946724, 0
181, 1948250752, -0.85526145, -0.16398963, -0.0937323, 0.4826091, 0.0332556, 0.017633231, 0.37880898, 0
182, 1948267419, -0.8552068, -0.16392623, -0.0938196, 0.48271078, -0.10692949, 0.016038423, 0.39854622, 0
183, 1948284086, -0.8551726, -0.16385712, -0.09394554, 0.4827701, -0.14810672, -0.006141801, 0.40197945, 0
185, 1948317420, -0.855074, -0.16379923, -0.094305255, 0.48289424, 0.046213202, -0.06762805, 0.3221178, 0
186, 1948334087, -0.8550288, -0.16375737, -0.0944911, 0.48295245, 0.08494822, -0.0890074, 0.35015583, 0
187, 1948350754, -0.85501724, -0.16367233, -0.09467912, 0.48296466, 0.0074139247, -0.058850683, 0.39700413, 0
189, 1948384088, -0.85500264, -0.16344517, -0.09500333, 0.48300374, -0.18490869, -0.029830541, 0.44248295, 0
190, 1948400755, -0.85500187, -0.16329908, -0.09517874, 0.48302007, -0.11287617, -0.0048733926, 0.38645267, 0
191, 1948417422, -0.85499716, -0.16314119, -0.095399976, 0.4830382, -0.0069445474, -0.0018515952, 0.31112862, 0
193, 1948450756, -0.8549367, -0.16277042, -0.09584108, 0.48318273, 0.05579085, -0.013577192, 0.37192822, 0
195, 1948484090, -0.8549435, -0.16226138, -0.09620495, 0.48326984, -0.13843688, -4.479479E-4, 0.3935461, 0
197, 1948517424, -0.8549317, -0.16178, -0.09653436, 0.4833864, 0.13368231, -0.02861804, 0.31840038, 0
198, 1948534091, -0.8549229, -0.16158102, -0.09669394, 0.48343664, 0.13554317, 0.033137403, 0.32102394, 0
200, 1948567425, -0.8548598, -0.16132425, -0.09709543, 0.48355323, -0.021039164, 0.1435962, 0.40706158, 0
201, 1948584092, -0.8548266, -0.16121343, -0.09726974, 0.48361385, -0.024303235, 0.19483934, 0.31545353, 0
202, 1948600759, -0.85478395, -0.16114663, -0.09742674, 0.48367998, 0.08551282, 0.26833814, 0.34531116, 0
204, 1948634093, -0.85466194, -0.16111277, -0.0976677, 0.4838579, 0.08342263, 0.28098008, 0.44547558, 0
205, 1948650760, -0.85461, -0.16114554, -0.09774701, 0.4839231, -0.026688453, 0.32145092, 0.3933363, 0
206, 1948667427, -0.8545686, -0.16123416, -0.097772025, 0.48396146, 0.036548167, 0.28324127, 0.3380165, 0
208, 1948700761, -0.8544647, -0.16145891, -0.097732216, 0.48407823, 0.17729025, 0.19481017, 0.35614777, 0
209, 1948717428, -0.85443443, -0.16158748, -0.097637184, 0.4841079, 0.0695455, 0.11628485, 0.3635559, 0
210, 1948734095, -0.85444593, -0.16174726, -0.09748881, 0.48406386, 0.039055202, 0.06770527, 0.2996683, 0
213, 1948784096, -0.85441613, -0.16247262, -0.09685079, 0.484002, -0.022247363, -0.092051215, 0.3885393, 0
214, 1948800763, -0.854424, -0.16278067, -0.09659372, 0.48393583, 0.066158496, -0.15192701, 0.4247408, 0
216, 1948834097, -0.8543702, -0.16343835, -0.095978424, 0.48393142, 0.025338657, -0.1659396, 0.35599327, 0
217, 1948850764, -0.8543367, -0.1638301, -0.0957156, 0.48391023, -0.03625051, -0.11284626, 0.30970764, 0
218, 1948867431, -0.85428816, -0.16425824, -0.09552153, 0.48388916, -0.0014955252, -0.08225693, 0.3315239, 0
220, 1948900765, -0.8541484, -0.16506566, -0.09512186, 0.48394, -0.035360865, -0.0064272126, 0.3636179, 0
221, 1948917432, -0.8541304, -0.16540068, -0.09490268, 0.4839001, -0.039327104, 0.018164115, 0.31525517, 0
224, 1948967433, -0.8539969, -0.1663982, -0.09431429, 0.483909, -0.13090909, 0.13368417, 0.4112816, 0
225, 1948984100, -0.85393417, -0.16674496, -0.09415837, 0.48393065, -0.08728214, 0.14652461, 0.3345499, 0
227, 1949017434, -0.85380965, -0.16737092, -0.09392425, 0.4839797, -0.020578166, 0.17003371, 0.38613033, 0
228, 1949034101, -0.8537905, -0.16757992, -0.09380625, 0.4839641, -0.06708339, 0.1478118, 0.411911, 0
229, 1949050768, -0.85372955, -0.16772684, -0.09365782, 0.48404962, -0.08632372, 0.21010801, 0.39834785, 0
231, 1949084102, -0.8536961, -0.16783616, -0.09342566, 0.4841153, -0.11214282, 0.12443056, 0.3394003, 0
232, 1949100769, -0.85370994, -0.16782522, -0.0933352, 0.4841121, -8.3448563E-4, -0.0023577544, 0.39833832, 0
233, 1949117436, -0.85374933, -0.16775921, -0.09323849, 0.48408425, 0.049099427, -0.07303986, 0.38346767, 0
235, 1949150770, -0.85379785, -0.16746141, -0.09306949, 0.4841342, -0.12880291, -0.10469661, 0.34916687, 0
236, 1949167437, -0.8538598, -0.16722181, -0.09297847, 0.48412526, -0.15554088, -0.16771927, 0.36679935, 0
239, 1949217438, -0.85418326, -0.16613175, -0.09261122, 0.48400065, -0.011765946, -0.21341473, 0.36033344, 0
240, 1949234105, -0.85421944, -0.1658795, -0.09268123, 0.48400998, -0.005040217, -0.15994063, 0.2194252, 0
241, 1949250772, -0.8542067, -0.16569169, -0.09282254, 0.48406938, 0.006454108, -0.16766287, 0.42675877, 0
243, 1949284106, -0.8542772, -0.16520476, -0.09317469, 0.4840437, -0.14459321, -0.024744267, 0.36764526, 0
244, 1949300773, -0.8542681, -0.16499949, -0.09336014, 0.48409432, -0.075476415, 0.04960511, 0.3913555, 0
245, 1949317440, -0.85425115, -0.16480914, -0.09357457, 0.48414773, 0.04483413, 0.07599689, 0.36903954, 0
247, 1949350774, -0.8541732, -0.16447045, -0.09399846, 0.4843182, 0.029418217, 0.22741933, 0.2998886, 0
248, 1949367441, -0.854139, -0.16433777, -0.094246924, 0.48437536, 0.049820032, 0.28607434, 0.41719723, 0
249, 1949384108, -0.85409164, -0.16419986, -0.094475046, 0.48446083, 0.0454565, 0.30674678, 0.44053936, 0
251, 1949417442, -0.8540679, -0.16393965, -0.09484509, 0.48451862, 0.0510555, 0.3611448, 0.2972927, 0
254, 1949467443, -0.8540043, -0.16371086, -0.09520361, 0.4846378, 0.0107209105, 0.19768766, 0.25637913, 0
255, 1949484110, -0.8539848, -0.1637017, -0.09529332, 0.48465768, 0.0062023727, 0.33404264, 0.30294323, 0
256, 1949500777, -0.85391366, -0.16371025, -0.09536606, 0.48476577, 0.15578339, 0.36166483, 0.31239796, 0
258, 1949534111, -0.85373247, -0.16382794, -0.0957097, 0.48497736, 0.17203736, 0.55617344, 0.3332367, 0
259, 1949550778, -0.8536116, -0.16406204, -0.09589236, 0.48507512, -0.049337246, 0.48482642, 0.4364729, 0
260, 1949567445, -0.8535143, -0.16426131, -0.095970854, 0.4851631, -0.010880723, 0.44044748, 0.42545223, 0
262, 1949600779, -0.8534145, -0.1646454, -0.09597868, 0.48520714, 0.07420015, 0.39501664, 0.5341997, 0
263, 1949617446, -0.8533927, -0.16492465, -0.09588744, 0.48516858, 0.15257117, 0.32247594, 0.4519329, 0
264, 1949634113, -0.85340786, -0.16520853, -0.095734216, 0.48507544, 0.17528735, 0.18390152, 0.3546276, 0
266, 1949667447, -0.8534502, -0.16569263, -0.09521989, 0.484937, -0.105822094, -0.021071363, 0.3379488, 0
268, 1949700781, -0.8535539, -0.16599369, -0.09456937, 0.48477876, -0.07788197, -0.25115478, 0.37286472, 0
270, 1949734115, -0.8536649, -0.16589864, -0.09390397, 0.4847452, 0.053116288, -0.4258541, 0.2917509, 0
271, 1949750782, -0.8536897, -0.16584334, -0.09365653, 0.48476863, -0.06962976, -0.46537277, 0.3641615, 0
272, 1949767449, -0.8536941, -0.16576664, -0.09344629, 0.48482746, -0.07253063, -0.50249636, 0.42718506, 0
274, 1949800783, -0.85370475, -0.1655956, -0.09321901, 0.4849109, -0.17602293, -0.33234754, 0.34660816, 0
275, 1949817450, -0.85370517, -0.16557902, -0.09319922, 0.48491952, -0.2117204, -0.33331466, 0.37374973, 0
276, 1949834117, -0.85370797, -0.16557625, -0.09320905, 0.48491392, -0.11117534, -0.2301331, 0.38743973, 0
278, 1949867451, -0.85358983, -0.16563125, -0.0933468, 0.48507625, -0.06209458, 0.01329388, 0.31371593, 0
279, 1949884118, -0.85350394, -0.16569838, -0.09348685, 0.48517752, -0.031311594, 0.12885226, 0.33245277, 0
281, 1949917452, -0.8533833, -0.16572937, -0.09387603, 0.48530427, -0.11331939, 0.2690084, 0.42314243, 0
282, 1949934119, -0.8533337, -0.16563593, -0.09406053, 0.4853875, -0.08704779, 0.33774638, 0.4056816, 0
283, 1949950786, -0.85331583, -0.16546005, -0.09423591, 0.4854449, -0.04637905, 0.33576715, 0.34145164, 0
285, 1949984120, -0.85332483, -0.16487399, -0.09443523, 0.4855897, 0.078677565, 0.2380851, 0.33904076, 0
286, 1950000787, -0.8533637, -0.16449927, -0.094503276, 0.48563528, -0.024405267, 0.15645127, 0.366395, 0
287, 1950017454, -0.853402, -0.16412202, -0.09462705, 0.4856714, -0.08328249, 0.15282999, 0.42222404, 0
289, 1950050788, -0.85345876, -0.1633576, -0.09493628, 0.48576903, -0.035378188, 0.052952573, 0.33110428, 0
290, 1950067455, -0.8534559, -0.16294137, -0.09509196, 0.4858836, -0.04407139, 0.0062249755, 0.37256336, 0
291, 1950084122, -0.85348094, -0.16251487, -0.09524101, 0.48595318, -0.08210335, -0.04052364, 0.39881134, 0
293, 1950117456, -0.85358083, -0.16164981, -0.09554531, 0.48600662, 0.009173642, -0.100980304, 0.34364033, 0
295, 1950150790, -0.85365915, -0.16074494, -0.095901534, 0.48609883, -0.015272976, -0.120426096, 0.31575584, 0
297, 1950184124, -0.8537256, -0.15984368, -0.0962985, 0.48620087, -0.105532534, -0.14298774, 0.38090897, 0
298, 1950200791, -0.8537288, -0.15942924, -0.09651424, 0.4862886, -7.758135E-4, -0.12561138, 0.3828516, 0
299, 1950217458, -0.85372794, -0.15902448, -0.096758164, 0.48637432, 0.06651757, -0.07192854, 0.4244938, 0
301, 1950250792, -0.853754, -0.15827565, -0.097216964, 0.48648104, 0.06893609, -0.023470355, 0.33456993, 0
302, 1950267459, -0.85377717, -0.15793197, -0.09743948, 0.4865077, 0.041564915, 0.010064076, 0.39619923, 0
303, 1950284126, -0.85378635, -0.15762633, -0.09767653, 0.486543, -0.039848447, 0.07111572, 0.40462875, 0
305, 1950317460, -0.85378003, -0.15710127, -0.09808779, 0.48664126, 0.0351026, 0.14050852, 0.315382, 0
306, 1950334127, -0.8537983, -0.1568255, -0.098272875, 0.48666102, 0.10898201, 0.11100313, 0.3482895, 0
308, 1950367461, -0.8538026, -0.156341, -0.09858815, 0.48674542, 0.00508302, 0.23947103, 0.37296486, 0
310, 1950400795, -0.8538032, -0.15599883, -0.09883449, 0.48680413, 0.08230797, 0.20893669, 0.36848164, 0
312, 1950434129, -0.8537533, -0.15563798, -0.09892504, 0.48698884, -0.046393577, 0.24104208, 0.37213135, 0
313, 1950450796, -0.85376865, -0.15549955, -0.09895376, 0.4870004, 0.09296106, 0.2551599, 0.3662901, 0
314, 1950467463, -0.85374606, -0.15537357, -0.09895423, 0.48707983, 0.15684518, 0.20378962, 0.4239273, 0
316, 1950500797, -0.8537541, -0.15517522, -0.0988794, 0.48714438, 0.009934033, 0.13682626, 0.40224743, 0
317, 1950517464, -0.85377944, -0.1551486, -0.09880339, 0.4871239, 0.03456259, 0.12994464, 0.39378166, 0
318, 1950534131, -0.8537974, -0.1551519, -0.09873042, 0.48710608, 0.054753523, 0.09396535, 0.4242878, 0
320, 1950567465, -0.8538368, -0.15526249, -0.09853776, 0.4870409, 4.246746E-5, 0.0032330032, 0.35068893, 0
321, 1950584132, -0.853842, -0.15532023, -0.09839301, 0.48704225, 0.02185331, -0.008847676, 0.3292942, 0
322, 1950600799, -0.8538317, -0.15538608, -0.09824498, 0.4870693, 5.2760233E-4, -0.041983947, 0.36982632, 0
325, 1950650800, -0.85385936, -0.1556495, -0.09785682, 0.4870149, 0.010063, -0.110948004, 0.34837055, 0
326, 1950667467, -0.85386884, -0.15571332, -0.0977514, 0.48699906, 0.025115034, -0.057779916, 0.3632574, 0
328, 1950700801, -0.8538503, -0.155872, -0.097497016, 0.4870317, -0.01929632, -0.07399374, 0.48302555, 0
329, 1950717468, -0.85378325, -0.15601748, -0.09743651, 0.48711497, 0.060462825, -0.07350623, 0.50038624, 0
330, 1950734135, -0.8536891, -0.15623713, -0.097440876, 0.48720872, -0.113900304, -0.19026507, 0.39691448, 0
332, 1950767469, -0.85350335, -0.15664352, -0.09756209, 0.48737955, 0.056279108, 0.31445345, 0.31392193, 0
333, 1950784136, -0.8533505, -0.15686384, -0.097795695, 0.48752928, 0.26262918, 0.43354592, 0.2891388, 0
336, 1950834137, -0.85289454, -0.15750036, -0.098729074, 0.4879336, -0.25582153, 0.88604623, 0.34323025, 0
337, 1950850804, -0.85273504, -0.1576902, -0.09892598, 0.48811144, -0.18511674, 0.8678646, 0.45619774, 0
339, 1950884138, -0.85251456, -0.15815283, -0.099124976, 0.48830613, 0.31295648, 0.73174137, 0.5155611, 0
341, 1950917472, -0.85251504, -0.15878558, -0.09911375, 0.48810235, 0.21223785, 0.5745113, 0.36214352, 0
343, 1950950806, -0.85261136, -0.1590871, -0.09877981, 0.48790348, -0.28698003, 0.1444476, 0.30283165, 0
344, 1950967473, -0.8527086, -0.15907395, -0.09849224, 0.48779598, -0.14545117, -0.004518007, 0.3670292, 0
345, 1950984140, -0.8527925, -0.15897796, -0.09817999, 0.48774353, 0.06789139, -0.19142133, 0.39886189, 0
347, 1951017474, -0.8529732, -0.15852883, -0.09753888, 0.4877024, 0.06861378, -0.51230425, 0.36261272, 0
348, 1951034141, -0.85306287, -0.15827009, -0.09723312, 0.4876908, -0.02110577, -0.5940722, 0.38341618, 0
349, 1951050808, -0.85312796, -0.15805364, -0.096972376, 0.48769873, -0.16293077, -0.59565794, 0.46204853, 0
351, 1951084142, -0.8531784, -0.15778753, -0.09665407, 0.4877599, -0.059201207, -0.59174067, 0.4494028, 0
352, 1951100809, -0.85316724, -0.1578033, -0.096634895, 0.48777807, -0.0501382, -0.4834174, 0.3735094, 0
353, 1951117476, -0.8530941, -0.15790273, -0.09667065, 0.48786676, -0.03280533, -0.43388897, 0.3711233, 0
355, 1951150810, -0.85299146, -0.15799555, -0.09675348, 0.4879999, -0.20231844, -0.20097895, 0.27028275, 0
356, 1951167477, -0.8529405, -0.158046, -0.096779086, 0.4880675, -0.29112843, -0.13612723, 0.3229065, 0
357, 1951184144, -0.8529043, -0.15808724, -0.096754014, 0.48812237, -0.09833442, -0.11954958, 0.34446812, 0
359, 1951217478, -0.8528362, -0.15799613, -0.09674264, 0.4882732, 0.024781328, -0.0076397145, 0.31941128, 0
360, 1951234145, -0.85280776, -0.15789576, -0.096732974, 0.48835698, -0.098099165, 0.0025421106, 0.43155098, 0
362, 1951267479, -0.85277665, -0.15770978, -0.096776, 0.4884628, -0.098225676, -0.010694369, 0.46068, 0
363, 1951284146, -0.8527559, -0.15761366, -0.09682322, 0.48852104, -0.13894571, 0.021975333, 0.39182377, 0
364, 1951300813, -0.8527998, -0.15750584, -0.09689833, 0.48846406, -0.10756237, -6.3641125E-4, 0.37211704, 0
366, 1951334147, -0.8527676, -0.15728569, -0.09714249, 0.48854312, 0.06655188, 0.041815042, 0.34134388, 0
368, 1951367481, -0.8527561, -0.15696077, -0.0974821, 0.4885996, -0.13862407, 0.14403896, 0.32133293, 0
370, 1951400815, -0.8527366, -0.1565129, -0.09775376, 0.4887231, 0.046163697, 0.10646526, 0.3422737, 0
371, 1951417482, -0.8527318, -0.15625079, -0.09789788, 0.48878664, 0.040352583, 0.2077003, 0.3896923, 0
372, 1951434149, -0.85273784, -0.15598069, -0.0980358, 0.48883477, -0.03493418, 0.19082741, 0.3562994, 0
374, 1951467483, -0.85276294, -0.15549934, -0.09830971, 0.48888904, 0.030685535, 0.15973534, 0.35208702, 0
375, 1951484150, -0.8527587, -0.15531348, -0.098456055, 0.4889262, 0.039993845, 0.1163488, 0.44504166, 0
376, 1951500817, -0.85277104, -0.155157, -0.09857005, 0.4889314, 0.008215219, 0.16375622, 0.40362167, 0
378, 1951534151, -0.85274774, -0.15495077, -0.098778814, 0.4889953, 0.11722439, 0.15507223, 0.36311054, 0
379, 1951550818, -0.8527353, -0.15478528, -0.0988889, 0.48904723, -0.069684744, 0.08044545, 0.443079, 0
380, 1951567485, -0.8527282, -0.15464151, -0.09899054, 0.48908436, -0.17055468, 0.06256772, 0.4474392, 0
383, 1951617486, -0.85284305, -0.15430593, -0.09929428, 0.48892856, 0.15506916, -0.02094646, 0.33405113, 0
384, 1951634153, -0.8528784, -0.15413806, -0.09936986, 0.48890463, -0.05068489, -0.048713375, 0.3970585, 0
386, 1951667487, -0.8529409, -0.15370262, -0.099408224, 0.4889248, -0.12282529, -0.08713337, 0.3184843, 0
387, 1951684154, -0.8529576, -0.15343465, -0.09942328, 0.48897678, 0.016961168, -0.10870184, 0.28558445, 0
389, 1951717488, -0.8529487, -0.15287621, -0.09941744, 0.4891683, 0.035968933, -0.17658943, 0.41510582, 0
390, 1951734155, -0.85296035, -0.152616, -0.099413924, 0.48923013, -0.039026815, -0.17691794, 0.38969326, 0
391, 1951750822, -0.85297847, -0.15237042, -0.0994135, 0.48927522, -0.05449693, -0.15841733, 0.36560345, 0
393, 1951784156, -0.85299593, -0.15186557, -0.099389896, 0.4894062, -0.10726957, -0.13816068, 0.37173462, 0
394, 1951800823, -0.85303295, -0.15167032, -0.09942007, 0.48939615, -0.12774771, -0.06078429, 0.31186867, 0
395, 1951817490, -0.8530232, -0.1515426, -0.09950651, 0.4894352, -0.0042081904, -0.07124126, 0.32842827, 0
398, 1951867491, -0.8529, -0.1512405, -0.09988945, 0.48966536, -0.09085165, 0.0059790555, 0.34994698, 0
399, 1951884158, -0.8528691, -0.15105206, -0.09998238, 0.4897583, 0.07184131, 0.046081442, 0.3220787, 0
401, 1951917492, -0.8528205, -0.15039782, -0.100087106, 0.49002266, -0.1569641, 0.22716379, 0.19347, 0
402, 1951934159, -0.85280657, -0.14994368, -0.10005711, 0.4901923, 0.0100785345, 0.14312223, 0.2868929, 0
403, 1951950826, -0.85279024, -0.14942269, -0.09998535, 0.4903946, 0.18811744, 0.15941358, 0.25262737, 0
405, 1951984160, -0.8528222, -0.1482584, -0.09985728, 0.49071813, 0.007875255, 0.31550658, 0.4991789, 0
406, 1952000827, -0.85279703, -0.14776723, -0.099954866, 0.49089018, -0.2291589, 0.16950281, 0.6245518, 0
407, 1952017494, -0.85273224, -0.14740008, -0.10022728, 0.49105763, -0.21866351, 0.3271568, 0.19860363, 0
409, 1952050828, -0.8526072, -0.14664295, -0.10072146, 0.49140003, -0.10197734, 0.0334474, 0.7569666, 0
410, 1952067495, -0.85252887, -0.14610045, -0.10095482, 0.49164972, 0.29197776, 0.31124604, 0.3115101, 0
413, 1952117496, -0.8523237, -0.14468722, -0.10205867, 0.49219537, 0.12731275, 0.06762829, 0.61173916, 0
414, 1952134163, -0.8522124, -0.14416978, -0.10236698, 0.4924757, 0.21303277, 0.01281545, 0.349514, 0
415, 1952150830, -0.85205966, -0.1437118, -0.10271551, 0.492801, 0.16539422, 0.30667856, 0.326396, 0
417, 1952184164, -0.8519982, -0.14277807, -0.10302913, 0.49311322, -0.00494623, 0.7151884, 0.49317265, 0
418, 1952200831, -0.85194206, -0.14244133, -0.10324152, 0.49326324, 0.06062152, 0.948477, 0.51549244, 0
420, 1952234165, -0.85185874, -0.14196596, -0.10361695, 0.4934654, 0.011218116, 0.9691644, 0.639308, 0
421, 1952250832, -0.8518598, -0.14184491, -0.10375482, 0.4934695, 0.4178502, 1.0139025, 0.39432335, 0
422, 1952267499, -0.8517932, -0.14196177, -0.10403524, 0.49349177, 0.2680537, 0.61293936, 0.54514694, 0
424, 1952300833, -0.85135067, -0.14256059, -0.104977146, 0.4938833, -0.07741852, 0.20551193, 0.08547306, 0
425, 1952317500, -0.8510493, -0.14300333, -0.10534616, 0.49419576, -0.026546186, 0.3878627, 0.27876663, 0
426, 1952334167, -0.850713, -0.14328213, -0.10553239, 0.49465412, 0.26129726, 0.41628423, 0.33226204, 0
428, 1952367501, -0.85035557, -0.14317958, -0.10529866, 0.4953477, 0.30497316, 0.5677011, -0.15088367, 0
429, 1952384168, -0.8503985, -0.14264941, -0.104710214, 0.49555153, 0.16547357, 0.4597616, -0.08997154, 0
430, 1952400835, -0.8504245, -0.14214829, -0.10380848, 0.49584046, -0.083755, -0.017200608, 0.746748, 0
432, 1952434169, -0.8498193, -0.14302218, -0.10363096, 0.49666348, -0.6722449, 0.754988, 1.5837793, 0
433, 1952450836, -0.84911597, -0.14446093, -0.10474554, 0.497216, -0.48407096, 1.2261767, 1.1162634, 0
434, 1952467503, -0.8481951, -0.14580716, -0.10636447, 0.49805018, 0.034272246, 1.0946684, -0.12558174, 0
436, 1952500837, -0.8469176, -0.14619292, -0.10833145, 0.4996845, 0.048386868, 0.1801282, -0.0757637, 0
437, 1952517504, -0.8470762, -0.14537092, -0.107713535, 0.49978906, 0.21332468, 0.17983176, -0.06842899, 0
440, 1952567505, -0.8477884, -0.14411105, -0.10531147, 0.49945813, 0.25919902, 1.5304183, 0.31397343, 0
441, 1952584172, -0.8476281, -0.14484628, -0.10524945, 0.49953055, 0.23462602, 1.6058407, 0.2606001, 0
443, 1952617506, -0.84743893, -0.14625788, -0.10574941, 0.49933445, 0.43141755, 1.8280044, 0.6133909, 0
444, 1952634173, -0.8474622, -0.14691958, -0.10627637, 0.498989, 0.05027086, 2.4715316, 0.7077751, 0
445, 1952650840, -0.84748554, -0.14815737, -0.10653144, 0.4985286, 0.0012451906, 2.3834562, 1.1711149, 0
447, 1952684174, -0.8477831, -0.15151799, -0.105559394, 0.49721783, 0.5632579, 2.1575193, 1.1748667, 0
448, 1952700841, -0.8480737, -0.1537566, -0.1043392, 0.49629155, 0.29521257, 2.0493588, 1.1946955, 0
449, 1952717508, -0.84855056, -0.15524395, -0.10273993, 0.49534634, 0.3922983, 2.243738, 0.4072857, 0
451, 1952750842, -0.8490952, -0.15753758, -0.09901288, 0.49444693, -0.75067484, 1.7378869, -0.5453701, 0
452, 1952767509, -0.84971476, -0.15878314, -0.09767759, 0.4932484, -1.0421609, 0.7551828, -0.45763397, 0
455, 1952817510, -0.853203, -0.16465679, -0.10880007, 0.48286396, -0.036769558, -7.7127275, 1.1862984, 0
456, 1952834177, -0.8516281, -0.16416168, -0.11938234, 0.48331195, 1.176502, -5.9603205, -2.238214, 0
457, 1952850844, -0.84771967, -0.16416125, -0.13624127, 0.48571867, -0.8266556, -2.6413865, -8.987676, 0
459, 1952884178, -0.847039, -0.1591672, -0.152071, 0.483867, 2.2913213, 13.844824, 1.0890093, 0
460, 1952900845, -0.8495254, -0.1545651, -0.14513892, 0.4831284, 3.7359617, 19.726576, 1.2844782, 0
461, 1952917512, -0.85212034, -0.15045482, -0.13417943, 0.48302418, 0.56682765, 6.3606153, -0.60389614, 0
463, 1952950846, -0.85898054, -0.1382044, -0.11277038, 0.4799971, 1.183498, 2.1864448, 1.7995281, 0
464, 1952967513, -0.86029047, -0.13538265, -0.11057387, 0.47896498, 0.5874609, 8.171471, -0.66894245, 0
465, 1952984180, -0.8592471, -0.13671647, -0.112833664, 0.47993082, -1.0567485, 2.1240194, 5.199588, 0
467, 1953017514, -0.8565552, -0.14447972, -0.11788898, 0.48125154, 2.6395, 3.3559127, -1.6474648, 0
470, 1953067515, -0.8551953, -0.14808172, -0.11691097, 0.48281136, -0.18189406, 3.7611063, -0.3245964, 0
471, 1953084182, -0.8542887, -0.14979625, -0.11711849, 0.48383588, 1.0174978, 3.24992, 1.2925987, 0
472, 1953100849, -0.852994, -0.15122777, -0.1179143, 0.485479, 0.66042477, 3.7236419, 2.2191877, 0
474, 1953134183, -0.8465295, -0.15885442, -0.12087412, 0.49356323, -0.21083687, 5.6846824, 0.7911148, 0
475, 1953150850, -0.8426099, -0.16252254, -0.120983124, 0.49901932, 1.3449086, 5.2103224, -0.3110819, 0
476, 1953167517, -0.83949304, -0.16632187, -0.12208952, 0.502737, 2.1106048, 5.3121433, -2.718296, 0
478, 1953200851, -0.8385745, -0.17022905, -0.12066926, 0.503305, 1.2418641, 3.025282, -0.023906708, 0
479, 1953217518, -0.83981586, -0.17180602, -0.117957085, 0.50133866, -2.1758986E-4, 2.9075804, -0.8754606, 0
480, 1953234185, -0.84140384, -0.1719221, -0.1132728, 0.49971366, -1.2341684, 1.7934908, 0.8181591, 0
482, 1953267519, -0.8455307, -0.16908185, -0.100043654, 0.49653062, -0.4732479, 2.9703314, -2.4410706, 0
484, 1953300853, -0.8462259, -0.1689189, -0.09534523, 0.4963261, -0.9177284, -2.3303485, 0.70378685, 0
486, 1953334187, -0.8470761, -0.1734654, -0.09042184, 0.49422434, 0.7698657, -3.9818547, 2.144024, 0
487, 1953350854, -0.84741664, -0.17748551, -0.08852126, 0.49255455, -0.6202871, -3.7129734, 3.3583755, 0
488, 1953367521, -0.8474637, -0.18281166, -0.08752235, 0.4907007, -2.0231717, -4.19512, 2.0372314, 0
490, 1953400855, -0.8476812, -0.19054078, -0.08649787, 0.48755616, -2.1617057, -2.743348, 0.6666107, 0
491, 1953417522, -0.84788775, -0.19222467, -0.08650046, 0.4865346, -0.92539245, -0.9541917, 1.8317261, 0
492, 1953434189, -0.84793675, -0.19324633, -0.08771204, 0.48582682, -1.0171472, -1.3554213, 0.8903713, 0
494, 1953467523, -0.848662, -0.19168997, -0.089334026, 0.4848808, -0.51005447, 0.7945553, 0.232687, 0
495, 1953484190, -0.84896535, -0.19044861, -0.09001014, 0.48471388, 0.28339118, -0.11532893, 0.53655434, 0
497, 1953517524, -0.8496995, -0.18764678, -0.09039425, 0.4844486, 1.655339, -0.41922694, 1.2217741, 0
498, 1953534191, -0.8501417, -0.18654, -0.09000503, 0.48417264, 1.0286887, 1.3448822, 0.06891632, 0
499, 1953550858, -0.85046893, -0.18597429, -0.08975021, 0.48386282, 0.25372723, 0.9503641, 0.5567837, 0
501, 1953584192, -0.8508101, -0.18626454, -0.08930521, 0.4832331, 0.8072535, 1.6689466, -0.1349926, 0
502, 1953600859, -0.8509311, -0.1864811, -0.08949803, 0.48290056, 0.6793073, 2.126234, -1.0169563, 0
503, 1953617526, -0.851006, -0.18654643, -0.08961314, 0.482722, -0.35864776, 1.8853054, -0.1948843, 0
505, 1953650860, -0.85151786, -0.18607824, -0.0889981, 0.4821139, -0.022369176, 2.5354478, -0.20338058, 0
506, 1953667527, -0.85183585, -0.18570128, -0.088386096, 0.48180968, 0.01683645, 1.8879192, 0.38402653, 0
507, 1953684194, -0.8521446, -0.18548276, -0.087725095, 0.4814686, -0.45254242, 2.3526819, -0.22218609, 0
509, 1953717528, -0.85276407, -0.18441032, -0.08569211, 0.48115015, -0.028777182, 1.8807594, 0.6756048, 0
511, 1953750862, -0.8536198, -0.1830716, -0.082959, 0.48062247, 0.4738667, 1.627775, 0.11440849, 0
513, 1953784196, -0.85423046, -0.18245007, -0.08085125, 0.48013264, -0.5524774, 2.420414, 0.8980627, 0
514, 1953800863, -0.85433114, -0.18209404, -0.0800431, 0.480224, -0.6556967, 3.5314941, -0.20299816, 0
515, 1953817530, -0.85408425, -0.18234947, -0.08012936, 0.4805517, -0.21341084, 2.0624087, 0.86786366, 0
517, 1953850864, -0.85350555, -0.18218237, -0.08085659, 0.48152065, 0.215018, 1.9146453, 0.8191738, 0
518, 1953867531, -0.8533932, -0.18225878, -0.0809369, 0.48167732, 0.5400806, 2.67915, 0.30941772, 0
519, 1953884198, -0.8533102, -0.18242408, -0.08068066, 0.4818049, 0.9291593, 3.0522048, 0.37238598, 0
521, 1953917532, -0.8526792, -0.18426271, -0.08131864, 0.4821148, 0.007608828, 2.531279, 1.0664005, 0
522, 1953934199, -0.8521775, -0.18573226, -0.08216062, 0.48229522, 0.67951494, 3.0540462, 0.2594242, 0
523, 1953950866, -0.85167277, -0.1870335, -0.083179295, 0.48250932, 0.6204932, 4.0062113, 0.25275898, 0
526, 1954000867, -0.8502913, -0.19137727, -0.08612083, 0.4827263, 0.08627198, 4.906674, 0.33680058, 0
528, 1954034201, -0.8488419, -0.19511896, -0.088703744, 0.48331124, 0.054227583, 5.341671, 0.49742413, 0
529, 1954050868, -0.8479684, -0.19708775, -0.09004171, 0.48379803, 0.04706244, 6.180137, 0.28403568, 0
530, 1954067535, -0.8462232, -0.1997141, -0.09325945, 0.48516542, 0.51860046, 5.5244584, -0.3997755, 0
532, 1954100869, -0.8368577, -0.20545463, -0.096347794, 0.49823377, -0.19386485, 4.9493628, 0.3470726, 0
533, 1954117536, -0.83203125, -0.20878313, -0.097354636, 0.50469553, -0.08903482, 3.2749026, 0.11864853, 0
534, 1954134203, -0.82991165, -0.21180893, -0.099573374, 0.5064888, 1.502082, 3.3486445, 1.010293, 0
536, 1954167537, -0.83334327, -0.2164953, -0.10563324, 0.497567, 1.2988981, 2.3146145, -1.5185623, 0
537, 1954184204, -0.83513725, -0.2189654, -0.10932753, 0.4926557, -0.6005211, 0.91762006, -2.5895944, 0
538, 1954200871, -0.8372501, -0.22016473, -0.108701915, 0.488657, -1.6464425, -3.0339525, 1.2815132, 0
541, 1954250872, -0.84587884, -0.2094388, -0.08622083, 0.482962, -1.6104496, -2.042416, 0.114165306, 0
542, 1954267539, -0.84690964, -0.20980911, -0.08288414, 0.48157698, -1.7032995, -3.56589, 4.567731, 0
544, 1954300873, -0.84754324, -0.21458566, -0.07808604, 0.4791537, 0.91724914, -2.9594216, -1.5442467, 0
545, 1954317540, -0.84770143, -0.21706018, -0.075725876, 0.47813675, -1.1248662, -1.2379425, -2.4393458, 0
546, 1954334207, -0.8479122, -0.21947815, -0.07346183, 0.4770109, 0.38283756, -2.4771483, 2.5984602, 0
548, 1954367541, -0.84721166, -0.22410111, -0.07028146, 0.47658524, 1.376678, -4.1459937, 2.6441536, 0
549, 1954384208, -0.84661794, -0.22637473, -0.0690532, 0.4767453, 0.6829863, -4.596452, 0.85993004, 0
551, 1954417542, -0.8457343, -0.22913004, -0.06717543, 0.47726566, -0.8517931, -3.6028774, 0.6102495, 0
552, 1954434209, -0.84503937, -0.23090842, -0.06772052, 0.47756243, 0.014911889, -3.1644552, 0.33412457, 0
553, 1954450876, -0.8444452, -0.23120056, -0.06908257, 0.47827637, 1.7872669, -1.6663045, 0.19214725, 0
556, 1954500877, -0.8421224, -0.23142092, -0.07659314, 0.48111323, 1.2038773, 0.40502483, -0.34583664, 0
557, 1954517544, -0.84096706, -0.23273018, -0.07985618, 0.48197123, 0.8144648, -2.0458515, -0.13417721, 0
559, 1954550878, -0.839906, -0.23455521, -0.085557796, 0.4819583, 1.426132, 0.020487923, 0.8264265, 0
560, 1954567545, -0.84049547, -0.23486613, -0.08919331, 0.48011643, 0.02246864, 0.86161387, 0.1888218, 0
561, 1954584212, -0.8426142, -0.23438385, -0.09249182, 0.47599673, 1.6602675, -0.5045911, -0.4163351, 0
563, 1954617546, -0.8428346, -0.22336797, -0.090047844, 0.48134202, -1.6958365, 1.022164, 1.433836, 0
564, 1954634213, -0.84213835, -0.21328565, -0.08427418, 0.4881314, -1.4023615, 1.5895864, -0.99086285, 0
565, 1954650880, -0.84156835, -0.20718683, -0.081316486, 0.49222556, 1.4795898, 0.1204853, -0.85449505, 0
567, 1954684214, -0.8410243, -0.19664703, -0.077153645, 0.49811414, 1.7748517, 0.82267696, 0.44619465, 0
568, 1954700881, -0.84065425, -0.19450216, -0.0760555, 0.49974707, 0.30338922, 0.055241305, 0.988225, 0
569, 1954717548, -0.84048504, -0.19270031, -0.07463301, 0.5009427, -0.59581804, 1.1634544, -0.39048958, 0
571, 1954750882, -0.84009373, -0.18971153, -0.07311637, 0.5029593, -2.0403051, 0.8933282, 0.085282326, 0
572, 1954767549, -0.8400618, -0.18812425, -0.07306222, 0.50361645, -1.0118141, 0.84593767, -0.13628101, 0
573, 1954784216, -0.840088, -0.18569839, -0.07313008, 0.50446254, 0.27219743, 1.4069887, 0.5087681, 0
575, 1954817550, -0.8398376, -0.18153198, -0.07430862, 0.50622076, -0.9748958, 1.2984747, 0.5225935, 0
576, 1954834217, -0.8398702, -0.17938235, -0.07509355, 0.5068167, 0.11985766, 2.8080914, -0.42696476, 0
578, 1954867551, -0.83969164, -0.17555186, -0.07654042, 0.5082355, -0.49404645, 2.5188296, 0.81402206, 0
579, 1954884218, -0.8396052, -0.17484638, -0.077658296, 0.5084518, -0.66976184, 3.2493339, 0.40865326, 0
580, 1954900885, -0.8400239, -0.1741164, -0.07855464, 0.50787276, -0.97121924, 2.948525, 0.5148325, 0
583, 1954950886, -0.84234065, -0.1728192, -0.08044857, 0.50416857, -1.5796806, 3.5902393, 1.5859051, 0
584, 1954967553, -0.84340394, -0.17348124, -0.08140128, 0.50200593, -0.46802965, 5.2309556, -1.7209549, 0
586, 1955000887, -0.84590745, -0.17492318, -0.082394816, 0.4971074, -1.0681714, 1.8921804, 2.2495956, 0
587, 1955017554, -0.8473792, -0.17525381, -0.08156358, 0.49461514, -1.5301248, 3.5855849, 1.019351, 0
588, 1955034221, -0.84835756, -0.17641768, -0.081853546, 0.49247172, -0.39352137, 2.415854, 1.3780489, 0
590, 1955067555, -0.84978116, -0.1790968, -0.0839952, 0.48867512, 0.6018795, 2.0820813, -0.4308977, 0
591, 1955084222, -0.85073113, -0.17924403, -0.08387144, 0.48698664, 0.5953102, 3.182352, -0.021113396, 0
592, 1955100889, -0.85190415, -0.17879179, -0.08274311, 0.48529202, -0.72495645, 4.382515, -0.3495493, 0
594, 1955134223, -0.8534938, -0.18039167, -0.08193146, 0.48203385, 1.182577, 1.8795061, 1.8664703, 0
595, 1955150890, -0.8536118, -0.18163799, -0.08338432, 0.48110682, 0.7840838, 1.6236305, 0.9617901, 0
598, 1955200891, -0.8544026, -0.1799023, -0.08748974, 0.47962385, 1.3463986, 4.795301, -0.019686699, 0
599, 1955217558, -0.8545244, -0.17956, -0.08830491, 0.47938594, 1.2955965, 2.7569597, 0.7483969, 0
600, 1955234225, -0.85413694, -0.18052348, -0.089685045, 0.4794582, 1.8763402, 1.7208381, 1.5738583, 0
602, 1955267559, -0.85203564, -0.18429756, -0.094054125, 0.48092198, -0.054337453, 2.42373, -0.2531824, 0
603, 1955284226, -0.85108554, -0.18531716, -0.09536882, 0.4819521, 0.7275938, 4.504368, -1.9730282, 0
605, 1955317560, -0.8505541, -0.18523249, -0.09406945, 0.4831766, 0.48291305, -0.6284172, -1.0520811, 0
606, 1955334227, -0.8506479, -0.18423945, -0.09251024, 0.48369208, -0.52606153, -1.6220794, 1.547225, 0
607, 1955350894, -0.85099554, -0.18457179, -0.08992495, 0.4834413, -2.1713064, -2.0500944, 0.37294006, 0
609, 1955384228, -0.852754, -0.18868622, -0.083735056, 0.47985297, -0.5862348, -6.185789, -4.1438746, 0
610, 1955400895, -0.85376394, -0.19198169, -0.081731886, 0.4770874, -1.1538122, -7.0857334, -3.167684, 0
613, 1955450896, -0.8572798, -0.19948928, -0.073145956, 0.4690283, -0.8378656, -6.4434924, 5.4162054, 0
614, 1955467563, -0.85686696, -0.2025615, -0.07374509, 0.4683714, -0.89275676, -8.365153, -2.3859239, 0
615, 1955484230, -0.8567257, -0.202481, -0.0738408, 0.4686494, 0.14289798, -6.683417, -0.51981544, 0
617, 1955517564, -0.8569066, -0.20073813, -0.07382784, 0.4690705, 1.3472522, 0.19268207, 2.0352917, 0
618, 1955534231, -0.85645974, -0.20127904, -0.07426112, 0.46958584, 2.1140378, -0.8943111, -0.38023663, 0
619, 1955550898, -0.8560357, -0.20190483, -0.07377381, 0.47016707, 1.238601, -1.1410259, 0.17808056, 0
621, 1955584232, -0.85522413, -0.20858495, -0.068669796, 0.46950054, 1.70872, -1.0819314, 1.9562483, 0
622, 1955600899, -0.8544673, -0.2140573, -0.06257271, 0.46926755, 2.999477, -0.6430401, 0.95168495, 0
623, 1955617566, -0.85277563, -0.219932, -0.053699937, 0.47072512, 0.5581705, -1.5521485, 0.012016296, 0
625, 1955650900, -0.845386, -0.22503877, -0.035442065, 0.48320413, 5.473818, -0.941664, -0.12738132, 0
627, 1955684234, -0.8245331, -0.21282062, -0.019206166, 0.5239712, 8.962909, -4.6409006, 0.26617146, 0
629, 1955717568, -0.7875084, -0.19508307, -4.0701032E-4, 0.5846666, -2.631525, 3.887589, -4.612518, 0
630, 1955734235, -0.7720094, -0.191715, 0.0071145743, 0.60601854, -6.195474, 7.652796, -3.4735498, 0
632, 1955767569, -0.75974166, -0.19574198, 0.010152087, 0.6200296, -9.856629, 5.912825, 2.0962152, 0
633, 1955784236, -0.75903636, -0.19976965, 0.0063006505, 0.61965996, 0.31021228, 3.792958, -0.35353374, 0
634, 1955800903, -0.75753176, -0.20480675, 0.001397863, 0.61988723, 1.6348695, 1.4915136, -3.0123363, 0
636, 1955834237, -0.7573848, -0.21313679, -5.1781535E-6, 0.61725444, -2.8317177, 1.7601333, 1.5010834, 0
637, 1955850904, -0.7578041, -0.21467452, -0.0015591979, 0.61620414, -0.52399236, -2.9323187, 4.5901012, 0
638, 1955867571, -0.75743544, -0.21609615, -0.004649706, 0.61614496, -0.13229956, -0.98217046, 0.8911371, 0
640, 1955900905, -0.75599515, -0.21765825, -0.011635557, 0.6172706, 4.997902, 6.0958543, 1.7846813, 0
641, 1955917572, -0.75524807, -0.21783607, -0.011696093, 0.6181207, 0.7031375, 2.1588151, -3.2389145, 0
642, 1955934239, -0.7559856, -0.22209442, -0.009612106, 0.615735, -10.2740345, -1.8575516, 4.3614836, 0
644, 1955967573, -0.7554481, -0.23148206, -0.0068404675, 0.61296797, 5.7527857, -4.3592215, 0.6093073, 0
645, 1955984240, -0.7531303, -0.23824823, -0.00564605, 0.61323977, 6.795902, -0.36794496, -2.533998, 0
646, 1956000907, -0.75124824, -0.24895748, -0.005651422, 0.61129093, -3.1533892, 3.0977933, -3.2062778, 0
648, 1956034241, -0.7482728, -0.2768095, -0.013728552, 0.6027754, 1.4519925, -4.142981, 0.5120125, 0
649, 1956050908, -0.7471926, -0.29360235, -0.015874408, 0.5960798, 0.36633393, 0.8424563, 1.1903553, 0
650, 1956067575, -0.7453965, -0.31466785, -0.01617036, 0.58751065, 0.030381445, 2.8204107, 4.1678104, 0
652, 1956100909, -0.74727774, -0.35252932, -0.022223175, 0.5629094, 0.6542481, 3.008883, 2.2968483, 0
654, 1956134243, -0.7672857, -0.37497404, -0.052153103, 0.5176964, -0.38554934, 2.62164, 3.321351, 0
656, 1956167577, -0.786685, -0.3749798, -0.11928025, 0.4757638, 17.779282, -3.7542684, 6.03652, 0
657, 1956184244, -0.7892029, -0.36873516, -0.13409476, 0.47251868, 15.907673, 7.1742435, -0.46016502, 0
659, 1956217578, -0.79097575, -0.32683137, -0.15231957, 0.49436796, 8.378137, 20.110153, -8.499253, 0
660, 1956234245, -0.79557556, -0.29305974, -0.15476619, 0.50723296, 3.8137922, 19.314997, -8.678556, 0
661, 1956250912, -0.8021294, -0.26075485, -0.14879933, 0.51625204, -0.80401814, 13.664161, -0.07188511, 0
663, 1956284246, -0.82503235, -0.22238073, -0.104031555, 0.5090266, -9.356708, 3.108555, -3.9472122, 0
664, 1956300913, -0.83730876, -0.2177125, -0.0808955, 0.4950087, -6.647681, -3.184787, -3.0264902, 0
665, 1956317580, -0.8482564, -0.21493633, -0.060411356, 0.48028743, -8.474771, -8.814155, 6.2940083, 0
667, 1956350914, -0.865793, -0.19575611, -0.034166485, 0.45932218, -13.140335, -29.40481, -4.0215173, 0
669, 1956384248, -0.8675932, -0.21140905, -0.036870893, 0.44865465, -8.277831, -45.50984, -16.84971, 0
671, 1956417582, -0.8360442, -0.25118068, -0.092890896, 0.4789279, -5.51331, -46.567036, -2.9991856, 0
672, 1956434249, -0.81263286, -0.24596861, -0.13567254, 0.51066905, -11.687445, -64.18655, 40.831093, 0
673, 1956450916, -0.7933745, -0.2518844, -0.17128637, 0.52709997, 10.554232, 11.005593, 2.1176758, 0
675, 1956484250, -0.7643004, -0.2805769, -0.25146902, 0.5233994, 2.1201327, -0.53779477, -1.7780066, 0
676, 1956500917, -0.74913806, -0.2987731, -0.2842095, 0.5184727, -1.3455936, -2.9813945, 2.2077293, 0
677, 1956517584, -0.73128116, -0.31879735, -0.31268257, 0.5156432, -1.0119702, 1.1766394, 2.328517, 0
679, 1956550918, -0.6773898, -0.36309597, -0.39295316, 0.50493026, 3.799726, 3.9446635, 0.08239746, 0
680, 1956567585, -0.64472926, -0.3872105, -0.44464445, 0.4865653, 5.669382, 4.911518, 2.1623135, 0
681, 1956584252, -0.60703176, -0.418428, -0.499884, 0.45454225, 7.572658, 9.579551, 8.144545, 0
684, 1956634253, -0.43613532, -0.49090153, -0.67666674, 0.33314574, -0.71111274, 62.556576, 23.007244, 0
686, 1956667587, -0.4181857, -0.47407597, -0.7004238, 0.3314233, -9.769926, 9.010066, 1.1847992, 0
687, 1956684254, -0.3762718, -0.48535138, -0.6896912, 0.3837211, -0.18988231, 1.4070834, 4.732439, 0
688, 1956700921, -0.33157396, -0.49596167, -0.67961735, 0.42692322, -9.737371, 32.180573, -3.7889, 0
690, 1956734255, -0.29147488, -0.50375897, -0.67689824, 0.45071095, 8.185032, 19.206913, -11.000765, 0
691, 1956750922, -0.27836022, -0.50836444, -0.67187107, 0.46122968, 8.280051, 20.001463, -15.447281, 0
692, 1956767589, -0.27816436, -0.50846636, -0.6656551, 0.47016197, 10.8391695, 18.871386, -16.26178, 0
694, 1956800923, -0.31049204, -0.49555224, -0.6438918, 0.49344528, 10.325962, 8.103745, -13.864122, 0
695, 1956817590, -0.3343708, -0.48190224, -0.63195586, 0.50661665, 9.428672, 7.565917, -12.296432, 0
696, 1956834257, -0.36344275, -0.46380657, -0.6186314, 0.51975983, 9.276723, 7.0264974, -11.214626, 0
699, 1956884258, -0.45780408, -0.39943328, -0.5521461, 0.57102144, 8.116918, 1.8536466, -6.6235313, 0
700, 1956900925, -0.4812313, -0.375737, -0.5201704, 0.59726316, 7.785069, 2.6026175, -2.9037175, 0
702, 1956934259, -0.5182414, -0.33022213, -0.44453233, 0.65179175, 2.9397511, 1.5924937, -0.47378826, 0
703, 1956950926, -0.535746, -0.3116402, -0.40602082, 0.6716145, 1.6259495, 2.5100944, 3.3884602, 0
704, 1956967593, -0.55493414, -0.29646614, -0.36636385, 0.6855624, -0.58033085, 0.21263324, 5.802602, 0
706, 1957000927, -0.6020528, -0.27184334, -0.29050952, 0.6923151, -3.0701861, -2.5957513, 8.218267, 0
707, 1957017594, -0.6279609, -0.26426193, -0.2545085, 0.6863805, 0.23892283, -9.930478, 5.028347, 0
708, 1957034261, -0.6476373, -0.25955176, -0.2215286, 0.68131196, 0.5878668, -12.029698, 7.629616, 0
710, 1957067595, -0.67821693, -0.2376382, -0.16917443, 0.6745311, -2.9482315, -7.2630963, 6.961113, 0
711, 1957084262, -0.69310343, -0.22381717, -0.14600702, 0.66952044, -4.412972, -5.524883, 5.039501, 0
713, 1957117596, -0.7254394, -0.19998339, -0.106174305, 0.6500259, -5.5968413, -3.4389129, 1.2992744, 0
714, 1957134263, -0.7430409, -0.19071192, -0.091294296, 0.63501734, -4.6529655, -3.3317106, 0.021338463, 0
715, 1957150930, -0.7602035, -0.18381883, -0.07989557, 0.61804545, -3.3464625, -4.0315924, 0.022260666, 0
717, 1957184264, -0.7891188, -0.17434378, -0.06063293, 0.5859026, -2.3319705, -5.4711876, 2.4656734, 0
718, 1957200931, -0.80033827, -0.17056505, -0.050360482, 0.57261896, -2.2329266, -5.654332, 2.5904026, 0
719, 1957217598, -0.8096743, -0.16676316, -0.03979574, 0.5613342, -2.0896688, -5.5042734, 1.1517859, 0
721, 1957250932, -0.82183266, -0.16217013, -0.025550053, 0.54562014, -3.0658417, -5.284227, -2.7215571, 0
722, 1957267599, -0.82544684, -0.16391829, -0.023179777, 0.5397159, -3.0975325, -5.4569955, -3.281942, 0
723, 1957284266, -0.8280462, -0.17028892, -0.022808637, 0.5337445, -3.520667, -5.749889, -3.3522468, 0
726, 1957334267, -0.8386788, -0.19423765, -0.017637823, 0.5085676, -4.2914863, -9.664855, 0.037605286, 0
727, 1957350934, -0.84487677, -0.19780654, -0.016689897, 0.4968298, -3.0102978, -9.496375, -4.377207, 0
729, 1957384268, -0.85598904, -0.20490544, -0.02681657, 0.47396165, -2.1651714, -15.116042, -6.377304, 0
730, 1957400935, -0.8596103, -0.21040818, -0.033632703, 0.4644669, -1.8867028, -18.728176, -5.567454, 0
731, 1957417602, -0.8611752, -0.21833959, -0.03764185, 0.4575484, -1.8903159, -22.454659, -4.9416966, 0
733, 1957450936, -0.854181, -0.23564981, -0.046630464, 0.46122885, -6.2302194, -30.583664, -6.6765575, 0
734, 1957467603, -0.842648, -0.24802655, -0.05883019, 0.47437137, -8.762356, -31.480183, -11.005698, 0
735, 1957484270, -0.8251722, -0.26640868, -0.08306094, 0.4912029, -11.073603, -30.93439, -9.700415, 0
737, 1957517604, -0.7827428, -0.3104703, -0.16777292, 0.512676, 0.8191908, -27.982351, -13.47902, 0
738, 1957534271, -0.7682608, -0.30011436, -0.21657288, 0.5223649, 19.695587, -39.304966, 83.73877, 0
741, 1957584272, -0.7586281, -0.27469432, -0.23198837, 0.5433879, 1.2759224, 7.976521, 0.3278904, 0
742, 1957600939, -0.74116725, -0.28422582, -0.2693426, 0.5453475, 3.6224089, 3.7970498, 2.783409, 0
744, 1957634273, -0.68733215, -0.31569028, -0.38254482, 0.5306939, 1.1379808, 7.3795514, 1.0126944, 0
745, 1957650940, -0.6483635, -0.33000207, -0.45533842, 0.51327646, 3.418902, 10.410064, 9.274282, 0
746, 1957667607, -0.59779835, -0.35382283, -0.52415735, 0.49271506, 5.895869, 16.142954, 15.572973, 0
748, 1957700941, -0.4423558, -0.43382192, -0.6316049, 0.46610916, -5.9900007, 46.46574, 31.926147, 0
749, 1957717608, -0.38184896, -0.4615808, -0.6712339, 0.43662578, -28.99004, 75.24445, 28.920658, 0
750, 1957734275, -0.40032956, -0.46717948, -0.6755034, 0.40649384, -14.021972, 40.31744, 6.336523, 0
752, 1957767609, -0.34794927, -0.5069668, -0.6598079, 0.43200913, -0.3179722, 8.4104595, -1.843236, 0
753, 1957784276, -0.301153, -0.5243347, -0.6596248, 0.44647223, -1.3292593, 32.896282, -7.161168, 0
756, 1957834277, -0.23177879, -0.54560226, -0.66373664, 0.45619395, 10.345349, 14.733551, -17.5162, 0
757, 1957850944, -0.2161004, -0.5448156, -0.6644075, 0.46379074, 10.238045, 13.795514, -19.327265, 0
758, 1957867611, -0.20914514, -0.5382042, -0.6646317, 0.47425926, 10.755156, 14.259885, -18.840534, 0
760, 1957900945, -0.23702207, -0.50782686, -0.65527594, 0.5065652, 9.216693, 14.443491, -16.167397, 0
761, 1957917612, -0.27033255, -0.48631585, -0.64208376, 0.52745426, 7.6355515, 9.385305, -12.499807, 0
762, 1957934279, -0.30531663, -0.4650216, -0.62141645, 0.55176157, 5.5356245, 3.6021938, -10.551939, 0
764, 1957967613, -0.38166076, -0.4170401, -0.5717523, 0.5946212, 2.5899973, 3.6312778, -8.644808, 0
765, 1957984280, -0.43305013, -0.39031136, -0.5662621, 0.5826956, -6.9059415, 7.224862, -8.820606, 0
767, 1958017614, -0.5079386, -0.37312162, -0.4786, 0.611378, -2.585722, 3.3245869, -3.0970435, 0
768, 1958034281, -0.5411236, -0.3473729, -0.45960417, 0.61265296, -5.9817357, 5.761458, 2.2495823, 0
771, 1958084282, -0.64177513, -0.2926327, -0.38724178, 0.5937988, -7.5105076, 3.0979445, 6.893482, 0
772, 1958100949, -0.6769506, -0.28501064, -0.3589211, 0.57597315, -4.538234, 1.2997242, 4.845463, 0
773, 1958117616, -0.7108764, -0.2851249, -0.32859486, 0.5526719, -2.0043604, 0.043187622, 7.8854294, 0
775, 1958150950, -0.7710108, -0.26957178, -0.28077912, 0.5040823, 2.3212383, -5.218904, 7.4775467, 0
776, 1958167617, -0.79282296, -0.25097835, -0.26263887, 0.4894128, 0.53605133, -4.4423795, 3.5565958, 0
777, 1958184284, -0.80883825, -0.22889666, -0.25004008, 0.480551, -1.2038437, -2.918618, 1.2445583, 0
779, 1958217618, -0.8259983, -0.20311242, -0.21954912, 0.47784168, -1.1418546, -6.0075626, 4.780884, 0
780, 1958234285, -0.82983154, -0.19723415, -0.1999205, 0.48225784, -2.7558305, -6.068711, 4.2748594, 0
781, 1958250952, -0.83160174, -0.19128865, -0.17877796, 0.48984516, -2.5108786, -5.249337, 4.5230474, 0
783, 1958284286, -0.8303873, -0.18329129, -0.1340046, 0.5088874, -2.8384802, -2.9831614, 0.78039455, 0
784, 1958300953, -0.8292961, -0.18266815, -0.11336168, 0.51586044, -3.0712087, -2.6914308, 0.5112972, 0
785, 1958317620, -0.8292115, -0.1822749, -0.095022514, 0.5198246, -3.3085537, -2.6735237, 2.2692327, 0
787, 1958350954, -0.83317655, -0.179884, -0.060701195, 0.5194578, -3.6505313, -4.61125, 2.9408226, 0
788, 1958367621, -0.8366182, -0.18114775, -0.04305201, 0.5152326, -3.19218, -5.034581, 1.6717405, 0
789, 1958384288, -0.84085596, -0.18402249, -0.02702149, 0.50835955, -2.7352796, -5.99268, 0.24998188, 0
791, 1958417622, -0.8519965, -0.1962212, -0.0038047582, 0.48543495, -1.2426096, -9.230032, -3.700303, 0
792, 1958434289, -0.8589299, -0.20527567, 7.1927905E-4, 0.46921563, -1.525662, -10.749677, -4.4217205, 0
794, 1958467623, -0.8755908, -0.21642958, -0.004865028, 0.4319002, -1.0618452, -17.915865, -3.2716422, 0
795, 1958484290, -0.88452065, -0.21700579, -0.009118304, 0.41292977, 0.68775845, -19.582886, -5.190052, 0
798, 1958534291, -0.8950528, -0.22631717, -0.032530952, 0.3829691, 3.3275638, -22.34049, -8.460395, 0
799, 1958550958, -0.8915185, -0.23377231, -0.040724475, 0.3859397, 0.9122596, -24.167185, -6.1924486, 0
800, 1958567625, -0.8857093, -0.24043863, -0.050023064, 0.3940413, -1.9798422, -25.663292, -5.2863793, 0
802, 1958600959, -0.86944354, -0.24999194, -0.08287491, 0.41805047, -6.1070776, -25.600044, -7.048892, 0
803, 1958617626, -0.8575972, -0.2578535, -0.11578441, 0.4297618, -5.970474, -26.930616, -4.9149714, 0
804, 1958634293, -0.8442464, -0.2644669, -0.16033022, 0.43779227, -3.6544445, -25.927956, -0.20712852, 0
806, 1958667627, -0.8078691, -0.28370526, -0.26482397, 0.44360977, -1.598267, -31.519672, 35.710487, 0
807, 1958684294, -0.80491865, -0.28508118, -0.27926755, 0.4392118, 7.9935923, -14.298357, 12.091043, 0
808, 1958700961, -0.79669, -0.292566, -0.29906797, 0.43624654, -3.958172, 6.1428423, 2.7915125, 0
810, 1958734295, -0.7587665, -0.31471196, -0.37203586, 0.43229833, 3.6693468, 4.6483774, 3.001255, 0
812, 1958767629, -0.69076526, -0.34632197, -0.4863481, 0.40796137, 3.9618802, 6.2545624, 5.358718, 0
814, 1958800963, -0.5863959, -0.40450907, -0.6109036, 0.34550154, 4.8872313, 34.38429, 21.799305, 0
815, 1958817630, -0.5201985, -0.42524272, -0.6735177, 0.3082183, -3.1902754, 43.817337, 29.283855, 0
818, 1958867631, -0.44432032, -0.44609085, -0.7323183, 0.25952813, 5.953033, 11.108698, -3.2158465, 0
819, 1958884298, -0.39261317, -0.4707052, -0.7295776, 0.3034311, 8.036719, 28.846743, -2.6501908, 0
821, 1958917632, -0.32591373, -0.47569925, -0.718469, 0.3890442, 8.748785, 31.842728, -12.57851, 0
822, 1958934299, -0.3092508, -0.46530613, -0.71136177, 0.42647523, 7.8494306, 27.220226, -14.652148, 0
823, 1958950966, -0.30739093, -0.4491881, -0.7034205, 0.45716843, 4.2377644, 26.52319, -17.103807, 0
825, 1958984300, -0.3416078, -0.40646607, -0.6938922, 0.4864827, 3.4266472, 12.949662, -15.859756, 0
826, 1959000967, -0.369964, -0.3862676, -0.68718207, 0.49169827, 3.988891, 11.090056, -15.044718, 0
829, 1959050968, -0.48911935, -0.34716225, -0.63429666, 0.4878227, 5.1847267, 6.169457, -9.139304, 0
830, 1959067635, -0.53184664, -0.3396064, -0.6032622, 0.48779514, 4.94213, 6.7819357, -6.48773, 0
831, 1959084302, -0.57382727, -0.3329571, -0.5651777, 0.49040627, 5.8467755, 5.5244904, -2.7341986, 0
833, 1959117636, -0.6532121, -0.30113542, -0.4878191, 0.49469835, -3.931245, 4.0549207, 3.973875, 0
834, 1959134303, -0.69327843, -0.27808666, -0.4493507, 0.4900807, -6.3726473, -0.07335203, 6.169587, 0
835, 1959150970, -0.7326232, -0.25763404, -0.40958533, 0.47873807, -12.506556, -5.387034, 3.8290434, 0
837, 1959184304, -0.803622, -0.23633829, -0.34352434, 0.42472276, -14.094685, -13.502663, 0.4848938, 0
838, 1959200971, -0.8328188, -0.23964345, -0.3165841, 0.38577306, -8.87024, -13.75394, 1.3380814, 0
839, 1959217638, -0.85746074, -0.2457653, -0.29189086, 0.3452868, -5.302615, -13.36524, 2.4723501, 0
841, 1959250972, -0.88782656, -0.24489255, -0.2564096, 0.29344222, -1.2223665, -9.856655, 5.7129507, 0
843, 1959284306, -0.9120408, -0.23967622, -0.22222845, 0.24781802, -2.4438791, -12.339193, -2.372778, 0
845, 1959317640, -0.9230517, -0.24263433, -0.21261838, 0.20966661, -0.8340089, -10.279722, -1.3222208, 0
846, 1959334307, -0.9260067, -0.23958026, -0.21100146, 0.20162773, 8.954791, -9.0733595, 20.03636, 0
848, 1959367641, -0.92598015, -0.21648896, -0.22791666, 0.20930764, 19.730757, -16.790012, 17.841026, 0
849, 1959384308, -0.92471445, -0.20085369, -0.23759344, 0.21948284, -0.63080686, 4.2593536, -4.539546, 0
850, 1959400975, -0.9220434, -0.19801714, -0.24709162, 0.22278553, -2.6592364, 1.0997559, -3.0567799, 0
852, 1959434309, -0.91728365, -0.20892525, -0.2573893, 0.22080317, 3.248676, -1.3767449, 6.624956, 0
853, 1959450976, -0.9163104, -0.21647678, -0.25381738, 0.22170314, 3.2184193, 0.6834542, 5.4910774, 0
854, 1959467643, -0.9148458, -0.22431007, -0.2530235, 0.22087052, -5.132946, 3.657196, 1.7830667, 0
856, 1959500977, -0.91463745, -0.22203714, -0.2589825, 0.21709067, 6.7376513, -0.45074326, -0.8985443, 0
857, 1959517644, -0.9147927, -0.2188938, -0.2594304, 0.21908486, 2.9496233, 5.1102448, -5.898246, 0
858, 1959534311, -0.91572595, -0.21974084, -0.2583225, 0.21561983, -3.136244, 2.1899188, -1.2581825, 0
860, 1959567645, -0.91863006, -0.22194685, -0.251845, 0.20855483, 2.230119, 1.906283, 1.703577, 0
861, 1959584312, -0.91979796, -0.22140007, -0.24833253, 0.20820004, 1.154543, 2.9473705, -1.789175, 0
862, 1959600979, -0.9208048, -0.22197695, -0.24532348, 0.20669693, -1.7878792, 1.0603663, -0.044675827, 0
864, 1959634313, -0.9232038, -0.21881987, -0.23599729, 0.21019149, 0.13170336, 2.2712827, -0.8389139, 0
865, 1959650980, -0.92390585, -0.21370766, -0.2310798, 0.21769604, 0.20995891, 3.656468, -2.8960438, 0
866, 1959667647, -0.9246312, -0.20869678, -0.22520018, 0.22550008, 0.14533773, -0.20923294, 3.0689573, 0
868, 1959700981, -0.92642593, -0.19707952, -0.21217722, 0.24070314, 2.4485333, 1.3274922, -0.057584763, 0
870, 1959734315, -0.9225447, -0.19867007, -0.2114205, 0.25456908, -0.7371949, 4.268702, 4.764429, 0
872, 1959767649, -0.9125833, -0.21264583, -0.22361141, 0.26839155, 0.87722945, 3.7322707, -5.2543907, 0
873, 1959784316, -0.907249, -0.22190034, -0.22798276, 0.27522004, 2.5443149, -0.3775458, 7.5358944, 0
875, 1959817650, -0.9021321, -0.23237397, -0.22144666, 0.28841603, -0.68607986, 2.893019, -2.458929, 0
876, 1959834317, -0.8966286, -0.23654783, -0.21958187, 0.30323023, 0.027124526, 0.28217936, -3.524343, 0
877, 1959850984, -0.88778883, -0.24286611, -0.21352825, 0.32758993, -3.8853383, -1.6338595, 3.455596, 0
879, 1959884318, -0.86687124, -0.2552386, -0.19996458, 0.37876663, 2.1223345, -1.6792011, -0.7758398, 0
880, 1959900985, -0.8586997, -0.25902602, -0.18327591, 0.4025081, 4.360517, 0.99045366, -0.20519543, 0
881, 1959917652, -0.8562286, -0.25734577, -0.16368265, 0.41703254, 3.9427288, -1.5982354, -7.389239, 0
883, 1959950986, -0.8674934, -0.23646206, -0.1115555, 0.4232713, 6.760102, -4.887686, 4.7684965, 0
885, 1959984320, -0.8697938, -0.23053063, -0.09441234, 0.42598513, 0.481157, -5.0189943, 13.010071, 0
887, 1960017654, -0.86732, -0.23119342, -0.09260089, 0.43103743, 1.5756633, -9.460615, 1.1848698, 0
888, 1960034321, -0.86602205, -0.2303828, -0.091040544, 0.43440053, 1.9309082, 0.25900394, -1.3821898, 0
889, 1960050988, -0.8652314, -0.229011, -0.089039944, 0.43710768, 0.15097283, -2.366341, 0.6047001, 0
891, 1960084322, -0.8643456, -0.22569469, -0.08549925, 0.44127214, -0.2512565, -7.483037, 1.4727306, 0
892, 1960100989, -0.8641566, -0.22375765, -0.082916066, 0.4431179, 1.2189853, -5.077965, 3.2689476, 0
893, 1960117656, -0.86373055, -0.22202402, -0.08095449, 0.44517833, 2.028211, -2.2661645, 1.2458763, 0
895, 1960150990, -0.86249983, -0.21746024, -0.0795804, 0.45003855, 0.716839, -2.718383, -1.9592428, 0
896, 1960167657, -0.8619025, -0.2137096, -0.079309925, 0.45301712, -0.31034327, -3.1951451, -0.43797207, 0
897, 1960184324, -0.86132145, -0.2082966, -0.080531865, 0.45641568, -0.23898341, -1.6193495, 1.6175871, 0
900, 1960234325, -0.85933554, -0.1951851, -0.08340324, 0.46535122, 0.6023934, 0.9347679, -0.9902191, 0
902, 1960267659, -0.8583324, -0.18922758, -0.0850183, 0.4693538, -3.3746514, -0.83057266, 1.4053907, 0
903, 1960284326, -0.8586341, -0.18754822, -0.08548486, 0.46939123, -1.3899754, 2.092502, 1.2837582, 0
904, 1960300993, -0.8590319, -0.1862441, -0.08608178, 0.46907297, -1.3278254, -0.1916754, -0.5091677, 0
906, 1960334327, -0.86059237, -0.18454927, -0.08629099, 0.46683943, -1.6817054, 1.9220262, 1.371417, 0
907, 1960350994, -0.86175853, -0.1837478, -0.08588607, 0.46507525, -1.1547925, 2.6073058, 0.3284769, 0
908, 1960367661, -0.8627712, -0.1832279, -0.08624727, 0.4633332, -2.0179915, 0.46746713, 0.8964014, 0
910, 1960400995, -0.8648386, -0.18261723, -0.08672098, 0.45961618, -0.6635382, 1.4610204, 0.17399216, 0
912, 1960434329, -0.8666655, -0.18190666, -0.08708854, 0.45637584, 0.08699731, 1.5390325, 0.5793314, 0
914, 1960467663, -0.86797744, -0.18181178, -0.08729309, 0.45387456, -0.036826108, 1.2405508, 1.5126667, 0
916, 1960500997, -0.8690795, -0.18269736, -0.08640066, 0.45157516, 0.37794936, 1.1337013, -0.07516575, 0
918, 1960534331, -0.86972284, -0.18402506, -0.08465621, 0.45012528, 0.029227896, 0.15836664, 1.4818039, 0
919, 1960550998, -0.8701141, -0.18338946, -0.08414158, 0.44972482, 0.15448366, 0.9631524, 1.093504, 0
920, 1960567665, -0.8702841, -0.18292396, -0.08408613, 0.4495957, 0.54349566, 0.60542834, 1.0685282, 0
922, 1960600999, -0.8701467, -0.18207136, -0.0841934, 0.45018762, 0.23570369, 2.1635623, 0.6831064, 0
923, 1960617666, -0.8699265, -0.18195716, -0.08445996, 0.45060897, -0.20714946, 1.2174355, -1.0966959, 0
924, 1960634333, -0.86959714, -0.1824338, -0.084549226, 0.45103508, -0.1330139, -0.4429715, 1.1753206, 0
926, 1960667667, -0.8692136, -0.18222971, -0.08421546, 0.4519186, -0.038607728, 0.93632287, -0.61804295, 0
927, 1960684334, -0.86916655, -0.18192129, -0.08389019, 0.45219374, -0.33431214, 1.6990567, 2.1905794, 0
928, 1960701001, -0.86888, -0.18248037, -0.084458396, 0.45241326, 0.23900062, 3.928968, 0.21988964, 0
930, 1960734335, -0.86782, -0.18480158, -0.086660095, 0.45308882, 0.22794276, 2.9697835, 2.1587934, 0
931, 1960751002, -0.86721873, -0.18590863, -0.087677, 0.453591, 1.0874094, 4.0356994, 0.2218113, 0
933, 1960784336, -0.86588645, -0.18848614, -0.09013951, 0.45458877, 0.38369206, 4.6291246, -1.3316269, 0
934, 1960801003, -0.86543864, -0.18929975, -0.091040164, 0.45492393, 1.4266753, 1.9196757, 0.47394276, 0
935, 1960817670, -0.86540353, -0.18878104, -0.09104662, 0.4552048, 1.20054, 3.3014367, 1.7391367, 0
937, 1960851004, -0.8648241, -0.1882344, -0.09342216, 0.45605043, 0.20477766, 3.9580586, 0.535161, 0
938, 1960867671, -0.86474705, -0.1882713, -0.09417853, 0.45602566, 0.6056111, 4.341089, -0.9616842, 0
939, 1960884338, -0.8645611, -0.18854192, -0.094762705, 0.45614535, 1.4160627, 2.6905468, 0.43614388, 0
941, 1960917672, -0.8641757, -0.18953116, -0.094958514, 0.456425, -0.63499886, 0.9333336, 1.5697842, 0
943, 1960951006, -0.8628793, -0.19414544, -0.09743243, 0.4564168, -0.52982324, 0.21178888, 0.35054874, 0
945, 1960984340, -0.86295164, -0.1983953, -0.096006505, 0.45475185, 0.7444719, 0.21007913, -4.6727195, 0
946, 1961001007, -0.8635814, -0.1992014, -0.09403696, 0.45361397, 0.06679562, -2.509096, -2.6689582, 0
947, 1961017674, -0.8650264, -0.19794168, -0.08947789, 0.45233226, 0.3644181, 1.6255329, 1.4406195, 0
949, 1961051008, -0.8660128, -0.19994806, -0.08552747, 0.4503224, 1.4163985, -3.3300056, 0.30156517, 0
950, 1961067675, -0.86612666, -0.20041813, -0.08406295, 0.45016998, 2.3847742, -3.5417407, -1.4162197, 0
951, 1961084342, -0.8662653, -0.19938792, -0.08222288, 0.45070037, 0.45917517, -4.234272, 2.693243, 0
953, 1961117676, -0.86591876, -0.19768809, -0.08083656, 0.45236278, -1.1865315, -6.9978704, 1.9936037, 0
954, 1961134343, -0.86557555, -0.19669622, -0.081057824, 0.45341146, -2.4440665, -6.9802904, 1.71344, 0
956, 1961167677, -0.86527514, -0.19277735, -0.080527894, 0.4557557, -2.7986155, -4.1972322, 0.57283497, 0
958, 1961201011, -0.8664816, -0.19028011, -0.08220071, 0.45421213, -2.2305539, -7.7059016, -0.1543541, 0
960, 1961234345, -0.8687967, -0.18847674, -0.08154851, 0.4506452, -2.719008, -2.032073, -0.42204475, 0
961, 1961251012, -0.86954296, -0.19151624, -0.08340143, 0.44757485, -2.6881392, -5.879109, -3.3394728, 0
962, 1961267679, -0.8707329, -0.19395554, -0.08414844, 0.4440572, -1.0038396, -3.8602636, -0.5768328, 0
964, 1961301013, -0.8729824, -0.19665441, -0.085050166, 0.43824401, -2.7160516, 0.8881297, 0.9336815, 0
965, 1961317680, -0.87394494, -0.19837378, -0.08586795, 0.43538156, -1.9840695, 0.65877944, -0.046862602, 0
966, 1961334347, -0.87488604, -0.19900636, -0.08643645, 0.43308452, -0.3018948, 0.6173693, -1.1579027, 0
968, 1961367681, -0.87611747, -0.19838087, -0.086350515, 0.43089372, 0.082204156, -0.7945742, 0.70297337, 0
969, 1961384348, -0.8765509, -0.19811137, -0.08565034, 0.43027532, 0.68961525, -1.1303945, 3.8736353, 0
970, 1961401015, -0.87649214, -0.19907315, -0.0863009, 0.42982098, 1.905846, 0.71566105, -0.022704124, 0
973, 1961451016, -0.87637806, -0.20106792, -0.08433309, 0.4295156, -0.21172778, 0.4829395, -0.1461792, 0
974, 1961467683, -0.8763305, -0.20181969, -0.08371376, 0.42938134, 0.006558317, -2.6011841, 3.700488, 0
976, 1961501017, -0.87542915, -0.2032005, -0.08241401, 0.43081754, 1.3188252, 2.8391852, -0.18506527, 0
977, 1961517684, -0.8746948, -0.20421387, -0.082757376, 0.43176317, 0.58224416, 3.0860124, -2.5952015, 0
978, 1961534351, -0.8739406, -0.20553003, -0.08329126, 0.43256247, 0.6421015, 0.7412638, -2.9230533, 0
980, 1961567685, -0.87326187, -0.20443377, -0.08244507, 0.43460992, -0.25181594, -0.030939264, 3.3912735, 0
981, 1961584352, -0.87286985, -0.20412815, -0.08125818, 0.4357632, 0.26008704, 3.9428089, 1.6862535, 0
983, 1961617686, -0.87155575, -0.2052002, -0.08117896, 0.43789938, 1.872216, 0.31438577, -1.2909145, 0
984, 1961634353, -0.87119675, -0.2046281, -0.080498725, 0.43900573, 0.8669138, 1.3801019, 0.92829704, 0
985, 1961651020, -0.8709116, -0.20374243, -0.07947034, 0.44016913, -0.79112065, 2.027795, 0.32280636, 0
988, 1961701021, -0.86998826, -0.20223787, -0.0769375, 0.4431291, 0.90315586, 0.5208488, 0.47086143, 0
989, 1961717688, -0.8695601, -0.20187193, -0.07679212, 0.4441604, 0.6792894, 1.1016592, 1.2756786, 0
991, 1961751022, -0.86870337, -0.2019492, -0.07636491, 0.4458721, 1.0001309, 1.408578, -0.09006882, 0
992, 1961767689, -0.8679468, -0.20268735, -0.07666572, 0.4469577, 0.95019066, 0.64114845, -0.40100288, 0
993, 1961784356, -0.8676959, -0.20147336, -0.0753745, 0.44821143, 0.4548493, 1.6128758, 1.4277029, 0
995, 1961817690, -0.86670196, -0.19990575, -0.07472307, 0.45093727, 0.28761792, -0.09573764, 3.4316235, 0
996, 1961834357, -0.86599684, -0.19969714, -0.0745537, 0.45241004, 1.9752356, 2.3028471, 0.52176285, 0
997, 1961851024, -0.86487496, -0.20030792, -0.07512412, 0.45418823, 1.2334162, 0.19973591, -1.2979908, 0
999, 1961884358, -0.8635024, -0.20128833, -0.07501718, 0.456379, 0.36489004, 2.7933545, 0.57737446, 0
1000, 1961901025, -0.8628575, -0.20232525, -0.07431786, 0.45725328, -0.26710716, 3.369031, 0.31132793, 0
1001, 1961917692, -0.8621268, -0.20395952, -0.073602796, 0.45802087, -0.65254307, 4.0001287, -0.17274094, 0
1003, 1961951026, -0.861085, -0.2074617, -0.072406135, 0.4585981, -0.12217688, 2.389439, 0.47001076, 0
1004, 1961967693, -0.86113304, -0.20832972, -0.07076505, 0.45837072, -0.39874744, 3.4086564, 1.3183947, 0
1005, 1961984360, -0.8609389, -0.21050958, -0.07014933, 0.45783353, -1.2100291, 2.4158125, 2.0207415, 0
1007, 1962017694, -0.8605548, -0.21643078, -0.07106193, 0.45564923, -0.50068444, 3.4282324, -2.2261376, 0
1008, 1962034361, -0.860486, -0.21753201, -0.07232322, 0.45505583, -0.8335134, 1.2725577, -1.054945, 0
1010, 1962067695, -0.8617768, -0.2167612, -0.07034041, 0.45328802, 0.17613022, 5.8685513, 0.6040411, 0
1011, 1962084362, -0.8617407, -0.21745634, -0.070822954, 0.45294848, 0.3474881, -0.16900717, 2.631218, 0
1012, 1962101029, -0.86183304, -0.21669538, -0.07013274, 0.45324475, 2.0621417, 3.4788027, -0.66619205, 0
1015, 1962151030, -0.8588886, -0.21149413, -0.06743087, 0.46162364, 6.2665067, -0.60801053, -0.5194063, 0
1016, 1962167697, -0.8576462, -0.21116763, -0.06611461, 0.4642657, -5.626312, -3.6316733, -1.1685982, 0
1018, 1962201031, -0.8571439, -0.212231, -0.05635746, 0.4659924, -3.2285817, -3.5095408, -3.4997416, 0
1019, 1962217698, -0.8579273, -0.21335924, -0.05229625, 0.46450666, -1.3559341, -5.619162, -2.2306848, 0
1020, 1962234365, -0.85854125, -0.2148035, -0.050213143, 0.46293366, 1.2673637, -6.287092, 1.839858, 0
1022, 1962267699, -0.85852915, -0.21696854, -0.048968557, 0.46207887, -0.498583, -4.685821, 2.4175215, 0
1023, 1962284366, -0.8584032, -0.21714576, -0.04825765, 0.4623044, -1.0670462, -5.030203, 2.1033697, 0
1024, 1962301033, -0.85844314, -0.2158577, -0.04769725, 0.46289134, -1.8813452, -5.05423, 2.8883762, 0
1026, 1962334367, -0.85951567, -0.20799491, -0.04864481, 0.46439958, 1.5605699, -5.982078, 1.2746449, 0
1027, 1962351034, -0.85959965, -0.20503432, -0.04974582, 0.46544302, 3.88309, -4.3122687, -1.8936782, 0
1030, 1962401035, -0.8551887, -0.19838887, -0.044892255, 0.47680327, -1.312158, -2.708862, 0.07927036, 0
1031, 1962417702, -0.8526365, -0.19882554, -0.045879565, 0.48107916, -2.9325306, -1.7312335, -2.121066, 0
1032, 1962434369, -0.8504586, -0.19934109, -0.047872376, 0.4845141, -3.5935185, -3.0361354, 0.93999577, 0
1034, 1962467703, -0.8477949, -0.19677676, -0.049202744, 0.49006557, -2.4956577, 0.9450504, 0.4533472, 0
1035, 1962484370, -0.84667516, -0.19613543, -0.050185904, 0.49215436, -0.8396898, -1.7758272, -1.9290943, 0
1036, 1962501037, -0.8466433, -0.19381735, -0.05146174, 0.49299508, -1.7445041, -0.40903565, 3.1620283, 0
1038, 1962534371, -0.8463261, -0.1922179, -0.056173746, 0.49365115, -0.5242571, 0.8216293, 0.45289135, 0
1039, 1962551038, -0.8466655, -0.19232406, -0.056374416, 0.49300468, -1.1221949, 3.6844106, -1.3856049, 0
1041, 1962584372, -0.84817046, -0.19466577, -0.05317255, 0.48984414, -2.0549893, 1.2891004, 1.3112879, 0
1042, 1962601039, -0.84916437, -0.19536771, -0.052569732, 0.48790413, -1.5074956, 1.1728116, 2.5179882, 0
1045, 1962651040, -0.84907985, -0.21272966, -0.04882179, 0.4811324, 2.7575111, 0.61674905, -3.0901127, 0
1046, 1962667707, -0.84735346, -0.21929194, -0.04999183, 0.48110956, 9.568713, 2.1074083, -1.0623016, 0
1047, 1962684374, -0.8469484, -0.21823008, -0.049040932, 0.4824016, -10.192505, -0.7286327, 2.3429995, 0
1049, 1962717708, -0.84624755, -0.22579265, -0.04714544, 0.4803357, 3.2516923, -2.950176, 1.5665827, 0
1050, 1962734375, -0.8444127, -0.23129854, -0.04824159, 0.48083612, 3.826548, 1.4137291, -2.2484274, 0
1051, 1962751042, -0.8423906, -0.23600471, -0.051021818, 0.4818082, 1.9072081, -2.1636205, -1.0629072, 0
1053, 1962784376, -0.84058845, -0.23862618, -0.060793716, 0.48253018, -2.8907695, 1.6458491, 1.613204, 0
1054, 1962801043, -0.84016013, -0.23836814, -0.07067069, 0.48205793, -1.9445028, -1.0678163, 1.8637772, 0
1055, 1962817710, -0.8399495, -0.24167979, -0.08041222, 0.47924113, 0.8086705, 1.938667, 1.0240841, 0
1057, 1962851044, -0.8380987, -0.25684497, -0.11132808, 0.46828383, 4.1398935, 4.315206, 3.433589, 0
1059, 1962884378, -0.8424661, -0.2764171, -0.15205258, 0.43679172, -3.8256836, 2.9237158, 2.5937948, 0
1061, 1962917712, -0.8594519, -0.275775, -0.20226762, 0.38005388, 3.3402462, -0.0376395, -0.6887741, 0
1062, 1962934379, -0.86941314, -0.2725806, -0.21689689, 0.3504839, -0.9995443, 2.5331168, -2.8307152, 0
1064, 1962967713, -0.88336277, -0.26814383, -0.23031674, 0.3078731, -3.117562, -2.9415796, 1.2409134, 0
1065, 1962984380, -0.8875338, -0.2682138, -0.22284135, 0.30124614, -2.5284338, 0.6898849, 1.594842, 0
1066, 1963001047, -0.89036727, -0.26752728, -0.211929, 0.30137053, -3.2245793, 2.184832, -1.9178901, 0
1068, 1963034381, -0.89580244, -0.26691994, -0.18757933, 0.30194077, 4.1412535, 0.30251607, 2.1494884, 0
1069, 1963051048, -0.8996104, -0.26595363, -0.17530681, 0.29883105, 4.998313, 1.7966332, -1.0883036, 0
1070, 1963067715, -0.9020627, -0.2680695, -0.16447939, 0.29568717, -1.3147085, 0.63458735, 0.09097004, 0
1072, 1963101049, -0.9048967, -0.27726477, -0.14321122, 0.28955013, 2.498724, 0.79681563, 0.5208502, 0
1073, 1963117716, -0.9053576, -0.27934682, -0.13600214, 0.28958413, -0.9620294, 0.53017217, -1.5474339, 0
1074, 1963134383, -0.9051569, -0.27925983, -0.12947033, 0.2932662, -0.65570724, -4.279687, 5.505636, 0
1076, 1963167717, -0.9049581, -0.2633473, -0.12111295, 0.31159788, -0.256788, -0.27959758, -0.8957367, 0
1077, 1963184384, -0.90431476, -0.2548818, -0.12154903, 0.32021606, 1.193186, -0.5548992, 0.93987083, 0
1078, 1963201051, -0.9041708, -0.2497979, -0.12168438, 0.32454836, 5.344936, -1.1202166, 0.46168137, 0
1080, 1963234385, -0.9041603, -0.25296912, -0.1145279, 0.32472536, 2.5304215, -3.3578665, 4.043853, 0
1081, 1963251052, -0.9044121, -0.25904715, -0.10470889, 0.32253993, 4.0545497, -3.1700847, 2.293005, 0
1082, 1963267719, -0.90308005, -0.26642165, -0.09350367, 0.32370618, 2.1517756, -2.9407427, 0.03756523, 0
1084, 1963301053, -0.8864597, -0.24863744, -0.072299264, 0.383672, 32.230183, -11.311703, 5.764635, 0
1086, 1963334387, -0.8400069, -0.20398965, -0.029636238, 0.50195694, -9.140142, -5.7252007, -4.966214, 0
1088, 1963367721, -0.8169576, -0.16447389, -0.03208147, 0.5518712, -12.894596, 8.502191, -8.504886, 0
1089, 1963384388, -0.8210845, -0.1567344, -0.049004488, 0.5467317, -10.145868, 9.648016, -9.036593, 0
1091, 1963417722, -0.83217835, -0.16331396, -0.09727761, 0.5209677, 2.447638, 7.435457, -7.662086, 0
1092, 1963434389, -0.83305967, -0.17699617, -0.11861484, 0.51056546, 2.288889, 6.6650057, -1.352788, 0
1093, 1963451056, -0.83356106, -0.19466957, -0.12534645, 0.50162786, -1.5309055, 3.8273554, 14.685614, 0
1095, 1963484390, -0.85051835, -0.193477, -0.09354137, 0.48010176, -4.730599, 2.1342776, 1.915884, 0
1096, 1963501057, -0.85848355, -0.18702072, -0.077294596, 0.4712933, -0.15683334, -2.091813, -5.198109, 0
1097, 1963517724, -0.8636828, -0.18625139, -0.060659733, 0.46448416, -2.749888, -6.484791, -2.0880737, 0
1099, 1963551058, -0.8734242, -0.18464866, -0.024848506, 0.44997826, -2.2412677, -20.4972, -4.915896, 0
1101, 1963584392, -0.8723074, -0.20095758, -0.010334127, 0.44570345, -5.4322596, -38.236065, -19.602674, 0
1103, 1963617726, -0.844847, -0.23194924, -0.056059454, 0.47890824, -4.5367656, -43.909855, -10.35222, 0
1104, 1963634393, -0.82312256, -0.246733, -0.09873503, 0.5019024, -1.3166978, -33.277737, -21.236795, 0
1105, 1963651060, -0.7991791, -0.25932223, -0.15453094, 0.5198535, 2.3650608, -24.154638, -23.676989, 0
1107, 1963684394, -0.7892627, -0.25736773, -0.1790328, 0.5280493, -6.5984116, 36.706047, -7.4766426, 0
1109, 1963717728, -0.7491127, -0.29612723, -0.27800643, 0.52336764, 1.6411586, 2.113381, 6.2657223, 0
1111, 1963751062, -0.680642, -0.3387398, -0.41852486, 0.4968714, 5.321752, 13.5499525, 8.817574, 0
1112, 1963767729, -0.63068044, -0.363745, -0.498571, 0.47055417, 7.142369, 19.584702, 15.640436, 0
1113, 1963784396, -0.56059456, -0.3963738, -0.57424545, 0.44601172, -3.13624, 30.122076, 16.641148, 0
1115, 1963817730, -0.42735484, -0.44956928, -0.7081455, 0.33741334, -38.149258, 94.61233, 56.784275, 0
1118, 1963867731, -0.31404755, -0.5514938, -0.683039, 0.36159238, 15.564559, 37.127823, 2.0918674, 0
1119, 1963884398, -0.26746598, -0.56059676, -0.67938024, 0.39076635, 14.250477, 42.016567, -9.082198, 0
1120, 1963901065, -0.23704201, -0.558017, -0.6789684, 0.41411662, 13.604555, 20.810114, -16.504501, 0
1122, 1963934399, -0.18604344, -0.54251295, -0.68848354, 0.44398263, 11.740378, 15.126377, -27.03154, 0
1123, 1963951066, -0.17950153, -0.5303377, -0.689664, 0.45929012, 11.892737, 14.646984, -25.164497, 0
1124, 1963967733, -0.18718898, -0.5149825, -0.68974143, 0.47336334, 7.1036816, 10.555678, -23.548798, 0
1126, 1964001067, -0.2360475, -0.4827118, -0.6890563, 0.4863485, 5.8524327, 11.055174, -18.569073, 0
1127, 1964017734, -0.27253196, -0.46799365, -0.6825663, 0.49078938, 5.1221313, 5.517509, -15.595161, 0
1128, 1964034401, -0.3080803, -0.4561714, -0.6702957, 0.49775553, 5.5657916, 3.938502, -13.326278, 0
1130, 1964067735, -0.3815248, -0.43457568, -0.6273116, 0.52165645, 7.181523, 8.220479, -8.572786, 0
1132, 1964101069, -0.45107648, -0.39990008, -0.5678351, 0.5605674, 7.8843603, 1.5081902, -4.082693, 0
1134, 1964134403, -0.5005996, -0.3520314, -0.50396115, 0.6095568, 3.044982, 7.0070863, 0.5055523, 0
1135, 1964151070, -0.5232197, -0.32622194, -0.47044104, 0.63132274, -0.89845014, 8.661158, 3.3661175, 0
1136, 1964167737, -0.54789436, -0.30328172, -0.4342672, 0.6475389, -5.102855, 10.824679, 5.4324417, 0
1138, 1964201071, -0.6076591, -0.2808556, -0.35092172, 0.6548183, -5.1738443, 3.1618445, 4.737056, 0
1139, 1964217738, -0.6366313, -0.27997425, -0.31056494, 0.6480178, -3.911124, 1.5242788, 9.581423, 0
1140, 1964234405, -0.6658312, -0.27739558, -0.27404857, 0.6361451, -4.5720453, 2.0504248, 13.470158, 0
1142, 1964267739, -0.7273425, -0.2579135, -0.20504381, 0.60205764, -3.438445, -2.3781302, 12.942657, 0
1143, 1964284406, -0.7564478, -0.2443014, -0.170904, 0.58220094, -4.1756883, -3.4732225, 12.3950615, 0
1145, 1964317740, -0.8063453, -0.21634513, -0.10520194, 0.54036766, -2.0322652, -6.6308002, 9.420885, 0
1146, 1964334407, -0.8247908, -0.2033908, -0.07684543, 0.52202487, -1.7874925, -7.923494, 6.417593, 0
1147, 1964351074, -0.83831024, -0.19220182, -0.05420304, 0.50736505, -0.018912548, -9.799099, 4.4395494, 0
1149, 1964384408, -0.85121775, -0.17773595, -0.01494807, 0.49363697, 2.6246827, -13.508733, 5.7440596, 0
1150, 1964401075, -0.8522552, -0.17317444, 0.005116891, 0.4936679, 1.207871, -12.135661, 1.2213564, 0
1151, 1964417742, -0.8513578, -0.16969186, 0.021064565, 0.4959976, 0.85806394, -11.196486, -1.3963366, 0
1153, 1964451076, -0.85001975, -0.16690147, 0.039107613, 0.49814004, -2.9903946, -11.142681, -2.5229316, 0
1154, 1964467743, -0.85158455, -0.1645045, 0.04182639, 0.49603945, -3.8097453, -11.780498, -2.4013424, 0
1155, 1964484410, -0.85499334, -0.16192277, 0.04322111, 0.49087885, -4.236761, -13.113041, -1.504921, 0
1157, 1964517744, -0.8666282, -0.15135643, 0.04037713, 0.47379208, -2.5143647, -10.989633, -5.5433455, 0
1159, 1964551078, -0.8780187, -0.14537275, 0.028146349, 0.45521462, -0.3081116, -11.570671, -6.36565, 0
1161, 1964584412, -0.8838555, -0.14922115, 0.014913399, 0.44313985, -0.6437038, -13.216851, -4.3202434, 0
1162, 1964601079, -0.88449985, -0.15308073, 0.01157492, 0.44063044, -1.4366729, -14.262108, -3.8404016, 0
1163, 1964617746, -0.88331497, -0.15793756, 0.0110900365, 0.44130492, -1.6848673, -15.177241, -5.4652843, 0
1165, 1964651080, -0.87258446, -0.17508626, 0.014176417, 0.45585373, -2.390857, -18.757143, -9.657574, 0
1166, 1964667747, -0.86296, -0.18947464, 0.017403118, 0.46814442, -6.5307155, -20.74293, -9.063969, 0
1167, 1964684414, -0.85260034, -0.20504065, 0.017657042, 0.48039776, -11.584536, -20.66533, -9.824136, 0
1169, 1964717748, -0.8339138, -0.24719778, -0.0077394247, 0.4934408, -15.209118, -24.030043, -14.683659, 0
1170, 1964734415, -0.8217299, -0.28401244, -0.039697543, 0.49252775, -12.920772, -28.001581, -13.357368, 0
1173, 1964784416, -0.7727418, -0.29399016, -0.17868422, 0.53345513, 18.806923, -21.746704, 30.745842, 0
1176, 1964834417, -0.7306932, -0.31614268, -0.28717536, 0.532667, 2.116102, 2.0468204, 1.832983, 0
1177, 1964851084, -0.70504844, -0.33595613, -0.34302205, 0.52195656, -2.9621725, 8.156162, 2.938531, 0
1178, 1964867751, -0.66784126, -0.35016778, -0.41298646, 0.5107597, 0.89707774, 5.5697145, 7.068344, 0
1180, 1964901085, -0.5584673, -0.40378582, -0.54018784, 0.4830436, 5.1937437, 27.246855, 18.318497, 0
1181, 1964917752, -0.47524974, -0.44364846, -0.5960225, 0.47131038, -3.5924397, 28.557339, 22.902878, 0
1182, 1964934419, -0.3937825, -0.47195432, -0.6559481, 0.43816572, -51.745285, 63.792885, 46.602955, 1024
1184, 1964967753, -0.3988399, -0.49883455, -0.6968312, 0.32646543, 11.540988, -20.843838, 12.625601, 0
1185, 1964984420, -0.32746792, -0.5377129, -0.6961568, 0.34504777, 0.763311, 17.408613, 12.383789, 0
1186, 1965001087, -0.2760368, -0.5604595, -0.6990483, 0.34796998, 0.91169506, 49.72669, -2.5780015, 0
1189, 1965051088, -0.16836601, -0.59537995, -0.68917, 0.3772041, 18.251154, 21.098658, -19.559544, 0
1192, 1965101089, -0.12756437, -0.5588705, -0.68127036, 0.4553287, 6.946567, 10.524919, -20.20119, 0
1193, 1965117756, -0.1369272, -0.54006207, -0.68562335, 0.46857977, 4.742553, 10.723327, -20.448044, 0
1194, 1965134423, -0.1583784, -0.522411, -0.692071, 0.4723382, 3.331387, 9.856664, -20.338207, 0
1196, 1965167757, -0.21694455, -0.49549544, -0.6977454, 0.46971625, 5.46106, 3.2428725, -15.30784, 0
1197, 1965184424, -0.247817, -0.4864906, -0.69130075, 0.47337028, 6.976563, 3.941431, -14.038843, 0
1199, 1965217758, -0.31671152, -0.47022042, -0.6620612, 0.49022877, 7.4452987, 5.0275664, -11.664614, 0
1200, 1965234425, -0.35593265, -0.45796394, -0.6427095, 0.50056773, 8.719642, 8.575233, -9.290924, 0
1201, 1965251092, -0.3994338, -0.44177264, -0.6168065, 0.5146862, 8.938049, 8.272344, -7.0841875, 0
1203, 1965284426, -0.48095453, -0.39885998, -0.547614, 0.55657434, 6.03083, 3.8668072, -2.1888685, 0
1204, 1965301093, -0.51377714, -0.37337983, -0.5093968, 0.58068764, 2.648165, 5.723333, 1.1006699, 0
1207, 1965351094, -0.6088455, -0.30063966, -0.38190383, 0.6270048, -3.804037, 3.9537225, 10.18783, 0
1208, 1965367761, -0.6350322, -0.2841477, -0.33607852, 0.63490796, -5.66987, 1.7614471, 15.412342, 0
1209, 1965384428, -0.6601855, -0.27029613, -0.28773826, 0.6390338, -5.528854, -2.3962932, 14.611965, 0
1211, 1965417762, -0.7033106, -0.2519278, -0.19452271, 0.6356965, -7.4210644, -3.9655404, 18.061697, 0
1213, 1965451096, -0.7519183, -0.23165894, -0.10843199, 0.6076661, -5.3256235, -7.648043, 9.796547, 0
1215, 1965484430, -0.7995865, -0.21108836, -0.041451924, 0.5607561, -2.516009, -9.809072, 9.018055, 0
1216, 1965501097, -0.82086354, -0.19427264, -0.017920136, 0.53682655, -2.5750208, -9.93186, 7.1428413, 0
1217, 1965517764, -0.83815, -0.17628348, -5.382709E-4, 0.51622796, -2.1598277, -10.9386635, 2.0077028, 0
1219, 1965551098, -0.8565011, -0.15829328, 0.021083176, 0.49088413, -0.7404707, -13.234264, 0.84128, 0
1220, 1965567765, -0.8604031, -0.15437192, 0.03097301, 0.4847465, 0.7344761, -13.057364, -1.0415993, 0
1221, 1965584432, -0.8616502, -0.15376619, 0.038601797, 0.4821695, 1.54866, -11.872325, -4.154545, 0
1223, 1965617766, -0.85853606, -0.16133834, 0.044880453, 0.48469996, -2.40339, -11.481506, -2.8243446, 0
1224, 1965634433, -0.856195, -0.16651985, 0.04487635, 0.48708326, -3.5939445, -10.804779, -3.1979613, 0
1226, 1965667767, -0.85518736, -0.17516932, 0.045751654, 0.4857362, -3.2702866, -9.70634, -2.611566, 0
1227, 1965684434, -0.85742277, -0.17799807, 0.046994988, 0.48062152, -2.3857064, -8.678221, -3.7862887, 0
1228, 1965701101, -0.86001337, -0.17983782, 0.044730306, 0.4754969, -2.0885537, -8.488621, -4.5308013, 0
1230, 1965734435, -0.86229336, -0.18107103, 0.03285216, 0.47185433, -1.1886984, -9.335654, -4.5057354, 0
1231, 1965751102, -0.86176926, -0.18344261, 0.027339082, 0.47224766, -1.5463649, -9.061133, -4.915878, 0
1232, 1965767769, -0.86070347, -0.18685085, 0.021311328, 0.47316456, -2.354932, -9.025083, -4.8805428, 0
1235, 1965817770, -0.8590791, -0.20663825, 0.013141774, 0.46815974, -3.0680058, -11.277043, -3.8268738, 0
1236, 1965834437, -0.85843474, -0.21202046, 0.008628905, 0.46703878, -3.6467128, -12.856683, -4.3113937, 0
1238, 1965867771, -0.8560966, -0.21821001, -0.002739489, 0.46854907, -5.479478, -18.928381, -3.739265, 0
1239, 1965884438, -0.8544109, -0.22193132, -0.008967809, 0.4697985, -5.5344534, -20.58907, -5.98795, 0
1240, 1965901105, -0.85032284, -0.23136014, -0.019040942, 0.47235972, -4.26892, -23.116493, -7.2341366, 0
1242, 1965934439, -0.82953256, -0.26666546, -0.06281145, 0.48670578, -3.7222352, -30.766352, -6.032076, 0
1243, 1965951106, -0.8123208, -0.28688586, -0.0991447, 0.49806044, -1.3775514, -31.106188, -3.5740676, 0
1244, 1965967773, -0.7887504, -0.29360262, -0.15219633, 0.5182365, -3.6176407, -45.234776, 14.188538, 0
1246, 1966001107, -0.7679899, -0.25858474, -0.18734139, 0.5552397, 9.446891, 12.36103, 3.0965633, 0
1247, 1966017774, -0.75541484, -0.2664381, -0.22081828, 0.55647206, 8.2754965, 1.2456036, 2.274397, 0
1250, 1966067775, -0.67676204, -0.33175296, -0.3928782, 0.5269177, 3.2218957, 10.393418, 7.1204567, 0
1251, 1966084442, -0.62584424, -0.3593797, -0.46632904, 0.5116297, 5.6838064, 12.14353, 14.522345, 0
1253, 1966117776, -0.4661638, -0.43930757, -0.5971924, 0.48282915, -5.9074044, 29.087004, 28.997906, 0
1254, 1966134443, -0.38916382, -0.45722497, -0.67229736, 0.4331005, -45.63651, 72.66526, 39.78802, 0
1255, 1966151110, -0.3910477, -0.46521148, -0.70432335, 0.36694857, -28.19205, 60.80141, 12.042381, 0
1257, 1966184444, -0.32733822, -0.5253881, -0.7076559, 0.3407384, 8.514625, 21.196642, 2.4025927, 0
1258, 1966201111, -0.2678848, -0.5525179, -0.70904243, 0.34681863, 18.360788, 45.858536, -7.6994343, 0
1259, 1966217778, -0.2297408, -0.56575954, -0.70386684, 0.3630006, 23.771498, 40.198814, -15.53382, 0
1261, 1966251112, -0.1886906, -0.56517774, -0.6848906, 0.41947266, 16.170536, 21.162449, -19.364346, 0
1262, 1966267779, -0.18818116, -0.5503932, -0.68127584, 0.44450077, 13.059742, 16.815884, -18.40216, 0
1265, 1966317780, -0.24504587, -0.46669787, -0.6953234, 0.48860386, 1.8389271, 11.45021, -17.607239, 0
1266, 1966334447, -0.2806257, -0.43826345, -0.6993375, 0.49006543, -0.27353165, 11.454969, -17.254026, 0
1267, 1966351114, -0.32441938, -0.41516984, -0.6968194, 0.4867149, -0.7874325, 9.988765, -15.228054, 0
1269, 1966384448, -0.4248116, -0.38915056, -0.6623419, 0.4790226, 0.7116165, 7.200646, -8.848203, 0
1270, 1966401115, -0.4754648, -0.38091004, -0.63211316, 0.4788907, 2.4048338, 6.0889654, -4.7414036, 0
1271, 1966417782, -0.5233007, -0.37173498, -0.59528947, 0.48338655, 1.6894025, 4.553736, -1.9323363, 0
1273, 1966451116, -0.6135264, -0.3438511, -0.5146254, 0.49048445, -4.3857574, 5.5488863, 4.662014, 0
1274, 1966467783, -0.6572571, -0.3247089, -0.47333166, 0.48846397, -10.3864155, 1.3414016, 4.6126337, 0
1275, 1966484450, -0.6970432, -0.30784154, -0.4347843, 0.4799892, -11.042393, -3.6574275, 4.8719883, 0
1277, 1966517784, -0.7657894, -0.28800976, -0.36454195, 0.4447343, -14.486804, -8.314145, 8.336319, 0
1280, 1966567785, -0.84947234, -0.2786081, -0.2843954, 0.34634683, -4.372959, -14.624356, 3.221262, 0
1281, 1966584452, -0.86748666, -0.28014445, -0.26390576, 0.31528136, 1.0351399, -13.794529, 4.3693123, 0
1282, 1966601119, -0.8816441, -0.2751638, -0.24525921, 0.29478624, 3.863983, -12.838491, 5.7904053, 0
1284, 1966634453, -0.8968392, -0.2447277, -0.22042108, 0.29540637, 1.7427524, -14.492671, 2.2800312, 0
1285, 1966651120, -0.90052366, -0.23582841, -0.21191308, 0.2976532, -6.795629, -11.549137, -7.0634127, 0
1286, 1966667787, -0.9019805, -0.2312764, -0.21448621, 0.29495877, -2.9825547, -10.085871, -7.63316, 0
1288, 1966701121, -0.9021479, -0.20903769, -0.21786863, 0.3082666, 13.751722, -27.763065, -5.2999406, 0
1289, 1966717788, -0.90094566, -0.20461713, -0.21732551, 0.31505665, 2.6631722, -10.656936, 3.4714699, 0
1290, 1966734455, -0.89936984, -0.20371202, -0.21832393, 0.3194254, 1.3470808, 2.4184241, -1.8877211, 0
1292, 1966767789, -0.89441186, -0.20703991, -0.23190698, 0.3216269, -0.09931228, -2.245962, 0.69943047, 0
1293, 1966784456, -0.8906739, -0.20885377, -0.23911357, 0.32552662, 2.8002853, -3.9185903, 0.6171236, 0
1294, 1966801123, -0.8866289, -0.20995414, -0.24641989, 0.330376, -0.5630953, -4.915856, -0.7364187, 0
1296, 1966834457, -0.88075686, -0.21652545, -0.2552046, 0.33513778, 0.9204523, -0.6845207, 1.3608007, 0
1297, 1966851124, -0.87862206, -0.21739574, -0.2580631, 0.33797687, 0.9533087, 0.43338302, 1.271245, 0
1298, 1966867791, -0.87703216, -0.21814555, -0.25921178, 0.34073335, -1.8866514, -0.44312584, 3.3587189, 0
1300, 1966901125, -0.87412375, -0.22127962, -0.26216325, 0.3439129, -1.2450064, 4.282584, -1.7129173, 0
1301, 1966917792, -0.870141, -0.22032316, -0.26646817, 0.35124013, 3.1365163, 4.5006256, -0.70509434, 0
1302, 1966934459, -0.86564326, -0.21953581, -0.26999676, 0.36004195, 0.20606688, 2.524052, 1.6961851, 0
1304, 1966967793, -0.86161155, -0.22044188, -0.27064732, 0.36856946, -0.6536069, 2.9152327, -0.9816141, 0
1307, 1967017794, -0.85637444, -0.21857604, -0.24706964, 0.39732438, -3.7267125, -0.28556636, -3.1343045, 0
1308, 1967034461, -0.8540796, -0.21763825, -0.23414412, 0.4103911, -3.0504315, 4.324563, -3.16474, 0
1309, 1967051128, -0.85316706, -0.21382777, -0.22116509, 0.42134577, 0.97586787, 4.291557, 0.9028244, 0
1311, 1967084462, -0.8564954, -0.20499405, -0.19609827, 0.43127865, 1.7152914, 2.995031, 0.6924734, 0
1312, 1967101129, -0.86027837, -0.20159425, -0.18474385, 0.43036383, 3.1851816, 3.6338506, 3.294056, 0
1313, 1967117796, -0.8639215, -0.19790445, -0.17407498, 0.42922455, 2.127283, 3.0555923, 0.4146061, 0
1315, 1967151130, -0.86699075, -0.19507214, -0.15992352, 0.42983842, -1.9997038, -1.0019313, -0.007815361, 0
1316, 1967167797, -0.86811715, -0.19393766, -0.14892673, 0.43202353, 0.8916571, 4.872641, 2.7978573, 0
1317, 1967184464, -0.86839616, -0.1922375, -0.13766326, 0.43594068, 1.7911335, 7.1813474, -1.0954933, 0
1319, 1967217798, -0.86868095, -0.19165248, -0.12176694, 0.44033885, 1.9392179, 0.029476628, 1.4144211, 0
1321, 1967251132, -0.8676895, -0.19490658, -0.11913973, 0.4415822, -0.08627511, 3.3873596, 4.6687346, 0
1323, 1967284466, -0.85742, -0.19937599, -0.13035989, 0.45623344, 1.7493333, 4.136141, -6.495553, 0
1324, 1967301133, -0.84915507, -0.20259461, -0.13016164, 0.47011858, 0.42607293, -5.5012884, 2.0089655, 0
1325, 1967317800, -0.8439528, -0.20064415, -0.12019974, 0.48280448, 1.6203413, -3.7421436, -4.3564606, 0
1327, 1967351134, -0.8472706, -0.20485315, -0.09411253, 0.48101264, 5.3318396, -4.360338, 0.28681087, 0
1328, 1967367801, -0.848071, -0.20362972, -0.088570155, 0.481174, -0.70248246, -3.3748975, 4.9076138, 0
1329, 1967384468, -0.84804845, -0.20414713, -0.0853732, 0.48157203, -1.0599022, -4.6491504, 7.9811096, 0
1331, 1967417802, -0.846189, -0.21101622, -0.083230555, 0.48225677, -1.3279291, -3.1998363, -3.8310242, 0
1332, 1967434469, -0.8457893, -0.21226598, -0.08182542, 0.48264968, -0.5789081, -1.0836855, -4.562372, 0
1333, 1967451136, -0.8462515, -0.20997989, -0.07970283, 0.4831943, -0.90790004, -1.9867923, 2.6241875, 0
1336, 1967501137, -0.84803236, -0.19408366, -0.07890413, 0.4868358, -2.171467, -6.8334336, 2.1513767, 0
1338, 1967534471, -0.8485023, -0.18480527, -0.08165536, 0.48916858, 2.2243636, -0.6983524, -3.925487, 0
1339, 1967551138, -0.8488699, -0.18066423, -0.08254673, 0.48992756, 1.1459231, -1.3651264, -1.735218, 0
1340, 1967567805, -0.8493923, -0.17738917, -0.08327157, 0.4900964, -1.0863073, -3.1966066, 2.3823318, 0
1342, 1967601139, -0.84978694, -0.17597605, -0.084753335, 0.48966727, -1.1154587, -1.689274, 0.5871067, 0
1343, 1967617806, -0.8501103, -0.17646703, -0.085558675, 0.48878837, -0.7807914, 2.010095, -1.7982683, 0
1344, 1967634473, -0.85066485, -0.17739092, -0.08619897, 0.48737478, -1.8086295, 0.76963305, -3.1718407, 0
1346, 1967667807, -0.853268, -0.17945482, -0.08556194, 0.4821527, -2.4873495, 1.817133, -0.995883, 0
1347, 1967684474, -0.85441005, -0.18084593, -0.08586103, 0.4795506, -3.7614138, -3.854203, 4.289507, 0
1348, 1967701141, -0.85617805, -0.18145151, -0.085085854, 0.4762956, -2.497771, 2.9574075, 0.66415405, 0
1351, 1967751142, -0.86042744, -0.18613525, -0.08508912, 0.4667342, -0.911996, 1.9486948, 1.7865295, 0
1352, 1967767809, -0.86200297, -0.18662529, -0.08426442, 0.46377137, -0.108646184, 3.0060856, 1.7682829, 0
1354, 1967801143, -0.86350554, -0.18916638, -0.08466558, 0.4598574, 0.87511355, -0.7193219, 0.687006, 0
1355, 1967817810, -0.86410844, -0.18940529, -0.084576115, 0.45864135, 2.1069167, 1.5025582, -0.43763828, 0
1356, 1967834477, -0.8642697, -0.18953772, -0.08487875, 0.45822653, 1.5109019, 2.1747348, -0.4826889, 0
1358, 1967867811, -0.8639008, -0.18962906, -0.084702894, 0.4589166, 1.6625124, -0.040715363, 1.1138706, 0
1359, 1967884478, -0.8637058, -0.18884331, -0.08379544, 0.45977306, 2.1376336, 1.1046108, 0.43050766, 0
1361, 1967917812, -0.8623034, -0.18916818, -0.082762636, 0.46245137, 1.1934067, 1.8887045, 0.1371851, 0
1362, 1967934479, -0.8615919, -0.18969773, -0.08236603, 0.46363, 0.9069756, 1.1039379, -0.30012417, 0
1363, 1967951146, -0.8609197, -0.1898219, -0.08216983, 0.46486074, 0.48009545, -0.5462665, -0.19238377, 0
1365, 1967984480, -0.8598836, -0.18867028, -0.08066944, 0.4675027, -0.34316826, 2.2713304, 1.925312, 0
1366, 1968001147, -0.8591653, -0.1887405, -0.08039875, 0.46883976, 0.2888752, 2.0615919, 0.549263, 0
1367, 1968017814, -0.8582324, -0.18912123, -0.080499746, 0.47037494, 1.0543631, 0.90219957, -1.2424107, 0
1369, 1968051148, -0.85687387, -0.18851551, -0.07952315, 0.47325212, -0.1378315, 2.9473376, -2.016911, 0
1370, 1968067815, -0.85613024, -0.18886742, -0.07939151, 0.47447836, -0.28271708, -1.3554925, 2.6943293, 0
1371, 1968084482, -0.85567653, -0.1887832, -0.079068616, 0.47538343, 0.8917893, 2.8656695, 0.256629, 0
1373, 1968117816, -0.8540372, -0.19085228, -0.08052991, 0.47725582, -0.6074358, 2.292733, 0.8364687, 0
1374, 1968134483, -0.8538464, -0.19096656, -0.08073244, 0.4775173, -0.2317836, 4.0891323, 0.07897949, 0
1375, 1968151150, -0.85367966, -0.19069926, -0.08094005, 0.47788733, -0.23466301, 1.9054633, 0.3493271, 0
1378, 1968201151, -0.8530874, -0.18971479, -0.08300451, 0.47898108, 0.3321037, 2.104213, 1.6772232, 0
1379, 1968217818, -0.85268223, -0.18957648, -0.08429054, 0.47953236, 0.39231786, 4.0370207, -0.31339645, 0
1381, 1968251152, -0.851771, -0.18871333, -0.08590505, 0.48120332, 1.4115053, 4.92741, -3.2373347, 0
1382, 1968267819, -0.8506253, -0.1897309, -0.08842106, 0.4823722, 1.235742, 0.46421248, -3.946754, 0
1383, 1968284486, -0.8503398, -0.18904191, -0.08869777, 0.48309463, 1.2367828, 0.8890404, 3.047677, 0
1385, 1968317820, -0.85024863, -0.1863745, -0.08707767, 0.4845839, 1.0853773, 4.351054, 0.6832905, 0
1386, 1968334487, -0.84950256, -0.18656781, -0.088350326, 0.48558676, 1.5616953, -1.4527266, 1.3581553, 0
1388, 1968367821, -0.84758306, -0.18638103, -0.0898267, 0.48873156, 1.0290225, 3.2918882, -3.1882262, 0
1389, 1968384488, -0.84765685, -0.18521139, -0.087318696, 0.4895022, 0.79377294, 1.3640037, 1.4943571, 0
1390, 1968401155, -0.8470743, -0.18676744, -0.08672537, 0.49002492, 0.5188112, -0.31524768, -2.1544662, 0
1393, 1968451156, -0.84804714, -0.18990313, -0.08077914, 0.48814976, 0.06213392, -6.2265034, -1.7157192, 0
1394, 1968467823, -0.84892946, -0.19003151, -0.07797263, 0.4870209, -0.09438393, -3.2245643, -1.4508972, 0
1396, 1968501157, -0.8492642, -0.19274938, -0.07550757, 0.48575625, 0.3083464, -4.6474915, 3.656474, 0
1397, 1968517824, -0.8492223, -0.19499838, -0.074427314, 0.48509824, -0.5976353, -6.0463586, 1.291935, 0
1398, 1968534491, -0.8493474, -0.19705538, -0.073061004, 0.4842548, -2.1654356, -2.2818048, -0.8295994, 0
1400, 1968567825, -0.85001516, -0.19627002, -0.072091065, 0.48354697, -4.724245, -7.1930575, 3.6269188, 0
1401, 1968584492, -0.8510474, -0.19404031, -0.07158275, 0.4827063, -2.3078492, -4.6247077, 6.653261, 0
1402, 1968601159, -0.85199296, -0.19212437, -0.07187014, 0.48176074, -0.73229706, -6.6954384, 2.1675606, 0
1404, 1968634493, -0.85414565, -0.18833388, -0.073426805, 0.47920436, -1.2934251, -1.1342385, -2.9786272, 0
1405, 1968651160, -0.8551394, -0.1876568, -0.073481634, 0.47768688, -0.94345903, -1.647486, -1.8337178, 0
1408, 1968701161, -0.856881, -0.18884546, -0.07469276, 0.47389427, -0.8704908, -3.037392, 0.0124053955, 0
1409, 1968717828, -0.857107, -0.1888171, -0.07602056, 0.47328556, -0.8267657, -1.9453561, -0.2721634, 0
1410, 1968734495, -0.85775626, -0.18700561, -0.07582387, 0.4728598, 0.07153007, 1.8488605, 1.9864349, 0
1412, 1968767829, -0.85796547, -0.18481664, -0.07705298, 0.47314203, 1.1885628, -0.22477865, 0.4617958, 0
1413, 1968784496, -0.8575735, -0.1846221, -0.07839146, 0.4737084, 0.37366617, -0.8110978, -3.4421744, 0
1415, 1968817830, -0.85737634, -0.18270585, -0.07966632, 0.47459513, -0.7787216, 1.6808519, 5.5511723, 0
1416, 1968834497, -0.8575877, -0.18084617, -0.07872173, 0.47508264, -0.05744596, 4.7662396, 3.6170492, 0
1417, 1968851164, -0.8571482, -0.18116875, -0.079359725, 0.4756466, 0.23136787, 0.49203148, -0.2555933, 0
1419, 1968884498, -0.8569026, -0.18179524, -0.08088214, 0.4755932, -0.15463409, -1.1422204, -0.9287157, 0
1420, 1968901165, -0.8574747, -0.18075114, -0.08009963, 0.47509235, -1.26084, 2.3178785, 1.3562851, 0
1423, 1968951166, -0.85849154, -0.1808651, -0.078569174, 0.47346544, -0.8127869, -0.80402195, 1.358861, 0
1424, 1968967833, -0.8585753, -0.1816399, -0.07876834, 0.47298378, 0.39150104, -0.28541094, 0.38858414, 0
1425, 1968984500, -0.8588382, -0.1808992, -0.078795664, 0.4727856, -0.35683006, -0.20031269, 2.493988, 0
1427, 1969017834, -0.8588811, -0.18123257, -0.078865744, 0.47256857, 0.14998971, 5.434383, -2.9237213, 0
1428, 1969034501, -0.8589006, -0.18156043, -0.07916002, 0.4723577, -0.123130046, 1.8644809, -1.4463072, 0
1429, 1969051168, -0.8590531, -0.1811347, -0.07898405, 0.47227332, -1.097104, -2.6756673, 4.364749, 0
1431, 1969084502, -0.8592271, -0.1828777, -0.07857193, 0.47135293, 0.40264195, 1.7198298, 0.3616829, 0
1432, 1969101169, -0.8588181, -0.18509461, -0.079113096, 0.47114217, 0.849945, 4.5493007, -2.3706417, 0
1433, 1969117836, -0.8589426, -0.18609168, -0.07871599, 0.4705887, -0.7382766, 4.201885, -2.0349617, 0
1435, 1969151170, -0.8596302, -0.18860628, -0.07796027, 0.468453, -1.5220323, -2.7085998, 6.7980957, 0
1436, 1969167837, -0.86008966, -0.1892543, -0.07700846, 0.46750516, 0.16121207, 3.797887, 0.5756197, 0
1437, 1969184504, -0.8598237, -0.19148597, -0.077936515, 0.46693113, 0.66796243, 1.1519413, -1.1829948, 0
1439, 1969217838, -0.8598118, -0.19416861, -0.07833956, 0.46577644, -0.30448294, 2.3196604, 0.80149937, 0
1440, 1969234505, -0.859776, -0.19537856, -0.07864357, 0.465285, -0.05188507, 1.2263442, 0.34488106, 0
1441, 1969251172, -0.85952044, -0.19664359, -0.07878132, 0.46520102, 0.27796954, 1.5635673, -0.1677351, 0
1443, 1969284506, -0.8589469, -0.1989876, -0.0784555, 0.46531856, 1.5314339, 3.8279169, -0.9278879, 0
1444, 1969301173, -0.8584279, -0.20081472, -0.07842509, 0.46549648, 1.0085433, 1.0373435, 0.524127, 0
1446, 1969334507, -0.85728776, -0.20261003, -0.078417964, 0.46681917, 1.9429584, 2.888434, -0.25462055, 0
1447, 1969351174, -0.8562759, -0.20344692, -0.07893179, 0.46822327, 0.84220177, 1.9306126, 0.37987232, 0
1450, 1969401175, -0.8535854, -0.20357342, -0.0786362, 0.47310525, 1.6364566, -0.6008038, 2.513383, 0
1451, 1969417842, -0.8529052, -0.20253225, -0.077741615, 0.47492346, 1.975171, 2.749597, 1.7977238, 0
1452, 1969434509, -0.85183406, -0.20216514, -0.07808975, 0.4769408, 1.7994967, 1.8467588, -1.0864906, 0
1454, 1969467843, -0.85035187, -0.19887325, -0.07706792, 0.48111773, 2.25572, 3.9277432, -2.7010775, 0
1455, 1969484510, -0.84910923, -0.19792041, -0.0768149, 0.48373872, 0.9379751, -1.0342705, 2.5500593, 0
1456, 1969501177, -0.848487, -0.19582939, -0.07482155, 0.48598856, 2.712169, 2.8366718, 2.5304441, 0
1458, 1969534511, -0.8453132, -0.19571227, -0.07451277, 0.49158174, 1.8044593, -2.0167363, 0.70364094, 0
1459, 1969551178, -0.84440565, -0.19540577, -0.07226205, 0.4935955, 2.2811334, 1.4710124, 1.1571693, 0
1460, 1969567845, -0.84328914, -0.1964497, -0.06988393, 0.495429, 1.6805357, -2.6578422, 2.2426004, 0
1462, 1969601179, -0.8417724, -0.20058534, -0.06411356, 0.49712855, 1.4080119, -5.7471347, -2.9929018, 0
1464, 1969634513, -0.84196115, -0.19809613, -0.05945558, 0.4983842, -1.8889288, -5.0721498, 1.8179512, 0
1466, 1969667847, -0.841244, -0.19869012, -0.059166193, 0.4993923, -2.0110354, -10.743402, 0.73565483, 0
1467, 1969684514, -0.84117234, -0.19897833, -0.058956407, 0.499423, -2.2275958, -7.9387517, 2.8629007, 0
1469, 1969717848, -0.84238064, -0.19408694, -0.06042034, 0.4991363, -6.2311177, -6.5290623, 0.48330402, 0
1470, 1969734515, -0.8437424, -0.19003758, -0.06176117, 0.4982295, -3.9806473, -4.655871, 2.2449036, 0
1471, 1969751182, -0.844906, -0.18693373, -0.06325555, 0.4972434, -1.8323214, -5.997723, 3.5282135, 0
1473, 1969784516, -0.84697175, -0.18246345, -0.06763264, 0.49480742, -0.75181144, -3.3284867, -1.9471326, 0
1474, 1969801183, -0.84826446, -0.18065171, -0.06873435, 0.49310288, -0.6554712, 0.5586428, -0.7701683, 0
1475, 1969817850, -0.84873676, -0.18215677, -0.07050965, 0.4914832, -1.4104044, -1.7197703, -0.040839195, 0
1477, 1969851184, -0.85006773, -0.18491028, -0.072076835, 0.48791444, -0.89884865, -0.6683231, 0.7617197, 0
1479, 1969884518, -0.85142034, -0.18711028, -0.07438816, 0.48435745, -1.3822917, 1.7573956, -0.036614418, 0
1481, 1969917852, -0.8530359, -0.18946168, -0.07417942, 0.48061854, -0.4372462, 0.96961504, 2.1026316, 0
1482, 1969934519, -0.8535968, -0.19145273, -0.073618285, 0.47891665, 0.30821577, 1.5684903, 0.7357607, 0
1483, 1969951186, -0.85372263, -0.19529834, -0.07186367, 0.4774039, 1.1117728, 0.9958614, 0.7978773, 0
1485, 1969984520, -0.853647, -0.2092275, -0.0586797, 0.4734233, 1.89895, 3.7515433, 1.5968761, 0
1486, 1970001187, -0.852744, -0.21889491, -0.047956336, 0.47188532, 0.4065987, 1.0304444, 3.0921535, 0
1487, 1970017854, -0.8513953, -0.2270657, -0.035263825, 0.47157824, 2.0044963, 0.27995288, 3.171197, 0
1489, 1970051188, -0.84532344, -0.23678946, -0.0114239305, 0.4788435, 0.37009332, -1.4940681, 0.7781582, 0
1490, 1970067855, -0.8407496, -0.23735835, -9.129867E-4, 0.4866856, 2.6194239, 0.9206761, -3.6272058, 0
1491, 1970084522, -0.83329, -0.23658796, 0.007747136, 0.4996565, 4.2277055, 0.31572205, -0.0918684, 0
1494, 1970134523, -0.7908367, -0.23089968, 0.030055463, 0.5660581, -2.8427262, 0.34536827, -2.3999228, 0
1496, 1970167857, -0.76743364, -0.23157254, 0.034972116, 0.5968746, -0.4913168, 1.7511045, -3.195712, 0
1497, 1970184524, -0.75879806, -0.23531926, 0.036583275, 0.60627925, -7.846854, 7.074526, -0.9892435, 0
1498, 1970201191, -0.75594366, -0.24207671, 0.034300365, 0.6073171, -4.4295483, 0.81112117, -3.6608315, 0
1500, 1970234525, -0.7542484, -0.25873232, 0.030366518, 0.60275006, 3.631066, -1.983538, -1.2385092, 0
1501, 1970251192, -0.7526002, -0.26562816, 0.029076084, 0.60187376, -1.879151, 0.760766, 0.7748499, 0
1502, 1970267859, -0.7518307, -0.27202344, 0.028149694, 0.60002005, -2.4329278, -3.8305771, 4.114687, 0
1504, 1970301193, -0.7508247, -0.2798187, 0.025246687, 0.59782004, 4.407289, -2.1804752, 1.4338522, 0
1505, 1970317860, -0.74968094, -0.28325397, 0.023973934, 0.5976901, 0.059344254, -2.3869731, 1.810339, 0
1506, 1970334527, -0.7492635, -0.28504613, 0.021833107, 0.5974436, 0.12330964, 0.7270824, -0.99139404, 0
1508, 1970367861, -0.7488624, -0.28607535, 0.0154301, 0.5976541, 0.6287264, -0.87661517, -0.013612747, 0
1509, 1970384528, -0.7482907, -0.28631228, 0.011638194, 0.59834224, -0.50743675, 1.3897889, -0.51067066, 0
1510, 1970401195, -0.74689394, -0.2888706, 0.0058261305, 0.5989423, 3.064347, -1.9312414, -1.5327158, 0
1512, 1970434529, -0.7393985, -0.31111312, -0.0013987273, 0.5971259, 3.9380555, -0.7323327, 0.42176437, 0
1513, 1970451196, -0.7344862, -0.32903892, -0.0017689914, 0.5935679, 3.5121639, 2.2377641, -0.3102951, 0
1514, 1970467863, -0.7293187, -0.3515861, -0.0031539649, 0.58697045, 3.060488, 0.27155226, -0.36909008, 0
1516, 1970501197, -0.71782935, -0.41061935, -0.0032559931, 0.56228524, 3.8578246, -0.29341516, -8.760834, 0
1517, 1970517864, -0.7199055, -0.4250141, -0.021486565, 0.54836124, -5.0654793, 10.68672, 22.479172, 0
1518, 1970534531, -0.7308861, -0.42166474, -0.044667557, 0.5348568, 8.386634, -5.413054, 0.1940651, 0
1521, 1970584532, -0.7606512, -0.40224314, -0.1274454, 0.4933868, 12.676499, -4.5489554, 2.9233046, 0
1523, 1970617866, -0.7660307, -0.37698385, -0.15354879, 0.4975595, 5.6758466, 4.286072, -0.3432293, 0
1524, 1970634533, -0.7675015, -0.35461244, -0.16546977, 0.50781274, 3.9742978, 6.062223, 1.2580576, 0
1525, 1970651200, -0.7690512, -0.32798922, -0.1739169, 0.52038336, 0.90074646, 7.3136854, 0.91228104, 0
1527, 1970684534, -0.773752, -0.276256, -0.17378907, 0.5430016, -4.27678, 7.086524, -0.49736214, 0
1528, 1970701201, -0.7779038, -0.25623104, -0.16619843, 0.5492288, -6.0455194, 6.2577586, -1.005002, 0
1529, 1970717868, -0.7838417, -0.24078493, -0.15509763, 0.551019, -6.9467807, 5.474586, -0.9288502, 0
1531, 1970751202, -0.80020326, -0.21784474, -0.12911904, 0.54369956, -5.7093773, 2.0875607, -2.6679125, 0
1532, 1970767869, -0.8081602, -0.21183549, -0.11574665, 0.5372786, -4.5605927, 0.66097385, -1.3879623, 0
1533, 1970784536, -0.816427, -0.21040055, -0.09837639, 0.52873755, -3.473897, -1.0335017, 0.58223057, 0
1536, 1970834537, -0.8455503, -0.22074838, -0.04542707, 0.48405963, -3.52616, -8.35856, -2.3961878, 0
1537, 1970851204, -0.8565662, -0.22044602, -0.03406507, 0.46540344, -4.1930256, -14.574076, -1.0225887, 0
1539, 1970884538, -0.8750991, -0.21638545, -0.01720389, 0.43260294, -0.6590184, -28.98381, -11.98814, 0
1540, 1970901205, -0.87772894, -0.22089729, -0.015801027, 0.42498147, -2.1873517, -36.32535, -13.073986, 0
1541, 1970917872, -0.87270916, -0.22913976, -0.026588548, 0.43038264, -1.8240343, -41.979237, -18.287369, 0
1543, 1970951206, -0.83920705, -0.25700092, -0.08840668, 0.4710929, -5.8922863, -39.781013, -13.362946, 0
1544, 1970967873, -0.81759036, -0.23648337, -0.13531794, 0.50731957, -29.98114, -93.803986, 30.673794, 1024
1545, 1970984540, -0.80127573, -0.24110068, -0.15532647, 0.52513206, 19.22505, 18.416437, 5.025815, 1024
1547, 1971017874, -0.7681116, -0.2746309, -0.24544486, 0.5238338, 2.6405184, 5.4073277, -0.7566929, 0
1548, 1971034541, -0.745414, -0.3011743, -0.30103415, 0.51292586, 1.8541405, 3.9798024, 7.0142174, 0
1551, 1971084542, -0.61233306, -0.37465566, -0.51100665, 0.47288072, 4.9208574, 19.814983, 16.23918, 0
1552, 1971101209, -0.53487194, -0.41285253, -0.57753223, 0.4582399, -0.3400687, 26.308342, 16.505825, 0
1554, 1971134543, -0.38346422, -0.46086296, -0.7084392, 0.3724742, -42.047127, 93.28365, 47.128242, 0
1555, 1971151210, -0.39610994, -0.47026694, -0.71311545, 0.3368601, -3.7904086, 26.973812, 10.547792, 0
1556, 1971167877, -0.3536324, -0.50116676, -0.70549333, 0.35513085, 5.0846953, -5.620299, 2.8285217, 0
1558, 1971201211, -0.23473135, -0.5427654, -0.70492506, 0.39172727, 11.480027, 43.47699, -12.650726, 0
1559, 1971217878, -0.19801664, -0.5513749, -0.6995771, 0.40918177, 19.000286, 26.64411, -16.922068, 0
1560, 1971234545, -0.16278271, -0.55519915, -0.68857807, 0.43723977, 17.275011, 18.802057, -22.609335, 0
1562, 1971267879, -0.1342957, -0.5371029, -0.6726533, 0.49100444, 11.88735, 13.486886, -23.726202, 0
1563, 1971284546, -0.14096706, -0.5200785, -0.66910017, 0.51187336, 8.606029, 9.265267, -21.517, 0
1566, 1971334547, -0.21881504, -0.4652164, -0.6595572, 0.548398, 5.156692, 5.018754, -16.78537, 0
1567, 1971351214, -0.25415763, -0.451571, -0.65027, 0.55560696, 5.7167006, 5.1084604, -14.570664, 0
1568, 1971367881, -0.29321772, -0.4407431, -0.6345979, 0.5631313, 6.578675, 7.215728, -12.709383, 0
1570, 1971401215, -0.37946057, -0.42101657, -0.5834013, 0.5817733, 8.283433, 7.4004455, -5.451164, 0
1571, 1971417882, -0.42154086, -0.40544826, -0.55143327, 0.5948941, 7.797112, 2.400243, -3.2564516, 0
1572, 1971434549, -0.45549488, -0.3869238, -0.51983, 0.6104538, 7.036312, 2.6339555, -0.35036182, 0
1574, 1971467883, -0.5167944, -0.33493716, -0.45179826, 0.6455087, 1.0292575, 6.2835793, 5.893964, 0
1575, 1971484550, -0.5438621, -0.30792353, -0.41402397, 0.6618489, -4.907018, 7.1055655, 7.8195095, 0
1577, 1971517884, -0.6041459, -0.2735557, -0.33613712, 0.668767, -10.209103, 2.3565302, 4.6598997, 0
1578, 1971534551, -0.634357, -0.27227858, -0.2997316, 0.6585431, -7.9104247, -1.7473984, 7.463602, 0
1579, 1971551218, -0.6627142, -0.2755333, -0.2649532, 0.64401364, -5.9773383, -2.0041702, 15.049765, 0
1581, 1971584552, -0.7195499, -0.26538184, -0.19676657, 0.6108729, -2.5487769, -4.304977, 13.2815, 0
1582, 1971601219, -0.744896, -0.2554151, -0.16182576, 0.59478414, -1.4144017, -5.65079, 11.980673, 0
1583, 1971617886, -0.76719856, -0.2433976, -0.12719646, 0.5796959, -1.8098886, -6.0029655, 8.997038, 0
1585, 1971651220, -0.8038033, -0.21870513, -0.064672805, 0.5494984, -0.7951784, -6.8701935, 5.5522375, 0
1586, 1971667887, -0.8183514, -0.20632517, -0.040287264, 0.53494906, -1.0251422, -7.224113, 4.4294643, 0
1587, 1971684554, -0.8304668, -0.19209354, -0.022912525, 0.52245826, -1.9375379, -8.30654, 4.5455103, 0
1589, 1971717888, -0.84591246, -0.16864206, 0.010543644, 0.5059084, 0.46167874, -11.533253, -0.008710861, 0
1590, 1971734555, -0.84902185, -0.16411279, 0.026123274, 0.50160635, 0.47786802, -10.261886, -3.7986236, 0
1593, 1971784556, -0.849471, -0.17125773, 0.039787333, 0.49754342, -2.935198, -9.802542, -4.3844995, 0
1594, 1971801223, -0.8494235, -0.1770663, 0.036555264, 0.49583623, -4.4633803, -10.846758, -2.0770216, 0
1595, 1971817890, -0.85115427, -0.17880858, 0.03281049, 0.4924935, -4.507703, -10.905754, -0.30527878, 0
1597, 1971851224, -0.86082137, -0.17488915, 0.029683892, 0.47705525, -2.0442185, -8.219868, -4.1996455, 0
1598, 1971867891, -0.8665434, -0.17325562, 0.024862126, 0.46747118, -0.84389526, -6.452043, -6.0650015, 0
1599, 1971884558, -0.87163293, -0.17314923, 0.01661887, 0.4583249, -0.47475308, -5.9102616, -5.0928984, 0
1601, 1971917892, -0.8804908, -0.17612363, 0.002266582, 0.44019744, -0.27387244, -7.807728, 1.0672684, 0
1602, 1971934559, -0.88547426, -0.17618373, 0.0034336671, 0.43005282, -0.7560336, -7.5163617, 1.612916, 0
1604, 1971967893, -0.8941575, -0.17042801, 0.011493035, 0.41396508, 1.428883, -9.184801, -5.255607, 0
1605, 1971984560, -0.8955271, -0.16968311, 0.016012281, 0.41115072, 0.98363984, -12.357267, -6.7500324, 0
1608, 1972034561, -0.89019203, -0.18847746, 0.039017696, 0.41300672, -4.5089374, -22.519148, -9.062077, 0
1609, 1972051228, -0.8855909, -0.19716758, 0.03851053, 0.41884738, -2.390324, -25.206654, -14.810263, 0
1610, 1972067895, -0.875641, -0.21309225, 0.03094814, 0.43237644, -2.8011177, -30.65679, -13.572665, 0
1612, 1972101229, -0.8423281, -0.25748488, -0.022675693, 0.4730045, -7.3644705, -32.33307, -7.4420767, 0
1613, 1972117896, -0.8198424, -0.28709555, -0.06418984, 0.49130106, -4.4134803, -29.487001, -10.460694, 0
1614, 1972134563, -0.8045323, -0.25580835, -0.118671454, 0.52275205, 0.6836886, -65.33154, 74.484024, 0
1616, 1972167897, -0.7795608, -0.25770432, -0.1630194, 0.5471386, 8.344765, -2.2671895, 6.7687454, 0
1617, 1972184564, -0.7615439, -0.29023868, -0.21257757, 0.53915274, 1.5021304, 9.346023, -0.3583641, 0
1618, 1972201231, -0.7359848, -0.32696524, -0.27268904, 0.5264253, 3.7592947, 2.506387, 4.706647, 0
1620, 1972234565, -0.6620593, -0.38328713, -0.41926908, 0.48892182, 4.4512625, 11.997858, 11.076662, 0
1622, 1972267899, -0.5353005, -0.4413678, -0.57529557, 0.43329585, -5.2786927, 25.376564, 19.650518, 0
1624, 1972301233, -0.40530133, -0.47533268, -0.69011045, 0.3655132, -26.601688, 90.95755, 24.740677, 0
1625, 1972317900, -0.4066513, -0.4899548, -0.6840298, 0.35601252, -5.1856503, 12.433004, 5.002447, 0
1626, 1972334567, -0.35857683, -0.515877, -0.67971647, 0.37860507, -1.5435693, -2.6041415, 2.2464418, 0
1628, 1972367901, -0.26563367, -0.5465886, -0.6905701, 0.39224344, 8.469947, 34.354042, -7.4717016, 0
1629, 1972384568, -0.23528925, -0.5533775, -0.6928326, 0.3980678, 14.073928, 22.486853, -11.550719, 0
1631, 1972417902, -0.16967861, -0.5598943, -0.6817104, 0.439387, 10.938064, 18.512753, -18.852726, 0
1632, 1972434569, -0.152026, -0.5546503, -0.675588, 0.461405, 9.705304, 18.962769, -21.02791, 0
1633, 1972451236, -0.14953965, -0.5451951, -0.67050713, 0.48050293, 9.755747, 16.642994, -20.240961, 0
1635, 1972484570, -0.18508326, -0.5155148, -0.6600379, 0.5141996, 7.999536, 11.860598, -16.80048, 0
1637, 1972517904, -0.2444839, -0.47717798, -0.64956915, 0.53912085, 4.437627, 5.7839885, -14.63939, 0
1639, 1972551238, -0.3074389, -0.43726715, -0.63251585, 0.5605935, 4.957717, 7.615145, -12.743304, 0
1640, 1972567905, -0.34327304, -0.41917652, -0.61637986, 0.5714833, 4.522706, 10.802952, -11.478352, 0
1641, 1972584572, -0.38486496, -0.40067995, -0.5943139, 0.5815397, 4.2383766, 10.681743, -8.837736, 0
1643, 1972617906, -0.46346742, -0.36860466, -0.53608555, 0.6016672, 3.7175248, 3.2339978, -4.826208, 0
1644, 1972634573, -0.49614364, -0.35364527, -0.50505173, 0.6113607, 4.087099, 9.8818865, 0.6622791, 0
1645, 1972651240, -0.5288476, -0.33324265, -0.4716618, 0.6219865, 4.9530487, 10.513703, 5.483943, 0
1647, 1972684574, -0.5824607, -0.28703594, -0.3912735, 0.6521639, -3.445125, 7.8511457, 11.578381, 0
1648, 1972701241, -0.60854787, -0.26496804, -0.3480751, 0.6620934, -8.712474, 7.0984235, 9.661192, 0
1649, 1972717908, -0.6354897, -0.25099057, -0.30625495, 0.66289294, -10.5976715, 4.8580713, 8.883377, 0
1651, 1972751242, -0.6964711, -0.23794852, -0.22029322, 0.6401891, -6.4602847, -0.83490294, 14.945459, 0
1652, 1972767909, -0.7265296, -0.23203829, -0.17821212, 0.6217845, -6.577009, -3.9932153, 13.171976, 0
1653, 1972784576, -0.7546846, -0.22274885, -0.1399131, 0.6010997, -6.19422, -5.721539, 13.315531, 0
1655, 1972817910, -0.8045284, -0.2005495, -0.0718744, 0.55444604, -4.6781325, -7.313139, 9.543354, 0
1656, 1972834577, -0.8263337, -0.18967505, -0.044547834, 0.52846396, -2.8290272, -9.2963085, 5.8040504, 0
1658, 1972867911, -0.86002934, -0.16878982, -0.009106237, 0.4814971, 1.0815374, -11.888967, 3.8152742, 0
1659, 1972884578, -0.86995465, -0.15959698, 3.1773746E-4, 0.46665847, 2.554731, -12.691586, 0.4405527, 0
1660, 1972901245, -0.8749002, -0.15750727, 0.006756883, 0.4579934, 2.0825818, -12.892359, -1.1443911, 0
1662, 1972934579, -0.87787825, -0.16947155, 0.020003926, 0.4475174, 0.33171022, -13.149249, -1.524621, 0
1664, 1972967913, -0.88133526, -0.18038936, 0.030233465, 0.4357249, -2.137346, -14.358431, -0.78355217, 0
