sep=,
DeviceTag:,Xsens_DOT_5,,,,,,,,,,,,,,,,,
FirmwareVersion:,3.0.0,,,,,,,,,,,,,,,,,
AppVersion:,2023.6.1,,,,,,,,,,,,,,,,,
SyncStatus:,Synced,,,,,,,,,,,,,,,,,
OutputRate:,60Hz,,,,,,,,,,,,,,,,,
FilterProfile:,General,,,,,,,,,,,,,,,,,
Measurement Mode:,Sensor fusion Mode - Extended (Quaternion),,,,,,,,,,,,,,,,,
StartTime:,2025-05-05 11:39:12.238 +0200,,,,,,,,,,,,,,,,,
 2025,,,,,,,,,,,,,,,,,,,

PacketCounter,SampleTimeFine,Quat_W,Quat_X,Quat_Y,Quat_Z,FreeAcc_X,FreeAcc_Y,FreeAcc_Z,Status
1, 1945250692, -0.2872527, 0.370882, 0.11005516, -0.87625337, 0.0487926, 0.014578185, -0.10780716, 0
2, 1945267359, -0.28736323, 0.3708663, 0.11011361, -0.8762164, 0.011022737, -0.0380238, -0.11782932, 0
3, 1945284026, -0.28758794, 0.37085342, 0.11027919, -0.8761274, 0.019213174, -0.01402879, -0.12633324, 0
4, 1945300693, -0.28783584, 0.3708823, 0.1104772, -0.87600875, 0.05820825, 0.09407638, -0.12783432, 0
5, 1945317360, -0.2880078, 0.37090108, 0.11061893, -0.8759265, 0.090139195, 0.1096302, -0.13462925, 0
6, 1945334027, -0.28810173, 0.37090087, 0.110736236, -0.87588084, 0.050418824, 0.07673982, -0.11746502, 0
7, 1945350694, -0.288173, 0.3709236, 0.11083464, -0.87583536, 0.031782843, 0.06483753, -0.09761715, 0
8, 1945367361, -0.28821442, 0.37098625, 0.11089477, -0.87578744, 0.03189192, 0.12247795, -0.11419201, 0
9, 1945384028, -0.28820628, 0.37112474, 0.11092684, -0.8757274, 0.04110512, 0.09259494, -0.120741844, 0
10, 1945400695, -0.28820315, 0.3713062, 0.11087668, -0.8756579, 0.013357833, 0.09117038, -0.1226244, 0
11, 1945417362, -0.28822732, 0.37149724, 0.11081456, -0.8755768, 0.052337628, -0.012974927, -0.1154089, 0
12, 1945434029, -0.28836462, 0.37163818, 0.11081315, -0.8754719, 0.04189446, 0.035391152, -0.13848305, 0
13, 1945450696, -0.28849667, 0.37177646, 0.11077516, -0.8753745, 0.08658501, 0.105289355, -0.12731457, 0
14, 1945467363, -0.28853995, 0.3718953, 0.11072653, -0.87531596, 0.04784007, 0.07101655, -0.10874939, 0
15, 1945484030, -0.28859895, 0.371976, 0.11068422, -0.8752676, 0.028959569, 0.030730015, -0.1138916, 0
16, 1945500697, -0.28868803, 0.3720985, 0.11070833, -0.87518305, -0.010485803, 0.0066766674, -0.10360432, 0
17, 1945517364, -0.28879723, 0.37227088, 0.11080518, -0.87506145, 0.010668441, 0.009271205, -0.10588455, 0
18, 1945534031, -0.28900534, 0.3724728, 0.110865936, -0.8748992, 0.06122182, 0.08957192, -0.12366009, 0
19, 1945550698, -0.28918868, 0.37268174, 0.11090646, -0.87474436, 0.048901588, 0.048167937, -0.09440136, 0
20, 1945567365, -0.28935105, 0.37290117, 0.11093287, -0.87459385, 0.051535662, 0.10811634, -0.13714314, 0
21, 1945584032, -0.28940576, 0.37313068, 0.11096578, -0.8744737, 0.068702154, 0.09837934, -0.105241776, 0
22, 1945600699, -0.28937986, 0.3733143, 0.11100957, -0.8743983, 0.10489762, 0.060932312, -0.10167694, 0
23, 1945617366, -0.28935498, 0.37335658, 0.11111799, -0.87437475, 0.07876063, -0.039465684, -0.12427235, 0
24, 1945634033, -0.28951806, 0.3732501, 0.11127613, -0.87434614, 0.07262028, 0.0010909667, -0.10802364, 0
25, 1945650700, -0.28968212, 0.37308413, 0.11139307, -0.8743477, 0.08081692, 0.1252609, -0.1247673, 0
26, 1945667367, -0.28978997, 0.37285116, 0.111449786, -0.87440413, 0.08251559, 0.08238676, -0.13018131, 0
27, 1945684034, -0.28980038, 0.3724988, 0.1115249, -0.8745413, 0.089811616, 0.06634837, -0.13897324, 0
28, 1945700701, -0.28979525, 0.3720835, 0.111591965, -0.87471116, 0.082355805, 0.07047341, -0.15665054, 0
29, 1945717368, -0.28980288, 0.37161243, 0.11163995, -0.8749027, 0.079308204, 0.06931159, -0.13444233, 0
30, 1945734035, -0.2898742, 0.37115178, 0.11166891, -0.87507105, -0.005542674, 0.039836828, -0.1010828, 0
31, 1945750702, -0.2899146, 0.37082288, 0.1117399, -0.87518793, -0.02907476, 0.049131278, -0.080830574, 0
32, 1945767369, -0.2899692, 0.37062177, 0.11183711, -0.8752425, -0.010645727, 0.068082385, -0.090182304, 0
33, 1945784036, -0.29003966, 0.37053782, 0.11194079, -0.87524146, 0.005007696, 0.049508903, -0.08679485, 0
34, 1945800703, -0.29021785, 0.37059483, 0.112043545, -0.8751451, -0.032452937, 0.0202182, -0.07549381, 0
35, 1945817370, -0.2904126, 0.37076846, 0.112171516, -0.8749906, 0.033673402, 0.1013268, -0.0999403, 0
36, 1945834037, -0.2905653, 0.3709681, 0.11228561, -0.87484074, 0.030505523, 0.067833945, -0.12791252, 0
37, 1945850704, -0.2907456, 0.3711437, 0.11240893, -0.8746904, 0.057830792, 2.9280197E-4, -0.14588928, 0
38, 1945867371, -0.29096913, 0.37128544, 0.11250296, -0.8745439, 0.07151657, 0.119618095, -0.14974594, 0
39, 1945884038, -0.29110053, 0.37142557, 0.11255492, -0.8744338, 0.064421795, 0.13703534, -0.16002655, 0
40, 1945900705, -0.2911622, 0.37154755, 0.11256228, -0.87436056, 0.07000647, 0.1151798, -0.11841297, 0
42, 1945934039, -0.2911916, 0.3716981, 0.112492695, -0.87429583, 0.05875108, 0.054367516, -0.122101784, 0
43, 1945950706, -0.29115748, 0.37171322, 0.11246726, -0.8743039, 0.036724295, 0.09955077, -0.13304329, 0
44, 1945967373, -0.29104263, 0.37173027, 0.11238764, -0.8743451, 0.04584614, 0.12621039, -0.14414978, 0
46, 1946000707, -0.29074252, 0.37174696, 0.1122152, -0.87446016, 0.02732052, 0.019669028, -0.08806324, 0
48, 1946034041, -0.29045406, 0.3719402, 0.11210153, -0.8744885, 0.018973429, 0.08669531, -0.11259079, 0
51, 1946084042, -0.2899556, 0.37250048, 0.11199052, -0.8744295, 0.016279874, 0.03421, -0.10543537, 0
52, 1946100709, -0.28986448, 0.37273696, 0.112009875, -0.87435657, 0.034748554, 0.10132736, -0.12373257, 0
54, 1946134043, -0.28964642, 0.373156, 0.11200758, -0.8742503, 0.076841995, 0.060013674, -0.13174152, 0
55, 1946150710, -0.28952178, 0.37328014, 0.11202082, -0.8742369, 0.03822622, 0.066176824, -0.101099014, 0
56, 1946167377, -0.28942323, 0.37335935, 0.112020075, -0.87423587, 0.044407945, 0.08048768, -0.11535835, 0
58, 1946200711, -0.28905728, 0.37351584, 0.11199922, -0.87429255, 0.033670887, 0.0689229, -0.12723541, 0
59, 1946217378, -0.28886595, 0.3736703, 0.11194874, -0.87429637, 0.005120989, 0.10758819, -0.13092327, 0
61, 1946250712, -0.2885559, 0.37425795, 0.11177927, -0.87416923, 0.009765225, 0.0048545897, -0.10818863, 0
62, 1946267379, -0.28851372, 0.37456727, 0.11168094, -0.8740631, 0.04565255, 0.05626212, -0.13623619, 0
66, 1946334047, -0.287679, 0.37528375, 0.11097236, -0.8741212, 0.029703, 0.057635162, -0.09083176, 0
67, 1946350714, -0.28734946, 0.37533817, 0.110737495, -0.87423605, 0.05350199, 0.086042315, -0.09928036, 0
69, 1946384048, -0.28655082, 0.37518382, 0.10998653, -0.87465894, 0.06774027, 0.06497298, -0.13158321, 0
70, 1946400715, -0.28614038, 0.37502337, 0.10968204, -0.87490034, 0.06158539, 0.010735663, -0.094244, 0
71, 1946417382, -0.28570485, 0.374793, 0.109408885, -0.8751758, 0.053438175, 0.04233894, -0.10846329, 0
73, 1946450716, -0.28510204, 0.37422457, 0.10890815, -0.8756778, 0.0014459612, 0.023512222, -0.112626076, 0
74, 1946467383, -0.28495592, 0.37392607, 0.108657084, -0.8758841, 0.033518255, 0.09528782, -0.099879265, 0
75, 1946484050, -0.28469622, 0.37352735, 0.108313754, -0.876181, 0.11141017, 0.15653908, -0.12773705, 0
77, 1946517384, -0.28375247, 0.37222436, 0.10732635, -0.87716275, 0.0964224, 0.071651995, -0.12888622, 0
78, 1946534051, -0.28323838, 0.3715072, 0.106911644, -0.8776833, 0.008957058, -0.04157285, -0.09752083, 0
81, 1946584052, -0.28273138, 0.37022322, 0.106273554, -0.87846655, -0.15855098, -0.06243622, -0.09796047, 0
82, 1946600719, -0.28291044, 0.3703852, 0.1062756, -0.8783404, -0.08004985, 0.023803348, -0.0715332, 0
83, 1946617386, -0.2831566, 0.3707198, 0.10630688, -0.8781159, -0.017983153, 0.027891846, -0.080233574, 0
85, 1946650720, -0.28340143, 0.37118146, 0.10630577, -0.8778421, 0.14905056, 0.15646152, -0.14248562, 0
86, 1946667387, -0.28340217, 0.3711778, 0.10624203, -0.8778512, 0.09665915, 0.12802453, -0.13210106, 0
87, 1946684054, -0.2832271, 0.37106115, 0.106186554, -0.87796366, 0.08010341, 0.1168918, -0.13425541, 0
89, 1946717388, -0.28296518, 0.37071502, 0.10616433, -0.8781971, -0.027140312, 0.027883576, -0.08542442, 0
90, 1946734055, -0.28297678, 0.37068206, 0.10618427, -0.8782048, -0.052647304, 0.021831516, -0.09835148, 0
92, 1946767389, -0.283179, 0.37108323, 0.10665295, -0.8779133, -0.008078373, 0.037974402, -0.09729004, 0
96, 1946834057, -0.28342944, 0.37239373, 0.10730262, -0.8771981, 0.07051283, 0.09912889, -0.13432026, 0
97, 1946850724, -0.2833327, 0.37257054, 0.10728518, -0.8771564, 0.088714585, 0.13152921, -0.14197636, 0
98, 1946867391, -0.28318164, 0.3726533, 0.10714886, -0.87718666, 0.09610993, 0.13750237, -0.14091682, 0
100, 1946900725, -0.28251097, 0.37226942, 0.10648164, -0.8776472, 0.07672093, 0.055259667, -0.10870075, 0
101, 1946917392, -0.28221345, 0.37184945, 0.106090866, -0.8779681, 0.08486527, 0.07130052, -0.120752335, 0
102, 1946934059, -0.28193268, 0.37137312, 0.10576342, -0.8782995, 0.015998555, 0.07066083, -0.109755516, 0
104, 1946967393, -0.28132084, 0.3707165, 0.10534102, -0.8788235, -0.0669692, -0.014838913, -0.06812096, 0
105, 1946984060, -0.2812519, 0.37071997, 0.10521604, -0.87885904, -0.08812666, -0.01438373, -0.06775379, 0
106, 1947000727, -0.28125027, 0.37104407, 0.10513556, -0.8787325, -0.09877853, 0.021748705, -0.08129692, 0
108, 1947034061, -0.28165993, 0.37279624, 0.10527973, -0.877842, -0.0123560475, 0.09151716, -0.103975296, 0
112, 1947100729, -0.28232837, 0.37491396, 0.10530165, -0.87672204, 0.22810662, 0.20505872, -0.15491962, 0
113, 1947117396, -0.28205395, 0.37457252, 0.105069056, -0.8769841, 0.15072423, 0.21717122, -0.1546011, 0
115, 1947150730, -0.28107917, 0.37349483, 0.10427168, -0.87785155, -0.031225793, 0.060372077, -0.09607601, 0
116, 1947167397, -0.2806455, 0.37296546, 0.103859685, -0.878264, -0.028879717, 0.01627398, -0.09007645, 0
117, 1947184064, -0.2803097, 0.37252253, 0.10339342, -0.87861437, -0.023440028, 0.07765656, -0.10675621, 0
119, 1947217398, -0.2795273, 0.37203625, 0.102499895, -0.87917405, -0.0039909356, 0.036696244, -0.101703644, 0
120, 1947234065, -0.2791274, 0.37204444, 0.102200024, -0.8793326, -0.042124733, 0.00995482, -0.107393265, 0
121, 1947250732, -0.27884576, 0.37221205, 0.102050394, -0.87936836, -0.035084046, -0.08542363, -0.10607338, 0
123, 1947284066, -0.27872595, 0.37267184, 0.10209343, -0.8792066, 0.049161367, -0.030038912, -0.13373756, 0
125, 1947317400, -0.27887335, 0.37289983, 0.10236934, -0.8790311, 0.103219174, 0.14814305, -0.1360178, 0
128, 1947367401, -0.27847233, 0.3731231, 0.102361284, -0.87906444, -0.02079844, 0.08667922, -0.080477715, 0
129, 1947384068, -0.27820486, 0.37339386, 0.10229847, -0.87904155, -0.03152966, 0.02043333, -0.08621979, 0
131, 1947417402, -0.27785897, 0.37410396, 0.102140605, -0.8788673, 0.061319243, 0.10762965, -0.14006042, 0
132, 1947434069, -0.277633, 0.3743708, 0.10204859, -0.8788358, 0.08934931, 0.047473818, -0.12849617, 0
133, 1947450736, -0.27743667, 0.3745136, 0.10198965, -0.8788438, 0.05825977, 0.058128007, -0.14079857, 0
135, 1947484070, -0.27707857, 0.3747412, 0.10173291, -0.8788895, 0.017951975, 0.07891405, -0.10323048, 0
136, 1947500737, -0.27689892, 0.37484664, 0.10151442, -0.8789264, 0.03206408, 0.09923986, -0.11116028, 0
137, 1947517404, -0.2767237, 0.374872, 0.10118803, -0.8790085, 0.043468185, 0.077066034, -0.10435581, 0
140, 1947567405, -0.27634615, 0.37491834, 0.10034505, -0.8792039, -0.098064244, 0.009308532, -0.0925951, 0
142, 1947600739, -0.2762514, 0.37581047, 0.100152485, -0.8788747, -0.047883768, -0.053266603, -0.095973015, 0
144, 1947634073, -0.27650166, 0.37705335, 0.100412674, -0.87823385, 0.08082997, 0.08873408, -0.10542202, 0
146, 1947667407, -0.2767046, 0.3779621, 0.10058844, -0.8777589, 0.1049635, 0.17524455, -0.12616253, 0
147, 1947684074, -0.27659994, 0.37818778, 0.10051906, -0.8777027, 0.11022312, 0.14934532, -0.13019657, 0
148, 1947700741, -0.27626282, 0.37824443, 0.100471996, -0.8777899, 0.09167331, 0.050193522, -0.13872433, 0
150, 1947734075, -0.27597564, 0.3780395, 0.100351065, -0.8779823, 0.046133548, 0.04014181, -0.116007805, 0
151, 1947750742, -0.27589747, 0.3779111, 0.100344375, -0.8780629, -0.01259272, 0.07071749, -0.108903885, 0
152, 1947767409, -0.27577895, 0.37783286, 0.10034389, -0.8781339, 0.007083349, 0.089460164, -0.11676216, 0
155, 1947817410, -0.27521983, 0.37781504, 0.10000832, -0.8783554, 0.041629203, 0.0865954, -0.08977699, 0
156, 1947834077, -0.2749657, 0.37782064, 0.09977362, -0.87845916, 0.00694438, 0.10696268, -0.12109375, 0
158, 1947867411, -0.2742718, 0.37815014, 0.099543996, -0.8785604, -0.014308098, 0.023914881, -0.10450268, 0
159, 1947884078, -0.2739613, 0.37842327, 0.09948418, -0.8785464, 0.028881365, 0.036966026, -0.11674404, 0
160, 1947900745, -0.27372745, 0.37865177, 0.09928805, -0.878543, 0.050849784, 0.075562805, -0.1322298, 0
162, 1947934079, -0.27311847, 0.37885237, 0.0988698, -0.8786933, 0.09209675, 0.08414112, -0.11941433, 0
163, 1947950746, -0.27273273, 0.37880716, 0.09872568, -0.8788487, 0.050555196, 0.05004388, -0.068341255, 0
164, 1947967413, -0.27243218, 0.37873796, 0.09858491, -0.87898755, 0.014774849, 0.025829827, -0.12628269, 0
166, 1948000747, -0.27196875, 0.37878355, 0.09841787, -0.8791301, 0.027541015, 0.067146644, -0.10551739, 0
167, 1948017414, -0.27174518, 0.37882492, 0.098259024, -0.8791991, 0.031208863, 0.086951345, -0.11081505, 0
170, 1948067415, -0.2711374, 0.37897813, 0.097726926, -0.8793801, 0.12276209, 0.18207914, -0.10453701, 0
171, 1948084082, -0.2708057, 0.37892273, 0.097437166, -0.87953824, 0.05712921, 0.07819176, -0.12589836, 0
174, 1948134083, -0.26985222, 0.37915725, 0.09703187, -0.87977505, -0.07649753, 0.029949283, -0.092555046, 0
175, 1948150750, -0.26955426, 0.37950525, 0.09690212, -0.8797307, -0.019036124, 0.11230755, -0.08513737, 0
177, 1948184084, -0.26871297, 0.38028544, 0.09660527, -0.87968373, 0.059127253, 0.021259211, -0.10901165, 0
178, 1948200751, -0.26834142, 0.38049874, 0.09644146, -0.8797229, 0.07649826, 0.039521784, -0.119166374, 0
179, 1948217418, -0.26804617, 0.38058266, 0.09624595, -0.8797982, 0.04921487, 0.009314455, -0.12901306, 0
181, 1948250752, -0.2675865, 0.38085422, 0.096025676, -0.8798445, 0.019198757, 0.12775688, -0.10486698, 0
182, 1948267419, -0.26727957, 0.3810374, 0.09591525, -0.8798706, -0.0136537915, 0.04846845, -0.10589695, 0
185, 1948317420, -0.2668386, 0.38136336, 0.09593619, -0.8798607, 0.07270051, 6.661804E-4, -0.10963535, 0
186, 1948334087, -0.26689875, 0.3812589, 0.09601379, -0.87987936, 0.041837394, 0.016723128, -0.09572506, 0
187, 1948350754, -0.26694497, 0.3810712, 0.096034594, -0.87994444, 0.079234004, 0.12507986, -0.10806751, 0
190, 1948400755, -0.26661384, 0.38043913, 0.096137986, -0.88030696, -4.2285857E-4, 0.06350517, -0.10184097, 0
191, 1948417422, -0.2665942, 0.38034904, 0.09622861, -0.880342, -0.042034127, -0.018899249, -0.09882355, 0
193, 1948450756, -0.2668637, 0.3804354, 0.096552834, -0.8801874, 0.03834834, 0.10503366, -0.08814144, 0
194, 1948467423, -0.26691008, 0.38047442, 0.0966328, -0.8801477, 0.060901552, 0.14098258, -0.09397507, 0
196, 1948500757, -0.2669686, 0.38049185, 0.09668284, -0.8801169, 0.039458837, 0.07609867, -0.10611248, 0
197, 1948517424, -0.26697174, 0.38055888, 0.09669742, -0.8800853, 0.0258039, 0.08816547, -0.10584736, 0
200, 1948567425, -0.26670778, 0.38082662, 0.09653683, -0.8800673, -0.0010547017, 0.0723355, -0.10871506, 0
201, 1948584092, -0.26672277, 0.38096264, 0.09641103, -0.88001776, 0.038071297, 0.09072849, -0.08478546, 0
202, 1948600759, -0.26660317, 0.38111717, 0.09631594, -0.8799974, 0.021085206, 0.08531735, -0.114951134, 0
204, 1948634093, -0.26614493, 0.3816352, 0.096156105, -0.87992907, -0.013663403, 0.038283747, -0.09905338, 0
206, 1948667427, -0.2659816, 0.38244566, 0.09600951, -0.87964255, 0.009387195, -0.0036193454, -0.12055588, 0
208, 1948700761, -0.2659485, 0.3830346, 0.09588306, -0.87941, 0.11136135, 0.101533666, -0.1271143, 0
209, 1948717428, -0.26590848, 0.38312382, 0.09584561, -0.8793874, 0.0893522, 0.047011033, -0.11714077, 0
210, 1948734095, -0.26583758, 0.38309664, 0.09581889, -0.8794237, 0.08198876, 0.07249006, -0.12553787, 0
212, 1948767429, -0.26588598, 0.38291815, 0.09581388, -0.8794872, 0.024673177, 0.006011269, -0.120554924, 0
214, 1948800763, -0.26599506, 0.38286868, 0.09588031, -0.87946856, 0.0041603865, 0.08455193, -0.091246605, 0
216, 1948834097, -0.2660216, 0.38321534, 0.096028365, -0.8792934, -0.014900953, 0.011283269, -0.09597683, 0
217, 1948850764, -0.2661042, 0.38342708, 0.09613353, -0.8791646, 0.014199555, 0.03128645, -0.11473274, 0
218, 1948867431, -0.2662253, 0.3835883, 0.096156806, -0.8790551, 0.0827595, 0.10455355, -0.12946129, 0
220, 1948900765, -0.2662658, 0.38370374, 0.09617193, -0.87899065, 0.06618467, 0.12515697, -0.10159588, 0
223, 1948950766, -0.26592028, 0.3837315, 0.09569784, -0.87913495, -0.0031736046, -0.0037208202, -0.09601021, 0
224, 1948967433, -0.2658481, 0.38386628, 0.09558135, -0.87911063, -0.024789445, -0.023528762, -0.10897541, 0
225, 1948984100, -0.26583868, 0.38408017, 0.09550485, -0.8790282, 0.0048895553, 0.08900141, -0.109152794, 0
227, 1949017434, -0.26560634, 0.38459226, 0.095145926, -0.87891364, 0.054114737, 0.05935152, -0.12360382, 0
229, 1949050768, -0.2653081, 0.38507193, 0.09498547, -0.878811, 0.035309263, 0.0073543587, -0.10551834, 0
231, 1949084102, -0.2653531, 0.3853445, 0.09497238, -0.8786793, 0.036620334, 0.024882914, -0.11953735, 0
232, 1949100769, -0.265433, 0.3853736, 0.09508466, -0.8786303, 0.055919953, 0.02655468, -0.1161232, 0
233, 1949117436, -0.26553127, 0.38530988, 0.09520606, -0.87861544, 0.0798198, 0.08513765, -0.111701965, 0
235, 1949150770, -0.2656454, 0.38499093, 0.09546606, -0.8786924, 0.045705717, 0.054203123, -0.09572029, 0
236, 1949167437, -0.26571873, 0.38477033, 0.09553507, -0.8787593, 0.055384625, 0.11412493, -0.10611153, 0
237, 1949184104, -0.26573503, 0.38450086, 0.09558859, -0.8788666, 0.061840937, 0.08089168, -0.10358238, 0
239, 1949217438, -0.26571745, 0.3839198, 0.095796704, -0.8791034, 0.013098502, 0.03130869, -0.095687866, 0
240, 1949234105, -0.2657613, 0.38364086, 0.0959216, -0.87919813, 0.024678163, 0.06950739, -0.11027908, 0
241, 1949250772, -0.26583678, 0.3833846, 0.096031725, -0.8792751, 0.03536243, 0.09340417, -0.1095047, 0
244, 1949300773, -0.2656249, 0.3827306, 0.0962674, -0.8795982, -0.03133452, 0.040728085, -0.10274601, 0
245, 1949317440, -0.26560053, 0.38259026, 0.09632082, -0.8796607, -0.0036440436, 0.037215356, -0.08396053, 0
247, 1949350774, -0.26565915, 0.38245934, 0.096407324, -0.8796906, 0.02422003, 0.118452705, -0.11681652, 0
248, 1949367441, -0.26562718, 0.38243693, 0.09640515, -0.8797102, 0.04383986, 0.1139136, -0.10994911, 0
249, 1949384108, -0.26555046, 0.38243383, 0.096408844, -0.8797342, 0.02616384, 0.086803935, -0.09597969, 0
252, 1949434109, -0.2653493, 0.38239887, 0.0965524, -0.87979436, 0.0396556, -0.03111334, -0.119130135, 0
254, 1949467443, -0.26564255, 0.38261202, 0.09653501, -0.8796152, -0.06605668, 0.16705124, -0.07319355, 0
255, 1949484110, -0.26564956, 0.38291705, 0.09649971, -0.8794842, 0.07238001, 0.057444394, -0.12450886, 0
256, 1949500777, -0.2655866, 0.3830557, 0.096519165, -0.8794407, 0.11322373, 0.099168226, -0.15736389, 0
259, 1949550778, -0.26451218, 0.3829628, 0.09619302, -0.8798406, 0.04560388, 0.06588592, -0.07063198, 0
260, 1949567445, -0.26406056, 0.38290712, 0.09603411, -0.8800179, -0.01118815, 0.044868775, -0.09523296, 0
262, 1949600779, -0.2629886, 0.38334388, 0.095788196, -0.8801754, -0.10097264, -0.10197287, -0.048282623, 0
263, 1949617446, -0.26270363, 0.38383684, 0.09581771, -0.88004243, -0.07775605, -0.090438485, -0.05871296, 0
264, 1949634113, -0.2626652, 0.38443962, 0.095994405, -0.87977153, -0.030428719, -0.091830745, -0.092858315, 0
266, 1949667447, -0.2630358, 0.3856929, 0.09642411, -0.879065, 0.08598254, 0.11741001, -0.12577152, 0
268, 1949700781, -0.26320526, 0.38651186, 0.096836805, -0.8786091, 0.07272345, 0.046863962, -0.12246513, 0
270, 1949734115, -0.26350266, 0.38670033, 0.097128145, -0.8784048, 0.08158377, 0.07784442, -0.13294125, 0
271, 1949750782, -0.26369408, 0.38648632, 0.097201884, -0.8784334, 0.080647886, 0.07278364, -0.12665462, 0
274, 1949800783, -0.2639368, 0.3855425, 0.09738296, -0.8787552, 0.028785143, 0.16547436, -0.1004343, 0
275, 1949817450, -0.26385018, 0.38528708, 0.09729482, -0.8789031, 0.0036440715, 0.11769544, -0.08132458, 0
277, 1949850784, -0.26356667, 0.38505197, 0.09722326, -0.87909895, -0.035779536, -0.030887367, -0.11110878, 0
278, 1949867451, -0.2635752, 0.38508293, 0.09725982, -0.87907875, -0.040714644, 0.019831298, -0.08595657, 0
279, 1949884118, -0.26357913, 0.38512495, 0.097196385, -0.8790661, 0.07744059, 0.20005818, -0.10101986, 0
281, 1949917452, -0.2632303, 0.38520738, 0.09702081, -0.87915397, 0.02048548, 0.023562176, -0.10685158, 0
282, 1949934119, -0.26314956, 0.3853001, 0.09698131, -0.8791419, -0.04947445, -0.05420234, -0.07577801, 0
285, 1949984120, -0.26353356, 0.38577464, 0.09711124, -0.87880445, 0.072609805, 0.053560633, -0.10594082, 0
286, 1950000787, -0.2636807, 0.38576376, 0.097105846, -0.8787656, 0.10140386, 0.117641576, -0.11712551, 0
289, 1950050788, -0.2637927, 0.38531697, 0.09699456, -0.8789402, 0.02547324, 0.08011654, -0.10531521, 0
290, 1950067455, -0.26377097, 0.38520023, 0.096946344, -0.87900335, 0.007323905, 0.076762505, -0.104403496, 0
291, 1950084122, -0.26374018, 0.3851113, 0.096900225, -0.87905663, 0.03116258, 0.05581018, -0.10858345, 0
293, 1950117456, -0.26385427, 0.38503003, 0.09684171, -0.8790644, 0.02134472, 0.039119124, -0.11497307, 0
294, 1950134123, -0.26390117, 0.38499394, 0.09687169, -0.8790628, 0.018357957, 0.07550994, -0.103484154, 0
295, 1950150790, -0.26392114, 0.3848933, 0.09684688, -0.8791036, 0.055409364, 0.10166532, -0.0844326, 0
297, 1950184124, -0.26393455, 0.38444042, 0.09678895, -0.8793041, -0.004279952, 0.024186337, -0.10734177, 0
298, 1950200791, -0.2640067, 0.38421437, 0.096823744, -0.87937754, -0.0069818604, 0.053358354, -0.10980892, 0
301, 1950250792, -0.2643979, 0.38375086, 0.09708621, -0.8794334, 0.04569239, 0.106181614, -0.097390175, 0
304, 1950300793, -0.26453286, 0.38328108, 0.097375594, -0.87956566, 0.036862567, 0.07802368, -0.10811615, 0
305, 1950317460, -0.2645628, 0.38313344, 0.09744811, -0.8796129, 0.03828014, 0.10527874, -0.10286999, 0
306, 1950334127, -0.26455355, 0.38296092, 0.09749165, -0.8796861, 0.023234647, 0.05755414, -0.10963154, 0
308, 1950367461, -0.26459754, 0.38259915, 0.097628646, -0.879815, 0.0024770824, 0.040522564, -0.10404396, 0
309, 1950384128, -0.26462775, 0.38243863, 0.097709, -0.8798667, 0.01290385, 0.08022718, -0.09521866, 0
310, 1950400795, -0.2647331, 0.38233012, 0.09776732, -0.8798758, -0.01430603, 0.06148897, -0.08981323, 0
312, 1950434129, -0.26507735, 0.3822089, 0.09780987, -0.87982, 0.015801584, 0.106571086, -0.092684746, 0
313, 1950450796, -0.2651882, 0.38215372, 0.097805485, -0.879811, 0.046685822, 0.07453643, -0.10698891, 0
314, 1950467463, -0.26522538, 0.38210136, 0.09781649, -0.87982136, 0.034869894, 0.09839588, -0.12519836, 0
316, 1950500797, -0.26527274, 0.38210636, 0.09783825, -0.8798024, -0.0082872175, 0.063167, -0.07427311, 0
318, 1950534131, -0.26529583, 0.3823276, 0.09782826, -0.87970066, -0.009989297, 0.009806966, -0.09800911, 0
320, 1950567465, -0.26540226, 0.3825236, 0.09790535, -0.87957466, 0.0399314, 0.0867028, -0.12893581, 0
321, 1950584132, -0.26546955, 0.3825269, 0.097905785, -0.8795528, 0.055714794, 0.093308724, -0.10159302, 0
322, 1950600799, -0.26547346, 0.3824576, 0.09791781, -0.87958044, 0.03874287, 0.05899077, -0.11239052, 0
324, 1950634133, -0.2655796, 0.3821768, 0.09804807, -0.87965596, 0.01803392, 0.023853637, -0.10909653, 0
325, 1950650800, -0.26570028, 0.3820217, 0.09813796, -0.87967694, 0.009876311, 0.06508049, -0.09711647, 0
326, 1950667467, -0.26579082, 0.38187984, 0.0982333, -0.8797005, 0.033314213, 0.09248988, -0.10795212, 0
328, 1950700801, -0.26592994, 0.38153768, 0.09837263, -0.87979144, -0.0561987, -0.069079585, -0.13824081, 0
330, 1950734135, -0.2662648, 0.38173372, 0.0982423, -0.8796195, -0.15931833, 0.22663297, -0.07683277, 0
333, 1950784136, -0.26600194, 0.38283807, 0.097799115, -0.8792684, 0.10764778, 0.19540632, -0.15883923, 0
335, 1950817470, -0.26488775, 0.38242638, 0.09701224, -0.879871, 0.10081734, 0.16253392, -0.11332798, 0
336, 1950834137, -0.2642041, 0.38201064, 0.096339464, -0.8803309, 0.033039544, 0.16251224, -0.067521095, 0
337, 1950850804, -0.26351216, 0.38195217, 0.09572646, -0.8806307, -0.2428902, -0.11035963, -0.047496796, 0
339, 1950884138, -0.26248997, 0.38303146, 0.09517905, -0.88052636, -0.047244646, -0.026014784, -0.060504913, 0
340, 1950900805, -0.2621673, 0.38378152, 0.09505475, -0.8803094, 0.0017510005, -0.046614856, -0.10025501, 0
341, 1950917472, -0.26202413, 0.38453123, 0.09508286, -0.8800215, 0.04276796, -0.070117466, -0.13628674, 0
343, 1950950806, -0.26191726, 0.38569868, 0.09530489, -0.8795183, 0.13433726, 0.08005977, -0.14527035, 0
344, 1950967473, -0.2618199, 0.38592622, 0.09534097, -0.8794436, 0.14447312, 0.087504655, -0.10947609, 0
348, 1951034141, -0.26183394, 0.38553926, 0.09566498, -0.87957394, 0.03369923, 0.114055194, -0.091854095, 0
349, 1951050808, -0.26181006, 0.38537648, 0.09572696, -0.8796457, 0.018610612, 0.09264679, -0.09025955, 0
351, 1951084142, -0.2615999, 0.38524082, 0.09584486, -0.87975484, -0.035301078, 0.06983059, -0.100354195, 0
352, 1951100809, -0.26153368, 0.38533977, 0.09591546, -0.8797235, -0.047705207, 0.047455825, -0.10643768, 0
353, 1951117476, -0.2614596, 0.38553062, 0.09591445, -0.879662, 0.007910067, 0.13149188, -0.09496403, 0
355, 1951150810, -0.261221, 0.38596395, 0.09581394, -0.8795538, 0.04088696, 0.07606436, -0.13584805, 0
356, 1951167477, -0.2610587, 0.3861145, 0.095827945, -0.87953436, 0.035472192, -0.012211854, -0.119039536, 0
358, 1951200811, -0.2613393, 0.3863089, 0.095906004, -0.879357, 0.017513428, -0.0033345898, -0.13689995, 0
359, 1951217478, -0.26159543, 0.38631484, 0.09596465, -0.8792719, 0.06584837, 0.097944945, -0.117619514, 0
360, 1951234145, -0.26173878, 0.38621336, 0.096052304, -0.8792642, 0.059941817, 0.089712515, -0.11878872, 0
364, 1951300813, -0.26216584, 0.38561958, 0.0964146, -0.87935805, 0.001968786, 0.09786817, -0.10854149, 0
366, 1951334147, -0.26220816, 0.38561887, 0.09656726, -0.8793289, 6.504227E-5, 0.11196524, -0.112109184, 0
367, 1951350814, -0.26219347, 0.38566512, 0.09655775, -0.87931406, 0.019542003, 0.08752935, -0.08289719, 0
368, 1951367481, -0.26212165, 0.38568866, 0.09654568, -0.87932646, 0.022573244, 0.0940718, -0.08209324, 0
370, 1951400815, -0.2619501, 0.3858008, 0.09658997, -0.8793235, -0.006844777, 0.044282053, -0.110043526, 0
371, 1951417482, -0.26192838, 0.38592482, 0.09663913, -0.87927014, -7.9013227E-4, 0.039721828, -0.07463169, 0
372, 1951434149, -0.26195133, 0.38603052, 0.09669518, -0.87921065, 0.030900862, 0.037277043, -0.09968662, 0
374, 1951467483, -0.26195115, 0.3861303, 0.09671702, -0.87916464, 0.07232071, 0.120540984, -0.12724113, 0
375, 1951484150, -0.26179087, 0.3860779, 0.096672274, -0.87924033, 0.052960932, 0.1375388, -0.11607742, 0
378, 1951534151, -0.26146066, 0.38594937, 0.09639238, -0.8794257, -0.0030043493, 0.04964748, -0.10583973, 0
380, 1951567485, -0.2612794, 0.38607863, 0.09615936, -0.8794484, -0.03307117, 0.025975894, -0.091052055, 0
382, 1951600819, -0.2612912, 0.38653886, 0.09613954, -0.8792449, 0.001833393, 0.0630178, -0.09590626, 0
383, 1951617486, -0.26126742, 0.38680804, 0.096017815, -0.87914705, 0.058749374, 0.15538497, -0.109814644, 0
385, 1951650820, -0.260951, 0.38715383, 0.09568644, -0.8791247, 0.019796472, -1.08962566E-4, -0.11836815, 0
386, 1951667487, -0.2609277, 0.38726237, 0.095595896, -0.87909377, 0.009229241, 0.023735624, -0.10329342, 0
387, 1951684154, -0.260939, 0.3873376, 0.0955368, -0.87906367, 0.030189099, 0.059716962, -0.099494934, 0
389, 1951717488, -0.26094514, 0.38732547, 0.09544186, -0.8790775, 0.0077068107, 0.01934393, -0.10261822, 0
390, 1951734155, -0.261011, 0.38728902, 0.09548668, -0.87906915, 0.021624906, -0.0030411172, -0.10889435, 0
393, 1951784156, -0.26110983, 0.3862482, 0.09494599, -0.87955606, -0.0013384374, -0.013456374, -0.14577103, 0
394, 1951800823, -0.26105264, 0.38580537, 0.09489749, -0.8797727, 0.022246957, 0.014703465, -0.109537125, 0
395, 1951817490, -0.26104397, 0.38538173, 0.09486417, -0.8799645, 0.0054431832, 0.027039926, -0.09932423, 0
397, 1951850824, -0.26128212, 0.38482672, 0.09498753, -0.8801233, -0.021052476, 0.009647937, -0.06400108, 0
398, 1951867491, -0.26156753, 0.38463828, 0.09516055, -0.88010216, 0.02447182, -0.051618863, -0.090159416, 0
399, 1951884158, -0.2619946, 0.3843606, 0.09543906, -0.88006634, 0.066596106, -0.12155383, -0.11672306, 0
401, 1951917492, -0.2631048, 0.38264987, 0.09621566, -0.8803961, 0.29837564, -0.008456278, -0.16337872, 0
402, 1951934159, -0.2638353, 0.3809211, 0.09637021, -0.88091004, 0.36347502, 0.11768449, -0.20514965, 0
403, 1951950826, -0.26441997, 0.37886164, 0.096340925, -0.8816258, 0.14209431, 0.367979, -0.20343113, 0
405, 1951984160, -0.26514953, 0.3742333, 0.09604338, -0.8834142, -0.0010373795, 0.04030274, -0.038283348, 0
407, 1952017494, -0.26573414, 0.37032118, 0.09624457, -0.8848641, -0.17313257, -0.085052155, -0.08965969, 0
410, 1952067495, -0.26737535, 0.36711472, 0.097594686, -0.8855576, -0.09833986, 0.035453066, -0.10384941, 0
411, 1952084162, -0.2681573, 0.3663864, 0.097991675, -0.8855789, 0.021323191, 0.051832877, -0.09349537, 0
413, 1952117496, -0.26973295, 0.36448148, 0.09865044, -0.88581336, 0.12240251, 0.093956016, -0.10239887, 0
414, 1952134163, -0.27035418, 0.36354336, 0.0989461, -0.8859764, -0.092108265, 0.3839945, -0.23661995, 0
416, 1952167497, -0.27150136, 0.36176243, 0.09949176, -0.8862934, -0.10185016, -0.08691245, -0.14152336, 0
417, 1952184164, -0.27254844, 0.36087456, 0.09976715, -0.8863031, -0.027274476, -0.03674933, -0.1339798, 0
418, 1952200831, -0.2734085, 0.35986567, 0.10004771, -0.8864168, 0.13742927, 0.1930268, -0.132411, 0
420, 1952234165, -0.27446255, 0.35771114, 0.10044068, -0.88691854, 0.014291726, 0.25169733, -0.15377235, 0
422, 1952267499, -0.27551246, 0.35567632, 0.10115549, -0.88732994, 0.03209713, -0.12388418, -0.059980392, 0
424, 1952300833, -0.2771021, 0.35357937, 0.10294708, -0.88746685, 0.18291773, -0.23992954, -0.015999794, 0
426, 1952334167, -0.28034306, 0.34797797, 0.10574276, -0.888334, 0.5782654, -0.8116244, 0.07962704, 0
428, 1952367501, -0.28579316, 0.3346129, 0.11001738, -0.89120847, 1.3296764, -0.1821341, 0.4268551, 0
429, 1952384168, -0.2891649, 0.32444143, 0.11220299, -0.89360607, 1.5283045, -0.34538585, 0.33752537, 0
430, 1952400835, -0.2931312, 0.31238165, 0.1146767, -0.89629275, -0.2166447, -0.051995035, 0.02066803, 0
432, 1952434169, -0.30041617, 0.29214284, 0.124106675, -0.8994443, -2.0235653, 0.11346758, 0.12603378, 0
433, 1952450836, -0.30285177, 0.28792635, 0.12956822, -0.8992169, -1.7819297, 1.9352444, -0.9107189, 0
434, 1952467503, -0.3045466, 0.28650323, 0.13481194, -0.8983277, -1.1002222, -0.014267055, -0.10403824, 0
437, 1952517504, -0.30790323, 0.28242227, 0.1435393, -0.897123, 1.1931652, 1.28494, -0.5756149, 0
439, 1952550838, -0.31039363, 0.27911845, 0.14295864, -0.8973914, -1.1384643, -0.60693616, -0.07389641, 0
440, 1952567505, -0.31138745, 0.2776576, 0.14368469, -0.89738435, -0.20984744, -0.061260432, -0.17154217, 0
443, 1952617506, -0.31203014, 0.2743899, 0.14254752, -0.8983471, -0.032022953, 0.17330933, -0.2663517, 0
444, 1952634173, -0.3118541, 0.27344862, 0.14149089, -0.8988621, -0.055611756, 0.032567233, -0.33539867, 0
445, 1952650840, -0.31150204, 0.27232102, 0.14049624, -0.89948237, -0.0402881, -0.17970955, 0.17496109, 0
447, 1952684174, -0.31162193, 0.26969606, 0.1394267, -0.9003974, 0.06808515, 0.0033949383, 0.022380829, 0
448, 1952700841, -0.31176674, 0.26806372, 0.13916247, -0.90087557, -0.55743116, -0.5897455, -0.014886856, 0
449, 1952717508, -0.31166482, 0.26650488, 0.1397156, -0.9012878, -0.32197893, -0.23905493, 0.0044231415, 0
452, 1952767509, -0.31274545, 0.26313287, 0.14448793, -0.9011517, 0.3548032, 0.47691205, -0.3209324, 0
453, 1952784176, -0.31333688, 0.26198828, 0.14542033, -0.90112984, 0.38555068, 0.44532308, -0.7540264, 0
455, 1952817510, -0.31294358, 0.25996268, 0.14488715, -0.9019386, -0.26060396, 0.46637258, -0.769578, 0
456, 1952834177, -0.31278247, 0.25969437, 0.14343797, -0.9023032, 0.6504067, 1.0917971, -0.4397602, 0
459, 1952884178, -0.31275615, 0.26201648, 0.13474949, -0.90298027, -0.625705, 0.5899681, -1.7354717, 0
460, 1952900845, -0.3123141, 0.2647225, 0.13093174, -0.9029057, -0.46652925, -0.010516732, -0.7430811, 0
461, 1952917512, -0.31184605, 0.26778632, 0.1261838, -0.9028399, 0.1308565, 0.5559997, -0.75436974, 0
463, 1952950846, -0.31131378, 0.27376905, 0.112583555, -0.90302765, -0.5208881, -0.71579176, 1.5662498, 0
464, 1952967513, -0.31095278, 0.2771156, 0.106553465, -0.9028629, -0.43346906, 0.92044026, -0.63626766, 0
467, 1953017514, -0.31426096, 0.3045213, 0.08521558, -0.89512277, -2.104006, -2.5614152, 1.7317362, 0
468, 1953034181, -0.32053393, 0.32103974, 0.077587575, -0.88779014, -1.752827, 0.95427763, 0.5310354, 0
470, 1953067515, -0.31933618, 0.36472887, 0.05937816, -0.87262315, 0.22634646, 3.477283, -0.5435028, 0
471, 1953084182, -0.31176803, 0.3911614, 0.04633283, -0.8646655, 0.981396, 1.2598265, 0.8329611, 0
472, 1953100849, -0.30281988, 0.42075276, 0.031413265, -0.8545643, -0.35843903, 1.7627698, 0.11631107, 0
474, 1953134183, -0.2820216, 0.47605175, -0.011405088, -0.8328916, 1.9560376, -1.3048178, -0.23172855, 0
475, 1953150850, -0.27172524, 0.49570122, -0.03156595, -0.824287, 1.5375922, -1.0288528, -1.0000525, 0
476, 1953167517, -0.26226908, 0.50878316, -0.049328413, -0.81848717, 2.2951152, -2.955453, -0.93854237, 0
478, 1953200851, -0.251266, 0.5143602, -0.068095595, -0.81710577, 0.7666419, -2.767814, 0.6289835, 0
479, 1953217518, -0.24895598, 0.5117244, -0.06878178, -0.8194069, -0.25210467, -1.0815008, 0.88440704, 0
482, 1953267519, -0.23341493, 0.52217287, -0.07758542, -0.8165986, -2.1869826, 3.2188365, 0.2705965, 0
483, 1953284186, -0.22078988, 0.5422377, -0.0911826, -0.8055529, -3.8629198, 5.0889544, 1.296957, 0
484, 1953300853, -0.20043722, 0.5752345, -0.11436527, -0.7847614, -4.260582, 6.074783, 2.1537094, 0
486, 1953334187, -0.12807634, 0.67321265, -0.17266229, -0.70750886, -7.9081826, 11.960849, 12.848677, 0
488, 1953367521, -0.046444695, 0.74400747, -0.20756447, -0.6334134, -13.640713, 44.933548, 30.359715, 0
490, 1953400855, -0.05544162, 0.72568774, -0.23684603, -0.6435894, -2.6396065, 5.786028, -8.697291, 0
491, 1953417522, -0.040520154, 0.7184458, -0.24813, -0.64855593, 1.3448576, 7.0168858, -5.825712, 0
492, 1953434189, -0.029577112, 0.7149709, -0.25502124, -0.650312, 5.37363, 23.591793, -3.7255373, 0
494, 1953467523, -0.04444196, 0.7137494, -0.27391672, -0.64308333, 1.4615246, 15.663618, -7.8143506, 0
497, 1953517524, -0.08099027, 0.71964544, -0.26551664, -0.6364366, -3.5500135, 12.009219, -9.2763815, 0
498, 1953534191, -0.09438751, 0.71749634, -0.25369614, -0.641816, -4.552979, 9.649171, -9.947882, 0
499, 1953550858, -0.10569176, 0.7116709, -0.2379541, -0.652481, -6.4209027, 6.8696465, -9.563066, 0
501, 1953584192, -0.12129161, 0.6852947, -0.19790438, -0.6902847, -5.009303, 5.400455, -8.310191, 0
502, 1953600859, -0.13040087, 0.66521215, -0.17694859, -0.7135668, -5.7923894, 4.537788, -7.114568, 0
505, 1953650860, -0.15953335, 0.6011692, -0.09861352, -0.776801, -7.8613358, 4.8882003, -2.384778, 0
506, 1953667527, -0.1756236, 0.5777721, -0.06727104, -0.7942355, -8.225794, 2.1707776, -1.0134563, 0
507, 1953684194, -0.194854, 0.55485904, -0.03748844, -0.80793434, -5.3016176, 0.1741105, -0.43264675, 0
509, 1953717528, -0.24163626, 0.5051714, 0.010498896, -0.8284341, -3.2345815, -2.3591676, 6.244829, 0
511, 1953750862, -0.2874085, 0.4488354, 0.04845285, -0.8447457, 1.9815599, -5.025375, 7.4124985, 0
513, 1953784196, -0.32984534, 0.3967783, 0.07662809, -0.8531688, 5.204235, -8.002575, 6.565922, 0
514, 1953800863, -0.35014594, 0.3745522, 0.09130235, -0.85368145, 4.6887126, -9.574035, 6.215948, 0
515, 1953817530, -0.36808428, 0.3550843, 0.106312856, -0.8527171, 4.397981, -11.508005, 4.5980873, 0
517, 1953850864, -0.39185172, 0.3217542, 0.12577027, -0.85270625, 6.954795, -13.097132, 1.1657867, 0
518, 1953867531, -0.39839017, 0.3076517, 0.12902798, -0.8543929, 7.1876373, -14.307287, 1.655199, 0
521, 1953917532, -0.40833238, 0.2835142, 0.14131723, -0.8561038, 5.7137117, -15.25421, -1.791853, 0
522, 1953934199, -0.40975913, 0.28002083, 0.1437945, -0.8561594, 6.589832, -16.465712, -3.5228238, 0
524, 1953967533, -0.40637663, 0.27840284, 0.13773184, -0.8592901, 7.9055085, -19.349213, -6.7742653, 0
526, 1954000867, -0.3964807, 0.2961452, 0.12063912, -0.86055046, 10.458451, -22.210035, -4.8723583, 0
528, 1954034201, -0.38096872, 0.332484, 0.088054255, -0.8582327, 16.148335, -23.25609, -1.8480673, 0
529, 1954050868, -0.37213337, 0.36002776, 0.06832765, -0.85277665, 17.8799, -22.78532, -1.3187551, 0
530, 1954067535, -0.3613515, 0.39283192, 0.044722147, -0.8444571, 17.162558, -22.532259, -1.7425938, 0
532, 1954100869, -0.32830817, 0.48166233, -0.0015623011, -0.8125346, 11.797243, -13.76421, 3.1614027, 0
533, 1954117536, -0.3237534, 0.48577225, -0.012279851, -0.81182396, -35.097042, 13.638657, 12.111656, 0
534, 1954134203, -0.3303742, 0.47693288, -0.007844871, -0.8144483, -28.504637, 49.50874, 4.161688, 0
537, 1954184204, -0.34455484, 0.4746483, 9.0171397E-4, -0.809932, 1.321305, 0.15395573, 0.43196678, 0
538, 1954200871, -0.3385824, 0.47556564, 0.0013841651, -0.8119095, 0.34601718, -1.159427, 0.7897005, 0
541, 1954250872, -0.31833014, 0.51538306, -0.013626326, -0.79552513, -1.5499896, 4.8613687, 0.060264587, 0
542, 1954267539, -0.30346495, 0.5451261, -0.0365803, -0.780646, -2.7402859, 4.4554563, -0.8978386, 0
544, 1954300873, -0.25607127, 0.6338065, -0.1102853, -0.721494, -6.0403204, 6.382672, 5.3581047, 0
545, 1954317540, -0.21801597, 0.6939556, -0.1454389, -0.67062795, -8.502354, 13.69046, 14.421238, 0
547, 1954350874, -0.13143316, 0.7872382, -0.17231357, -0.57731193, -23.752945, 38.067646, 31.897907, 0
548, 1954367541, -0.12101431, 0.7954037, -0.17271924, -0.5682045, -15.242196, 27.435894, 22.17797, 0
549, 1954384208, -0.1204215, 0.7884404, -0.17971033, -0.5758162, -8.572103, 1.3309551, 4.3222256, 0
551, 1954417542, -0.06235455, 0.77581495, -0.20424637, -0.59372246, 2.0318544, 17.995619, 4.1491623, 0
552, 1954434209, -0.041770674, 0.76835436, -0.22476533, -0.5978018, 4.7976484, 18.03919, -3.0540056, 0
553, 1954450876, -0.028333707, 0.7641423, -0.24746223, -0.5950177, 4.3946595, 18.959606, -7.197339, 0
556, 1954500877, -0.017144289, 0.7689395, -0.29399395, -0.5674552, -1.4857094, 12.317556, -14.665413, 0
557, 1954517544, -0.011933086, 0.7725316, -0.29449522, -0.5624275, -2.4289336, 10.262429, -15.705917, 0
559, 1954550878, -0.0076974723, 0.7731171, -0.28764936, -0.565233, -3.095277, 7.382902, -15.39915, 0
560, 1954567545, -0.009584567, 0.7691046, -0.28281286, -0.57306427, -3.5574448, 5.1037683, -15.042677, 0
561, 1954584212, -0.012928579, 0.762679, -0.27698013, -0.5843247, -3.1152933, 4.842079, -14.389372, 0
563, 1954617546, -0.028166814, 0.74218863, -0.2642031, -0.61527145, -3.927984, 4.7136903, -13.173454, 0
564, 1954634213, -0.037197508, 0.72936654, -0.25232068, -0.63480294, -3.7390656, 4.6246243, -12.679079, 0
567, 1954684214, -0.0812006, 0.6836203, -0.20253249, -0.6964553, -3.643539, 5.902938, -9.115347, 0
568, 1954700881, -0.10014881, 0.66817594, -0.18040486, -0.7148181, -3.3680615, 8.000049, -7.0046206, 0
571, 1954750882, -0.17218855, 0.61567277, -0.10130038, -0.76225716, -4.7827573, 7.336094, 2.134428, 0
572, 1954767549, -0.194121, 0.593093, -0.07381421, -0.77788734, -4.1358113, 6.0452833, 4.533633, 0
573, 1954784216, -0.21438858, 0.56810755, -0.046999052, -0.793147, -3.1300733, 5.83375, 8.038752, 0
575, 1954817550, -0.24595097, 0.5125715, 0.006380109, -0.8226408, -1.3811325, 2.5420177, 13.281319, 0
576, 1954834217, -0.25981927, 0.47923198, 0.032999624, -0.83770007, 1.5311996, 2.1529443, 15.379118, 0
578, 1954867551, -0.2950423, 0.40768975, 0.091621995, -0.8592696, 4.39762, -2.3299193, 10.547251, 0
579, 1954884218, -0.3148618, 0.37375852, 0.12298119, -0.8637373, 4.681891, -4.8105726, 10.301847, 0
580, 1954900885, -0.3352365, 0.34113201, 0.1537214, -0.86464727, 4.876588, -8.410008, 9.154427, 0
583, 1954950886, -0.3932969, 0.25330493, 0.22294328, -0.8552486, 5.4956384, -15.786332, 4.2089634, 0
586, 1955000887, -0.43553334, 0.19556324, 0.2571875, -0.8401905, 4.3344607, -19.790266, -2.2963815, 0
587, 1955017554, -0.44034714, 0.18000875, 0.26139414, -0.8398595, 3.8789556, -19.472511, -4.853112, 0
588, 1955034221, -0.44066375, 0.1669031, 0.26453015, -0.8414169, 5.0086746, -20.06744, -5.00811, 0
590, 1955067555, -0.4343822, 0.15044117, 0.2664627, -0.8471582, 6.885304, -17.173433, -10.729867, 0
591, 1955084222, -0.43065122, 0.14938909, 0.26122373, -0.85087276, 7.1436105, -17.461025, -10.714101, 0
592, 1955100889, -0.4269978, 0.1519083, 0.25251418, -0.8548877, 6.5411086, -18.760036, -8.826807, 0
594, 1955134223, -0.4119328, 0.16493224, 0.22531706, -0.8673758, 4.7523093, -20.029009, -5.4188137, 0
595, 1955150890, -0.3998216, 0.17456765, 0.20555434, -0.87602276, 4.7761836, -19.249578, -3.3573074, 0
596, 1955167557, -0.38655925, 0.1853641, 0.1806487, -0.88519937, 6.0283713, -17.772537, -1.0787325, 0
600, 1955234225, -0.3177133, 0.2687592, 0.06539344, -0.9069455, 18.702555, -15.840403, -14.210574, 0
602, 1955267559, -0.31684917, 0.28528732, 0.08672536, -0.9003865, 18.91903, 29.33486, 0.31625557, 0
603, 1955284226, -0.31556454, 0.2888947, 0.08301008, -0.9000377, -0.29259786, 11.791308, -0.5897217, 0
605, 1955317560, -0.29187775, 0.30448216, 0.07000217, -0.90398973, -3.8414688, -2.4642017, 1.6077862, 0
606, 1955334227, -0.2852744, 0.31856504, 0.063553475, -0.90171814, 0.8871278, -0.7487838, 0.82956123, 0
607, 1955350894, -0.27795812, 0.33499765, 0.055253692, -0.8985893, 0.8166619, 0.8648072, 0.6079979, 0
609, 1955384228, -0.25717923, 0.40317234, 0.021440798, -0.8779811, -3.2102957, 5.5323396, 1.7130442, 0
610, 1955400895, -0.23941164, 0.46182865, -0.011206619, -0.85397345, -5.9431167, 7.2420545, 4.364459, 0
611, 1955417562, -0.20737647, 0.53296477, -0.053962734, -0.81855446, -7.099045, 12.919984, 5.319294, 0
613, 1955450896, -0.09886834, 0.66579366, -0.15428312, -0.72328424, -17.326845, 41.158947, 35.548615, 0
617, 1955517564, -0.08591657, 0.7646512, -0.23795259, -0.59271, -19.487514, 36.438263, 4.1587543, 0
618, 1955534231, -0.077385955, 0.7763622, -0.24884188, -0.57389075, -14.632204, 27.175554, -14.471603, 0
619, 1955550898, -0.06897961, 0.78263634, -0.25730637, -0.5625969, -15.538292, 26.899286, -22.511513, 0
621, 1955584232, -0.06011837, 0.7756711, -0.25197297, -0.5755254, -8.840743, 16.97418, -25.188358, 0
622, 1955600899, -0.065609455, 0.76353675, -0.24529861, -0.59374696, -4.4307485, 15.319625, -21.89346, 0
623, 1955617566, -0.08203158, 0.7474728, -0.23844048, -0.6145737, -1.1755952, 12.028678, -19.751602, 0
625, 1955650900, -0.1312643, 0.71607506, -0.2079806, -0.6532608, 1.2177999, 8.92136, -14.637981, 0
626, 1955667567, -0.16512993, 0.7023665, -0.18298744, -0.66777873, 0.53238565, 8.426976, -10.76186, 0
628, 1955700901, -0.23774014, 0.6703385, -0.12067787, -0.69250417, -1.261441, 4.583562, -3.0001478, 0
630, 1955734235, -0.31940877, 0.6280823, -0.06264283, -0.7068, 4.565228, 0.8537748, 2.5523643, 0
632, 1955767569, -0.41185993, 0.58076763, -0.014377829, -0.70204926, 4.0084057, -7.581243, 4.7310925, 0
633, 1955784236, -0.45413294, 0.5554383, 0.0029453877, -0.6965936, 2.8353357, -8.960429, 6.5813923, 0
634, 1955800903, -0.49188218, 0.52722454, 0.01628853, -0.69269073, 2.5731108, -10.087253, 8.219801, 0
636, 1955834237, -0.5460547, 0.4615186, 0.025666913, -0.69868857, 8.8107815, -18.37137, 1.3940077, 0
637, 1955850904, -0.56130767, 0.43595627, 0.021717295, -0.7031385, 12.364636, -19.286247, -1.3994932, 0
638, 1955867571, -0.5727233, 0.41959313, 0.016635992, -0.70402586, 11.393419, -17.60682, 3.17027, 0
640, 1955900905, -0.5825104, 0.4219453, -3.1344593E-4, -0.69472533, -4.65995, -43.999657, -15.856094, 0
641, 1955917572, -0.56852454, 0.42554212, -0.015611872, -0.7038819, -1.2910712, -45.02946, 39.392265, 0
642, 1955934239, -0.5619902, 0.42092, -0.021460215, -0.7117109, 4.657734, -17.333992, -15.527878, 0
646, 1956000907, -0.5501683, 0.39972764, -0.039586984, -0.73209655, -1.0804604, -3.804998, 0.34599495, 0
648, 1956034241, -0.53889185, 0.39179692, -0.0461672, -0.74428403, 1.5727427, -0.62830746, -2.0701318, 0
649, 1956050908, -0.5323935, 0.3923215, -0.048740678, -0.7485084, -3.0799627, -0.44118574, 0.6113281, 0
650, 1956067575, -0.5268785, 0.39294544, -0.04812067, -0.7521152, -4.893222, -1.1976604, 1.674613, 0
652, 1956100909, -0.5190109, 0.39525563, -0.04308323, -0.7566665, 2.804143, 2.664239, 1.0964184, 0
653, 1956117576, -0.512817, 0.39481622, -0.044236522, -0.76104, 1.2601962, 0.18913779, 2.4060688, 0
654, 1956134243, -0.5049956, 0.3939034, -0.04266224, -0.76681113, -3.5713396, 3.204359, -2.0347419, 0
656, 1956167577, -0.47176036, 0.39227885, -0.030693818, -0.78906095, -0.5009121, 4.978264, -0.47568798, 0
657, 1956184244, -0.44361326, 0.38983586, -0.017367061, -0.8068044, 2.1865654, 4.185687, -0.33430386, 0
660, 1956234245, -0.3645775, 0.36730224, 0.030693851, -0.85511976, -1.0560881, 2.76114, -3.735044, 0
663, 1956284246, -0.3753335, 0.320356, 0.06524446, -0.8673175, -1.2541299, 1.2407237, 0.30898857, 0
664, 1956300913, -0.38674432, 0.29618883, 0.0728648, -0.8702824, 2.8050616, 3.0325892, -4.137663, 0
665, 1956317580, -0.39254028, 0.28450352, 0.073975965, -0.8714913, 0.42230827, 10.100554, -1.408802, 0
667, 1956350914, -0.39445528, 0.28540167, 0.078509204, -0.8699351, -3.990507, -4.3066964, 4.7905607, 0
668, 1956367581, -0.39252204, 0.29127848, 0.080627695, -0.86866707, -5.0182357, -2.585812, 0.6953411, 0
669, 1956384248, -0.39060262, 0.29607013, 0.08230671, -0.8677543, -0.43737796, 4.3879213, -6.3075657, 0
671, 1956417582, -0.3928168, 0.29551598, 0.08780751, -0.8664034, -0.2857242, 5.892794, -2.1016383, 0
675, 1956484250, -0.38946357, 0.3016365, 0.09806083, -0.86470664, -2.8259041, 5.247127, -5.9427757, 0
676, 1956500917, -0.3878222, 0.30256426, 0.09662032, -0.86528206, -0.8019422, 5.5313106, -13.201306, 0
677, 1956517584, -0.3869892, 0.2980551, 0.09150201, -0.86777294, -0.66340744, 0.12816356, -5.4330626, 0
680, 1956567585, -0.3830769, 0.2833325, 0.07923201, -0.8756122, 0.489938, -5.4114857, 4.239501, 0
681, 1956584252, -0.38172716, 0.27958298, 0.07620698, -0.8776729, -0.6781374, -0.7948155, -1.8257637, 0
683, 1956617586, -0.379677, 0.27605906, 0.072355434, -0.8800008, 2.6867487, -3.2660563, 0.21872234, 0
684, 1956634253, -0.3788194, 0.27380118, 0.0700805, -0.881259, 6.121217, -4.5862927, 3.918521, 0
686, 1956667587, -0.38068777, 0.27043885, 0.06642847, -0.8817747, 4.2156615, -3.7809916, 1.417944, 0
687, 1956684254, -0.38235906, 0.27001813, 0.06461364, -0.8813153, 2.0460613, -3.5561705, -2.1059484, 0
690, 1956734255, -0.38820177, 0.2711107, 0.061434515, -0.87864906, 2.2692585, -2.2847803, 1.2697859, 0
691, 1956750922, -0.39033604, 0.2725549, 0.060834043, -0.8772973, 1.8464705, -2.3122108, 0.6870537, 0
692, 1956767589, -0.3921488, 0.2741315, 0.05936111, -0.8760978, 1.8044071, -2.222216, -0.44269753, 0
694, 1956800923, -0.39592367, 0.2751286, 0.05543853, -0.87434256, 2.3432693, 0.9459057, 0.0712347, 0
696, 1956834257, -0.4005419, 0.27680892, 0.054622836, -0.87175626, 1.7048745, -1.0935321, 0.37416363, 0
698, 1956867591, -0.4061585, 0.27756497, 0.054932058, -0.86889297, 1.679684, 1.491067, -0.7648239, 0
699, 1956884258, -0.4094772, 0.27866685, 0.0554492, -0.86694777, 1.583277, 0.15603238, 0.036046028, 0
700, 1956900925, -0.4127644, 0.280224, 0.05562359, -0.8648735, 0.83070564, 1.8688549, -3.1852808, 0
702, 1956934259, -0.41933352, 0.28155816, 0.056199044, -0.8612351, 0.07642795, 2.1169002, 0.8201742, 0
704, 1956967593, -0.42380273, 0.28499895, 0.05688663, -0.857864, -0.6067438, -1.4771267, 0.72415924, 0
706, 1957000927, -0.42694736, 0.2865694, 0.05929841, -0.8556152, -2.2790842, 0.7018956, 7.324219E-4, 0
707, 1957017594, -0.42803606, 0.2871564, 0.061106715, -0.8547469, -1.9283135, 0.035218265, -0.5572901, 0
709, 1957050928, -0.42858267, 0.28843278, 0.065425456, -0.85372293, -1.4912488, 1.9889511, 0.09467602, 0
710, 1957067595, -0.42843202, 0.28913897, 0.068421215, -0.85332483, -1.114596, 1.8547637, -1.2156887, 0
711, 1957084262, -0.42833626, 0.2888735, 0.07158673, -0.8532029, -0.8621571, 0.44138747, 0.22841072, 0
713, 1957117596, -0.42726356, 0.2882681, 0.07634444, -0.8535331, -0.05237931, -1.2124169, -0.45084095, 0
714, 1957134263, -0.4266441, 0.28834188, 0.07793791, -0.853674, -0.47652975, 0.32755655, 0.23177814, 0
715, 1957150930, -0.42565766, 0.28804344, 0.07957073, -0.8541163, -1.3249304, 0.3144035, 1.1757431, 0
717, 1957184264, -0.42243144, 0.28824148, 0.08279055, -0.8553445, -1.4289187, 1.071176, -1.5554895, 0
719, 1957217598, -0.41927674, 0.285498, 0.086047515, -0.8574926, -1.3601654, 1.5248754, -0.16064358, 0
721, 1957250932, -0.41637924, 0.28467825, 0.08959283, -0.8588128, -0.8154356, -0.33960056, 0.6175003, 0
722, 1957267599, -0.41492876, 0.28518966, 0.090992205, -0.859198, -0.25311676, 2.2831254, -1.3739023, 0
723, 1957284266, -0.41396296, 0.28568444, 0.091999225, -0.8593921, 0.10122209, 2.071008, -0.07233238, 0
726, 1957334267, -0.41298544, 0.29018375, 0.101399824, -0.8572947, -1.5955235, 1.1924798, 0.16595268, 0
727, 1957350934, -0.4125714, 0.29306406, 0.10305166, -0.8563168, 0.14118107, 0.8399715, 0.6933994, 0
729, 1957384268, -0.41145363, 0.2988849, 0.1022911, -0.8549329, -0.5841702, 1.6041831, -2.3547192, 0
730, 1957400935, -0.41133016, 0.29878676, 0.10394926, -0.8548265, -2.597203, 2.8513584, 0.5593567, 0
731, 1957417602, -0.41014358, 0.30017516, 0.10516434, -0.8547616, -3.5663009, 2.1843495, 0.14975739, 0
736, 1957500937, -0.39396048, 0.32527345, 0.09566403, -0.85430706, -2.4157789, 3.7170012, -0.3613186, 0
737, 1957517604, -0.39186692, 0.32700616, 0.09506689, -0.8546751, -3.0848873, 4.574728, 0.7912569, 0
738, 1957534271, -0.3898016, 0.33002508, 0.09540291, -0.8544215, -3.6778252, 4.2405257, -1.7425756, 0
740, 1957567605, -0.38688895, 0.33029985, 0.097760804, -0.8553721, -1.6713865, 3.324449, -2.5259447, 0
741, 1957584272, -0.38638702, 0.32720634, 0.099025026, -0.8566417, -1.3804835, 1.5141213, -2.5109434, 0
744, 1957634273, -0.3833772, 0.30938077, 0.101154305, -0.86433387, -3.0616658, -3.0691533, 0.3710661, 0
745, 1957650940, -0.3805508, 0.30548516, 0.10105729, -0.8669759, -2.6650944, -5.454217, 2.9148188, 0
746, 1957667607, -0.37804553, 0.30208978, 0.1007712, -0.8692919, -1.036748, -5.7631655, 3.0456057, 0
749, 1957717608, -0.37129793, 0.29849035, 0.10070956, -0.8734408, 4.0875535, -2.119525, -1.2800131, 0
750, 1957734275, -0.37022668, 0.29690462, 0.100501016, -0.8744594, 4.6926036, -3.4280431, 0.41822338, 0
752, 1957767609, -0.36977965, 0.2949304, 0.09877026, -0.87551326, 2.9961417, -5.828542, 0.44968414, 0
753, 1957784276, -0.37002248, 0.29624718, 0.097748645, -0.8750805, 4.2605734, -6.235201, -0.874218, 0
754, 1957800943, -0.37093672, 0.2972929, 0.09701063, -0.87442064, 3.0758054, -2.1100953, -1.4093723, 0
756, 1957834277, -0.37380588, 0.29884964, 0.09636758, -0.8727378, 0.8168842, 1.2761396, 2.4614077, 0
757, 1957850944, -0.37524527, 0.30107015, 0.09688777, -0.8712981, 1.8774052, -1.8023379, -1.4385748, 0
760, 1957900945, -0.37974748, 0.30529976, 0.0977359, -0.86777383, 1.1266944, 0.02234716, 1.2412462, 0
761, 1957917612, -0.38055113, 0.30600944, 0.09761877, -0.8671848, -0.11967409, 1.5062071, -1.3299341, 0
764, 1957967613, -0.37924123, 0.3054186, 0.097181566, -0.8680156, -0.20199369, -1.6437925, 1.8806458, 0
765, 1957984280, -0.3792699, 0.3049265, 0.09765581, -0.8681228, 0.17893277, 1.1716913, 0.36377716, 0
767, 1958017614, -0.37632948, 0.30449712, 0.09758016, -0.86956066, 0.4079099, -0.37081122, -0.7408953, 0
768, 1958034281, -0.37497118, 0.30431455, 0.097472176, -0.870223, 0.62459666, 2.6154752, -3.4679313, 0
769, 1958050948, -0.37512004, 0.3024107, 0.09695583, -0.87087995, -3.4143124, 1.152568, -2.3321934, 0
771, 1958084282, -0.37315732, 0.2970335, 0.09412811, -0.87387896, 0.717295, -3.3125021, 3.861679, 0
772, 1958100949, -0.3722424, 0.29480094, 0.09439406, -0.8749958, 1.9460195, -0.08226674, 2.8364153, 0
773, 1958117616, -0.37176973, 0.29430538, 0.09481019, -0.87531847, -0.09332308, -0.100639835, 0.5431242, 0
776, 1958167617, -0.37017038, 0.2913463, 0.095470995, -0.87691295, 2.0766537, 0.7468563, 0.3041668, 0
779, 1958217618, -0.3709516, 0.28817928, 0.09845191, -0.8772996, -0.69958776, 1.3893402, -1.19413, 0
780, 1958234285, -0.37048382, 0.2862314, 0.09750618, -0.8782401, 1.9012309, 0.9705251, 1.6395092, 0
781, 1958250952, -0.37038994, 0.28370717, 0.095900774, -0.8792751, -1.2578557, 2.7460122, -1.6510563, 0
783, 1958284286, -0.36951396, 0.27852166, 0.09142166, -0.88177496, -0.054900564, -0.19162224, -0.4253397, 0
784, 1958300953, -0.3691496, 0.27593443, 0.09019643, -0.88286656, 1.4914019, 1.6568729, -0.61122704, 0
785, 1958317620, -0.36922213, 0.2738895, 0.08923277, -0.8835706, 0.8944756, 0.1257637, -0.35681343, 0
787, 1958350954, -0.36985847, 0.2698809, 0.08741473, -0.88471884, -0.3492973, 0.9461717, 0.7005615, 0
788, 1958367621, -0.3703612, 0.2689833, 0.087415405, -0.8847819, 0.3266103, 1.526321, -0.31560135, 0
790, 1958400955, -0.372513, 0.2687372, 0.08683476, -0.8840102, 0.8079553, 1.1766403, 0.19538307, 0
791, 1958417622, -0.3739169, 0.2680515, 0.08636787, -0.8836713, 1.0914927, 1.1695501, 0.19617176, 0
794, 1958467623, -0.37789184, 0.26974618, 0.08507287, -0.881588, -0.08055206, 2.533977, -0.27499008, 0
795, 1958484290, -0.37907287, 0.27116737, 0.08506786, -0.88064474, -0.18048026, 2.9469132, -0.73372746, 0
796, 1958500957, -0.38037995, 0.27262115, 0.08626845, -0.8795149, -1.3624145, 3.1571474, -0.06471157, 0
798, 1958534291, -0.38184828, 0.27863532, 0.088875316, -0.87672997, -1.5515969, 2.0134113, 0.7958517, 0
799, 1958550958, -0.38151202, 0.2821014, 0.08831149, -0.87582433, -2.6149786, 5.2948184, -0.9843292, 0
800, 1958567625, -0.38020277, 0.2861634, 0.08676758, -0.8752301, -1.6708729, 6.5364785, -4.2419944, 0
802, 1958600959, -0.37937367, 0.29050425, 0.08663558, -0.87417215, -2.8832524, 3.940631, 0.6369419, 0
803, 1958617626, -0.3782913, 0.293595, 0.08654416, -0.8736176, -3.601141, 3.6451266, 1.6109476, 0
806, 1958667627, -0.37263948, 0.3046448, 0.08336426, -0.8725717, -2.438102, 3.413257, -0.36868, 0
808, 1958700961, -0.3689348, 0.30683437, 0.08103827, -0.8735974, -0.65604895, 0.9386335, 1.0310221, 0
810, 1958734295, -0.37291616, 0.30477986, 0.085853055, -0.872165, 1.1540478, -0.6118092, -2.8014379, 0
811, 1958750962, -0.37632763, 0.30209443, 0.08976058, -0.8712402, 3.1030967, -3.349867, 5.1898565, 0
812, 1958767629, -0.37932763, 0.30070743, 0.09457018, -0.86990917, 1.0219399, 2.0435357, 0.4670515, 0
814, 1958800963, -0.38308614, 0.302774, 0.10303654, -0.8665773, 2.1463027, -1.2344053, -1.6899986, 0
815, 1958817630, -0.38505593, 0.30193555, 0.10582608, -0.8656601, 2.7075877, -1.6963543, 1.0012321, 0
817, 1958850964, -0.38797745, 0.29925805, 0.10815821, -0.86499697, 4.508272, -5.6290817, 2.6351414, 0
818, 1958867631, -0.38946342, 0.2977204, 0.107873455, -0.86489546, 1.7707787, -6.6751213, 3.0099335, 0
819, 1958884298, -0.39060608, 0.29779223, 0.10768223, -0.86437887, 0.31619087, -4.084375, -1.6630449, 0
823, 1958950966, -0.39723787, 0.30849156, 0.121837065, -0.8556813, 1.9532874, -2.7517328, -1.82796, 0
825, 1958984300, -0.4010429, 0.31026107, 0.12530749, -0.8527604, 1.0355692, -0.33260304, -0.11363602, 0
826, 1959000967, -0.4025483, 0.31028217, 0.12688515, -0.8518097, 0.008148779, -1.3726288, 0.9931812, 0
827, 1959017634, -0.4036939, 0.31065872, 0.13031587, -0.85061157, -0.6748672, -3.056572, -1.58185, 0
829, 1959050968, -0.40364254, 0.30666825, 0.14193682, -0.85022426, -2.5352788, -0.0913436, 2.1190786, 0
830, 1959067635, -0.4026114, 0.30296794, 0.15168323, -0.8503568, -3.1699932, -2.2151256, -0.47941875, 0
831, 1959084302, -0.4001671, 0.29501748, 0.16223061, -0.8523568, -2.8410485, -2.6261165, 4.1280937, 0
833, 1959117636, -0.38996074, 0.27470353, 0.18494315, -0.85922307, -2.6366656, -3.682113, -0.4214096, 0
834, 1959134303, -0.37800437, 0.2640626, 0.19307522, -0.86608624, -5.805189, -4.086837, -0.48833752, 0
835, 1959150970, -0.3565805, 0.25197572, 0.19935578, -0.8772775, -8.733289, -4.507609, -2.4535966, 0
839, 1959217638, -0.2038793, 0.2200729, 0.21847011, -0.9285858, 12.295215, 20.15182, -6.04519, 0
841, 1959250972, -0.1905789, 0.24123093, 0.22014864, -0.9257546, 7.174659, 0.543231, 5.9211426, 0
842, 1959267639, -0.18757346, 0.25008485, 0.22165182, -0.92365795, 2.6056259, 0.77144235, -0.97561646, 0
843, 1959284306, -0.1857229, 0.25725472, 0.22656254, -0.920867, 0.35941586, 1.3452238, 0.4671564, 0
845, 1959317640, -0.18130162, 0.27074152, 0.22345187, -0.9186392, -1.929561, -3.6565216, -0.080215454, 0
846, 1959334307, -0.18022844, 0.27554572, 0.22250016, -0.9176523, -0.063657075, -1.2462647, 8.28743E-4, 0
848, 1959367641, -0.17580894, 0.28746223, 0.22649407, -0.9138692, -1.6697458, 3.093821, -3.4362803, 0
849, 1959384308, -0.17507684, 0.3006633, 0.23119423, -0.9085695, 7.7411065, -0.2443355, 1.6877737, 0
850, 1959400975, -0.17283922, 0.31546122, 0.23670122, -0.90254253, -8.47057, -6.4681916, -4.464642, 0
853, 1959450976, -0.16736653, 0.37521777, 0.27228194, -0.8700933, -0.22966179, 2.1614923, 6.1020985, 0
856, 1959500977, -0.18585797, 0.4463887, 0.26477256, -0.83431965, -4.290372, 6.5535374, 7.7719784, 0
857, 1959517644, -0.21621011, 0.46521738, 0.19782513, -0.83527905, -13.096168, 4.096029, -3.7741303, 0
858, 1959534311, -0.23030192, 0.47033596, 0.1528653, -0.83807945, -30.756506, -14.387297, 7.755371, 0
860, 1959567645, -0.2362413, 0.43134412, 0.10249829, -0.8646538, -9.298515, 7.571208, -0.58555794, 0
861, 1959584312, -0.2384105, 0.40270352, 0.08640267, -0.8795026, -3.0034444, 8.767169, -0.8396292, 0
862, 1959600979, -0.2439372, 0.37392893, 0.0772599, -0.89146084, 2.4507222, 9.141497, -1.7722406, 0
864, 1959634313, -0.27050933, 0.31572622, 0.077798255, -0.9061395, 6.0175867, 3.5333817, -4.416014, 0
865, 1959650980, -0.287808, 0.29093018, 0.084642865, -0.9084942, 7.9791737, 1.627375, -4.4937553, 0
868, 1959700981, -0.33475125, 0.22240326, 0.11632237, -0.9082661, 5.587166, -7.8438144, -1.4431705, 0
869, 1959717648, -0.34345877, 0.20150404, 0.1303345, -0.90798944, 8.914665, -8.712612, 0.4012432, 0
871, 1959750982, -0.35187402, 0.16702221, 0.15037632, -0.90866655, 13.662092, -16.570713, -10.218896, 0
872, 1959767649, -0.35214525, 0.16005751, 0.15600063, -0.9088668, 17.38093, -18.417807, -10.557841, 0
873, 1959784316, -0.35395798, 0.1613263, 0.1546992, -0.90816057, 16.89117, -20.456303, -15.418004, 0
875, 1959817650, -0.35812604, 0.19441365, 0.13206741, -0.9036077, 15.325103, -23.350657, -12.698982, 0
876, 1959834317, -0.35535643, 0.22098704, 0.10910055, -0.901656, 14.118123, -21.056568, -18.714918, 0
877, 1959850984, -0.3659055, 0.28555816, 0.08279177, -0.88188154, 60.256012, -57.839386, -59.334324, 0
879, 1959884318, -0.36625132, 0.3039034, 0.045868404, -0.8782929, -14.0472145, -1.5042914, 8.75037, 0
880, 1959900985, -0.35138917, 0.31401336, 0.039115764, -0.88113046, 0.74292386, -0.24742381, 2.456231, 0
883, 1959950986, -0.2967712, 0.45746812, -0.023035021, -0.83792555, -2.7841618, 8.742423, 1.0915108, 0
885, 1959984320, -0.20028737, 0.61524636, -0.12952463, -0.7513854, -6.846499, 18.416515, 16.862658, 0
887, 1960017654, -0.08542394, 0.72827023, -0.21411958, -0.64535093, 33.541367, 63.021305, 47.743607, 0
888, 1960034321, -0.10941021, 0.76292866, -0.23642986, -0.59166706, -11.62895, 62.504345, 45.450493, 0
889, 1960050988, -0.103254326, 0.79563814, -0.24873424, -0.54261357, -19.442768, -6.406734, 1.6543922, 0
891, 1960084322, -0.02586166, 0.8308087, -0.26543087, -0.4885022, -21.62462, 33.378056, -4.787936, 0
892, 1960100989, 0.01079552, 0.8321081, -0.2782212, -0.47965857, -18.039558, 21.70198, -12.099647, 0
893, 1960117656, 0.048503473, 0.8268096, -0.29233876, -0.4780912, -12.573775, 22.136003, -14.727594, 0
895, 1960150990, 0.09897883, 0.8023878, -0.33324468, -0.48510325, -3.1342936, 12.52115, -17.699303, 0
898, 1960200991, 0.12375285, 0.7691726, -0.38485408, -0.4949202, 0.57934624, 6.487956, -19.797596, 0
899, 1960217658, 0.119626194, 0.76454186, -0.39126077, -0.49807677, -0.1401804, 6.534801, -19.364155, 0
902, 1960267659, 0.07860124, 0.7648873, -0.37160054, -0.52027124, -1.6630421, 1.5934187, -15.981567, 0
903, 1960284326, 0.060026936, 0.7669059, -0.35486007, -0.531344, -2.858113, -0.097979695, -15.180279, 0
904, 1960300993, 0.040408093, 0.7680558, -0.3343152, -0.5446933, -4.7572546, 2.0184922, -14.387258, 0
906, 1960334327, -0.012347886, 0.75926554, -0.28753668, -0.5836829, -7.324447, 2.6506658, -12.079513, 0
907, 1960350994, -0.03982658, 0.74763983, -0.260914, -0.6094031, -8.183931, 2.347372, -10.194059, 0
908, 1960367661, -0.0660564, 0.73029244, -0.23382269, -0.63846415, -8.657689, 4.0231533, -7.941564, 0
910, 1960400995, -0.113586426, 0.6773135, -0.17877023, -0.7045463, -6.680189, 6.47677, -1.9064331, 0
912, 1960434329, -0.15809765, 0.6082841, -0.12003873, -0.76849616, -1.6454978, 6.5206575, 4.9799604, 0
914, 1960467663, -0.20000067, 0.5414395, -0.052427806, -0.81491977, 1.1259879, 4.606482, 11.587725, 0
915, 1960484330, -0.22026728, 0.5103315, -0.015033433, -0.8311547, 1.2676166, 1.8275964, 14.103249, 0
918, 1960534331, -0.27664205, 0.41584632, 0.09165776, -0.8614753, 3.8487782, -4.1786313, 14.7799835, 0
919, 1960550998, -0.2947486, 0.38476232, 0.12263772, -0.86604923, 2.7177613, -5.8044806, 11.598572, 0
920, 1960567665, -0.31241837, 0.35450703, 0.15255241, -0.8680133, 2.2172182, -7.1654577, 12.415228, 0
922, 1960600999, -0.35107934, 0.29265377, 0.2050898, -0.86546814, 3.7490995, -7.9475074, 6.7596836, 0
923, 1960617666, -0.37222824, 0.26413077, 0.22418323, -0.86105925, 4.712497, -8.285604, 4.9638824, 0
924, 1960634333, -0.39385197, 0.2389186, 0.23693566, -0.8553712, 5.4071918, -8.30039, 1.3833418, 0
927, 1960684334, -0.44983527, 0.18226571, 0.258082, -0.8353567, 3.197512, -14.898602, -0.6046915, 0
929, 1960717668, -0.46803072, 0.15549041, 0.26674464, -0.8280198, 3.8773203, -15.217053, -7.5650806, 0
930, 1960734335, -0.47012547, 0.14532594, 0.26510286, -0.8292061, 4.676098, -15.974791, -8.671166, 0
931, 1960751002, -0.46946922, 0.13766319, 0.26036933, -0.8323792, 4.713051, -15.262516, -10.912992, 0
934, 1960801003, -0.463224, 0.1347716, 0.2391607, -0.8426519, 6.069357, -17.127058, -11.524661, 0
935, 1960817670, -0.46032685, 0.13996707, 0.22748838, -0.84661525, 5.276452, -19.349953, -11.260373, 0
937, 1960851004, -0.44634774, 0.15833625, 0.17816354, -0.8625316, 6.3826485, -23.236216, -5.897156, 0
938, 1960867671, -0.4354897, 0.17181346, 0.14951627, -0.870904, 11.291809, -24.028969, -2.5770373, 0
939, 1960884338, -0.4228751, 0.19197442, 0.12067924, -0.87735903, 14.31453, -23.345886, -4.6030335, 0
942, 1960934339, -0.37504828, 0.29774582, 0.032818068, -0.87727374, 15.12173, -21.293488, -22.70089, 0
943, 1960951006, -0.3813939, 0.30052993, 0.0452319, -0.87302595, 30.220303, -33.266064, 41.912983, 1024
945, 1960984340, -0.36944953, 0.33002633, 0.03938225, -0.867778, 2.6243405, 1.0607994, 5.401767, 0
946, 1961001007, -0.34770468, 0.3621358, 0.020511147, -0.86460286, -3.7387135, 1.7071787, -0.15880203, 0
947, 1961017674, -0.33073744, 0.41544157, -0.0047081243, -0.84734803, -4.948751, 0.7223575, -0.3496771, 0
949, 1961051008, -0.283955, 0.53699714, -0.068477295, -0.79140025, -2.0857446, 7.116301, 1.0341768, 0
950, 1961067675, -0.24375485, 0.5985349, -0.1168424, -0.7541136, -5.8694806, 10.885843, 10.60013, 0
952, 1961101009, -0.10763081, 0.7324888, -0.18110141, -0.64736223, -9.507136, 31.439722, 27.455101, 0
953, 1961117676, -0.039272524, 0.7751011, -0.19025038, -0.60123223, 6.2752576, 67.382614, 58.18964, 0
954, 1961134343, -0.05072675, 0.79529, -0.18975207, -0.57352835, -15.609517, 79.49544, 51.331303, 0
957, 1961184344, 0.029392585, 0.82131207, -0.25476182, -0.509587, -9.389346, 47.68001, 4.0953693, 0
958, 1961201011, 0.055501144, 0.8236841, -0.2835922, -0.48789307, -14.0016775, 31.808973, -7.3630447, 0
960, 1961234345, 0.12008884, 0.8242062, -0.3283317, -0.44548962, -13.74742, 25.584187, -20.951344, 0
961, 1961251012, 0.14568463, 0.8198339, -0.34703496, -0.43152654, -11.503749, 20.529673, -23.729118, 0
964, 1961301013, 0.1774664, 0.800922, -0.40402517, -0.40471378, -2.1240764, 7.821077, -22.80031, 0
965, 1961317680, 0.17567493, 0.79671806, -0.4168908, -0.40072528, -2.104212, 6.4388323, -22.437456, 0
966, 1961334347, 0.16822386, 0.7946488, -0.42315763, -0.4014616, -0.77691853, 4.283442, -21.410927, 0
968, 1961367681, 0.14008135, 0.79609644, -0.42032254, -0.41223374, -1.2608489, -0.76797956, -17.62117, 0
969, 1961384348, 0.12346265, 0.7980192, -0.41040084, -0.42366666, -3.0780418, -1.5279545, -16.242159, 0
972, 1961434349, 0.060810473, 0.7935042, -0.3584965, -0.48798925, -5.615762, -1.683998, -14.135741, 0
973, 1961451016, 0.034807768, 0.7852155, -0.33808714, -0.51761174, -6.1164403, -0.7121618, -12.823815, 0
974, 1961467683, 0.0072525833, 0.77177703, -0.3174493, -0.55093884, -6.8100705, 2.8483279, -11.155971, 0
976, 1961501017, -0.05031997, 0.72857344, -0.2677766, -0.6284458, -5.9777236, 3.086622, -8.020785, 0
977, 1961517684, -0.07551039, 0.70059216, -0.23831852, -0.668336, -6.253336, 6.28264, -4.4307127, 0
980, 1961567685, -0.1352875, 0.59188396, -0.1388427, -0.78236383, 0.5018631, 7.9365206, 7.813942, 0
981, 1961584352, -0.15425846, 0.556247, -0.10291602, -0.8100629, 3.6772187, 8.484836, 9.805014, 0
983, 1961617686, -0.1981923, 0.4991367, -0.022704354, -0.84324765, 3.945526, 5.3583083, 18.253235, 0
984, 1961634353, -0.22458108, 0.4688846, 0.01591439, -0.85408264, 3.105163, 2.055734, 22.362476, 0
987, 1961684354, -0.3007953, 0.36705068, 0.12009881, -0.8719933, 3.1072726, -5.734425, 15.006105, 0
988, 1961701021, -0.32185054, 0.333338, 0.15320385, -0.8728267, 2.881898, -9.234374, 12.700735, 0
989, 1961717688, -0.33904535, 0.29958194, 0.18102354, -0.87322927, 5.110631, -10.939582, 10.113119, 0
991, 1961751022, -0.36512208, 0.23982826, 0.2254358, -0.87083113, 8.2102375, -9.574047, 5.03551, 0
992, 1961767689, -0.37833524, 0.21653761, 0.24214421, -0.8667987, 8.501051, -8.502897, 2.579812, 0
993, 1961784356, -0.39501688, 0.19846937, 0.25499433, -0.8599706, 8.340447, -9.745585, 2.9870272, 0
996, 1961834357, -0.46109208, 0.16028944, 0.27189785, -0.82932067, 1.4214866, -14.70545, -5.0197616, 0
997, 1961851024, -0.47510922, 0.1502362, 0.26898113, -0.8242265, 1.3469387, -15.119963, -6.642951, 0
999, 1961884358, -0.4831248, 0.13495901, 0.2546946, -0.8267449, 2.1523857, -14.5406275, -6.76241, 0
1001, 1961917692, -0.4786103, 0.12490208, 0.24254036, -0.83456916, 4.4262233, -12.195443, -6.527192, 0
1003, 1961951026, -0.47856835, 0.124015436, 0.22737072, -0.8389846, 5.2485495, -9.93238, -7.4772964, 0
1004, 1961967693, -0.4807556, 0.12637691, 0.21621184, -0.8403303, 3.842018, -11.22727, -6.201457, 0
1005, 1961984360, -0.48237178, 0.12931825, 0.20561503, -0.8416155, 3.0200448, -13.6046715, -4.9400754, 0
1007, 1962017694, -0.47576118, 0.13883163, 0.18696252, -0.8481874, 4.3446517, -19.656343, -6.9435062, 0
1008, 1962034361, -0.46634364, 0.14609694, 0.17381695, -0.8549659, 7.2703314, -22.942163, -9.894306, 0
1010, 1962067695, -0.43959695, 0.18137659, 0.13755059, -0.8688709, 13.997897, -32.336155, -8.8643465, 0
1012, 1962101029, -0.3938336, 0.25800753, 0.09116133, -0.87750584, 19.02203, -36.745945, -25.346077, 0
1014, 1962134363, -0.38616002, 0.29941306, 0.06278513, -0.8702243, 14.750878, 55.353634, -17.236315, 0
1016, 1962167697, -0.35369313, 0.34797573, 0.044592366, -0.8670787, -5.3713355, -0.64852697, 3.9675713, 0
1018, 1962201031, -0.3147064, 0.4656303, -0.0128109865, -0.8270332, -0.24802034, 5.1171575, 1.2052717, 0
1019, 1962217698, -0.2788108, 0.5324542, -0.05881405, -0.7970557, -4.3651795, 6.77568, 2.7738895, 0
1020, 1962234365, -0.2312953, 0.599466, -0.11419426, -0.7576956, -8.359989, 15.164669, 12.8871, 0
1022, 1962267699, -0.0976753, 0.7288335, -0.19794919, -0.64813375, 0.48764133, 43.671642, 35.924274, 0
1023, 1962284366, -0.0784118, 0.76484686, -0.23298486, -0.5954652, 6.340882, 94.472755, 62.68269, 0
1024, 1962301033, -0.12804319, 0.776644, -0.25781158, -0.5603234, 1.2259914, 31.769773, 12.977137, 0
1026, 1962334367, -0.06980968, 0.82799286, -0.27110034, -0.48585895, -18.301756, 50.793797, -6.217914, 0
1027, 1962351034, -0.057457507, 0.84158266, -0.27216145, -0.46299607, -17.959044, 41.32149, -21.206253, 0
1028, 1962367701, -0.04887101, 0.85012686, -0.2716453, -0.44844696, -21.431133, 21.433693, -28.807676, 0
1031, 1962417702, -0.019425848, 0.8356356, -0.25533694, -0.48594102, -8.1285925, 11.167841, -23.803734, 0
1033, 1962451036, -0.041221943, 0.8054544, -0.25566632, -0.5330841, -2.3880863, 9.289329, -18.700212, 0
1034, 1962467703, -0.06225168, 0.7901159, -0.25098485, -0.5557409, -0.8582759, 8.911603, -16.49182, 0
1035, 1962484370, -0.08780501, 0.7762438, -0.23944922, -0.576541, -0.45262983, 9.315111, -14.03401, 0
1037, 1962517704, -0.14943497, 0.74808407, -0.19565205, -0.6162465, -2.2676852, 7.460452, -8.278807, 0
1038, 1962534371, -0.1818742, 0.73086196, -0.16726488, -0.63622713, -4.502272, 7.248981, -5.2023687, 0
1039, 1962551038, -0.21348295, 0.70993876, -0.13632539, -0.65713567, -3.1118248, 4.723452, -1.6746073, 0
1042, 1962601039, -0.31298327, 0.6229197, -0.05597436, -0.71475804, 10.493965, -5.9018517, 8.341579, 0
1043, 1962617706, -0.3514722, 0.59990174, -0.032907028, -0.7179849, 12.013168, -8.4199915, 8.8143635, 0
1046, 1962667707, -0.44657788, 0.5601187, 0.019438593, -0.697465, -6.4421177, -40.95036, 0.3594656, 0
1047, 1962684374, -0.43621987, 0.5346202, 0.0028469209, -0.72379917, -29.799164, -24.335, 25.647202, 0
1049, 1962717708, -0.44313675, 0.49101818, 0.008951571, -0.74996716, 12.277792, -12.868826, -12.171661, 0
1050, 1962734375, -0.44776067, 0.4931642, 0.01330658, -0.74573606, 12.444607, -4.612014, 2.4713593, 0
1051, 1962751042, -0.457581, 0.49813557, 0.019444425, -0.73627603, 7.45189, -1.8395503, 2.36236, 0
1053, 1962784376, -0.46779305, 0.5014391, 0.03286452, -0.72708195, -18.570038, -11.252101, -4.125007, 0
1054, 1962801043, -0.4532697, 0.49183092, 0.04287277, -0.74216616, -2.7297235, -1.6426955, 7.239485, 0
1055, 1962817710, -0.44259048, 0.47883534, 0.044483732, -0.7568694, 8.345465, -1.4480215, -4.794207, 0
1058, 1962867711, -0.4039637, 0.48253044, 0.0493681, -0.7755903, 0.86407816, -14.345036, 7.176422, 0
1061, 1962917712, -0.38399732, 0.48780876, 0.06647585, -0.7811335, 3.6861293, 6.626727, -1.8630867, 0
1062, 1962934379, -0.38523877, 0.48466992, 0.070500754, -0.7821225, -2.0436883, 1.6686273, -3.0805516, 0
1064, 1962967713, -0.3623867, 0.47748944, 0.09543052, -0.7947155, -3.5647464, -2.422181, -2.8009448, 0
1065, 1962984380, -0.34143084, 0.46905488, 0.11695445, -0.8060606, -2.8654912, -0.45196176, 2.7765045, 0
1066, 1963001047, -0.3213185, 0.45389974, 0.13548422, -0.8199836, -1.5676401, 3.2955437, -2.4674087, 0
1068, 1963034381, -0.29423112, 0.42373195, 0.16888551, -0.8398552, -1.3851103, 3.804291, -2.0794773, 0
1069, 1963051048, -0.2987329, 0.41128704, 0.18266684, -0.8415666, -4.8813033, -1.7608405, -0.32754135, 0
1070, 1963067715, -0.3099962, 0.40187377, 0.20090893, -0.8378755, -3.3481605, 3.2744925, -2.6972585, 0
1072, 1963101049, -0.35325515, 0.3761896, 0.21496709, -0.82914484, -1.3482403, -0.25566193, 4.1923103, 0
1076, 1963167717, -0.3687407, 0.32270765, 0.18573864, -0.8516988, 2.2499802, -1.1044624, 0.3500967, 0
1077, 1963184384, -0.36779863, 0.30996123, 0.17722127, -0.85862714, -1.1205353, -2.5723624, -0.07388878, 0
1078, 1963201051, -0.3693407, 0.29873464, 0.1725312, -0.86288935, 1.8185847, -0.5726168, 1.6072845, 0
1080, 1963234385, -0.37746963, 0.29022157, 0.17276503, -0.86222976, 1.1767917, 0.57548594, -1.1177416, 0
1081, 1963251052, -0.3819285, 0.28710285, 0.17529552, -0.8607984, 2.390113, -2.5370522, 4.1537952, 0
1082, 1963267719, -0.38729972, 0.28543618, 0.17837548, -0.8583166, -0.5567547, -2.2027693, -2.4284277, 0
1084, 1963301053, -0.39570272, 0.28577948, 0.1714119, -0.8557844, -12.519731, -5.044556, -2.0705738, 0
1085, 1963317720, -0.39614013, 0.2832328, 0.17281215, -0.8561471, 0.03313493, -2.3117976, -2.6154885, 0
1086, 1963334387, -0.39906105, 0.28201592, 0.17452851, -0.85484326, 3.255371, 0.07262416, 1.3532534, 0
1088, 1963367721, -0.40386102, 0.2816263, 0.17440751, -0.85273963, 0.0028346472, -2.371632, 0.6678896, 0
1092, 1963434389, -0.41627228, 0.2778048, 0.15918545, -0.8510003, 2.566497, -0.3545534, -1.9115238, 0
1093, 1963451056, -0.42016217, 0.27633035, 0.15310769, -0.85068387, 0.11035131, -1.358047, 0.084376335, 0
1095, 1963484390, -0.42510748, 0.2765487, 0.13997479, -0.85041827, -3.0585814, -1.0168734, -3.5026245, 0
1096, 1963501057, -0.42560986, 0.27744833, 0.13327931, -0.8509496, -5.564457, -0.52222526, -1.0771036, 0
1097, 1963517724, -0.42286083, 0.27923533, 0.1275124, -0.8526176, -4.6166177, 0.40924886, 1.4713821, 0
1099, 1963551058, -0.4144687, 0.28012726, 0.12011904, -0.85750544, -0.9937633, 2.5999558, -2.1752582, 0
1100, 1963567725, -0.41105026, 0.2828242, 0.11596264, -0.85883677, -0.8695206, 2.6446173, -3.3967447, 0
1101, 1963584392, -0.40894786, 0.28384876, 0.11258303, -0.85995144, -3.0936825, 4.1068077, -1.410944, 0
1103, 1963617726, -0.40091276, 0.28995192, 0.10257406, -0.86294574, -1.3893889, 6.031113, -6.776719, 0
1105, 1963651060, -0.39339703, 0.29687464, 0.091617495, -0.8652805, -1.6200992, -2.2894924, 2.3855762, 0
1107, 1963684394, -0.3883863, 0.29437378, 0.08712823, -0.8688548, -1.7636462, 4.333786, -4.266804, 0
1108, 1963701061, -0.38761476, 0.29288867, 0.08726447, -0.8696872, 1.0405415, -1.9558095, 1.8429527, 0
1109, 1963717728, -0.38821888, 0.28898028, 0.08827545, -0.87062275, 1.6661869, 0.9789493, 3.0399036, 0
1111, 1963751062, -0.38763502, 0.28520447, 0.08560885, -0.87239236, -0.012473979, -3.7159812, 0.6127405, 0
1112, 1963767729, -0.38785037, 0.28310284, 0.085744314, -0.8729677, -0.88036704, -0.2965205, -4.0090637, 0
1114, 1963801063, -0.38951197, 0.28242123, 0.08568871, -0.87245405, 3.777609, -4.1562214, 6.463688, 0
1115, 1963817730, -0.39055154, 0.281879, 0.08399378, -0.87232935, 6.102772, -5.575123, 3.0717344, 0
1116, 1963834397, -0.39170176, 0.28076273, 0.08087884, -0.87246805, 5.892506, -5.370058, -1.4693832, 0
1118, 1963867731, -0.39400628, 0.27704513, 0.074635096, -0.8731749, 0.68924516, -3.9249787, -0.7732229, 0
1122, 1963934399, -0.3960169, 0.27308893, 0.063654505, -0.8743803, 3.3234177, -1.4898862, -0.27706432, 0
1123, 1963951066, -0.39672703, 0.27259472, 0.061870363, -0.8743408, 1.6062487, 0.37153026, -4.6269484, 0
1124, 1963967733, -0.3979901, 0.2729548, 0.06014949, -0.8737742, 2.721675, -2.850337, 0.57756233, 0
1126, 1964001067, -0.40156692, 0.27397996, 0.05801794, -0.87195915, 3.936326, -2.622059, 2.4981918, 0
1127, 1964017734, -0.403817, 0.27405763, 0.057826713, -0.8709078, 1.2059027, 2.6524136, 0.12547684, 0
1128, 1964034401, -0.40585607, 0.27582926, 0.058270987, -0.8693695, 2.5501647, 0.5748017, -1.1912603, 0
1130, 1964067735, -0.41072348, 0.27740753, 0.059254665, -0.86651015, 1.2423711, 1.2157005, 1.9667635, 0
1131, 1964084402, -0.41294754, 0.27831665, 0.059885614, -0.86511713, 1.0032024, -0.19463967, 1.3929605, 0
1132, 1964101069, -0.41497993, 0.27902803, 0.060298346, -0.863886, 0.014398579, 1.5166107, -1.5794773, 0
1135, 1964151070, -0.42011854, 0.27980068, 0.062384244, -0.86099946, -1.0283655, -0.28377807, 0.23311806, 0
1138, 1964201071, -0.42106155, 0.2803349, 0.06335461, -0.860294, -0.8657559, 0.26791, -0.50412464, 0
1139, 1964217738, -0.42109075, 0.28055635, 0.06448378, -0.8601235, -1.4397552, 1.987597, -1.6651058, 0
1141, 1964251072, -0.4208417, 0.28127733, 0.06666751, -0.8598434, -0.04836478, -0.12758556, -0.7333107, 0
1142, 1964267739, -0.42089134, 0.2818531, 0.06798679, -0.85952723, -0.16538498, 0.03143587, 0.88788605, 0
1143, 1964284406, -0.4211697, 0.28208447, 0.069176376, -0.85921985, 0.5166433, 0.93961114, -0.5366144, 0
1145, 1964317740, -0.42168865, 0.28408763, 0.071609765, -0.8581054, -0.33548307, 1.4718865, -0.57869816, 0
1146, 1964334407, -0.4223124, 0.28502083, 0.07357313, -0.8573227, 1.3121808, 0.47913086, 1.4869833, 0
1147, 1964351074, -0.4227873, 0.28643513, 0.07524575, -0.8564716, -0.41709712, 1.7365088, -1.5162554, 0
1150, 1964401075, -0.42314008, 0.28932008, 0.077663675, -0.8551109, -0.039279774, 0.08297796, -0.3358984, 0
1151, 1964417742, -0.42327347, 0.28879672, 0.078087226, -0.85518306, -1.4891293, 1.9025103, -0.7558718, 0
1154, 1964467743, -0.42110345, 0.2884917, 0.07876127, -0.8562949, -1.3226563, 0.6300826, 1.1855145, 0
1155, 1964484410, -0.42007947, 0.28821555, 0.07945769, -0.8568263, -1.2735065, 1.1654727, 0.4636526, 0
1157, 1964517744, -0.41693273, 0.2885022, 0.079781994, -0.85823554, -2.3298, 1.3186895, -0.8737745, 0
1158, 1964534411, -0.41534346, 0.28843096, 0.0801016, -0.859, -1.8743526, 1.8962274, 0.17774773, 0
1159, 1964551078, -0.41392508, 0.28812543, 0.08090156, -0.8597118, -1.2368152, 1.5124228, 0.85801315, 0
1161, 1964584412, -0.4102324, 0.2884509, 0.08181729, -0.8612846, -2.4914005, 3.053073, 0.48461056, 0
1162, 1964601079, -0.40776747, 0.28864995, 0.08196168, -0.8623741, -1.8217224, 1.7831379, 0.74638844, 0
1165, 1964651080, -0.3990574, 0.2905919, 0.079030044, -0.86606216, -2.0603034, 4.2086926, -0.35042, 0
1166, 1964667747, -0.3968765, 0.28899413, 0.078272246, -0.8676662, -3.736073, 4.787505, -0.39679813, 0
1167, 1964684414, -0.3941884, 0.28766742, 0.07674886, -0.8694667, -2.7735107, 2.810593, 1.6994181, 0
1170, 1964734415, -0.38454717, 0.28952563, 0.07166189, -0.8735919, -1.918632, 2.312877, -2.1674047, 0
1172, 1964767749, -0.38193244, 0.28850564, 0.07177281, -0.8750661, -2.0617156, 2.9938505, 1.7702284, 0
1173, 1964784416, -0.3802735, 0.28968444, 0.070988655, -0.87546295, -1.2122436, 2.5193677, 0.82866573, 0
1174, 1964801083, -0.37777948, 0.29360232, 0.06971061, -0.87534034, -0.4441582, 3.530392, -5.578087, 0
1176, 1964834417, -0.38071302, 0.29332602, 0.07428933, -0.873784, 1.1529236, -0.010966216, 0.44491673, 0
1177, 1964851084, -0.38603616, 0.28726786, 0.07759036, -0.87317395, 2.9078248, 1.3998648, -2.3567338, 0
1180, 1964901085, -0.39109802, 0.28449517, 0.081044674, -0.8715139, -1.6094573, -4.23982, -1.7237425, 0
1181, 1964917752, -0.3907778, 0.28607562, 0.0824325, -0.87100995, 1.2199037, -8.265106, 0.434906, 0
1182, 1964934419, -0.39020777, 0.28678614, 0.08290081, -0.8709873, 0.49635884, -4.7136054, -3.732912, 0
1184, 1964967753, -0.39037332, 0.28114742, 0.07829128, -0.87317526, 4.951468, -0.13193232, 11.677992, 0
1185, 1964984420, -0.38925025, 0.28082588, 0.07456086, -0.8741061, 0.6976209, -2.4547656, -3.1255836, 0
1186, 1965001087, -0.3891321, 0.27960807, 0.07073555, -0.8748667, 4.806616, -12.31722, -1.230155, 0
1188, 1965034421, -0.39028633, 0.276192, 0.065766156, -0.8758248, 2.145316, -1.8413581, 3.326192, 0
1189, 1965051088, -0.39058456, 0.2769153, 0.06328011, -0.8756466, 2.9574735, -0.37349182, -3.0301466, 0
1190, 1965067755, -0.39188015, 0.2767262, 0.06268971, -0.87517, 5.286719, -3.5951834, 5.9883184, 0
1192, 1965101089, -0.39525887, 0.2759425, 0.059471536, -0.8741219, 4.5307374, -5.519183, -6.806348, 0
1195, 1965151090, -0.40264064, 0.27221197, 0.053216413, -0.87232393, 0.6938266, 1.4031905, 2.8970022, 0
1196, 1965167757, -0.40401682, 0.2714771, 0.051527157, -0.87201786, -1.7206271, 3.3110158, -4.724946, 0
1197, 1965184424, -0.40587276, 0.27032843, 0.04964561, -0.8716221, 4.6133657, -4.776678, 3.58784, 0
1200, 1965234425, -0.41235873, 0.27270526, 0.049724385, -0.8678245, 0.8615902, 3.0926018, -1.4436331, 0
1201, 1965251092, -0.41469154, 0.27459934, 0.05095864, -0.8660422, 2.5471802, 2.1888022, -1.6291885, 0
1203, 1965284426, -0.42220744, 0.27683753, 0.053670205, -0.8615227, 0.8637666, 2.1260972, -0.062791824, 0
1204, 1965301093, -0.4248894, 0.27900136, 0.054016005, -0.8594819, 5.4326606, -6.943072, 8.631569, 0
1205, 1965317760, -0.42660567, 0.28172138, 0.055496562, -0.85764825, 0.8949066, 0.5333103, 1.830781, 0
1207, 1965351094, -0.43011063, 0.28532964, 0.05645299, -0.85463715, -0.99880654, 3.22417, -5.653243, 0
1209, 1965384428, -0.43383685, 0.28545374, 0.059818182, -0.85248077, -0.58822477, -0.72701657, 3.3304138, 0
1211, 1965417762, -0.43375868, 0.2876723, 0.062243298, -0.85160065, -2.0525095, -2.156887, -0.8607712, 0
1212, 1965434429, -0.43360186, 0.28818452, 0.06386361, -0.85138744, -3.5242503, 5.3019834, -5.865442, 0
1213, 1965451096, -0.43361214, 0.28906634, 0.06629298, -0.8508974, 0.1361941, 0.56970847, -1.3922291, 0
1216, 1965501097, -0.4325812, 0.29081956, 0.0725626, -0.8503129, 0.23407719, -2.822039, 1.004569, 0
1217, 1965517764, -0.4322867, 0.29065663, 0.07439418, -0.85036016, -1.4295181, 0.80088747, -0.8506775, 0
1219, 1965551098, -0.42995015, 0.2941943, 0.07710713, -0.85008645, -1.1396412, -0.75964266, -2.1392307, 0
1220, 1965567765, -0.42892927, 0.2938075, 0.07856844, -0.8506019, 0.9755775, -1.0968359, 2.945877, 0
1222, 1965601099, -0.42742243, 0.2922839, 0.08140368, -0.8516181, -2.0478585, 0.60046667, 0.95883846, 0
1224, 1965634433, -0.4229095, 0.29459286, 0.08184435, -0.8530322, 0.2920978, -2.9351895, -2.1756334, 0
1226, 1965667767, -0.42115396, 0.29319745, 0.08301198, -0.8542678, -1.3269482, 2.6019623, 2.7590065, 0
1227, 1965684434, -0.42013595, 0.2913121, 0.08410685, -0.8553063, -1.4090064, 2.868876, 0.763896, 0
1228, 1965701101, -0.4181976, 0.29052356, 0.084784165, -0.8564569, -1.3456962, 0.24537309, 0.32696056, 0
1230, 1965734435, -0.41453093, 0.29074335, 0.084587574, -0.8581825, 0.04506577, -2.7005007, 2.0073214, 0
1232, 1965767769, -0.4102414, 0.29139447, 0.08359577, -0.8601178, -0.6416281, 2.9922817, -1.8004961, 0
1234, 1965801103, -0.40733922, 0.2904903, 0.0834791, -0.86181265, -0.83617616, 2.0815625, 1.7319126, 0
1235, 1965817770, -0.40678632, 0.28983694, 0.08398581, -0.8622445, -1.575953, 1.1096125, 3.069684, 0
1236, 1965834437, -0.40471563, 0.29213294, 0.08402094, -0.8624406, -3.4488375, 3.0765727, -1.7681646, 0
1239, 1965884438, -0.40118238, 0.29592785, 0.083642654, -0.86283433, 0.24657717, 2.725362, 3.2272234, 0
1240, 1965901105, -0.4014529, 0.2946977, 0.083905436, -0.86310405, -2.9920676, 4.1371565, 5.054656, 0
1242, 1965934439, -0.3956761, 0.30211994, 0.07944898, -0.8636272, -3.3600726, 4.8334875, -0.81770706, 0
1243, 1965951106, -0.39387757, 0.30478662, 0.076968856, -0.86373675, -4.4334393, 9.079334, -5.595702, 0
1244, 1965967773, -0.39143872, 0.30704722, 0.07410251, -0.86429524, -1.4299896, 3.7921212, -4.422467, 0
1246, 1966001107, -0.39275652, 0.30042958, 0.07674181, -0.86579144, -5.361843, 8.583227, 0.96225643, 0
1248, 1966034441, -0.39131802, 0.30119386, 0.07782486, -0.8660805, -0.7220622, -0.84207624, -1.3321133, 0
1250, 1966067775, -0.39575505, 0.29449415, 0.08471915, -0.8657214, 0.9744938, -1.3964443, -2.56207, 0
1251, 1966084442, -0.39846933, 0.29231134, 0.08915369, -0.8647704, 0.040212717, -0.7918901, 1.7852879, 0
1254, 1966134443, -0.40268284, 0.29369676, 0.099409655, -0.8612238, 7.221654, -6.920919, -1.3910341, 0
1255, 1966151110, -0.40490487, 0.29287833, 0.10205525, -0.8601506, 6.1158834, -4.2617073, 0.55268097, 0
1257, 1966184444, -0.4086877, 0.29666767, 0.10937593, -0.85615385, 1.9149946, -11.417049, 6.5362186, 0
1258, 1966201111, -0.40997598, 0.30091998, 0.115464956, -0.85324943, -0.024171375, -12.197762, -4.298459, 0
1259, 1966217778, -0.41114205, 0.30349335, 0.12181723, -0.85089046, 1.2132324, -8.928962, 0.2762537, 0
1261, 1966251112, -0.41188434, 0.30879983, 0.13200925, -0.8470935, 4.2867947, -6.4501324, -3.3001819, 0
1262, 1966267779, -0.41098776, 0.3095588, 0.13066018, -0.847461, 3.991049, -5.784217, 0.6507797, 0
1263, 1966284446, -0.41005287, 0.30919296, 0.12747875, -0.84853125, 2.4886951, -2.9501104, 0.6374912, 0
1265, 1966317780, -0.40773758, 0.30792648, 0.11595524, -0.8517543, 0.020561852, -1.5541887, -1.6800404, 0
1266, 1966334447, -0.4067689, 0.3063605, 0.110703796, -0.85347927, 0.28546986, 0.13788469, -1.9123588, 0
1269, 1966384448, -0.40648854, 0.30485648, 0.10619857, -0.85472286, -1.5107137, -1.4258834, 2.362504, 0
1270, 1966401115, -0.40574098, 0.30530968, 0.10733168, -0.8547748, -1.5311688, -1.105664, 1.3152447, 0
1271, 1966417782, -0.40470022, 0.30644965, 0.110357665, -0.8544749, -0.4532202, 0.9544086, 0.2396698, 0
1273, 1966451116, -0.40295112, 0.30664235, 0.11893483, -0.85408163, -2.5409865, 1.2428303, -2.088622, 0
1274, 1966467783, -0.40170377, 0.3055298, 0.12497286, -0.85420555, -1.14327, 1.2425221, 2.0878496, 0
1276, 1966501117, -0.39919975, 0.30360565, 0.14015219, -0.85370976, -1.8007936, 0.8825122, 1.3324776, 0
1278, 1966534451, -0.39378873, 0.2981182, 0.15700099, -0.855223, -2.3685832, 0.15984686, 0.5812149, 0
1280, 1966567785, -0.38718006, 0.2866817, 0.17423709, -0.8588052, 0.7913081, -0.25977245, 1.5561924, 0
1281, 1966584452, -0.3824308, 0.2803994, 0.18120235, -0.8615616, -0.22001271, -0.09433191, -3.2523546, 0
1284, 1966634453, -0.3353728, 0.25691643, 0.19357699, -0.8854643, 9.720423, 4.621155, -1.7450161, 0
1285, 1966651120, -0.3210474, 0.2524659, 0.19614749, -0.89146817, 4.2268376, 5.4587283, -4.4739366, 0
1286, 1966667787, -0.30989462, 0.2509091, 0.19888157, -0.89524066, 3.3621325, 1.1778305, 1.0519419, 0
1288, 1966701121, -0.2886224, 0.24948177, 0.20335041, -0.9017231, -0.66420656, 0.95738715, -3.66888, 0
1289, 1966717788, -0.27893442, 0.25184968, 0.20609921, -0.9034877, 7.146216, 4.399998, -1.4782124, 0
1290, 1966734455, -0.27644894, 0.2577043, 0.20623873, -0.90256846, 7.3159256, 1.0769824, 0.91629696, 0
1292, 1966767789, -0.27305347, 0.2664561, 0.20687033, -0.9009148, 0.62347907, -2.1495433, -0.31165028, 0
1294, 1966801123, -0.27070126, 0.2831764, 0.21469863, -0.894671, -1.6161796, -3.7686265, -2.725524, 0
1296, 1966834457, -0.25966755, 0.31995246, 0.23434284, -0.8805035, -4.5505924, -2.3224099, -1.1514606, 0
1298, 1966867791, -0.25738138, 0.38790613, 0.27301127, -0.8418719, -4.707004, 0.22735335, 0.70233727, 0
1300, 1966901125, -0.26987135, 0.4622785, 0.26927632, -0.8005986, 2.5037744, 12.963021, 12.128199, 0
1301, 1966917792, -0.28837425, 0.48771003, 0.21175857, -0.7963273, -12.338629, -4.910431, 3.2081966, 0
1303, 1966951126, -0.29658437, 0.4961888, 0.13822952, -0.80419326, -13.328544, 9.067297, 3.356388, 0
1304, 1966967793, -0.29834342, 0.48573175, 0.10589819, -0.8147645, -9.728929, 13.104712, 2.5278769, 0
1305, 1966984460, -0.30177957, 0.46568307, 0.08112292, -0.82794154, -7.601852, 15.086014, 0.81650734, 0
1307, 1967017794, -0.31444803, 0.41019455, 0.05438641, -0.8543447, -0.6691393, 12.612057, -3.6705356, 0
1308, 1967034461, -0.32414034, 0.38010275, 0.05365149, -0.8646249, 1.8432564, 9.159884, -2.9324646, 0
1311, 1967084462, -0.35714257, 0.2952166, 0.084843054, -0.8820986, 5.845142, 0.31367204, 0.9148474, 0
1313, 1967117796, -0.38260946, 0.24063148, 0.12019573, -0.8838888, 8.203403, -7.8518314, -0.39058208, 0
1315, 1967151130, -0.40903297, 0.19341931, 0.15118416, -0.87887686, 12.048504, -18.01265, -9.400603, 0
1316, 1967167797, -0.41795632, 0.17751004, 0.16261317, -0.8759906, 12.245848, -23.969208, -13.859856, 0
1317, 1967184464, -0.4225213, 0.1699058, 0.17177102, -0.8735572, 12.631975, -27.367485, -17.029526, 0
1319, 1967217798, -0.41444892, 0.17680463, 0.16743684, -0.8768906, 15.237075, -36.48084, -19.650658, 0
1320, 1967234465, -0.3979212, 0.19226445, 0.15270276, -0.88395405, 19.488222, -38.267887, -15.072401, 0
1321, 1967251132, -0.37590277, 0.23630111, 0.13327035, -0.8860574, 49.932457, -57.07885, -44.873894, 0
1323, 1967284466, -0.35755885, 0.32287428, 0.06820427, -0.87364286, 1.8843076, 31.753788, -38.16622, 0
1324, 1967301133, -0.33679247, 0.33812177, 0.05895379, -0.8767945, 0.19200955, -12.220854, 12.4522705, 0
1328, 1967367801, -0.24611771, 0.5383982, -0.053052362, -0.80420065, -3.1884208, 5.6802382, 1.9571438, 0
1329, 1967384468, -0.20991862, 0.6040105, -0.09866304, -0.7624767, -5.7840843, 8.573526, 6.4288864, 0
1331, 1967417802, -0.10753913, 0.73450726, -0.18659621, -0.6435184, -11.56156, 30.900917, 16.724463, 0
1332, 1967434469, -0.037173778, 0.7888507, -0.2227086, -0.57160586, -18.112402, 73.38316, 46.27387, 0
1334, 1967467803, -0.055975042, 0.8086589, -0.2610144, -0.52422214, -5.107988, -12.255077, 8.912233, 0
1335, 1967484470, -0.0010006912, 0.8160001, -0.2755198, -0.5081649, -12.927424, 19.195433, 14.063389, 0
1336, 1967501137, 0.034196347, 0.81547195, -0.29168487, -0.49875438, -0.29906213, 45.09769, 1.9358482, 0
1338, 1967534471, 0.09437317, 0.81414634, -0.33010978, -0.4682808, -14.076865, 27.462826, -10.736647, 0
1339, 1967551138, 0.12232627, 0.80997807, -0.34362608, -0.4592305, -10.9537, 25.419233, -17.235033, 0
1340, 1967567805, 0.14283898, 0.80368227, -0.35754725, -0.45370883, -8.717556, 17.279482, -19.504948, 0
1343, 1967617806, 0.16920063, 0.7860659, -0.39240634, -0.4466418, -1.0152339, 7.743068, -20.551922, 0
1344, 1967634473, 0.16100591, 0.78433436, -0.40112597, -0.4449656, -1.4304657, 5.4354005, -19.79593, 0
1346, 1967667807, 0.134476, 0.7863717, -0.39892325, -0.4521015, -2.207334, 2.3841727, -17.60758, 0
1347, 1967684474, 0.11499628, 0.78777516, -0.3917284, -0.46123192, -3.1994667, 3.803819, -16.874538, 0
1348, 1967701141, 0.090725236, 0.78715444, -0.38181418, -0.47578838, -5.5305037, 1.9216144, -15.3592005, 0
1350, 1967734475, 0.043787487, 0.77637607, -0.3470022, -0.5243207, -7.1107025, 1.6912568, -13.497725, 0
1351, 1967751142, 0.018131748, 0.7651666, -0.324155, -0.5559809, -7.1171374, 3.5988166, -12.271047, 0
1352, 1967767809, -0.009866111, 0.74941254, -0.29772672, -0.59130543, -8.294379, 4.6781144, -9.897863, 0
1354, 1967801143, -0.06879311, 0.7005038, -0.23186539, -0.6714165, -8.229136, 4.5524445, -4.3504367, 0
1358, 1967867811, -0.15082878, 0.554092, -0.07221565, -0.8154861, -2.3353856, 3.1708639, 13.062099, 0
1359, 1967884478, -0.16579661, 0.5143958, -0.029056052, -0.8408712, 2.2849908, 1.5247464, 14.169975, 0
1361, 1967917812, -0.20728944, 0.44599658, 0.04826241, -0.8693609, 8.461433, -0.9906854, 12.29063, 0
1362, 1967934479, -0.23615804, 0.41908392, 0.08101186, -0.8729461, 6.6696453, -2.1061158, 17.499601, 0
1363, 1967951146, -0.26887792, 0.39161563, 0.114184104, -0.87252706, 3.1233485, -7.504933, 16.87397, 0
1365, 1967984480, -0.32307485, 0.32733548, 0.17183262, -0.8711759, 2.9765944, -14.114332, 10.16861, 0
1366, 1968001147, -0.34049833, 0.29171857, 0.19206081, -0.8729683, 6.467171, -12.580176, 8.245943, 0
1367, 1968017814, -0.3556348, 0.25837815, 0.20780936, -0.87383056, 9.6534195, -9.804096, 3.6817608, 0
1369, 1968051148, -0.3904503, 0.21342002, 0.22718261, -0.86624956, 9.514309, -9.693778, -1.4455423, 0
1370, 1968067815, -0.4097514, 0.20042343, 0.23467444, -0.8584066, 7.988836, -12.72676, 0.74717426, 0
1374, 1968134483, -0.47914833, 0.17016, 0.23470955, -0.82847685, 0.006865089, -12.988467, -8.059923, 0
1375, 1968151150, -0.48816103, 0.16479722, 0.2211392, -0.82803273, -1.0470767, -13.663437, -6.8539066, 0
1377, 1968184484, -0.49680108, 0.15943903, 0.19691283, -0.8300561, -0.42760235, -12.977839, -5.392009, 0
1378, 1968201151, -0.4973167, 0.15976046, 0.19009596, -0.83127373, 1.1002885, -12.958918, -4.8435435, 0
1379, 1968217818, -0.4949816, 0.15946633, 0.1836788, -0.8341616, 1.9285887, -13.1556635, -6.0263186, 0
1381, 1968251152, -0.47842085, 0.16244125, 0.16846463, -0.8463723, 3.7076972, -15.392673, -5.233105, 0
1382, 1968267819, -0.46465027, 0.16422638, 0.16120005, -0.85506976, 6.92499, -16.91587, -5.1005106, 0
1384, 1968301153, -0.43041977, 0.1752495, 0.13979127, -0.87434804, 15.253271, -18.516703, -7.3999677, 0
1385, 1968317820, -0.41218418, 0.18755402, 0.12519936, -0.8827529, 14.82136, -19.25306, -14.628761, 0
1388, 1968367821, -0.39869022, 0.30794588, 0.060940307, -0.86168516, 22.12932, 13.851832, -25.526243, 0
1390, 1968401155, -0.36642396, 0.3320566, 0.038540654, -0.8683237, 0.28370288, -4.8751907, 3.9128513, 0
1392, 1968434489, -0.33578968, 0.41398358, 0.0038393466, -0.84607804, -1.581162, 6.0623484, 0.3957939, 0
1393, 1968451156, -0.31286708, 0.4795008, -0.029421318, -0.81934565, 0.015089276, 5.808904, -0.13721752, 0
1394, 1968467823, -0.2776707, 0.5461963, -0.07288778, -0.78692824, -3.3248043, 7.2880197, 2.0265856, 0
1396, 1968501157, -0.15503119, 0.6924339, -0.15878613, -0.6865037, -15.506542, 34.896908, 31.295986, 0
1397, 1968517824, -0.06834863, 0.75618255, -0.1820791, -0.62479055, -0.68461436, 43.488564, 37.075203, 0
1398, 1968534491, -0.04091075, 0.79132694, -0.21309957, -0.57159096, 8.019806, 99.18993, 66.92828, 0
1400, 1968567825, -0.07524954, 0.81915325, -0.23915255, -0.5158791, -15.27705, -38.127583, 3.517787, 0
1402, 1968601159, 0.023370925, 0.84692353, -0.26016924, -0.46312675, -10.596879, 38.570633, 0.0062913895, 0
1404, 1968634493, 0.089231536, 0.85329455, -0.30147338, -0.41598028, -23.883713, 26.134966, -13.633068, 0
1406, 1968667827, 0.17913671, 0.83423984, -0.327928, -0.4054838, -9.373279, 18.799942, -23.083199, 0
1408, 1968701161, 0.22215232, 0.8057837, -0.37535176, -0.40058932, -2.7352734, 12.838163, -26.005356, 0
1409, 1968717828, 0.22396332, 0.7952794, -0.39954588, -0.39715767, -1.2800305, 10.563979, -25.96483, 0
1410, 1968734495, 0.21829519, 0.7880773, -0.41937485, -0.39421606, -0.8541065, 6.407293, -24.25966, 0
1412, 1968767829, 0.19997153, 0.78131557, -0.43575025, -0.39959842, -1.5515081, 3.7127147, -21.35522, 0
1413, 1968784496, 0.18630753, 0.78145236, -0.4318431, -0.41004038, -0.8693212, 2.0822449, -19.903076, 0
1415, 1968817830, 0.1472133, 0.7866987, -0.40851876, -0.43880036, -2.2632744, 0.26301065, -16.421337, 0
1417, 1968851164, 0.09715666, 0.7902941, -0.36619422, -0.48155737, -4.9601855, -1.0499344, -14.529772, 0
1419, 1968884498, 0.03710901, 0.7826556, -0.31522036, -0.53545225, -8.814439, 4.108496, -12.507447, 0
1420, 1968901165, 0.0031161923, 0.7701432, -0.2887345, -0.5687725, -9.860349, 4.8119626, -9.847524, 0
1421, 1968917832, -0.028252983, 0.7496852, -0.2612729, -0.60737985, -11.248466, 5.931083, -5.9582996, 0
1423, 1968951166, -0.08419902, 0.68517643, -0.20866555, -0.6927498, -7.0580773, 8.799311, 0.17627048, 0
1424, 1968967833, -0.108471185, 0.6459731, -0.17921793, -0.7340528, -3.2343745, 9.334149, 4.4852085, 0
1425, 1968984500, -0.13102695, 0.60705394, -0.14496791, -0.7702608, 1.0397286, 9.774789, 8.154758, 0
1427, 1969017834, -0.17915156, 0.5441947, -0.06576774, -0.81696475, 5.7724814, 8.441888, 17.12253, 0
1428, 1969034501, -0.20793718, 0.51616156, -0.02648304, -0.8304444, 4.4082065, 4.541198, 21.755869, 0
1429, 1969051168, -0.23969905, 0.48522383, 0.012440286, -0.8408016, 3.8045266, 1.3038673, 24.553982, 0
1432, 1969101169, -0.31379303, 0.37909126, 0.12825543, -0.86103094, 1.7480199, -12.809356, 14.748516, 0
1433, 1969117836, -0.32358634, 0.3444906, 0.16031569, -0.8665547, 6.760923, -13.3715515, 12.245827, 0
1436, 1969167837, -0.36817145, 0.2638936, 0.22665985, -0.86222684, 7.851834, -9.884931, 5.5078087, 0
1437, 1969184504, -0.39219072, 0.2438527, 0.24023274, -0.8538212, 6.5827627, -9.948274, 5.497203, 0
1439, 1969217838, -0.44480917, 0.20887272, 0.2561138, -0.83241963, 2.5953448, -13.578968, -0.41949368, 0
1440, 1969234505, -0.4665844, 0.19267963, 0.25932825, -0.8233603, 0.1499962, -13.955038, -3.0083814, 0
1442, 1969267839, -0.49527872, 0.1625607, 0.26397514, -0.81153554, -1.010726, -14.08099, -6.2627897, 0
1443, 1969284506, -0.5011559, 0.14957014, 0.2632407, -0.81066376, 0.58569986, -13.484628, -8.098227, 0
1444, 1969301173, -0.50255024, 0.13759139, 0.26071993, -0.8127343, 2.1947863, -15.996281, -5.9820967, 0
1447, 1969351174, -0.5027952, 0.114020035, 0.25549728, -0.81787366, 5.4225216, -13.305007, -12.472574, 0
1448, 1969367841, -0.5023878, 0.11373594, 0.24726227, -0.8206899, 5.5224814, -13.839645, -12.19792, 0
1450, 1969401175, -0.5025685, 0.12213981, 0.22562738, -0.82559, 3.9231315, -15.387235, -10.548233, 0
1452, 1969434509, -0.49079156, 0.14225228, 0.2047148, -0.83485305, 4.970087, -18.240772, -8.475131, 0
1454, 1969467843, -0.46072173, 0.16772331, 0.176639, -0.8534652, 13.248073, -17.8914, -3.4947019, 0
1455, 1969484510, -0.4432974, 0.18431078, 0.16668016, -0.86124, 16.38992, -15.085181, -6.963194, 0
1456, 1969501177, -0.429994, 0.24846491, 0.13848677, -0.8568499, 47.319126, -48.29046, -75.47182, 0
1458, 1969534511, -0.41365212, 0.3166475, 0.078106314, -0.85001504, 13.617474, 44.296204, -37.663673, 0
1459, 1969551178, -0.3966513, 0.33313298, 0.0646018, -0.852946, -8.72215, -6.1509337, 10.990192, 0
1462, 1969601179, -0.34082648, 0.46118233, 0.0020678118, -0.8192338, -4.0880666, 7.315124, 1.4359035, 0
1463, 1969617846, -0.31083652, 0.5320206, -0.043081578, -0.78643405, -4.353856, 6.009919, 4.7854233, 0
1465, 1969651180, -0.21810515, 0.67656046, -0.15372187, -0.6863419, -10.101123, 19.876087, 13.382805, 0
1466, 1969667847, -0.16231987, 0.74257696, -0.22208247, -0.61066425, -8.018368, 31.580786, 20.318565, 0
1469, 1969717848, -0.17298152, 0.8191861, -0.31962585, -0.4436786, -33.755512, -9.0415325, -12.276335, 0
1470, 1969734515, -0.10663658, 0.8326194, -0.32114735, -0.43844905, -31.2254, 26.255728, -2.6680317, 0
1471, 1969751182, -0.06598083, 0.82598025, -0.33636624, -0.4475048, -12.952305, 49.033955, -7.81836, 0
1473, 1969784516, -0.010829076, 0.7875654, -0.372481, -0.4907963, -11.005918, 21.561655, -17.902164, 0
1474, 1969801183, 0.013727669, 0.76150733, -0.38410458, -0.52190214, -0.53182584, 20.908716, -18.495502, 0
1477, 1969851184, -0.0028847419, 0.71675354, -0.39204824, -0.57667494, 3.0049784, 9.824283, -20.846722, 0
1478, 1969867851, -0.02958281, 0.717675, -0.37146994, -0.5882834, 0.1421415, 8.113406, -17.337162, 0
1479, 1969884518, -0.06019865, 0.7220735, -0.34003562, -0.59946775, -1.4346564, 5.1027875, -14.530098, 0
1481, 1969917852, -0.12858762, 0.72873265, -0.26156718, -0.6196743, -5.0284424, 6.079327, -9.102988, 0
1482, 1969934519, -0.16480735, 0.7249256, -0.22001424, -0.63159734, -7.646384, 5.6499925, -6.44938, 0
1485, 1969984520, -0.2655708, 0.66295254, -0.11677949, -0.6901656, 1.2029462, -0.7931346, 2.2698555, 0
1486, 1970001187, -0.29840928, 0.6327441, -0.090094775, -0.7088509, 4.9937673, -3.1919532, 7.181795, 0
1487, 1970017854, -0.3329683, 0.6037164, -0.06432102, -0.7214716, 9.768647, -7.5826135, 8.624985, 0
1489, 1970051188, -0.40590712, 0.5645007, -0.018311074, -0.7185004, 9.030616, -15.067942, 7.3456116, 0
1491, 1970084522, -0.4675792, 0.5394217, 0.013990194, -0.70014167, -0.29527456, -14.588754, 5.8429956, 0
1493, 1970117856, -0.4961627, 0.49756703, 0.03054986, -0.71085596, 1.7691215, -8.96876, 7.5046177, 0
1494, 1970134523, -0.5102931, 0.47657663, 0.037907686, -0.71486974, 9.048913, -8.87459, -1.4308176, 0
1496, 1970167857, -0.54011476, 0.45358694, 0.050074443, -0.7071264, 1.3659682, -10.260374, -0.86235905, 0
1497, 1970184524, -0.5520206, 0.44461977, 0.050420165, -0.7035938, -7.704326, -9.29184, -3.1098995, 0
1498, 1970201191, -0.56170774, 0.4366173, 0.0462974, -0.7012177, -3.5560498, -7.0695415, -3.0087342, 0
1500, 1970234525, -0.5733838, 0.40860143, 0.022416795, -0.7097699, 1.2765598, -22.678814, 3.809741, 0
1501, 1970251192, -0.57491124, 0.40481952, 0.016997594, -0.7108511, 8.42951, -16.842125, 4.3833237, 0
1502, 1970267859, -0.576913, 0.39837718, 0.008204075, -0.71302146, -0.53658485, 2.6693704, -1.8036509, 0
1504, 1970301193, -0.5722675, 0.39336926, -0.009097669, -0.71950525, 2.3274517, 1.3469125, 0.68101215, 0
1506, 1970334527, -0.5671022, 0.39377958, -0.02125675, -0.72310483, -2.6315563, -1.5873647, 0.101037025, 0
1508, 1970367861, -0.5645625, 0.39539263, -0.0249656, -0.7240929, 1.0473912, -1.1266738, -0.2528019, 0
1509, 1970384528, -0.5653393, 0.39496994, -0.02333043, -0.72377187, -1.7199033, -0.72115695, 0.39606476, 0
1510, 1970401195, -0.56689423, 0.39561966, -0.020803533, -0.7222764, -0.19679485, -2.0289888, -0.12456417, 0
1512, 1970434529, -0.5690234, 0.39863983, -0.013537083, -0.71910733, 2.109772, 1.6933835, 0.8910961, 0
1514, 1970467863, -0.5700455, 0.40433678, -0.006375307, -0.7152056, 1.3773226, 1.0644934, -0.030403137, 0
1516, 1970501197, -0.5724243, 0.3990851, -0.006567888, -0.7162529, -1.7358885, 1.6866915, -2.5727491, 0
1517, 1970517864, -0.56865084, 0.39291984, -0.006158931, -0.72264236, 8.117191, -1.150563, -1.7274466, 0
1518, 1970534531, -0.5669857, 0.38827872, -0.005750632, -0.7264527, 1.9402348, 0.49828795, 1.4120388, 0
1521, 1970584532, -0.56663275, 0.3746893, -6.266739E-4, -0.7338491, -4.41425, -1.9515495, 3.0296507, 0
1523, 1970617866, -0.5678772, 0.37674016, 0.004766358, -0.7318193, -2.7354457, 0.16888963, -1.4646788, 0
1524, 1970634533, -0.5671578, 0.37814426, 0.006771614, -0.7316371, -0.9161482, 2.80174, 1.0927963, 0
1525, 1970651200, -0.5668854, 0.37644225, 0.009974815, -0.73268855, 1.2781166, 1.2231592, 2.4210587, 0
1527, 1970684534, -0.55945414, 0.3695546, 0.0137225855, -0.7417897, -1.1086532, -0.3086821, 1.4235697, 0
1528, 1970701201, -0.55303377, 0.36522654, 0.016262045, -0.74866456, -2.1871736, 1.2993348, 1.8434277, 0
1531, 1970751202, -0.5103529, 0.3642572, 0.025964353, -0.77857715, -0.63490117, 0.36925837, 1.92202, 0
1532, 1970767869, -0.493421, 0.36268324, 0.031064631, -0.7899564, 1.7657222, -1.3642303, 1.5805607, 0
1533, 1970784536, -0.47842312, 0.3591789, 0.035996802, -0.8005034, -0.72072333, 0.24800248, -0.9207783, 0
1536, 1970834537, -0.4532488, 0.3388471, 0.04439756, -0.82327193, -2.4227602, 2.1080449, -1.0823946, 0
1537, 1970851204, -0.45432988, 0.33089256, 0.04481303, -0.8258849, -1.8024447, -1.7272228, 0.663373, 0
1539, 1970884538, -0.46203166, 0.3109485, 0.057536166, -0.82856935, -0.78322095, 5.5728493, -6.030885, 0
1540, 1970901205, -0.46313107, 0.3057093, 0.059549153, -0.8297621, 1.1335399, -0.81294835, 6.743784, 0
1541, 1970917872, -0.4632883, 0.30247712, 0.062383495, -0.83065, -2.5333266, 3.8143733, 4.2338343, 0
1543, 1970951206, -0.45680922, 0.3098925, 0.065095864, -0.83129674, -1.2489772, 2.0742114, -6.6540766, 0
1544, 1970967873, -0.4533088, 0.3144791, 0.06605195, -0.83141494, -3.0706217, 0.6706259, -6.7090445, 0
1547, 1971017874, -0.4539126, 0.3190558, 0.07560445, -0.82852304, 0.831401, -1.3460652, -0.8360033, 0
1548, 1971034541, -0.4551345, 0.3203031, 0.07811086, -0.8271378, 1.2780035, -1.9136238, -0.49345016, 0
1551, 1971084542, -0.46083972, 0.31759697, 0.08523596, -0.824314, -0.32460794, -0.6375099, 2.0737858, 0
1552, 1971101209, -0.46147886, 0.31769425, 0.08571485, -0.8238693, 1.5564066, -3.3768117, -0.5016508, 0
1554, 1971134543, -0.46206152, 0.31692052, 0.083966345, -0.8240206, 3.1144252, -2.5208085, 4.1968937, 0
1555, 1971151210, -0.46318, 0.31274688, 0.08149478, -0.8252346, 1.974603, 1.4389236, 4.2770195, 0
1556, 1971167877, -0.46324277, 0.31023574, 0.077227384, -0.8265566, 2.852985, -5.530527, 1.6588869, 0
1558, 1971201211, -0.46402562, 0.3052512, 0.07027477, -0.828591, 0.3022892, -4.7699866, -1.4014454, 0
1559, 1971217878, -0.46446207, 0.30394918, 0.067861855, -0.8290263, -1.3662858, -2.32691, -1.0014467, 0
1560, 1971234545, -0.464819, 0.30311313, 0.06638363, -0.8292521, 1.0181085, -2.955726, 1.622549, 0
1563, 1971284546, -0.4655521, 0.303435, 0.062703885, -0.8290093, -0.10340441, -0.63845193, 1.2775507, 0
1566, 1971334547, -0.46572497, 0.3015686, 0.058725324, -0.8298842, 0.82372445, 2.036258, -2.529159, 0
1567, 1971351214, -0.46681854, 0.3001755, 0.058154717, -0.82981515, 1.0824956, 0.020261897, 4.2976465, 0
1568, 1971367881, -0.46750656, 0.29995236, 0.05747932, -0.8295553, 1.5751253, -1.3171508, 1.6645517, 0
1570, 1971401215, -0.46829796, 0.30181205, 0.055680946, -0.8285564, 1.4096594, 0.3640712, -2.2503881, 0
1571, 1971417882, -0.469984, 0.30064914, 0.055501793, -0.8280365, -0.2710577, 3.279329, 0.53067684, 0
1572, 1971434549, -0.47147647, 0.30029288, 0.055265915, -0.82733285, 0.0074050403, 2.8081114, -0.24598026, 0
1574, 1971467883, -0.4739461, 0.30058265, 0.054687977, -0.8258536, 0.76617855, -1.1759307, -0.44323635, 0
1575, 1971484550, -0.47506458, 0.30132663, 0.054931216, -0.8249231, 0.47786343, -0.9700411, -0.64881134, 0
1577, 1971517884, -0.47768462, 0.30214965, 0.056308556, -0.8230142, -0.47637126, 1.1811144, -0.11980438, 0
1578, 1971534551, -0.47856605, 0.30315462, 0.057349484, -0.8220601, -0.07462842, -0.21270175, -0.3559971, 0
1581, 1971584552, -0.4806429, 0.30461162, 0.06060453, -0.8200737, -0.7738398, -0.037078228, 0.64380264, 0
1582, 1971601219, -0.48030812, 0.30561772, 0.061082244, -0.8198603, -0.83131707, 0.25971183, -3.3509383, 0
1583, 1971617886, -0.48068556, 0.30449343, 0.062010244, -0.8199876, -1.4894252, 1.2225958, -1.1970863, 0
1585, 1971651220, -0.48084068, 0.30288935, 0.06321915, -0.82039833, 0.11897042, -3.8154511, 4.38768, 0
1586, 1971667887, -0.48041537, 0.3023773, 0.06436457, -0.82074726, -1.8114955, 0.9288802, 0.60881805, 0
1587, 1971684554, -0.47961527, 0.3026874, 0.0652434, -0.8210315, -1.048534, -2.0485551, -0.55792046, 0
1589, 1971717888, -0.47780067, 0.3024721, 0.06768753, -0.82197064, -1.3192146, 1.1574606, -1.2255926, 0
1590, 1971734555, -0.47693735, 0.3029704, 0.06904724, -0.82217515, 0.93747014, -1.0568843, 0.5423765, 0
1593, 1971784556, -0.4746388, 0.3028857, 0.074748695, -0.8230375, -1.3505138, 0.59265065, -1.6476984, 0
1595, 1971817890, -0.4729524, 0.303124, 0.07570184, -0.823833, -1.1527691, 1.519345, -1.8471107, 0
1597, 1971851224, -0.47086874, 0.30163032, 0.07583453, -0.8255609, -0.22229244, -1.2634188, 1.18822, 0
1598, 1971867891, -0.4690913, 0.3016494, 0.07549795, -0.8265959, -0.55186546, -0.3111222, -0.1509819, 0
1599, 1971884558, -0.46709573, 0.3017632, 0.074729785, -0.8277535, -1.8794317, 0.4142559, -1.6939917, 0
1601, 1971917892, -0.4636405, 0.30000392, 0.07331173, -0.830458, -1.9698966, 1.6648711, -1.9694548, 0
1602, 1971934559, -0.4616681, 0.29969558, 0.07267521, -0.831723, -0.7004164, -1.1191828, 0.36979008, 0
1604, 1971967893, -0.45877978, 0.298577, 0.07163862, -0.833811, -0.4668272, 0.09229163, 2.0661125, 0
1605, 1971984560, -0.45674947, 0.2994559, 0.07022979, -0.83472955, -1.2947272, 2.7876897, -0.9168415, 0
1606, 1972001227, -0.45501244, 0.29935783, 0.06894099, -0.8358204, -1.7094551, 2.2635934, -0.4013834, 0
1610, 1972067895, -0.44626752, 0.3051825, 0.06235443, -0.8389404, -3.157888, 3.5838635, -1.2845497, 0
1612, 1972101229, -0.4406479, 0.30861652, 0.056564372, -0.84106207, -2.84322, 5.6825447, -1.1799974, 0
1613, 1972117896, -0.43815303, 0.31010887, 0.053218193, -0.8420345, -1.7450655, 2.254693, 2.3172874, 0
1614, 1972134563, -0.4356767, 0.31095514, 0.05096739, -0.8431459, -2.8616984, 4.9126296, -1.0822763, 0
1616, 1972167897, -0.42596313, 0.31470197, 0.047611486, -0.8469067, 0.6574608, 3.889542, -0.73422337, 0
1617, 1972184564, -0.4276211, 0.31444475, 0.049948126, -0.8460319, -2.3023424, 1.9879538, -1.9213448, 0
1618, 1972201231, -0.43046713, 0.31213245, 0.05238724, -0.845297, -0.37497815, 0.2599107, -0.6085596, 0
1620, 1972234565, -0.4377718, 0.30789736, 0.058095507, -0.8427219, 2.6228755, -1.4645852, 0.0433321, 0
1621, 1972251232, -0.44176158, 0.30708674, 0.06193138, -0.84065974, 1.3148267, 0.51834285, 1.8994026, 0
1622, 1972267899, -0.4446776, 0.308601, 0.06519986, -0.83831733, 2.6159444, -1.9082705, 0.72935486, 0
1627, 1972351234, -0.45863155, 0.31310558, 0.07500313, -0.828249, 0.85260916, -7.4593964, -1.4390821, 0
1628, 1972367901, -0.4611912, 0.31254765, 0.07660551, -0.82689065, -0.8329843, -5.559176, 6.572216, 0
1629, 1972384568, -0.4624576, 0.31336203, 0.07832858, -0.8257128, -1.7016494, -1.3149171, 1.5117064, 0
1631, 1972417902, -0.4620101, 0.31579334, 0.07909836, -0.82496345, 1.0115634, -3.366818, -2.67899, 0
1632, 1972434569, -0.46212715, 0.3142049, 0.07892473, -0.8255209, -0.83971334, -2.23771, 1.0757751, 0
1633, 1972451236, -0.46163544, 0.3115301, 0.07694967, -0.82699484, -2.1460812, -2.6777992, 3.3982239, 0
1635, 1972484570, -0.4584653, 0.3074921, 0.072558425, -0.83065826, 2.2296932, -4.837868, -2.2972174, 0
1636, 1972501237, -0.45714483, 0.30623332, 0.0712712, -0.8319616, 0.08266702, -1.6472815, -2.9322906, 0
1637, 1972517904, -0.45648563, 0.3041669, 0.0701999, -0.83317184, 0.34963992, -2.1750453, 0.28489494, 0
1640, 1972567905, -0.45394686, 0.301491, 0.06902277, -0.8356262, 1.2577083, -1.2286578, -2.891994, 0
1643, 1972617906, -0.4530062, 0.30090883, 0.06728312, -0.8364881, -1.3535967, 3.1064067, 1.6790047, 0
1644, 1972634573, -0.4528398, 0.30079958, 0.067457505, -0.8366032, -0.07454872, -0.22453207, 1.5582094, 0
1645, 1972651240, -0.45267504, 0.30118006, 0.067672946, -0.83653826, -0.8694114, 0.33654323, -1.7840853, 0
1647, 1972684574, -0.45265135, 0.30321166, 0.06813957, -0.835779, 1.1682312, -1.6007354, -0.32791138, 0
1648, 1972701241, -0.452621, 0.3046236, 0.06870708, -0.8352351, 0.7696133, -1.921337, 2.891882, 0
1649, 1972717908, -0.45277306, 0.30485994, 0.06912055, -0.83503246, -1.2710317, 2.2319946, -1.964212, 0
1651, 1972751242, -0.45321283, 0.30470616, 0.06960025, -0.83481014, -0.6039243, 2.2786353, -0.95843315, 0
1652, 1972767909, -0.45330447, 0.30472866, 0.06990435, -0.83472687, 1.0371008, -0.47006384, 0.9367237, 0
1655, 1972817910, -0.45189598, 0.30580974, 0.06977401, -0.8351061, 0.10937465, -0.112302914, -5.482867, 0
1656, 1972834577, -0.45203602, 0.30540347, 0.06975169, -0.8351806, -0.16032015, -0.85016966, 0.7948017, 0
1658, 1972867911, -0.4519748, 0.30296424, 0.071005784, -0.8359961, -0.9970042, 1.0458952, 2.5825586, 0
1659, 1972884578, -0.45109677, 0.30330113, 0.071817175, -0.83627886, -2.9249465, 0.31273106, 0.11395359, 0
1660, 1972901245, -0.45005894, 0.3036059, 0.072304055, -0.8366855, -1.5625074, -0.23989512, -1.919097, 0
1662, 1972934579, -0.44902456, 0.303326, 0.07255548, -0.8373207, 0.10438921, 1.2251545, -0.49922752, 0
1663, 1972951246, -0.44864705, 0.30262172, 0.072423935, -0.8377891, 1.4179605, -0.040466014, 1.1930857, 0
1664, 1972967913, -0.44786572, 0.30161282, 0.072465144, -0.8385671, -0.24004498, -0.45420995, 1.3535004, 0
1666, 1973001247, -0.4456152, 0.30106506, 0.07199758, -0.8400018, -3.1223965, 1.3998444, -0.8364401, 0
1667, 1973017914, -0.4443566, 0.30133122, 0.070962355, -0.840661, -1.434866, 0.28492147, -0.55362034, 0
1670, 1973067915, -0.4420661, 0.29890618, 0.071384914, -0.84269613, -0.13385515, 0.1500742, -0.50505733, 0
1672, 1973101249, -0.44056728, 0.29881024, 0.07277407, -0.843396, -1.6418272, -0.24480224, 1.0909624, 0
1674, 1973134583, -0.43658248, 0.30353558, 0.07267509, -0.8437891, -1.851311, 4.7987022, -2.647028, 0
1675, 1973151250, -0.4345102, 0.30540305, 0.07135765, -0.8442973, -0.9691217, 3.9891891, -2.6698341, 0
1676, 1973167917, -0.43273973, 0.30617726, 0.06989059, -0.8450484, -2.080398, 2.7522957, -1.4606905, 0
1678, 1973201251, -0.4306399, 0.30497774, 0.06854231, -0.84666383, -3.5897143, 5.5937047, 0.2467537, 0
1679, 1973217918, -0.42817235, 0.30692184, 0.06645712, -0.84737885, -2.9958563, 2.8776114, -0.09754753, 0
1680, 1973234585, -0.42494473, 0.30967912, 0.06339473, -0.84823453, -1.815628, 3.342555, -3.557931, 0
1682, 1973267919, -0.42345425, 0.30672467, 0.06174037, -0.8501732, -2.568927, 6.131349, 0.2542982, 0
1685, 1973317920, -0.42092896, 0.3071793, 0.058694866, -0.8514779, -1.1017935, 3.264801, -3.0092921, 0
1686, 1973334587, -0.4219038, 0.30639094, 0.059296064, -0.8512377, 0.7346711, -0.5873514, -1.1591959, 0
1689, 1973384588, -0.43119833, 0.29737458, 0.06241488, -0.84955317, 2.8071864, -4.190022, 2.6286583, 0
1690, 1973401255, -0.43389738, 0.29670602, 0.06300067, -0.8483688, 1.0139424, -2.5425653, 1.8326168, 0
1691, 1973417922, -0.4358913, 0.2978664, 0.06403456, -0.8468613, 0.9364776, -2.6724985, -4.5084033, 0
1693, 1973451256, -0.44114068, 0.2983226, 0.06596644, -0.8438286, 4.5497575, -0.9046005, 1.8886337, 0
1694, 1973467923, -0.4438162, 0.2992938, 0.066621065, -0.8420285, 5.2228785, -5.496014, 4.03638, 0
1695, 1973484590, -0.44610432, 0.30128318, 0.066714376, -0.84010035, 4.573968, -5.0015993, -0.32276344, 0
1697, 1973517924, -0.45082733, 0.30213204, 0.06572008, -0.8373483, 0.9704027, -2.070067, 1.0504227, 0
1699, 1973551258, -0.4547094, 0.30422133, 0.06553228, -0.8345024, 0.7126417, -5.8594427, 0.7124853, 0
1701, 1973584592, -0.45704108, 0.30704692, 0.06678087, -0.8320914, 1.3854789, -3.4768512, 0.12110138, 0
1702, 1973601259, -0.45793876, 0.30818388, 0.06736954, -0.83112943, 0.20792028, -1.3672642, -0.3499441, 0
1705, 1973651260, -0.45767763, 0.30630976, 0.06440749, -0.8322002, -0.8967002, -0.5746545, -0.20291233, 0
1706, 1973667927, -0.45693585, 0.30584607, 0.063640475, -0.83283705, 0.5045054, -3.7414548, 1.6082659, 0
1708, 1973701261, -0.45533, 0.30358732, 0.062055264, -0.83466065, -1.8591554, 0.26610458, -1.5093346, 0
1709, 1973717928, -0.4545958, 0.30170113, 0.06120813, -0.8358063, -1.0977395, 0.7306606, -1.7793312, 0
1710, 1973734595, -0.45360088, 0.30056733, 0.06081301, -0.83678377, -0.5206444, -1.565693, 0.8521166, 0
1712, 1973767929, -0.4519902, 0.29739746, 0.059793074, -0.83885884, -0.4963495, -0.12754431, 2.277111, 0
1714, 1973801263, -0.44999978, 0.2964047, 0.05992277, -0.8402699, 0.109518975, 0.06292571, -0.83556557, 0
1716, 1973834597, -0.44917503, 0.2962479, 0.059988774, -0.8407617, 1.1041136, -0.8058637, 0.7219982, 0
1717, 1973851264, -0.449372, 0.29553643, 0.06095794, -0.8408371, -0.112110324, 2.436679, 1.368145, 0
1718, 1973867931, -0.44937864, 0.2960522, 0.061890893, -0.84058404, 0.2047708, 1.1210172, 0.35354805, 0
1721, 1973917932, -0.45001295, 0.29764873, 0.06508142, -0.83943903, 0.27685052, 0.78938496, 0.3505535, 0
1722, 1973934599, -0.45033318, 0.2979559, 0.06584701, -0.8390986, -0.23351075, 0.9647984, 1.110856, 0
1724, 1973967933, -0.45007268, 0.29990354, 0.067690775, -0.8383974, -1.4936568, 1.4168574, -1.5386667, 0
1725, 1973984600, -0.4499429, 0.3005719, 0.068026416, -0.8382006, -0.2519165, 0.39571068, -1.7728081, 0
1726, 1974001267, -0.45019934, 0.3006034, 0.068464905, -0.83801585, 0.38486743, 1.686854, -0.28316784, 0
1729, 1974051268, -0.45022875, 0.30050033, 0.069781855, -0.83792835, -0.627898, -0.08770883, -0.21211529, 0
1730, 1974067935, -0.45012683, 0.30079052, 0.06996939, -0.83786356, 0.07080486, 0.109539114, -0.89489365, 0
1732, 1974101269, -0.45065296, 0.30077574, 0.07124379, -0.83747846, 0.35911763, -0.9114714, 0.100048065, 0
1733, 1974117936, -0.45080855, 0.300571, 0.07139216, -0.83745563, -0.056272626, -0.36044863, 0.58903694, 0
1734, 1974134603, -0.4510143, 0.3004105, 0.07173295, -0.83737314, 1.3128955, -1.0248842, 0.83606434, 0
1736, 1974167937, -0.4518426, 0.30208346, 0.071263686, -0.8363644, -1.0783172, 2.195017, -2.1894484, 0
1737, 1974184604, -0.45253602, 0.30214602, 0.07325621, -0.83579445, 0.34698048, 0.031683967, 1.3037481, 0
1739, 1974217938, -0.4526462, 0.30527505, 0.07534702, -0.8344108, -1.896121, 4.2950354, 2.422575, 0
1740, 1974234605, -0.452486, 0.30490312, 0.07577886, -0.8345944, 2.1422164, -6.30059, 2.6838017, 0
1741, 1974251272, -0.45151842, 0.30637696, 0.07424784, -0.8347163, -0.046886634, -6.7517104, -1.1836824, 0
1744, 1974301273, -0.44861913, 0.30578968, 0.07090947, -0.8367828, -3.1158752, 3.8878205, -2.571745, 0
1745, 1974317940, -0.44795308, 0.3035275, 0.0706951, -0.8379805, -2.3963726, 2.1354373, 2.9067125, 0
1747, 1974351274, -0.44569224, 0.3019656, 0.06877983, -0.83990735, -4.199437, 8.962143, -0.8954563, 0
1748, 1974367941, -0.44470423, 0.30182564, 0.06860931, -0.8404952, 4.9952135, -12.524391, 2.076233, 0
1752, 1974434609, -0.44447377, 0.2997828, 0.06855783, -0.8413518, -4.441629, 9.439859, -1.4788504, 0
1753, 1974451276, -0.44470805, 0.29950297, 0.06909349, -0.8412839, 8.108259, -13.175065, 2.6612978, 0
1755, 1974484610, -0.44542536, 0.2981623, 0.06863006, -0.8414185, 1.2506196, 0.6411727, 2.504343, 0
1756, 1974501277, -0.4454459, 0.2984589, 0.06811227, -0.84134465, 6.177118, -11.670101, -0.7582512, 0
1759, 1974551278, -0.4464615, 0.29682016, 0.067768835, -0.8414139, 2.512849, -8.3266535, 0.17687511, 0
1760, 1974567945, -0.44650495, 0.29639596, 0.06733112, -0.8415754, -2.239695, 2.1880555, -2.2462816, 0
1761, 1974584612, -0.44696295, 0.2952727, 0.06769404, -0.84169805, 2.73575, -4.5220437, 2.9998178, 0
1763, 1974617946, -0.44778365, 0.29532194, 0.06779845, -0.84123594, -0.14204359, -2.9765785, -2.4911733, 0
1764, 1974634613, -0.44819605, 0.2939323, 0.06824416, -0.841467, -0.5535937, 1.6600751, 0.33109188, 0
1766, 1974667947, -0.44898885, 0.29471526, 0.06869123, -0.84073377, 2.3044407, -6.297143, 0.6163473, 0
1768, 1974701281, -0.4490141, 0.29483983, 0.06891759, -0.84065795, 2.253818, -4.4378676, 0.46057987, 0
1770, 1974734615, -0.45032427, 0.2952281, 0.069869325, -0.83974206, 0.6558465, -1.9468952, -1.9093575, 0
1771, 1974751282, -0.45057416, 0.29486176, 0.06971483, -0.83974963, 0.58941096, -4.4822006, 0.8327751, 0
1774, 1974801283, -0.45078102, 0.29382235, 0.06905044, -0.84005773, -1.1860331, 0.7179568, 1.12078, 0
1775, 1974817950, -0.45082626, 0.29359192, 0.06940919, -0.8400843, 4.3160157, -10.006543, 1.3633623, 0
1776, 1974834617, -0.45066836, 0.29391915, 0.069686, -0.84003186, -0.74682313, -1.1817802, -1.0909243, 0
1779, 1974884618, -0.4505599, 0.29416156, 0.07192386, -0.8398165, 2.6186464, -4.4088407, 1.2383928, 0
1780, 1974901285, -0.45027623, 0.2943042, 0.07208621, -0.8399046, 2.5761006, -8.25993, 1.2138844, 0
1782, 1974934619, -0.44910938, 0.29294682, 0.071114026, -0.8410861, 1.3174006, -1.8217396, 0.21553707, 0
1783, 1974951286, -0.44894445, 0.2924098, 0.07085309, -0.8413829, 1.3624914, -2.303127, 0.6535616, 0
1786, 1975001287, -0.44696504, 0.2915187, 0.06932471, -0.84287196, 0.21783768, 0.9404111, 0.02513504, 0
1789, 1975051288, -0.445347, 0.2897113, 0.06649891, -0.8445773, 1.0582316, -5.4292436, -1.169652, 0
1790, 1975067955, -0.44475904, 0.28828275, 0.0654781, -0.8454555, -1.2410305, 2.9140723, -1.4760933, 0
1791, 1975084622, -0.44469255, 0.2869583, 0.06512533, -0.8459681, 2.7758596, -1.2911913, 1.0501156, 0
1793, 1975117956, -0.4443439, 0.2869459, 0.065019235, -0.84616375, 1.7389548, -7.407753, 1.5623713, 0
1794, 1975134623, -0.44343245, 0.2876815, 0.06430117, -0.8464469, 0.61194944, -4.6825914, -2.153767, 0
1795, 1975151290, -0.44293165, 0.28741813, 0.06355571, -0.8468546, -0.38604113, 1.9739248, -3.120669, 0
1797, 1975184624, -0.44364628, 0.28568855, 0.063218325, -0.8470913, 1.19094, -0.9622357, 1.4853954, 0
1798, 1975201291, -0.4437775, 0.28488538, 0.063305385, -0.84728634, 3.7599757, -8.108727, 3.3599396, 0
1799, 1975217958, -0.44361973, 0.28475302, 0.06276119, -0.8474538, 0.89313966, -4.9743314, -0.42443085, 0
1803, 1975284626, -0.44479695, 0.28444305, 0.060999386, -0.8470696, 1.7628008, -2.1186485, 1.4834309, 0
1805, 1975317960, -0.4458867, 0.28348634, 0.060380016, -0.84686184, 2.003946, -5.172045, 0.70816135, 0
1806, 1975334627, -0.44616696, 0.2838282, 0.059779845, -0.84664214, 0.6984122, -3.7398314, -1.0777006, 0
1807, 1975351294, -0.44643745, 0.28403285, 0.059110537, -0.84647787, 1.6495616, -3.1055496, -1.2205057, 0
1809, 1975384628, -0.44726333, 0.28425866, 0.05786668, -0.84605193, 1.1206963, -0.9947507, -0.8775101, 0
1810, 1975401295, -0.44799557, 0.28378886, 0.057170082, -0.84586966, 1.5311893, -2.4797664, 1.0212116, 0
1811, 1975417962, -0.44870827, 0.28324378, 0.056616336, -0.8457117, 0.770555, -2.670393, 0.97129154, 0
1813, 1975451296, -0.4491804, 0.28367355, 0.055134315, -0.845415, 0.17492858, -2.8365867, -1.0329647, 0
1814, 1975467963, -0.44930586, 0.2840842, 0.054631677, -0.84524304, 1.7758464, -3.6603944, -0.07218933, 0
1816, 1975501297, -0.44994318, 0.28454247, 0.053449053, -0.8448252, 1.7622571, -3.344072, -0.017682076, 0
1818, 1975534631, -0.4506891, 0.2835928, 0.05179924, -0.8448498, 1.208661, -2.2401953, 0.25133228, 0
1820, 1975567965, -0.45096138, 0.28327355, 0.050282408, -0.84490323, -0.052171107, -2.8900104, 0.21052074, 0
1821, 1975584632, -0.45082504, 0.28313455, 0.049571924, -0.84506464, 0.75122976, -2.4164388, -0.09215641, 0
1822, 1975601299, -0.45064324, 0.2833365, 0.048931018, -0.8451313, 1.3904886, -3.0990398, -0.06442642, 0
1824, 1975634633, -0.45024133, 0.28353855, 0.04760265, -0.8453535, 1.0291348, -3.0551195, -0.5078335, 0
1825, 1975651300, -0.4500642, 0.28352094, 0.047216803, -0.84547526, 1.0819874, -2.495215, -0.05489731, 0
1826, 1975667967, -0.4498327, 0.2839331, 0.047162287, -0.8454634, 1.2175821, -3.3253024, -0.09867287, 0
1828, 1975701301, -0.44910797, 0.28401682, 0.046595532, -0.8458517, 0.23928916, -1.5659293, 0.29388046, 0
1829, 1975717968, -0.44843942, 0.28420633, 0.045910925, -0.84618014, 1.4830343, -2.8747346, -0.018706322, 0
1833, 1975784636, -0.4458792, 0.28576288, 0.04418942, -0.84710014, 1.7172844, -3.2021801, 0.038869858, 0
