sep=,
DeviceTag:,Xsens_DOT_3,,,,,,,,,,,,,,,,,
FirmwareVersion:,3.0.0,,,,,,,,,,,,,,,,,
AppVersion:,2023.6.1,,,,,,,,,,,,,,,,,
SyncStatus:,Synced,,,,,,,,,,,,,,,,,
OutputRate:,60Hz,,,,,,,,,,,,,,,,,
FilterProfile:,General,,,,,,,,,,,,,,,,,
Measurement Mode:,Sensor fusion Mode - Extended (Quaternion),,,,,,,,,,,,,,,,,
StartTime:,2025-05-05 11:55:12.448 +0200,,,,,,,,,,,,,,,,,
 2025,,,,,,,,,,,,,,,,,,,

PacketCounter,SampleTimeFine,Quat_W,Quat_X,Quat_Y,Quat_Z,FreeAcc_X,FreeAcc_Y,FreeAcc_Z,Status
1, 2905453229, 0.44410414, -0.5108117, -0.16424339, -0.7175502, -0.17977448, -0.041888677, 0.08026123, 0
2, 2905469896, 0.44449317, -0.51077384, -0.16452907, -0.71727073, -0.17545356, -0.12893948, 0.021260262, 0
3, 2905486563, 0.4448176, -0.5107487, -0.16479257, -0.7170271, -0.12761246, -0.17953019, -0.03530407, 0
4, 2905503230, 0.4450903, -0.51071954, -0.16500604, -0.71682936, -0.078989826, -0.19848956, -0.063337326, 0
5, 2905519897, 0.44534475, -0.5106414, -0.16518144, -0.7166867, -0.08682124, -0.22091004, -0.045856476, 0
6, 2905536564, 0.44552994, -0.5105726, -0.16528818, -0.7165959, -0.08944047, -0.22898735, -0.039125443, 0
7, 2905553231, 0.44566232, -0.51049596, -0.1653536, -0.7165531, -0.07387926, -0.24079531, -0.007584572, 0
8, 2905569898, 0.44572318, -0.51044154, -0.16538984, -0.7165457, -0.10578585, -0.19738463, 0.0132761, 0
9, 2905586565, 0.44576937, -0.5104028, -0.16543514, -0.7165342, -0.12959322, -0.12555315, 0.039732933, 0
10, 2905603232, 0.4457676, -0.5104469, -0.16547418, -0.7164946, -0.124720134, -0.094763026, 0.019192696, 0
11, 2905619899, 0.44575286, -0.5105454, -0.1655252, -0.71642196, -0.06579861, -0.09956798, -0.07758331, 0
12, 2905636566, 0.4457416, -0.5105758, -0.16552469, -0.7164075, -0.0050920444, -0.12585802, -0.08912754, 0
13, 2905653233, 0.44570866, -0.5105654, -0.16549768, -0.71644163, -0.033295803, -0.21799599, -0.06622982, 0
14, 2905669900, 0.4456153, -0.5105821, -0.16545704, -0.71649706, -0.07101842, -0.22139092, 0.005420685, 0
15, 2905686567, 0.44558293, -0.5105514, -0.16538368, -0.7165561, -0.1425878, -0.20106041, 0.06896019, 0
16, 2905703234, 0.44554913, -0.5105412, -0.16530836, -0.7166016, -0.14810173, -0.15022574, 0.11229038, 0
17, 2905719901, 0.44551775, -0.510567, -0.1652559, -0.71661484, -0.13039146, -0.11973019, 0.03126335, 0
18, 2905736568, 0.44549173, -0.5105619, -0.16518559, -0.7166511, -0.11730947, -0.13658608, -0.015769958, 0
19, 2905753235, 0.44550505, -0.51051986, -0.16510192, -0.716692, -0.1254154, -0.15168405, -0.014778137, 0
20, 2905769902, 0.44547567, -0.51057994, -0.16499524, -0.7166921, -0.05714908, -0.14975245, -0.0021047592, 0
21, 2905786569, 0.4454194, -0.51067555, -0.16487813, -0.7166857, -0.10338118, -0.20964576, -0.0555439, 0
22, 2905803236, 0.4453557, -0.51072294, -0.1647372, -0.716724, -0.1405291, -0.22120407, -0.028050423, 0
23, 2905819903, 0.4452715, -0.51076204, -0.16461283, -0.7167771, -0.18290925, -0.1951105, 0.003323555, 0
24, 2905836570, 0.44519484, -0.5107708, -0.16452377, -0.7168388, -0.15443866, -0.100995556, 0.004876137, 0
25, 2905853237, 0.44513255, -0.51078904, -0.16446765, -0.71687746, -0.15347472, -0.09477966, -0.01897335, 0
26, 2905869904, 0.4450714, -0.51084703, -0.1644341, -0.7168817, -0.07923153, -0.10420342, -0.067770004, 0
28, 2905903238, 0.44475317, -0.5109899, -0.16427898, -0.717013, -0.13570157, -0.1844382, -0.021492958, 0
29, 2905919905, 0.444595, -0.51100105, -0.16416164, -0.7171298, -0.17565563, -0.209859, 0.032169342, 0
31, 2905953239, 0.44426304, -0.5112378, -0.16393721, -0.7172183, -0.15291514, -0.18025538, 0.050671577, 0
32, 2905969906, 0.44410557, -0.5113765, -0.16381773, -0.71724427, -0.11584628, -0.13741264, -0.048651695, 0
33, 2905986573, 0.44396996, -0.5114864, -0.16369857, -0.71727705, -0.101910986, -0.07567243, -0.021047592, 0
35, 2906019907, 0.44369262, -0.51180077, -0.16345586, -0.7172797, -0.11544771, -0.112791345, -0.061077118, 0
36, 2906036574, 0.4435239, -0.51188475, -0.16335426, -0.71734715, -0.14530158, -0.10193532, -0.048155785, 0
37, 2906053241, 0.44336647, -0.5119201, -0.16329318, -0.71743315, -0.20211048, -0.11137148, -0.0134010315, 0
41, 2906119909, 0.44301736, -0.51208466, -0.16323766, -0.717544, -0.10832379, -0.12375644, -0.014426231, 0
44, 2906169910, 0.44289, -0.5122601, -0.16319677, -0.7175069, -0.16101785, -0.12350488, -0.03837967, 0
46, 2906203244, 0.44277906, -0.512186, -0.16321917, -0.71762294, -0.14593245, -0.09303593, 0.019116402, 0
47, 2906219911, 0.44275188, -0.51219493, -0.1632311, -0.7176308, -0.124988735, -0.10979102, -0.0037250519, 0
48, 2906236578, 0.4427297, -0.5122051, -0.16323985, -0.7176352, -0.10810557, -0.11635347, -0.010286331, 0
50, 2906269912, 0.44267976, -0.5121761, -0.16332382, -0.7176675, -0.1234801, -0.1346185, -0.002327919, 0
51, 2906286579, 0.44267094, -0.5121718, -0.16337864, -0.71766365, -0.11961807, -0.13116634, 0.026447296, 0
54, 2906336580, 0.44285294, -0.5121035, -0.16353238, -0.7175652, -0.17867509, -0.121558525, 0.014719963, 0
56, 2906369914, 0.44298303, -0.51203775, -0.16366065, -0.7175024, -0.11510803, -0.13435163, -0.008652687, 0
59, 2906419915, 0.44309533, -0.5120895, -0.16381423, -0.71736115, -0.18701506, -0.17831014, 0.009224892, 0
63, 2906486583, 0.44304836, -0.5123509, -0.16393694, -0.71717536, -0.10068202, -0.17741822, 0.014920235, 0
64, 2906503250, 0.4429716, -0.5123827, -0.16391152, -0.7172058, -0.12438527, -0.20119463, -0.017920494, 0
66, 2906536584, 0.4426229, -0.5126921, -0.16378608, -0.7172288, -0.10924497, -0.2659031, -6.1511993E-4, 0
67, 2906553251, 0.44224995, -0.512943, -0.16367137, -0.7173056, -0.122349985, -0.258961, -0.017007828, 0
68, 2906569918, 0.4417948, -0.5131271, -0.16348739, -0.71749645, -0.0987844, -0.1755777, -0.014669418, 0
70, 2906603252, 0.4410327, -0.51328784, -0.16303483, -0.717953, -0.11850774, -0.088737324, -0.012729645, 0
74, 2906669920, 0.44004253, -0.5138936, -0.16244581, -0.7182607, -0.1538089, -0.05290719, -0.086940765, 0
75, 2906686587, 0.4399153, -0.5140786, -0.16241515, -0.7182133, -0.07133725, -0.047451355, -0.0792408, 0
78, 2906736588, 0.4399142, -0.51426506, -0.16243786, -0.71807516, -0.15580401, -0.22775322, 0.04780197, 0
79, 2906753255, 0.4400089, -0.5142499, -0.1624747, -0.71801966, -0.18929783, -0.20547065, 0.10252285, 0
83, 2906819923, 0.44035804, -0.5143588, -0.16259244, -0.71770096, -0.09388454, -0.17502998, -0.0715332, 0
85, 2906853257, 0.44052005, -0.51441485, -0.16267632, -0.7175423, -0.14922434, -0.13023888, -0.025801659, 0
86, 2906869924, 0.4406668, -0.51436746, -0.16278131, -0.71746236, -0.15084954, -0.070589304, -0.0043792725, 0
87, 2906886591, 0.44083786, -0.51431596, -0.1628978, -0.71736777, -0.20262635, -0.15285492, -6.1511993E-4, 0
90, 2906936592, 0.4415276, -0.514255, -0.16306093, -0.7169501, -0.13141562, -0.33613533, 0.050976753, 0
91, 2906953259, 0.44170037, -0.51425534, -0.16310945, -0.7168325, -0.11256611, -0.25199902, -0.0089674, 0
93, 2906986593, 0.4422592, -0.5141537, -0.1634935, -0.7164732, -0.12255846, -0.07919673, -0.10560036, 0
94, 2907003260, 0.44272405, -0.51402694, -0.1637583, -0.7162167, -0.14164335, -0.212593, -0.0939188, 0
96, 2907036594, 0.4438706, -0.5137727, -0.1642468, -0.71557724, -0.24610548, -0.44991335, 0.046975136, 0
97, 2907053261, 0.4444434, -0.51366806, -0.16457234, -0.71522224, -0.306986, -0.36481428, 0.04687023, 0
98, 2907069928, 0.44514576, -0.51354533, -0.16504654, -0.71476376, -0.30970022, -0.16670759, 0.11210537, 0
100, 2907103262, 0.4466693, -0.51363015, -0.16610394, -0.71350634, -0.21271469, -0.13670701, -0.059002876, 0
101, 2907119929, 0.44753295, -0.51364946, -0.16661106, -0.71283275, -0.23233081, -0.29430455, -0.110453606, 0
102, 2907136596, 0.4485372, -0.51356745, -0.1670853, -0.7121494, -0.24206834, -0.3308773, -0.09396076, 0
104, 2907169930, 0.45054892, -0.5137256, -0.16835256, -0.710465, -0.22670305, -0.18553184, -0.03272724, 0
105, 2907186597, 0.45148844, -0.5138763, -0.16909306, -0.70958304, -0.1533764, -0.10673403, -0.036709785, 0
106, 2907203264, 0.45237508, -0.5140538, -0.16985005, -0.7087086, -0.14063692, -0.07969935, 0.008576393, 0
108, 2907236598, 0.45393613, -0.5147377, -0.17108428, -0.7069148, -0.09727865, -0.26133066, 0.0494833, 0
109, 2907253265, 0.45452338, -0.51508844, -0.17146698, -0.70618904, -0.06642489, -0.19440034, -0.13681126, 0
112, 2907303266, 0.45647067, -0.5155248, -0.17323364, -0.70418036, -0.31964624, -0.10754784, 0.92334175, 0
113, 2907319933, 0.45686284, -0.5159254, -0.17394385, -0.7034572, -0.0812094, 0.030826684, -0.06807995, 0
114, 2907336600, 0.4573971, -0.5159722, -0.17442349, -0.7029567, -0.089219876, -0.040272117, 0.035378456, 0
116, 2907369934, 0.45872355, -0.5156838, -0.17511776, -0.7021309, -0.10080518, -0.107495315, 0.1809082, 0
117, 2907386601, 0.45930374, -0.5156651, -0.17548367, -0.70167404, -0.1262323, -0.06631428, 0.100185394, 0
118, 2907403268, 0.45987535, -0.515666, -0.17592043, -0.7011892, -0.08047045, -0.054609913, -0.014893532, 0
121, 2907453269, 0.462154, -0.51498973, -0.17739055, -0.69981664, -0.055195324, -0.04606166, 0.09658337, 0
127, 2907553271, 0.4655528, -0.5155564, -0.17930442, -0.6966516, 0.2615714, -0.45004648, -0.1635809, 0
129, 2907586605, 0.466043, -0.5148906, -0.17864263, -0.69698614, -0.012216855, -0.27014893, 0.2976036, 0
131, 2907619939, 0.4661906, -0.51441175, -0.17828357, -0.69733286, -0.25925452, 0.07952792, 0.16394329, 0
133, 2907653273, 0.46693397, -0.51437527, -0.17911375, -0.69664925, -0.32623526, 0.05140653, -0.13525295, 0
135, 2907686607, 0.4678883, -0.51479226, -0.18113483, -0.69517666, -0.23260036, -0.027676156, -0.10556221, 0
137, 2907719941, 0.468788, -0.51448816, -0.18430856, -0.69396055, -0.23470151, -0.23073444, -0.47337914, 0
139, 2907753275, 0.46982503, -0.5127919, -0.18776253, -0.693589, -0.4831949, 0.07782676, -0.12536812, 0
140, 2907769942, 0.47053367, -0.51190364, -0.18997094, -0.6931629, -0.6515592, 0.398362, 0.06036949, 0
141, 2907786609, 0.47098613, -0.5117132, -0.19224027, -0.69237024, -0.53326523, 0.23021455, 0.13183117, 0
143, 2907819943, 0.4719872, -0.5121504, -0.19707593, -0.69000167, -0.2978426, -0.05976122, 0.09532261, 0
144, 2907836610, 0.4724897, -0.5125742, -0.19943595, -0.68866384, -0.17971784, -0.055323035, 0.052046776, 0
145, 2907853277, 0.47311997, -0.512821, -0.20180999, -0.6873543, -0.22522685, 0.06482747, -0.07780266, 0
147, 2907886611, 0.47431946, -0.51325244, -0.20700184, -0.68465644, -0.33097133, 0.35622278, -0.10104942, 0
151, 2907953279, 0.4784581, -0.51268685, -0.2158955, -0.6794338, -0.08258809, -0.21092582, 0.19477177, 0
152, 2907969946, 0.47988224, -0.5125339, -0.21775135, -0.6779511, -0.06635815, -0.17513615, 0.083039284, 0
154, 2908003280, 0.48405844, -0.51189697, -0.22139406, -0.6742736, -0.15135208, -0.10250371, 0.024170876, 0
155, 2908019947, 0.48718983, -0.5111555, -0.22325611, -0.67196304, -0.30584267, 0.089162, 0.2859068, 0
156, 2908036614, 0.49087802, -0.51007706, -0.225106, -0.66947645, -0.4396919, 0.0539244, 0.420434, 0
158, 2908069948, 0.4979738, -0.5076745, -0.22926809, -0.66463244, -0.23572366, -0.026249139, 0.07446766, 0
159, 2908086615, 0.5006934, -0.50644857, -0.23139195, -0.6627858, 0.06300665, -0.35043767, -0.2597332, 0
162, 2908136616, 0.50714195, -0.5015208, -0.23416413, -0.6606532, 0.08305177, -0.64829695, 0.037093163, 0
163, 2908153283, 0.50920707, -0.49979773, -0.23487392, -0.6601181, -0.11415295, -0.33067444, 0.15510082, 0
164, 2908169950, 0.5109524, -0.4982725, -0.23596472, -0.65953326, -0.1796812, -0.19967139, 0.11052418, 0
167, 2908219951, 0.5141818, -0.49527726, -0.23850112, -0.658366, 0.25549513, -0.2569886, -0.34433556, 0
168, 2908236618, 0.51500195, -0.4944703, -0.2389897, -0.6581544, 0.17047825, -0.20926657, -0.25103664, 0
170, 2908269952, 0.5163245, -0.4933423, -0.23997512, -0.6576061, -0.10175416, -0.52712816, -0.07113838, 0
171, 2908286619, 0.51710236, -0.49261308, -0.24061224, -0.6573085, -0.24831557, -0.5328237, 0.075798035, 0
172, 2908303286, 0.51815796, -0.4918542, -0.2413949, -0.65675825, -0.2949192, -0.45300007, 0.2720356, 0
175, 2908353287, 0.5217133, -0.49038622, -0.24492756, -0.6537265, 0.021413574, -0.3728149, -0.27841187, 0
176, 2908369954, 0.5228243, -0.48984912, -0.24639407, -0.6526899, 0.03593024, -0.5083219, -0.36216164, 0
178, 2908403288, 0.52482593, -0.48870915, -0.24927329, -0.6508419, -0.16674544, -0.43525168, -0.08186054, 0
179, 2908419955, 0.52592033, -0.48812386, -0.2507729, -0.64982086, -0.28291124, -0.277799, 0.069441795, 0
181, 2908453289, 0.52775264, -0.48694986, -0.25352678, -0.6481453, 0.022630295, -0.54428935, 0.06542683, 0
182, 2908469956, 0.5284058, -0.48645216, -0.25446555, -0.64761883, 0.15862723, -0.6361409, 0.09921551, 0
183, 2908486623, 0.52899504, -0.48605558, -0.2551056, -0.6471835, 0.18122296, -0.52674025, 0.064621925, 0
185, 2908519957, 0.52988064, -0.4858133, -0.25589022, -0.6463307, 0.14038341, -0.29805407, -0.1971569, 0
186, 2908536624, 0.5302066, -0.4856738, -0.2559746, -0.6461348, 0.14336383, -0.35438135, -0.06252766, 0
187, 2908553291, 0.53022224, -0.48562178, -0.25568348, -0.64627624, 0.09108611, -0.48176306, -0.048542023, 0
189, 2908586625, 0.5293572, -0.4856778, -0.25375628, -0.64770126, 0.14553124, -0.58326477, 0.093123436, 0
190, 2908603292, 0.52858233, -0.48595327, -0.2523352, -0.648682, 0.17813557, -0.48748398, 0.0324955, 0
193, 2908653293, 0.5257042, -0.48757088, -0.24790433, -0.65150934, 0.018051662, -0.22680105, -0.060567856, 0
194, 2908669960, 0.52433676, -0.48822656, -0.24658531, -0.65261996, -0.07717377, -0.15843761, -0.10525131, 0
197, 2908719961, 0.5201193, -0.4904293, -0.24409959, -0.6552724, 0.004241242, -0.17152798, -0.05692005, 0
198, 2908736628, 0.5188644, -0.49119258, -0.24300244, -0.65610254, 0.1411689, -0.5947565, -0.02838707, 0
201, 2908786629, 0.5153087, -0.49354848, -0.23894674, -0.6586217, -0.22521791, -0.031505715, 0.042695045, 0
203, 2908819963, 0.51269317, -0.49478155, -0.2373456, -0.66031444, -0.34954175, 0.17822297, 0.16419125, 0
205, 2908853297, 0.5098971, -0.49588013, -0.23650637, -0.6619547, -0.3142061, -0.009642796, 0.069187164, 0
206, 2908869964, 0.50853956, -0.49640277, -0.23594375, -0.66280735, -0.25252256, 0.016417809, -0.100803375, 0
208, 2908903298, 0.5062917, -0.49727818, -0.23474368, -0.6642965, -0.19711973, -0.0458611, -0.11705017, 0
209, 2908919965, 0.5055183, -0.49761432, -0.23417875, -0.6648329, -0.2415162, -0.006137554, 0.022725105, 0
210, 2908936632, 0.50494367, -0.49805662, -0.23376991, -0.6650822, -0.24039508, 0.18908258, 0.035778046, 0
212, 2908969966, 0.5039662, -0.49925196, -0.23333457, -0.66508025, -0.042497914, 0.031269126, -0.20432758, 0
214, 2909003300, 0.5031173, -0.49985433, -0.23293132, -0.6654117, -0.08731008, -0.20598541, -0.06085491, 0
216, 2909036634, 0.5027774, -0.50032526, -0.23230399, -0.66553426, -0.15692203, -0.23821408, -0.0057764053, 0
217, 2909053301, 0.5024477, -0.5007204, -0.23201445, -0.665587, 0.2929867, -0.63401294, -0.040908813, 0
218, 2909069968, 0.50219846, -0.50106305, -0.23123759, -0.6657876, 0.3407403, -0.65482503, 0.02194786, 0
220, 2909103302, 0.5014851, -0.5015833, -0.22958499, -0.6665049, 0.018682135, -0.14897195, -0.06502628, 0
221, 2909119969, 0.5008451, -0.5017576, -0.22891575, -0.6670848, -0.019920563, -0.24468422, -0.06896877, 0
222, 2909136636, 0.50018847, -0.5018297, -0.22805917, -0.66781634, -0.021790138, -0.50227326, 0.12674809, 0
224, 2909169970, 0.49916252, -0.50185883, -0.22565818, -0.6693759, -0.1639942, -0.35621238, 0.033546448, 0
225, 2909186637, 0.4987284, -0.5019476, -0.22455366, -0.67000425, -0.17360693, 0.003039482, -0.101433754, 0
226, 2909203304, 0.49819684, -0.5021889, -0.22376294, -0.6704831, -0.1624757, 0.11398245, -0.20712471, 0
229, 2909253305, 0.49613816, -0.50277466, -0.22194055, -0.6721743, -0.23705558, 0.033472072, -0.08614063, 0
230, 2909269972, 0.49516618, -0.502779, -0.22159657, -0.6730007, -0.3700949, 0.058219984, 0.1227169, 0
232, 2909303306, 0.49309775, -0.5031976, -0.2211971, -0.6743367, -0.29600966, -0.0574036, 0.23586941, 0
233, 2909319973, 0.49220526, -0.5036953, -0.22091115, -0.6747105, -0.07961487, -0.2552023, 0.03349209, 0
235, 2909353307, 0.49115312, -0.5043737, -0.22044334, -0.6751236, -0.15437903, -0.08660043, -0.15882969, 0
236, 2909369974, 0.49079558, -0.5046534, -0.22038685, -0.67519283, -0.17570588, -0.20065495, -0.0911293, 0
237, 2909386641, 0.49059474, -0.50487536, -0.22048247, -0.67514175, -0.23846723, -0.17790268, 0.11124897, 0
239, 2909419975, 0.49004632, -0.5057462, -0.22079523, -0.6747861, -0.11824073, -0.09447546, -0.031368256, 0
240, 2909436642, 0.48945436, -0.50618637, -0.22082937, -0.67487454, -0.018205633, -0.22189897, -0.14047241, 0
241, 2909453309, 0.48872018, -0.50642, -0.22068329, -0.6752789, 0.09202384, -0.25702524, -0.30154705, 0
245, 2909519977, 0.4860167, -0.506981, -0.21895579, -0.67736846, -0.23264664, -0.18998635, 0.29658222, 0
247, 2909553311, 0.48485, -0.5075843, -0.21842602, -0.6779234, -0.19081955, 0.035641152, 0.037184715, 0
248, 2909569978, 0.48431036, -0.50792086, -0.21810603, -0.6781599, 0.06420432, -0.2847145, -0.23697376, 0
249, 2909586645, 0.4838882, -0.5081175, -0.2174768, -0.67851585, 0.24621066, -0.51353264, -0.31793785, 0
251, 2909619979, 0.48317182, -0.50769675, -0.21537203, -0.68001115, 0.11324058, -0.36458963, -0.09945774, 0
252, 2909636646, 0.48282838, -0.46458817, -0.13240628, -0.7304207, 4.667692, 2.8616605, -11.55463, 1024
253, 2909653313, 0.47215503, -0.4736415, -0.13120256, -0.7317994, -7.7817893, -0.21949866, 15.647427, 0
255, 2909686647, 0.47353417, -0.48180735, -0.12474377, -0.7266892, 1.7740911, -2.5664673, -1.3600941, 0
256, 2909703314, 0.47569892, -0.48423576, -0.1223707, -0.72406006, -0.14011309, -0.6493573, 0.7957573, 0
257, 2909719981, 0.47439128, -0.48702428, -0.12168788, -0.7231623, -0.8933477, 0.15941569, 1.6730957, 0
259, 2909753315, 0.4707498, -0.49103913, -0.14345112, -0.71882427, -1.1589013, 1.2720484, 2.1272097, 0
260, 2909769982, 0.4653721, -0.5023154, -0.17471334, -0.7075272, -0.12766401, 1.5443645, 1.9827261, 0
262, 2909803316, 0.4585358, -0.50911915, -0.18391283, -0.7047908, 0.8358601, -1.300659, -0.8787012, 0
263, 2909819983, 0.45663714, -0.5098699, -0.18307644, -0.7056979, 0.4913954, -0.8823692, 0.22802162, 0
266, 2909869984, 0.4523566, -0.5103785, -0.17865682, -0.709211, 0.09164586, 0.54914796, -0.08935642, 0
267, 2909886651, 0.4512741, -0.51072806, -0.17747062, -0.7099464, 0.049717076, 0.28984445, -0.39662075, 0
268, 2909903318, 0.4503352, -0.51097363, -0.17644039, -0.7106225, -0.051573016, 0.07244167, -0.37874317, 0
270, 2909936652, 0.44855577, -0.51122284, -0.17469591, -0.7119983, -0.35263142, 0.015031805, 0.028437614, 0
271, 2909953319, 0.44760242, -0.5115088, -0.17406656, -0.71254677, -0.28595126, 3.6622598E-4, 0.13213539, 0
274, 2910003320, 0.44484806, -0.5125364, -0.17363645, -0.71363735, -0.12496839, 0.038959097, -0.22111607, 0
275, 2910019987, 0.44424978, -0.51255596, -0.17367062, -0.71398747, -0.19429418, -0.0109461, -0.16326618, 0
276, 2910036654, 0.44384664, -0.5124824, -0.17389323, -0.7142368, -0.3223408, 0.07027169, -0.029017448, 0
278, 2910069988, 0.44345072, -0.5125642, -0.17473973, -0.7142173, -0.25492167, -0.15411532, 0.15302849, 0
279, 2910086655, 0.4433852, -0.5125886, -0.17499797, -0.7141774, -0.22640793, -0.27020034, -0.04259777, 0
280, 2910103322, 0.44319022, -0.51227623, -0.17531641, -0.71444446, -0.23000863, -0.1587218, -0.0602293, 0
282, 2910136656, 0.44303268, -0.5107601, -0.17620702, -0.7154078, -0.32697096, 0.041835144, 0.015611649, 0
283, 2910153323, 0.44308603, -0.510125, -0.17691737, -0.7156527, -0.3717045, -0.05517149, 0.008713722, 0
284, 2910169990, 0.44304574, -0.50963134, -0.17771995, -0.71583045, -0.40310213, -0.28826454, 0.08608246, 0
286, 2910203324, 0.44368804, -0.5077522, -0.17798366, -0.71670204, -0.5524283, -0.2983224, 0.22235012, 0
289, 2910253325, 0.44609925, -0.5044254, -0.18022335, -0.71699476, -0.2929018, -0.16788405, -0.27640438, 0
290, 2910269992, 0.44706622, -0.503862, -0.1809774, -0.7165984, -0.37870634, -0.2668729, -0.068434715, 0
291, 2910286659, 0.44799286, -0.5031931, -0.18163535, -0.7163232, -0.36494172, -0.43496877, -0.17229176, 0
293, 2910319993, 0.44990313, -0.5012738, -0.18306263, -0.71610814, -0.16057588, -0.3230624, -0.108530045, 0
294, 2910336660, 0.4509163, -0.5005152, -0.18356934, -0.7158721, -0.20910287, -0.14184545, -0.029055595, 0
295, 2910353327, 0.45167017, -0.49997535, -0.1842394, -0.7156017, -0.16334446, -0.28249815, -0.05460739, 0
297, 2910386661, 0.4527325, -0.49890038, -0.18545595, -0.71536636, -0.14921145, -0.46771705, -0.050581932, 0
298, 2910403328, 0.4530998, -0.49843517, -0.18577217, -0.71537614, -0.22474626, -0.39514375, 0.05763054, 0
299, 2910419995, 0.45353872, -0.49806708, -0.18594837, -0.7153086, -0.39490533, -0.30435324, 0.077778816, 0
301, 2910453329, 0.4546898, -0.4977886, -0.18649453, -0.714629, -0.21402341, -0.16008121, -0.08308792, 0
303, 2910486663, 0.45579064, -0.49783036, -0.18716218, -0.7137235, 0.04145193, -0.268964, -0.3821392, 0
305, 2910519997, 0.45669362, -0.49765298, -0.18778889, -0.7131052, -0.068932846, -0.36485204, -0.15418625, 0
306, 2910536664, 0.45712346, -0.49747038, -0.18812062, -0.71286964, -0.17256296, -0.31884772, 0.12308788, 0
307, 2910553331, 0.45756924, -0.49735695, -0.18855166, -0.7125489, -0.17147577, -0.25421184, 0.30457497, 0
309, 2910586665, 0.4581884, -0.4975823, -0.18927547, -0.7118014, 0.017601114, -0.3777009, 0.08423424, 0
310, 2910603332, 0.45833763, -0.4976684, -0.1893864, -0.7116157, 0.108917065, -0.40753487, -0.04975605, 0
311, 2910619999, 0.4583404, -0.497726, -0.18933025, -0.7115884, 0.12411324, -0.38579062, -0.12738705, 0
313, 2910653333, 0.458211, -0.49762937, -0.18902878, -0.71181935, -0.15077071, -0.22855094, 0.008249283, 0
316, 2910703334, 0.45783472, -0.49779928, -0.18856254, -0.7120665, -0.09747258, -0.27819228, 0.023281097, 0
317, 2910720001, 0.45739195, -0.49798658, -0.18836111, -0.7122733, -0.02706211, -0.31186393, -0.0800066, 0
320, 2910770002, 0.45622903, -0.49799472, -0.187564, -0.7132233, -0.14075236, -0.19238599, -0.07324505, 0
322, 2910803336, 0.4561134, -0.49818963, -0.18702278, -0.7133031, -0.09825036, -0.08069354, 0.06867409, 0
324, 2910836670, 0.45575094, -0.49882022, -0.1867258, -0.71317184, 0.08683685, -0.12254826, -0.22336483, 0
325, 2910853337, 0.45545292, -0.49901623, -0.18665732, -0.71324307, 0.109755784, -0.08305942, -0.30796623, 0
326, 2910870004, 0.45514166, -0.49903277, -0.18664923, -0.7134322, -0.010772249, -0.14806594, -0.23683643, 0
328, 2910903338, 0.45525473, -0.49853176, -0.18695304, -0.71363074, -0.08409426, -0.18712717, 0.06298351, 0
329, 2910920005, 0.48669922, -0.46260053, -0.17120756, -0.7209879, -4.1142387, 4.219616, 27.417423, 1024
330, 2910936672, 0.45729733, -0.49008486, -0.13787325, -0.7291762, 1.2184415, 10.947566, -19.486092, 0
332, 2910970006, 0.43965414, -0.5052181, -0.14404678, -0.7285058, 0.6809623, -5.954626, -0.091220856, 0
333, 2910986673, 0.44021297, -0.5040832, -0.14418393, -0.7289272, -0.3716342, -0.37863272, 0.5342808, 0
334, 2911003340, 0.44493437, -0.50066745, -0.14417602, -0.7284162, -0.54875445, 1.2158557, 0.6535492, 0
336, 2911036674, 0.45109457, -0.49862722, -0.1602692, -0.72264075, -1.4325993, 2.1158013, 3.8832426, 0
338, 2911070008, 0.44722283, -0.50228155, -0.15666331, -0.7233068, 0.4674898, -2.6536427, -2.4707341, 0
340, 2911103342, 0.44818974, -0.50208044, -0.15878032, -0.72238576, 0.58248013, -0.320791, -0.5793686, 0
341, 2911120009, 0.44873133, -0.50168484, -0.15887213, -0.7223042, 0.40202287, 0.06739139, -0.4738207, 0
343, 2911153343, 0.45010406, -0.5012865, -0.1600485, -0.72146666, 0.29149106, 0.13296786, -0.2207489, 0
344, 2911170010, 0.45048797, -0.50130534, -0.16050455, -0.7211125, 0.29576775, -0.044058315, -0.24337769, 0
345, 2911186677, 0.45080006, -0.50128216, -0.16080208, -0.7208671, 0.1793738, -0.21683818, -0.20754719, 0
347, 2911220011, 0.45119438, -0.5010255, -0.16089858, -0.72077733, -0.16118607, -0.259309, 0.29462242, 0
349, 2911253345, 0.451384, -0.50080013, -0.16087514, -0.72082055, -0.0420114, -0.2951586, 0.2933035, 0
351, 2911286679, 0.45159099, -0.50092906, -0.16054218, -0.72067547, 0.044308428, -0.17817782, -0.05470562, 0
352, 2911303346, 0.45176136, -0.5011563, -0.16019739, -0.7204873, 0.02388667, -0.16276862, -0.24856758, 0
353, 2911320013, 0.4519418, -0.5013031, -0.15996751, -0.72032315, 0.026877636, -0.120601445, -0.3385687, 0
355, 2911353347, 0.45208877, -0.5010658, -0.15989596, -0.720412, 0.05364705, -0.16814198, -0.14560986, 0
356, 2911370014, 0.45194387, -0.5009889, -0.16003713, -0.72052497, 0.081517875, -0.24989195, 0.036421776, 0
357, 2911386681, 0.45179987, -0.5010033, -0.1601026, -0.72059065, 0.08070443, -0.27645162, 0.096170425, 0
359, 2911420015, 0.4517059, -0.5013843, -0.15985905, -0.7204388, 0.20617905, -0.16055684, -0.098358154, 0
360, 2911436682, 0.45165598, -0.501616, -0.1597555, -0.7203317, 0.23157445, -0.086255774, -0.27853107, 0
361, 2911453349, 0.4515049, -0.5017757, -0.15969495, -0.72032857, 0.23107825, -0.09479967, -0.31055546, 0
364, 2911503350, 0.4507891, -0.5016864, -0.15983829, -0.7208071, 0.06380737, -0.20168446, 0.20421314, 0
365, 2911520017, 0.45072705, -0.50161916, -0.15982331, -0.72089607, 0.009204697, -0.15763977, 0.26310253, 0
367, 2911553351, 0.45069075, -0.5016485, -0.15949461, -0.7209711, 0.07444676, -0.24479598, 0.08546734, 0
368, 2911570018, 0.45067257, -0.5016042, -0.1592888, -0.7210588, 0.072348766, -0.23648252, -0.047115326, 0
370, 2911603352, 0.45069906, -0.501348, -0.15909657, -0.7212629, -0.025221977, -0.14819512, -0.10921383, 0
371, 2911620019, 0.4507407, -0.5012823, -0.15914279, -0.7212721, -0.07133849, -0.1526912, -0.0066280365, 0
372, 2911636686, 0.45073175, -0.50130266, -0.15916769, -0.72125816, -0.0656774, -0.24315527, 0.05025196, 0
374, 2911670020, 0.45042646, -0.501529, -0.15900718, -0.72132707, 0.009629022, -0.39276567, -0.0013475418, 0
375, 2911686687, 0.45012906, -0.50170374, -0.1588091, -0.7214348, 0.0407394, -0.36940077, -0.09565544, 0
376, 2911703354, 0.4498412, -0.50177205, -0.15851928, -0.72163063, 0.013199963, -0.28142104, -0.1414671, 0
379, 2911753355, 0.4491578, -0.5020802, -0.15821269, -0.72190917, -0.09077887, -0.17497566, 0.14266205, 0
380, 2911770022, 0.44893914, -0.50220543, -0.1581444, -0.72197294, -0.09234848, -0.2724671, 0.050967216, 0
382, 2911803356, 0.44869182, -0.5022161, -0.15785563, -0.7221824, -0.10008431, -0.2969422, -0.033493996, 0
383, 2911820023, 0.44868517, -0.502224, -0.15782136, -0.7221885, -0.12024084, -0.2890502, -0.014666557, 0
384, 2911836690, 0.4486894, -0.50226456, -0.15784927, -0.72215164, -0.118112184, -0.3001523, 0.01630783, 0
386, 2911870024, 0.44858855, -0.5023655, -0.15788093, -0.7221371, -0.04244909, -0.290573, -0.06657314, 0
387, 2911886691, 0.4485646, -0.5024256, -0.15786478, -0.7221137, 0.0065072374, -0.26280674, -0.059986115, 0
388, 2911903358, 0.44850716, -0.50248086, -0.15773025, -0.7221404, -0.011648748, -0.28625762, -0.033431053, 0
390, 2911936692, 0.44829187, -0.502308, -0.15734217, -0.7224787, -0.046659272, -0.2968333, 0.004006386, 0
391, 2911953359, 0.44812137, -0.50212514, -0.15709479, -0.7227656, -0.12018054, -0.34601828, 0.004211426, 0
394, 2912003360, 0.4478109, -0.50159585, -0.15667503, -0.72341627, -0.08990686, -0.28625315, 0.07278919, 0
395, 2912020027, 0.44769084, -0.501575, -0.1564688, -0.7235497, -0.053753566, -0.32723248, -0.015676498, 0
397, 2912053361, 0.44731146, -0.5015335, -0.15583959, -0.72394884, -0.039646722, -0.35453045, -0.066669464, 0
398, 2912070028, 0.44713676, -0.5014883, -0.15556866, -0.7241461, -0.0997576, -0.3103368, -0.041544914, 0
401, 2912120029, 0.44685566, -0.5015397, -0.15508763, -0.72438717, -0.10852724, -0.30246186, -0.045182228, 0
406, 2912203364, 0.44598442, -0.5017962, -0.1542372, -0.7249279, -0.13501212, -0.21890104, 0.081793785, 0
407, 2912220031, 0.44601324, -0.5018086, -0.15419394, -0.72491086, -0.11765582, -0.1886893, 0.049329758, 0
409, 2912253365, 0.44608176, -0.5018856, -0.15425, -0.7248033, -0.02783937, -0.24024235, -0.051654816, 0
410, 2912270032, 0.44616973, -0.5017582, -0.15571941, -0.7245231, -0.93982726, -0.5564601, -0.49109173, 0
411, 2912286699, 0.46357816, -0.47136903, -0.12530331, -0.73974097, 9.359926, 2.5520327, 1.1423187, 1024
413, 2912320033, 0.43404207, -0.5086349, -0.1246012, -0.73306465, 0.26186982, 8.485363, -5.263925, 0
414, 2912336700, 0.4214545, -0.51662743, -0.13167898, -0.733583, 1.881457, -0.5251168, -2.5690107, 0
415, 2912353367, 0.4185182, -0.5203596, -0.13474302, -0.7320683, 0.66892964, -1.3265691, -2.4542942, 0
417, 2912386701, 0.427857, -0.5135956, -0.13646528, -0.73112684, 0.7833086, 0.47780868, -0.8146038, 0
418, 2912403368, 0.43259567, -0.5127915, -0.14198826, -0.72784376, 0.06059971, -0.2529997, 0.72976017, 0
419, 2912420035, 0.43664795, -0.5093317, -0.14296836, -0.7276614, -1.0990498, -1.7769796, 1.7008514, 0
421, 2912453369, 0.44076592, -0.5028546, -0.14057565, -0.7301457, -0.38185552, -1.0837345, 1.0923595, 0
422, 2912470036, 0.44141328, -0.5027486, -0.14086275, -0.72977203, -0.4035692, -0.117125034, 0.28523636, 0
423, 2912486703, 0.4418255, -0.50262266, -0.14108114, -0.72956693, -0.10333372, 0.16679826, -0.4107914, 0
426, 2912536704, 0.44477636, -0.5010032, -0.14174871, -0.728758, 0.06912682, -0.11833793, -0.061493874, 0
428, 2912570038, 0.44609028, -0.49977788, -0.14189352, -0.7287681, -0.024999268, -0.25915065, -0.08990288, 0
429, 2912586705, 0.44669098, -0.4991259, -0.14182566, -0.7288601, -0.21786247, -0.30824605, 0.13778877, 0
430, 2912603372, 0.447182, -0.49850166, -0.14146858, -0.7290558, -0.29928955, -0.4602514, 0.2884493, 0
432, 2912636706, 0.44806343, -0.4972937, -0.14048766, -0.729529, -0.16480929, -0.14402214, 0.09667969, 0
433, 2912653373, 0.44849938, -0.49687526, -0.14003544, -0.72963315, -0.13286917, -0.07991281, -0.02100277, 0
434, 2912670040, 0.44896668, -0.49657065, -0.13964865, -0.7296273, -0.06501002, -0.18050236, -0.13952732, 0
436, 2912703374, 0.45024532, -0.49514234, -0.13849601, -0.73002994, -0.1654818, -0.37832037, -0.20117474, 0
437, 2912720041, 0.45113814, -0.4939437, -0.13790815, -0.7304019, -0.19061467, -0.34318772, -0.04311943, 0
438, 2912736708, 0.45201743, -0.4929931, -0.13752598, -0.7305722, -0.18608554, -0.30802187, 0.08519554, 0
441, 2912786709, 0.45330018, -0.49110952, -0.13585153, -0.7313589, 0.17827648, -0.7811006, -0.15029335, 0
442, 2912803376, 0.45346308, -0.49002048, -0.13482247, -0.73217845, 0.06563716, -0.8498459, -0.26222992, 0
444, 2912836710, 0.45439145, -0.48719442, -0.13224386, -0.7339569, -0.28810543, -0.7146314, 0.2698679, 0
445, 2912853377, 0.45497376, -0.48610452, -0.13064441, -0.7346051, -0.38125348, -0.7375971, 0.38362408, 0
446, 2912870044, 0.45530474, -0.48539996, -0.12881537, -0.73518866, -0.27305406, -0.72983766, 0.25242043, 0
448, 2912903378, 0.45504007, -0.48396066, -0.12473415, -0.7370028, 0.24545984, -0.6444196, -0.11842251, 0
449, 2912920045, 0.4545344, -0.4828644, -0.12260226, -0.73839027, 0.15762827, -0.61361825, -0.13754463, 0
451, 2912953379, 0.4533105, -0.47991806, -0.11771295, -0.7418513, -0.5610691, -0.5941364, 0.026316643, 0
452, 2912970046, 0.45302075, -0.47827685, -0.11498628, -0.74351376, -0.7644024, -0.5156196, 0.05016899, 0
453, 2912986713, 0.45306045, -0.4767149, -0.11238965, -0.74488854, -0.7260919, -0.3994779, 0.0075969696, 0
456, 2913036714, 0.45332408, -0.47230732, -0.10709692, -0.74830765, -0.69127643, -0.48121238, -0.23575497, 0
457, 2913053381, 0.45348758, -0.47042415, -0.105513364, -0.74961865, -0.9378024, -0.80449253, 0.22216511, 0
459, 2913086715, 0.4547186, -0.46710142, -0.10208597, -0.7514233, -1.1732323, -1.0959562, 0.74136543, 0
460, 2913103382, 0.45575407, -0.4653505, -0.0995561, -0.7522214, -0.62079483, -0.27007282, -0.32568073, 0
461, 2913120049, 0.456401, -0.46366468, -0.09726204, -0.7531698, -0.73380643, -0.8023457, -0.081459045, 0
463, 2913153383, 0.4568678, -0.4594299, -0.09046424, -0.75632226, -0.6534533, -0.8072434, -0.93047905, 0
464, 2913170050, 0.45748767, -0.45645976, -0.08685428, -0.75816697, -1.3980223, -1.3411009, 0.18697739, 0
465, 2913186717, 0.45788342, -0.4539428, -0.08377801, -0.7597836, -0.92774945, -0.5830434, -0.72846127, 0
467, 2913220051, 0.4603549, -0.44805694, -0.07857795, -0.7623355, -1.3220382, -0.5667222, 0.22836208, 0
468, 2913236718, 0.46192437, -0.44496113, -0.075511634, -0.7635081, -1.1895148, -0.62194806, 0.14129066, 0
472, 2913303386, 0.46673024, -0.43165857, -0.063154295, -0.7693221, -1.7000597, -0.8682315, -0.7080698, 0
473, 2913320053, 0.46864372, -0.42730823, -0.060694892, -0.77078414, -2.1100519, -1.0945008, -0.16466236, 0
475, 2913353387, 0.4732675, -0.41958985, -0.056892417, -0.7724874, -1.7252007, -0.51801354, -0.58996487, 0
476, 2913370054, 0.47588205, -0.41592452, -0.05562426, -0.7729556, -1.7526994, -0.84796923, -0.5697012, 0
478, 2913403388, 0.48052257, -0.40863118, -0.05313066, -0.7741492, -1.745562, -1.3841567, -0.74819565, 0
479, 2913420055, 0.48257267, -0.40477377, -0.050716016, -0.775062, -1.7696664, -1.2578448, -0.44758797, 0
480, 2913436722, 0.48409045, -0.400859, -0.049082696, -0.7762543, -1.6933037, -1.3277802, -0.4737053, 0
482, 2913470056, 0.48701012, -0.39324412, -0.04423263, -0.77861077, -1.6414646, -1.0563767, -1.0293674, 0
483, 2913486723, 0.48832506, -0.3894418, -0.042187963, -0.7798108, -2.0258963, -1.6481032, -0.6613722, 0
484, 2913503390, 0.4895274, -0.3858027, -0.04016655, -0.7809718, -2.0680795, -1.7164317, -0.8043995, 0
486, 2913536724, 0.4914388, -0.37768254, -0.03615921, -0.7839307, -2.3417523, -1.1334771, -0.47632885, 0
487, 2913553391, 0.49234253, -0.37376228, -0.033848654, -0.7853446, -2.554868, -0.9651294, -0.58616734, 0
488, 2913570058, 0.4930647, -0.36986288, -0.0320009, -0.78681374, -2.859348, -1.3537422, -0.7718029, 0
491, 2913620059, 0.49450696, -0.3609625, -0.02928121, -0.79014087, -2.9184272, -1.9139919, -2.0865755, 0
492, 2913636726, 0.49470204, -0.3583849, -0.029544339, -0.79118174, -3.0224123, -1.6148633, -2.1208267, 0
494, 2913670060, 0.49731034, -0.35345986, -0.03076993, -0.7917152, -3.5685763, -1.619599, -0.8573246, 0
495, 2913686727, 0.5004615, -0.3513349, -0.031683948, -0.7906386, -4.048073, -1.9109737, -0.06302643, 0
496, 2913703394, 0.5048834, -0.34922165, -0.032274485, -0.78873736, -4.6138253, -2.4727337, 1.0932684, 0
498, 2913736728, 0.5157597, -0.34401923, -0.03577749, -0.78382, -4.708434, -2.10691, 3.3088074, 0
500, 2913770062, 0.52782845, -0.34298694, -0.03924619, -0.77603364, -3.3587475, -1.0412875, 2.8806143, 0
502, 2913803396, 0.5353559, -0.34928462, -0.047749296, -0.76754516, -0.062089037, -1.8600751, 0.9224863, 0
503, 2913820063, 0.53686506, -0.3531552, -0.050933063, -0.76450926, 1.1884015, -2.3063896, 0.9500809, 0
505, 2913853397, 0.53623587, -0.3566646, -0.052494645, -0.76321495, 1.9883482, -0.7114557, 3.6978016, 0
506, 2913870064, 0.53426415, -0.35781148, -0.053818733, -0.76396835, 2.2248774, -0.85998017, 4.1510744, 0
507, 2913886731, 0.5321219, -0.35924402, -0.054909155, -0.76471305, 2.2432334, -1.1802788, 4.0097237, 0
509, 2913920065, 0.52596456, -0.3611602, -0.057663996, -0.7678611, 1.5554374, -1.6549963, 2.8532677, 0
510, 2913936732, 0.52266645, -0.36101305, -0.06020443, -0.7699845, 0.8731607, -1.4146839, 2.4784794, 0
511, 2913953399, 0.5189534, -0.35999775, -0.063963674, -0.7726636, 0.3689638, -1.024738, 1.8899469, 0
513, 2913986733, 0.5103152, -0.35820296, -0.073353045, -0.7783956, -0.8965813, 0.19417162, 1.6368237, 0
515, 2914020067, 0.502256, -0.3611258, -0.0817471, -0.7814447, -1.3803344, 0.044836365, 0.60316086, 0
517, 2914053401, 0.49914926, -0.36497176, -0.09231315, -0.7804711, -0.6776363, -0.25876364, -0.60715866, 0
518, 2914070068, 0.49717847, -0.3677389, -0.09846898, -0.77967745, 0.04021761, -0.68570477, -1.5219269, 0
519, 2914086735, 0.49456674, -0.37024245, -0.10440788, -0.7793808, -0.30595592, -0.7179308, -1.7497606, 0
521, 2914120069, 0.4884227, -0.3758761, -0.11776667, -0.7786545, -0.48423734, -0.9776708, -1.5080462, 0
522, 2914136736, 0.48404115, -0.37911007, -0.123727106, -0.7788983, -0.6241891, -1.6373516, -0.8616924, 0
523, 2914153403, 0.48044354, -0.38216034, -0.12957777, -0.7786838, -0.5684254, -2.0884578, -0.8414078, 0
525, 2914186737, 0.47934538, -0.3888524, -0.14299665, -0.77368283, 0.61436963, -1.6640782, -1.79004, 0
526, 2914203404, 0.47793168, -0.394978, -0.14853369, -0.77040434, 0.35758823, -1.41632, -2.103743, 0
527, 2914220071, 0.47405925, -0.40287885, -0.1528891, -0.7678494, 0.040551305, -1.4046403, -2.2293358, 0
530, 2914270072, 0.45191342, -0.43024495, -0.16326588, -0.76421136, 3.5229156, -2.2802684, -2.8968945, 0
532, 2914303406, 0.44125524, -0.43828174, -0.16624127, -0.7652308, 1.9071234, 0.34361044, -1.4896622, 0
533, 2914320073, 0.43886995, -0.4392136, -0.1665407, -0.7660026, 0.92356735, 0.962401, 0.68080044, 0
534, 2914336740, 0.43672544, -0.4408902, -0.16572718, -0.76644146, 0.5589504, 2.090681, 0.6995821, 0
536, 2914370074, 0.43727273, -0.44391128, -0.16044368, -0.76550925, 1.0843158, 0.78360873, -0.32767296, 0
537, 2914386741, 0.43937016, -0.44523132, -0.15462397, -0.76473886, 1.5449135, -0.646764, -1.1328468, 0
538, 2914403408, 0.44142726, -0.44521615, -0.14811838, -0.76485074, 1.4927317, -1.7050182, -1.9485526, 0
540, 2914436742, 0.44443536, -0.43879867, -0.13282762, -0.76961076, 2.1188037, -0.8059381, -2.1032968, 0
541, 2914453409, 0.44474703, -0.43262658, -0.1250236, -0.77421874, 1.800917, -0.21854381, -2.9692307, 0
542, 2914470076, 0.4445272, -0.42452794, -0.11830518, -0.7798633, 0.940834, 0.70129097, -3.8822603, 0
545, 2914520077, 0.45490098, -0.3871453, -0.11168645, -0.79417944, -4.1526394, 1.1730292, 1.5686378, 0
546, 2914536744, 0.46174225, -0.3751345, -0.11077062, -0.7961215, -3.8110917, 1.7142292, 1.1536674, 0
548, 2914570078, 0.4802844, -0.35293987, -0.10588307, -0.7959653, -3.3719966, -1.0669078, -0.56331444, 0
549, 2914586745, 0.489645, -0.3427828, -0.105027735, -0.7948133, -4.1344256, -2.360524, -0.8095398, 0
550, 2914603412, 0.49747205, -0.3324013, -0.10397597, -0.7945007, -4.911407, -3.0123346, -0.09441757, 0
552, 2914636746, 0.5105148, -0.3132491, -0.100955606, -0.7943984, -4.8313193, -3.039077, 0.273077, 0
553, 2914653413, 0.5174017, -0.3073198, -0.09798448, -0.79262877, -5.3769574, -4.0730495, -0.068657875, 0
554, 2914670080, 0.5248732, -0.30425885, -0.09370885, -0.78940773, -5.5368643, -5.663582, 0.15884876, 0
556, 2914703414, 0.5367516, -0.300998, -0.08217142, -0.7839368, -5.234626, -5.295421, 1.2104235, 0
557, 2914720081, 0.54079, -0.29749474, -0.08007345, -0.7827149, -5.661146, -3.717199, 2.058834, 0
559, 2914753415, 0.5535875, -0.29155385, -0.081906356, -0.7757834, -4.653653, -0.85865897, 1.8752909, 0
560, 2914770082, 0.5598846, -0.2960197, -0.081648126, -0.7695756, -3.3428397, 0.20644204, 2.5938969, 0
561, 2914786749, 0.56446064, -0.30492884, -0.0806808, -0.7628265, -1.7900827, 0.77449125, 2.5266504, 0
563, 2914820083, 0.56463, -0.31475824, -0.08622247, -0.75808775, 6.1540008, -0.030615576, -0.43009758, 0
564, 2914836750, 0.5653804, -0.3131565, -0.0859276, -0.75822544, 4.385439, 1.6089289, 1.3832188, 0
565, 2914853417, 0.56537914, -0.31060103, -0.08460973, -0.75942475, 2.4400802, 1.9766116, 3.0294113, 0
567, 2914886751, 0.56546384, -0.30728072, -0.086437225, -0.76050586, -1.1568335, 1.1537056, 4.6510706, 0
568, 2914903418, 0.5623888, -0.3095149, -0.08851437, -0.76164025, 0.39262214, -0.3203943, 2.063982, 0
569, 2914920085, 0.5600171, -0.30997846, -0.090585925, -0.7629547, 0.47132316, -1.2629167, 1.8849354, 0
572, 2914970086, 0.55397004, -0.3114844, -0.09880185, -0.7657311, -0.003965043, -0.57157797, 0.6835213, 0
573, 2914986753, 0.5521252, -0.31300747, -0.101721, -0.7660601, -0.101062015, -1.5028639, 0.20533562, 0
575, 2915020087, 0.5464315, -0.31810468, -0.10609901, -0.76744777, 0.2645046, -0.6701744, -1.3566351, 0
576, 2915036754, 0.5432028, -0.31988552, -0.10906924, -0.76858264, -0.013316993, -1.1283919, -1.1242752, 0
577, 2915053421, 0.54009616, -0.32203022, -0.1122008, -0.76942515, -0.35025647, -0.39556327, -0.7771683, 0
579, 2915086755, 0.53156024, -0.3290441, -0.119081244, -0.77136546, -0.08887487, -0.25245565, -0.6270094, 0
580, 2915103422, 0.52677816, -0.3337208, -0.120899335, -0.7723535, 0.15480222, -0.46969673, -0.7467747, 0
581, 2915120089, 0.52182865, -0.3385419, -0.12339336, -0.7732203, 0.4449981, 0.16840404, -1.5625086, 0
583, 2915153423, 0.51283556, -0.3469589, -0.13138066, -0.7741898, 0.12928273, 0.5219014, -1.5327091, 0
584, 2915170090, 0.5088738, -0.3505928, -0.135349, -0.774483, 0.075608104, -0.39838222, -0.25378036, 0
587, 2915220091, 0.49500394, -0.36564177, -0.14785793, -0.77422637, 0.6224121, -0.08050892, -0.18652439, 0
588, 2915236758, 0.4898123, -0.37069196, -0.15253276, -0.7742199, 0.67104596, 0.15901557, -0.70011044, 0
590, 2915270092, 0.48090497, -0.378428, -0.16433443, -0.77364606, 0.70972276, 0.017214073, -0.64117336, 0
591, 2915286759, 0.47692245, -0.38104573, -0.170488, -0.77349484, 0.71729887, 0.1902577, -0.4274311, 0
592, 2915303426, 0.47325188, -0.3830334, -0.17679563, -0.77335155, 0.55806243, 0.303133, -0.27478695, 0
594, 2915336760, 0.46605217, -0.38920265, -0.18755376, -0.7721086, 0.3252725, 0.71423596, -0.9510174, 0
595, 2915353427, 0.462045, -0.39220026, -0.19133213, -0.7720731, 0.5011488, 0.5147772, -1.0425444, 0
596, 2915370094, 0.45784968, -0.39539346, -0.19502008, -0.77202094, 0.82358074, 0.4096816, -1.2584095, 0
598, 2915403428, 0.45056468, -0.40239745, -0.20074579, -0.77121985, 0.8152207, 0.40915406, -0.9702587, 0
599, 2915420095, 0.44805288, -0.4058721, -0.20381773, -0.77005583, 1.1788373, 0.36540592, -1.0210629, 0
602, 2915470096, 0.4425181, -0.42064136, -0.21438289, -0.7624237, 1.1853707, -0.21556674, -0.91375065, 0
603, 2915486763, 0.43907458, -0.42687613, -0.21667421, -0.76029855, 0.6932962, -1.1447871, -0.9062309, 0
604, 2915503430, 0.43537858, -0.43166927, -0.21916917, -0.75900155, 1.0568243, -1.7701845, -0.3446169, 0
606, 2915536764, 0.43260407, -0.43417412, -0.22638693, -0.7570381, 0.32358086, -1.0428864, 1.4151554, 0
607, 2915553431, 0.43124104, -0.43589297, -0.22821918, -0.75627774, 0.64332503, -0.3824644, 0.8285513, 0
608, 2915570098, 0.4297404, -0.43840224, -0.23013033, -0.75510114, -0.06482334, 0.056596387, 1.164465, 0
610, 2915603432, 0.4263748, -0.4448411, -0.2332443, -0.75228274, 0.6462104, 0.6072197, -0.29493332, 0
611, 2915620099, 0.42411488, -0.44765735, -0.23293006, -0.7519868, 1.2575239, -0.40270635, -0.6458025, 0
613, 2915653433, 0.41747704, -0.45737433, -0.22430836, -0.75247496, 1.4977084, -0.9320969, 0.1348896, 0
614, 2915670100, 0.41187346, -0.4639696, -0.21572858, -0.75403243, 0.96983534, -2.204214, -0.7993717, 0
617, 2915720101, 0.3978045, -0.46701735, -0.18713316, -0.76722795, -0.22336234, -0.7860054, -1.6925573, 0
618, 2915736768, 0.39634955, -0.46432975, -0.17783715, -0.77180964, -0.41458797, 0.34516457, -1.8899107, 0
619, 2915753435, 0.39751926, -0.46013257, -0.16989188, -0.7755027, -0.2286324, 1.0083135, -2.0481176, 0
621, 2915786769, 0.4085087, -0.44685102, -0.15428443, -0.7808025, -1.559191, 0.29468656, -1.7562389, 0
622, 2915803436, 0.41672537, -0.43816924, -0.14540488, -0.78308123, -1.2938645, -0.07617014, -1.9168234, 0
623, 2915820103, 0.4255569, -0.42698938, -0.13794094, -0.7858529, 0.78393495, 0.38200402, -0.5751095, 0
625, 2915853437, 0.4458533, -0.39164138, -0.13346645, -0.79374415, -1.4329112, 1.9030318, -0.2528286, 0
626, 2915870104, 0.45772403, -0.3745415, -0.1288078, -0.796007, -3.9430435, 1.719876, -0.42506027, 0
627, 2915886771, 0.4685223, -0.36104098, -0.12105376, -0.79717845, -4.312373, -0.90040785, 1.0984688, 0
629, 2915920105, 0.48805755, -0.3330278, -0.11188099, -0.7989906, -3.3594682, -3.9981272, 2.8218536, 0
630, 2915936772, 0.49681664, -0.3194679, -0.108559325, -0.7995872, -4.3873177, -2.9250095, 2.3554697, 0
633, 2915986773, 0.51911294, -0.2987007, -0.09294686, -0.79540664, -4.426659, -4.605671, -2.6540737, 0
634, 2916003440, 0.522524, -0.29727545, -0.08958426, -0.7940919, -4.2794185, -4.5750194, -3.0757031, 0
635, 2916020107, 0.524001, -0.29667515, -0.08830711, -0.7934858, -4.9189467, -3.9526613, -3.2920218, 0
637, 2916053441, 0.5254304, -0.3010532, -0.09012465, -0.7906823, -4.9399667, -2.4680266, -3.2446685, 0
638, 2916070108, 0.5262116, -0.3072235, -0.09344886, -0.78739667, -4.5365515, -2.1469975, -3.7450056, 0
640, 2916103442, 0.52976435, -0.324366, -0.10389528, -0.7767582, 0.49425486, 1.4229786, 4.863965, 0
641, 2916120109, 0.53399336, -0.33216703, -0.10987522, -0.76971084, 4.3694, 4.130631, 4.940837, 0
642, 2916136776, 0.53835505, -0.33751968, -0.11252116, -0.7639402, 6.6437964, 4.0690875, 3.664959, 0
645, 2916186777, 0.5473022, -0.3378092, -0.10855938, -0.7580049, 1.8680367, -0.8255183, 7.6412296, 0
646, 2916203444, 0.5431614, -0.33699003, -0.10285626, -0.76213205, 1.0011662, -1.0030763, 6.218172, 0
648, 2916236778, 0.5282539, -0.33277762, -0.09020397, -0.77593905, 0.103036255, -0.85378605, 2.0414772, 0
649, 2916253445, 0.52138317, -0.3297876, -0.08589871, -0.78232515, -1.1960883, 0.08635714, 0.92064667, 0
650, 2916270112, 0.5168779, -0.3269575, -0.08416249, -0.78667897, -2.0819468, 1.3409787, 0.6658268, 0
652, 2916303446, 0.5090847, -0.32765445, -0.0858694, -0.79127306, -1.3202888, 1.0561974, -0.7631731, 0
653, 2916320113, 0.5045887, -0.32991603, -0.08834171, -0.79293925, -0.53006184, 0.5563754, -1.7003193, 0
654, 2916336780, 0.50048244, -0.33267543, -0.08974133, -0.7942306, -0.14995484, -0.20346722, -2.292797, 0
656, 2916370114, 0.49235553, -0.33705336, -0.09885417, -0.7963794, 0.31849676, -0.37867653, -2.0485458, 0
657, 2916386781, 0.488501, -0.34055954, -0.10182665, -0.7968868, 0.20866029, 0.07304839, -2.149592, 0
660, 2916436782, 0.4750058, -0.3546907, -0.11120218, -0.7976274, -0.0058148154, 0.02277977, -0.77089596, 0
661, 2916453449, 0.4689386, -0.35865566, -0.116819724, -0.7986407, 0.42885098, -0.22795008, -1.1362877, 0
662, 2916470116, 0.46407354, -0.36205193, -0.12163013, -0.79923177, 0.14020067, -0.76597923, -1.1390171, 0
664, 2916503450, 0.4576038, -0.36812523, -0.13211043, -0.798524, 0.15339753, -0.072863154, -0.95907784, 0
665, 2916520117, 0.45375937, -0.37211365, -0.13578354, -0.79825306, 0.3451459, 0.2618746, -0.69366264, 0
667, 2916553451, 0.444943, -0.3814453, -0.14288795, -0.7975711, 0.7801212, 0.9448228, -2.4846816, 0
668, 2916570118, 0.44122267, -0.38531202, -0.14667663, -0.79709136, 0.43963343, 0.2250965, -1.9965677, 0
669, 2916586785, 0.43647066, -0.389713, -0.14930269, -0.7970805, 0.6804102, 0.2539125, -1.6559305, 0
671, 2916620119, 0.4266423, -0.4008168, -0.15584126, -0.7956425, 0.8097542, -0.13640113, -0.83704567, 0
672, 2916636786, 0.42131656, -0.40827957, -0.15800817, -0.7942574, 1.0360817, 0.055487204, -1.4021206, 0
675, 2916686787, 0.40993774, -0.4249245, -0.16257656, -0.7905507, 0.21853371, -0.18705453, 0.3087921, 0
676, 2916703454, 0.409212, -0.42758742, -0.16605009, -0.7887669, 0.114402704, 0.3763672, 0.77584267, 0
677, 2916720121, 0.40965796, -0.43109143, -0.16785046, -0.7862431, -0.103815466, 0.60896075, 1.069665, 0
679, 2916753455, 0.41112614, -0.4426273, -0.17239146, -0.77804166, -0.039671175, 0.8694271, -0.27448463, 0
680, 2916770122, 0.41116297, -0.44932306, -0.17378663, -0.77386266, 0.55360776, -0.15255189, -0.72870255, 0
681, 2916786789, 0.4115157, -0.4545673, -0.1753522, -0.77025086, 1.0797383, -0.8168635, -0.60767937, 0
683, 2916820123, 0.41309416, -0.45816663, -0.17720546, -0.76684177, 2.3487375, -0.8814998, 0.22432709, 0
684, 2916836790, 0.41322887, -0.45918664, -0.17631651, -0.76636374, 2.1061814, -0.8341238, 0.748909, 0
685, 2916853457, 0.4130978, -0.46033174, -0.17479512, -0.76609594, 1.1660067, -0.92074084, 1.3580704, 0
687, 2916886791, 0.4147482, -0.45852512, -0.1716665, -0.76699436, -0.54573345, -0.15947497, 1.7702532, 0
689, 2916920125, 0.4182698, -0.45223692, -0.17064515, -0.7690406, -0.3382278, 0.5586429, 0.944294, 0
691, 2916953459, 0.42196047, -0.4442052, -0.17140335, -0.771533, 0.47287497, -0.67548865, -0.8593645, 0
692, 2916970126, 0.4242704, -0.439587, -0.17183909, -0.77281344, 0.89858246, -0.8412337, -1.1069021, 0
694, 2917003460, 0.43067187, -0.42882925, -0.17057747, -0.77559125, 0.59122044, -0.9242925, -1.4929476, 0
695, 2917020127, 0.43421715, -0.4233243, -0.1675567, -0.7772954, 0.57394093, -0.87143815, -1.6936731, 0
696, 2917036794, 0.43750316, -0.41732207, -0.16380897, -0.7794941, 0.41462204, -0.99734163, -2.2252436, 0
698, 2917070128, 0.44467294, -0.4045583, -0.15496653, -0.78396124, 0.38424385, -0.33114725, -2.8845358, 0
699, 2917086795, 0.44863826, -0.3969615, -0.14835358, -0.78685945, 0.24619974, -0.5703527, -3.5106149, 0
700, 2917103462, 0.45232862, -0.3874662, -0.14204466, -0.79063475, 0.54851776, -0.3302266, -3.1237235, 0
702, 2917136796, 0.46467325, -0.36271006, -0.13511483, -0.79641414, -1.5757744, 0.76659185, -2.2533426, 0
703, 2917153463, 0.47080874, -0.3489487, -0.13178976, -0.79951024, -3.623806, 1.3792887, -2.4321675, 0
704, 2917170130, 0.47586262, -0.33580714, -0.13073298, -0.8023145, -4.092748, 0.2535965, -3.540935, 0
706, 2917203464, 0.4912541, -0.31162572, -0.13377914, -0.80229264, -3.9299095, -5.251402, -1.718956, 0
707, 2917220131, 0.50123644, -0.30317503, -0.13361236, -0.79937845, -4.110047, -5.768696, -0.5486555, 0
708, 2917236798, 0.51080155, -0.2985559, -0.12983578, -0.79567605, -4.091831, -6.427352, 0.08335686, 0
710, 2917270132, 0.52590036, -0.2916988, -0.118388146, -0.7901495, -5.322151, -4.3814087, 2.6473866, 0
711, 2917286799, 0.5326701, -0.2888973, -0.113985494, -0.7872863, -3.776781, -3.8050272, 2.204999, 0
712, 2917303466, 0.5400342, -0.28836915, -0.11196986, -0.7827391, -2.6291265, -2.2766814, 2.8313532, 0
714, 2917336800, 0.55196524, -0.30272993, -0.103497095, -0.7700575, -0.88733643, 1.8279339, 3.8764238, 0
716, 2917370134, 0.5560158, -0.31092682, -0.10217837, -0.76403, 3.9801621, 3.2569396, 3.7722597, 0
718, 2917403468, 0.56569165, -0.3061902, -0.108335935, -0.7579677, 1.5117882, 1.9646577, 6.213314, 0
719, 2917420135, 0.56914026, -0.3057777, -0.11016823, -0.7552837, 1.4654813, -0.5965037, 5.701462, 0
721, 2917453469, 0.56938165, -0.30557686, -0.11108612, -0.7550487, -0.10349836, -0.76752514, 3.6144943, 0
722, 2917470136, 0.56808627, -0.3041365, -0.1113575, -0.75656456, -1.069035, -0.24794628, 3.7640877, 0
723, 2917486803, 0.566792, -0.3029772, -0.111792356, -0.757935, -1.3906943, 0.08596655, 3.4266539, 0
725, 2917520137, 0.56503505, -0.3033263, -0.11739206, -0.7582604, -0.5085043, -0.096071795, 0.74152374, 0
726, 2917536804, 0.56427276, -0.30525595, -0.12074809, -0.7575266, 0.33666942, -0.060147002, 0.095897675, 0
727, 2917553471, 0.56359065, -0.30707377, -0.12516281, -0.7565825, 0.79354095, -0.80531675, -0.44918823, 0
729, 2917586805, 0.5595569, -0.3114062, -0.13418716, -0.7562587, 0.78139395, -1.3360244, -1.8061275, 0
731, 2917620139, 0.5536785, -0.3141482, -0.1450962, -0.7574361, -0.3836843, -1.2803215, -1.6579695, 0
733, 2917653473, 0.54930127, -0.31975955, -0.15707679, -0.7558836, -1.2051116, -0.23298107, -0.4966488, 0
734, 2917670140, 0.5463406, -0.32473755, -0.16266376, -0.7547245, -0.7359999, -0.29686376, -1.087614, 0
735, 2917686807, 0.5437535, -0.3300342, -0.16859353, -0.75299203, 0.19123529, 0.043207735, -1.9399114, 0
737, 2917720141, 0.5403718, -0.33917245, -0.1813999, -0.7483754, 0.3337575, 0.49543414, -2.5945516, 0
738, 2917736808, 0.5384042, -0.34300297, -0.18730891, -0.74658996, -0.34327412, -0.4736253, -0.84047985, 0
739, 2917753475, 0.5354569, -0.34731975, -0.19299474, -0.7452645, -0.10934139, -1.0540879, -0.006011963, 0
741, 2917786809, 0.52768147, -0.35595992, -0.20820163, -0.74263597, 0.59788287, -0.6133808, -0.6409521, 0
742, 2917803476, 0.52441645, -0.3593863, -0.21598421, -0.74107426, 0.21387081, -0.953423, -0.84776974, 0
743, 2917820143, 0.52114797, -0.3631101, -0.22208983, -0.73975885, 0.21200635, -0.36583203, -0.53362274, 0
746, 2917870144, 0.50783575, -0.37950742, -0.23566143, -0.73658115, 0.9245856, 0.3121278, -1.3415804, 0
748, 2917903478, 0.4952457, -0.39003634, -0.24327993, -0.73717666, 0.5177157, -0.13567717, -1.3457394, 0
749, 2917920145, 0.49008393, -0.3941091, -0.2484077, -0.73675, 1.1888918, -0.1294482, -1.1903791, 0
750, 2917936812, 0.48545903, -0.3970303, -0.25339818, -0.7365441, 0.44875762, 0.58926845, -1.6859703, 0
752, 2917970146, 0.4763696, -0.40295705, -0.25942257, -0.73716265, 0.86988384, 1.6469262, -1.0757704, 0
753, 2917986813, 0.4715436, -0.40731317, -0.26062343, -0.7374479, 0.98727727, 1.060251, -1.056428, 0
754, 2918003480, 0.46718, -0.41155875, -0.26013392, -0.73804045, 1.0381403, 0.17082424, -1.0694952, 0
756, 2918036814, 0.4607272, -0.41879034, -0.26133093, -0.73760575, 1.0263176, 0.2780396, 0.064502716, 0
757, 2918053481, 0.45788917, -0.42240345, -0.26184237, -0.7371313, 0.78764415, 0.21853745, 0.3547945, 0
758, 2918070148, 0.45540306, -0.42566478, -0.26223886, -0.7366542, 0.9261674, 0.4836169, 0.24002934, 0
761, 2918120149, 0.4498092, -0.43611994, -0.26382917, -0.7334007, -0.07506046, 0.4372015, 0.5350418, 0
762, 2918136816, 0.44891834, -0.43946654, -0.26553723, -0.73132944, -0.5334592, 0.41404712, 0.60045147, 0
764, 2918170150, 0.4483797, -0.445936, -0.26987556, -0.72613716, -0.14514716, -0.49412087, 0.7595625, 0
765, 2918186817, 0.44876963, -0.44773158, -0.27111286, -0.7243283, 0.34344205, -0.28960472, 0.7104616, 0
766, 2918203484, 0.44846144, -0.4498735, -0.27155024, -0.7230268, 1.06315, -0.42931005, 0.55308056, 0
768, 2918236818, 0.44556838, -0.4552589, -0.27197504, -0.72128284, 1.1101056, -0.7053009, -0.37233543, 0
769, 2918253485, 0.44287366, -0.4582228, -0.2730844, -0.72064626, 0.8158053, -0.53164697, -0.55539894, 0
770, 2918270152, 0.43910193, -0.461369, -0.27282983, -0.7210431, 0.74369925, -0.6324895, -0.37947655, 0
772, 2918303486, 0.43153623, -0.4671299, -0.2695127, -0.7231462, 0.40187007, 0.039605156, 0.58184814, 0
773, 2918320153, 0.4262054, -0.47162423, -0.26511467, -0.72501385, 0.1642764, -0.22726205, -0.013442993, 0
774, 2918336820, 0.41977546, -0.47660923, -0.26014942, -0.72730017, -0.07572848, -0.5283384, -0.8915558, 0
776, 2918370154, 0.40967548, -0.48127332, -0.25060663, -0.73331416, -0.5618697, 0.15857776, -0.2133398, 0
777, 2918386821, 0.4067409, -0.4812026, -0.24511838, -0.73684067, -0.49372035, 0.198816, 1.066946, 0
779, 2918420155, 0.4061244, -0.47862336, -0.23275961, -0.7428438, -0.39056233, -0.26357105, -0.41348553, 0
780, 2918436822, 0.40927374, -0.4738761, -0.22845605, -0.7454902, -1.0470659, -0.15163688, -0.10664368, 0
781, 2918453489, 0.414165, -0.46815544, -0.2243242, -0.74765486, -0.6737446, 0.48884106, -0.48716164, 0
783, 2918486823, 0.42521507, -0.4553988, -0.21145885, -0.7530609, 0.69210476, 0.06629763, -0.35556507, 0
784, 2918503490, 0.43022957, -0.44786108, -0.20335111, -0.7569561, 1.0058422, -0.65238017, -2.068654, 0
785, 2918520157, 0.43518054, -0.4388184, -0.19830972, -0.7607502, 0.8181467, -0.79855496, -3.358963, 0
788, 2918570158, 0.46018904, -0.40044534, -0.18247098, -0.7710935, -1.5021572, -0.5381708, -0.76480865, 0
789, 2918586825, 0.4686073, -0.38629642, -0.17330539, -0.7753443, -0.4441754, -1.4434532, -0.516881, 0
791, 2918620159, 0.4809135, -0.351874, -0.16200842, -0.78655654, -1.3369963, -2.795968, -0.992301, 0
792, 2918636826, 0.48919472, -0.33087662, -0.161065, -0.7907456, -3.6014786, -2.3623438, 1.6892672, 0
793, 2918653493, 0.49814045, -0.3131369, -0.15738383, -0.79312223, -5.965403, -1.5861291, 3.7989388, 0
795, 2918686827, 0.5157666, -0.2921369, -0.14625594, -0.79199827, -5.2736735, -4.500626, 0.7433319, 0
796, 2918703494, 0.52645123, -0.28531623, -0.14176077, -0.78826326, -3.1240554, -4.3811407, -0.42486572, 0
797, 2918720161, 0.5335982, -0.28309178, -0.13817808, -0.7848886, -0.78486556, -3.6177518, -2.4481235, 0
799, 2918753495, 0.5361553, -0.28760567, -0.13370973, -0.78227454, -0.047913354, -2.0714939, 0.25942516, 0
800, 2918770162, 0.53873515, -0.29282027, -0.13288641, -0.77869976, 1.224543, 2.5381806, 0.50126266, 0
803, 2918820163, 0.54834336, -0.30413607, -0.13030602, -0.76801836, 2.035371, -2.0154512, 3.0613394, 0
804, 2918836830, 0.54858166, -0.3097533, -0.12537384, -0.7664226, 0.69021785, -3.7085023, 3.6740284, 0
806, 2918870164, 0.53623474, -0.31845436, -0.109584935, -0.7739777, -0.5915029, 0.40530655, 3.2085934, 0
807, 2918886831, 0.52846855, -0.31811136, -0.10565038, -0.7799843, -2.2587764, 2.6526594, 4.0518, 0
808, 2918903498, 0.5231239, -0.31868157, -0.105643965, -0.78334785, -3.0448444, 4.3645735, 4.1782627, 0
810, 2918936832, 0.52148664, -0.3247298, -0.10783876, -0.78165483, 0.06429786, 3.4502666, 0.36493587, 0
811, 2918953499, 0.5230625, -0.32779038, -0.110919565, -0.77888846, -0.30495822, 0.16222996, 1.041419, 0
814, 2919003500, 0.5266616, -0.33652738, -0.1248466, -0.7705851, 0.97297883, -0.6554457, -0.9736347, 0
815, 2919020167, 0.5270035, -0.3384731, -0.12923189, -0.76877415, 0.57821834, -0.21058083, -0.8258238, 0
816, 2919036834, 0.5266379, -0.3402888, -0.13377157, -0.76744545, 0.24317126, -0.06835216, -0.9351864, 0
819, 2919086835, 0.5214071, -0.3482608, -0.14835802, -0.76475513, 0.8637482, -0.5232512, -1.3245449, 0
820, 2919103502, 0.5191618, -0.35084313, -0.1544835, -0.7638887, 1.0461396, -0.15532027, -1.2893772, 0
822, 2919136836, 0.51453996, -0.35542277, -0.16830853, -0.7619755, 0.80916595, -0.0026932193, -1.2978945, 0
823, 2919153503, 0.51255804, -0.35776287, -0.17477292, -0.7607598, 0.7247182, -0.42705828, -0.67060757, 0
824, 2919170170, 0.51066315, -0.36088172, -0.18130337, -0.7590308, 0.5540108, -0.19149919, -0.9386635, 0
826, 2919203504, 0.5066663, -0.36678103, -0.19395645, -0.75574654, 0.43547434, -0.43747398, -0.2503128, 0
827, 2919220171, 0.50521636, -0.36869222, -0.20159812, -0.75378513, -0.53492326, -0.07983324, -0.15495205, 0
829, 2919253505, 0.5017521, -0.37310258, -0.21453059, -0.75035137, -1.2519965, -0.8206839, -0.13313389, 0
830, 2919270172, 0.50124407, -0.37509036, -0.21979082, -0.7481745, 0.94271463, -1.9767843, 0.22638416, 0
831, 2919286839, 0.49988124, -0.37705427, -0.22392023, -0.74687326, 0.20581765, -0.8892427, 0.15219975, 0
834, 2919336840, 0.5007769, -0.38312387, -0.2391209, -0.73842466, 0.78310615, -0.7141575, -0.79363346, 0
835, 2919353507, 0.5003214, -0.3845756, -0.24402037, -0.7363732, 0.80025643, -0.48422864, -0.4782486, 0
837, 2919386841, 0.49713528, -0.38954213, -0.25177807, -0.7333025, 0.15194964, 0.0083465325, 0.13137913, 0
838, 2919403508, 0.49398798, -0.39366573, -0.25496364, -0.73212564, 0.3655044, -0.28283563, 0.38041878, 0
839, 2919420175, 0.4899518, -0.3984816, -0.25766176, -0.73128736, 0.7776444, -0.61517614, -0.048047066, 0
841, 2919453509, 0.48122567, -0.40852788, -0.26346016, -0.72947025, 1.133025, -0.09674233, -0.7568817, 0
842, 2919470176, 0.4756691, -0.41361183, -0.26607054, -0.7293024, 1.2370411, -0.34455708, -0.39790344, 0
843, 2919486843, 0.46996313, -0.4175168, -0.2689401, -0.7297239, 1.1671563, -0.084745385, -0.8836756, 0
845, 2919520177, 0.46138912, -0.4225022, -0.277737, -0.72903055, 0.4469483, 1.2481309, -0.8482599, 0
846, 2919536844, 0.45734957, -0.42558292, -0.2810967, -0.72849596, 0.6246455, 1.5422453, -0.5293083, 0
847, 2919553511, 0.45346642, -0.42927697, -0.2835532, -0.7278037, 0.28039968, 1.664463, -0.5778179, 0
849, 2919586845, 0.44843942, -0.43329075, -0.2901114, -0.72595304, -0.83779466, 0.581395, 0.74332523, 0
850, 2919603512, 0.44640183, -0.43511003, -0.29477373, -0.7242405, -1.0795536, -0.18581906, 1.5029287, 0
851, 2919620179, 0.4453723, -0.43674734, -0.29993364, -0.721766, -1.7655241, -0.033563375, 1.3446922, 0
853, 2919653513, 0.4449792, -0.4400899, -0.3065886, -0.7171675, -0.29463568, -0.47055712, 0.62747097, 0
854, 2919670180, 0.44358987, -0.44280523, -0.30769014, -0.71588385, 0.46253952, -0.75293636, 0.3847494, 0
856, 2919703514, 0.43982115, -0.44763446, -0.308671, -0.7147825, 0.8722154, -0.9571385, -1.0606699, 0
857, 2919720181, 0.43898243, -0.44864237, -0.30874035, -0.7146363, 0.3764013, -0.028015785, -0.72733116, 0
858, 2919736848, 0.43805856, -0.4502703, -0.30917013, -0.71399325, -0.31673837, 0.61206293, -0.38558102, 0
861, 2919786849, 0.43181697, -0.45791274, -0.3041619, -0.7150851, 0.3347964, -1.0525162, 0.45531464, 0
862, 2919803516, 0.4300699, -0.45835415, -0.30179662, -0.71685535, 0.38634092, -1.5146136, 0.2814045, 0
864, 2919836850, 0.4305548, -0.45556477, -0.29784003, -0.71999013, -0.1268716, 0.22454078, 0.9316397, 0
865, 2919853517, 0.43146932, -0.45462704, -0.29438177, -0.72145617, 0.06584636, 0.89575934, 0.5506134, 0
866, 2919870184, 0.43160966, -0.45492187, -0.28917655, -0.7232892, 1.0038273, 0.83764976, 0.07839966, 0
868, 2919903518, 0.43043995, -0.45661637, -0.27555418, -0.7282198, 2.0168958, -1.2947277, -1.9646988, 0
869, 2919920185, 0.430751, -0.45305938, -0.26982316, -0.7323917, 1.1016847, -2.1747754, -3.0398116, 0
870, 2919936852, 0.43447387, -0.44420817, -0.26732373, -0.73651963, -0.2564488, -0.7773174, -3.0732412, 0
872, 2919970186, 0.44763255, -0.42169657, -0.2669187, -0.74199915, -1.4417708, 1.9794362, 0.08459282, 0
873, 2919986853, 0.45381224, -0.4126095, -0.26293895, -0.74476993, -0.500766, 2.1903355, -0.39188194, 0
876, 2920036854, 0.4735498, -0.37832528, -0.24589941, -0.7564161, 1.1203344, -2.11303, -2.9717388, 0
877, 2920053521, 0.48136407, -0.36249304, -0.23828793, -0.76165456, -0.3445304, -2.254972, -2.1419573, 0
878, 2920070188, 0.4868616, -0.34816596, -0.22822258, -0.7679009, -0.57038385, -1.0554314, -2.6150236, 0
880, 2920103522, 0.49447954, -0.31228158, -0.21185376, -0.7830067, -2.248915, -1.013904, -0.076078415, 0
881, 2920120189, 0.49771386, -0.28947827, -0.2096169, -0.79028803, -2.8239493, -0.3587366, 2.3536167, 0
883, 2920153523, 0.50417346, -0.26792014, -0.197467, -0.7968977, -8.17075, -3.3793933, 5.2220297, 0
884, 2920170190, 0.5092939, -0.26637396, -0.1861648, -0.79688054, -6.1313553, -6.183036, 4.702139, 0
885, 2920186857, 0.5141144, -0.26596177, -0.17693573, -0.7960249, -3.5696342, -8.398, 2.7878618, 0
887, 2920220191, 0.5159011, -0.26717457, -0.16556555, -0.79690856, -3.8828492, -3.1192262, -0.17855453, 0
888, 2920236858, 0.5158423, -0.2714328, -0.1624154, -0.7961555, -4.741268, 0.012081099, 1.624259, 0
891, 2920286859, 0.51747096, -0.3003353, -0.15920602, -0.7852943, 4.221205, 4.1315413, -0.9381609, 0
892, 2920303526, 0.5219404, -0.30218554, -0.15938234, -0.7815822, 3.160829, 0.7353131, 0.97829247, 0
893, 2920320193, 0.5266764, -0.30255976, -0.15778768, -0.7785781, 1.9776306, -1.5948268, 3.3779716, 0
895, 2920353527, 0.52626526, -0.3075041, -0.15054303, -0.77835345, 0.16638179, -0.54109067, 2.6187124, 0
896, 2920370194, 0.52398336, -0.30758572, -0.14749861, -0.78044075, -0.63860023, 0.8148695, 2.203062, 0
897, 2920386861, 0.5211025, -0.3070288, -0.14717239, -0.7826475, -1.9632072, 3.044423, 2.7620707, 0
899, 2920420195, 0.5185222, -0.3132806, -0.1481216, -0.7817041, -1.2912335, 2.773535, 2.0447197, 0
900, 2920436862, 0.51820725, -0.3167513, -0.1507906, -0.780002, -0.13382187, 1.8890651, -0.2333622, 0
901, 2920453529, 0.51826304, -0.31919095, -0.15344957, -0.7784505, 1.3636484, 0.29246333, -0.9280348, 0
903, 2920486863, 0.51663774, -0.32308668, -0.15871234, -0.776867, 1.7602788, -2.0918965, -1.1564255, 0
905, 2920520197, 0.5084194, -0.32630068, -0.16383184, -0.77987677, 0.29209378, -0.6979266, -2.045331, 0
907, 2920553531, 0.50193834, -0.3236766, -0.17407395, -0.78294384, -1.3616908, 0.8724607, -0.35120392, 0
908, 2920570198, 0.4997626, -0.32580552, -0.17906442, -0.7823268, -1.2897422, 1.1001562, -0.33761692, 0
910, 2920603532, 0.4942336, -0.3367576, -0.18766597, -0.77917904, 0.8068255, 0.39942485, -1.6793919, 0
911, 2920620199, 0.49220958, -0.3434047, -0.193452, -0.7761382, 1.3008966, 0.17540598, -2.5874715, 0
912, 2920636866, 0.4910453, -0.3486137, -0.20185527, -0.77240455, 1.1062322, -0.28895426, -2.3769903, 0
914, 2920670200, 0.48882523, -0.36227125, -0.2166098, -0.7634794, 0.15467621, -0.6343141, -0.727664, 0
915, 2920686867, 0.48698288, -0.36982885, -0.22360452, -0.75900364, 0.27898166, -1.1336344, -0.74948215, 0
916, 2920703534, 0.48493508, -0.37688428, -0.23099138, -0.75461954, 0.45149967, -0.74235326, -0.9973326, 0
918, 2920736868, 0.48170835, -0.38842738, -0.24528708, -0.74627525, 0.31504917, 0.068602845, -1.1665525, 0
919, 2920753535, 0.48069286, -0.3934197, -0.25040615, -0.74260557, 0.18466929, -1.1981668, 0.6800022, 0
920, 2920770202, 0.4785595, -0.39991227, -0.2555992, -0.73873633, 0.65428686, -0.16969864, -0.3127327, 0
922, 2920803536, 0.47183722, -0.4134286, -0.2636177, -0.732778, 1.3900999, -0.48934507, -0.72022724, 0
923, 2920820203, 0.4671269, -0.42047226, -0.26616898, -0.7308631, 1.6919063, -0.3029594, -0.7574568, 0
924, 2920836870, 0.46129936, -0.42645922, -0.26872385, -0.7301604, 1.3591336, -0.2752191, -1.0384636, 0
926, 2920870204, 0.4501285, -0.4350885, -0.27301913, -0.7304479, 0.7499017, -0.32156977, -0.32053375, 0
927, 2920886871, 0.44578177, -0.43796358, -0.27567405, -0.7303981, 0.27963752, 0.59088355, -0.25745487, 0
928, 2920903538, 0.44083947, -0.44105983, -0.27703014, -0.7310215, 0.14955671, 0.8241679, -0.061229706, 0
930, 2920936872, 0.43025377, -0.447626, -0.27751857, -0.7331489, -0.13497612, 1.6409863, -0.586813, 0
932, 2920970206, 0.42073548, -0.454353, -0.27660656, -0.73487765, 0.4784478, 1.1679499, -1.1002331, 0
934, 2921003540, 0.41238022, -0.45892066, -0.27544793, -0.73720706, 0.25536543, 1.2013984, -0.20706654, 0
935, 2921020207, 0.40901724, -0.46141124, -0.27498233, -0.7376995, 0.00941593, 1.2437266, 0.15898037, 0
937, 2921053541, 0.40733942, -0.4640104, -0.27750084, -0.73605275, 0.11237863, 0.4446209, 0.7273283, 0
938, 2921070208, 0.4071751, -0.4661508, -0.27831474, -0.73448217, 0.09092979, 0.1542626, 0.6016903, 0
939, 2921086875, 0.41016528, -0.46679148, -0.28033036, -0.7316396, -0.20197402, 0.58348525, 0.8086128, 0
941, 2921120209, 0.41403896, -0.47014335, -0.28302968, -0.7262523, 0.17572488, -0.48209688, 0.5685959, 0
942, 2921136876, 0.41570556, -0.47232714, -0.2850614, -0.7230819, 0.026522579, -0.5737717, 0.3645916, 0
943, 2921153543, 0.416963, -0.4745374, -0.2866565, -0.7202747, 0.18077128, -0.902582, 0.02418232, 0
945, 2921186877, 0.41844016, -0.47747803, -0.28981718, -0.7161982, 0.15677612, -0.84660023, -0.34962463, 0
947, 2921220211, 0.4171132, -0.4814018, -0.2917618, -0.7135511, 0.42131677, -0.8156912, -0.5848303, 0
949, 2921253545, 0.4132626, -0.48791823, -0.29293036, -0.7108816, 0.12179685, -0.91656595, -0.7026863, 0
950, 2921270212, 0.41080981, -0.49206302, -0.2926649, -0.7095546, -0.04021702, -1.0210618, -0.18130398, 0
951, 2921286879, 0.4083842, -0.49598107, -0.29150522, -0.70870376, -0.26193553, -1.3394493, 0.10461998, 0
953, 2921320213, 0.4026633, -0.5035771, -0.28768897, -0.7081798, -0.6043097, -0.90535825, 0.011024475, 0
954, 2921336880, 0.3988799, -0.50731486, -0.28552866, -0.7085275, -0.5649328, -0.8109628, -0.11028004, 0
955, 2921353547, 0.39503092, -0.5106316, -0.28316525, -0.70924944, -0.3467008, -0.3057921, -0.06558609, 0
957, 2921386881, 0.38697857, -0.5158779, -0.2777092, -0.7120439, -0.25888038, -0.22813363, -0.107694626, 0
958, 2921403548, 0.38352764, -0.5172529, -0.2758159, -0.7136474, -0.3032192, 0.0043701255, 0.15989685, 0
959, 2921420215, 0.38095647, -0.5180161, -0.2743699, -0.7150271, -0.23436777, 0.477003, 0.5377655, 0
962, 2921470216, 0.3761903, -0.5204096, -0.26731354, -0.71847713, 0.492903, 0.49450755, 0.37742043, 0
964, 2921503550, 0.3751039, -0.517876, -0.25831145, -0.72414637, 0.3614504, 0.16062334, 0.3615532, 0
965, 2921520217, 0.37619874, -0.5140986, -0.2546385, -0.7275628, 0.15721804, 0.66280675, 0.19053555, 0
966, 2921536884, 0.37788707, -0.5102557, -0.25161037, -0.7304408, 0.19570331, 1.4670099, -0.3241148, 0
968, 2921570218, 0.3826787, -0.50509214, -0.24096963, -0.7351081, 0.87404597, 0.7039824, 0.509408, 0
969, 2921586885, 0.38447216, -0.5030854, -0.23234457, -0.7383181, 0.80985075, -0.18904659, -0.35816956, 0
970, 2921603552, 0.38698936, -0.4987436, -0.22518995, -0.74215555, 0.78447217, -0.590317, -1.4540377, 0
972, 2921636886, 0.39649844, -0.4850409, -0.21265343, -0.749876, 0.13515097, 0.56603783, -1.8649259, 0
973, 2921653553, 0.4024737, -0.47596958, -0.20577912, -0.75440985, -0.13514362, 1.1495308, -1.2147684, 0
976, 2921703554, 0.41793567, -0.44048065, -0.17663202, -0.77467346, 0.6661566, -0.42290345, -2.501102, 0
978, 2921736888, 0.43278545, -0.40977284, -0.16100666, -0.78668374, -0.36339664, -1.2099419, -2.1790767, 0
980, 2921770222, 0.44826692, -0.37333196, -0.14676648, -0.79884344, -1.0782695, 0.2801317, 0.26032352, 0
981, 2921786889, 0.45730183, -0.35620233, -0.13971299, -0.8027992, -2.173521, -0.19556433, 0.7768755, 0
982, 2921803556, 0.46769994, -0.34457663, -0.13201436, -0.8031857, -3.8150988, -3.4911323, -0.055583, 0
984, 2921836890, 0.48850763, -0.32881096, -0.117539115, -0.7996496, -5.212082, -5.4406643, -0.89737415, 0
985, 2921853557, 0.4986598, -0.32300705, -0.10935764, -0.7969048, -4.952924, -4.9074755, -0.3740301, 0
986, 2921870224, 0.5060678, -0.31960505, -0.10296038, -0.79445463, -4.502466, -4.005837, -1.1183577, 0
988, 2921903558, 0.5181105, -0.32123885, -0.09622153, -0.7868416, -1.2388421, -1.4305403, 0.111899376, 0
989, 2921920225, 0.5202433, -0.32541835, -0.09603512, -0.7837336, 0.95232826, 0.0010309535, -0.03498745, 0
991, 2921953559, 0.52359295, -0.3333331, -0.098176934, -0.77788943, 2.2724948, 0.948087, 3.098197, 0
992, 2921970226, 0.52785623, -0.3345537, -0.0987053, -0.7744098, 1.3733246, 0.8538139, 5.1987343, 0
993, 2921986893, 0.5308373, -0.3352946, -0.09901829, -0.77200776, 1.4803507, 0.6393043, 5.466011, 0
995, 2922020227, 0.5360133, -0.33503902, -0.09925519, -0.7685039, 0.3845098, 1.1187259, 4.396682, 0
996, 2922036894, 0.53552353, -0.33544773, -0.099699765, -0.7686096, 0.34856907, -0.37650254, 3.3492022, 0
997, 2922053561, 0.53515786, -0.33572817, -0.100586355, -0.7686264, 0.28661802, 0.15685725, 1.9371939, 0
999, 2922086895, 0.53604305, -0.33377868, -0.104276486, -0.7683667, -1.1875724, 0.7037239, 2.0043182, 0
1000, 2922103562, 0.53683823, -0.33383507, -0.10752037, -0.76733917, -1.2575939, 1.4163419, 1.8853407, 0
1001, 2922120229, 0.5372107, -0.33536723, -0.11224912, -0.76573145, -0.33915147, 0.9461937, -0.048994064, 0
1003, 2922153563, 0.5367569, -0.3385658, -0.12227228, -0.7631028, 1.2775443, -1.290443, -1.6008692, 0
1005, 2922186897, 0.532726, -0.34232172, -0.12884909, -0.76316965, 0.6699565, -0.8777413, -0.7270222, 0
1007, 2922220231, 0.5265913, -0.3448546, -0.13604514, -0.7650358, 0.21512789, -0.11449149, -0.69564724, 0
1008, 2922236898, 0.52454054, -0.34581235, -0.14061384, -0.7651863, -0.1773781, 0.5107424, -0.652133, 0
1009, 2922253565, 0.5234641, -0.34713534, -0.14549866, -0.7644107, -0.13945535, 0.88057625, -0.2646513, 0
1011, 2922286899, 0.5197671, -0.3522847, -0.15641405, -0.7624195, 0.06006204, 0.9285498, -1.0970573, 0
1012, 2922303566, 0.5183839, -0.35424244, -0.16294234, -0.76108575, -0.09428119, 0.08465609, -0.6597042, 0
1013, 2922320233, 0.51761395, -0.3567892, -0.17056161, -0.75874734, 0.06951742, 0.61896217, -0.81538963, 0
1015, 2922353567, 0.5159201, -0.3630575, -0.18416804, -0.7537303, 0.36696973, -0.071302086, -0.9361286, 0
1016, 2922370234, 0.5145495, -0.36633378, -0.19195455, -0.7511346, 0.6527808, 0.31446585, -2.2942314, 0
1018, 2922403568, 0.5137672, -0.37181178, -0.2055526, -0.74535793, 0.9098335, -1.9418226, -1.615509, 0
1020, 2922436902, 0.5132811, -0.37761623, -0.21776275, -0.7392828, 0.26941592, -1.0398563, -0.9087591, 0
1022, 2922470236, 0.50891864, -0.38482898, -0.22804865, -0.73546827, 0.2199869, -0.6343877, -0.78487015, 0
1023, 2922486903, 0.5049303, -0.38919702, -0.23301587, -0.73436093, 0.68593425, -0.70117176, -0.42938995, 0
1024, 2922503570, 0.49842244, -0.39462748, -0.23651336, -0.7347902, 1.0807452, -0.80009013, -0.098641396, 0
1026, 2922536904, 0.48468572, -0.40673062, -0.2455593, -0.7344126, 1.134098, -0.93993837, -0.6350641, 0
1027, 2922553571, 0.47746724, -0.4125732, -0.24936508, -0.73459965, 1.2651758, -0.18400358, -0.8114557, 0
1028, 2922570238, 0.4703272, -0.4174687, -0.25303158, -0.73518604, 1.2043651, 0.11147172, -0.6361332, 0
1030, 2922603572, 0.45780724, -0.4256317, -0.25931886, -0.73621666, 1.098505, 0.7685408, -0.48150063, 0
1031, 2922620239, 0.45248103, -0.43021235, -0.2607199, -0.73635215, 1.0963897, 0.838749, -0.16022396, 0
1032, 2922636906, 0.4482512, -0.43439797, -0.2641456, -0.73526025, 0.7110616, 1.2388579, -0.36684036, 0
1035, 2922686907, 0.43617833, -0.4491262, -0.27138436, -0.73102397, 0.3380662, 1.2122986, -0.6045408, 0
1036, 2922703574, 0.43320602, -0.4537676, -0.27227172, -0.7295935, 0.13532507, 0.35269862, -0.2193203, 0
1038, 2922736908, 0.42960086, -0.46059325, -0.274411, -0.7266409, 0.20180275, -0.7225892, 0.90253067, 0
1039, 2922753575, 0.4276905, -0.46329167, -0.27617437, -0.7253829, -0.3935531, -0.44317344, 1.3323221, 0
1040, 2922770242, 0.425461, -0.4666211, -0.27658883, -0.7244016, -0.2819499, -0.45637646, 0.7892208, 0
1042, 2922803576, 0.42048243, -0.47345537, -0.2764371, -0.7229304, 0.12868086, 0.057806596, 0.18783951, 0
1043, 2922820243, 0.41709846, -0.4770851, -0.27546862, -0.7228742, 0.19911408, -0.15563777, -0.34314632, 0
1045, 2922853577, 0.40940577, -0.48319435, -0.27462685, -0.7235342, 0.13050298, 0.024092685, -0.10105705, 0
1046, 2922870244, 0.4053425, -0.48598236, -0.27385077, -0.72424823, -0.14506063, -0.054782577, 0.53992367, 0
1047, 2922886911, 0.400688, -0.48887584, -0.2727487, -0.72530615, 0.57133543, 0.14411299, -0.044462204, 0
1050, 2922936912, 0.3864734, -0.4966547, -0.26947984, -0.7289474, -0.4942282, 0.25198233, 0.46963692, 0
1051, 2922953579, 0.38343844, -0.49822357, -0.26924515, -0.729566, -0.6674832, 0.2939534, 0.280262, 0
1053, 2922986913, 0.38277894, -0.4990291, -0.2679637, -0.72983354, -0.26585716, 0.2445187, 0.84027386, 0
1054, 2923003580, 0.38454074, -0.4992361, -0.26603076, -0.729473, -0.026926912, 0.1523442, 0.82769203, 0
1055, 2923020247, 0.38674012, -0.4992067, -0.26296717, -0.72944105, 0.2541042, -0.23320672, 0.23435307, 0
1057, 2923053581, 0.39156273, -0.49670663, -0.2574414, -0.7305452, 0.21732329, -0.89626575, -0.6619463, 0
1058, 2923070248, 0.39503855, -0.4939017, -0.2552476, -0.7313451, -0.018161573, -0.5243777, -0.51915073, 0
1059, 2923086915, 0.39974293, -0.4903482, -0.2513255, -0.73253745, 0.15162924, -0.8181866, 0.5362587, 0
1061, 2923120249, 0.4096672, -0.48104906, -0.23819979, -0.7375884, 1.0523704, -0.52780575, 0.36101437, 0
1062, 2923136916, 0.41505563, -0.47621402, -0.22988895, -0.7403453, 1.1146418, -0.13040997, -1.6064835, 0
1063, 2923153583, 0.42031723, -0.47111845, -0.22125652, -0.7432615, 1.6188017, -0.40866947, -1.0736675, 0
1065, 2923186917, 0.42841, -0.4620431, -0.20048338, -0.7501992, -0.21426651, -0.6982552, -1.0976954, 0
1066, 2923203584, 0.4321174, -0.4543641, -0.18876794, -0.7557815, 0.39441943, -0.60184, -0.52027416, 0
1067, 2923220251, 0.43557099, -0.44532415, -0.17526662, -0.7624022, 1.4268874, -0.72207433, -1.223216, 0
1069, 2923253585, 0.44027546, -0.42332995, -0.14592159, -0.7782464, 1.2918801, -0.48738727, -4.279727, 0
1070, 2923270252, 0.43993813, -0.41013113, -0.13369174, -0.78764486, 0.21798277, -0.9777369, -4.247863, 0
1072, 2923303586, 0.44493157, -0.37612084, -0.113394104, -0.8048118, -3.9721632, -0.17822163, 0.19539642, 0
1073, 2923320253, 0.44885242, -0.35803416, -0.10828416, -0.81155944, -6.057581, 0.6550387, 3.0975714, 0
1074, 2923336920, 0.45552668, -0.3428364, -0.105268754, -0.8147934, -6.945803, 0.57445323, 3.120761, 0
1077, 2923386921, 0.49310368, -0.32098612, -0.09893094, -0.8025214, -3.770985, -3.13402, -1.1629925, 0
1080, 2923436922, 0.5165874, -0.32803017, -0.10381452, -0.7840711, 1.8590268, 0.22685693, 0.97870445, 0
1081, 2923453589, 0.5196428, -0.3310933, -0.10731865, -0.78028363, 4.714701, 1.2360703, 1.2408342, 0
1082, 2923470256, 0.52303225, -0.3322268, -0.11011119, -0.7771417, 4.5079885, 1.2654045, 3.1969795, 0
1084, 2923503590, 0.5323414, -0.32876065, -0.11205845, -0.7719995, 0.48252094, 0.48581937, 5.702655, 0
1085, 2923520257, 0.53705573, -0.32753703, -0.112476885, -0.76918846, -0.85020626, 0.3024242, 5.8196287, 0
1086, 2923536924, 0.5386143, -0.32693812, -0.113155745, -0.76825327, -0.35735375, 0.045905203, 4.6220694, 0
1088, 2923570258, 0.5372411, -0.3256201, -0.11655769, -0.7692654, 0.2175506, -0.5398645, 1.1404696, 0
1089, 2923586925, 0.5378989, -0.3249513, -0.118632, -0.7687712, 0.115701884, -0.44835457, 0.41941738, 0
1090, 2923603592, 0.5411025, -0.32427242, -0.12059601, -0.76650065, -0.44232777, 0.6624703, 0.31762505, 0
1093, 2923653593, 0.5485569, -0.32609943, -0.13602579, -0.7577946, -0.62225026, -0.14334199, 0.20009327, 0
1094, 2923670260, 0.5486332, -0.32759225, -0.14113167, -0.7561602, 0.9358145, -0.7186548, -1.3165159, 0
1096, 2923703594, 0.54659307, -0.33047804, -0.15332136, -0.75400525, 1.1276672, -1.973838, -0.13573551, 0
1097, 2923720261, 0.5441661, -0.3336662, -0.15631321, -0.7537423, 1.5201961, -1.2743471, -1.4791498, 0
1099, 2923753595, 0.5374961, -0.33677062, -0.16682804, -0.7548927, 0.74017525, -1.0028224, -1.1411467, 0
1100, 2923770262, 0.53452617, -0.33834672, -0.17099895, -0.75536346, 0.1912746, -0.6502794, -0.8553467, 0
1101, 2923786929, 0.53151, -0.34104285, -0.17589208, -0.7551558, -0.5155705, 0.9056568, -1.1859446, 0
1103, 2923820263, 0.524762, -0.34717146, -0.18761733, -0.7542598, 0.1232644, -0.18733001, -0.72901344, 0
1104, 2923836930, 0.5210913, -0.35066977, -0.1947931, -0.75336677, 0.11993043, 0.7485966, -1.2140408, 0
1105, 2923853597, 0.51808244, -0.3541832, -0.20167667, -0.75198567, 0.10037939, 1.1021601, -1.1961975, 0
1108, 2923903598, 0.51019454, -0.3648561, -0.2200667, -0.7471034, 0.4891192, 0.33302957, -1.127923, 0
1109, 2923920265, 0.5083607, -0.3675537, -0.22651613, -0.7451008, 0.35857886, -0.51020354, -0.68922615, 0
1111, 2923953599, 0.503425, -0.37395233, -0.23805316, -0.7416634, 0.3099949, -0.059083637, -0.4456625, 0
1112, 2923970266, 0.4999837, -0.3780942, -0.2436222, -0.7400813, 0.66401786, -0.20794281, -0.3150463, 0
1113, 2923986933, 0.49683988, -0.3823065, -0.24959184, -0.7380426, 0.45831907, 0.0056023523, -0.8431101, 0
1115, 2924020267, 0.4900133, -0.3906239, -0.2602921, -0.734547, 1.0998596, 0.34997815, -0.8805666, 0
1116, 2924036934, 0.48676103, -0.39506325, -0.26629716, -0.7321789, 0.70822734, 1.069611, -1.5576754, 0
1117, 2924053601, 0.4826843, -0.40041354, -0.26945636, -0.7308141, 0.8824058, 0.39029074, -1.0133829, 0
1119, 2924086935, 0.47506642, -0.41148666, -0.2748624, -0.72763497, 0.8518257, -0.1681527, 0.06487179, 0
1120, 2924103602, 0.47159946, -0.41634047, -0.2768805, -0.7263629, 0.75114167, -0.27447557, 0.8830137, 0
1123, 2924153603, 0.4613833, -0.42997217, -0.2844594, -0.7220411, 0.6806568, 0.49872547, -0.10510826, 0
1124, 2924170270, 0.45826617, -0.43390566, -0.287741, -0.72037095, 1.260889, 0.80220467, 0.21402264, 0
1125, 2924186937, 0.45484105, -0.43830365, -0.29029724, -0.7188521, 1.0669034, 0.7431549, -0.34253788, 0
1127, 2924220271, 0.44843507, -0.44506553, -0.29314375, -0.7175657, 0.37382352, 0.16204019, 0.18294239, 0
1128, 2924236938, 0.44450685, -0.4481452, -0.29397067, -0.7177549, 0.06402763, 0.031671114, 0.52202225, 0
1130, 2924270272, 0.43633258, -0.45381537, -0.29690862, -0.7179985, 0.43246308, 0.14909242, 0.66507626, 0
1131, 2924286939, 0.4315664, -0.45741844, -0.2983859, -0.71798027, 0.20921108, 0.08347829, -0.032995224, 0
1132, 2924303606, 0.4265346, -0.46119836, -0.30033314, -0.7177572, -0.0025877336, 0.36752722, -0.46560574, 0
1134, 2924336940, 0.41642588, -0.4705881, -0.30535808, -0.7154747, -0.5646881, 0.23857504, -0.7002287, 0
1135, 2924353607, 0.41211, -0.47462922, -0.30751857, -0.7143781, -0.40382862, -0.03253164, -0.227602, 0
1136, 2924370274, 0.40844896, -0.4781758, -0.3091375, -0.71341604, -0.07470359, -0.06786468, 0.19613361, 0
1138, 2924403608, 0.40210283, -0.48551655, -0.31230903, -0.71067667, -0.15056448, -0.13651411, -0.13277912, 0
1139, 2924420275, 0.39933503, -0.49001235, -0.31356692, -0.70859486, -0.5266212, -0.25288188, -0.20763874, 0
1140, 2924436942, 0.39774624, -0.49422574, -0.3149975, -0.70592254, -0.90305495, -0.12069756, -0.09679413, 0
1142, 2924470276, 0.3984978, -0.50076854, -0.31875187, -0.69917023, -1.2485304, -0.13857837, -0.008972168, 0
1143, 2924486943, 0.3996525, -0.5038927, -0.3207742, -0.69533116, -0.8032753, -3.0777734E-4, -0.47303295, 0
1144, 2924503610, 0.40039867, -0.5068585, -0.3227059, -0.6918435, -0.47866428, -0.03448682, -0.95037365, 0
1146, 2924536944, 0.4006057, -0.51284134, -0.32573646, -0.68586886, -0.41739947, -1.651807, 0.7614336, 0
1147, 2924553611, 0.40171146, -0.5148111, -0.3261186, -0.6835607, -0.6912306, -1.7155895, 1.0439625, 0
1150, 2924603612, 0.40827852, -0.5150083, -0.32468456, -0.6801957, 0.28496215, 0.212727, 0.9068699, 0
1151, 2924620279, 0.40888733, -0.5157824, -0.32312116, -0.67998797, 0.8507391, 0.033649653, 0.46290684, 0
1153, 2924653613, 0.40903747, -0.51620334, -0.32084984, -0.6806534, 0.4654081, -0.7357406, -0.32157993, 0
1154, 2924670280, 0.40975577, -0.5146211, -0.3200122, -0.6818129, 0.27262357, -0.34500375, 0.092063904, 0
1155, 2924686947, 0.4105947, -0.51181877, -0.3181627, -0.68427885, 0.29806167, 0.21527818, 0.7906542, 0
1157, 2924720281, 0.4110929, -0.5073944, -0.31146622, -0.6903287, 0.7593725, 0.9733455, 0.9317293, 0
1158, 2924736948, 0.41026515, -0.5048898, -0.30694678, -0.694668, 0.76801556, 0.24283633, -0.058918, 0
1159, 2924753615, 0.40976322, -0.49908805, -0.30389202, -0.7004757, 0.40008163, -0.62410283, -0.3341713, 0
1161, 2924786949, 0.41567457, -0.47978458, -0.30136004, -0.7114877, -0.5090634, 0.6631522, 0.24073029, 0
1162, 2924803616, 0.42040697, -0.4703035, -0.2982413, -0.7163353, -0.2994644, 1.2880272, 0.51440334, 0
1165, 2924853617, 0.43237993, -0.44586682, -0.27385834, -0.73434544, 1.3781931, -0.3936455, -1.3413267, 0
1166, 2924870284, 0.43579915, -0.43420184, -0.2653323, -0.7424002, 0.6303649, -0.9405053, -1.8488865, 0
1167, 2924886951, 0.44077396, -0.4206259, -0.25590187, -0.75054485, -0.70599395, -0.62951976, -2.6012402, 0
1169, 2924920285, 0.4552532, -0.3911809, -0.23573358, -0.7643054, -0.58312374, -0.2464285, -2.1411405, 0
1170, 2924936952, 0.46182382, -0.37862664, -0.22232437, -0.77067727, -0.091895424, -0.81030554, -1.7824621, 0
1171, 2924953619, 0.46586424, -0.36766532, -0.20732754, -0.7777013, 0.25419587, -1.1742458, -2.0616226, 0
1173, 2924986953, 0.4719171, -0.34504825, -0.17763123, -0.7916404, -1.7604089, -3.323789, -4.02756, 0
1174, 2925003620, 0.4770193, -0.33300126, -0.1659782, -0.7962569, -2.4609108, -3.1783733, -2.2147975, 0
1175, 2925020287, 0.48317647, -0.32098922, -0.15603018, -0.7994825, -3.994098, -2.2808583, -1.0173006, 0
1177, 2925053621, 0.49922246, -0.30343962, -0.14208323, -0.7990774, -3.8882148, 0.9710647, -0.44185066, 0
1180, 2925103622, 0.51592463, -0.31693503, -0.13703012, -0.7839694, 0.36974472, 2.207023, 1.9849453, 0
1181, 2925120289, 0.5217967, -0.3232401, -0.13903315, -0.7771262, 3.202575, 0.7960927, 2.0156546, 0
1182, 2925136956, 0.5295727, -0.3274712, -0.13951561, -0.7699754, 3.1981027, -0.8427141, 3.5834455, 0
1184, 2925170290, 0.5360626, -0.33211455, -0.13857445, -0.7636395, 3.8075097, -2.58373, 3.2072449, 0
1185, 2925186957, 0.5334529, -0.33324087, -0.13600242, -0.7654364, 1.6456501, -1.5841432, 3.5582361, 0
1186, 2925203624, 0.52997065, -0.3332907, -0.13349268, -0.76827043, -0.46524495, -0.24868755, 4.753397, 0
1188, 2925236958, 0.52178985, -0.33360636, -0.13124138, -0.774099, -1.6736258, 1.4272043, 3.9659996, 0
1189, 2925253625, 0.5188023, -0.33384228, -0.1338296, -0.7755606, -1.812184, 1.2071261, 2.73913, 0
1190, 2925270292, 0.51660544, -0.33510223, -0.1360836, -0.77609134, -1.7165114, 1.0119504, 1.2628365, 0
1192, 2925303626, 0.51474595, -0.33828315, -0.14596146, -0.77414966, -0.20889357, 1.218453, -1.015646, 0
1194, 2925336960, 0.5143746, -0.34040105, -0.15705019, -0.7712927, -0.27217886, 0.004584921, -1.0883436, 0
1196, 2925370294, 0.5186073, -0.34315264, -0.16876924, -0.7647359, 0.19506702, -0.3866935, -0.4963398, 0
1197, 2925386961, 0.5204216, -0.34565687, -0.17443742, -0.761095, 0.43590564, -0.65136623, -0.4666643, 0
1198, 2925403628, 0.52102566, -0.34826058, -0.18118931, -0.7579107, 0.1611478, 0.17482793, -1.5345478, 0
1200, 2925436962, 0.5207305, -0.3527851, -0.19756697, -0.7519048, 0.8759217, -0.16739254, -1.369134, 0
1201, 2925453629, 0.5198078, -0.35642353, -0.20554005, -0.74868333, 1.1039784, 0.2003378, -1.6994991, 0
1202, 2925470296, 0.51823676, -0.36018348, -0.21313429, -0.74584424, 1.0208187, -0.108110644, -1.676897, 0
1204, 2925503630, 0.5148707, -0.36604843, -0.22819851, -0.7408464, 0.63531727, 0.94387937, -2.003612, 0
1205, 2925520297, 0.51397884, -0.36820322, -0.2363212, -0.73784536, 0.6215728, 0.3762236, -1.5695906, 0
1207, 2925553631, 0.5105214, -0.37428603, -0.25048682, -0.7324927, 0.7160875, 0.5087595, -0.86899376, 0
1208, 2925570298, 0.5075995, -0.37834406, -0.2560163, -0.73052406, 0.05873507, 0.56093705, -1.7595654, 0
1209, 2925586965, 0.5038583, -0.38301572, -0.2599974, -0.7292724, 1.1186818, -0.4912046, -1.0260582, 0
1211, 2925620299, 0.4961849, -0.3912317, -0.26978248, -0.7266135, 1.359955, -0.038469486, -0.8972368, 0
1212, 2925636966, 0.49232173, -0.39567927, -0.2735749, -0.7254138, 1.1441504, -0.23397548, -1.131505, 0
1213, 2925653633, 0.48889604, -0.3999016, -0.2778979, -0.7237702, 1.1806377, -0.47536165, -0.8661432, 0
1215, 2925686967, 0.48193294, -0.40879866, -0.2863516, -0.72016555, 0.5041779, 0.21305607, -0.31797028, 0
1216, 2925703634, 0.477158, -0.41552335, -0.28838518, -0.71868336, 0.6637879, -0.033647306, -0.18307972, 0
1217, 2925720301, 0.47287124, -0.42220056, -0.29097912, -0.7165764, 0.30634362, 0.30413264, -0.4389, 0
1219, 2925753635, 0.46272975, -0.43473563, -0.29306173, -0.71485114, 0.13703719, -0.3746, -0.39037132, 0
1221, 2925786969, 0.4504633, -0.44598264, -0.29522595, -0.71486735, -0.17071685, -0.7513029, 0.17689705, 0
1223, 2925820303, 0.43822265, -0.45705104, -0.29858866, -0.7140878, -0.5340231, -0.59144604, 0.24009323, 0
1224, 2925836970, 0.43323112, -0.46172738, -0.29987413, -0.71358633, -1.076081, 0.014736097, 0.117230415, 0
1225, 2925853637, 0.42935243, -0.46521878, -0.30107832, -0.7131555, -0.93863195, 0.7443065, 0.1592207, 0
1227, 2925886971, 0.42199406, -0.47267315, -0.30429432, -0.7112788, -0.47677672, 0.5217131, 0.06819439, 0
1228, 2925903638, 0.41852444, -0.47607675, -0.30570486, -0.71045333, -0.14797239, 0.19011855, 0.03516102, 0
1229, 2925920305, 0.4150696, -0.4790758, -0.3069923, -0.7099089, 0.28690624, -0.23733924, 0.046812057, 0
1231, 2925953639, 0.40892917, -0.48313817, -0.3104961, -0.7091952, -0.059730224, -0.34280002, 0.19262409, 0
1232, 2925970306, 0.40561602, -0.48443404, -0.31277198, -0.7092138, -0.036430992, -0.19836059, 0.49449635, 0
1234, 2926003640, 0.40024513, -0.48775813, -0.31537843, -0.70883274, -0.07281923, 0.02851757, 0.224823, 0
1236, 2926036974, 0.39683825, -0.4902533, -0.3167448, -0.70841736, 0.36581662, -0.4209293, 0.28393555, 0
1238, 2926070308, 0.39400208, -0.49212676, -0.31767553, -0.7082846, -0.19539112, -0.18591751, 0.44044018, 0
1239, 2926086975, 0.3923385, -0.49306706, -0.31795913, -0.7084269, 0.39467904, -0.5431182, 0.5933275, 0
1240, 2926103642, 0.39122653, -0.49392417, -0.31827655, -0.7083023, -0.251197, -0.07494859, 0.5501709, 0
1242, 2926136976, 0.3906207, -0.49475825, -0.31649873, -0.70885086, 0.13212723, -0.5234782, 0.57022476, 0
1243, 2926153643, 0.39138454, -0.49500147, -0.3158759, -0.7085377, 0.15989792, -0.26481044, 0.16613579, 0
1244, 2926170310, 0.39165404, -0.49544036, -0.314381, -0.70874655, 0.2819973, -0.30391794, -0.13266373, 0
1246, 2926203644, 0.390092, -0.49637267, -0.30982506, -0.7109586, 0.3720677, -0.56466246, -0.055148125, 0
1247, 2926220311, 0.3885072, -0.4963768, -0.30754247, -0.7128122, 0.46647355, -0.3781914, 0.14294052, 0
1248, 2926236978, 0.3873136, -0.4954495, -0.30541086, -0.71502, 0.23353957, 0.1783133, 0.27106285, 0
1251, 2926286979, 0.38473624, -0.49290437, -0.29755127, -0.72145516, -0.06682316, 0.6659386, 0.98807526, 0
1252, 2926303646, 0.38407654, -0.4922148, -0.29205674, -0.72451615, 0.026503943, 0.5392725, 1.0763559, 0
1254, 2926336980, 0.38592, -0.48647508, -0.27987292, -0.73218167, 1.0762017, 1.1628139, 0.31737232, 0
1255, 2926353647, 0.38719457, -0.48253414, -0.27353585, -0.73649883, 1.002065, 1.1881529, -0.5732107, 0
1256, 2926370314, 0.38812608, -0.47883207, -0.26763207, -0.7405824, 1.1683819, 1.1630496, -0.8050213, 0
1258, 2926403648, 0.38922745, -0.4728953, -0.25539482, -0.7481021, 0.76998115, 1.2288479, -0.8785057, 0
1259, 2926420315, 0.38874015, -0.4705538, -0.24800181, -0.75230753, 1.4391111, 0.38343123, -0.119935036, 0
1261, 2926453649, 0.3874278, -0.4619587, -0.23333846, -0.7629273, 0.19028966, 0.7016051, -1.7202291, 0
1262, 2926470316, 0.38903293, -0.45401937, -0.22864166, -0.76827985, -0.8511998, 1.1116477, -1.4487085, 0
1263, 2926486983, 0.39356464, -0.4441129, -0.22539201, -0.77270967, -1.7097433, 1.3597106, 0.20225143, 0
1266, 2926536984, 0.4242046, -0.40754402, -0.20270503, -0.7828668, 0.11596642, -0.26397505, -0.2843399, 0
1267, 2926553651, 0.43549818, -0.39381874, -0.19180767, -0.78642803, 0.79420245, -0.9678539, -3.0495296, 0
1269, 2926586985, 0.45526212, -0.36369467, -0.17596331, -0.7934172, -1.6066793, -2.6592803, -5.1664677, 0
1270, 2926603652, 0.46480548, -0.34980744, -0.16695169, -0.796071, -2.1793585, -2.9973676, -5.117873, 0
1271, 2926620319, 0.472381, -0.33827877, -0.155296, -0.79894817, -2.1039038, -2.392943, -4.881447, 0
1273, 2926653653, 0.48129544, -0.32098874, -0.13535151, -0.8043705, -1.4377773, -3.0105832, -3.3434525, 0
1274, 2926670320, 0.48599494, -0.31129903, -0.12939604, -0.80633104, -3.0252721, -3.5206447, -0.944396, 0
1275, 2926686987, 0.494896, -0.30198634, -0.12578395, -0.8050291, -4.5994997, -3.4364147, 0.4692707, 0
1277, 2926720321, 0.51867867, -0.2996033, -0.115241215, -0.79242724, -2.825604, 0.2804636, 2.001338, 0
1278, 2926736988, 0.5268687, -0.30615428, -0.11018931, -0.785206, -0.19959155, 1.104384, 4.0392113, 0
1279, 2926753655, 0.53178126, -0.31235522, -0.10945566, -0.77953416, 2.5601568, 0.7052355, 4.3545494, 0
1281, 2926786989, 0.5366273, -0.31627673, -0.113204375, -0.77407765, 4.344927, 0.115010515, 4.0195274, 0
1282, 2926803656, 0.53886706, -0.31747395, -0.11034413, -0.7724429, 1.7017342, -1.8223673, 6.449892, 0
1283, 2926820323, 0.5383747, -0.31858578, -0.1056469, -0.77298486, 0.077962674, -0.45249885, 6.0833473, 0
1285, 2926853657, 0.53207713, -0.32148927, -0.09840501, -0.7770884, -1.7327034, 2.3576257, 5.157853, 0
1286, 2926870324, 0.5295687, -0.32327455, -0.096840516, -0.7782569, -1.5125513, 1.8988465, 3.7447996, 0
1288, 2926903658, 0.533156, -0.32200602, -0.10046636, -0.77587026, -1.9612699, 1.6141429, 1.7208481, 0
1289, 2926920325, 0.53769076, -0.32196733, -0.104053214, -0.77227575, -1.5818063, 1.2622082, 1.5198374, 0
1290, 2926936992, 0.5417209, -0.32391426, -0.10798611, -0.7680938, -1.145407, 0.37048602, 0.54625416, 0
1293, 2926986993, 0.54734635, -0.33095345, -0.12220004, -0.75892043, 1.4527546, -0.20329945, -2.2788858, 0
1294, 2927003660, 0.5475772, -0.3330291, -0.12648298, -0.7571422, 1.2574741, -0.7675206, -1.9298873, 0
1296, 2927036994, 0.54492587, -0.33778596, -0.13561183, -0.7553655, 1.1425383, -0.7250165, -1.8757501, 0
1297, 2927053661, 0.5428597, -0.34050542, -0.1399263, -0.7548454, 0.88583064, -1.0688822, -1.2393751, 0
1298, 2927070328, 0.53966606, -0.34378132, -0.14477758, -0.75473547, 0.49504483, -1.1264526, -0.9037523, 0
1300, 2927103662, 0.5293309, -0.3507259, -0.15586899, -0.75664794, 0.2014123, -0.5392821, -0.28496838, 0
1301, 2927120329, 0.52306604, -0.3540267, -0.16265404, -0.7580381, 0.34783128, -0.238778, -0.5915184, 0
1302, 2927136996, 0.5166946, -0.3572959, -0.16954711, -0.75936246, 0.59256023, -0.25249588, -0.4164238, 0
1304, 2927170330, 0.5054668, -0.36405426, -0.18033841, -0.7612208, 0.09300285, -0.5502947, -0.42268085, 0
1305, 2927186997, 0.5014056, -0.36696905, -0.18563105, -0.76123494, -0.34958005, -0.36481148, -0.9228163, 0
1308, 2927236998, 0.49722224, -0.37537056, -0.19993964, -0.75624216, 0.66415435, 0.67303294, -0.8069372, 0
1309, 2927253665, 0.49466383, -0.38015074, -0.2034683, -0.7545892, 1.1307958, 0.21971972, -0.684165, 0
1310, 2927270332, 0.49153906, -0.38583592, -0.20784153, -0.75255114, 1.5023166, 0.7666912, -1.595356, 0
1312, 2927303666, 0.485883, -0.39677918, -0.21626422, -0.7481478, 1.1394434, -1.0426843, -1.6415043, 0
1313, 2927320333, 0.48381191, -0.40112966, -0.22020319, -0.7460181, 0.98693454, -0.86117387, -0.8471508, 0
1315, 2927353667, 0.48073384, -0.40973228, -0.22704555, -0.7412665, 0.8899328, -1.696275, 0.70722866, 0
1316, 2927370334, 0.47766268, -0.41430238, -0.2315816, -0.7393058, 0.5283345, -0.2662855, -0.6362829, 0
1317, 2927387001, 0.47445488, -0.41780007, -0.23529848, -0.7382288, 0.07173721, -0.6340519, 0.09668541, 0
1319, 2927420335, 0.46489084, -0.42716542, -0.23923904, -0.737687, 0.7373887, -0.482044, -0.048582077, 0
1320, 2927437002, 0.45863634, -0.43311295, -0.24050117, -0.7377239, 0.8922048, -0.6525948, -0.53673744, 0
1323, 2927487003, 0.44026938, -0.44411826, -0.24604706, -0.74053633, -0.4256184, 0.82250386, -0.98075485, 0
1324, 2927503670, 0.43818426, -0.4450894, -0.25007558, -0.7398402, -0.5164658, 1.2538147, -0.19080448, 0
1325, 2927520337, 0.43662107, -0.44688687, -0.25215036, -0.7389761, -0.39714876, 1.0398117, 0.5460434, 0
1327, 2927553671, 0.4357642, -0.45419466, -0.2554338, -0.7338813, 0.52888614, 1.1086549, -0.5565176, 0
1328, 2927570338, 0.43586284, -0.45806068, -0.25724566, -0.73078036, 0.61133224, 0.13184917, -0.5415478, 0
1329, 2927587005, 0.4367053, -0.46060348, -0.25923178, -0.72797185, 0.503399, -0.6286015, 0.18236828, 0
1331, 2927620339, 0.43955964, -0.46177313, -0.26469457, -0.7235338, 0.01283403, -0.38593435, 1.5055618, 0
1332, 2927637006, 0.44003528, -0.46186873, -0.26779655, -0.72204036, 0.004255072, -0.11304939, 1.4532042, 0
1333, 2927653673, 0.43946683, -0.4622053, -0.27055445, -0.7211426, 0.21755323, -0.12517016, 1.0676603, 0
1335, 2927687007, 0.43762589, -0.46242383, -0.27550182, -0.7202484, 0.31160817, -0.54632556, -0.06420517, 0
1337, 2927720341, 0.43871167, -0.46218187, -0.28029186, -0.71789116, 0.48420885, -0.022049442, -0.82490444, 0
1339, 2927753675, 0.43684357, -0.46304086, -0.28331596, -0.71728957, 0.11871776, 0.05669976, -0.24924946, 0
1340, 2927770342, 0.4359193, -0.4635695, -0.28535736, -0.71670073, 0.17712326, 0.17876063, -0.5068846, 0
1342, 2927803676, 0.43375027, -0.46371752, -0.28662091, -0.71741664, 0.16590056, -0.07249252, 0.08681011, 0
1343, 2927820343, 0.43360978, -0.46300283, -0.28751493, -0.7176052, -0.1170938, 0.05660287, 0.33730412, 0
1344, 2927837010, 0.4334032, -0.4629767, -0.28845042, -0.71737134, -0.13631831, -0.13022994, 0.59374523, 0
1346, 2927870344, 0.4343375, -0.46398306, -0.2913808, -0.7149682, -0.3648938, 0.14793004, 0.262187, 0
1347, 2927887011, 0.43484426, -0.46506634, -0.29288667, -0.7133388, 0.047269147, -0.027718414, -0.4638462, 0
1348, 2927903678, 0.4355719, -0.46497437, -0.29393956, -0.7125213, 0.5305783, 0.1869496, -0.8918905, 0
1350, 2927937012, 0.43514875, -0.46349564, -0.29487517, -0.71335626, 0.55809754, 0.09572981, -0.59845066, 0
1351, 2927953679, 0.43394393, -0.46302867, -0.29622713, -0.7138332, 0.05323453, 0.014772865, -0.40122128, 0
1352, 2927970346, 0.43259695, -0.46231812, -0.29685944, -0.7148479, -0.08211374, 0.10292593, 0.10601711, 0
1354, 2928003680, 0.43225124, -0.45977524, -0.2955679, -0.7172283, 0.017367683, 0.0503977, 0.69631386, 0
1355, 2928020347, 0.43286765, -0.45857233, -0.29420388, -0.7181868, -0.07964197, 0.15863228, 0.3684883, 0
1356, 2928037014, 0.43351078, -0.45794082, -0.29370692, -0.71840537, -0.27635476, 0.4395189, 0.12221718, 0
1358, 2928070348, 0.4351667, -0.45773286, -0.29623187, -0.71649724, -0.6718815, 0.48885727, -0.50387573, 0
1359, 2928087015, 0.43598324, -0.45778096, -0.2972263, -0.7155577, -0.41081905, 0.43625772, -0.612648, 0
1360, 2928103682, 0.43663472, -0.45770907, -0.2963545, -0.7155681, 0.044991482, -0.10745385, -0.062758446, 0
1362, 2928137016, 0.43821305, -0.45494533, -0.29165563, -0.7182913, 1.0226462, -0.005108165, 0.94478035, 0
1364, 2928170350, 0.4386101, -0.45028955, -0.28647345, -0.7230525, 0.4789364, 0.6651617, 0.30195236, 0
1366, 2928203684, 0.43751878, -0.44457752, -0.2826437, -0.7287332, 0.19198534, 1.3830409, -0.39096355, 0
1367, 2928220351, 0.43704355, -0.44235396, -0.27938983, -0.7316206, 1.035306, 0.8927914, -0.5832443, 0
1369, 2928253685, 0.43871808, -0.43453193, -0.2700517, -0.7387774, 1.3138525, -0.34601393, -1.0619106, 0
1370, 2928270352, 0.44118482, -0.4278456, -0.2649984, -0.7430284, 0.7556706, 0.023787813, -0.93295765, 0
1371, 2928287019, 0.4449249, -0.4197381, -0.2622856, -0.7463775, 0.34093788, 1.3294935, -0.72387886, 0
1373, 2928320353, 0.45446736, -0.40298718, -0.25459328, -0.75249887, 0.6411706, 1.1968726, -1.0884056, 0
1374, 2928337020, 0.45978904, -0.39335757, -0.24878249, -0.7562951, 1.3030981, 0.73853546, -1.8967547, 0
1375, 2928353687, 0.46348178, -0.38421783, -0.24180932, -0.7609867, 1.5410335, -0.20909391, -3.0839543, 0
1377, 2928387021, 0.47186217, -0.36103556, -0.22692749, -0.7716958, -0.81457007, -2.013547, -3.1737046, 0
1379, 2928420355, 0.4795, -0.3373156, -0.20670585, -0.78331465, -0.57983696, -1.7371829, -3.9422655, 0
1381, 2928453689, 0.48170584, -0.31968352, -0.18106048, -0.79560685, -1.9687194, -4.159209, -3.5988488, 0
1383, 2928487023, 0.48305613, -0.2977972, -0.16143094, -0.80741876, -5.8062844, -3.719713, 3.37914, 0
1385, 2928520357, 0.49215192, -0.2818213, -0.14759172, -0.8103031, -8.616061, -0.62811065, 3.5016775, 0
1386, 2928537024, 0.5016419, -0.28333884, -0.13996233, -0.80529267, -5.0139136, 0.042589836, 0.48803997, 0
1387, 2928553691, 0.50828755, -0.29163504, -0.13363597, -0.79921556, -3.4758122, -0.13967057, 0.46077633, 0
1390, 2928603692, 0.51239455, -0.3202323, -0.1345828, -0.78536725, 4.4516516, 3.3539307, 1.1038599, 0
1393, 2928653693, 0.52571267, -0.3191691, -0.14616317, -0.774858, 0.5383798, 0.7381513, 6.703863, 0
1394, 2928670360, 0.5297091, -0.3197178, -0.14799598, -0.7715551, 0.26349077, 0.37418193, 5.721678, 0
1396, 2928703694, 0.5296511, -0.32103872, -0.14962181, -0.77073234, -0.08747624, -0.111119166, 4.1532593, 0
1398, 2928737028, 0.527933, -0.31819984, -0.15224037, -0.7725735, -0.2323551, 1.6521984, 2.152069, 0
1400, 2928770362, 0.5258491, -0.31879973, -0.15609089, -0.77297884, -0.6870372, 0.36617267, 0.49414444, 0
1401, 2928787029, 0.5245323, -0.3198965, -0.15897818, -0.772832, -0.0361504, -0.05008378, -0.7737045, 0
1402, 2928803696, 0.52272874, -0.32065865, -0.16125816, -0.7732658, 0.055662688, -0.95866853, -1.0874681, 0
1404, 2928837030, 0.5178071, -0.32117036, -0.16826858, -0.77486914, 0.06886881, -1.0995543, -1.7318611, 0
1405, 2928853697, 0.5157969, -0.32223055, -0.17037514, -0.77530926, -0.2962971, -0.46794093, -1.418438, 0
1406, 2928870364, 0.51371706, -0.32382938, -0.1749522, -0.7750047, -0.43078497, 0.40992683, -1.9873819, 0
1408, 2928903698, 0.5113035, -0.32896486, -0.1825589, -0.77268, -0.39210767, 0.26788747, -1.1856318, 0
1409, 2928920365, 0.5089245, -0.33336106, -0.18575957, -0.77160275, 0.79929155, 0.02867213, -1.6814709, 0
1410, 2928937032, 0.5065272, -0.33801562, -0.18903862, -0.77035797, 0.8604634, -0.43420768, -1.5034847, 0
1413, 2928987033, 0.49608868, -0.35198197, -0.19765776, -0.76873106, 0.98293346, -0.08783912, -1.407917, 0
1414, 2929003700, 0.4926577, -0.35557216, -0.19870365, -0.76901567, 0.21930996, -0.8952124, -0.031497955, 0
1416, 2929037034, 0.4856118, -0.3610933, -0.20510218, -0.76924455, 0.16034451, -0.49844763, -0.4444542, 0
1417, 2929053701, 0.4823674, -0.36362883, -0.207727, -0.7693871, -0.2917957, 0.32595342, 0.44817543, 0
1418, 2929070368, 0.4785909, -0.36790052, -0.20974195, -0.7691682, -0.16311613, 0.2332865, 0.49931526, 0
1420, 2929103702, 0.47089654, -0.37697878, -0.21269378, -0.76871055, 0.44358486, 0.6350183, -0.748744, 0
1421, 2929120369, 0.46676224, -0.38098216, -0.21323395, -0.7691087, 0.39498395, 0.04443896, -0.41866493, 0
1423, 2929153703, 0.4584448, -0.38929993, -0.21675266, -0.7689626, 0.36231792, -0.17777327, -0.4312849, 0
1424, 2929170370, 0.45481014, -0.39310712, -0.21815687, -0.768787, 0.20580162, -0.039837275, -0.52616405, 0
1425, 2929187037, 0.45166972, -0.39644533, -0.2203969, -0.7682851, -0.121818475, 0.4268314, -1.0000486, 0
1427, 2929220371, 0.44456017, -0.40424117, -0.22247967, -0.76776904, 0.51185673, -0.17509848, -0.60257435, 0
1428, 2929237038, 0.441258, -0.40779766, -0.22460526, -0.7671741, 0.44323963, 0.39760727, -0.69872, 0
1429, 2929253705, 0.43819338, -0.41101003, -0.22712865, -0.76647323, 0.31423926, 0.46119645, -1.0100708, 0
1431, 2929287039, 0.43197224, -0.41735712, -0.23088828, -0.7654508, 0.582411, 0.3732283, -0.7882271, 0
1432, 2929303706, 0.4304983, -0.41984102, -0.23436785, -0.7638637, 0.8661141, 0.77772915, -0.5436392, 0
1433, 2929320373, 0.42916378, -0.42236993, -0.237012, -0.7624032, 0.951917, 0.32605964, -0.18505764, 0
1435, 2929353707, 0.42831066, -0.42661303, -0.24313396, -0.75858307, -0.07192594, 0.73854625, -0.59342957, 0
1436, 2929370374, 0.42774773, -0.42941678, -0.24502021, -0.7567096, 0.14280064, 0.6428214, -0.49832058, 0
1437, 2929387041, 0.42720476, -0.43254873, -0.24684063, -0.75463814, 0.76242256, -0.13943644, -0.3658371, 0
1440, 2929437042, 0.42599568, -0.44373345, -0.253628, -0.7465337, 0.6475111, -0.49737042, -0.29421234, 0
1441, 2929453709, 0.42523924, -0.44821283, -0.25584444, -0.74352664, -0.20419095, -0.641299, -0.24337196, 0
1443, 2929487043, 0.42455602, -0.4544742, -0.261254, -0.73821616, 0.25624907, 0.42794952, 0.06939602, 0
1444, 2929503710, 0.42351288, -0.45792904, -0.26306498, -0.73603404, 0.059579335, -0.2614173, 0.46047306, 0
1445, 2929520377, 0.42344946, -0.4608495, -0.26634148, -0.7330632, -0.06620546, -0.14613378, 0.620409, 0
1447, 2929553711, 0.41964453, -0.4699325, -0.27140772, -0.72760636, -0.21327889, -0.15954411, 0.8750057, 0
1448, 2929570378, 0.41786736, -0.4744946, -0.27358592, -0.7248475, -0.16844, -0.19062795, 0.31325626, 0
1450, 2929603712, 0.41301355, -0.48295364, -0.278176, -0.7202812, 0.2527661, -0.24709658, -0.58574486, 0
1451, 2929620379, 0.41103935, -0.48595452, -0.28115672, -0.71823186, 0.05253437, -0.11442991, -0.86095047, 0
1452, 2929637046, 0.409269, -0.48854053, -0.28421444, -0.7162823, 0.4184837, -0.35926008, -0.5984268, 0
1455, 2929687047, 0.4052742, -0.49522033, -0.2894131, -0.7118714, 0.979839, -0.83326834, 0.7674055, 0
1456, 2929703714, 0.40332246, -0.4970214, -0.2893212, -0.711762, 0.9399559, -0.9372704, 0.4569273, 0
1458, 2929737048, 0.39916486, -0.5004686, -0.28881675, -0.71189505, 0.4763061, -0.5188871, 0.17569447, 0
1459, 2929753715, 0.3974494, -0.5012926, -0.28890082, -0.712241, -0.25463933, -0.24480425, 0.3109417, 0
1460, 2929770382, 0.39665347, -0.5009877, -0.28852552, -0.71305096, -0.46445456, 0.19816503, 0.4403553, 0
1462, 2929803716, 0.39494747, -0.50214213, -0.28601795, -0.71419513, 0.3525754, -0.029129477, 1.8856955, 0
1463, 2929820383, 0.39356148, -0.50410455, -0.2828195, -0.71485126, 0.7256844, -0.70423055, 0.42794037, 0
1464, 2929837050, 0.3917563, -0.5051158, -0.28074825, -0.71594477, 0.29325578, -1.0241127, -0.4590664, 0
1466, 2929870384, 0.3901248, -0.5038614, -0.27507314, -0.71991134, -0.6587365, -0.21613836, 0.7526283, 0
1467, 2929887051, 0.38967934, -0.5040227, -0.26824343, -0.7226119, -0.3361652, -0.15460123, 0.38179684, 0
1470, 2929937052, 0.38326406, -0.5024274, -0.2402534, -0.7368616, 0.9514323, -1.0118617, -1.0989599, 0
1471, 2929953719, 0.3814262, -0.49861905, -0.23212433, -0.74298227, 1.157524, -0.6804067, -1.533598, 0
1472, 2929970386, 0.38058835, -0.49338278, -0.22462076, -0.7491881, 0.529457, -0.20251805, -2.1580038, 0
1474, 2930003720, 0.3831414, -0.47839296, -0.20891902, -0.7620414, 0.4110097, 1.7269796, -1.5058365, 0
1475, 2930020387, 0.38473603, -0.46971807, -0.19962236, -0.7690939, 0.21228652, 0.7981809, -1.2350769, 0
1476, 2930037054, 0.38816866, -0.45930925, -0.19026643, -0.7759962, -0.17355068, 0.507442, -1.031702, 0
1478, 2930070388, 0.40062022, -0.4338713, -0.17115152, -0.7886555, -0.62545794, -0.091631316, -1.650383, 0
1479, 2930087055, 0.40868813, -0.42146713, -0.1612652, -0.7933124, -0.17917459, -0.26627356, -2.8542075, 0
1481, 2930120389, 0.42507267, -0.3903158, -0.14196411, -0.8042539, 0.031230817, -1.1961354, -1.5650806, 0
1482, 2930137056, 0.43077037, -0.37348726, -0.13549674, -0.81030625, -1.2578574, -0.74450487, -0.58884335, 0
1485, 2930187057, 0.4534272, -0.34093708, -0.11575471, -0.8153391, -6.143501, -3.8500483, 2.3893213, 0
1486, 2930203724, 0.46378142, -0.33434442, -0.109666094, -0.8130837, -5.791208, -4.5604763, 1.6919079, 0
1487, 2930220391, 0.47554934, -0.3302487, -0.10433838, -0.80864906, -3.7436645, -3.397837, -0.6953497, 0
1489, 2930253725, 0.48879284, -0.32954264, -0.10003879, -0.8015528, -0.8424948, -1.2490599, -0.8046379, 0
1490, 2930270392, 0.49247962, -0.3327609, -0.10154085, -0.7977685, 1.2267956, 1.9586228, 0.69615746, 0
1491, 2930287059, 0.49488384, -0.3361217, -0.10405796, -0.7945409, 2.8672905, 3.8294895, 1.3803091, 0
1493, 2930320393, 0.5048696, -0.33461466, -0.10895091, -0.7882138, 1.8427119, 2.2300756, 4.6475754, 0
1494, 2930337060, 0.51078683, -0.33145368, -0.11110839, -0.7854308, 1.2969404, 2.4241698, 5.2817917, 0
1495, 2930353727, 0.51594484, -0.32932913, -0.11158893, -0.7828808, -0.5490588, 0.8088367, 4.9688997, 0
1497, 2930387061, 0.5186311, -0.3277871, -0.11128582, -0.7817953, 0.9824284, -0.33781916, 2.4992476, 0
1498, 2930403728, 0.5161101, -0.32728854, -0.11095606, -0.78371716, 0.9462375, 0.271683, 0.95780563, 0
1499, 2930420395, 0.5136647, -0.32668456, -0.11079022, -0.7855969, 0.35429862, 1.2699919, -0.24395943, 0
1501, 2930453729, 0.51094276, -0.32262728, -0.11290428, -0.7887413, -0.7578535, 1.5261765, 0.056981087, 0
1502, 2930470396, 0.51113844, -0.32094014, -0.115430295, -0.78893733, -1.6418567, 1.1449356, 0.5756035, 0
1504, 2930503730, 0.51149243, -0.32222334, -0.12248808, -0.78711843, -0.5384813, -0.062173482, -0.47161388, 0
1505, 2930520397, 0.5113704, -0.32330135, -0.1269755, -0.786044, 0.39065656, -0.5274154, -1.1939306, 0
1506, 2930537064, 0.5108737, -0.32492116, -0.13188289, -0.78489006, 1.4250053, 0.50979674, -1.8711743, 0
1508, 2930570398, 0.5094638, -0.3268932, -0.14071131, -0.7834533, 1.5185875, -0.21979538, -1.2455854, 0
1509, 2930587065, 0.5083616, -0.3275849, -0.14472163, -0.78314984, 0.76888883, -0.5424211, -1.4901953, 0
1512, 2930637066, 0.5053664, -0.33132672, -0.15851514, -0.7808402, -0.7400683, -0.31373224, -0.0031375885, 0
1513, 2930653733, 0.50499696, -0.33402288, -0.16473067, -0.7786409, -0.53900874, 0.64068896, -0.69998264, 0
1514, 2930670400, 0.5048241, -0.33842123, -0.16892076, -0.77595145, -0.21503145, 0.40218988, -0.90684795, 0
1516, 2930703734, 0.50563586, -0.34823927, -0.1787192, -0.7688514, 0.40966004, -0.5909638, -0.7917795, 0
1517, 2930720401, 0.5044773, -0.35404682, -0.18205246, -0.7661733, 0.22835198, 0.047445655, -0.50532436, 0
1518, 2930737068, 0.5025436, -0.35996994, -0.18558082, -0.7638342, 0.57325226, 0.36937198, -0.6252413, 0
1520, 2930770402, 0.49612775, -0.37095815, -0.19244099, -0.7610684, 0.86795056, -0.21828309, -0.55505466, 0
1521, 2930787069, 0.49256194, -0.37510863, -0.19781588, -0.75997144, 1.0250232, 0.13066545, -0.025595665, 0
1522, 2930803736, 0.48874867, -0.37975702, -0.20197901, -0.75902915, 0.12145029, -0.08462178, -0.3288517, 0
1524, 2930837070, 0.4810988, -0.3885217, -0.21329233, -0.75638115, 0.7892733, -0.17111112, -0.3085518, 0
1526, 2930870404, 0.4735484, -0.39731666, -0.22475904, -0.75325024, 0.76969254, -0.23074718, -0.782197, 0
1528, 2930903738, 0.46492904, -0.4082295, -0.23216335, -0.75053394, 1.1295195, -0.15680248, -0.6688442, 0
1529, 2930920405, 0.46077248, -0.41352475, -0.23593104, -0.74902177, 0.9415138, -0.06622097, -0.93960667, 0
1531, 2930953739, 0.4546417, -0.4210806, -0.24705291, -0.7449619, 0.46655804, 0.2516795, -1.0109043, 0
1532, 2930970406, 0.4528498, -0.42376965, -0.25302967, -0.74251837, -0.16773935, 0.9303369, -0.88994026, 0
1533, 2930987073, 0.4519949, -0.42615426, -0.25894204, -0.73963076, 0.1050738, 0.7739137, -0.618248, 0
1535, 2931020407, 0.4506674, -0.43121064, -0.26817426, -0.73420024, 0.68233275, 0.7422626, 0.22691345, 0
1536, 2931037074, 0.45027885, -0.43444657, -0.2714594, -0.73131806, 0.45308027, 0.5600146, 0.5411024, 0
1537, 2931053741, 0.45000926, -0.43851814, -0.27462167, -0.7278651, 0.5308505, -0.12879185, 0.76140594, 0
1539, 2931087075, 0.44866666, -0.44816822, -0.28153387, -0.72013426, 0.7417954, -1.0765597, 0.24736309, 0
1541, 2931120409, 0.44474286, -0.45638978, -0.2870599, -0.71520615, 0.41491938, -0.40346032, 0.21751595, 0
1543, 2931153743, 0.44011474, -0.462148, -0.29290792, -0.7119933, 0.24034192, -0.33427066, 0.44468403, 0
1544, 2931170410, 0.43688905, -0.46567643, -0.29599074, -0.7104043, 0.52298266, -0.44578373, 0.1768341, 0
1545, 2931187077, 0.43276983, -0.47023618, -0.29832792, -0.7089427, 0.36858374, -0.53056073, -0.011786461, 0
1547, 2931220411, 0.4278925, -0.4773657, -0.3038011, -0.70480216, -0.78249115, -0.118664816, 0.13404942, 0
1548, 2931237078, 0.42516142, -0.48081934, -0.3050189, -0.7035803, 0.06260056, -0.21948436, 0.33419704, 0
1549, 2931253745, 0.42156053, -0.48350087, -0.30585563, -0.7035463, 0.22015345, -0.5589479, 0.39851475, 0
1551, 2931287079, 0.41320857, -0.48834506, -0.3065251, -0.7048627, 0.44358388, -0.44303787, -0.12473011, 0
1552, 2931303746, 0.40942454, -0.4901088, -0.3068996, -0.70568323, 0.271417, -0.30797628, -0.10674667, 0
1553, 2931320413, 0.40590298, -0.49186614, -0.30708012, -0.7064161, 0.51159513, -0.012367531, -0.26378536, 0
1556, 2931370414, 0.4001906, -0.49770942, -0.30643556, -0.70586205, -0.32814467, 0.2657264, 0.73570347, 0
1558, 2931403748, 0.40293387, -0.49882743, -0.30112925, -0.7057959, 0.47401774, 0.6598889, -0.14222908, 0
1559, 2931420415, 0.40534806, -0.49856424, -0.2969487, -0.7063706, 0.4528057, 0.74294376, -0.44605064, 0
1560, 2931437082, 0.40803152, -0.4977852, -0.29334217, -0.7068817, 0.6657132, 1.2183928, -0.41396332, 0
1562, 2931470416, 0.41274786, -0.49502972, -0.28584892, -0.7091449, 0.41548935, 1.1884633, -0.022414207, 0
1563, 2931487083, 0.41455734, -0.49290347, -0.28065172, -0.7116419, 0.58490527, 0.6998219, -0.37978745, 0
1564, 2931503750, 0.41716427, -0.490789, -0.2747256, -0.71388876, 0.41859907, 0.61406183, -0.51022243, 0
1566, 2931537084, 0.4221325, -0.48281953, -0.26630864, -0.71956956, 0.15650775, -0.5618697, -1.0935411, 0
1567, 2931553751, 0.42512497, -0.4765159, -0.26200297, -0.72357917, -0.23829953, 0.05234919, -0.2931242, 0
1568, 2931570418, 0.42832762, -0.46973538, -0.25633547, -0.7281399, -0.55611813, 0.31777048, 0.9078493, 0
1570, 2931603752, 0.43611932, -0.45528197, -0.24056733, -0.7380086, 0.079632886, -0.21083955, -1.094224, 0
1571, 2931620419, 0.44003373, -0.44566518, -0.23274289, -0.74403954, -0.44724238, -0.71768457, -1.0455465, 0
1572, 2931637086, 0.44517738, -0.43297783, -0.2256935, -0.75061375, -1.6370128, -0.8928944, -0.83399296, 0
1574, 2931670420, 0.45884615, -0.40114912, -0.21103184, -0.76420957, -1.7590985, 0.24336694, -0.8734417, 0
1575, 2931687087, 0.46643442, -0.38556656, -0.20104948, -0.7703036, -1.8751156, -0.12675151, -1.0045757, 0
1576, 2931703754, 0.47413385, -0.37032554, -0.18905815, -0.7760956, -0.9513069, -1.2400553, -1.7658796, 0
1578, 2931737088, 0.48905686, -0.32774174, -0.170197, -0.7902236, -0.58545864, -2.354221, -0.08927345, 0
1579, 2931753755, 0.49601513, -0.30392623, -0.16294003, -0.79690623, -3.9345548, -0.9572274, 2.081812, 0
1580, 2931770422, 0.50170153, -0.28717643, -0.15606292, -0.800925, -5.365916, -0.7036006, 3.5409136, 0
1583, 2931820423, 0.5215819, -0.2594355, -0.14051276, -0.80057037, -3.9565423, -4.1250405, -0.27328014, 0
1585, 2931853757, 0.5313506, -0.25894976, -0.13692859, -0.7949046, -1.5122994, -2.4408488, -1.6703358, 0
1586, 2931870424, 0.5341693, -0.26165786, -0.1377418, -0.7919828, -0.31632817, -0.48049843, -0.6683731, 0
1587, 2931887091, 0.53758824, -0.26521474, -0.13880783, -0.7882916, 0.7379536, 2.0666509, 1.240715, 0
1589, 2931920425, 0.5476898, -0.27155924, -0.14379334, -0.7782198, 3.5528076, 2.9851701, 3.6568956, 0
1590, 2931937092, 0.5528257, -0.2715072, -0.14618525, -0.7741504, 3.2507923, 1.0839632, 4.443041, 0
1591, 2931953759, 0.557205, -0.27105862, -0.14694662, -0.77101743, 2.7606206, -0.21862239, 4.74364, 0
1593, 2931987093, 0.5559491, -0.27140838, -0.14417076, -0.7723238, 0.22594894, -0.15157206, 2.8815928, 0
1594, 2932003760, 0.5532403, -0.2717259, -0.14279416, -0.77441055, -0.31433338, 0.019965326, 2.0589418, 0
1595, 2932020427, 0.5499804, -0.2723359, -0.14256778, -0.77655673, 0.12852225, 0.85150415, 0.8578615, 0
1598, 2932070428, 0.54524463, -0.2733858, -0.14805861, -0.7784976, -0.9006262, 1.6977931, -0.37277794, 0
1599, 2932087095, 0.5456816, -0.27362725, -0.1514372, -0.7774559, -1.3434988, 1.265424, -0.41299057, 0
1601, 2932120429, 0.54488766, -0.2774586, -0.15918618, -0.77510345, 0.061212208, 0.28191656, -0.9814253, 0
1602, 2932137096, 0.54290974, -0.28063592, -0.16313225, -0.7745267, 0.97599214, -0.23236814, -1.1970148, 0
1603, 2932153763, 0.54068595, -0.28378436, -0.16653632, -0.77421063, 1.4434583, -0.04998722, -1.7906532, 0
1605, 2932187097, 0.5355882, -0.28625143, -0.17444925, -0.77510256, 0.98241454, 0.37783402, -1.5447121, 0
1606, 2932203764, 0.5330836, -0.28722522, -0.17880324, -0.77547675, 0.4911844, 0.3515319, -1.6593084, 0
1607, 2932220431, 0.5305177, -0.28888786, -0.18410833, -0.7753774, 0.33987823, -0.24949516, -1.1551018, 0
1609, 2932253765, 0.52578545, -0.29469523, -0.19627896, -0.7734276, 0.011304364, 0.43114474, -0.63604164, 0
1610, 2932270432, 0.52268094, -0.29930767, -0.20049529, -0.77267885, 0.48702607, 0.2103529, -0.5531473, 0
1613, 2932320433, 0.5146034, -0.31572914, -0.21386157, -0.76796687, 0.96210605, -0.011037852, -1.7790928, 0
1614, 2932337100, 0.51304364, -0.32044318, -0.21932314, -0.7655136, 0.3551161, 0.23029624, -1.1809092, 0
1616, 2932370434, 0.5088318, -0.33634815, -0.22649097, -0.7593901, 0.28732637, -0.08881377, -1.1248283, 0
1617, 2932387101, 0.5054698, -0.3448166, -0.23012063, -0.7567413, 0.18608023, 0.18506426, -1.4190636, 0
1618, 2932403768, 0.50212985, -0.35227177, -0.23428583, -0.75424904, 1.421897, -0.46606943, -0.21632195, 0
1620, 2932437102, 0.49517536, -0.3655428, -0.24230057, -0.74998754, 0.29394776, 0.5543162, -0.38127804, 0
1621, 2932453769, 0.4905135, -0.37390414, -0.24456441, -0.74819213, 0.6096915, 0.2887489, 0.24505615, 0
1622, 2932470436, 0.48541093, -0.3838457, -0.24714178, -0.74563444, 0.41469163, 0.26523566, 0.23294163, 0
1624, 2932503770, 0.47608435, -0.40106273, -0.25206673, -0.7409226, 0.7789601, -0.6379044, 0.42060184, 0
1625, 2932520437, 0.47280475, -0.40648305, -0.25338763, -0.7396168, 0.60694706, -1.0452862, 0.19915771, 0
1628, 2932570438, 0.46494883, -0.41834545, -0.2583419, -0.73626107, -0.123538345, 0.86408013, -0.057006836, 0
1629, 2932587105, 0.4613595, -0.4240672, -0.25859088, -0.7351576, 0.28754517, 0.44379258, 0.020397186, 0
1630, 2932603772, 0.45772576, -0.429937, -0.25871325, -0.7339754, 0.83519787, -0.20176515, -0.2847395, 0
1632, 2932637106, 0.4508747, -0.44020548, -0.25942132, -0.7318763, 0.79141665, -0.24900629, -0.5236559, 0
1633, 2932653773, 0.44741255, -0.44446087, -0.2604548, -0.73106164, -0.14540006, 0.24761882, -0.64538956, 0
1634, 2932670440, 0.4439761, -0.44824985, -0.26234102, -0.7301683, 0.6051513, 0.3094023, -0.23580074, 0
1636, 2932703774, 0.43756324, -0.4556879, -0.2676489, -0.72750413, -0.6185496, 0.5598705, -0.34489155, 0
1637, 2932720441, 0.43389678, -0.45983607, -0.26864064, -0.72672415, -0.12890601, 0.23198543, -0.104953766, 0
1639, 2932753775, 0.4286224, -0.4673835, -0.27136627, -0.7240213, -0.41776818, 0.15906154, -0.07598686, 0
1640, 2932770442, 0.42630652, -0.47114727, -0.27233106, -0.72258556, 0.3600011, -0.22068283, 0.26931858, 0
1641, 2932787109, 0.42509994, -0.47405213, -0.27403113, -0.72075146, 0.054189906, 0.14592111, 0.71584034, 0
1643, 2932820443, 0.42408532, -0.47860178, -0.2759083, -0.71761954, 0.31296182, 0.0072635007, 1.1677656, 0
1644, 2932837110, 0.42379987, -0.4798984, -0.27640572, -0.7167304, 0.16325592, 0.30595052, 0.8519869, 0
1645, 2932853777, 0.4230628, -0.48188305, -0.27748632, -0.7154155, 0.0955018, 0.6728501, 0.06246853, 0
1647, 2932887111, 0.42135423, -0.48539785, -0.27832642, -0.7137192, -0.438895, -0.1687164, 1.0656567, 0
1648, 2932903778, 0.4204562, -0.48660117, -0.27903992, -0.7131507, 0.48906887, -0.15908054, -0.010186195, 0
1649, 2932920445, 0.41913047, -0.48729596, -0.27970362, -0.7131966, 0.49161115, -0.1711661, 0.15116501, 0
1651, 2932953779, 0.4166373, -0.48841357, -0.28006956, -0.71374905, 0.18546669, -0.20169988, -0.30791473, 0
1652, 2932970446, 0.41497764, -0.4892055, -0.28072947, -0.71391433, 0.62338144, -0.09594618, -1.0828867, 0
1655, 2933020447, 0.41350067, -0.48983625, -0.28105602, -0.7142101, 0.5000185, -0.3419309, 0.044228554, 0
1656, 2933037114, 0.41347793, -0.49019825, -0.28004438, -0.71437246, 0.47459903, -0.3194226, -0.027041435, 0
1657, 2933053781, 0.41342455, -0.49076852, -0.27871662, -0.7145311, 0.94276154, -0.604219, -0.83080864, 0
1659, 2933087115, 0.41837227, -0.48811913, -0.2775613, -0.7139153, -0.91018903, -0.07168005, 0.31814003, 0
1660, 2933103782, 0.4231091, -0.4852329, -0.27559605, -0.7138527, -1.1210506, 0.20805383, -0.16870213, 0
1661, 2933120449, 0.4279551, -0.4812472, -0.27270365, -0.71477234, -0.80933684, 0.33168787, -0.1706829, 0
1663, 2933153783, 0.43616593, -0.47509673, -0.26241085, -0.7177703, 0.75123644, -0.83896077, 0.09136391, 0
1664, 2933170450, 0.43993434, -0.47105438, -0.25576916, -0.72052693, 0.5981148, -1.7307023, -0.8376303, 0
1666, 2933203784, 0.44857842, -0.45754975, -0.24575202, -0.72735333, 0.5337166, -0.41197538, -1.1163359, 0
1667, 2933220451, 0.45326436, -0.45000234, -0.24168247, -0.73051375, -0.43110058, 0.19412681, -0.68529797, 0
1670, 2933270452, 0.46518555, -0.42600712, -0.21610114, -0.74527305, 0.67136997, -0.9349942, -2.5238223, 0
1671, 2933287119, 0.4687137, -0.41429418, -0.2058921, -0.75252074, -0.21898608, -1.0820702, -2.8625402, 0
1672, 2933303786, 0.47345135, -0.40085554, -0.19482066, -0.7597466, -1.5252372, -1.1090174, -2.5186548, 0
1674, 2933337120, 0.4851392, -0.3743215, -0.16489649, -0.77288026, -0.08065286, -0.3986387, 0.3336134, 0
1675, 2933353787, 0.4903482, -0.35995793, -0.14802107, -0.7798013, 0.8906823, -0.5273976, 0.66067314, 0
1676, 2933370454, 0.4937631, -0.34158412, -0.13510099, -0.7882114, 0.60203964, -0.91708684, 0.0114851, 0
1678, 2933403788, 0.50181705, -0.31249127, -0.114721686, -0.7983602, -7.4291263, -3.2038581, 2.602604, 0
1679, 2933420455, 0.50773394, -0.30609003, -0.10173202, -0.79885983, -7.811634, -5.7474036, 2.71027, 0
1680, 2933437122, 0.51301134, -0.30102092, -0.08943835, -0.7988853, -4.501384, -6.690396, 0.6434374, 0
1682, 2933470456, 0.5127381, -0.2989262, -0.0753424, -0.8012972, -1.6360967, -0.3054077, -1.3169966, 0
1684, 2933503790, 0.51138836, -0.30873707, -0.07755479, -0.79822284, 0.74241394, 3.0834665, 0.67940426, 0
1686, 2933537124, 0.52394354, -0.31787574, -0.08630121, -0.78549445, 4.410157, 7.6132207, 2.4046402, 0
1687, 2933553791, 0.5358141, -0.31735703, -0.090484425, -0.77718186, 1.2084972, 3.450382, 5.2505875, 0
1688, 2933570458, 0.5483885, -0.3165012, -0.09565553, -0.7680876, -0.6143324, -1.8755361, 7.5259075, 0
1690, 2933603792, 0.56004804, -0.31680784, -0.10118735, -0.75878274, 2.6944282, -1.5709109, 2.5546389, 0
1691, 2933620459, 0.55972093, -0.3172714, -0.10126668, -0.7588198, 1.9968958, -1.70754, 1.5596933, 0
1693, 2933653793, 0.554455, -0.31467623, -0.1042189, -0.76335317, -0.48566186, 1.3305384, 0.97935486, 0
1694, 2933670460, 0.55280787, -0.31304747, -0.10687229, -0.7648492, -1.5618681, 2.3585343, 1.4493876, 0
1695, 2933687127, 0.552504, -0.31296387, -0.110567436, -0.7645777, -1.8238275, 2.613044, 1.5947714, 0
1697, 2933720461, 0.5529965, -0.31620485, -0.12028088, -0.761415, 0.4474411, -0.20768265, -0.86578274, 0
1699, 2933753795, 0.5504379, -0.31900418, -0.13167763, -0.76021487, 1.5433282, -0.2610126, -2.6301632, 0
1701, 2933787129, 0.54718864, -0.31947842, -0.14207691, -0.76048905, 0.5049242, -0.1952883, -1.2375288, 0
1702, 2933803796, 0.54520684, -0.32103956, -0.14736125, -0.76024926, 0.29722914, -0.44205442, -1.1110592, 0
1703, 2933820463, 0.5435804, -0.32309425, -0.15289165, -0.7594509, 0.19727266, -0.5197007, -1.7028275, 0
