sep=,
DeviceTag:,Xsens_DOT_4,,,,,,,,,,,,,,,,,
FirmwareVersion:,3.0.0,,,,,,,,,,,,,,,,,
AppVersion:,2023.6.1,,,,,,,,,,,,,,,,,
SyncStatus:,Synced,,,,,,,,,,,,,,,,,
OutputRate:,60Hz,,,,,,,,,,,,,,,,,
FilterProfile:,General,,,,,,,,,,,,,,,,,
Measurement Mode:,Sensor fusion Mode - Extended (Quaternion),,,,,,,,,,,,,,,,,
StartTime:,2025-05-05 11:55:12.448 +0200,,,,,,,,,,,,,,,,,
 2025,,,,,,,,,,,,,,,,,,,

PacketCounter,SampleTimeFine,Quat_W,Quat_X,Quat_Y,Quat_Z,FreeAcc_X,FreeAcc_Y,FreeAcc_Z,Status
1, 2905453229, -0.7323176, -0.06537158, 0.6759489, -0.050354674, -0.43934825, -0.50238794, 0.027741432, 0
2, 2905469896, -0.7323799, -0.06523835, 0.6758825, -0.05051425, -0.4429897, -0.5026889, 0.017597198, 0
3, 2905486563, -0.73244673, -0.0651017, 0.67581224, -0.050660893, -0.43434066, -0.52491647, 0.04598999, 0
4, 2905503230, -0.7325069, -0.06498572, 0.67574614, -0.050820038, -0.452236, -0.53380495, 0.06782818, 0
5, 2905519897, -0.73257875, -0.06488066, 0.6756671, -0.050969586, -0.5084267, -0.4984729, 0.08632851, 0
6, 2905536564, -0.73264825, -0.06478455, 0.67559165, -0.051093042, -0.46727797, -0.51440185, 0.09348488, 0
7, 2905553231, -0.73272085, -0.064689726, 0.6755137, -0.05120182, -0.44958827, -0.5604908, 0.04439354, 0
8, 2905569898, -0.7327934, -0.06460177, 0.67543566, -0.05130528, -0.41338497, -0.52472126, 0.00404644, 0
9, 2905586565, -0.7328465, -0.06453208, 0.675377, -0.051404804, -0.41319856, -0.4822179, -0.0050582886, 0
10, 2905603232, -0.7329137, -0.06447283, 0.67530483, -0.051470682, -0.46079654, -0.51667064, 0.057186127, 0
11, 2905619899, -0.7329828, -0.06443848, 0.67522985, -0.05151227, -0.43612787, -0.5401659, 0.12020302, 0
12, 2905636566, -0.73305184, -0.0643923, 0.6751569, -0.051544756, -0.43458235, -0.54190123, 0.11269665, 0
13, 2905653233, -0.73313874, -0.064364165, 0.67506367, -0.051564083, -0.42257494, -0.5098457, 0.0347414, 0
14, 2905669900, -0.73322046, -0.064366974, 0.6749736, -0.051579356, -0.41500455, -0.50344974, 0.0025911331, 0
15, 2905686567, -0.7332923, -0.06436471, 0.67489547, -0.051582336, -0.391626, -0.49717036, 0.035985947, 0
16, 2905703234, -0.73336643, -0.06436907, 0.67481613, -0.0515607, -0.41840196, -0.5168672, 0.060037613, 0
17, 2905719901, -0.73343825, -0.064386584, 0.674739, -0.051526904, -0.41955662, -0.5121027, 0.061979294, 0
18, 2905736568, -0.7335154, -0.06443396, 0.6746536, -0.05148834, -0.43937194, -0.502103, 0.066636086, 0
19, 2905753235, -0.73359483, -0.064495794, 0.6745647, -0.051443085, -0.44418728, -0.5133221, 0.11236858, 0
20, 2905769902, -0.7336703, -0.06454908, 0.67448264, -0.051375598, -0.45868257, -0.5158709, 0.081498146, 0
21, 2905786569, -0.73374456, -0.06461389, 0.6744024, -0.051287785, -0.4371739, -0.4911525, 0.030426979, 0
22, 2905803236, -0.73382586, -0.06467896, 0.67431515, -0.051189885, -0.40391695, -0.49558958, -0.010861397, 0
23, 2905819903, -0.73389375, -0.06473662, 0.67424214, -0.051105917, -0.3799671, -0.5152831, 0.011097908, 0
24, 2905836570, -0.73396534, -0.064804584, 0.6741642, -0.051020026, -0.44474038, -0.511745, 0.06236458, 0
25, 2905853237, -0.73403746, -0.06488122, 0.6740861, -0.050917834, -0.45613852, -0.4670615, 0.13006306, 0
26, 2905869904, -0.7341126, -0.06497294, 0.6740047, -0.050794393, -0.46427396, -0.4378326, 0.08698273, 0
27, 2905886571, -0.7341933, -0.06509431, 0.6739147, -0.050664544, -0.45269197, -0.46098116, 0.056731224, 0
28, 2905903238, -0.73427165, -0.06521532, 0.67382854, -0.05051981, -0.36706236, -0.48729947, 0.037062645, 0
29, 2905919905, -0.7343414, -0.065341584, 0.67375124, -0.050374255, -0.38671094, -0.4813839, 0.009400368, 0
30, 2905936572, -0.73441744, -0.0654557, 0.6736673, -0.050238803, -0.39787808, -0.44332108, 0.003162384, 0
31, 2905953239, -0.7344862, -0.06555725, 0.6735919, -0.0501111, -0.40754592, -0.45597035, 0.0149383545, 0
32, 2905969906, -0.7345443, -0.065658845, 0.673526, -0.05001454, -0.43617794, -0.46235174, 0.09027958, 0
33, 2905986573, -0.73460543, -0.06573457, 0.6734599, -0.04990703, -0.46856183, -0.44813377, 0.12507248, 0
34, 2906003240, -0.73467976, -0.065822355, 0.6733782, -0.04979959, -0.49966365, -0.43739384, 0.11407566, 0
35, 2906019907, -0.73474604, -0.06591757, 0.67330354, -0.04970655, -0.42817795, -0.45813608, 0.07216835, 0
36, 2906036574, -0.734814, -0.065985486, 0.6732291, -0.04961711, -0.3741361, -0.46528625, 0.020744324, 0
37, 2906053241, -0.734881, -0.06603256, 0.6731569, -0.04954347, -0.3975954, -0.42801145, 0.02000904, 0
38, 2906069908, -0.73494536, -0.06608456, 0.67308575, -0.049484864, -0.4232924, -0.41034174, 0.05705166, 0
39, 2906086575, -0.7350157, -0.06610424, 0.6730117, -0.04942009, -0.42499825, -0.42560667, 0.04253006, 0
40, 2906103242, -0.7350821, -0.066119865, 0.672941, -0.049374416, -0.39831036, -0.4311062, 0.055254936, 0
41, 2906119909, -0.73514086, -0.06614934, 0.6728752, -0.049356654, -0.38329163, -0.410021, 0.09414005, 0
42, 2906136576, -0.7352106, -0.06617267, 0.6727978, -0.049341723, -0.4107435, -0.43344995, 0.11814022, 0
43, 2906153243, -0.7352812, -0.06617275, 0.6727212, -0.049334586, -0.42315742, -0.44156024, 0.052339554, 0
44, 2906169910, -0.7353445, -0.06617898, 0.67265105, -0.049338177, -0.3924056, -0.4141733, 0.009832382, 0
45, 2906186577, -0.73540735, -0.06614771, 0.672587, -0.04931748, -0.38206902, -0.4310043, 0.033744812, 0
46, 2906203244, -0.7354684, -0.06613127, 0.67252105, -0.049329847, -0.4110855, -0.45234886, 0.09065533, 0
47, 2906219911, -0.7355264, -0.066122934, 0.67245764, -0.04934074, -0.42513102, -0.44481045, 0.11299133, 0
48, 2906236578, -0.7355881, -0.06611044, 0.6723893, -0.049368724, -0.4045562, -0.44465488, 0.08452034, 0
49, 2906253245, -0.7356522, -0.06609441, 0.672318, -0.049406126, -0.38467088, -0.42519146, 0.05745125, 0
50, 2906269912, -0.7357143, -0.066069685, 0.6722492, -0.049448937, -0.3921101, -0.4488709, 0.061282158, 0
51, 2906286579, -0.73577553, -0.06603811, 0.67218196, -0.049495175, -0.39174312, -0.442462, 0.030611038, 0
52, 2906303246, -0.73582625, -0.06601469, 0.6721257, -0.049535632, -0.37305743, -0.43573537, -0.0057878494, 0
53, 2906319913, -0.7358777, -0.06596924, 0.6720707, -0.04958017, -0.38932246, -0.42395344, 0.0501585, 0
54, 2906336580, -0.73592484, -0.0659247, 0.67201996, -0.04962641, -0.42347434, -0.4247059, 0.116420746, 0
55, 2906353247, -0.735979, -0.065879434, 0.67195976, -0.04969725, -0.43912786, -0.4095268, 0.13099766, 0
56, 2906369914, -0.73603535, -0.065847956, 0.6718973, -0.049752295, -0.3992992, -0.43261716, 0.08739281, 0
57, 2906386581, -0.73608786, -0.06589202, 0.6718273, -0.049858645, -0.32261413, -0.45445493, 0.02700138, 0
58, 2906403248, -0.73614824, -0.06587267, 0.67175996, -0.049900353, -0.32384568, -0.47510272, 0.0058660507, 0
59, 2906419915, -0.7362058, -0.06585471, 0.6716963, -0.04993044, -0.35218266, -0.462684, 0.047117233, 0
60, 2906436582, -0.7362613, -0.06586965, 0.67163086, -0.049974933, -0.3776551, -0.43704125, 0.097644806, 0
61, 2906453249, -0.7363164, -0.065860786, 0.6715697, -0.04999675, -0.3844673, -0.435074, 0.06622791, 0
62, 2906469916, -0.73638004, -0.06584548, 0.6715002, -0.0500101, -0.37630752, -0.4199018, 0.054457664, 0
63, 2906486583, -0.7364414, -0.06579971, 0.67144054, -0.049971372, -0.39498672, -0.40137854, 0.07267189, 0
64, 2906503250, -0.7364988, -0.065799214, 0.6713779, -0.04996866, -0.32890782, -0.4205195, 0.10270405, 0
65, 2906519917, -0.7365552, -0.06579785, 0.6713167, -0.049961105, -0.33189753, -0.45452768, 0.061146736, 0
66, 2906536584, -0.73660564, -0.065839395, 0.6712545, -0.049997658, -0.3406132, -0.43176913, 0.0138578415, 0
67, 2906553251, -0.73665684, -0.06585338, 0.6711957, -0.05001223, -0.3606207, -0.41445372, 0.0056934357, 0
68, 2906569918, -0.73670393, -0.06586846, 0.6711427, -0.05001077, -0.37210393, -0.41287783, 0.10223484, 0
69, 2906586585, -0.7367597, -0.06590588, 0.67107683, -0.050023004, -0.37870738, -0.41903606, 0.12445736, 0
70, 2906603252, -0.7368248, -0.06593369, 0.6710042, -0.050003484, -0.36666495, -0.42626703, 0.06431484, 0
71, 2906619919, -0.7368806, -0.06596578, 0.67094237, -0.04996799, -0.32602674, -0.47007927, 0.010784149, 0
72, 2906636586, -0.736944, -0.06599275, 0.670872, -0.049942702, -0.28226334, -0.43894157, 0.03862667, 0
73, 2906653253, -0.7370001, -0.06603116, 0.6708074, -0.049931213, -0.33368024, -0.40015984, 0.060489655, 0
74, 2906669920, -0.7370573, -0.066067524, 0.67074347, -0.04989861, -0.39942452, -0.40228587, 0.08006954, 0
75, 2906686587, -0.7371162, -0.06611563, 0.6706774, -0.049852476, -0.37495327, -0.44213232, 0.10321331, 0
76, 2906703254, -0.73717606, -0.06620475, 0.6706033, -0.04984723, -0.32110944, -0.4795571, 0.06812191, 0
77, 2906719921, -0.7372313, -0.06625175, 0.6705422, -0.049786866, -0.29988465, -0.42632258, 0.033605576, 0
78, 2906736588, -0.7372878, -0.066291794, 0.6704821, -0.04970707, -0.30647382, -0.36332902, 0.02853489, 0
79, 2906753255, -0.73733824, -0.06636884, 0.6704233, -0.0496507, -0.35825148, -0.34832728, 0.032277107, 0
80, 2906769922, -0.7373904, -0.06644515, 0.6703634, -0.04958065, -0.38397247, -0.38229063, 0.08368492, 0
81, 2906786589, -0.73744196, -0.06651676, 0.67030597, -0.04949428, -0.35619292, -0.44547206, 0.08734894, 0
82, 2906803256, -0.7375055, -0.06658429, 0.67023414, -0.049431175, -0.35122603, -0.4676985, 0.1019001, 0
83, 2906819923, -0.7375706, -0.06663672, 0.6701612, -0.049377784, -0.37033683, -0.40960246, 0.08852863, 0
84, 2906836590, -0.737617, -0.066702776, 0.67010266, -0.049388006, -0.3867762, -0.3799708, 0.049164772, 0
85, 2906853257, -0.73766243, -0.06674006, 0.6700486, -0.04939249, -0.37256926, -0.37430775, 0.05283737, 0
86, 2906869924, -0.73771346, -0.06673264, 0.6699948, -0.04937181, -0.37000707, -0.38655755, 0.08680153, 0
87, 2906886591, -0.73776555, -0.066737525, 0.66993654, -0.04937841, -0.36965063, -0.38872814, 0.05568409, 0
88, 2906903258, -0.7378269, -0.06670887, 0.669872, -0.04937613, -0.31355605, -0.38637367, 0.040481567, 0
89, 2906919925, -0.7378789, -0.06662309, 0.66982305, -0.04937744, -0.29599375, -0.36570194, 0.041090965, 0
90, 2906936592, -0.7379186, -0.066542625, 0.6697821, -0.049445644, -0.31912687, -0.34468806, 0.024168015, 0
91, 2906953259, -0.73795277, -0.066455476, 0.66974586, -0.0495463, -0.3590445, -0.31410822, 0.11764622, 0
92, 2906969926, -0.7380028, -0.066366084, 0.66969204, -0.049647167, -0.37090367, -0.36119136, 0.10080433, 0
93, 2906986593, -0.73806465, -0.06628329, 0.66962403, -0.049758583, -0.33840755, -0.39823046, 0.09238243, 0
94, 2907003260, -0.73812157, -0.06618916, 0.66956025, -0.04989645, -0.3618751, -0.39609724, 0.08781624, 0
95, 2907019927, -0.738164, -0.06605762, 0.66951686, -0.05002567, -0.3457732, -0.3650227, 0.009756088, 0
96, 2907036594, -0.7381944, -0.06589377, 0.66948783, -0.050182045, -0.3708223, -0.37769455, -0.02550888, 0
97, 2907053261, -0.7382253, -0.065653086, 0.66946447, -0.050354764, -0.35196942, -0.3612193, 0.04761219, 0
98, 2907069928, -0.73824155, -0.065460145, 0.66944677, -0.050602138, -0.42916366, -0.32136694, 0.16922092, 0
99, 2907086595, -0.73828894, -0.06526258, 0.6693962, -0.05083449, -0.42666778, -0.31481463, 0.16263294, 0
100, 2907103262, -0.73832923, -0.06507498, 0.6693534, -0.051052853, -0.35197255, -0.40092692, 0.0942688, 0
101, 2907119929, -0.73837394, -0.064877056, 0.6693057, -0.051283196, -0.2636447, -0.43245456, 0.005282402, 0
102, 2907136596, -0.7384019, -0.06466625, 0.66927505, -0.051546797, -0.25603676, -0.39865044, 0.002002716, 0
103, 2907153263, -0.73843044, -0.06442749, 0.6692456, -0.05181779, -0.2501405, -0.3138771, 0.020951271, 0
104, 2907169930, -0.7384554, -0.064171426, 0.66922027, -0.052105263, -0.2821328, -0.28918946, 0.09153557, 0
105, 2907186597, -0.7384907, -0.0639186, 0.6691833, -0.052389205, -0.29637504, -0.31417495, 0.10850716, 0
106, 2907203264, -0.7385309, -0.0636573, 0.6691446, -0.052636042, -0.22789158, -0.37178442, 0.12644386, 0
107, 2907219931, -0.7385804, -0.063456014, 0.6690871, -0.052912638, -0.17788234, -0.39649668, 0.057329178, 0
108, 2907236598, -0.7386235, -0.0632807, 0.66903454, -0.053185, -0.1884192, -0.37708536, 0.0102443695, 0
109, 2907253265, -0.73866713, -0.06309569, 0.66898626, -0.053405374, -0.17198518, -0.35601836, 0.018886566, 0
110, 2907269932, -0.7387014, -0.0629353, 0.6689483, -0.053595573, -0.15870179, -0.35813928, 0.0048208237, 0
111, 2907286599, -0.73875266, -0.06279412, 0.66889364, -0.053738594, -0.20238242, -0.3305497, 0.031212807, 0
112, 2907303266, -0.7387989, -0.062694944, 0.6688426, -0.05385074, -0.2299631, -0.33497763, 0.051615715, 0
113, 2907319933, -0.7388416, -0.06262834, 0.6687915, -0.05397682, -0.2502375, -0.35191032, 0.10038662, 0
114, 2907336600, -0.7388921, -0.06256334, 0.6687322, -0.05409822, -0.23029344, -0.38509986, 0.10359001, 0
115, 2907353267, -0.73893714, -0.06249179, 0.6686802, -0.054207772, -0.27948642, -0.40167436, 0.010403633, 0
116, 2907369934, -0.73897153, -0.062419638, 0.6686387, -0.05433303, -0.3157219, -0.35697857, 0.039639473, 0
117, 2907386601, -0.739004, -0.06233895, 0.66860163, -0.054442093, -0.36982453, -0.3495518, 0.017201424, 0
118, 2907403268, -0.73901993, -0.06226606, 0.6685789, -0.05458629, -0.40047175, -0.3672252, 0.081380844, 0
119, 2907419935, -0.73905545, -0.06215723, 0.66853744, -0.05473703, -0.4344381, -0.39871863, 0.18676281, 0
120, 2907436602, -0.73909676, -0.06204649, 0.66848534, -0.054941237, -0.47765702, -0.4012566, 0.14410496, 0
121, 2907453269, -0.7391455, -0.061875805, 0.6684326, -0.055117995, -0.4139764, -0.400345, 0.09518242, 0
122, 2907469936, -0.7391941, -0.06171286, 0.6683751, -0.055349335, -0.35599133, -0.4032281, 0.0532732, 0
123, 2907486603, -0.739237, -0.061511762, 0.668326, -0.055591673, -0.26920393, -0.41092554, 0.03277588, 0
124, 2907503270, -0.7392707, -0.061286055, 0.66829133, -0.05580929, -0.25317535, -0.37923414, 0.018766403, 0
125, 2907519937, -0.73930746, -0.061092272, 0.66825014, -0.056028336, -0.31188595, -0.4384868, 0.07916641, 0
126, 2907536604, -0.7393428, -0.060912788, 0.6682137, -0.05618936, -0.3114121, -0.48666605, 0.07494354, 0
127, 2907553271, -0.7393878, -0.060761742, 0.66816795, -0.056304842, -0.33557877, -0.48259354, 0.17975616, 0
128, 2907569938, -0.7394451, -0.060684636, 0.6681018, -0.05641991, -0.36408383, -0.43130657, 0.17046547, 0
129, 2907586605, -0.7395073, -0.06070584, 0.6680195, -0.05655828, -0.34818, -0.4684664, 0.09215164, 0
130, 2907603272, -0.7395679, -0.06067638, 0.6679542, -0.056567952, -0.32112285, -0.48370484, 0.049046516, 0
131, 2907619939, -0.73963463, -0.060687646, 0.66788256, -0.056529805, -0.30318862, -0.5306518, 0.06480503, 0
132, 2907636606, -0.7396922, -0.06074506, 0.6678199, -0.056453332, -0.40692633, -0.570916, 0.003865242, 0
133, 2907653273, -0.73976773, -0.060860492, 0.6677433, -0.05624573, -0.52219826, -0.59554434, 0.01525116, 0
134, 2907669940, -0.7398432, -0.061142154, 0.6676566, -0.055976078, -0.5919678, -0.67330706, 0.1222229, 0
135, 2907686607, -0.7399224, -0.06149993, 0.6675701, -0.05557002, -0.6360271, -0.8318565, 0.07606506, 0
136, 2907703274, -0.7400011, -0.061936066, 0.66747963, -0.055121705, -0.6894572, -0.87524253, 0.12499142, 0
137, 2907719941, -0.74008, -0.062431708, 0.66738886, -0.05459991, -0.7844782, -0.7556977, 0.16879368, 0
138, 2907736608, -0.740176, -0.063013315, 0.6672772, -0.053990215, -0.81815886, -0.6414257, 0.14370918, 0
139, 2907753275, -0.74026334, -0.063670166, 0.6671721, -0.05331926, -0.736384, -0.6410107, 0.025816917, 0
140, 2907769942, -0.7403524, -0.06435835, 0.6670671, -0.05256185, -0.676301, -0.59455216, 0.054484367, 0
141, 2907786609, -0.74043936, -0.06512779, 0.66695637, -0.051790416, -0.5866366, -0.5777507, 0.08878136, 0
142, 2907803276, -0.74050874, -0.065894306, 0.66686285, -0.051029786, -0.49956396, -0.68510854, 0.08886242, 0
143, 2907819943, -0.7405662, -0.06665433, 0.6667787, -0.05030155, -0.52945614, -0.6912048, 0.08004475, 0
144, 2907836610, -0.7406307, -0.067320056, 0.666701, -0.049487934, -0.56243145, -0.49238127, 0.0822258, 0
145, 2907853277, -0.7406968, -0.06811837, 0.6666017, -0.048739865, -0.558448, -0.37180576, 0.05853176, 0
146, 2907869944, -0.740745, -0.06892431, 0.6665223, -0.047953695, -0.3976993, -0.39879417, 0.057673454, 0
147, 2907886611, -0.74080354, -0.06967832, 0.66643417, -0.04717633, -0.2379349, -0.41656289, 0.10397625, 0
148, 2907903278, -0.7408636, -0.070371464, 0.6663466, -0.046435088, -0.24917269, -0.249862, 0.122909546, 0
149, 2907919945, -0.74092644, -0.07103516, 0.66625315, -0.045757547, -0.24516022, -0.11621205, 0.06291103, 0
150, 2907936612, -0.7409968, -0.0716736, 0.66614836, -0.04514438, -0.123894125, -0.024837207, 0.056497574, 0
151, 2907953279, -0.7410559, -0.072246455, 0.6660593, -0.044572473, 0.07761219, -0.08306881, -0.021834373, 0
152, 2907969946, -0.7411094, -0.07278019, 0.66597474, -0.044075787, 0.18035796, -0.0030154132, -0.034449577, 0
153, 2907986613, -0.74114907, -0.07331566, 0.6659027, -0.043607116, 0.2094142, -0.009791767, -0.05439186, 0
154, 2908003280, -0.74117637, -0.07385191, 0.66584224, -0.043156028, 0.2190655, -0.086877584, 0.0058469772, 0
155, 2908019947, -0.74121416, -0.07436647, 0.66577053, -0.042729035, 0.21130379, -0.11762526, 0.14376163, 0
156, 2908036614, -0.7412585, -0.07480076, 0.6656988, -0.042316288, 0.05305527, -4.715006E-4, 0.100979805, 0
157, 2908053281, -0.7413102, -0.07522167, 0.6656174, -0.041947454, -0.085226834, 0.075880304, 0.099702835, 0
158, 2908069948, -0.74136597, -0.075658016, 0.6655245, -0.041649327, -0.086142786, -0.029722417, -0.01399231, 0
159, 2908086615, -0.7414123, -0.07602481, 0.6654442, -0.04143952, 0.019865831, -0.15003262, 0.012688637, 0
160, 2908103282, -0.7414515, -0.07629396, 0.6653785, -0.0412959, 0.008981644, -0.14742076, -0.06952953, 0
161, 2908119949, -0.74146897, -0.07647057, 0.6653454, -0.04119043, -0.08832881, -0.14298472, -0.08289337, 0
162, 2908136616, -0.741489, -0.07657851, 0.665313, -0.041152343, -0.051495597, -0.19414636, 0.10078621, 0
163, 2908153283, -0.74151033, -0.076607205, 0.6652827, -0.041205317, -0.09327419, -0.25733182, 0.011174202, 0
164, 2908169950, -0.7415359, -0.07647376, 0.66526145, -0.04133521, -0.11368539, -0.25797865, 0.085920334, 0
165, 2908186617, -0.7415576, -0.076199375, 0.6652523, -0.041596264, -0.189868, -0.22804356, 0.008986473, 0
166, 2908203284, -0.74156094, -0.075770594, 0.6652772, -0.041920915, -0.25251958, -0.12801246, 0.1257, 0
167, 2908219951, -0.74157655, -0.07530081, 0.66528666, -0.042342603, -0.25617042, -0.11280487, 0.20596886, 0
168, 2908236618, -0.74159205, -0.07479683, 0.6652985, -0.042776942, -0.2831413, -0.1948083, 0.05387783, 0
169, 2908253285, -0.7416116, -0.07432973, 0.66530144, -0.043204024, -0.21708159, -0.32391497, -0.0022420883, 0
170, 2908269952, -0.74162537, -0.07391445, 0.66530436, -0.04363005, -0.19414693, -0.42444092, -0.10333252, 0
171, 2908286619, -0.7416203, -0.073559895, 0.66532266, -0.04403539, -0.23579723, -0.46865827, 0.02508831, 0
172, 2908303286, -0.7416074, -0.07322043, 0.66535, -0.04440528, -0.34233156, -0.43504652, 0.15756512, 0
173, 2908319953, -0.74161404, -0.07293519, 0.6653524, -0.04472561, -0.4676947, -0.3756995, 0.26173496, 0
174, 2908336620, -0.74164253, -0.07269286, 0.6653277, -0.045013294, -0.42184627, -0.27588964, 0.32866955, 0
175, 2908353287, -0.7416835, -0.0725106, 0.665286, -0.045249715, -0.34606332, -0.31072044, 0.105324745, 0
176, 2908369954, -0.74172527, -0.072381034, 0.6652415, -0.045424044, -0.16447291, -0.39888, 0.013724327, 0
177, 2908386621, -0.741754, -0.07226841, 0.6652112, -0.04557821, -0.094414555, -0.47128645, -0.08909035, 0
178, 2908403288, -0.74177855, -0.07217266, 0.66518265, -0.045745566, -0.15164013, -0.37504256, 0.09701347, 0
179, 2908419955, -0.74180305, -0.07208666, 0.6651534, -0.04590921, -0.23848787, -0.24378525, 0.05805111, 0
180, 2908436622, -0.74182874, -0.071988225, 0.6651228, -0.046092078, -0.2794292, -0.17494124, 0.090364456, 0
181, 2908453289, -0.741869, -0.0718506, 0.6650801, -0.04627645, -0.20605212, -0.19707707, 0.10356808, 0
182, 2908469956, -0.74189967, -0.07167531, 0.66505027, -0.046484813, -0.120039865, -0.26690128, -0.0010280609, 0
183, 2908486623, -0.7419288, -0.07150636, 0.66501904, -0.046725035, 0.020709816, -0.36175537, 0.02654457, 0
184, 2908503290, -0.74195474, -0.07126486, 0.6649995, -0.0469608, 0.027317753, -0.35445523, 0.078528404, 0
185, 2908519957, -0.7419888, -0.07101346, 0.6649712, -0.047204927, -0.030918548, -0.19852577, 0.19900322, 0
186, 2908536624, -0.7420295, -0.07077454, 0.66493154, -0.047479838, -0.0789387, -0.047977082, 0.06402302, 0
187, 2908553291, -0.74206835, -0.07055744, 0.6648924, -0.047746718, -0.08911327, -0.060851514, -0.04238224, 0
188, 2908569958, -0.7421031, -0.070382036, 0.66485214, -0.04802212, 0.021604761, -0.22284397, -0.04864502, 0
189, 2908586625, -0.7421219, -0.07024521, 0.66482526, -0.048304588, 0.09723573, -0.35101682, -0.01734829, 0
190, 2908603292, -0.74214685, -0.070088916, 0.6647985, -0.048514977, 0.034425914, -0.36592624, 0.07459068, 0
191, 2908619959, -0.74217945, -0.069981165, 0.66476065, -0.04868786, -0.072498664, -0.28342214, 0.030820847, 0
192, 2908636626, -0.7422071, -0.069879666, 0.6647303, -0.04882659, -0.15516225, -0.26214415, 0.10234642, 0
193, 2908653293, -0.7422331, -0.069806084, 0.66470176, -0.048925832, -0.17314968, -0.36327428, -0.027720451, 0
194, 2908669960, -0.74226403, -0.06975684, 0.6646692, -0.04897061, -0.17812864, -0.4370873, 0.07220554, 0
195, 2908686627, -0.7422902, -0.069739595, 0.6646433, -0.048949122, -0.23188843, -0.46822244, 0.113521576, 0
196, 2908703294, -0.7423317, -0.0697969, 0.6645931, -0.048919946, -0.25893798, -0.3754079, 0.16402245, 0
197, 2908719961, -0.7423806, -0.069891125, 0.66453403, -0.048843116, -0.26414984, -0.29057577, 0.11838436, 0
198, 2908736628, -0.7424315, -0.06998036, 0.66448116, -0.04866256, -0.29609576, -0.30863723, 0.07458782, 0
199, 2908753295, -0.742471, -0.07013117, 0.66443366, -0.048491642, -0.26295048, -0.44480228, -0.066446304, 0
200, 2908769962, -0.7425092, -0.070275724, 0.66439, -0.048292965, -0.29083773, -0.53799903, 0.0848608, 0
201, 2908786629, -0.7425659, -0.07044197, 0.6643225, -0.048110172, -0.29914573, -0.45023242, 0.15769482, 0
202, 2908803296, -0.74260485, -0.07061307, 0.6642758, -0.047901437, -0.40986374, -0.33888608, 0.19417953, 0
203, 2908819963, -0.74266016, -0.07082967, 0.6642041, -0.04771711, -0.44813097, -0.31588584, 0.23195267, 0
204, 2908836630, -0.74272037, -0.07101867, 0.66413367, -0.0474827, -0.43085206, -0.3153466, 0.013301849, 0
205, 2908853297, -0.74278116, -0.07121413, 0.6640602, -0.04726401, -0.31937408, -0.39092886, -0.056676865, 0
206, 2908869964, -0.7428283, -0.07136437, 0.66400486, -0.0470725, -0.26821598, -0.42097592, -0.049635887, 0
207, 2908886631, -0.74287516, -0.07146444, 0.663953, -0.04691291, -0.30123377, -0.3528296, 0.037745476, 0
208, 2908903298, -0.74290127, -0.07156624, 0.6639217, -0.046786666, -0.3245131, -0.37363935, 0.040265083, 0
209, 2908919965, -0.742936, -0.07162119, 0.66388667, -0.046647787, -0.305295, -0.4413431, 0.061585426, 0
210, 2908936632, -0.74295825, -0.071649276, 0.6638667, -0.046535224, -0.29422888, -0.4222601, 0.10946655, 0
211, 2908953299, -0.7429852, -0.071677394, 0.6638376, -0.04647629, -0.34295827, -0.30694455, 0.10801697, 0
212, 2908969966, -0.7430069, -0.07165191, 0.6638212, -0.04640247, -0.36864886, -0.20303905, 0.104457855, 0
213, 2908986633, -0.74302346, -0.07165355, 0.6638033, -0.046392456, -0.36002484, -0.121751085, 0.12573242, 0
214, 2909003300, -0.74305815, -0.07163803, 0.6637639, -0.04642363, -0.25458348, -0.14236322, 0.12516594, 0
215, 2909019967, -0.7430887, -0.07158179, 0.66373265, -0.046466872, -0.1887938, -0.2249716, 0.0012388229, 0
216, 2909036634, -0.7431046, -0.07150023, 0.6637161, -0.046575606, -0.10333853, -0.3076193, -0.063996315, 0
217, 2909053301, -0.743117, -0.07132992, 0.66371804, -0.04661174, -0.10771715, -0.3402569, 0.03848934, 0
218, 2909069968, -0.74313146, -0.07120243, 0.66371465, -0.04662493, -0.1338418, -0.35341266, 0.15676117, 0
219, 2909086635, -0.7431466, -0.071151845, 0.66370046, -0.04666111, -0.2746183, -0.29063156, 0.1665945, 0
220, 2909103302, -0.7431828, -0.07116455, 0.66365606, -0.046698317, -0.36244413, -0.19267923, 0.1800642, 0
221, 2909119969, -0.7432266, -0.071204945, 0.66360146, -0.046714157, -0.3086678, -0.20991063, 0.100922585, 0
222, 2909136636, -0.7432608, -0.071232945, 0.66355926, -0.046726122, -0.1969623, -0.29622295, 0.069327354, 0
223, 2909153303, -0.74329716, -0.07123728, 0.6635159, -0.046757266, -0.119265616, -0.3882823, 0.005232811, 0
224, 2909169970, -0.74331915, -0.071207166, 0.66349, -0.04682076, -0.15589716, -0.36494893, -0.034495354, 0
225, 2909186637, -0.74334174, -0.07113599, 0.6634688, -0.046871766, -0.2762665, -0.33959755, 0.09474087, 0
226, 2909203304, -0.74337494, -0.0710723, 0.66343325, -0.046944395, -0.33629, -0.3015688, 0.12430096, 0
227, 2909219971, -0.7434139, -0.07099658, 0.6633938, -0.047000155, -0.34040442, -0.3040898, 0.2013855, 0
228, 2909236638, -0.7434499, -0.07092286, 0.66335577, -0.047077775, -0.3123607, -0.3221397, 0.055503845, 0
229, 2909253305, -0.74349326, -0.070809305, 0.66331667, -0.047115505, -0.22658357, -0.30127656, 0.029304504, 0
230, 2909269972, -0.7435228, -0.07073985, 0.6632822, -0.04723783, -0.17981751, -0.34053963, -0.079969406, 0
231, 2909286639, -0.74353105, -0.07060841, 0.6632819, -0.04730788, -0.16133031, -0.3133294, -0.01343441, 0
232, 2909303306, -0.74353355, -0.07047317, 0.6632877, -0.047390193, -0.25272968, -0.33401507, 0.105101585, 0
233, 2909319973, -0.7435457, -0.07036901, 0.6632799, -0.047462374, -0.3374326, -0.30915853, 0.17467976, 0
234, 2909336640, -0.7435807, -0.0703142, 0.6632427, -0.04751548, -0.3636274, -0.3326674, 0.25520515, 0
235, 2909353307, -0.74362206, -0.0703182, 0.66319406, -0.04754269, -0.29730982, -0.37515393, 0.0875082, 0
236, 2909369974, -0.74366987, -0.070323326, 0.66313887, -0.047556758, -0.22359028, -0.42226413, 0.044377327, 0
237, 2909386641, -0.74369735, -0.07032049, 0.66310745, -0.047568873, -0.19848979, -0.3932155, 0.06519127, 0
238, 2909403308, -0.7437296, -0.07032384, 0.6630705, -0.047573715, -0.21641418, -0.29512617, 0.09233761, 0
239, 2909419975, -0.7437612, -0.070299946, 0.66304123, -0.047523916, -0.18640041, -0.23539603, 0.03764248, 0
240, 2909436642, -0.7437813, -0.07037476, 0.66300964, -0.047540188, -0.20912856, -0.21906103, 0.020290375, 0
241, 2909453309, -0.74381673, -0.07038464, 0.66297823, -0.047407836, -0.20023945, -0.2549268, 0.05245781, 0
242, 2909469976, -0.74384403, -0.07046222, 0.6629453, -0.04732713, -0.17294404, -0.30768, 0.12246418, 0
243, 2909486643, -0.7438863, -0.070529744, 0.6628948, -0.047269642, -0.10876677, -0.2963717, 0.040582657, 0
244, 2909503310, -0.7439161, -0.07055335, 0.6628629, -0.047211155, -0.10510205, -0.2603301, 0.03067875, 0
245, 2909519977, -0.7439468, -0.07056545, 0.6628314, -0.047151282, -0.15842554, -0.22455598, 7.724762E-4, 0
246, 2909536644, -0.7439754, -0.07058441, 0.66279894, -0.047126442, -0.18657386, -0.2460843, 0.11745167, 0
247, 2909553311, -0.74399054, -0.0706222, 0.6627784, -0.047121137, -0.24107705, -0.30227557, 0.13776493, 0
248, 2909569978, -0.7440219, -0.070615776, 0.6627474, -0.047070727, -0.30829036, -0.2888328, 0.04686165, 0
249, 2909586645, -0.7440455, -0.07063295, 0.66271865, -0.047077343, -0.31901065, -0.28145725, 0.054278374, 0
250, 2909603312, -0.744076, -0.070627175, 0.6626823, -0.0471161, -0.29647696, -0.31346574, 0.13583374, 0
251, 2909619979, -0.74410826, -0.07053999, 0.6626522, -0.04716015, -0.29482344, -0.3427919, 0.14845467, 0
252, 2909636646, -0.74413395, -0.070404746, 0.6626295, -0.047278136, -0.3387254, -0.31010288, -0.20017624, 0
253, 2909653313, -0.74411905, -0.07016279, 0.6626637, -0.047393367, -0.3370325, -0.36392558, 0.0076475143, 0
254, 2909669980, -0.7441279, -0.06988521, 0.66266805, -0.047601655, -0.12997949, -0.08720101, 0.7205658, 0
255, 2909686647, -0.7441885, -0.069566965, 0.6626155, -0.04785067, -0.38381287, -0.2831327, -0.11829853, 0
256, 2909703314, -0.7442384, -0.069176875, 0.6625808, -0.04812017, -0.0222981, -0.15475032, 0.03785515, 0
257, 2909719981, -0.7442506, -0.068802506, 0.6625763, -0.048530325, -0.18083137, -0.1379551, -0.055336952, 0
258, 2909736648, -0.7442723, -0.06844778, 0.6625558, -0.04897578, 0.006228859, -0.043303624, 0.13385963, 0
259, 2909753315, -0.7442758, -0.068005525, 0.66256684, -0.049387574, 0.124924965, -0.0544824, -0.11063385, 0
260, 2909769982, -0.7442848, -0.06754353, 0.6625736, -0.04979515, 0.25518462, 0.030990781, 0.050644875, 0
261, 2909786649, -0.74429816, -0.06709536, 0.66257316, -0.05020483, 0.3275949, 0.10546481, -0.07094383, 0
262, 2909803316, -0.74429464, -0.0666942, 0.6625859, -0.050621092, 0.2990447, 0.12096164, -0.100847244, 0
263, 2909819983, -0.744284, -0.06634389, 0.6626013, -0.05103576, 0.2734556, 0.017185688, -0.043296814, 0
264, 2909836650, -0.7442734, -0.065989114, 0.6626178, -0.05143322, 0.15740274, 0.013365627, 0.112303734, 0
265, 2909853317, -0.7442709, -0.065638505, 0.6626262, -0.05180773, 0.081061, -0.053800352, 0.22394943, 0
266, 2909869984, -0.7442807, -0.06535881, 0.6626069, -0.052266985, 0.020603424, -0.2091223, 0.04292965, 0
267, 2909886651, -0.7442836, -0.06501805, 0.6625999, -0.0527357, -0.06619739, -0.22611956, 0.008068085, 0
268, 2909903318, -0.74425983, -0.064626135, 0.66262454, -0.053241253, -0.29026422, -0.13730915, -0.060941696, 0
269, 2909919985, -0.7442327, -0.0642279, 0.66265166, -0.05376266, -0.41686463, -0.1513348, 0.012954712, 0
270, 2909936652, -0.7442004, -0.06378419, 0.6626873, -0.054293588, -0.4563531, -0.34689903, 0.13788986, 0
271, 2909953319, -0.7441814, -0.063282475, 0.66270757, -0.054892525, -0.44396245, -0.45832595, 0.23322201, 0
272, 2909969986, -0.74416023, -0.0626687, 0.66273963, -0.05549112, -0.51203823, -0.47133988, 0.30505085, 0
273, 2909986653, -0.7441545, -0.062033772, 0.6627487, -0.056170672, -0.6034939, -0.40064126, 0.25857258, 0
274, 2910003320, -0.74415326, -0.061383843, 0.66275114, -0.05686964, -0.57350117, -0.35452932, 0.15264988, 0
275, 2910019987, -0.74415445, -0.060754202, 0.6627462, -0.057582587, -0.50833774, -0.342408, 0.084114075, 0
276, 2910036654, -0.7441606, -0.060218908, 0.662725, -0.058302864, -0.32888144, -0.3662366, 0.014069557, 0
277, 2910053321, -0.744161, -0.05967229, 0.6627169, -0.05894746, -0.17845185, -0.46775964, -0.032834053, 0
278, 2910069988, -0.74414206, -0.05909305, 0.6627327, -0.05959162, -0.18507186, -0.50718343, 0.084139824, 0
279, 2910086655, -0.74413186, -0.058494113, 0.66273904, -0.060234874, -0.32234368, -0.424509, 0.1514864, 0
280, 2910103322, -0.74413425, -0.05790299, 0.6627358, -0.060808554, -0.43408808, -0.2883051, 0.1194849, 0
281, 2910119989, -0.744147, -0.05739806, 0.66271245, -0.061385065, -0.33629224, -0.28186482, 0.11483097, 0
282, 2910136656, -0.7441548, -0.05687453, 0.66269624, -0.061947763, -0.2811735, -0.30208144, 0.10803223, 0
283, 2910153323, -0.74415094, -0.05634433, 0.66268706, -0.062574774, -0.29759142, -0.17519146, 0.026935577, 0
284, 2910169990, -0.7441328, -0.055794552, 0.66269314, -0.06321594, -0.287359, -0.12145024, -0.10431385, 0
285, 2910186657, -0.7440989, -0.05521767, 0.6627158, -0.06387983, -0.20795828, -0.20378678, -0.07771587, 0
286, 2910203324, -0.7440463, -0.054590218, 0.6627553, -0.06461719, -0.20637667, -0.3061828, 0.01945877, 0
287, 2910219991, -0.7439952, -0.0538818, 0.6627927, -0.06541242, -0.27231792, -0.27805102, 0.24904919, 0
288, 2910236658, -0.74396604, -0.0530854, 0.6628067, -0.066250145, -0.38730818, -0.181748, 0.29902935, 0
289, 2910253325, -0.74394494, -0.052252464, 0.66280085, -0.06719974, -0.40996075, -0.07357521, 0.1024065, 0
290, 2910269992, -0.7439145, -0.051384345, 0.6628012, -0.068195105, -0.30777735, -0.09299111, 0.05514717, 0
291, 2910286659, -0.7438805, -0.050454117, 0.6628011, -0.06925246, -0.18666014, -0.2308158, -0.13990116, 0
292, 2910303326, -0.7438177, -0.049501613, 0.66283184, -0.07031292, 0.0077885324, -0.24403492, 0.034819603, 0
293, 2910319993, -0.7437383, -0.04843507, 0.66288346, -0.07139987, 0.04746253, -0.48913267, 0.098026276, 0
294, 2910336660, -0.74369055, -0.04729446, 0.6628942, -0.07255384, -0.030125076, -0.13398059, 0.07197189, 0
295, 2910353327, -0.74362427, -0.046221055, 0.66292065, -0.07367396, -0.04449875, 0.1996924, 0.06852627, 0
296, 2910369994, -0.74355996, -0.04530917, 0.6629326, -0.074774325, 0.06573516, -0.1995944, 0.065216064, 0
297, 2910386661, -0.74350804, -0.04440981, 0.6629346, -0.07580352, 0.27132684, -0.32160363, 0.117334366, 0
298, 2910403328, -0.7434722, -0.043586545, 0.6629254, -0.07670815, 0.18028367, -0.1387246, -0.013490677, 0
299, 2910419995, -0.74345386, -0.043001585, 0.66289276, -0.07749477, 0.2607605, -0.031855177, -0.005132675, 0
300, 2910436662, -0.7434486, -0.04259167, 0.6628488, -0.07814686, 0.486716, -0.2845013, 0.026615143, 0
301, 2910453329, -0.743456, -0.04221844, 0.6628033, -0.07866232, 0.5084969, -0.37050518, 0.090185165, 0
302, 2910469996, -0.74345917, -0.041903265, 0.66277397, -0.07904674, 0.3601433, -0.32753724, 0.10628414, 0
303, 2910486663, -0.743467, -0.04167054, 0.66274774, -0.07931644, 0.15589626, -0.3462586, 0.030856133, 0
304, 2910503330, -0.74345964, -0.04156229, 0.6627383, -0.07951857, 0.027990974, -0.31335706, -0.13958931, 0
305, 2910519997, -0.74346524, -0.041486874, 0.66272414, -0.07962407, -0.03599408, -0.47272304, -0.0037136078, 0
306, 2910536664, -0.74347603, -0.04139711, 0.6627112, -0.07967684, -0.08634172, -0.4713402, 0.044826508, 0
307, 2910553331, -0.74348915, -0.041312687, 0.662706, -0.079642266, -0.2665392, -0.4363002, 0.21614838, 0
308, 2910569998, -0.74352086, -0.041295223, 0.6626811, -0.07956268, -0.28808138, -0.48445863, 0.22653866, 0
309, 2910586665, -0.7435644, -0.04132519, 0.66264576, -0.0794341, -0.33493686, -0.5772515, 0.20852852, 0
310, 2910603332, -0.74361354, -0.041395172, 0.6626061, -0.079269186, -0.34038264, -0.53811055, 0.099671364, 0
311, 2910619999, -0.74367803, -0.041482553, 0.6625579, -0.07902104, -0.3511536, -0.42952073, -0.0013465881, 0
312, 2910636666, -0.74372816, -0.041678168, 0.662518, -0.07878044, -0.25697285, -0.34107754, -0.07716751, 0
313, 2910653333, -0.7437648, -0.04183037, 0.6624997, -0.0785076, -0.24095993, -0.34437302, 0.0049390793, 0
314, 2910670000, -0.74378705, -0.04192999, 0.662496, -0.07827541, -0.28522667, -0.27301347, 0.073028564, 0
315, 2910686667, -0.7438052, -0.042033397, 0.66249675, -0.07803881, -0.47807813, -0.17016198, 0.09665871, 0
316, 2910703334, -0.7438425, -0.042242922, 0.6624764, -0.07774198, -0.48749024, -0.23854621, 0.19282818, 0
317, 2910720001, -0.74389064, -0.042501524, 0.6624378, -0.077469245, -0.28965983, -0.5762702, 0.242836, 0
318, 2910736668, -0.74394053, -0.042640895, 0.66240144, -0.077225745, -0.22175436, -0.49693647, 0.06848621, 0
319, 2910753335, -0.7439871, -0.042673364, 0.6623773, -0.076965034, -0.1746557, -0.053980168, -0.14234543, 0
320, 2910770002, -0.7440072, -0.042770155, 0.6623673, -0.07680273, -0.16662847, 0.15010594, -0.030812263, 0
321, 2910786669, -0.7440276, -0.04284381, 0.66235614, -0.07665841, -0.09907078, -0.017187476, 0.16755486, 0
322, 2910803336, -0.74404776, -0.042849474, 0.6623435, -0.0765695, -0.06701187, -0.19164996, 0.23167229, 0
323, 2910820003, -0.7440712, -0.042826824, 0.66232616, -0.07650502, -0.10060184, -0.07227727, 0.19902325, 0
324, 2910836670, -0.74410886, -0.042892642, 0.66228306, -0.07647529, -0.09036003, -0.07918852, 0.097997665, 0
325, 2910853337, -0.744149, -0.04294733, 0.66223794, -0.0764444, -0.03501956, -0.14606482, -0.04451084, 0
326, 2910870004, -0.74415576, -0.042964287, 0.66222745, -0.07645847, 0.015370539, -0.084244154, -0.09374237, 0
327, 2910886671, -0.7441508, -0.042945527, 0.66223204, -0.07647839, -0.14423917, -0.0010151959, -0.064507484, 0
328, 2910903338, -0.74414724, -0.042943, 0.6622348, -0.076491505, -0.20200743, -0.061890624, 0.092253685, 0
329, 2910920005, -0.74412495, -0.042947218, 0.66225165, -0.07655941, -0.42026782, -0.42053097, -0.56892395, 0
330, 2910936672, -0.7440751, -0.042847738, 0.66230506, -0.07663825, -0.15758558, -0.6028586, 0.95459557, 0
331, 2910953339, -0.74409854, -0.042689517, 0.6622773, -0.07673855, -0.50386035, -0.032056898, 0.66150856, 0
332, 2910970006, -0.7441783, -0.04268486, 0.6621688, -0.07690361, -0.27952307, -0.38311997, -0.07866955, 0
333, 2910986673, -0.7442306, -0.042609297, 0.6620991, -0.077038884, 0.16236651, -0.3503935, -0.07407379, 0
334, 2911003340, -0.7442704, -0.042476155, 0.6620473, -0.07717252, 0.1578663, -0.16652665, -0.040628433, 0
335, 2911020007, -0.74431413, -0.042305745, 0.66200435, -0.07721308, 0.27469882, 0.12588176, 0.13849449, 0
336, 2911036674, -0.7443498, -0.042234913, 0.66196626, -0.07723606, 0.24458665, 0.032506943, 0.086102486, 0
337, 2911053341, -0.744417, -0.042247407, 0.661896, -0.0771825, 0.4138262, -0.123529576, 0.028698921, 0
338, 2911070008, -0.7444732, -0.042295612, 0.66184026, -0.07709198, 0.43792582, -0.18920746, -0.22244549, 0
339, 2911086675, -0.74450034, -0.04238735, 0.66181564, -0.076991096, 0.3039472, -0.040820394, -0.21628857, 0
340, 2911103342, -0.744508, -0.042445913, 0.66182005, -0.076846346, 0.17509781, 0.0018542635, 0.043359756, 0
341, 2911120009, -0.7445164, -0.042492323, 0.6618214, -0.07672846, -0.05288138, -0.20399827, 0.117949486, 0
342, 2911136676, -0.74455816, -0.042434342, 0.66179866, -0.07655074, -0.10324197, -0.3105052, 0.14205742, 0
343, 2911153343, -0.74459994, -0.04244671, 0.66176844, -0.07639946, -0.20402978, -0.28459424, 0.042096138, 0
344, 2911170010, -0.7446318, -0.042535566, 0.66174674, -0.076225996, -0.24359068, -0.24078839, 0.027820587, 0
345, 2911186677, -0.7446454, -0.04270471, 0.66174144, -0.07604505, -0.25304928, -0.28821516, 0.0141124725, 0
346, 2911203344, -0.74465585, -0.042845413, 0.6617452, -0.075830504, -0.35431543, -0.36559376, 0.10124302, 0
347, 2911220011, -0.7446733, -0.042962432, 0.66174185, -0.075620696, -0.5129833, -0.37974092, 0.16556835, 0
348, 2911236678, -0.74470323, -0.04308053, 0.66172266, -0.075428456, -0.5765476, -0.38128304, 0.17640686, 0
349, 2911253345, -0.7447225, -0.04317631, 0.6617134, -0.07526234, -0.67325675, -0.40456873, 0.18816376, 0
350, 2911270012, -0.7447489, -0.043250114, 0.66168565, -0.07520388, -0.7110202, -0.45229837, 0.18155384, 0
351, 2911286679, -0.7447749, -0.04324916, 0.66165817, -0.07518965, -0.7051244, -0.48053464, 0.16189861, 0
352, 2911303346, -0.7447977, -0.04319965, 0.6616339, -0.07520394, -0.6666399, -0.41946185, 0.11933231, 0
353, 2911320013, -0.7448307, -0.04317663, 0.6615994, -0.075194016, -0.53902024, -0.35298195, 0.13804913, 0
354, 2911336680, -0.7448478, -0.04324349, 0.66157395, -0.075211406, -0.34942183, -0.38147637, 0.09229469, 0
355, 2911353347, -0.7448624, -0.043270886, 0.66155857, -0.07518627, -0.25361612, -0.31819415, 0.052747726, 0
356, 2911370014, -0.7448653, -0.043258138, 0.6615586, -0.0751635, -0.27776313, -0.2308624, 0.02627945, 0
357, 2911386681, -0.7448665, -0.04320781, 0.66156393, -0.075133264, -0.34364983, -0.19064158, 0.1427517, 0
358, 2911403348, -0.7448739, -0.04319326, 0.6615556, -0.07514258, -0.33359042, -0.24990246, 0.20418072, 0
359, 2911420015, -0.744892, -0.043165527, 0.6615343, -0.07516539, -0.26341227, -0.31536257, 0.190938, 0
360, 2911436682, -0.74490607, -0.043187283, 0.6615117, -0.07521257, -0.19200622, -0.34750423, 0.15010357, 0
361, 2911453349, -0.74493754, -0.04316839, 0.66147906, -0.075199306, -0.13315472, -0.23128875, -0.0044164658, 0
362, 2911470016, -0.7449472, -0.043168142, 0.6614717, -0.07516855, -0.133245, -0.16455549, -0.106591225, 0
363, 2911486683, -0.74495035, -0.043198124, 0.66146535, -0.075176135, -0.1863946, -0.18498704, 0.007001877, 0
364, 2911503350, -0.7449522, -0.043161243, 0.6614675, -0.07516067, -0.22979814, -0.22733726, 0.1942482, 0
365, 2911520017, -0.74495876, -0.043142505, 0.6614561, -0.075205445, -0.31565127, -0.20736337, 0.25564766, 0
366, 2911536684, -0.74499154, -0.04310798, 0.6614216, -0.0752047, -0.31640896, -0.21932186, 0.22306538, 0
367, 2911553351, -0.74502903, -0.043114506, 0.66137224, -0.0752632, -0.2116395, -0.29118475, 0.09720516, 0
368, 2911570018, -0.74505585, -0.043126002, 0.66132873, -0.075374454, -0.22443561, -0.32104653, 0.05818367, 0
369, 2911586685, -0.74507755, -0.04308963, 0.66129535, -0.07547322, -0.25604078, -0.25415188, 0.010861397, 0
370, 2911603352, -0.7450897, -0.042989112, 0.66128194, -0.07552865, -0.24924645, -0.18428074, 0.051279068, 0
371, 2911620019, -0.74509794, -0.042920046, 0.66126657, -0.07561959, -0.21928409, -0.1949822, 0.082424164, 0
372, 2911636686, -0.7451208, -0.042831942, 0.6612362, -0.07570958, -0.13109946, -0.2395686, 0.17317581, 0
373, 2911653353, -0.7451621, -0.042696297, 0.6611948, -0.075741634, -0.11548468, -0.21328668, 0.10528946, 0
374, 2911670020, -0.7451899, -0.042640395, 0.6611588, -0.075813845, -0.031165306, -0.22778764, 0.03443432, 0
375, 2911686687, -0.7452003, -0.0426085, 0.66113794, -0.075910985, -0.03239999, -0.21996547, -0.051387787, 0
376, 2911703354, -0.7452163, -0.042541437, 0.66111475, -0.07599436, -0.04755372, -0.19577567, -0.00562191, 0
377, 2911720021, -0.74522144, -0.042447552, 0.66111016, -0.076036245, -0.10349276, -0.14691876, 0.08520317, 0
378, 2911736688, -0.7452363, -0.042398386, 0.6610901, -0.07609415, -0.15922974, -0.13820097, 0.12971497, 0
379, 2911753355, -0.7452623, -0.042326063, 0.6610683, -0.07606761, -0.110823534, -0.20423888, 0.13010979, 0
380, 2911770022, -0.74528056, -0.042310283, 0.661046, -0.07609153, -0.044546578, -0.241779, 0.085398674, 0
381, 2911786689, -0.74530435, -0.042265683, 0.66102123, -0.07609837, -0.11095273, -0.27191725, 0.014051437, 0
382, 2911803356, -0.74532753, -0.042222813, 0.6609945, -0.07612583, -0.15868033, -0.18198638, 0.049153328, 0
383, 2911820023, -0.74533975, -0.042168885, 0.66098243, -0.07614371, -0.1878072, -0.17951308, 0.040132523, 0
384, 2911836690, -0.7453539, -0.04213088, 0.6609654, -0.07617362, -0.14448458, -0.21927258, 0.029779434, 0
385, 2911853357, -0.74536544, -0.04206574, 0.6609551, -0.07618655, -0.10874415, -0.20905298, 0.09547138, 0
386, 2911870024, -0.7453807, -0.042002946, 0.66094005, -0.076202646, -0.08335648, -0.18424833, 0.10917091, 0
387, 2911886691, -0.7453904, -0.041972496, 0.6609261, -0.07624419, -0.084899165, -0.16311607, 0.14605236, 0
388, 2911903358, -0.74541646, -0.041927814, 0.6608947, -0.0762856, -0.10460451, -0.18803151, 0.11502552, 0
389, 2911920025, -0.7454485, -0.041875966, 0.6608574, -0.07632436, -0.09252989, -0.1538329, 0.08259964, 0
390, 2911936692, -0.745475, -0.041839965, 0.660823, -0.076383874, -0.08376506, -0.10506494, -0.022708893, 0
391, 2911953359, -0.7454835, -0.041852973, 0.66080123, -0.07648131, -0.05314065, -0.13012801, -0.04632187, 0
392, 2911970026, -0.7454852, -0.041832633, 0.66079324, -0.07654573, -0.028069204, -0.19236855, 0.037927628, 0
393, 2911986693, -0.7454944, -0.04175193, 0.66078216, -0.076594606, -0.04784742, -0.2661571, 0.12187481, 0
394, 2912003360, -0.7455055, -0.041639686, 0.6607706, -0.07664794, -0.12514669, -0.2139457, 0.16528797, 0
395, 2912020027, -0.7455264, -0.04154875, 0.66074705, -0.07669698, -0.14073269, -0.1672097, 0.16122532, 0
396, 2912036694, -0.745557, -0.041505612, 0.66070795, -0.07675898, -0.13383867, -0.16087948, 0.09728432, 0
397, 2912053361, -0.745587, -0.04146439, 0.6606731, -0.076792166, -0.045340903, -0.19331045, -0.012752533, 0
398, 2912070028, -0.7456055, -0.041440457, 0.6606507, -0.07681653, -0.023189915, -0.22829692, -0.0068912506, 0
399, 2912086695, -0.7456122, -0.041407138, 0.66064394, -0.07682693, 0.0012990573, -0.2153402, 0.016649246, 0
400, 2912103362, -0.7456339, -0.04138255, 0.6606216, -0.07682277, -0.026220305, -0.16268301, 0.059366226, 0
401, 2912120029, -0.7456547, -0.041359328, 0.6606012, -0.076808766, -0.021927962, -0.16849479, 0.1020937, 0
402, 2912136696, -0.7456682, -0.041338965, 0.6605899, -0.07678574, -0.07779637, -0.15030487, 0.082725525, 0
403, 2912153363, -0.7456962, -0.041310363, 0.6605669, -0.07672703, -0.095591575, -0.19430585, 0.119031906, 0
404, 2912170030, -0.74572206, -0.04128372, 0.66054606, -0.07666905, -0.102772154, -0.22989626, 0.096598625, 0
405, 2912186697, -0.7457516, -0.04127918, 0.6605148, -0.076654136, -0.07693182, -0.19188096, 0.018859863, 0
406, 2912203364, -0.7457733, -0.041285165, 0.6604898, -0.076655716, -0.061954215, -0.12180976, -0.03011322, 0
407, 2912220031, -0.7457985, -0.04128225, 0.66046464, -0.07662764, -0.052449103, -0.102817856, 0.03651905, 0
408, 2912236698, -0.74581915, -0.041311637, 0.6604421, -0.07660505, -0.045439288, -0.12615898, 0.112522125, 0
409, 2912253365, -0.7458326, -0.041338585, 0.6604311, -0.07655467, -0.07017975, -0.17607014, 0.13572598, 0
410, 2912270032, -0.7458583, -0.041374035, 0.6604062, -0.076499835, -0.086820476, -0.23430617, 0.10184097, 0
411, 2912286699, -0.745871, -0.041412823, 0.6603933, -0.076465964, -0.23253348, -0.24692214, -0.46907043, 0
412, 2912303366, -0.74586695, -0.041405477, 0.66040266, -0.07642925, 0.12506309, -0.110070296, 0.68530846, 0
413, 2912320033, -0.7458981, -0.041376084, 0.6603763, -0.07636915, -0.0027197057, 0.04722326, 0.08247852, 0
414, 2912336700, -0.74593806, -0.04138235, 0.66033345, -0.07634586, 0.2641324, -0.20053738, -0.039022446, 0
415, 2912353367, -0.74596226, -0.041352168, 0.6603044, -0.076376796, 0.31887877, -0.08241157, 0.08743286, 0
416, 2912370034, -0.7459891, -0.041283824, 0.660274, -0.07641491, 0.07549374, -0.028151568, -0.086922646, 0
417, 2912386701, -0.74601024, -0.04120519, 0.6602557, -0.07640912, 0.121860154, 0.14854135, -0.008518219, 0
418, 2912403368, -0.74602884, -0.04116945, 0.6602418, -0.0763659, 0.097126216, -0.0015073714, 0.033399582, 0
419, 2912420035, -0.7460618, -0.04116434, 0.66021484, -0.0762797, 0.26750076, -0.080907665, 0.059215546, 0
420, 2912436702, -0.7460834, -0.04120335, 0.6602033, -0.07614741, 0.32900035, -0.15277132, -0.025572777, 0
421, 2912453369, -0.7461057, -0.041300423, 0.6601883, -0.07600622, 0.3419842, -0.16543601, -0.086257935, 0
422, 2912470036, -0.7461208, -0.041381985, 0.66018605, -0.075832695, 0.28062692, -0.09084262, 0.01686573, 0
423, 2912486703, -0.74612933, -0.04145717, 0.66018903, -0.07568313, 0.07775077, -0.03860147, 0.102210045, 0
424, 2912503370, -0.7461414, -0.041525677, 0.66018826, -0.075532794, -0.08651203, -0.053842817, 0.12229633, 0
425, 2912520037, -0.746151, -0.04157397, 0.6601867, -0.07542443, -0.25533092, -0.09550228, 0.1473198, 0
426, 2912536704, -0.7461884, -0.041578196, 0.66015166, -0.07535875, -0.32258105, -0.059586655, 0.15199661, 0
427, 2912553371, -0.7462171, -0.041557163, 0.6601204, -0.07535985, -0.2338929, -0.071949154, 0.104971886, 0
428, 2912570038, -0.74624294, -0.04144746, 0.6600988, -0.07535374, -0.12227678, -0.065272376, 0.06289768, 0
429, 2912586705, -0.74624985, -0.04137098, 0.6600845, -0.07545401, -0.050018623, -0.14504504, -0.18863964, 0
430, 2912603372, -0.74623644, -0.041211724, 0.6600985, -0.075550735, 4.8189392E-4, -0.1822167, -0.08544636, 0
431, 2912620039, -0.74620616, -0.04100915, 0.6601239, -0.07573764, -0.16542372, -0.11835011, 0.06474209, 0
432, 2912636706, -0.74617434, -0.040748067, 0.66014725, -0.07598828, -0.3053084, -0.036373604, 0.27246094, 0
433, 2912653373, -0.7461517, -0.040484197, 0.66015214, -0.076307625, -0.36221033, -0.09285108, 0.31845284, 0
434, 2912670040, -0.74615633, -0.04015421, 0.66013104, -0.07661854, -0.2522818, -0.20731337, 0.21832657, 0
435, 2912686707, -0.74613965, -0.039780118, 0.6601286, -0.07699618, -0.043251097, -0.25536904, -0.12104702, 0
436, 2912703374, -0.7460778, -0.03938894, 0.66016847, -0.077454776, 0.10580701, -0.06808887, -0.22707367, 0
437, 2912720041, -0.7459869, -0.038924336, 0.6602427, -0.077932, 0.068681955, 0.14205466, -0.04989624, 0
438, 2912736708, -0.7458963, -0.038364194, 0.66032237, -0.078398824, -0.22684866, 0.13885228, 0.093328476, 0
439, 2912753375, -0.74582, -0.037825875, 0.66036946, -0.078987375, -0.44629368, 0.040192995, 0.31362438, 0
440, 2912770042, -0.74576163, -0.03724634, 0.6603906, -0.079635024, -0.3869662, -0.26550198, 0.42087364, 0
441, 2912786709, -0.7457216, -0.036582284, 0.6603906, -0.08031361, -0.3754584, -0.42968386, 0.22735214, 0
442, 2912803376, -0.7456753, -0.035909407, 0.66039175, -0.08103417, -0.25786108, -0.31013304, 0.13410854, 0
443, 2912820043, -0.7456334, -0.035198003, 0.66038805, -0.08176011, -0.18653542, -0.1919946, -0.03935051, 0
444, 2912836710, -0.7455657, -0.034484237, 0.6603987, -0.082591906, -0.19966412, -0.1009941, -0.0771904, 0
445, 2912853377, -0.745514, -0.033668406, 0.6603949, -0.083421394, -0.21091397, -0.122129604, 0.13662243, 0
446, 2912870044, -0.7454833, -0.03284052, 0.66036516, -0.08425629, -0.14857934, -0.08654891, 0.3040285, 0
447, 2912886711, -0.7454766, -0.032126978, 0.66031134, -0.085007936, -0.04250246, -0.083971456, 0.29066563, 0
448, 2912903378, -0.7455293, -0.03163434, 0.660202, -0.08557947, 0.21476242, -0.21405277, 0.38583946, 0
449, 2912920045, -0.7456288, -0.031318955, 0.6600546, -0.08596447, 0.46691632, -0.35443622, 0.2342577, 0
450, 2912936712, -0.7457513, -0.031153902, 0.65989095, -0.08621749, 0.50334805, -0.32716104, 0.04224205, 0
451, 2912953379, -0.74586093, -0.031049639, 0.65975255, -0.086365536, 0.64061224, -0.16547401, -0.29465008, 0
452, 2912970046, -0.745939, -0.030949943, 0.65965706, -0.08645587, 0.66611284, 0.07244703, -0.3164463, 0
453, 2912986713, -0.74601704, -0.030869178, 0.65956664, -0.08650109, 0.8317838, 0.23616536, -0.08835888, 0
454, 2913003380, -0.74608237, -0.030810311, 0.6595041, -0.08643639, 0.8535857, 0.21067102, -0.05864048, 0
455, 2913020047, -0.7461492, -0.030883916, 0.65944546, -0.086280435, 0.8929727, 0.15257688, -0.17491913, 0
456, 2913036714, -0.7462148, -0.031045236, 0.6593957, -0.086036235, 1.1204839, -3.3286668E-4, -0.39492416, 0
457, 2913053381, -0.7462162, -0.031108484, 0.6594277, -0.08575478, 1.2153924, 0.15029173, -0.51428986, 0
458, 2913070048, -0.7461829, -0.031112053, 0.6594907, -0.08555736, 0.84974796, 0.45800218, -0.03007412, 0
459, 2913086715, -0.74618006, -0.031011298, 0.65951204, -0.0854539, 0.52371216, 0.53459704, 0.31647682, 0
460, 2913103382, -0.7462016, -0.030779302, 0.6594986, -0.08545506, 0.44178274, 0.44864917, 0.45398235, 0
461, 2913120049, -0.7462743, -0.030455664, 0.6594237, -0.08551408, 0.51624787, 0.3854444, 0.3648758, 0
462, 2913136716, -0.7463474, -0.03015633, 0.6593448, -0.085590824, 0.7680866, 0.2548678, -0.14465332, 0
463, 2913153383, -0.7464172, -0.0298739, 0.6592726, -0.08563657, 1.0957401, 0.2488163, -0.50606346, 0
464, 2913170050, -0.74643177, -0.029625222, 0.65926313, -0.08566891, 1.3571041, 0.3914969, -0.6181431, 0
465, 2913186717, -0.74644506, -0.029404022, 0.6592587, -0.08566275, 1.2679081, 0.5733693, -0.34272575, 0
466, 2913203384, -0.7464644, -0.029212825, 0.65924674, -0.08565201, 1.1931596, 0.6253161, 0.15205574, 0
467, 2913220051, -0.74649245, -0.029033273, 0.65922296, -0.085650966, 1.1562321, 0.61615473, 0.3865633, 0
468, 2913236718, -0.7465725, -0.028874263, 0.65914047, -0.085642606, 1.1484851, 0.5486493, 0.34374046, 0
469, 2913253385, -0.7466867, -0.02875913, 0.65902257, -0.08559318, 1.4345866, 0.70921826, -0.08020687, 0
470, 2913270052, -0.74677986, -0.028737754, 0.65893215, -0.08548328, 1.5044899, 0.7412571, -0.52811146, 0
471, 2913286719, -0.74691147, -0.028808527, 0.6588049, -0.085290685, 1.6411674, 0.4791686, -0.4744587, 0
472, 2913303386, -0.74699146, -0.028877914, 0.65874296, -0.08504532, 2.1285548, 0.49232882, -0.29632282, 0
473, 2913320053, -0.74702394, -0.028958887, 0.6587393, -0.084760174, 1.8835586, 0.6879485, -0.17394257, 0
474, 2913336720, -0.74707407, -0.029127114, 0.65871483, -0.08444925, 1.8434561, 0.9923422, -0.15217113, 0
475, 2913353387, -0.7471417, -0.02936294, 0.6586737, -0.084091365, 1.7726967, 0.94816095, -0.36119175, 0
476, 2913370054, -0.74718785, -0.029573523, 0.65865767, -0.08373086, 2.4678857, 0.96153575, -0.68830776, 0
477, 2913386721, -0.7471793, -0.029709332, 0.6587025, -0.08340512, 2.3534784, 1.1030775, -0.8163252, 0
478, 2913403388, -0.7471759, -0.02976302, 0.6587402, -0.08311893, 2.457892, 1.0755517, -0.09525585, 0
479, 2913420055, -0.74719846, -0.02974125, 0.658744, -0.082893476, 2.2790136, 1.1744287, 0.08690834, 0
480, 2913436722, -0.74720585, -0.029698864, 0.6587625, -0.08269386, 2.4859123, 1.3597628, 0.5242224, 0
481, 2913453389, -0.7472563, -0.029643133, 0.6587384, -0.08245042, 2.225822, 1.21682, -0.37984943, 0
482, 2913470056, -0.74736667, -0.02960939, 0.6586485, -0.082179695, 2.7493925, 0.99845606, -0.7945595, 0
483, 2913486723, -0.74743956, -0.02962444, 0.6586039, -0.081869885, 2.8875766, 0.97932446, -0.9765692, 0
484, 2913503390, -0.74747884, -0.029683232, 0.65859956, -0.08152126, 2.7664828, 1.1525494, -0.50429726, 0
485, 2913520057, -0.7475094, -0.029769681, 0.6586204, -0.08104029, 2.5602503, 1.2597556, 0.24860764, 0
486, 2913536724, -0.74756324, -0.029926278, 0.6586226, -0.0804673, 2.1799116, 1.1134447, 0.11638546, 0
487, 2913553391, -0.74768674, -0.030214868, 0.6585428, -0.079862535, 2.0272746, 0.9573394, 0.38754177, 0
488, 2913570058, -0.74784505, -0.03062024, 0.65841967, -0.07923894, 2.1369326, 0.91371804, 0.06807709, 0
489, 2913586725, -0.74794984, -0.031076103, 0.6583687, -0.078492075, 1.9621516, 0.86327165, -0.7144108, 0
490, 2913603392, -0.7479769, -0.03159681, 0.6584176, -0.07761009, 2.4377193, 0.789302, -0.5162535, 0
491, 2913620059, -0.7479288, -0.03228809, 0.65855825, -0.07659024, 2.5831869, 0.8641269, -1.0598764, 0
492, 2913636726, -0.7479418, -0.03318493, 0.65863013, -0.07545428, 2.0519407, 0.3661905, -0.8828821, 0
493, 2913653393, -0.7480565, -0.034161955, 0.6585846, -0.074268445, 2.5229926, 0.96270806, 0.30623055, 0
494, 2913670060, -0.7481093, -0.035121903, 0.6586146, -0.07301369, 2.1794188, 1.0591053, -0.8084078, 0
495, 2913686727, -0.74799496, -0.036034726, 0.65883, -0.07178588, 2.8205206, 1.1486233, -1.1936913, 0
496, 2913703394, -0.74785817, -0.036970496, 0.65906584, -0.0705601, 2.137066, 0.98580754, -0.97939396, 0
497, 2913720061, -0.74773437, -0.037842676, 0.65928674, -0.06933515, 2.1939034, 1.1441642, -0.38839817, 0
498, 2913736728, -0.74743, -0.038621604, 0.65971977, -0.06805657, 1.527991, 0.67222947, -2.5450191, 0
499, 2913753395, -0.74723643, -0.039225265, 0.6600372, -0.06674646, 1.2184733, -0.030901225, 0.24053097, 0
500, 2913770062, -0.74706703, -0.039647736, 0.6603289, -0.06549579, 1.7507099, 0.00600367, 1.292778, 0
501, 2913786729, -0.7468552, -0.040023044, 0.66065973, -0.0643394, 0.2446908, -0.41758004, 0.3597498, 0
502, 2913803396, -0.7467108, -0.040166438, 0.6609042, -0.063406944, 0.42269206, -0.4035372, -0.5555401, 0
503, 2913820063, -0.74647367, -0.03978759, 0.66125846, -0.06274007, 0.30388507, -0.6527937, -1.051857, 0
504, 2913836730, -0.7462151, -0.039073557, 0.66163856, -0.062255636, -1.2600659, 0.6728627, 0.5051346, 0
505, 2913853397, -0.7459502, -0.03857574, 0.66200125, -0.061882243, -1.6357881, 1.2239058, 1.734973, 0
506, 2913870064, -0.74573386, -0.03832782, 0.6622788, -0.061676145, -2.023853, 0.1057717, 2.4394054, 0
507, 2913886731, -0.7456909, -0.037911244, 0.6623453, -0.061739907, -1.4375625, -0.8039105, 0.77641106, 0
508, 2913903398, -0.7457285, -0.037169658, 0.6623134, -0.062076673, -1.6876833, -1.0101154, 0.8086977, 0
509, 2913920065, -0.7458615, -0.036452994, 0.66216165, -0.062521085, -1.2594744, -0.101206064, 1.0345936, 0
510, 2913936732, -0.7458136, -0.03594727, 0.6622077, -0.0628975, -0.93184114, 0.03090089, -0.6278038, 0
511, 2913953399, -0.74583036, -0.035620168, 0.6621904, -0.06306623, -1.2964789, -0.6394899, 0.17626667, 0
512, 2913970066, -0.7459001, -0.035578802, 0.66210973, -0.06310974, -1.5450691, -0.69610685, 0.9229555, 0
513, 2913986733, -0.74599874, -0.03576342, 0.6619963, -0.06302974, -1.9585077, -1.1139706, 1.1610603, 0
514, 2914003400, -0.74620605, -0.03616135, 0.6617553, -0.06288047, -1.6302146, -1.0476207, -0.24991798, 0
515, 2914020067, -0.74632007, -0.036764078, 0.66160744, -0.06273234, -1.3936458, -0.5756403, 0.6890974, 0
516, 2914036734, -0.74644184, -0.03730476, 0.66145486, -0.06257552, -1.5103687, -0.38678482, -0.1558485, 0
517, 2914053401, -0.74659336, -0.03772565, 0.6612577, -0.06259878, -1.222319, 0.20280492, 0.5442047, 0
518, 2914070068, -0.746707, -0.038097948, 0.6611023, -0.06265581, -0.7251234, 1.0444831, -0.3367443, 0
519, 2914086735, -0.74672055, -0.03864257, 0.66104937, -0.0627221, -0.6347352, -0.03424118, 0.11375046, 0
520, 2914103402, -0.746782, -0.03922744, 0.6609294, -0.062891394, 0.15136789, 0.007878385, -0.5943327, 0
521, 2914120069, -0.74682176, -0.039577715, 0.6608398, -0.06314033, 0.34857702, -0.49313357, 0.40277767, 0
522, 2914136736, -0.74684757, -0.03962469, 0.6607658, -0.063579366, 1.2286943, 0.7401644, -0.5775213, 0
523, 2914153403, -0.7467418, -0.03944976, 0.66083574, -0.06420015, 0.5877376, 0.4866239, -0.04184246, 0
524, 2914170070, -0.74679554, -0.039163284, 0.6607093, -0.06504606, 0.8735892, 1.0088289, 0.42678738, 0
525, 2914186737, -0.7467382, -0.03883668, 0.6607, -0.06598903, 0.67477936, 0.7448441, -0.22640705, 0
526, 2914203404, -0.74665296, -0.038380645, 0.66073066, -0.066906795, 1.0695014, 0.6807608, -0.78285885, 0
527, 2914220071, -0.74652237, -0.037881047, 0.6608221, -0.067738816, 1.5721079, 0.60292935, -0.7298145, 0
528, 2914236738, -0.74632347, -0.037345387, 0.66098845, -0.06860034, 2.3510149, 0.697323, -0.6393461, 0
529, 2914253405, -0.7461055, -0.03670007, 0.66117436, -0.06952256, 2.3616388, 0.45899737, 0.22189522, 0
530, 2914270072, -0.74601066, -0.03607171, 0.6612159, -0.070467934, 2.1977417, 0.91199124, -0.6752167, 0
531, 2914286739, -0.74583733, -0.035600007, 0.6613558, -0.071224496, 2.2879603, 1.5035491, 0.23004913, 0
532, 2914303406, -0.74572045, -0.03540074, 0.6614553, -0.07162319, 1.7273973, 1.3734733, -0.6620083, 0
533, 2914320073, -0.74569386, -0.035439327, 0.66146517, -0.07178937, 2.8028636, 1.131828, -0.091197014, 0
534, 2914336740, -0.7457706, -0.035531968, 0.6613586, -0.07192801, 2.153288, 0.57733077, 0.7132387, 0
535, 2914353407, -0.74596316, -0.035557106, 0.66111386, -0.07216774, 2.3386054, 1.427099, 0.56015205, 0
536, 2914370074, -0.74610513, -0.035557114, 0.6609152, -0.07251799, 2.4421005, 1.2714512, -0.0024356842, 0
537, 2914386741, -0.7462475, -0.035442717, 0.6607005, -0.07306489, 2.7533424, 1.2011855, -1.141181, 0
538, 2914403408, -0.74631035, -0.03529481, 0.660575, -0.07362728, 2.883312, 1.616998, -1.2662525, 0
539, 2914420075, -0.7463188, -0.035254955, 0.6605163, -0.07408476, 2.4913359, 1.8592606, 0.3187704, 0
540, 2914436742, -0.74639094, -0.035365857, 0.6603962, -0.074375704, 1.9888362, 1.2782476, 0.87666607, 0
541, 2914453409, -0.7466542, -0.035639822, 0.6600636, -0.074555814, 1.6205298, 0.1228577, 2.1817636, 0
542, 2914470076, -0.7470238, -0.036004573, 0.6596099, -0.07469192, 2.2908528, -0.12573291, 0.18560028, 0
543, 2914486743, -0.74725527, -0.036496602, 0.6593187, -0.0747101, 3.4046512, 0.15457737, -3.6254492, 0
544, 2914503410, -0.7473446, -0.037243932, 0.6592033, -0.074465826, 2.8518887, 1.496844, -3.4630218, 0
545, 2914520077, -0.74742883, -0.038496114, 0.6591161, -0.07375188, 2.437163, 2.5513659, 0.6073513, 0
546, 2914536744, -0.7474441, -0.040184557, 0.6591274, -0.0725856, 0.7921834, 0.93506396, 0.7948818, 0
547, 2914553411, -0.7475858, -0.041984297, 0.6589968, -0.07128276, 0.55640733, -0.5094085, 1.7434807, 0
548, 2914570078, -0.7479469, -0.043659344, 0.6586177, -0.06997812, -0.2992463, -0.79141283, -0.78797245, 0
549, 2914586745, -0.74823475, -0.045257203, 0.65830755, -0.06879693, 0.0012489904, -0.27625582, -1.089036, 0
550, 2914603412, -0.74835056, -0.046744287, 0.65818715, -0.06768519, 1.0256388, 0.055452783, 0.7774677, 0
551, 2914620079, -0.7483666, -0.04786361, 0.6581964, -0.06662853, 0.9709443, -0.13606776, -0.089307785, 0
552, 2914636746, -0.7484973, -0.048791394, 0.658089, -0.06553647, -0.44860166, -0.34783775, -1.0404387, 0
553, 2914653413, -0.74883646, -0.049724236, 0.65773845, -0.064471245, -0.35495958, -0.8220969, -0.408597, 0
554, 2914670080, -0.7490125, -0.050733387, 0.65757126, -0.063334584, 0.24641857, -0.74452895, 0.21404743, 0
555, 2914686747, -0.74901116, -0.051645786, 0.6576147, -0.06215194, -0.32668966, -1.2169827, 0.13532448, 0
556, 2914703414, -0.7491485, -0.0524619, 0.65750885, -0.06092213, -0.89526236, -0.92604107, -0.8963394, 0
557, 2914720081, -0.74912244, -0.053480454, 0.65758, -0.05957356, -0.4585659, 0.71683013, -3.4593854, 0
558, 2914736748, -0.74873525, -0.05466768, 0.65805507, -0.058098093, 1.1654229, -0.6988672, 0.25287724, 0
559, 2914753415, -0.74814564, -0.055567794, 0.6587711, -0.056709036, 1.5185297, -0.27271682, -1.1763659, 0
560, 2914770082, -0.7473312, -0.056480095, 0.65974396, -0.055217817, 0.78182864, 1.198218, 0.04087639, 0
561, 2914786749, -0.7467974, -0.05752588, 0.6603762, -0.053783596, 0.93966323, 1.0437254, 2.5760412, 0
562, 2914803416, -0.74621093, -0.05852676, 0.6610492, -0.05256234, 1.3838737, 0.99505305, 1.0834007, 0
563, 2914820083, -0.7456445, -0.05891738, 0.66172594, -0.051640898, 0.98727596, 0.3310704, -0.6874409, 0
564, 2914836750, -0.7453317, -0.058892168, 0.66212595, -0.05105613, 1.2398643, 0.69502974, 0.40127087, 0
565, 2914853417, -0.7450749, -0.058757775, 0.6624534, -0.05071111, 0.739354, 1.0622677, 2.876008, 0
566, 2914870084, -0.74489754, -0.058425017, 0.6627036, -0.050429165, 0.12705773, -0.52947325, 0.9478321, 0
567, 2914886751, -0.74493366, -0.057806678, 0.66273135, -0.050244465, 0.018589126, -1.4922419, -0.40285587, 0
568, 2914903418, -0.74496794, -0.05717078, 0.6627649, -0.05002001, 0.05927474, -1.10371, -0.6146374, 0
569, 2914920085, -0.744996, -0.056577034, 0.6628194, -0.049555242, -0.20964442, -1.3361474, 0.25403976, 0
570, 2914936752, -0.7450787, -0.055895478, 0.662832, -0.048912704, -0.4719333, -1.355549, 1.1401024, 0
571, 2914953419, -0.7452495, -0.055231042, 0.6627614, -0.04801324, -1.8507724, -1.3155967, 0.421134, 0
572, 2914970086, -0.7456101, -0.05482795, 0.6624693, -0.04689163, -2.0178182, -1.3712739, 0.8084183, 0
573, 2914986753, -0.74588704, -0.05478888, 0.66224766, -0.04564768, -1.4525924, -2.138781, 0.65328217, 0
574, 2915003420, -0.7460827, -0.05489917, 0.66211087, -0.04428287, -1.9574058, -2.0371406, -0.7630272, 0
575, 2915020087, -0.7462675, -0.054942325, 0.6619898, -0.042904302, -1.2456105, -1.4503859, -0.4517126, 0
576, 2915036754, -0.74634576, -0.054550663, 0.66201204, -0.041681454, -1.0082043, -1.3951219, -0.5717268, 0
577, 2915053421, -0.74636924, -0.053746358, 0.6621176, -0.04061784, -1.0054395, -0.54197633, 0.48351574, 0
578, 2915070088, -0.7463376, -0.052734658, 0.66229147, -0.039678365, -1.0253568, -0.30469677, 0.7419243, 0
579, 2915086755, -0.7463603, -0.051492967, 0.6624143, -0.03882186, -0.94342273, -0.8458455, -0.43457413, 0
580, 2915103422, -0.7465446, -0.050076224, 0.6623627, -0.038004532, -1.1762173, -1.1529894, 0.011104584, 0
581, 2915120089, -0.74655885, -0.048504546, 0.66249955, -0.03737235, -0.46013138, -0.9355489, 0.6348543, 0
582, 2915136756, -0.7464126, -0.046735965, 0.6628169, -0.036921427, -1.240082, -0.78527516, -0.5333748, 0
583, 2915153423, -0.7463549, -0.04466033, 0.6630328, -0.03677343, -1.4991862, -0.7503215, 0.5075693, 0
584, 2915170090, -0.74629694, -0.042283356, 0.6632475, -0.036890462, -1.4351753, -0.2246788, 0.6108751, 0
585, 2915186757, -0.746292, -0.03991157, 0.66338605, -0.037140638, -2.0778983, -0.40514842, 0.49262333, 0
586, 2915203424, -0.746456, -0.03760189, 0.66330963, -0.037616044, -2.580576, -0.9601908, 1.4771204, 0
587, 2915220091, -0.7467105, -0.03523238, 0.6631164, -0.038261607, -2.6139438, -0.485809, 0.49125004, 0
588, 2915236758, -0.7469128, -0.03298726, 0.6629631, -0.03896384, -1.5699067, -0.23502913, 0.36492062, 0
589, 2915253425, -0.7470994, -0.031014241, 0.6628059, -0.039672583, -0.5723912, -0.27245012, -0.56462383, 0
590, 2915270092, -0.7471763, -0.029253848, 0.6627598, -0.04032688, -0.3323888, -0.40996623, -0.5201645, 0
591, 2915286759, -0.7473105, -0.02782455, 0.66262984, -0.040982127, -0.55526567, 0.45624873, 0.7960987, 0
592, 2915303426, -0.7475352, -0.02668541, 0.66238356, -0.041619122, -1.2755541, 0.83161986, 0.4433937, 0
593, 2915320093, -0.74786115, -0.0258722, 0.6620136, -0.042158872, -0.6819935, 0.3560455, 0.5601187, 0
594, 2915336760, -0.74805397, -0.025316872, 0.6617814, -0.042717546, -0.06509279, 0.020373486, -0.97201157, 0
595, 2915353427, -0.74826366, -0.02473522, 0.66151994, -0.04343143, 0.534297, 1.0445564, -0.12272644, 0
596, 2915370094, -0.7483029, -0.02416408, 0.66144264, -0.04424417, 1.021278, 1.8604809, -0.8033457, 0
597, 2915386761, -0.7482812, -0.02389621, 0.66141015, -0.04523219, 0.8473054, 2.1599684, -0.033317566, 0
598, 2915403428, -0.7481782, -0.023803696, 0.661456, -0.046299964, 1.0430473, 1.9482185, 0.32743454, 0
599, 2915420095, -0.7479873, -0.023627214, 0.6615945, -0.04748313, 1.5682107, 1.1130221, 0.08516407, 0
600, 2915436762, -0.74772376, -0.023478575, 0.661801, -0.048810348, 1.5999297, 1.039384, -1.5343618, 0
601, 2915453429, -0.7474925, -0.023467794, 0.6619605, -0.050175548, 0.93792427, 1.338068, 0.47271252, 0
602, 2915470096, -0.74737555, -0.023676276, 0.6619889, -0.05142902, 1.874212, 1.9730208, -0.51503944, 0
603, 2915486763, -0.74720395, -0.024020411, 0.66207737, -0.052613392, 1.432035, 0.7890823, -0.39343643, 0
604, 2915503430, -0.7470623, -0.02416858, 0.6621477, -0.05365704, 1.2194765, 1.3848555, 0.65062714, 0
605, 2915520097, -0.746866, -0.02466242, 0.6622671, -0.05468376, 0.9032042, 1.5234612, -0.00699234, 0
606, 2915536764, -0.74676776, -0.025447607, 0.6622461, -0.055907235, 1.0739661, 0.21805309, -0.86023045, 0
607, 2915553431, -0.7467205, -0.025884442, 0.66217387, -0.057176724, 1.3456038, -0.20122094, -0.060782433, 0
608, 2915570098, -0.7467541, -0.02615086, 0.66201967, -0.058389917, 0.68640375, 0.7269268, 0.242383, 0
609, 2915586765, -0.7467862, -0.026543744, 0.66187924, -0.05938816, 1.2736385, 2.025026, 0.88920116, 0
610, 2915603432, -0.7467681, -0.027157672, 0.6618018, -0.060195178, 2.0265312, 1.4842693, -1.0987902, 0
611, 2915620099, -0.7468018, -0.027602173, 0.66166943, -0.06102307, 2.7793684, 0.51886374, 0.5540371, 0
612, 2915636766, -0.74675536, -0.027800284, 0.6616375, -0.061840847, 2.7938468, 1.651149, 0.3652382, 0
613, 2915653433, -0.746848, -0.02815976, 0.6614535, -0.06252648, 2.04188, 0.8929518, -0.4121437, 0
614, 2915670100, -0.74707824, -0.028598696, 0.6611057, -0.06324993, 2.9691176, -0.093402766, -1.0269432, 0
615, 2915686767, -0.7471284, -0.028852992, 0.66097194, -0.06393592, 2.9699714, 0.055391148, -0.5356436, 0
616, 2915703434, -0.74700654, -0.029137865, 0.6610407, -0.06451723, 2.268118, 1.9399765, -0.82846165, 0
617, 2915720101, -0.74685633, -0.029680148, 0.6611418, -0.064969555, 1.3947108, 1.9889956, -0.49281502, 0
618, 2915736768, -0.74676186, -0.030450389, 0.6611715, -0.065398306, 1.2370007, 2.209612, -0.16470051, 0
619, 2915753435, -0.74659747, -0.031049892, 0.66128695, -0.065823644, 1.5958471, 0.47371453, 0.044172287, 0
620, 2915770102, -0.74648833, -0.031198665, 0.6613458, -0.06639916, 1.7350649, -0.32057202, 0.19867039, 0
621, 2915786769, -0.746318, -0.031020626, 0.6614728, -0.067126274, 2.228345, 0.445303, -1.3795443, 0
622, 2915803436, -0.7462066, -0.030895881, 0.6615254, -0.06789903, 1.1605794, 0.98877954, 0.13129234, 0
623, 2915820103, -0.74611694, -0.030956067, 0.66155684, -0.06854819, 1.0707276, 1.5138379, 0.615963, 0
624, 2915836770, -0.7463435, -0.030871317, 0.66126406, -0.06894389, 0.03715456, -0.5503063, 4.279948, 0
625, 2915853437, -0.7468783, -0.030969925, 0.66062135, -0.06926867, 0.52753395, -0.3237177, 2.1857576, 0
626, 2915870104, -0.7472694, -0.031501986, 0.6601416, -0.06938368, 0.29212785, -2.1325, -1.2195702, 0
627, 2915886771, -0.74785954, -0.032245487, 0.6594618, -0.069148585, -0.13147882, -1.7891507, -2.199047, 0
628, 2915903438, -0.7481088, -0.033659443, 0.65921384, -0.068134576, -0.6709622, -0.17907724, -2.7995396, 0
629, 2915920105, -0.74805826, -0.035730064, 0.65936095, -0.066184744, 0.88354135, -0.4463831, 0.8087406, 0
630, 2915936772, -0.7482462, -0.03828595, 0.65923464, -0.06384781, -1.9370732, -2.3557458, -1.8511662, 0
631, 2915953439, -0.74861133, -0.041135363, 0.6588854, -0.061350197, -1.3988361, -1.4204438, 2.725583, 0
632, 2915970106, -0.74902135, -0.043959916, 0.65847397, -0.058751017, -1.9228739, -1.7801725, 1.2100954, 0
633, 2915986773, -0.749455, -0.046402447, 0.65802884, -0.056277722, -3.9758928, -2.6650672, -1.768712, 0
634, 2916003440, -0.7497471, -0.04833304, 0.6577585, -0.05387041, -2.6398528, -0.9775082, -0.47463894, 0
635, 2916020107, -0.749828, -0.050053336, 0.6577177, -0.051625863, -3.0573297, -2.8910086, 1.6056738, 0
636, 2916036774, -0.7501461, -0.051584676, 0.6573905, -0.049626112, -4.2677717, -1.6775217, -0.73726845, 0
637, 2916053441, -0.7498202, -0.053124048, 0.65780985, -0.047315523, 0.16797803, 0.7228963, -2.898841, 0
638, 2916070108, -0.74911886, -0.05421485, 0.6586923, -0.044849724, 0.38423643, -0.1333498, -5.0130267, 0
639, 2916086775, -0.747827, -0.054591045, 0.66027784, -0.042577162, 3.2729146, -0.09647233, -7.607829, 0
640, 2916103442, -0.74613935, -0.054355532, 0.66231567, -0.040801585, 4.911727, -1.3496318, 2.648734, 0
641, 2916120109, -0.74504244, -0.053612784, 0.66368335, -0.03958462, 3.4335434, 1.3413563, 6.2439346, 0
642, 2916136776, -0.7448717, -0.052268766, 0.664036, -0.038669854, 1.5835705, 0.6265635, 5.6102257, 0
643, 2916153443, -0.74537903, -0.05022899, 0.6636557, -0.038124263, 1.5687293, -0.42813012, 2.6438065, 0
644, 2916170110, -0.745785, -0.048028, 0.6633894, -0.037651524, 1.8701559, -0.62744635, -1.3594322, 0
645, 2916186777, -0.7461373, -0.045761272, 0.6631946, -0.0369204, 0.9170978, -2.0392454, -0.7308445, 0
646, 2916203444, -0.7463999, -0.043626763, 0.6630985, -0.03590852, -0.10247186, -1.7015964, 2.1543007, 0
647, 2916220111, -0.74671835, -0.042221405, 0.6629047, -0.034521416, -2.559091, -1.6383735, 1.0952454, 0
648, 2916236778, -0.747433, -0.041556373, 0.6622171, -0.033024892, -3.4970376, -2.2430527, 0.2781334, 0
649, 2916253445, -0.7481079, -0.04120121, 0.66155434, -0.03143178, -2.6470616, -1.2784269, 0.8331318, 0
650, 2916270112, -0.7484756, -0.040868297, 0.6612429, -0.02961108, -2.2792072, -0.66875744, 0.62117004, 0
651, 2916286779, -0.7487636, -0.040457144, 0.6610235, -0.02773957, -2.3403392, -1.0387682, -1.4431324, 0
652, 2916303446, -0.74914944, -0.03979598, 0.66069317, -0.026094317, -1.9795905, -1.0910347, 0.012604713, 0
653, 2916320113, -0.74958897, -0.038917765, 0.6602993, -0.02473721, -1.6730111, -0.6520213, -0.7424116, 0
654, 2916336780, -0.75012726, -0.03789071, 0.65978724, -0.02364707, -2.4965277, -0.31161696, -1.2983685, 0
655, 2916353447, -0.7508148, -0.03674221, 0.6590999, -0.022794202, -1.1318128, -0.6915639, 0.38550854, 0
656, 2916370114, -0.7510431, -0.03529253, 0.6589408, -0.022160068, 1.0926989, -0.5558675, 0.5506277, 0
657, 2916386781, -0.75122553, -0.033475764, 0.6588456, -0.021617144, -0.5291249, -1.0106827, -0.111881256, 0
658, 2916403448, -0.75114095, -0.031487457, 0.6590507, -0.021284953, 1.4070047, 0.55548227, 4.3922987, 0
659, 2916420115, -0.7505784, -0.029614009, 0.65978897, -0.020946458, 0.15203708, 0.6044774, -0.08735657, 0
660, 2916436782, -0.75016385, -0.027744904, 0.6603482, -0.02073288, -1.1994451, -0.23033111, 0.40802574, 0
661, 2916453449, -0.7499482, -0.025815189, 0.6606761, -0.020572424, -0.43139923, -0.13499115, -0.78400135, 0
662, 2916470116, -0.7498932, -0.024095729, 0.66080344, -0.020580605, -1.2627306, -0.048722807, -0.14076614, 0
663, 2916486783, -0.75004846, -0.022727095, 0.6606733, -0.020656168, -0.8582379, 0.3832228, -0.7897768, 0
664, 2916503450, -0.75015295, -0.021306776, 0.66059375, -0.020918086, -0.83902067, -0.64344996, 0.62895393, 0
665, 2916520117, -0.7503465, -0.019868746, 0.660405, -0.02135031, -0.1691233, 1.0254449, -0.07817459, 0
666, 2916536784, -0.7503789, -0.01867304, 0.6603862, -0.021862537, -0.3220245, 1.3236796, -0.9839792, 0
667, 2916553451, -0.75030285, -0.017679818, 0.6604778, -0.022525981, 0.4833347, 1.7696487, -0.09637833, 0
668, 2916570118, -0.75009274, -0.016814768, 0.66071427, -0.023239091, 0.15569063, 1.4831266, -0.73691654, 0
669, 2916586785, -0.7498698, -0.016239047, 0.6609529, -0.024040222, 0.2592911, 1.4940131, -0.26517677, 0
670, 2916603452, -0.7495849, -0.016015597, 0.66124886, -0.024918705, 0.45231658, 1.4839432, 0.25462246, 0
671, 2916620119, -0.7493178, -0.01572647, 0.6615165, -0.026007906, 0.50907665, 0.6679039, -0.6205797, 0
672, 2916636786, -0.7491561, -0.015260451, 0.6616547, -0.02739273, 0.5242671, 0.9721436, 0.2898922, 0
673, 2916653453, -0.7490162, -0.015023969, 0.6617547, -0.028893515, 0.37148836, 2.071974, -0.55654335, 0
674, 2916670120, -0.748946, -0.015212409, 0.6617672, -0.030294463, 0.41819945, 1.6351726, 0.07700348, 0
675, 2916686787, -0.74891144, -0.015748657, 0.6617287, -0.03168747, 1.2619032, 1.4059765, 0.29110718, 0
676, 2916703454, -0.7489152, -0.01637467, 0.6616421, -0.033055276, 1.4176133, 1.514726, -0.47969627, 0
677, 2916720121, -0.748877, -0.017130062, 0.66160345, -0.0342917, 1.9024777, 1.6173183, -0.17084694, 0
678, 2916736788, -0.74872, -0.018009856, 0.661696, -0.035460517, 2.091155, 1.3550868, -0.8309679, 0
679, 2916753455, -0.7483634, -0.018866815, 0.66201437, -0.036581457, 2.783703, 1.062937, -0.8789692, 0
680, 2916770122, -0.74785423, -0.019639254, 0.6625047, -0.037694365, 2.50637, 0.8899983, -1.1406765, 0
681, 2916786789, -0.7474257, -0.020392232, 0.66290855, -0.038684547, 1.3460419, 0.9479479, 0.58649635, 0
682, 2916803456, -0.74704874, -0.02127996, 0.6632575, -0.039496526, 0.584933, 0.815721, 0.03150654, 0
683, 2916820123, -0.74714416, -0.022145398, 0.6630864, -0.040087506, -0.7532529, 0.42924058, 2.2441244, 0
684, 2916836790, -0.7473922, -0.022894546, 0.6627498, -0.04060173, 0.32734635, 0.025161412, 1.6883163, 0
685, 2916853457, -0.7475716, -0.023513913, 0.6624874, -0.041223764, 0.7949466, -0.016871763, 0.630538, 0
686, 2916870124, -0.7477867, -0.023863241, 0.6621782, -0.042080358, 1.4118795, 0.28953612, -0.37925243, 0
687, 2916886791, -0.747922, -0.024199463, 0.66194004, -0.043215007, 1.0533584, 0.6697062, -1.0050764, 0
688, 2916903458, -0.7479787, -0.024367444, 0.66179806, -0.044301733, 0.78915405, 1.2132196, -0.17765808, 0
689, 2916920125, -0.7481173, -0.024405532, 0.6615816, -0.04516387, 0.4896914, 0.96540475, 0.010192871, 0
690, 2916936792, -0.748274, -0.02448009, 0.6613459, -0.045974582, 1.4430631, 0.6863133, -0.36721706, 0
691, 2916953459, -0.74825996, -0.024544895, 0.6613006, -0.046809167, 1.5807576, 0.7856538, -0.43645954, 0
692, 2916970126, -0.74824065, -0.02459585, 0.6612613, -0.047640517, 1.409008, 1.2293903, -1.0672512, 0
693, 2916986793, -0.7482902, -0.024638891, 0.66114354, -0.048468187, 0.88498837, 1.0784401, 0.91756535, 0
694, 2917003460, -0.74827284, -0.02478113, 0.66109794, -0.049276814, 1.4080713, 1.3213377, -0.9373455, 0
695, 2917020127, -0.7482451, -0.025170177, 0.6610517, -0.050114542, 0.8271146, 0.34111544, -0.74662113, 0
696, 2917036794, -0.7482552, -0.025570214, 0.6609584, -0.050984114, 0.9140607, 0.44602066, -0.51471615, 0
697, 2917053461, -0.74814093, -0.025900804, 0.6610184, -0.051711336, 1.1001441, 1.3991798, 1.2369747, 0
698, 2917070128, -0.7479828, -0.026388176, 0.6611189, -0.052462265, 0.65128726, 1.1114037, 0.2232809, 0
699, 2917086795, -0.7478588, -0.02704943, 0.6611697, -0.05324705, 0.6474294, 0.906965, -0.04291439, 0
700, 2917103462, -0.747569, -0.02782005, 0.66139895, -0.054067284, 1.2221874, 0.6054608, -0.79775333, 0
701, 2917120129, -0.7473182, -0.028588109, 0.6615877, -0.054818705, 1.4748583, 1.5467119, -0.13205338, 0
702, 2917136796, -0.74727434, -0.029465824, 0.6615549, -0.05534479, 0.32832533, 1.3677961, 0.3771963, 0
703, 2917153463, -0.7475716, -0.030538216, 0.66114163, -0.055685684, -0.98484725, -0.1273199, 1.2626429, 0
704, 2917170130, -0.74804664, -0.031710602, 0.6605341, -0.055863217, -0.7624242, -1.6121689, 1.0387459, 0
705, 2917186797, -0.74818134, -0.032788306, 0.66033375, -0.055804268, -0.07522105, -1.1840143, 0.32156944, 0
706, 2917203464, -0.7479116, -0.034017146, 0.6606243, -0.055241838, 1.0948275, 0.27717796, -2.610166, 0
707, 2917220131, -0.7474089, -0.035778493, 0.6611804, -0.054270536, 0.91202384, 0.014433405, -4.014893, 0
708, 2917236798, -0.74683523, -0.037970692, 0.66180384, -0.05306825, 0.53086686, -0.36400142, 0.80001926, 0
709, 2917253465, -0.74636865, -0.0400322, 0.66230774, -0.05181463, -1.09653, -1.6438215, 0.85160446, 0
710, 2917270132, -0.74615705, -0.041470543, 0.6625396, -0.050756782, -2.5071044, -1.3020374, -0.34125423, 0
711, 2917286799, -0.7460477, -0.042597182, 0.6626565, -0.04989806, -2.6325743, 0.2581017, -0.23349476, 0
712, 2917303466, -0.7457877, -0.043624364, 0.6629416, -0.04910381, -0.535909, -0.08545794, -0.6064329, 0
713, 2917320133, -0.7452976, -0.044346467, 0.66349196, -0.048460573, 1.0922021, -1.5951017, -1.3001642, 0
714, 2917336800, -0.74468285, -0.044924855, 0.66417843, -0.0479725, 0.046904195, -0.29899156, -0.65487385, 0
715, 2917353467, -0.7442213, -0.045957044, 0.664661, -0.04747182, -2.2931597, 1.4504682, 1.2705603, 0
716, 2917370134, -0.74386144, -0.04735978, 0.6649952, -0.04704933, -2.8955438, 1.2421582, 1.8881378, 0
717, 2917386801, -0.7437856, -0.048480295, 0.6650179, -0.046785414, -2.88742, -1.1196579, 3.1406212, 0
718, 2917403468, -0.7440183, -0.049207516, 0.66470087, -0.046832845, -2.325208, -1.4179001, 4.8222866, 0
719, 2917420135, -0.7444478, -0.049946934, 0.6641473, -0.04707712, -1.51972, -0.28203514, 1.0581732, 0
720, 2917436802, -0.7448603, -0.050845444, 0.66358656, -0.04749544, -1.1725845, -0.49048924, -1.6615753, 0
721, 2917453469, -0.7451478, -0.051624127, 0.66317135, -0.047942385, -0.29142603, -0.07388305, -1.8342962, 0
722, 2917470136, -0.7451185, -0.05233928, 0.66312826, -0.048219472, -0.33672762, 0.5584395, 1.1968479, 0
723, 2917486803, -0.74484915, -0.053307094, 0.66335315, -0.04822743, -0.87201476, 0.2696942, 0.6375828, 0
724, 2917503470, -0.74477553, -0.054631837, 0.66333914, -0.048072606, -2.3700242, -1.7254301, -0.76994133, 0
725, 2917520137, -0.7451138, -0.056091376, 0.66285586, -0.047818318, -1.8853197, -1.6915648, 0.42576885, 0
726, 2917536804, -0.7453663, -0.057655476, 0.6624692, -0.047376975, -0.92952156, -0.6536215, 2.7578697, 0
727, 2917553471, -0.7455864, -0.059126474, 0.66214514, -0.04662426, -1.3738197, -0.6052295, -0.65943813, 0
728, 2917570138, -0.7459272, -0.06045179, 0.6616953, -0.045854807, -0.45155787, -1.2754089, -0.24747849, 0
729, 2917586805, -0.74615365, -0.061721742, 0.661366, -0.045224458, 0.14354718, -0.89955366, -1.2705421, 0
730, 2917603472, -0.7462771, -0.062964395, 0.6611521, -0.044598073, -0.31309202, -1.0515051, -0.99370384, 0
731, 2917620139, -0.7463027, -0.06395072, 0.6610801, -0.043824613, -0.1403496, -0.73445374, 0.5572319, 0
732, 2917636806, -0.7462301, -0.0646015, 0.6611646, -0.04281956, -0.544432, -0.27428472, 0.82511044, 0
733, 2917653473, -0.74632275, -0.06511699, 0.6610857, -0.04162784, -0.7697333, -1.1226401, -0.40167236, 0
734, 2917670140, -0.74645954, -0.06557941, 0.66095823, -0.040457726, 0.43795532, -2.0239482, -0.0758028, 0
735, 2917686807, -0.7464619, -0.06566554, 0.6610174, -0.039288744, 0.74926597, -1.928637, -0.5376053, 0
736, 2917703474, -0.74643385, -0.06505835, 0.66117924, -0.038092375, -0.1246876, -1.1077367, 0.14408588, 0
737, 2917720141, -0.7463714, -0.06396343, 0.66141737, -0.03701952, 0.020403156, -0.63647395, 0.4331379, 0
738, 2917736808, -0.7462353, -0.062398806, 0.66176146, -0.036275744, -0.36906773, -0.9683514, -0.052684784, 0
739, 2917753475, -0.7463018, -0.060539022, 0.66189426, -0.035634458, -0.67959785, -1.3772781, 1.0950966, 0
740, 2917770142, -0.74638516, -0.058585994, 0.6620074, -0.03504561, -0.2192756, -1.3596683, 0.5997143, 0
741, 2917786809, -0.74639755, -0.05658079, 0.66220665, -0.03430286, -0.44770092, -1.4933907, -0.103159904, 0
742, 2917803476, -0.7463509, -0.05472359, 0.6624529, -0.033566833, -0.9270772, -1.7807028, -0.032546043, 0
743, 2917820143, -0.7464236, -0.052908972, 0.662549, -0.032957777, -0.878996, -1.0297883, 0.583169, 0
744, 2917836810, -0.7464015, -0.051021904, 0.6627503, -0.03238389, -1.0460161, -0.41894072, 0.7028208, 0
745, 2917853477, -0.7465051, -0.049161576, 0.6628037, -0.03177567, -1.0703013, -0.27704644, 0.12911129, 0
746, 2917870144, -0.746681, -0.047440067, 0.66276133, -0.031139001, -0.6179244, 0.28699833, 0.2695608, 0
747, 2917886811, -0.74687356, -0.045981996, 0.66266924, -0.030660808, -0.03708214, -0.03546927, -0.5251961, 0
748, 2917903478, -0.7470296, -0.044545963, 0.66259915, -0.030495897, -0.276937, -0.43341315, -0.74391556, 0
749, 2917920145, -0.7472332, -0.042900994, 0.66247463, -0.030574113, -0.5632379, 0.11232364, -1.0827818, 0
750, 2917936812, -0.74747527, -0.041307814, 0.66229147, -0.0308187, -0.8410902, 0.49222392, -0.78603554, 0
751, 2917953479, -0.74765277, -0.03982409, 0.6621688, -0.031097546, -0.2904877, 0.82959044, 1.744791, 0
752, 2917970146, -0.7476764, -0.038628325, 0.6622037, -0.031290516, 0.30090207, 1.1869566, -0.020485878, 0
753, 2917986813, -0.7477003, -0.037627995, 0.66222394, -0.031512678, 0.31744516, 0.33005756, -0.70492077, 0
754, 2918003480, -0.74770194, -0.036740534, 0.6622502, -0.03196451, 0.8737604, 0.2785843, -0.25744534, 0
755, 2918020147, -0.747628, -0.035861082, 0.6623556, -0.032502502, 0.2172832, 0.78598857, -0.010984421, 0
756, 2918036814, -0.7476097, -0.035173967, 0.66238636, -0.0330448, -0.0114157, 1.567869, 0.015289307, 0
757, 2918053481, -0.7475919, -0.034963004, 0.66239256, -0.03354305, 0.06656621, 1.1049721, 0.1583395, 0
758, 2918070148, -0.7475886, -0.03495796, 0.6623708, -0.03404972, 0.16527621, 0.23225734, 0.49616528, 0
759, 2918086815, -0.74765486, -0.035118863, 0.66226166, -0.03454767, 0.12506399, 0.4556467, -0.84765434, 0
760, 2918103482, -0.74779606, -0.035487577, 0.66205466, -0.035074174, -0.014241352, 0.83342016, 1.2929697, 0
761, 2918120149, -0.74785775, -0.036028035, 0.66192394, -0.035673782, 0.24654195, 1.6082628, 0.37536526, 0
762, 2918136816, -0.7478175, -0.036589973, 0.6619076, -0.036244705, 0.5427248, 1.338424, 0.16665554, 0
763, 2918153483, -0.7478323, -0.0369559, 0.6618352, -0.036882922, 0.49006736, 0.19272639, -0.682539, 0
764, 2918170150, -0.7479073, -0.037200987, 0.6616913, -0.037688956, 0.41211095, -0.14394905, 0.07601261, 0
765, 2918186817, -0.7479244, -0.037289113, 0.6616196, -0.03851156, 0.2408285, 0.21285976, 0.79646873, 0
766, 2918203484, -0.7479138, -0.037247047, 0.6615923, -0.039219454, 0.88042873, 0.82353145, 0.23085976, 0
767, 2918220151, -0.74786216, -0.037229806, 0.66160554, -0.039994046, 0.8323649, 0.82807696, -0.16007233, 0
768, 2918236818, -0.7479194, -0.037135273, 0.6615008, -0.040734097, -0.0012927989, 1.2422476, -0.550889, 0
769, 2918253485, -0.74806416, -0.03707563, 0.6612952, -0.041462913, 0.6114103, 0.6690333, -0.21783352, 0
770, 2918270152, -0.7481305, -0.036965072, 0.66117865, -0.04221952, 1.693384, 0.17071442, 0.34768105, 0
771, 2918286819, -0.7480828, -0.03674312, 0.6612036, -0.042858303, 1.7051498, 0.27747378, -0.6924372, 0
772, 2918303486, -0.7480269, -0.036514245, 0.6612384, -0.043490514, 1.5032645, 0.27120256, 0.034664154, 0
773, 2918320153, -0.7477635, -0.036456294, 0.661497, -0.04412946, 2.2706864, 1.2716588, -1.3626614, 0
774, 2918336820, -0.74753505, -0.03669744, 0.6617033, -0.044704348, 1.7539345, 1.6905959, -0.4659958, 0
775, 2918353487, -0.74736536, -0.0369611, 0.66184896, -0.045166627, 1.502016, 1.6365429, -0.13489914, 0
776, 2918370154, -0.74725044, -0.037345454, 0.661931, -0.045549646, 0.45529768, 1.1414949, 0.95317554, 0
777, 2918386821, -0.74712926, -0.037987433, 0.6619988, -0.04601811, 0.70756114, 0.8177999, 0.57955456, 0
778, 2918403488, -0.7469087, -0.038573086, 0.66218555, -0.04642062, 1.9585736, 0.53483254, 0.02977562, 0
779, 2918420155, -0.74665135, -0.038874045, 0.66242754, -0.046855167, 2.7021253, 0.6361763, -1.3942623, 0
780, 2918436822, -0.74631643, -0.039076827, 0.6627608, -0.04730849, 2.6861022, 1.8921809, -1.1019182, 0
781, 2918453489, -0.74603695, -0.039550334, 0.6630186, -0.047706872, 1.1611446, 1.6734794, -0.6330013, 0
782, 2918470156, -0.74577427, -0.040325493, 0.6632366, -0.04813367, 1.2377293, 0.64242214, 1.8497028, 0
783, 2918486823, -0.74581534, -0.04098448, 0.6631333, -0.048364207, 0.11407609, -0.022092132, 1.9635687, 0
784, 2918503490, -0.74607366, -0.041430905, 0.66280603, -0.04848522, 2.0353584, 0.20674898, -0.7337141, 0
785, 2918520157, -0.7460245, -0.04193896, 0.662822, -0.048586562, 3.8893168, 0.88710785, -3.6544595, 0
786, 2918536824, -0.7457862, -0.04261773, 0.66304076, -0.048670262, 3.4327736, 1.7914162, -2.992557, 0
787, 2918553491, -0.74540067, -0.043646425, 0.6634212, -0.048481703, 2.0942502, 2.405978, -1.386425, 0
788, 2918570158, -0.74513644, -0.044784836, 0.66367465, -0.04803273, 2.1521647, 0.9912197, 3.0016203, 0
789, 2918586825, -0.74519444, -0.045817703, 0.66357476, -0.047537506, 2.1098697, -0.30965048, 4.017828, 0
790, 2918603492, -0.7454811, -0.047022633, 0.6632083, -0.0469753, 0.9721383, -0.759171, 1.9620619, 0
791, 2918620159, -0.7456686, -0.048059277, 0.6629687, -0.046328858, 1.974496, -0.36139223, -4.2372975, 0
792, 2918636826, -0.7455445, -0.04863961, 0.6631327, -0.04536423, 1.0030646, 0.58065724, -2.8823924, 0
793, 2918653493, -0.74541813, -0.04941369, 0.663306, -0.04404901, -1.4667542, 0.9861084, -0.059277534, 0
794, 2918670160, -0.7455999, -0.050354272, 0.6631294, -0.042541057, -4.351811, -3.2772229, 2.9925518, 0
795, 2918686827, -0.7457711, -0.05071844, 0.6629864, -0.041318074, -3.9443343, -5.250964, 2.2881966, 0
796, 2918703494, -0.7458971, -0.050204933, 0.6629382, -0.04043357, -4.5397944, -6.356992, -0.70748043, 0
797, 2918720161, -0.746024, -0.048860304, 0.66292113, -0.04001786, -2.3627346, -4.2494597, -3.1837716, 0
798, 2918736828, -0.74574775, -0.047459736, 0.6633555, -0.039652437, -1.1402793, -0.5523815, -0.8563442, 0
799, 2918753495, -0.74522364, -0.04632166, 0.66407514, -0.03879586, -1.4574987, 0.68491143, -0.5578737, 0
800, 2918770162, -0.7447861, -0.04499661, 0.6647286, -0.037549615, -1.1118151, -0.5971495, 2.982355, 0
801, 2918786829, -0.7446153, -0.04341083, 0.6650917, -0.03635542, -1.1035792, -1.1060705, 1.9285345, 0
802, 2918803496, -0.744811, -0.04188305, 0.66500527, -0.035714164, -2.6741939, -2.646174, 2.0641499, 0
803, 2918820163, -0.7451983, -0.03994266, 0.6646855, -0.035808176, -0.9184626, -1.4653583, 1.7755136, 0
804, 2918836830, -0.7453375, -0.03770388, 0.66462296, -0.036492243, -2.0898068, 0.9479619, -0.72997475, 0
805, 2918853497, -0.7455056, -0.035821646, 0.66449064, -0.037357584, -3.080078, 2.4029162, -0.9622078, 0
806, 2918870164, -0.7455549, -0.034554392, 0.66445184, -0.038246393, -3.0715268, 1.5579637, 0.4201107, 0
807, 2918886831, -0.7456749, -0.033616267, 0.6643091, -0.039207727, -3.5623229, -0.8201913, 1.5364447, 0
808, 2918903498, -0.7459196, -0.03255228, 0.6640151, -0.04041305, -3.3289118, -2.298728, 1.9956656, 0
809, 2918920165, -0.7462719, -0.031455122, 0.6635795, -0.041905493, -3.7696443, -1.0987831, 1.0616999, 0
810, 2918936832, -0.7465635, -0.030620635, 0.66319364, -0.04341027, -2.7364068, 0.40230635, -0.012291908, 0
811, 2918953499, -0.7466503, -0.030511327, 0.6630233, -0.044582322, -2.126355, 0.6462772, -0.8840475, 0
812, 2918970166, -0.74671465, -0.03112334, 0.66286474, -0.045431286, -1.6242284, 0.17696549, -0.7212219, 0
813, 2918986833, -0.7467324, -0.032126464, 0.6627562, -0.04602167, -1.8902227, 0.17049234, -1.2649508, 0
814, 2919003500, -0.7467482, -0.0336785, 0.6626182, -0.04663855, -2.108667, 0.7280422, 0.6656027, 0
815, 2919020167, -0.7466376, -0.035512187, 0.6625977, -0.047334686, -1.3325776, 1.1264726, 0.40892887, 0
816, 2919036834, -0.7465413, -0.037180595, 0.66255784, -0.04812385, -1.3924084, 0.44071928, 0.29190445, 0
817, 2919053501, -0.7465969, -0.03870455, 0.6623431, -0.049006894, -0.7631331, 0.9507483, -0.61290264, 0
818, 2919070168, -0.7466389, -0.040205136, 0.66214246, -0.049862713, -0.45174202, 0.5544959, -0.44913483, 0
819, 2919086835, -0.74663854, -0.041748792, 0.6619711, -0.05086562, 0.798652, 0.34878784, 0.19040203, 0
820, 2919103502, -0.74650174, -0.043100707, 0.6619538, -0.051959813, 1.0154165, -0.029329956, 0.16622448, 0
821, 2919120169, -0.74647725, -0.04415875, 0.6618314, -0.052973583, 0.21256126, 0.3258372, -0.4925661, 0
822, 2919136836, -0.74648935, -0.045294054, 0.66167057, -0.05384387, -0.30039203, 0.37564248, 0.72112465, 0
823, 2919153503, -0.7464965, -0.04652608, 0.661521, -0.05452764, 0.7364104, 0.4325872, 1.084796, 0
824, 2919170170, -0.7462564, -0.04763419, 0.6616659, -0.05509758, 1.1056354, -0.4513705, -0.2699194, 0
825, 2919186837, -0.7460866, -0.048538424, 0.66175234, -0.05556725, 0.32954124, -0.07002113, -0.691761, 0
826, 2919203504, -0.7459983, -0.0495105, 0.6617612, -0.05578722, -0.21777582, 0.6128285, 0.62893677, 0
827, 2919220171, -0.7458765, -0.050604306, 0.6618157, -0.055789903, -7.326755E-4, -0.099894084, 0.57086277, 0
828, 2919236838, -0.74579936, -0.05161012, 0.66183954, -0.05561772, -0.2735745, -1.1646842, -0.5321684, 0
829, 2919253505, -0.7459034, -0.052488625, 0.6616795, -0.055303648, -0.31615415, -1.5705316, -0.074790955, 0
830, 2919270172, -0.74594915, -0.053310335, 0.66159725, -0.054883912, 0.052014593, -1.357136, 0.7282753, 0
831, 2919286839, -0.7459728, -0.05416055, 0.66155374, -0.05424905, 0.11523121, -1.0139421, 0.28160286, 0
832, 2919303506, -0.74604, -0.05520416, 0.66145295, -0.05349697, 0.1076709, -0.8463735, -0.072081566, 0
833, 2919320173, -0.74611425, -0.05614216, 0.6613575, -0.052658305, 0.24188885, -0.59337556, -0.4578333, 0
834, 2919336840, -0.7460537, -0.05674223, 0.6614449, -0.051766485, 0.48224485, -0.27957493, 0.062496185, 0
835, 2919353507, -0.74596506, -0.05715947, 0.66157854, -0.05087012, 0.17983405, 0.05810823, 0.24415588, 0
836, 2919370174, -0.7459872, -0.05716425, 0.66161394, -0.050074443, 0.39322278, -0.5560476, 0.9152241, 0
837, 2919386841, -0.7460298, -0.056858636, 0.6616464, -0.04935111, 0.5418008, -0.5929199, 0.15470028, 0
838, 2919403508, -0.7461624, -0.056494087, 0.6615771, -0.04869157, 0.6087863, -0.38721827, -0.35952473, 0
839, 2919420175, -0.7461812, -0.05594077, 0.6616539, -0.047994435, 1.1024624, -0.18398447, 0.49088, 0
840, 2919436842, -0.746067, -0.05517005, 0.66189855, -0.047283486, 1.4760786, -0.11346255, -0.8982792, 0
841, 2919453509, -0.74599993, -0.054511517, 0.66207796, -0.04659015, 0.73602366, -0.097647555, -0.2969036, 0
842, 2919470176, -0.7460246, -0.054017268, 0.662137, -0.04592608, 0.7547049, 0.021344481, -0.8089485, 0
843, 2919486843, -0.7460364, -0.053512275, 0.6622087, -0.04528664, 0.7599255, 0.3790853, -1.5943441, 0
844, 2919503510, -0.7461484, -0.053010926, 0.6621627, -0.044698134, -0.046217024, 0.6186451, -0.83981323, 0
845, 2919520177, -0.74640316, -0.052497312, 0.66195273, -0.044159457, -0.4113139, 0.7210575, 0.67793274, 0
846, 2919536844, -0.74654037, -0.051922433, 0.661872, -0.043727577, -0.03035619, 0.6591352, 2.0506725, 0
847, 2919553511, -0.74659085, -0.051280417, 0.66188425, -0.043437287, 0.40920484, 0.10889529, 0.17150784, 0
848, 2919570178, -0.74650896, -0.050438106, 0.6620393, -0.04346913, 0.70059556, -0.5997792, 0.3135662, 0
849, 2919586845, -0.7463048, -0.049408965, 0.66232437, -0.043812796, 0.8134866, 0.10355903, 0.55183697, 0
850, 2919603512, -0.7461264, -0.048315786, 0.66257405, -0.044292122, -7.1837066E-4, 0.43851554, -0.32938957, 0
851, 2919620179, -0.74601835, -0.047399804, 0.6627304, -0.044758588, -0.5292188, 1.0769804, 0.55171394, 0
852, 2919636846, -0.746027, -0.04662119, 0.66276217, -0.04496099, -0.7181878, 0.1286981, -0.49990082, 0
853, 2919653513, -0.7462528, -0.04598351, 0.6625589, -0.044867933, -0.42314938, -1.2311518, 0.07111931, 0
854, 2919670180, -0.74649554, -0.045818515, 0.66231173, -0.044646904, 0.3396114, -0.80132085, 0.39816093, 0
855, 2919686847, -0.74660987, -0.046005763, 0.66218495, -0.044419527, 0.7203197, 0.20617963, -0.80486965, 0
856, 2919703514, -0.7466878, -0.04625061, 0.6620931, -0.044222742, 0.9679796, 1.1666592, -0.5064602, 0
857, 2919720181, -0.74665374, -0.0465163, 0.662123, -0.044076234, 0.3072238, 0.82602906, -0.26769543, 0
858, 2919736848, -0.74674785, -0.046726063, 0.6620079, -0.0439879, -0.31925428, 0.80405086, 0.7051401, 0
859, 2919753515, -0.74684304, -0.04706727, 0.6618778, -0.043964684, -0.12501527, 0.31597131, 0.27309513, 0
860, 2919770182, -0.7469746, -0.04747075, 0.6616929, -0.04408002, -0.19836506, 0.002151759, 0.3229046, 0
861, 2919786849, -0.74714583, -0.047532015, 0.6614901, -0.044155747, 0.93674815, 0.3312671, -0.09553337, 0
862, 2919803516, -0.7472346, -0.04737878, 0.6613965, -0.044219717, 1.872081, 1.2278559, -0.03629875, 0
863, 2919820183, -0.7470927, -0.047495775, 0.6615393, -0.044353172, 2.8145096, 2.000592, -0.71999836, 0
864, 2919836850, -0.7468081, -0.047609612, 0.66184044, -0.044533163, 2.2660923, 0.7954323, -1.286418, 0
865, 2919853517, -0.74661523, -0.0475896, 0.6620442, -0.044757843, 1.5053713, -0.39368573, -0.022504807, 0
866, 2919870184, -0.7465119, -0.04756789, 0.66215754, -0.044830322, 0.25624552, -0.5625202, 1.3727169, 0
867, 2919886851, -0.74666107, -0.047590427, 0.6620075, -0.044537216, -0.20127833, -0.5420501, 1.6681385, 0
868, 2919903518, -0.74694854, -0.0478635, 0.6616937, -0.04408449, 0.7424989, -0.80563736, -0.8248434, 0
869, 2919920185, -0.747006, -0.04809691, 0.6616453, -0.04358171, 2.7067516, -0.14149158, -0.54363155, 0
870, 2919936852, -0.7467493, -0.04796727, 0.66198003, -0.04303433, 4.308548, 1.3196013, -1.357008, 0
871, 2919953519, -0.74626213, -0.047742747, 0.6625813, -0.04247792, 3.0385067, 2.0630307, -1.7655802, 0
872, 2919970186, -0.7458949, -0.04750728, 0.6630601, -0.041714653, 1.6765425, 1.6604469, -0.96466064, 0
873, 2919986853, -0.7457955, -0.047240898, 0.6632525, -0.040726215, 1.1602548, -0.7126644, 0.8486204, 0
874, 2920003520, -0.74590015, -0.046668418, 0.66323185, -0.039795324, 2.0784094, -1.372828, 0.9104519, 0
875, 2920020187, -0.74597955, -0.045559995, 0.66326666, -0.039003804, 2.1616902, -1.3515505, -0.5222616, 0
876, 2920036854, -0.74602354, -0.044249043, 0.6633368, -0.038477123, 3.7792733, 0.5370521, 0.6101761, 0
877, 2920053521, -0.74596673, -0.042969674, 0.66350687, -0.03809221, 3.324559, 0.7398697, -0.3392973, 0
878, 2920070188, -0.7459289, -0.041612543, 0.6636628, -0.037621915, 2.7796383, 1.1809807, -0.5654192, 0
879, 2920086855, -0.7458762, -0.0401951, 0.6638466, -0.036956504, 2.8479986, 1.2633421, 0.29384708, 0
880, 2920103522, -0.7458199, -0.038739793, 0.66403633, -0.03623016, 1.5653042, -0.60092854, -1.186594, 0
881, 2920120189, -0.7459495, -0.03728453, 0.6640056, -0.035648495, -0.19517286, -1.6425474, 0.47367764, 0
882, 2920136856, -0.7463341, -0.035840422, 0.6636808, -0.035126075, -1.6084913, -0.4059715, 2.0535583, 0
883, 2920153523, -0.74669564, -0.034757495, 0.6633727, -0.03434153, -5.308739, -1.8473758, -2.5427976, 0
884, 2920170190, -0.7467996, -0.034252584, 0.6633372, -0.033257037, -4.3134756, -2.317441, -0.027770996, 0
885, 2920186857, -0.74676645, -0.033997692, 0.6634501, -0.03198822, -4.679862, -4.3567996, -2.4052043, 0
886, 2920203524, -0.7467297, -0.03391061, 0.6635503, -0.030835867, -4.3594317, -3.1679251, 0.14969158, 0
887, 2920220191, -0.74641335, -0.0342841, 0.6639416, -0.029633105, -2.9620938, -0.90113056, 0.09384251, 0
888, 2920236858, -0.7462408, -0.03503789, 0.6641547, -0.028294265, -2.3856473, -0.5059921, 2.0162277, 0
889, 2920253525, -0.74611384, -0.035836793, 0.6643226, -0.026652396, -0.90987164, -0.34091336, 2.5206184, 0
890, 2920270192, -0.74601436, -0.036361784, 0.6644767, -0.02482377, -1.2563825, -0.35185778, 1.4397316, 0
891, 2920286859, -0.7461894, -0.03692404, 0.6643076, -0.023205325, -0.67035335, -0.38189557, -0.0076971054, 0
892, 2920303526, -0.74613196, -0.03748499, 0.6643772, -0.022135124, 0.41213062, 0.6432702, -0.66338253, 0
893, 2920320193, -0.74599105, -0.037512124, 0.6645517, -0.021596417, -0.689765, 0.003702157, 0.3122797, 0
894, 2920336860, -0.74597263, -0.036670044, 0.6646193, -0.021597385, -0.8903878, 0.23112434, 1.8222828, 0
895, 2920353527, -0.7460289, -0.035585165, 0.6646007, -0.022039011, -2.518818, 0.8724228, 1.5521364, 0
896, 2920370194, -0.74641067, -0.03465811, 0.6641955, -0.022790715, -2.41717, -0.40194637, 0.22232819, 0
897, 2920386861, -0.7467352, -0.033364207, 0.66386044, -0.023828402, -0.85701793, -1.1814942, 1.0152874, 0
898, 2920403528, -0.7467608, -0.031630315, 0.6638786, -0.024864092, -0.5328612, -0.15250848, -0.0012760162, 0
899, 2920420195, -0.7468554, -0.02990044, 0.66381645, -0.0258061, -1.457114, 0.25394168, -1.158843, 0
900, 2920436862, -0.74698055, -0.02863431, 0.6637026, -0.026535884, -1.593231, 0.116674095, -1.0908613, 0
901, 2920453529, -0.7469601, -0.027973503, 0.6637315, -0.02708523, -1.0233339, -0.41753694, 1.8152924, 0
902, 2920470196, -0.7468879, -0.027732588, 0.6638127, -0.02733536, -1.8709773, -0.6378237, 0.032684326, 0
903, 2920486863, -0.74688166, -0.02807223, 0.66379684, -0.027538627, -2.8003135, 0.114649184, 0.04589367, 0
904, 2920503530, -0.7470161, -0.029129222, 0.66358995, -0.027784482, -2.7706497, 0.54788613, -1.6967278, 0
905, 2920520197, -0.7471786, -0.030718468, 0.66332793, -0.027957395, -2.7115257, 0.4442208, -0.22684002, 0
906, 2920536864, -0.74730796, -0.032499902, 0.6630944, -0.028023407, -0.97293, 1.0005742, 0.7716665, 0
907, 2920553531, -0.7473115, -0.034296773, 0.6630047, -0.027913883, -1.4229406, 0.65904003, 0.12930584, 0
908, 2920570198, -0.74730533, -0.03647355, 0.6628998, -0.027809605, -0.4949055, 0.64650923, -0.03434086, 0
909, 2920586865, -0.7471831, -0.038995177, 0.6628937, -0.02781947, -0.60528696, 0.098980926, 0.30548477, 0
910, 2920603532, -0.74714524, -0.041253075, 0.66280204, -0.027763441, -0.50641733, -0.53800195, 0.7011709, 0
911, 2920620199, -0.7471802, -0.042715274, 0.66267323, -0.027685046, 1.0420482, -1.5320476, 0.3454113, 0
912, 2920636866, -0.74719685, -0.043241985, 0.66261935, -0.027706087, 0.9737065, -1.7096826, -0.37682247, 0
913, 2920653533, -0.7471453, -0.0433162, 0.6626727, -0.027704984, 0.8001437, -0.3849895, 0.23360252, 0
914, 2920670200, -0.7470098, -0.04321222, 0.66283864, -0.027553156, 1.2031144, -0.833396, -0.09031391, 0
915, 2920686867, -0.74695385, -0.04259383, 0.6629567, -0.027190313, 1.0222602, -2.1738963, 0.0647974, 0
916, 2920703534, -0.74699295, -0.041458346, 0.66300577, -0.026668653, 0.8109515, -1.3560708, 0.13649368, 0
917, 2920720201, -0.7470381, -0.040377803, 0.6630516, -0.02591215, 0.17866017, -0.74791324, 0.4765768, 0
918, 2920736868, -0.74703956, -0.039633706, 0.6631319, -0.024943009, 0.35582727, -1.2553467, 0.31213665, 0
919, 2920753535, -0.74711025, -0.038698584, 0.6631502, -0.023782596, -0.4967179, -2.0082502, -0.22311401, 0
920, 2920770202, -0.7473013, -0.037426032, 0.6630523, -0.022510007, -0.09918924, -1.1519175, 0.23711205, 0
921, 2920786869, -0.7474923, -0.0365239, 0.66292715, -0.021307155, -0.7912734, -0.06355468, -0.4537096, 0
922, 2920803536, -0.7476969, -0.03596157, 0.66276395, -0.0201336, -0.049198776, -0.3120244, 0.5142555, 0
923, 2920820203, -0.7478774, -0.035221994, 0.66263306, -0.019003123, 0.35901278, -0.587046, 0.3899889, 0
924, 2920836870, -0.74794483, -0.03430456, 0.66263324, -0.018002495, 0.73730487, 0.44384944, -0.16040897, 0
925, 2920853537, -0.74801654, -0.033315293, 0.66262954, -0.016994014, 0.01616267, 0.52047646, -1.3163815, 0
926, 2920870204, -0.74799436, -0.03240885, 0.662719, -0.016212061, 1.3190228, 0.32038805, 0.72225285, 0
927, 2920886871, -0.74777794, -0.031345233, 0.66302925, -0.015590981, 0.8906491, 0.083656095, -1.081171, 0
928, 2920903538, -0.7476879, -0.030093543, 0.6632014, -0.015034914, 0.23403639, 0.2689064, 0.32630253, 0
929, 2920920205, -0.7477014, -0.028969899, 0.66324586, -0.014602244, 0.10453656, 0.65787375, 0.6376991, 0
930, 2920936872, -0.7477207, -0.027933598, 0.66327447, -0.014327839, -0.18078533, 0.5607106, -0.22462082, 0
931, 2920953539, -0.74784285, -0.02679906, 0.66318524, -0.014249086, 0.37081704, 0.3591056, -0.62581635, 0
932, 2920970206, -0.7478483, -0.025512367, 0.6632272, -0.014380217, -0.080297925, 0.689821, 0.29785728, 0
933, 2920986873, -0.7477819, -0.02428437, 0.6633421, -0.014661059, -0.12005015, 1.1618164, 0.10724354, 0
934, 2921003540, -0.747693, -0.02329339, 0.6634673, -0.015126795, -0.023614591, 0.16305594, -1.3386316, 0
935, 2921020207, -0.74772, -0.022385329, 0.66345286, -0.015787333, -0.3096495, -0.6638204, 0.4653206, 0
936, 2921036874, -0.7477179, -0.02156546, 0.6634676, -0.016396642, -0.6390642, 0.3769006, 1.2424479, 0
937, 2921053541, -0.74779516, -0.021130003, 0.66338307, -0.016852379, -1.0731134, 0.718664, 0.109983444, 0
938, 2921070208, -0.747915, -0.02091349, 0.66324556, -0.017210945, -0.9587056, -0.0029199733, 0.63566685, 0
939, 2921086875, -0.74816006, -0.020931765, 0.66296154, -0.017478406, -1.3378855, -0.30641884, -0.085749626, 0
940, 2921103542, -0.74835134, -0.021347925, 0.6627283, -0.017633006, -0.15975946, -0.25828072, 0.7142992, 0
941, 2921120209, -0.7484427, -0.021858, 0.66260904, -0.017612532, -0.0020639186, -0.30719614, 0.13951778, 0
942, 2921136876, -0.7485665, -0.022224016, 0.6624632, -0.017373681, -0.07610303, -0.0555832, -0.16972923, 0
943, 2921153543, -0.7486221, -0.022683866, 0.6623926, -0.01707457, 0.14033484, 0.185654, 0.5174904, 0
944, 2921170210, -0.7486994, -0.023353122, 0.6622915, -0.016698465, 0.0071130963, 0.09998554, -0.52768135, 0
945, 2921186877, -0.7487, -0.023969471, 0.6622816, -0.01618144, 0.31931016, -0.6050454, -0.621727, 0
946, 2921203544, -0.74883306, -0.02416014, 0.66213745, -0.015633374, 0.0053236317, -0.96857285, 0.059490204, 0
947, 2921220211, -0.74896127, -0.024081983, 0.66200763, -0.015103564, 0.1236581, 0.1839619, 0.8935747, 0
948, 2921236878, -0.74908715, -0.024122514, 0.66187173, -0.014744341, -0.24566801, 0.6654085, -0.36078548, 0
949, 2921253545, -0.7491082, -0.02389723, 0.66186136, -0.01450716, 1.0446022, -0.30593884, 0.6111326, 0
950, 2921270212, -0.7490312, -0.023081243, 0.6619798, -0.014402941, 0.7547653, -0.28426763, -1.3540678, 0
951, 2921286879, -0.74900275, -0.021850012, 0.6620557, -0.0143122375, -0.036864437, -0.6462737, 0.02327156, 0
952, 2921303546, -0.7488862, -0.020681888, 0.6622219, -0.014452308, 0.46649882, 0.40337762, 1.3441772, 0
953, 2921320213, -0.7487793, -0.019595258, 0.66237026, -0.014711738, -0.3850024, -0.113199644, -1.1877012, 0
954, 2921336880, -0.7487828, -0.017962866, 0.6624038, -0.015096307, -0.11316953, -0.66555387, 0.5913458, 0
955, 2921353547, -0.74874765, -0.016144857, 0.66247857, -0.015606284, -0.14190525, 0.6145054, 0.23541927, 0
956, 2921370214, -0.74871635, -0.014806688, 0.6625345, -0.016059086, -0.70999366, 0.75776756, -0.83219814, 0
957, 2921386881, -0.7486248, -0.013941653, 0.6626464, -0.016479433, 0.51945037, 0.35594198, -0.049717903, 0
958, 2921403548, -0.7485041, -0.012945019, 0.66279197, -0.016910166, -0.06484692, -0.6751277, 0.2107954, 0
959, 2921420215, -0.7485023, -0.011790857, 0.6628019, -0.017434418, 0.44611487, 1.1249263, 0.7514162, 0
960, 2921436882, -0.7484485, -0.011044197, 0.6628592, -0.018056214, 0.024346372, 1.6624177, -0.19450569, 0
961, 2921453549, -0.74840736, -0.010546267, 0.66289276, -0.018804207, 0.52921253, 0.7553812, 0.26440716, 0
962, 2921470216, -0.74837965, -0.010014832, 0.6629077, -0.019652262, 0.6523552, 0.72432554, -0.10173607, 0
963, 2921486883, -0.7483724, -0.009243712, 0.66289926, -0.020565525, 0.8327552, 1.1307288, 0.9433527, 0
964, 2921503550, -0.74831575, -0.008550331, 0.66293687, -0.021685973, 1.0952314, 2.0782785, -0.40557957, 0
965, 2921520217, -0.74824506, -0.008177362, 0.66297454, -0.023073792, 1.2559403, 1.9566431, -1.5288792, 0
966, 2921536884, -0.7480366, -0.007815652, 0.66315895, -0.024604619, 1.9988732, 1.7659224, 0.19230747, 0
967, 2921553551, -0.7477675, -0.0073309615, 0.6634062, -0.026216984, 1.1465919, 2.098239, -0.12609291, 0
968, 2921570218, -0.7476188, -0.007119745, 0.6635107, -0.027820557, -0.27907336, 1.6608913, -0.80935955, 0
969, 2921586885, -0.74762577, -0.0071735233, 0.66342235, -0.02966696, 0.53950197, 1.7672211, 1.781518, 0
970, 2921603552, -0.74736303, -0.0069989637, 0.6636274, -0.031675026, 2.2798548, 2.4735122, 0.1426773, 0
971, 2921620219, -0.7470116, -0.0063432977, 0.6639161, -0.033969685, 2.813395, 2.5566394, -0.6715498, 0
972, 2921636886, -0.746639, -0.0058665574, 0.6642101, -0.03641115, 2.0320888, 3.2999923, -2.9856095, 0
973, 2921653553, -0.74655217, -0.006010838, 0.66416776, -0.0388577, 0.84116954, 0.9964726, -2.15624, 0
974, 2921670220, -0.74682707, -0.006508246, 0.66371423, -0.0411772, 1.9060729, 0.4776593, 1.2047472, 0
975, 2921686887, -0.7471109, -0.006997213, 0.6632657, -0.04312773, 0.76094985, 1.1476978, 1.3311863, 0
976, 2921703554, -0.7475311, -0.00744386, 0.66268474, -0.044673264, 2.2386339, 2.1765199, 3.0549698, 0
977, 2921720221, -0.74740875, -0.008281298, 0.66271627, -0.046083957, 4.348347, 1.8125107, -1.2674351, 0
978, 2921736888, -0.7470459, -0.009441949, 0.6630135, -0.047450036, 4.174846, 1.7602504, -2.2169156, 0
979, 2921753555, -0.74666965, -0.010676831, 0.663344, -0.0484792, 4.422994, 2.841579, -0.6218128, 0
980, 2921770222, -0.7462771, -0.012419894, 0.66371673, -0.04900396, 2.0921295, 1.8991855, 0.9413328, 0
981, 2921786889, -0.74629784, -0.014518857, 0.6636441, -0.049097136, 0.43661708, 0.32950985, 2.3548222, 0
982, 2921803556, -0.74661803, -0.016221143, 0.6632545, -0.048959345, -0.57096297, -1.9417994, 0.379241, 0
983, 2921820223, -0.746892, -0.017660283, 0.6629179, -0.048839822, -2.1793926, -3.2341497, -3.0058255, 0
984, 2921836890, -0.7467241, -0.019151852, 0.6630904, -0.04850103, -1.0206996, -0.61054176, -3.15247, 0
985, 2921853557, -0.74635386, -0.020937301, 0.6635192, -0.047590926, -3.3274076, -1.7137364, -3.6955242, 0
986, 2921870224, -0.74593955, -0.02295284, 0.66399264, -0.046541497, -2.6137927, -1.8733088, 0.6955681, 0
987, 2921886891, -0.7454159, -0.024596974, 0.66460615, -0.045318663, -2.9628606, -2.9124591, 2.6258745, 0
988, 2921903558, -0.74503595, -0.025951646, 0.6650524, -0.044251665, -2.7424169, -2.5277557, 2.0321226, 0
989, 2921920225, -0.7447066, -0.02709023, 0.66544515, -0.043198273, -2.2473896, -0.7384746, 0.67884827, 0
990, 2921936892, -0.74421746, -0.027975611, 0.6660264, -0.04209152, -0.43103087, 0.3241624, -1.1248369, 0
991, 2921953559, -0.74345106, -0.028779984, 0.6669256, -0.04083219, 0.63257205, 0.85546756, -0.63062763, 0
992, 2921970226, -0.7427897, -0.029753543, 0.667699, -0.039513633, -1.0170362, 0.9099198, 1.694953, 0
993, 2921986893, -0.74251825, -0.030667149, 0.66802865, -0.038326576, -2.9400942, -0.6180662, 5.081457, 0
994, 2922003560, -0.7428239, -0.031305134, 0.6677021, -0.037571535, -3.5930934, -2.281493, 2.9569416, 0
995, 2922020227, -0.74354494, -0.031732716, 0.66688263, -0.037503794, -3.3914268, -3.0382316, 1.823472, 0
996, 2922036894, -0.7440221, -0.031865872, 0.66632795, -0.037785754, -1.3658694, -0.3157414, -0.6707125, 0
997, 2922053561, -0.7442951, -0.031768158, 0.6660182, -0.037956685, -2.8819587, -0.21161643, -2.8446007, 0
998, 2922070228, -0.744658, -0.031888485, 0.6656047, -0.03798902, -2.8368282, -0.0045123915, -0.9826803, 0
999, 2922086895, -0.744711, -0.032284714, 0.6655327, -0.03787455, -2.3427851, -0.5190084, 1.7695913, 0
1000, 2922103562, -0.7449708, -0.03261041, 0.66523904, -0.037646905, -3.5510907, -1.8936391, 0.4281683, 0
1001, 2922120229, -0.7453092, -0.03302107, 0.6648437, -0.037575826, -3.3603752, -0.9082674, 0.5097828, 0
1002, 2922136896, -0.74556005, -0.03363367, 0.6645398, -0.037430435, -3.103888, -0.5505101, -1.2741661, 0
1003, 2922153563, -0.7456886, -0.034297667, 0.66436464, -0.037371933, -2.3714552, -1.0282133, 0.722785, 0
1004, 2922170230, -0.7456855, -0.034949772, 0.66433436, -0.037372902, -1.8139082, 0.5179267, 1.447772, 0
1005, 2922186897, -0.7456283, -0.035631627, 0.66435915, -0.03742723, -2.8400025, -0.40681592, -0.11985397, 0
1006, 2922203564, -0.7455707, -0.03652671, 0.664362, -0.03765832, -1.8207064, -0.4076368, 0.741292, 0
1007, 2922220231, -0.7454602, -0.037503414, 0.6644166, -0.03792526, -1.5148251, -0.76281065, -0.54771805, 0
1008, 2922236898, -0.7454814, -0.038417235, 0.6643334, -0.03805016, -1.4612119, -0.46982, 0.35837936, 0
1009, 2922253565, -0.7455291, -0.03951049, 0.6642188, -0.0379968, -1.00995, 0.027926939, 0.61842155, 0
1010, 2922270232, -0.74567646, -0.04075844, 0.6639866, -0.03784278, -1.1588222, -0.55733085, -0.028139114, 0
1011, 2922286899, -0.74587435, -0.04201729, 0.66369975, -0.037601054, -0.019965965, -0.57753533, 0.0088739395, 0
1012, 2922303566, -0.74591756, -0.043215916, 0.66359335, -0.037262425, 0.038585935, -0.276065, -0.29477406, 0
1013, 2922320233, -0.7459985, -0.04432722, 0.66346, -0.03670588, -0.05162121, 0.31935832, 0.39820004, 0
1014, 2922336900, -0.7460127, -0.045447744, 0.6634077, -0.035985067, 0.40651956, -0.17043701, 0.0019292831, 0
1015, 2922353567, -0.7459116, -0.04669831, 0.66347593, -0.035212055, 0.6499256, -0.994706, 0.10786629, 0
1016, 2922370234, -0.7458625, -0.047799163, 0.6635003, -0.034304544, -0.10131887, -1.2021298, -1.0114899, 0
1017, 2922386901, -0.7459674, -0.048574187, 0.6633799, -0.0332482, -0.46270624, -0.8219293, 0.1369133, 0
1018, 2922403568, -0.7460435, -0.04927638, 0.6632963, -0.032159105, -0.37401843, -0.25235993, -0.16579914, 0
1019, 2922420235, -0.7461783, -0.049932055, 0.6631465, -0.0310895, -0.41726425, -0.6370827, -0.1986866, 0
1020, 2922436902, -0.74629545, -0.0503152, 0.66302925, -0.030141503, 0.70875645, -0.54637676, 0.16735935, 0
1021, 2922453569, -0.746306, -0.05025982, 0.66306114, -0.029263958, 0.44542736, -0.550869, -0.38385677, 0
1022, 2922470236, -0.7463026, -0.049725942, 0.6631385, -0.028500006, 0.3580512, -0.8693828, -0.07739353, 0
1023, 2922486903, -0.7464094, -0.04883971, 0.66310817, -0.02793257, -0.21733193, -0.58028364, 1.3609619, 0
1024, 2922503570, -0.7464604, -0.04783102, 0.6631447, -0.027447656, -0.1966257, 0.42907694, 0.49585724, 0
1025, 2922520237, -0.746634, -0.0466329, 0.6630547, -0.026952952, -0.086314894, -0.71586215, 0.19149017, 0
1026, 2922536904, -0.7469798, -0.045307472, 0.66276747, -0.026699051, -0.6613721, -0.93044883, -0.2592125, 0
1027, 2922553571, -0.7472543, -0.043994866, 0.6625554, -0.026471063, 0.016501067, 0.18637449, 0.46604824, 0
1028, 2922570238, -0.7474445, -0.042899802, 0.66242343, -0.026203841, 0.49298555, 0.27950564, -1.0764093, 0
1029, 2922586905, -0.7476154, -0.042118087, 0.66229457, -0.025851116, 0.55903095, 0.120855354, 0.6845007, 0
1030, 2922603572, -0.7476386, -0.041471668, 0.6623217, -0.02552776, 1.1758087, 0.6314059, 0.31460285, 0
1031, 2922620239, -0.7476003, -0.04111608, 0.6624001, -0.025189847, 0.42408457, 1.1906474, -1.2059679, 0
1032, 2922636906, -0.7476173, -0.041061513, 0.6623966, -0.024862155, 0.64760643, 0.5257085, -0.16289234, 0
1033, 2922653573, -0.74765253, -0.041055262, 0.6623662, -0.024622202, 0.6111528, 0.23973966, 0.51084423, 0
1034, 2922670240, -0.7476773, -0.041021116, 0.6623504, -0.024344608, 0.5998717, 1.0591391, -0.05555153, 0
1035, 2922686907, -0.74771076, -0.041047513, 0.66232497, -0.02396451, 0.46197447, 0.9220185, 0.6687012, 0
1036, 2922703574, -0.7477393, -0.04105878, 0.66230154, -0.023705468, 1.0399244, 0.11121938, -1.0722113, 0
1037, 2922720241, -0.7477865, -0.041112073, 0.66224396, -0.0237291, 0.44420204, -0.13366756, 0.05358219, 0
1038, 2922736908, -0.7477897, -0.04087045, 0.66224796, -0.023937225, 1.5016048, 0.5857187, 0.43298244, 0
1039, 2922753575, -0.7476686, -0.040183738, 0.6624167, -0.024207562, 0.84976184, 0.57391423, 0.044772148, 0
1040, 2922770242, -0.74759036, -0.039279327, 0.66254646, -0.024557158, 0.74450827, 0.7500339, 0.2512951, 0
1041, 2922786909, -0.74742115, -0.038304366, 0.6627802, -0.024934813, 0.57039833, 0.5977562, 0.65961933, 0
1042, 2922803576, -0.74726236, -0.03730119, 0.6630008, -0.02534926, 0.60037816, 0.49908397, -0.5704689, 0
1043, 2922820243, -0.7472407, -0.03614574, 0.6630707, -0.025831416, 0.2994648, -0.04188795, -0.6741657, 0
1044, 2922836910, -0.7471264, -0.034732863, 0.6632509, -0.026447311, 0.7000788, 0.06615123, 1.1188726, 0
1045, 2922853577, -0.74710315, -0.033456482, 0.6633115, -0.027214006, 0.14799196, 0.6897845, -1.0842505, 0
1046, 2922870244, -0.74694, -0.03243565, 0.6635124, -0.028014973, 0.49258143, -0.2836109, -0.2332058, 0
1047, 2922886911, -0.7468221, -0.03151246, 0.6636534, -0.028859615, 0.78738606, 0.5281472, -0.8881588, 0
1048, 2922903578, -0.7468247, -0.0308756, 0.6636501, -0.02954851, -0.5192747, 0.67006445, -0.61201, 0
1049, 2922920245, -0.7468726, -0.030734792, 0.6635794, -0.03007117, 0.32162577, 1.8794627, 2.1829033, 0
1050, 2922936912, -0.7467036, -0.030961037, 0.66374266, -0.030428723, 0.6547678, 1.3284014, -1.192688, 0
1051, 2922953579, -0.74659646, -0.031169437, 0.6638403, -0.030712873, 0.5664744, 0.20827149, 0.028484344, 0
1052, 2922970246, -0.7465134, -0.031470202, 0.6639016, -0.03109762, 0.61436784, 0.9278945, 0.2606516, 0
1053, 2922986913, -0.74642897, -0.03190536, 0.6639498, -0.03164892, -0.34324437, 0.62872833, 0.2976265, 0
1054, 2923003580, -0.7464481, -0.032292657, 0.66387975, -0.032264665, 0.11623836, 0.27857178, -0.2095604, 0
1055, 2923020247, -0.74653184, -0.032568224, 0.6637365, -0.032991633, 0.49747145, 0.36856103, 0.16027546, 0
1056, 2923036914, -0.74663424, -0.03277058, 0.6635761, -0.03369534, 0.68414104, 1.0743322, -0.17354298, 0
1057, 2923053581, -0.74657965, -0.032978073, 0.66359323, -0.03435543, 1.399018, 0.3818449, -0.96340275, 0
1058, 2923070248, -0.7465774, -0.033160612, 0.663554, -0.034980774, 1.2700833, -0.245936, -0.04360485, 0
1059, 2923086915, -0.746636, -0.033186816, 0.66345894, -0.03550698, 1.2689774, 0.21334155, 0.34545612, 0
1060, 2923103582, -0.74669164, -0.03305216, 0.66338265, -0.0358845, 0.38743377, 0.50838536, 0.8977146, 0
1061, 2923120249, -0.74692684, -0.03296282, 0.66310406, -0.036222026, 1.4330792, 0.49956733, -0.1559639, 0
1062, 2923136916, -0.7470075, -0.03254278, 0.66300946, -0.03666477, 2.9724765, -0.018310573, 0.67306805, 0
1063, 2923153583, -0.74693346, -0.031566933, 0.6631148, -0.03711869, 4.1969876, 1.5740852, -1.1577826, 0
1064, 2923170250, -0.7467945, -0.030515239, 0.663305, -0.037397593, 3.5829916, 1.0963883, -3.1210089, 0
1065, 2923186917, -0.74674296, -0.0292857, 0.66340196, -0.037686944, 3.880631, 0.48327184, 0.55999565, 0
1066, 2923203584, -0.7464373, -0.028080218, 0.6637796, -0.038008124, 3.1035223, 1.8022234, -0.16483402, 0
1067, 2923220251, -0.7462827, -0.026819833, 0.6639934, -0.038219005, 1.3851433, 0.4007366, 2.5193615, 0
1068, 2923236918, -0.74659884, -0.025490254, 0.6636725, -0.038526863, 0.9875524, 0.37875876, 1.3909588, 0
1069, 2923253585, -0.7471034, -0.024490751, 0.6631138, -0.039014578, 0.6379261, -0.22645405, 3.2437296, 0
1070, 2923270252, -0.74739206, -0.02376236, 0.6627805, -0.03959334, 2.893655, 0.5850656, -2.3281317, 0
1071, 2923286919, -0.74753606, -0.02331049, 0.66261333, -0.039937347, 1.7707298, 0.76990217, -2.0147543, 0
1072, 2923303586, -0.74750954, -0.023576215, 0.6626372, -0.039884448, 1.0058465, 2.0432625, -3.79675, 0
1073, 2923320253, -0.74722224, -0.024541572, 0.6629546, -0.039406285, -0.63706917, 1.5399373, -0.7959509, 0
1074, 2923336920, -0.7471988, -0.025983013, 0.66296, -0.038831487, -3.583458, -0.16092463, -0.6994095, 0
1075, 2923353587, -0.74718475, -0.02759593, 0.6629351, -0.038412243, -5.1082377, -1.3798606, 0.85903835, 0
1076, 2923370254, -0.746976, -0.028891489, 0.6631365, -0.038043037, -5.3698425, -1.488774, 0.14155483, 0
1077, 2923386921, -0.7466069, -0.030326642, 0.6635059, -0.037727103, -4.9171743, -0.59649855, -2.5300727, 0
1078, 2923403588, -0.74590695, -0.032040402, 0.6642241, -0.037519306, -2.9161649, -0.44568908, -1.3627443, 0
1079, 2923420255, -0.74480975, -0.033778295, 0.66535926, -0.03767799, -0.19322203, -0.4268773, 0.23945618, 0
1080, 2923436922, -0.7438694, -0.035016708, 0.66632235, -0.038102925, -1.2806381, -0.30287537, 1.0475807, 0
1081, 2923453589, -0.74338263, -0.035688125, 0.6668019, -0.038586706, -1.6949825, 0.76869816, 3.6803465, 0
1082, 2923470256, -0.7432212, -0.03627052, 0.6669213, -0.03908488, -2.4689066, -0.28805768, 3.6407099, 0
1083, 2923486923, -0.7435194, -0.03686656, 0.6665082, -0.03989519, -2.452131, -0.63395876, 1.7909718, 0
1084, 2923503590, -0.743987, -0.037444025, 0.6658991, -0.04080367, -2.096467, 0.23871362, -0.489295, 0
1085, 2923520257, -0.7444035, -0.037945077, 0.665348, -0.04172419, -1.6174841, 0.23442732, 0.40425682, 0
1086, 2923536924, -0.74465895, -0.03858143, 0.6649668, -0.042646036, -2.012673, 0.48959115, 1.1781445, 0
1087, 2923553591, -0.74469143, -0.039675035, 0.66481155, -0.043488026, -3.4310784, -0.4748734, 0.63622284, 0
1088, 2923570258, -0.7448933, -0.041210376, 0.66445005, -0.04412295, -4.019016, -1.9190826, 0.64962673, 0
1089, 2923586925, -0.74506587, -0.04260905, 0.66412526, -0.0447682, -3.9602704, -2.6223903, 0.8144283, 0
1090, 2923603592, -0.7454163, -0.043526202, 0.66363406, -0.04533051, -4.1487513, -1.9635125, -0.3589697, 0
1091, 2923620259, -0.7457238, -0.0443971, 0.66318685, -0.0459722, -2.2670803, -0.78453684, 1.0149317, 0
1092, 2923636926, -0.7456651, -0.045244835, 0.6631614, -0.04646036, -0.41843325, -0.5105148, -0.31224728, 0
1093, 2923653593, -0.7457206, -0.045740098, 0.6630455, -0.04673882, -1.4201697, -2.284721, -1.4665794, 0
1094, 2923670260, -0.7458373, -0.046176866, 0.66288084, -0.046781793, -0.2854399, -0.9751733, 0.8146734, 0
1095, 2923686927, -0.7456606, -0.04679849, 0.66305876, -0.04645747, -0.20983888, -0.8175329, 0.95903873, 0
1096, 2923703594, -0.74565035, -0.047425658, 0.66305953, -0.0459722, -0.6041345, -1.4319352, -0.22809696, 0
1097, 2923720261, -0.74571353, -0.047974534, 0.6629771, -0.04556562, -1.1475718, -1.0032173, 0.17496109, 0
1098, 2923736928, -0.7458098, -0.048460953, 0.66286236, -0.045142427, -0.79522467, -0.5742245, -0.4559164, 0
1099, 2923753595, -0.7458511, -0.048968375, 0.66280746, -0.04471758, -0.45536205, -0.22299619, 0.17246437, 0
1100, 2923770262, -0.7458346, -0.049326733, 0.6628311, -0.044246376, -0.2912651, 0.061920017, -0.31960678, 0
1101, 2923786929, -0.7458307, -0.049523585, 0.66286474, -0.04358539, -0.6272292, 0.3961376, 0.17814827, 0
1102, 2923803596, -0.74575824, -0.05004497, 0.66294485, -0.043003306, -0.3890614, -0.09811906, -0.16511345, 0
1103, 2923820263, -0.7455902, -0.05053827, 0.6631245, -0.042569846, -0.38373956, -0.90274227, 0.15787601, 0
1104, 2923836930, -0.74550444, -0.050758906, 0.6632203, -0.04231517, -1.3787196, -0.2683055, 0.058523178, 0
1105, 2923853597, -0.7455505, -0.050905764, 0.66316575, -0.042181462, -1.751452, 0.1387389, 1.755476, 0
1106, 2923870264, -0.7455718, -0.05109989, 0.66312957, -0.0421405, -1.4058026, 0.6346228, -0.39166355, 0
1107, 2923886931, -0.74564344, -0.051481597, 0.6630176, -0.04216972, -1.2363462, 0.094005525, 0.50263023, 0
1108, 2923903598, -0.7456195, -0.051988058, 0.66299754, -0.042288914, -0.18637806, 0.2214753, -0.4888258, 0
1109, 2923920265, -0.74550545, -0.052433982, 0.6630861, -0.042358533, -0.45161238, -0.15613274, -0.07566166, 0
1110, 2923936932, -0.74545926, -0.05293086, 0.6631016, -0.042310596, -0.43502373, 0.263312, -0.17656517, 0
1111, 2923953599, -0.7453533, -0.05368509, 0.66316634, -0.042211935, -0.070619814, -0.44204515, 0.73620415, 0
1112, 2923970266, -0.74523133, -0.054489717, 0.66324973, -0.042022154, 0.18409331, -0.32465068, -0.25404835, 0
1113, 2923986933, -0.7452403, -0.05519432, 0.6632063, -0.04162903, -0.06634222, -0.6231983, -1.2538843, 0
1114, 2924003600, -0.7453139, -0.055820562, 0.6631054, -0.041080207, 0.25162596, -0.5562944, 0.3542652, 0
1115, 2924020267, -0.7454806, -0.056554265, 0.66289794, -0.04039435, 0.109833375, 0.053080864, -0.5883074, 0
1116, 2924036934, -0.74571145, -0.05723641, 0.66262674, -0.03961742, 0.579523, -0.42110613, 0.80115986, 0
1117, 2924053601, -0.7458034, -0.057663284, 0.66253257, -0.038830712, 1.1400542, 0.1764741, 0.24015331, 0
1118, 2924070268, -0.74577636, -0.05786991, 0.6625948, -0.037973627, 0.66930646, -0.405225, 0.3697443, 0
1119, 2924086935, -0.7457713, -0.057865113, 0.66264236, -0.037242725, 0.73165, -0.48323646, 0.16592026, 0
1120, 2924103602, -0.7457419, -0.0576619, 0.662729, -0.03659953, 0.58305186, -0.7122494, -0.9614897, 0
1121, 2924120269, -0.745865, -0.057292923, 0.6626518, -0.036070958, -0.2644887, -1.0255653, -0.67631817, 0
1122, 2924136936, -0.74623275, -0.05692672, 0.66229683, -0.035552397, -0.030188106, -0.20984077, 0.072571754, 0
1123, 2924153603, -0.74653536, -0.05651273, 0.66201967, -0.035018906, 0.3653498, 0.37439248, 1.3856182, 0
1124, 2924170270, -0.74677557, -0.055928394, 0.6618324, -0.03436981, 1.1507726, 0.32992098, -0.04766655, 0
1125, 2924186937, -0.74680585, -0.05525828, 0.6618849, -0.03377971, 1.6580021, -0.2189657, 1.2788591, 0
