sep=,
DeviceTag:,Xsens_DOT_5,,,,,,,,,,,,,,,,,
FirmwareVersion:,3.0.0,,,,,,,,,,,,,,,,,
AppVersion:,2023.6.1,,,,,,,,,,,,,,,,,
SyncStatus:,Synced,,,,,,,,,,,,,,,,,
OutputRate:,60Hz,,,,,,,,,,,,,,,,,
FilterProfile:,General,,,,,,,,,,,,,,,,,
Measurement Mode:,Sensor fusion Mode - Extended (Quaternion),,,,,,,,,,,,,,,,,
StartTime:,2025-05-05 11:55:12.447 +0200,,,,,,,,,,,,,,,,,
 2025,,,,,,,,,,,,,,,,,,,

PacketCounter,SampleTimeFine,Quat_W,Quat_X,Quat_Y,Quat_Z,FreeAcc_X,FreeAcc_Y,FreeAcc_Z,Status
1, 2905453229, -0.41353005, 0.35788786, -0.09585163, -0.8316963, -0.026931886, -0.028288359, -0.07526302, 0
2, 2905469896, -0.41356075, 0.35790107, -0.09589257, -0.8316706, -0.01143266, -0.027852172, -0.09391117, 0
3, 2905486563, -0.41357708, 0.35789764, -0.095930874, -0.8316595, -0.006412475, -0.022474786, -0.099004745, 0
4, 2905503230, -0.4135345, 0.35789594, -0.095938504, -0.8316805, -0.027378717, -0.018421268, -0.080789566, 0
5, 2905519897, -0.4135458, 0.35788277, -0.09595144, -0.83167905, -0.031704195, -0.037874494, -0.07464504, 0
6, 2905536564, -0.4135113, 0.35788333, -0.09592665, -0.83169883, -0.02333344, -0.043200247, -0.08894348, 0
7, 2905553231, -0.41350275, 0.35788372, -0.09591389, -0.8317043, -0.01268151, 0.013799131, -0.11370373, 0
8, 2905569898, -0.41349387, 0.35788366, -0.09592889, -0.83170724, -0.01715107, -0.0221422, -0.103755, 0
9, 2905586565, -0.41342664, 0.3579104, -0.09593271, -0.83172864, -0.025939992, -0.02813067, -0.09441471, 0
10, 2905603232, -0.41341513, 0.3579368, -0.09595912, -0.83172, -0.016796915, -0.021113481, -0.08198738, 0
11, 2905619899, -0.41340676, 0.3579449, -0.09597429, -0.8317189, -0.027063591, -0.039721157, -0.09004879, 0
12, 2905636566, -0.41338864, 0.3579331, -0.095968716, -0.83173347, -0.029923467, -0.031526837, -0.09408283, 0
13, 2905653233, -0.41341093, 0.3579085, -0.095956475, -0.8317343, -0.021732723, -0.025525067, -0.09214687, 0
14, 2905669900, -0.41339454, 0.35788518, -0.09591638, -0.83175725, -0.014708159, -0.04039505, -0.09968948, 0
15, 2905686567, -0.41340262, 0.35785258, -0.0959023, -0.83176893, -0.024391131, -0.016550018, -0.10754299, 0
16, 2905703234, -0.41341734, 0.35784018, -0.095899716, -0.83176714, -0.024704747, -0.0046756677, -0.11537266, 0
17, 2905719901, -0.41342264, 0.35785425, -0.09591929, -0.83175623, -0.020682268, -0.015918704, -0.08012104, 0
18, 2905736568, -0.41340384, 0.3578685, -0.09592846, -0.83175844, -0.021703666, -0.03067827, -0.08735752, 0
19, 2905753235, -0.41337666, 0.35788366, -0.09591921, -0.83176655, -0.021056484, -0.049810756, -0.08815098, 0
20, 2905769902, -0.4133803, 0.35788107, -0.09590886, -0.8317671, -0.03274993, -0.050327405, -0.06782627, 0
21, 2905786569, -0.41344124, 0.3578582, -0.09590812, -0.8317466, -0.015957512, -0.014048236, -0.09134579, 0
22, 2905803236, -0.41345844, 0.35784397, -0.09589967, -0.83174515, -0.021062994, -0.019368514, -0.0892849, 0
23, 2905819903, -0.4134565, 0.357828, -0.09590558, -0.8317524, -0.031040892, -0.009007125, -0.10355663, 0
24, 2905836570, -0.41345477, 0.35782173, -0.095899336, -0.83175665, -0.021443022, -0.029521257, -0.10768986, 0
25, 2905853237, -0.41343758, 0.3578411, -0.09589067, -0.8317577, -0.006980142, -0.027275957, -0.1153698, 0
26, 2905869904, -0.4134884, 0.35784975, -0.09590523, -0.83172727, -0.028753992, -0.02353245, -0.0905838, 0
27, 2905886571, -0.41347203, 0.35786438, -0.095907524, -0.8317287, -0.017097708, -0.028193925, -0.09122276, 0
28, 2905903238, -0.41350153, 0.35787743, -0.095905215, -0.8317087, -0.03415915, -0.022516696, -0.08763504, 0
29, 2905919905, -0.41351497, 0.35787544, -0.09588812, -0.83170485, -0.027832365, -0.014805834, -0.09394169, 0
31, 2905953239, -0.41354096, 0.35787198, -0.0958538, -0.8316974, -0.01839534, -0.012380495, -0.095705986, 0
32, 2905969906, -0.41356158, 0.35786706, -0.09587134, -0.8316872, -0.026074743, -0.018199766, -0.09590435, 0
34, 2906003240, -0.41353804, 0.35788837, -0.09585676, -0.83169144, -0.028596416, -0.021102753, -0.09660435, 0
35, 2906019907, -0.41355222, 0.3578828, -0.09586091, -0.8316864, -0.036747962, -0.03354784, -0.09974766, 0
39, 2906086575, -0.41360965, 0.3579166, -0.09582486, -0.83164746, -0.029139468, -0.023509204, -0.07589531, 0
40, 2906103242, -0.41360125, 0.35792866, -0.095802344, -0.831649, -0.030245522, -0.035754472, -0.09354496, 0
42, 2906136576, -0.41363978, 0.3579061, -0.095806345, -0.83163905, -0.028753713, -0.028289588, -0.09956455, 0
44, 2906169910, -0.41364175, 0.3579068, -0.09580809, -0.8316377, -0.024290383, -0.021008318, -0.10508537, 0
46, 2906203244, -0.41362572, 0.35790497, -0.095835604, -0.83164316, -0.014889176, -0.045825183, -0.098005295, 0
47, 2906219911, -0.41363648, 0.3579043, -0.095834084, -0.83163834, -0.028163219, -0.046613067, -0.08529186, 0
49, 2906253245, -0.41366208, 0.3578928, -0.09581183, -0.8316331, -0.028721275, -0.01521218, -0.0878315, 0
51, 2906286579, -0.41367432, 0.3578773, -0.09582118, -0.83163244, -0.02452887, -0.025330277, -0.09093952, 0
53, 2906319913, -0.41368684, 0.3578078, -0.09579253, -0.83165956, -0.045872822, -0.025034793, -0.094037056, 0
54, 2906336580, -0.4137668, 0.35777345, -0.0958203, -0.8316314, -0.046370305, -0.020807939, -0.096214294, 0
55, 2906353247, -0.41374934, 0.35774595, -0.09581746, -0.8316522, -0.029058082, -0.040326208, -0.11231613, 0
58, 2906403248, -0.41378504, 0.3577245, -0.09582573, -0.8316427, -0.023271304, -0.025113804, -0.0803318, 0
59, 2906419915, -0.4137664, 0.3577178, -0.09583112, -0.83165425, -0.01801358, -0.038142487, -0.102212906, 0
61, 2906453249, -0.41377142, 0.35770598, -0.09583247, -0.8316567, -0.030070847, -0.021244012, -0.09845638, 0
62, 2906469916, -0.41375914, 0.35768858, -0.09582855, -0.8316707, -0.017074686, -0.020837443, -0.09251213, 0
65, 2906519917, -0.41376987, 0.35764682, -0.09583566, -0.8316824, -0.031153291, -0.039415058, -0.08794594, 0
66, 2906536584, -0.4138038, 0.35762274, -0.09583862, -0.8316755, -0.013358867, -0.034632996, -0.09091091, 0
67, 2906553251, -0.4138199, 0.3576127, -0.09581787, -0.8316744, -0.038379967, -0.031456206, -0.08285618, 0
69, 2906586585, -0.4138472, 0.35759616, -0.0957871, -0.8316715, -0.016188623, -0.010389105, -0.093336105, 0
73, 2906653253, -0.4138558, 0.35756877, -0.09577219, -0.8316807, -0.04487922, -0.04007185, -0.0923748, 0
74, 2906669920, -0.4138682, 0.3575544, -0.09578642, -0.831679, -0.020762313, -0.027170459, -0.09354782, 0
75, 2906686587, -0.41389206, 0.35752565, -0.09579241, -0.83167875, -0.023696871, -0.03254751, -0.07608414, 0
78, 2906736588, -0.41400433, 0.35739097, -0.09571341, -0.83168995, -0.018118072, -0.015510347, -0.09412384, 0
80, 2906769922, -0.41405627, 0.35733327, -0.09567403, -0.8316933, -0.031462297, -0.029811151, -0.08616066, 0
81, 2906786589, -0.41403708, 0.3573069, -0.09565817, -0.831716, -0.019268911, -0.0132996915, -0.10447502, 0
82, 2906803256, -0.41406658, 0.35727546, -0.095686615, -0.83171153, -0.039154526, -0.00785514, -0.0935936, 0
85, 2906853257, -0.41401944, 0.35731992, -0.095671706, -0.83171767, -0.030667793, -0.012330763, -0.09490204, 0
86, 2906869924, -0.4140017, 0.3573667, -0.09568231, -0.8317053, -0.0100660175, -0.022021279, -0.10288811, 0
88, 2906903258, -0.41402137, 0.3573903, -0.095705114, -0.8316827, -0.031673964, -0.030573778, -0.0993166, 0
92, 2906969926, -0.41404352, 0.3574117, -0.0956459, -0.8316693, -0.02242771, -0.017633049, -0.10054207, 0
93, 2906986593, -0.41404468, 0.3574254, -0.095629886, -0.8316647, -0.024782166, -0.022247363, -0.096551895, 0
94, 2907003260, -0.41402292, 0.357431, -0.095592976, -0.8316773, -0.013299552, -0.017737988, -0.08561611, 0
96, 2907036594, -0.4140928, 0.35745242, -0.09547305, -0.83164716, -0.027899642, -0.02231844, -0.08320141, 0
98, 2907069928, -0.41413823, 0.35767928, -0.09517464, -0.8315612, -0.04437998, -0.04605831, -0.08448982, 0
100, 2907103262, -0.4141263, 0.35804486, -0.09486437, -0.8314453, -0.022329587, 0.0066301767, -0.10376835, 0
101, 2907119929, -0.41410238, 0.35821182, -0.09472492, -0.8314011, -0.034146745, -0.02338236, -0.09555721, 0
103, 2907153263, -0.41413525, 0.35849237, -0.09440918, -0.83129966, -0.023353947, -0.036901988, -0.091012, 0
105, 2907186597, -0.41412863, 0.3588799, -0.093980305, -0.8311844, -0.028961692, 0.026232598, -0.09397888, 0
107, 2907219931, -0.41412386, 0.35937193, -0.09374488, -0.8310006, -0.008917441, -0.015233972, -0.094501495, 0
109, 2907253265, -0.4140134, 0.3596564, -0.09368878, -0.830939, -0.023715172, -0.03880308, -0.07608318, 0
112, 2907303266, -0.41397402, 0.35974753, -0.09361432, -0.8309276, -0.03441331, 9.733989E-4, -0.067671776, 0
113, 2907319933, -0.41395646, 0.35975114, -0.093617305, -0.8309344, 0.0023645156, -0.009083566, -0.0933218, 0
115, 2907353267, -0.41393957, 0.35971212, -0.09353284, -0.83096915, -0.042446006, -0.03637651, -0.09993458, 0
116, 2907369934, -0.41394597, 0.3597078, -0.093466006, -0.83097535, -0.029425398, -0.02308453, -0.07995796, 0
119, 2907419935, -0.41397578, 0.35977024, -0.09323059, -0.8309601, -0.030217666, -0.020595266, -0.10167694, 0
120, 2907436602, -0.4140169, 0.3597892, -0.09320572, -0.83093405, -0.03784225, -5.757694E-4, -0.10904884, 0
121, 2907453269, -0.41403416, 0.35985047, -0.093193635, -0.83090025, -0.04694412, -0.0010402293, -0.077430725, 0
123, 2907486603, -0.4139468, 0.36007914, -0.09321444, -0.8308424, -0.039921425, -0.023222325, -0.0959177, 0
125, 2907519937, -0.41381562, 0.36032027, -0.093278944, -0.83079594, -0.030634547, -0.053215977, -0.08971596, 0
128, 2907569938, -0.41370076, 0.36049125, -0.09338712, -0.83076686, -0.046584208, -0.020696517, -0.08476448, 0
130, 2907603272, -0.41359097, 0.36104062, -0.09315581, -0.830609, -0.059890717, 0.03605957, -0.074692726, 0
132, 2907636606, -0.41341248, 0.36188284, -0.09282325, -0.8303684, 0.0037309062, -0.034349695, -0.07525158, 0
134, 2907669940, -0.41335398, 0.3625687, -0.09254155, -0.8301298, -0.016852094, -0.012307294, -0.07001209, 0
135, 2907686607, -0.41329587, 0.362884, -0.09240698, -0.83003604, -0.003925083, -0.015059185, -0.10178089, 0
136, 2907703274, -0.4132176, 0.36322168, -0.0922398, -0.8299458, -0.021758819, -0.018448759, -0.09625721, 0
138, 2907736608, -0.4131264, 0.3640805, -0.091924675, -0.82964987, -0.0073011625, -0.05323151, -0.08792019, 0
139, 2907753275, -0.41311082, 0.36445934, -0.09177148, -0.82950824, -0.057597753, -0.09188238, -0.0842762, 0
140, 2907769942, -0.4131002, 0.36475417, -0.09160543, -0.82940227, -0.03609874, -0.07233907, -0.08902168, 0
142, 2907803276, -0.41309455, 0.36507884, -0.09141478, -0.8292833, 0.014827458, -0.031078024, -0.0894413, 0
143, 2907819943, -0.41304806, 0.3651985, -0.09135725, -0.82926005, -0.009139305, -0.024720198, -0.05742836, 0
144, 2907836610, -0.41305044, 0.3653111, -0.091319464, -0.82921344, 0.04117645, -0.026236398, -0.045663834, 0
147, 2907886611, -0.41307193, 0.36503807, -0.09109489, -0.8293478, -0.11174922, -0.11631301, -0.08876896, 0
148, 2907903278, -0.4131548, 0.36486435, -0.091054626, -0.82938737, -0.03991514, -0.022027873, -0.08700371, 0
150, 2907936612, -0.4132602, 0.3643992, -0.09119806, -0.82952356, -0.03440521, -0.03885393, -0.09517002, 0
151, 2907953279, -0.41333175, 0.36408448, -0.0912369, -0.8296216, -0.03265002, -0.10571738, -0.05618477, 0
152, 2907969946, -0.4134301, 0.36369526, -0.091256104, -0.8297413, -0.05825122, -0.017425628, -0.10442448, 0
154, 2908003280, -0.41355664, 0.36301628, -0.09141114, -0.8299585, -0.052332878, 0.17027709, -0.18661022, 0
155, 2908019947, -0.4134942, 0.36301053, -0.091639, -0.829967, -0.04536634, 7.625144E-4, -0.10774231, 0
158, 2908069948, -0.4131618, 0.36326525, -0.09267239, -0.82990646, 0.0013668656, -0.05703626, -0.0965662, 0
159, 2908086615, -0.41311795, 0.3632564, -0.092981964, -0.8298974, -0.007316808, -0.041517645, -0.09616184, 0
162, 2908136616, -0.41314214, 0.36356592, -0.093383335, -0.8297048, -0.023331568, -0.04921431, -0.05098152, 0
163, 2908153283, -0.41313758, 0.36384377, -0.093413495, -0.82958186, -0.029806236, 0.0030116136, -0.06409454, 0
165, 2908186617, -0.41314942, 0.36429015, -0.09356107, -0.8293635, -0.016593434, -0.059796087, -0.08611965, 0
166, 2908203284, -0.41319972, 0.3643089, -0.09362923, -0.82932234, -0.008896402, -0.072626956, -0.10935211, 0
167, 2908219951, -0.41325158, 0.3642113, -0.0936888, -0.82933265, 0.014267055, -0.019199204, -0.080013275, 0
169, 2908253285, -0.41331366, 0.36380574, -0.093596205, -0.82949024, -0.046562638, -0.055389863, -0.06425476, 0
170, 2908269952, -0.41339234, 0.36360142, -0.09345763, -0.8295563, -0.029782068, -0.05629509, -0.09035683, 0
171, 2908286619, -0.4135163, 0.36343685, -0.09337405, -0.82957584, -0.07190619, -0.044342063, -0.09912777, 0
174, 2908336620, -0.41360238, 0.36312473, -0.09341257, -0.8296654, -0.03416636, -0.0355123, -0.07902336, 0
177, 2908386621, -0.4138322, 0.3627292, -0.09342566, -0.8297223, -0.057512425, -0.02342237, -0.14552593, 0
178, 2908403288, -0.4138503, 0.3627822, -0.09335224, -0.8296984, -0.056568418, 0.08341414, -0.142807, 0
179, 2908419955, -0.41383833, 0.36294788, -0.09325939, -0.82964236, -0.032865036, -0.033574216, -0.09083557, 0
181, 2908453289, -0.4136711, 0.3633547, -0.0932603, -0.8295476, -0.0401139, -0.03175594, -0.07850933, 0
182, 2908469956, -0.41363537, 0.36353388, -0.09328049, -0.82948464, -0.0016229276, -0.027185323, -0.08771801, 0
184, 2908503290, -0.413426, 0.3637832, -0.093452364, -0.8294604, -0.010321298, 0.0993476, -0.11796093, 0
185, 2908519957, -0.41327617, 0.3639926, -0.0936575, -0.8294199, -0.046044674, 8.2588034E-5, -0.10105419, 0
186, 2908536624, -0.41312313, 0.364229, -0.09385558, -0.8293702, -0.020059561, -0.022645215, -0.054047585, 0
188, 2908569958, -0.41283253, 0.36452052, -0.094239585, -0.82934314, -0.017072814, -0.06317426, -0.05370617, 0
192, 2908636626, -0.41269374, 0.36463138, -0.094329156, -0.8293533, -0.030488787, -0.034549516, -0.10266304, 0
193, 2908653293, -0.41274002, 0.36461306, -0.09428742, -0.829343, -0.058227666, -0.06555914, -0.048215866, 0
194, 2908669960, -0.41275677, 0.36457014, -0.094216116, -0.8293616, -0.04195084, -0.052535154, -0.06713867, 0
196, 2908703294, -0.41286612, 0.36435565, -0.09401343, -0.8294246, -0.027962616, -0.03466686, -0.09115505, 0
197, 2908719961, -0.41290146, 0.36424148, -0.093888395, -0.82947135, -0.030922879, 0.0031944471, -0.083026886, 0
198, 2908736628, -0.41290894, 0.3641545, -0.09378066, -0.8295179, -0.049856547, -0.022876328, -0.06420326, 0
200, 2908769962, -0.41296032, 0.363932, -0.0935395, -0.82961726, -0.07323346, 0.03529918, -0.13307285, 0
201, 2908786629, -0.41289005, 0.36397952, -0.09340877, -0.829646, -0.05937859, 0.02604306, -0.110126495, 0
202, 2908803296, -0.412817, 0.36419767, -0.093383364, -0.8295896, -0.047915787, 0.05272257, -0.12715244, 0
206, 2908869964, -0.41238922, 0.36553055, -0.09361261, -0.82919025, -0.024594722, -0.06540615, -0.08653641, 0
209, 2908919965, -0.4120545, 0.3657481, -0.09400983, -0.8292157, -0.019264834, -0.012594396, -0.09747982, 0
211, 2908953299, -0.4119235, 0.36557925, -0.09433471, -0.82931834, -0.0100873355, -0.06622466, -0.06487942, 0
212, 2908969966, -0.41192895, 0.3652985, -0.09445098, -0.8294262, -0.0024300609, -0.07153197, -0.08755779, 0
213, 2908986633, -0.41193703, 0.36496112, -0.09452532, -0.8295622, -0.05249297, -0.07777882, -0.086071014, 0
215, 2909019967, -0.41202605, 0.36431465, -0.09465654, -0.8297871, -0.04116927, -0.06950884, -0.090159416, 0
216, 2909036634, -0.4121043, 0.36399415, -0.094681196, -0.82988614, -0.04505169, -0.039562017, -0.073773384, 0
217, 2909053301, -0.41220286, 0.36370564, -0.09469239, -0.82996243, -0.062041163, -0.017140426, -0.060447693, 0
219, 2909086635, -0.41240916, 0.3631951, -0.09472181, -0.83008003, -0.05028178, -0.032614563, -0.11607456, 0
221, 2909119969, -0.4125031, 0.36296168, -0.094755, -0.83013165, -0.04404278, -0.0134596145, -0.07797241, 0
223, 2909153303, -0.41258112, 0.3628598, -0.094796434, -0.8301327, -0.021643989, -0.041521776, -0.087656975, 0
224, 2909169970, -0.412652, 0.36279944, -0.09480142, -0.8301233, -0.024260096, -0.05096073, -0.10173035, 0
225, 2909186637, -0.41274512, 0.36269972, -0.094788745, -0.830122, -0.024561336, -0.046107594, -0.08387375, 0
227, 2909219971, -0.41287988, 0.3623864, -0.094714575, -0.8302003, -0.040265076, -0.047293555, -0.08236313, 0
228, 2909236638, -0.4129601, 0.36220443, -0.0946484, -0.83024734, -0.029049197, -0.02952718, -0.08401775, 0
229, 2909253305, -0.41313094, 0.3620249, -0.094597355, -0.8302465, -0.032068353, -0.008394476, -0.08574867, 0
231, 2909286639, -0.41330284, 0.3618042, -0.09446923, -0.83027166, -0.027477508, 0.037434842, -0.11680794, 0
232, 2909303306, -0.4133234, 0.36171144, -0.09445669, -0.83030325, -0.02032582, -0.029572105, -0.11761379, 0
233, 2909319973, -0.4133383, 0.3615809, -0.09446564, -0.8303517, -0.023195364, -0.009874579, -0.12002945, 0
236, 2909369974, -0.41331205, 0.36150083, -0.094474636, -0.83039856, -0.03776721, -0.03260752, -0.09511948, 0
239, 2909419975, -0.4133434, 0.36150557, -0.09443127, -0.8303859, -0.034437533, -0.034022808, -0.10729027, 0
240, 2909436642, -0.4133384, 0.3614861, -0.094388224, -0.8304018, -0.055912826, -0.05723362, -0.0896883, 0
242, 2909469976, -0.4135142, 0.3612582, -0.09424739, -0.83042943, -0.01643189, -0.047301043, -0.0978117, 0
243, 2909486643, -0.4135491, 0.36112118, -0.09415363, -0.8304822, -0.02143911, -0.010217895, -0.10035038, 0
244, 2909503310, -0.4136076, 0.36102933, -0.0940832, -0.830501, -0.050984647, -0.009359716, -0.07822323, 0
246, 2909536644, -0.41366062, 0.3609286, -0.09394901, -0.8305337, -0.041131414, -0.039756697, -0.08533096, 0
247, 2909553311, -0.41370448, 0.36085764, -0.093901545, -0.83054805, -0.032617275, -0.065829374, -0.08724785, 0
248, 2909569978, -0.4137815, 0.3606911, -0.093849815, -0.8305878, -0.036609046, -0.057040952, -0.091835976, 0
251, 2909619979, -0.41399622, 0.3602312, -0.093524806, -0.8307171, -0.030925365, 0.0017435128, -0.07153034, 0
252, 2909636646, -0.41407552, 0.36007747, -0.093442716, -0.8307533, -0.03103849, -0.081512496, -0.15607929, 0
255, 2909686647, -0.41444227, 0.3596859, -0.0931714, -0.8307706, 0.09803616, 0.075591296, -0.1278925, 0
256, 2909703314, -0.41447717, 0.35952923, -0.093171984, -0.83082104, -0.09320124, -0.05106578, -0.09927654, 0
258, 2909736648, -0.41440883, 0.35941207, -0.093266785, -0.830895, -0.054219715, 0.18898411, -0.19555283, 0
259, 2909753315, -0.41416967, 0.35955852, -0.093478516, -0.8309272, -0.11173281, 0.07460941, -0.17007732, 0
260, 2909769982, -0.41387394, 0.35978606, -0.093806304, -0.83093905, -0.029319368, -8.217454E-4, -0.076330185, 0
262, 2909803316, -0.4134254, 0.36031, -0.094312534, -0.83087796, -0.030710038, -0.08359854, -0.076397896, 0
263, 2909819983, -0.41328287, 0.3605678, -0.09453145, -0.8308121, -0.04707183, -0.077910244, -0.066018105, 0
266, 2909869984, -0.41303557, 0.3612052, -0.09492996, -0.8306129, -0.005714807, -0.057618957, -0.06835365, 0
267, 2909886651, -0.41298127, 0.36131442, -0.095022425, -0.83058184, -0.043288678, -0.05381667, -0.061987877, 0
269, 2909919985, -0.41299242, 0.36142445, -0.095192984, -0.8305089, -0.010648269, -0.0078068604, -0.09564686, 0
271, 2909953319, -0.41300806, 0.36140305, -0.09533985, -0.83049357, -0.051929772, -0.00414773, -0.10619259, 0
273, 2909986653, -0.41303074, 0.36137205, -0.09560214, -0.83046556, -0.0036848066, -0.022688689, -0.09063053, 0
274, 2910003320, -0.41304606, 0.36133543, -0.095700726, -0.8304626, -0.066943385, -0.088599086, -0.07812309, 0
275, 2910019987, -0.41309544, 0.36125904, -0.09576601, -0.83046377, -0.035672806, -0.039918855, -0.08281994, 0
277, 2910053321, -0.4132526, 0.36103597, -0.09581878, -0.8304764, -0.027787102, -0.059599955, -0.0829649, 0
278, 2910069988, -0.41334873, 0.36083513, -0.09582992, -0.8305146, -0.04635561, -0.048522428, -0.075466156, 0
281, 2910119989, -0.41371, 0.3603512, -0.09566843, -0.8305635, -0.052473214, -0.04293572, -0.063669205, 0
282, 2910136656, -0.4138566, 0.36020938, -0.095518686, -0.83056915, -0.042890012, 0.0049548354, -0.10839462, 0
283, 2910153323, -0.41400194, 0.36008957, -0.09537555, -0.83056515, -0.029819366, -0.040883426, -0.09360504, 0
285, 2910186657, -0.41417822, 0.35983458, -0.09521338, -0.83060646, -0.034370564, -0.008483658, -0.0830822, 0
287, 2910219991, -0.41437256, 0.35968792, -0.09517934, -0.83057696, -0.020053443, 0.00659922, -0.10329437, 0
289, 2910253325, -0.41445786, 0.35970208, -0.09518524, -0.8305275, -0.05074968, 0.015996711, -0.11363697, 0
290, 2910269992, -0.41444018, 0.3597701, -0.09526052, -0.8304982, -0.020706631, 0.016171386, -0.11685848, 0
292, 2910303326, -0.4143711, 0.35994387, -0.095415905, -0.83043957, -0.062124617, -0.017818118, -0.0945425, 0
293, 2910319993, -0.41433287, 0.35998502, -0.09551022, -0.83043, -0.040071152, -0.04978114, -0.08333492, 0
296, 2910369994, -0.414285, 0.35996225, -0.0957491, -0.8304361, -0.046226252, -0.032661166, -0.08121681, 0
297, 2910386661, -0.41424555, 0.36001807, -0.09581682, -0.83042383, -0.057011086, 0.07382085, -0.10983181, 0
298, 2910403328, -0.4142405, 0.3601667, -0.09597234, -0.8303439, -0.046906598, -0.02853031, -0.09814167, 0
300, 2910436662, -0.41413537, 0.36053386, -0.09624854, -0.8302051, -0.02686053, -0.0014885963, -0.10487175, 0
301, 2910453329, -0.4140195, 0.3607328, -0.09640883, -0.83015794, -0.030821962, -0.0526943, -0.08499527, 0
302, 2910469996, -0.4139272, 0.36086014, -0.09651429, -0.83013624, -0.04970878, -0.08142845, -0.07310104, 0
304, 2910503330, -0.41383156, 0.36085644, -0.09654798, -0.83018166, -0.029187523, -0.03784376, -0.0751667, 0
305, 2910519997, -0.4138155, 0.36079347, -0.09656471, -0.83021516, -0.02170917, -0.04788519, -0.09046173, 0
306, 2910536664, -0.41379613, 0.3607267, -0.09659093, -0.83025074, -0.063841894, -0.030979007, -0.08508015, 0
308, 2910569998, -0.41368762, 0.36078194, -0.0966605, -0.8302727, -0.039353423, -0.029382342, -0.081189156, 0
310, 2910603332, -0.41350272, 0.3609743, -0.09673655, -0.8302724, -0.047271397, -0.0060069105, -0.096196175, 0
312, 2910636666, -0.41336653, 0.3611557, -0.09686075, -0.83024675, -0.019072557, -0.011573389, -0.083408356, 0
313, 2910653333, -0.41327175, 0.36125684, -0.09695101, -0.8302393, -0.011169166, -0.007822171, -0.090976715, 0
314, 2910670000, -0.4132106, 0.36135757, -0.09705112, -0.83021426, -0.072265625, -0.06053815, -0.06406307, 0
317, 2910720001, -0.41302347, 0.36172608, -0.097329386, -0.8301143, -0.06813426, -0.0052726706, -0.087041855, 0
318, 2910736668, -0.41291222, 0.36188832, -0.09746144, -0.83008343, -0.05542965, -0.043122914, -0.08820915, 0
320, 2910770002, -0.4127355, 0.36212295, -0.09766385, -0.83004534, -0.053260483, -0.034006156, -0.075966835, 0
321, 2910786669, -0.41272682, 0.36217126, -0.09772944, -0.8300207, -0.023972379, -0.074608065, -0.08172989, 0
323, 2910820003, -0.4126579, 0.3622404, -0.09778128, -0.8300187, -0.02639009, -0.04703808, -0.09057808, 0
325, 2910853337, -0.41267556, 0.36215112, -0.09781167, -0.83004534, -0.06498659, -0.04777824, -0.07365608, 0
327, 2910886671, -0.41268107, 0.36204645, -0.097782366, -0.8300917, -0.057376, -0.033272363, -0.08036709, 0
328, 2910903338, -0.41270867, 0.36201137, -0.09777368, -0.8300944, -0.02720295, -0.05074761, -0.089738846, 0
329, 2910920005, -0.41274145, 0.3618578, -0.09773709, -0.83014923, 0.024473859, -0.21322656, -0.13026237, 0
331, 2910953339, -0.41277486, 0.36186004, -0.097683236, -0.83013797, 0.037472226, -0.127489, -0.122950554, 0
333, 2910986673, -0.41235024, 0.3623392, -0.09796936, -0.8301063, -0.17618582, 0.35221586, -0.19969463, 0
335, 2911020007, -0.41123095, 0.36457667, -0.098824084, -0.8295806, -0.02961597, -0.030881444, -0.08948326, 0
336, 2911036674, -0.41065928, 0.36567527, -0.09933579, -0.82931894, 0.009209097, -0.118765175, -0.066973686, 0
337, 2911053341, -0.41010147, 0.3666131, -0.099787824, -0.82912666, -0.025325052, -0.12768535, -0.029578209, 0
340, 2911103342, -0.40888882, 0.36888465, -0.10065745, -0.82861274, -0.05065812, -0.116792895, -0.05708599, 0
341, 2911120009, -0.40860963, 0.36940938, -0.10084578, -0.8284939, -0.02071613, -0.20286147, -0.060412407, 0
343, 2911153343, -0.40841863, 0.36967674, -0.101065546, -0.8284419, 0.027469408, -0.09405291, -0.071294785, 0
344, 2911170010, -0.40835822, 0.36954483, -0.10119338, -0.82851493, -0.0055912323, -0.03464473, -0.09652901, 0
346, 2911203344, -0.40823266, 0.36930186, -0.1014033, -0.8286595, -0.099375114, 0.0204454, -0.08551788, 0
347, 2911220011, -0.4081551, 0.3694266, -0.10148918, -0.8286315, -0.049795642, -0.0043310104, -0.09884262, 0
350, 2911270012, -0.4078039, 0.36996064, -0.102046974, -0.8284978, -0.055152074, -0.086347416, -0.055013657, 0
351, 2911286679, -0.40777022, 0.37008783, -0.102206625, -0.82843786, -0.041753087, -0.08968234, -0.06960297, 0
352, 2911303346, -0.40775883, 0.3701543, -0.10232371, -0.82839936, -0.012939948, -0.059012786, -0.087368965, 0
355, 2911353347, -0.40767348, 0.37013176, -0.10249754, -0.82842994, -0.060716707, -0.08825678, -0.07260513, 0
356, 2911370014, -0.4077549, 0.37009126, -0.10247061, -0.8284113, -0.020350855, -0.050790526, -0.07040787, 0
358, 2911403348, -0.40789938, 0.36985514, -0.10235706, -0.82845974, 0.0020285198, -0.08002334, -0.082369804, 0
359, 2911420015, -0.40792248, 0.36960796, -0.10225058, -0.82857186, -0.008337843, -0.077150635, -0.08201218, 0
360, 2911436682, -0.4080525, 0.3692714, -0.10215039, -0.82867, -0.03794317, -0.07445217, -0.06829834, 0
362, 2911470016, -0.40844637, 0.3682944, -0.10169252, -0.8289672, -0.046705183, -0.09278425, -0.07958317, 0
363, 2911486683, -0.40872633, 0.3677229, -0.10139629, -0.82911915, -0.03141894, -0.046939842, -0.0863142, 0
366, 2911536684, -0.4094467, 0.36623764, -0.10048241, -0.82953227, -0.05991245, 0.0014406528, -0.093159676, 0
367, 2911553351, -0.40955374, 0.36588892, -0.10018012, -0.8296699, -0.058227833, -0.004731769, -0.08156872, 0
370, 2911603352, -0.41017413, 0.3648244, -0.09943565, -0.82992166, -0.0332245, -0.04100211, -0.07476807, 0
371, 2911620019, -0.41038314, 0.3644371, -0.09918424, -0.83001864, -0.05259729, -0.034437645, -0.0898447, 0
373, 2911653353, -0.41080266, 0.36373127, -0.09880371, -0.83016604, -0.04547315, -0.012078305, -0.10377884, 0
374, 2911670020, -0.4109386, 0.36345828, -0.09860858, -0.83024156, -0.054148834, -0.06836792, -0.07454586, 0
375, 2911686687, -0.41108954, 0.3631786, -0.098378286, -0.83031654, -0.034550156, -0.029709455, -0.09902954, 0
377, 2911720021, -0.41130567, 0.3627506, -0.09795937, -0.8304462, -0.043791495, -0.01009351, -0.11252403, 0
378, 2911736688, -0.41138697, 0.36257228, -0.09782413, -0.8304996, -0.04219986, -0.02650126, -0.10514927, 0
379, 2911753355, -0.41146824, 0.36243626, -0.09769649, -0.83053374, -0.06378976, -0.023044633, -0.08339691, 0
381, 2911786689, -0.41162416, 0.36225104, -0.09745732, -0.83056545, -0.03173968, -0.028120166, -0.09050465, 0
382, 2911803356, -0.41169024, 0.36216828, -0.09738205, -0.8305776, -0.051013898, -0.045980416, -0.08504772, 0
385, 2911853357, -0.41193888, 0.36183414, -0.097130835, -0.8306292, -0.04521491, -0.037383325, -0.083208084, 0
386, 2911870024, -0.41205865, 0.3617005, -0.09703332, -0.8306394, -0.057751447, -0.0587848, -0.06899738, 0
387, 2911886691, -0.4121669, 0.3615502, -0.09690059, -0.8306668, -0.049950283, -0.049086574, -0.11137009, 0
389, 2911920025, -0.41230035, 0.3613755, -0.096653044, -0.83070517, -0.042468354, -0.055720214, -0.08741188, 0
390, 2911936692, -0.41236156, 0.36129647, -0.096570104, -0.83071905, -0.047120694, -0.025496459, -0.109127045, 0
391, 2911953359, -0.41241872, 0.36121625, -0.09651757, -0.8307317, -0.05359022, -0.045988016, -0.07470417, 0
393, 2911986693, -0.4125586, 0.3610128, -0.09641131, -0.8307628, -0.05131877, -0.05998786, -0.0834856, 0
395, 2912020027, -0.41269094, 0.3607885, -0.09621934, -0.8308169, -0.028658133, -0.018422721, -0.09877205, 0
397, 2912053361, -0.41283062, 0.36060154, -0.096070975, -0.8308458, -0.03304164, -0.049427208, -0.092847824, 0
399, 2912086695, -0.4129465, 0.36042166, -0.09600914, -0.8308734, -0.048564084, -0.023413764, -0.093393326, 0
401, 2912120029, -0.4130071, 0.36032885, -0.09593998, -0.8308916, -0.05761594, 0.031381667, -0.1133337, 0
402, 2912136696, -0.41301572, 0.36033586, -0.09592761, -0.8308856, -0.025543898, -0.07132053, -0.08426952, 0
404, 2912170030, -0.41305885, 0.3602956, -0.09584481, -0.8308912, -0.018072, -0.06110945, -0.082149506, 0
405, 2912186697, -0.4131013, 0.36023965, -0.0957824, -0.83090156, -0.041917816, -0.045495503, -0.09292412, 0
406, 2912203364, -0.4131365, 0.36018062, -0.09572396, -0.83091635, -0.031644292, -0.023275634, -0.09175968, 0
408, 2912236698, -0.41322547, 0.36002725, -0.095671706, -0.83094466, -0.042950474, -0.055122096, -0.09458065, 0
409, 2912253365, -0.4132735, 0.3599695, -0.09565455, -0.8309477, -0.027603738, -0.019470995, -0.09251976, 0
412, 2912303366, -0.41337186, 0.35966542, -0.095414884, -0.83105814, 0.06888049, -0.0030439112, -0.121543884, 0
414, 2912336700, -0.41327623, 0.359568, -0.09545877, -0.83114266, -0.07707559, 0.09256588, -0.1110239, 0
416, 2912370034, -0.4130528, 0.3600403, -0.095659934, -0.83102626, -0.018543808, -0.017245477, -0.07334423, 0
417, 2912386701, -0.41289642, 0.36023292, -0.09571113, -0.8310147, -0.04068288, -0.08209564, -0.08938503, 0
420, 2912436702, -0.4126818, 0.3604567, -0.095678374, -0.8310279, -0.048654076, -0.059903484, -0.08303356, 0
421, 2912453369, -0.41267312, 0.36049744, -0.09567624, -0.8310148, -0.059535496, -0.07941728, -0.09455681, 0
422, 2912470036, -0.4126607, 0.36052987, -0.09571752, -0.83100206, -0.040144686, -0.046672188, -0.10172176, 0
424, 2912503370, -0.41265395, 0.36057037, -0.09570003, -0.8309899, -0.05984143, -0.07874864, -0.051056862, 0
425, 2912520037, -0.4126605, 0.36052814, -0.09559065, -0.8310175, -0.04120031, -0.036069963, -0.100216866, 0
427, 2912553371, -0.41257465, 0.36052346, -0.095524244, -0.8310699, -0.06065974, 0.14803073, -0.17960167, 0
431, 2912620039, -0.41219503, 0.36125323, -0.095498, -0.83094436, -0.031334504, -0.043703824, -0.10087776, 0
432, 2912636706, -0.41209093, 0.3613698, -0.095427595, -0.83095336, -0.040345877, -0.006383865, -0.12151337, 0
433, 2912653373, -0.41200888, 0.3614505, -0.09537818, -0.8309647, -0.02488244, -0.09718388, -0.02088356, 0
435, 2912686707, -0.41209972, 0.36125568, -0.094964504, -0.8310517, -0.027852312, -0.076948695, -0.055208206, 0
436, 2912703374, -0.41220015, 0.36103392, -0.09468219, -0.83113056, -0.020206828, -0.10423985, -0.04372406, 0
437, 2912720041, -0.4123844, 0.36066866, -0.094318844, -0.831239, 0.004085733, -0.18932967, 0.08117676, 0
439, 2912753375, -0.41299024, 0.3594377, -0.09349684, -0.8315642, -0.075128905, -0.0054413113, -0.15005207, 0
440, 2912770042, -0.4132461, 0.35888073, -0.093180254, -0.83171326, -0.046127375, 0.045984663, -0.19903374, 0
441, 2912786709, -0.4134752, 0.35842437, -0.09294167, -0.8318227, -0.03865782, -0.0037990496, -0.1658163, 0
444, 2912836710, -0.41432756, 0.3569246, -0.091850996, -0.8321648, -0.097174294, -0.025938343, -0.12481117, 0
447, 2912886711, -0.4149069, 0.35670182, -0.090942554, -0.83207124, -0.089391075, 0.024297982, -0.32938576, 0
448, 2912903378, -0.41494736, 0.3572571, -0.0908333, -0.8318248, -0.20853508, 0.006891128, -0.2190113, 0
449, 2912920045, -0.41473088, 0.35807782, -0.09069622, -0.83159477, 0.018238323, 0.11126967, -0.05243206, 0
451, 2912953379, -0.4144386, 0.35953754, -0.09018349, -0.8311663, -0.01265536, -0.2046897, 0.100299835, 0
452, 2912970046, -0.41449136, 0.35992584, -0.08986901, -0.831006, -0.045672804, -0.094153605, -0.059046745, 0
454, 2913003380, -0.41449946, 0.3604187, -0.08939726, -0.83083916, -0.0011351664, -0.041431144, -0.078009605, 0
455, 2913020047, -0.41451466, 0.36053914, -0.08917059, -0.8308037, -0.033312455, -0.11127056, -0.024332047, 0
456, 2913036714, -0.41464186, 0.36055407, -0.088873334, -0.8307657, 0.03982456, -0.11462158, 0.0015802383, 0
459, 2913086715, -0.41511774, 0.35993013, -0.08798444, -0.8308932, -0.03330463, -0.0019517151, -0.112314224, 0
460, 2913103382, -0.4152013, 0.35978076, -0.08781956, -0.8309336, -0.028041264, -0.020683777, -0.13644505, 0
462, 2913136716, -0.4156015, 0.35939842, -0.08740615, -0.83094233, -0.010384719, -0.06128379, -0.13465881, 0
463, 2913153383, -0.4159105, 0.35913044, -0.0872455, -0.8309205, -0.004640101, 0.025253834, -0.1492691, 0
464, 2913170050, -0.41611838, 0.35886514, -0.08715595, -0.83094054, -0.005784292, 0.0019429981, -0.13948822, 0
466, 2913203384, -0.41631013, 0.35859793, -0.08719648, -0.8309555, -0.1330324, -0.009198117, -0.22840405, 0
467, 2913220051, -0.41627157, 0.35876474, -0.087386444, -0.83088285, -0.11833354, 0.036370475, -0.20207691, 0
468, 2913236718, -0.416171, 0.35920107, -0.08760414, -0.83072186, -0.098948345, 0.042528927, -0.16320038, 0
470, 2913270052, -0.41587624, 0.36027783, -0.08802691, -0.83035856, -0.04917193, -0.019348064, -0.098828316, 0
471, 2913286719, -0.41576368, 0.36081743, -0.08836208, -0.8301449, -0.07806377, -0.08213699, -0.043275833, 0
474, 2913336720, -0.4149965, 0.3623733, -0.089892425, -0.82968664, -0.1544586, -0.023637725, -0.11262035, 0
476, 2913370054, -0.41418585, 0.3639643, -0.09110237, -0.8292632, -0.0693549, 0.03792389, -0.13497639, 0
478, 2913403388, -0.41328257, 0.36610305, -0.09285678, -0.82857764, -0.12995411, 0.030645192, -0.10324001, 0
479, 2913420055, -0.41278628, 0.3673487, -0.09397632, -0.8281473, -0.0967644, 0.02538012, -0.082512856, 0
480, 2913436722, -0.41228914, 0.3688325, -0.09499393, -0.82761914, -0.15948826, -0.016283365, -0.08742523, 0
482, 2913470056, -0.41126248, 0.37345114, -0.0967301, -0.8258556, -0.5462699, 0.053826056, -0.08106041, 0
483, 2913486723, -0.41066718, 0.3772062, -0.09753515, -0.82434946, -0.417072, 0.18018419, -0.092638016, 0
485, 2913520057, -0.408658, 0.3884181, -0.099529095, -0.8198909, -0.41797796, 0.20439075, -0.12914467, 0
486, 2913536724, -0.4072995, 0.39603573, -0.10079294, -0.8167624, -0.39032146, 0.12308244, -0.07905483, 0
489, 2913586725, -0.4010736, 0.42942148, -0.108313404, -0.8018745, -0.26546615, 0.5213977, -0.018230438, 0
490, 2913603392, -0.39766413, 0.44309404, -0.112138525, -0.79558337, -0.43291116, 0.46381778, -0.073755264, 0
493, 2913653393, -0.38277844, 0.48623988, -0.1295275, -0.77477163, -0.41711032, 0.5148007, -0.42758083, 0
494, 2913670060, -0.37561327, 0.50240207, -0.13772424, -0.76650894, -0.2557785, 0.7616387, -0.3937769, 0
495, 2913686727, -0.3663007, 0.52100265, -0.14782478, -0.7566539, -0.33836946, 1.074492, -0.5461035, 0
497, 2913720061, -0.34009346, 0.5705879, -0.17819428, -0.7259544, -0.4337395, 1.1922722, -0.5946121, 0
498, 2913736728, -0.32348695, 0.60349786, -0.20095533, -0.7005431, -0.72814864, 1.3194233, -0.2527504, 0
499, 2913753395, -0.30407026, 0.6404957, -0.23016424, -0.6665793, -0.60971564, 2.3456802, 0.7184086, 0
501, 2913786729, -0.25007486, 0.71449745, -0.29548, -0.5827903, -2.2230027, 3.8817902, 4.4471903, 0
503, 2913820063, -0.18676922, 0.76693153, -0.3580637, -0.49871916, -2.8833623, 8.480727, 7.3395596, 0
506, 2913870064, -0.11978041, 0.79405206, -0.41666237, -0.42605585, 7.8999724, 16.042467, 3.9598045, 0
508, 2913903398, -0.13677356, 0.80051243, -0.4631192, -0.35495138, -3.3853352, 16.085464, -1.2388744, 0
510, 2913936732, -0.14825675, 0.8077733, -0.48374087, -0.30251244, -8.953833, 22.192596, -7.3467407, 0
512, 2913970066, -0.16191278, 0.80950814, -0.48212737, -0.29331073, -7.0254188, 15.79813, -12.078268, 0
513, 2913986733, -0.17085628, 0.80763936, -0.47676584, -0.30202347, -7.1746216, 15.133573, -11.637838, 0
514, 2914003400, -0.18362723, 0.8037357, -0.46657106, -0.3203102, -6.769992, 13.648249, -10.313255, 0
516, 2914036734, -0.22055618, 0.7845778, -0.44308951, -0.37344527, -5.452761, 5.951677, -9.200093, 0
518, 2914070068, -0.2599957, 0.75122225, -0.41804838, -0.4396587, -5.6994624, 5.5477986, -6.8311844, 0
520, 2914103402, -0.2978086, 0.7054006, -0.3810917, -0.5181563, -7.630896, 4.159911, -2.9519114, 0
521, 2914120069, -0.3135775, 0.6784714, -0.35423183, -0.56201655, -6.400163, 3.7630754, 0.10145092, 0
524, 2914170070, -0.37453166, 0.58335984, -0.26692876, -0.6694502, -0.60502344, 0.45409495, 6.508091, 0
525, 2914186737, -0.40462226, 0.55224603, -0.23602244, -0.6896344, -3.0656452, -4.427898, 9.237722, 0
528, 2914236738, -0.46474075, 0.46833408, -0.16297197, -0.7335641, 5.572935, -20.43226, 10.51453, 0
529, 2914253405, -0.47330436, 0.44880292, -0.14084025, -0.74479496, 4.20961, -21.672953, 5.892309, 0
530, 2914270072, -0.47857615, 0.4348449, -0.12023819, -0.7532693, 5.203234, -19.87402, 1.7466288, 0
533, 2914320073, -0.4758325, 0.4119274, -0.08158569, -0.77281326, 7.887398, -22.235533, -6.113842, 0
535, 2914353407, -0.46060675, 0.42160454, -0.058488533, -0.7788884, 13.338053, -21.634111, -8.366368, 0
536, 2914370074, -0.44957978, 0.4274722, -0.061412074, -0.78190213, 10.717858, -21.459393, -12.65202, 0
539, 2914420075, -0.39778578, 0.47429398, -0.10041944, -0.77892536, 23.931883, -5.7292223, 5.859845, 0
541, 2914453409, -0.40275085, 0.4603346, -0.13964169, -0.77870464, -12.2734785, -2.239631, 7.896164, 0
543, 2914486743, -0.40734935, 0.45494515, -0.13511953, -0.7802763, 0.10862294, 1.702796, 0.2398138, 0
544, 2914503410, -0.40759057, 0.45573053, -0.13354486, -0.7799632, -0.7752492, 0.7586653, 0.04406643, 0
545, 2914520077, -0.40631974, 0.45914906, -0.13380495, -0.77857536, -0.019267375, 1.4983827, 0.09356022, 0
548, 2914570078, -0.3936406, 0.4860059, -0.1498525, -0.7657589, -1.0643258, 0.9137031, -0.3724718, 0
549, 2914586745, -0.3870863, 0.5002067, -0.15781048, -0.7583208, -0.60797143, 0.28613883, -0.4077425, 0
551, 2914620079, -0.37182105, 0.5321151, -0.17400658, -0.7404873, -0.2455658, 0.41919062, -0.26055908, 0
552, 2914636746, -0.36240122, 0.5501516, -0.18369058, -0.7295569, -0.0012270303, 0.49515027, -0.13540554, 0
553, 2914653413, -0.35216793, 0.5687355, -0.1949211, -0.7173008, 0.7776628, -0.18481436, -0.12266922, 0
555, 2914686747, -0.3322721, 0.6002893, -0.21729144, -0.6942832, 1.4639769, -1.1445315, 0.19379902, 0
556, 2914703414, -0.3229944, 0.61490685, -0.229103, -0.6819626, -0.56859463, 0.65666115, 0.053801537, 0
557, 2914720081, -0.31143907, 0.634718, -0.24693605, -0.6626902, -1.370575, 3.305309, -0.38975716, 0
560, 2914770082, -0.23321168, 0.72985494, -0.33048564, -0.55109024, -3.7959278, 6.419762, 8.332649, 0
563, 2914820083, -0.177057, 0.7671576, -0.3837022, -0.48258647, 4.428064, 9.104554, 20.34366, 0
564, 2914836750, -0.16995518, 0.7672584, -0.39293182, -0.47752625, 15.093939, 1.9476079, 14.717274, 0
566, 2914870084, -0.15447123, 0.7831752, -0.4095717, -0.44161457, -0.3962878, 7.3480196, 3.2751236, 0
567, 2914886751, -0.13978004, 0.79347754, -0.4161245, -0.4215356, -1.4846951, 12.7681875, 0.8735924, 0
568, 2914903418, -0.12484474, 0.80241853, -0.42407846, -0.40086517, -3.7726085, 12.991416, -3.3117247, 0
571, 2914953419, -0.071705475, 0.8277999, -0.43119705, -0.35167, -6.5415072, 10.055705, -7.779914, 0
572, 2914970086, -0.058424473, 0.8334998, -0.43108308, -0.34063068, -4.7983403, 8.143724, -8.743539, 0
574, 2915003420, -0.04246451, 0.8414817, -0.43220314, -0.32140744, -4.4133053, 5.281982, -10.148961, 0
575, 2915020087, -0.03895012, 0.8446558, -0.43073517, -0.31544185, -4.4923964, 4.664953, -9.572604, 0
579, 2915086755, -0.06418101, 0.84713334, -0.43157554, -0.30329108, -4.6059833, 0.3205242, -5.4971104, 0
580, 2915103422, -0.07032043, 0.8458717, -0.43414116, -0.30178598, -5.2236943, 0.7926079, -5.8776984, 0
582, 2915136756, -0.07808166, 0.8404256, -0.43953416, -0.30723748, -5.774433, 5.331462, -6.982197, 0
583, 2915153423, -0.086620435, 0.8355072, -0.44196594, -0.31478217, -4.387682, 8.002481, -7.024287, 0
584, 2915170090, -0.10287718, 0.82814443, -0.44576326, -0.32385993, -3.843378, 9.395149, -6.839813, 0
586, 2915203424, -0.14859034, 0.805375, -0.45505166, -0.3495956, -4.509739, 6.9701533, -6.638659, 0
587, 2915220091, -0.1698071, 0.79088646, -0.46020424, -0.36588722, -4.205896, 8.11066, -6.379449, 0
589, 2915253425, -0.21545614, 0.7541117, -0.46460375, -0.41113827, -3.671027, 12.427719, -4.0221586, 0
590, 2915270092, -0.24066456, 0.73156554, -0.46360832, -0.43812853, -2.1910412, 10.921717, -3.250317, 0
593, 2915320093, -0.31326112, 0.66197973, -0.43930128, -0.5202514, -1.2899013, 9.894692, 1.0385752, 0
595, 2915353427, -0.35064346, 0.6159783, -0.40379208, -0.5784193, -2.04005, 10.062129, 6.091442, 0
597, 2915386761, -0.37570992, 0.56844854, -0.3475598, -0.6441331, -2.5565197, 4.4652996, 8.95809, 0
598, 2915403428, -0.3854134, 0.5445512, -0.31502804, -0.6750368, 1.2331688, 2.7806344, 10.6660595, 0
601, 2915453429, -0.43809074, 0.47364888, -0.23419638, -0.7272431, 0.8553876, -4.7860203, 11.143873, 0
602, 2915470096, -0.45557013, 0.45185056, -0.20964372, -0.7377896, -0.6542724, -9.009307, 12.812147, 0
603, 2915486763, -0.46763852, 0.42965776, -0.18307967, -0.75045806, -0.3692935, -12.78546, 12.453882, 0
605, 2915520097, -0.48022568, 0.3883171, -0.1274156, -0.7761155, 3.4072776, -14.1518135, 5.3569403, 0
607, 2915553431, -0.4919066, 0.35030282, -0.096577905, -0.7911924, 6.1885777, -13.550515, 2.7883358, 0
609, 2915586765, -0.5030244, 0.3255617, -0.058039077, -0.7985014, 5.754169, -16.860239, -0.74995995, 0
610, 2915603432, -0.50955737, 0.31480154, -0.037079193, -0.79992086, 7.5889897, -16.39349, -4.823395, 0
613, 2915653433, -0.51932347, 0.3274131, -0.015321491, -0.7892187, 5.53774, -20.08619, -16.635117, 0
614, 2915670100, -0.5214277, 0.34743378, -0.009992219, -0.7792945, 6.3758793, -21.586115, -12.888307, 0
616, 2915703434, -0.5179279, 0.37847388, -0.011209963, -0.7670591, 5.443064, -19.586607, -14.126699, 0
617, 2915720101, -0.5055898, 0.39522967, -0.019648109, -0.76667035, 5.2348185, -20.33374, -13.235874, 0
618, 2915736768, -0.4870108, 0.41585138, -0.028920883, -0.7674951, 9.03395, -19.949167, -9.927993, 0
620, 2915770102, -0.4511394, 0.45407268, -0.054226782, -0.76638615, 14.619664, -17.307903, 0.20000553, 0
622, 2915803436, -0.42492917, 0.50141966, -0.075164855, -0.7499071, 19.569162, -15.504255, 2.455288, 0
624, 2915836770, -0.46024135, 0.42614186, -0.1366019, -0.7667581, -43.97498, 7.8003893, 25.956318, 0
625, 2915853437, -0.46192434, 0.4067238, -0.14022392, -0.77558756, -0.2693972, 5.0524206, 0.6693945, 0
626, 2915870104, -0.46146506, 0.39573908, -0.14220513, -0.78116286, -2.5083017, 2.099944, -2.3034286, 0
628, 2915903438, -0.45754275, 0.39360493, -0.1443996, -0.7841401, -2.2757015, 1.5206006, 0.82290745, 0
629, 2915920105, -0.45214266, 0.40991244, -0.15040724, -0.77776194, -2.0211687, 3.6236818, -0.2248354, 0
630, 2915936772, -0.4419015, 0.43773678, -0.16200791, -0.766068, -2.0587018, 3.1809263, -0.19365025, 0
632, 2915970106, -0.41283002, 0.4982446, -0.19500105, -0.73708564, 0.18451068, -0.34024495, -0.3935051, 0
633, 2915986773, -0.39757863, 0.5243019, -0.2128944, -0.7222962, 1.9405934, -0.7126475, -0.83997726, 0
634, 2916003440, -0.38125956, 0.5493141, -0.23382545, -0.70584553, 2.0509446, -0.018063199, -0.6388931, 0
637, 2916053441, -0.30384707, 0.6555578, -0.3342998, -0.605113, -3.6476595, 4.484642, 2.496849, 0
638, 2916070108, -0.26266328, 0.6983229, -0.36569902, -0.5564299, -4.227136, 3.9942186, 5.268097, 0
640, 2916103442, -0.18984568, 0.7650492, -0.40866566, -0.46005198, -5.297362, 16.294756, 15.499884, 0
643, 2916153443, -0.16871521, 0.78205866, -0.42855042, -0.4198346, 9.914049, 17.979427, 17.55846, 0
644, 2916170110, -0.1671387, 0.7926252, -0.4327041, -0.39569497, -3.1500866, 8.952388, 2.2629452, 0
645, 2916186777, -0.15168437, 0.80443186, -0.43725258, -0.37240893, -6.339506, 17.510462, 2.3771925, 0
647, 2916220111, -0.13325894, 0.82054, -0.44859946, -0.32819465, -6.775567, 15.895963, -10.370757, 0
648, 2916236778, -0.12844111, 0.825928, -0.4549296, -0.30721635, -10.472469, 14.00499, -11.91625, 0
649, 2916253445, -0.12414566, 0.8288328, -0.45917752, -0.29457933, -10.58758, 11.933199, -11.886854, 0
652, 2916303446, -0.11933563, 0.8276304, -0.4643365, -0.29184836, -4.587807, 6.81818, -9.383946, 0
653, 2916320113, -0.12461555, 0.8251248, -0.46456122, -0.29634446, -3.103194, 6.0468283, -9.111113, 0
655, 2916353447, -0.1455777, 0.81579274, -0.46644714, -0.30937597, -6.0414715, 2.4604673, -9.368316, 0
656, 2916370114, -0.15344779, 0.8092294, -0.4655905, -0.32376552, -7.8349776, 3.8824544, -8.303017, 0
659, 2916420115, -0.18453856, 0.76839757, -0.45998076, -0.40487713, -0.43135297, 4.9525657, -2.4487176, 0
660, 2916436782, -0.20233382, 0.74913466, -0.4608418, -0.43067414, 2.346112, 4.1558113, -2.543714, 0
661, 2916453449, -0.22343381, 0.73157346, -0.46068275, -0.45016187, 2.5359905, 3.6242716, -3.2395644, 0
663, 2916486783, -0.269195, 0.7020919, -0.45161602, -0.48025092, -1.1871197, 7.176769, -0.62947845, 0
664, 2916503450, -0.2913687, 0.6866, -0.4407694, -0.49940357, -3.8430746, 6.8633356, 0.8778715, 0
667, 2916553451, -0.3371756, 0.632543, -0.40069753, -0.57064885, 1.231232, 2.8689291, 2.440484, 0
668, 2916570118, -0.3530108, 0.61394113, -0.38763604, -0.59008026, 0.70501196, 2.7615383, 3.3606825, 0
670, 2916603452, -0.38893285, 0.5763005, -0.3605953, -0.6217531, 0.32645968, 1.8116409, 2.1903944, 0
671, 2916620119, -0.4067212, 0.5572524, -0.34551337, -0.63613284, -1.5594604, 1.4605215, 3.4170227, 0
672, 2916636786, -0.4220879, 0.5378992, -0.32869875, -0.6515059, -0.8949566, -0.058080737, 3.0124369, 0
675, 2916686787, -0.46112257, 0.48678473, -0.27837327, -0.68768585, 1.3505787, -0.71787286, 4.405319, 0
676, 2916703454, -0.4756677, 0.47110644, -0.26449135, -0.69414705, 0.58415747, -0.8306148, 5.0168552, 0
678, 2916736788, -0.50190896, 0.44045308, -0.22895218, -0.708284, -1.9093094, -5.090954, 12.631346, 0
679, 2916753455, -0.51181704, 0.4243607, -0.20009865, -0.7196657, -1.0321606, -9.924431, 8.8758335, 0
682, 2916803456, -0.52568394, 0.38679338, -0.1278096, -0.7467992, 3.3129737, -13.00772, -1.1603918, 0
683, 2916820123, -0.52604175, 0.37941325, -0.1149719, -0.75239885, 2.583951, -13.180879, -1.606535, 0
684, 2916836790, -0.5250701, 0.37646124, -0.101419225, -0.7564982, 3.1192203, -14.548028, -0.7366495, 0
686, 2916870124, -0.52278465, 0.37055057, -0.07597545, -0.7639457, 7.6556334, -15.514721, -2.1801968, 0
687, 2916886791, -0.52152365, 0.36420733, -0.07050525, -0.7683696, 8.202478, -15.047258, -4.7731075, 0
688, 2916903458, -0.5192544, 0.35858575, -0.06958524, -0.7726228, 7.38927, -14.254069, -7.708666, 0
691, 2916953459, -0.50414103, 0.37263373, -0.074784316, -0.7754934, 6.215287, -10.286839, -7.5297136, 0
692, 2916970126, -0.49820915, 0.3845253, -0.080767736, -0.7729175, 6.0226727, -9.675355, -4.946127, 0
694, 2917003460, -0.4871326, 0.40654293, -0.09253277, -0.76737165, 4.086052, -9.819119, -2.1025958, 0
697, 2917053461, -0.46339887, 0.44614583, -0.099739924, -0.7591206, 6.426308, -10.585781, -3.3614273, 0
698, 2917070128, -0.45476642, 0.4621735, -0.106350444, -0.7538367, 9.145332, -10.853509, -4.0867653, 0
699, 2917086795, -0.44694626, 0.48069897, -0.11917173, -0.744958, 12.372349, -11.851865, 0.3503809, 0
701, 2917120129, -0.4245984, 0.46751595, -0.16844377, -0.7568147, -4.069624, -7.464288, 9.145414, 0
702, 2917136796, -0.4239255, 0.4624228, -0.17534523, -0.7587512, -12.949542, 11.195905, -2.418384, 0
703, 2917153463, -0.42118526, 0.4724832, -0.18596679, -0.75151575, -2.9693215, -0.9078078, 0.721962, 0
705, 2917186797, -0.41290075, 0.51050067, -0.20378256, -0.7262037, 1.4778442, 1.1386032, -0.4857769, 0
706, 2917203464, -0.40436274, 0.5327198, -0.2155344, -0.71150696, 1.268392, 1.5039798, -0.17487049, 0
707, 2917220131, -0.39195615, 0.5549496, -0.2295011, -0.6969415, 2.097288, 1.1356043, -0.11086178, 0
709, 2917253465, -0.35996124, 0.6017461, -0.26634228, -0.6613534, -0.37449276, -0.065032214, -0.1898098, 0
711, 2917286799, -0.31362468, 0.6648569, -0.3121452, -0.60180324, -2.4689505, 4.1923633, 1.0824575, 0
713, 2917320133, -0.24254006, 0.7440232, -0.36810315, -0.50209653, -5.4021893, 10.551156, 13.209372, 0
714, 2917336800, -0.2108813, 0.7739738, -0.39092168, -0.45129904, -6.7050686, 17.78436, 22.614857, 0
715, 2917353467, -0.19606386, 0.7884589, -0.39822492, -0.42579985, 1.5691853, 16.867708, 35.55691, 0
717, 2917386801, -0.19898167, 0.806447, -0.41610456, -0.37000495, -11.200859, 22.421806, 16.498178, 0
718, 2917403468, -0.17545602, 0.8224989, -0.42235744, -0.33811545, -9.214578, 16.170158, 8.660074, 0
721, 2917453469, -0.10285096, 0.8506095, -0.44499904, -0.26049662, -11.00987, 20.880169, -10.503681, 0
722, 2917470136, -0.07638777, 0.8560511, -0.45074105, -0.24118657, -10.283472, 17.37718, -14.903397, 0
724, 2917503470, -0.03531546, 0.86080337, -0.4614143, -0.21181147, -3.5252662, 9.934077, -17.00731, 0
726, 2917536804, -0.016314218, 0.8623683, -0.46559846, -0.19816643, -1.7757859, 5.010774, -15.973438, 0
728, 2917570138, -0.012153588, 0.86526394, -0.45967194, -0.19967301, -1.1460986, 1.1281376, -13.80222, 0
729, 2917586805, -0.014754455, 0.8668415, -0.4543692, -0.20472832, -2.4441204, -0.009709626, -12.321638, 0
730, 2917603472, -0.020486405, 0.86772376, -0.44808587, -0.21413057, -4.5443807, 0.9065635, -9.927937, 0
733, 2917653473, -0.057434585, 0.85565805, -0.44243222, -0.26230007, -4.1686044, -3.296683, -3.0647883, 0
734, 2917670140, -0.06569454, 0.8486984, -0.44292575, -0.28144136, -4.2491636, -3.8030434, -2.2071195, 0
736, 2917703474, -0.07448428, 0.8357988, -0.44029117, -0.31942654, -1.2488171, 0.54401267, 1.1007433, 0
741, 2917786809, -0.11331598, 0.8026959, -0.43618387, -0.39061415, -3.649249, 1.6290697, -2.642016, 0
742, 2917803476, -0.12213323, 0.79354364, -0.43912137, -0.40316412, -3.1649563, 4.706764, -2.7365646, 0
744, 2917836810, -0.15429579, 0.7685151, -0.44590542, -0.43213755, -3.0145442, 7.6121325, -2.7011352, 0
745, 2917853477, -0.17392498, 0.7527676, -0.4478575, -0.45001295, -3.136022, 5.3249054, -3.8004084, 0
746, 2917870144, -0.19090433, 0.7370952, -0.44750994, -0.46901825, -3.224033, 5.0945544, -4.063925, 0
748, 2917903478, -0.22382805, 0.70049095, -0.4437482, -0.5121503, -2.7007666, 8.980552, -2.056529, 0
749, 2917920145, -0.24203104, 0.6778166, -0.44107538, -0.5361298, -1.9194292, 9.1121435, -1.4393597, 0
751, 2917953479, -0.28062287, 0.6298874, -0.42650086, -0.5853091, -0.031823773, 8.907409, 0.6370268, 0
752, 2917970146, -0.29917815, 0.6059106, -0.41455534, -0.6095127, -0.01764009, 7.7921157, 1.5699329, 0
753, 2917986813, -0.31593004, 0.5831977, -0.3991287, -0.63305753, 0.5727021, 7.1891828, 2.5599365, 0
757, 2918053481, -0.3894554, 0.48913828, -0.31882787, -0.71233, -0.9331277, 5.2255425, 9.214539, 0
759, 2918086815, -0.42395636, 0.43719536, -0.2689665, -0.7461738, -0.100893304, 1.0038117, 11.063808, 0
760, 2918103482, -0.43702498, 0.41176707, -0.2431367, -0.76179963, 0.7790061, -0.6750811, 11.832544, 0
761, 2918120149, -0.4478004, 0.38776228, -0.21621087, -0.7761217, 1.5512813, -2.319599, 11.659531, 0
763, 2918153483, -0.46362606, 0.34336856, -0.15929013, -0.8011072, 3.0074728, -5.7075963, 12.077854, 0
764, 2918170150, -0.47019258, 0.3216899, -0.12917593, -0.811631, 4.367536, -7.4491167, 11.246374, 0
765, 2918186817, -0.4782922, 0.2992394, -0.10030498, -0.81952924, 5.053144, -9.196058, 8.18503, 0
767, 2918220151, -0.49842992, 0.25515133, -0.05418634, -0.8267566, 4.8438554, -11.607447, 2.2616549, 0
768, 2918236818, -0.50876784, 0.23445289, -0.037778627, -0.8275004, 4.166768, -13.200995, 0.0033302307, 0
771, 2918286819, -0.53485274, 0.18920003, 3.41438E-4, -0.8234883, 2.0417504, -13.369195, -9.670301, 0
773, 2918320153, -0.5488726, 0.18424706, 0.013610268, -0.8152322, 3.7644548, -12.437598, -12.97226, 0
775, 2918353487, -0.56488734, 0.19460309, 0.008911796, -0.8018411, 6.242024, -14.319315, -14.06584, 0
776, 2918370154, -0.5748008, 0.20319334, 5.985771E-4, -0.7926621, 5.808869, -15.918073, -13.870155, 0
778, 2918403488, -0.58850855, 0.22381921, -0.022596138, -0.77656245, 4.04951, -17.973074, -13.644479, 0
779, 2918420155, -0.58833575, 0.23693757, -0.035555124, -0.7723046, 2.8008502, -17.91094, -12.99778, 0
780, 2918436822, -0.5828506, 0.25467968, -0.046832524, -0.7702123, 2.719906, -17.970392, -11.4861965, 0
782, 2918470156, -0.5604036, 0.30474344, -0.06252258, -0.7675721, 6.565766, -18.105894, -6.312003, 0
783, 2918486823, -0.54717714, 0.33217165, -0.06852837, -0.765219, 9.529749, -18.435709, -1.803134, 0
786, 2918536824, -0.5159947, 0.39288723, -0.10289222, -0.75418776, 14.5658455, -18.199516, -0.1936779, 0
787, 2918553491, -0.50967777, 0.41573244, -0.12514845, -0.74278516, 16.000252, -20.070574, 7.2030544, 0
788, 2918570158, -0.5097935, 0.43676507, -0.14802799, -0.726245, 16.432243, -21.652664, 15.660791, 0
790, 2918603492, -0.52269006, 0.42547145, -0.18929842, -0.71409535, -52.464584, 14.059861, 14.518969, 0
791, 2918620159, -0.5173195, 0.41957346, -0.18129197, -0.72351146, 1.9147255, 46.065704, -8.487026, 0
794, 2918670160, -0.48793936, 0.46572214, -0.20482719, -0.70926774, -3.0573244, 2.985093, 0.16767311, 0
795, 2918686827, -0.47032738, 0.50156224, -0.21724264, -0.6928419, -0.10722364, 4.138132, -0.8539419, 0
796, 2918703494, -0.4456048, 0.5452598, -0.24074322, -0.6679581, 0.08931589, 4.3108363, 0.3822508, 0
798, 2918736828, -0.37227097, 0.6533573, -0.30031264, -0.5868117, -1.9517243, 0.050657425, 10.350807, 0
800, 2918770162, -0.2556074, 0.75639194, -0.32916057, -0.504169, 5.579733, -12.415733, 44.33174, 0
802, 2918803496, -0.185221, 0.8025522, -0.38111204, -0.4199448, 2.5223098, 48.680927, 27.069653, 0
805, 2918853497, -0.16397968, 0.8555256, -0.42719162, -0.2422622, -21.282747, 27.582882, -4.3140116, 0
806, 2918870164, -0.14553326, 0.8661098, -0.4349664, -0.19868384, -18.761833, 24.398746, -12.229238, 0
807, 2918886831, -0.12561493, 0.8724664, -0.44339666, -0.16254157, -16.515251, 20.906834, -17.354206, 0
809, 2918920165, -0.079192385, 0.87675995, -0.45946965, -0.1179197, -9.796587, 15.835843, -20.54485, 0
810, 2918936832, -0.05760575, 0.8752832, -0.46862903, -0.104617104, -6.1706896, 14.606897, -21.042686, 0
811, 2918953499, -0.04079036, 0.8727004, -0.47687915, -0.09650686, -5.1017585, 14.788279, -22.206276, 0
813, 2918986833, -0.021203374, 0.8675954, -0.4859936, -0.103131145, -2.7990267, 8.703434, -21.739323, 0
815, 2919020167, -0.019292576, 0.8614094, -0.4915076, -0.1265657, -1.2883902, 9.637332, -19.967098, 0
817, 2919053501, -0.046861652, 0.8536061, -0.49216625, -0.16410384, -1.9079763, 6.7863092, -17.21891, 0
818, 2919070168, -0.06710805, 0.848674, -0.48948133, -0.18882206, -3.9344015, 9.552955, -15.664996, 0
821, 2919120169, -0.14366774, 0.8157579, -0.46814933, -0.30778527, -4.1522627, 8.182816, -3.0316148, 0
822, 2919136836, -0.17157885, 0.79632825, -0.4604312, -0.3527351, -4.079775, 7.8043036, 0.610384, 0
823, 2919153503, -0.20101668, 0.7739124, -0.45051366, -0.39709753, -2.9366915, 7.4337, 5.659418, 0
825, 2919186837, -0.25311592, 0.7266175, -0.4205643, -0.4807097, -6.4040365, -1.0882924, 9.446724, 0
826, 2919203504, -0.2671897, 0.70282954, -0.4013958, -0.52298987, -6.2635145, -0.8657636, 9.248104, 0
827, 2919220171, -0.27824774, 0.6754586, -0.3843326, -0.56446373, -1.893013, 1.0146085, 9.763626, 0
830, 2919270172, -0.3386804, 0.5912555, -0.34771106, -0.64405483, 0.67460614, -0.32534233, 8.160278, 0
832, 2919303506, -0.3676154, 0.5561981, -0.3111398, -0.6772677, 0.8153071, -3.2585633, 9.368393, 0
833, 2919320173, -0.37440333, 0.53914255, -0.2948579, -0.69440854, 3.866979, -2.5787401, 11.933723, 0
834, 2919336840, -0.38133675, 0.5180874, -0.2818298, -0.7118544, 5.543797, -2.531354, 11.907148, 0
837, 2919386841, -0.42754403, 0.45483947, -0.23200062, -0.74598926, 4.8682885, -2.4842615, 4.7790136, 0
838, 2919403508, -0.44779384, 0.43608692, -0.21548952, -0.7502468, 3.06432, -3.3596568, 4.1591005, 0
840, 2919436842, -0.4867008, 0.40083668, -0.18520708, -0.75375575, 2.0638144, -5.581649, 6.5337963, 0
841, 2919453509, -0.5052424, 0.38027123, -0.17069651, -0.75563455, 1.2542883, -7.188523, 7.001459, 0
842, 2919470176, -0.5218033, 0.35797188, -0.15617476, -0.75840884, 0.17332144, -7.915655, 4.3543854, 0
845, 2919520177, -0.5460804, 0.30583233, -0.11454052, -0.7714533, 1.0710115, -6.4280896, -0.51813126, 0
846, 2919536844, -0.54935604, 0.29320586, -0.104246914, -0.775479, 2.8207953, -5.5674, -0.7638235, 0
848, 2919570178, -0.55886084, 0.26679966, -0.092936106, -0.77964896, 3.4733675, -5.966105, 1.9852209, 0
849, 2919586845, -0.5651594, 0.25276992, -0.08873785, -0.7802724, 2.460405, -4.6403985, 0.93107224, 0
850, 2919603512, -0.571792, 0.24024475, -0.08422634, -0.77989703, 1.108099, -3.9882543, 0.22819996, 0
853, 2919653513, -0.5880351, 0.2120184, -0.06496561, -0.7778428, -1.470886, -4.7665095, -2.2341824, 0
854, 2919670180, -0.59040534, 0.20547494, -0.057308394, -0.778405, -1.3894007, -5.3093534, -3.4070039, 0
856, 2919703514, -0.5899871, 0.19482559, -0.04217618, -0.78241694, 0.79567355, -7.300464, -4.2317147, 0
857, 2919720181, -0.58836555, 0.18932147, -0.035395287, -0.78532, 1.303828, -7.61748, -5.6411834, 0
860, 2919770182, -0.5821713, 0.17993617, -0.019035935, -0.7926753, 1.6020749, -9.692018, -9.696393, 0
861, 2919786849, -0.57796395, 0.17909025, -0.016564768, -0.7959944, 2.4941869, -10.158944, -10.960895, 0
863, 2919820183, -0.56551695, 0.1862162, -0.01896347, -0.8032132, 5.029606, -10.010284, -11.716698, 0
864, 2919836850, -0.55954957, 0.19433546, -0.023819415, -0.80533683, 5.9756265, -9.659941, -10.224843, 0
865, 2919853517, -0.55512834, 0.20465374, -0.030612346, -0.80561113, 5.700765, -8.879176, -9.28791, 0
867, 2919886851, -0.54951745, 0.2299606, -0.0492447, -0.8016986, 5.207655, -9.604338, -5.9980984, 0
868, 2919903518, -0.5467938, 0.24464957, -0.05740921, -0.7986641, 5.898392, -10.007793, -4.526808, 0
869, 2919920185, -0.5430015, 0.2607162, -0.06608598, -0.7954911, 8.085848, -9.479615, -3.9725447, 0
871, 2919953519, -0.5393998, 0.30055693, -0.0875847, -0.78169, 6.4047346, -8.991641, -3.846724, 0
872, 2919970186, -0.5386695, 0.32730094, -0.09701227, -0.77025616, 4.9167924, -10.101696, -1.967339, 0
875, 2920020187, -0.524288, 0.39058313, -0.12919495, -0.7455686, 11.081519, -14.740167, 5.4221334, 0
876, 2920036854, -0.5175406, 0.40444, -0.1459381, -0.7397831, 12.824788, -16.608265, 1.4198656, 0
877, 2920053521, -0.51234424, 0.42921317, -0.16470884, -0.7253602, 13.269034, -19.414906, -0.08479595, 0
879, 2920086855, -0.5121241, 0.42730066, -0.18830892, -0.72088814, -43.55749, 13.256819, 11.081785, 0
880, 2920103522, -0.5106999, 0.42615113, -0.1830987, -0.72391474, 3.3172011, 8.816481, 2.9366121, 0
883, 2920153523, -0.48357722, 0.47936773, -0.20624167, -0.7027238, -0.7100241, 1.6254425, 0.2226286, 0
884, 2920170190, -0.4671542, 0.51056087, -0.2171887, -0.6884188, -0.8549376, 4.1056333, -0.27025223, 0
886, 2920203524, -0.41413882, 0.60246086, -0.2731422, -0.6252361, -0.7463149, 6.374644, 2.1526146, 0
887, 2920220191, -0.37790406, 0.6555109, -0.31366614, -0.5736764, -3.091017, 7.1593833, 6.758217, 0
890, 2920270192, -0.2596414, 0.76222175, -0.38616154, -0.44997832, 15.310509, 6.1711335, 38.967697, 0
891, 2920286859, -0.23890221, 0.7832442, -0.4108719, -0.40079355, 16.530445, 21.072542, 43.558994, 0
892, 2920303526, -0.23750243, 0.7999362, -0.4257408, -0.34990922, -5.08994, 14.9464655, 13.0267315, 0
894, 2920336860, -0.19450499, 0.8366918, -0.44608137, -0.25124246, -12.889433, 27.914421, 3.77427, 0
895, 2920353527, -0.17162766, 0.8479133, -0.45401502, -0.21319918, -15.8900795, 25.503933, -5.187951, 0
896, 2920370194, -0.13775498, 0.8583985, -0.45779082, -0.18601105, -16.9027, 21.016136, -12.5209055, 0
900, 2920436862, 0.00291357, 0.8655078, -0.48046395, -0.14155927, -4.2195654, 10.066356, -20.12603, 0
902, 2920470196, 0.04447641, 0.8608789, -0.4854743, -0.14567426, -1.7992243, 7.5709953, -19.949978, 0
904, 2920503530, 0.05525756, 0.85818136, -0.48625883, -0.15498629, -1.3186398, 5.255886, -18.8422, 0
906, 2920536864, 0.03925731, 0.8586716, -0.4816124, -0.1708463, -3.4455774, 5.1074967, -17.80089, 0
907, 2920553531, 0.024587369, 0.85826516, -0.4783653, -0.18422766, -3.6444972, 4.2232428, -16.4872, 0
908, 2920570198, 0.007315711, 0.8563448, -0.47532657, -0.20169632, -3.8325002, 5.1417947, -15.362505, 0
910, 2920603532, -0.04080497, 0.84359276, -0.4696147, -0.2571868, -5.3155236, 7.9990897, -10.167931, 0
911, 2920620199, -0.06534821, 0.8315354, -0.46538767, -0.2961244, -4.904981, 5.3223047, -5.2222605, 0
913, 2920653533, -0.09867766, 0.7996144, -0.44779953, -0.3877528, -1.2790475, 5.541668, 5.149128, 0
914, 2920670200, -0.114869736, 0.7820364, -0.43313417, -0.43314618, 2.3631113, 3.2344036, 8.91497, 0
917, 2920720201, -0.16636916, 0.7394851, -0.3798549, -0.53027356, -2.2443798, -4.509431, 7.4467716, 0
919, 2920753535, -0.19210689, 0.7111028, -0.34962416, -0.5789538, -0.9169899, -0.09994583, 5.6371937, 0
921, 2920786869, -0.23085761, 0.6739433, -0.33854136, -0.61472905, 0.21523471, 0.443849, 3.2862759, 0
922, 2920803536, -0.25194278, 0.6566403, -0.33188522, -0.6286473, -0.76917255, 0.51053554, 3.240203, 0
923, 2920820203, -0.2727533, 0.64003086, -0.32363176, -0.6412686, -0.5113485, 1.4816407, 2.8382854, 0
925, 2920853537, -0.31673822, 0.60282326, -0.3103797, -0.6632815, -0.07622373, 3.5647743, 3.4655209, 0
926, 2920870204, -0.3397775, 0.58151656, -0.30436772, -0.6736075, 0.09510655, 4.156964, 4.1469183, 0
927, 2920886871, -0.36304766, 0.55857825, -0.29818398, -0.68357146, 0.75478673, 3.9753304, 3.8200111, 0
929, 2920920205, -0.40819967, 0.5123508, -0.28443956, -0.6999721, 1.5777619, 3.4269764, 3.8221598, 0
930, 2920936872, -0.4290867, 0.49048144, -0.27662423, -0.7062497, 1.7723728, 3.2298124, 4.1431656, 0
934, 2921003540, -0.4985347, 0.4034784, -0.22726943, -0.73281235, 2.2427678, -0.14532879, 6.9530926, 0
935, 2921020207, -0.5110022, 0.38285545, -0.21038213, -0.74029374, 2.703159, -0.6878756, 7.8864784, 0
937, 2921053541, -0.53065294, 0.34711635, -0.16859318, -0.7546464, -0.84542656, -3.01903, 6.034029, 0
938, 2921070208, -0.5385226, 0.33095983, -0.14704517, -0.7608111, 0.5569163, -3.229161, 7.22398, 0
939, 2921086875, -0.5454188, 0.31158707, -0.12854499, -0.76740134, -0.46518332, -4.649107, 8.141001, 0
941, 2921120209, -0.55141956, 0.27392837, -0.08602518, -0.78326005, -1.9048387, -5.0494356, 5.030793, 0
942, 2921136876, -0.55102456, 0.2569138, -0.06275146, -0.79147106, -1.0329567, -5.651452, 4.178686, 0
944, 2921170210, -0.54847705, 0.22495048, -0.018744836, -0.8051185, 0.88979524, -7.1468744, 2.5032988, 0
945, 2921186877, -0.54711634, 0.20837335, 0.0012650122, -0.8107031, 1.5339057, -6.8707333, 1.1194048, 0
946, 2921203544, -0.54583836, 0.19246702, 0.019509625, -0.81525034, 1.2468189, -6.4565806, -1.0138502, 0
949, 2921253545, -0.5475371, 0.15307947, 0.062184867, -0.8203047, 1.683375, -6.0395465, -4.6767473, 0
950, 2921270212, -0.5494568, 0.143231, 0.071798585, -0.8200146, 1.3578774, -6.419028, -5.5023026, 0
952, 2921303546, -0.5531222, 0.12757395, 0.08858164, -0.818493, 2.2561815, -7.171563, -7.000956, 0
953, 2921320213, -0.55388165, 0.12045153, 0.094061226, -0.8184472, 1.8066136, -6.7179937, -8.234033, 0
954, 2921336880, -0.553643, 0.11513219, 0.09788633, -0.8189256, 1.8295152, -6.2349143, -8.467124, 0
956, 2921370214, -0.55242974, 0.10918684, 0.10271555, -0.8199671, 3.1803827, -5.212104, -8.376773, 0
957, 2921386881, -0.55262256, 0.10843658, 0.102505594, -0.81996286, 3.4815285, -5.3117943, -8.7138605, 0
958, 2921403548, -0.55332786, 0.10975508, 0.10096643, -0.81950283, 3.7303102, -6.5651507, -8.351071, 0
960, 2921436882, -0.5558386, 0.11143829, 0.09669993, -0.81808966, 2.6891916, -6.431404, -9.181744, 0
964, 2921503550, -0.55668914, 0.13562186, 0.07412873, -0.8162143, 3.5217257, -9.346778, -9.54905, 0
965, 2921520217, -0.55603427, 0.14848247, 0.06473232, -0.815221, 4.0223203, -9.627854, -9.73126, 0
967, 2921553551, -0.55604666, 0.18706624, 0.039256867, -0.80887204, 4.234983, -10.148278, -9.04246, 0
968, 2921570218, -0.5561614, 0.21188697, 0.022441652, -0.8032942, 5.0251656, -11.272901, -6.626713, 0
969, 2921586885, -0.5563543, 0.23680976, 0.0046995264, -0.79647106, 6.5950565, -13.886444, -2.6715121, 0
971, 2921620219, -0.5578305, 0.2807673, -0.036487028, -0.78016704, 6.5006723, -15.165878, -2.9423013, 0
972, 2921636886, -0.5570208, 0.30676532, -0.05933319, -0.76947993, 4.623593, -16.54177, -2.1689782, 0
973, 2921653553, -0.55218893, 0.3381049, -0.08223547, -0.7576324, 5.1190343, -16.76119, 2.0368118, 0
975, 2921686887, -0.53477395, 0.40196937, -0.1251226, -0.73265177, 8.102326, -15.217481, 11.290487, 0
976, 2921703554, -0.52613807, 0.4296916, -0.14729086, -0.71892005, 9.575491, -13.793975, 9.730324, 0
981, 2921786889, -0.49964854, 0.47018892, -0.22838233, -0.690733, -0.7579577, 2.7125435, -1.3745832, 0
983, 2921820223, -0.47250432, 0.51715183, -0.25921467, -0.6649048, 0.57747275, 2.2720547, -0.2564211, 0
984, 2921836890, -0.45124388, 0.550988, -0.28294232, -0.642442, 0.79269505, 2.3074315, -0.092609406, 0
985, 2921853557, -0.42302477, 0.59266925, -0.31417432, -0.6091671, -1.4811981, 3.7363083, 1.1216459, 0
987, 2921886891, -0.3435308, 0.6901063, -0.37190056, -0.51713336, -4.143709, 6.197024, 7.27302, 0
988, 2921903558, -0.30012897, 0.73642457, -0.39435393, -0.46052495, -5.371516, 8.376299, 13.337187, 0
989, 2921920225, -0.26460367, 0.7719304, -0.40757337, -0.40986493, -5.130027, 9.588868, 17.938246, 0
991, 2921953559, -0.2466832, 0.792581, -0.43157247, -0.3531355, 16.08941, 13.092711, 32.890717, 0
994, 2922003560, -0.21126568, 0.8266624, -0.4536372, -0.25730547, -4.2240677, 24.105179, 6.602289, 0
996, 2922036894, -0.1700494, 0.8456971, -0.4591541, -0.2122587, -8.088777, 19.968582, -4.6178446, 0
999, 2922086895, -0.0905842, 0.8633417, -0.46548927, -0.17248823, -5.7240295, 12.964388, -14.588198, 0
1000, 2922103562, -0.063312754, 0.8661735, -0.46717396, -0.16577189, -4.3041506, 10.317488, -15.921873, 0
1002, 2922136896, -0.01936514, 0.8679785, -0.4692103, -0.16148275, -2.4775925, 8.778569, -16.6465, 0
1003, 2922153563, -0.0061113033, 0.86862534, -0.46770394, -0.1634089, -2.6860378, 8.1426325, -16.740856, 0
1004, 2922170230, 0.0010491705, 0.87007135, -0.46372023, -0.16713852, -3.1798556, 6.809716, -16.772982, 0
1006, 2922203564, 6.8549113E-4, 0.8732084, -0.45207876, -0.1820118, -6.7696643, 5.276432, -16.66366, 0
1008, 2922236898, -0.02137865, 0.86843884, -0.4451076, -0.21733108, -6.646342, 6.2405095, -14.195422, 0
1010, 2922270232, -0.06525256, 0.84980947, -0.44806483, -0.2698161, -9.118228, 6.440404, -9.859259, 0
1011, 2922286899, -0.087925985, 0.83538926, -0.44789466, -0.30623677, -9.1866455, 6.406783, -7.1070576, 0
1012, 2922303566, -0.107043095, 0.81782186, -0.4460197, -0.34752342, -7.1437206, 3.3865194, -4.546805, 0
1015, 2922353567, -0.15248881, 0.759579, -0.42727235, -0.4660709, 3.0196915, 5.5650425, 2.9392176, 0
1016, 2922370234, -0.17576002, 0.7428441, -0.41737312, -0.49303934, 3.4490573, 4.732742, 4.8187075, 0
1018, 2922403568, -0.22631672, 0.7170889, -0.38434783, -0.53557265, -2.5513337, 2.737658, 6.300707, 0
1019, 2922420235, -0.24957746, 0.7024229, -0.3648053, -0.5578773, -3.5324657, 1.978346, 5.3173304, 0
1020, 2922436902, -0.27015772, 0.68412155, -0.34703597, -0.58185524, -3.9748633, 1.1175761, 4.9471674, 0
1023, 2922486903, -0.32371846, 0.6091281, -0.30707398, -0.65564585, 0.43508786, 3.6779935, 6.6986904, 0
1025, 2922520237, -0.36145473, 0.5507307, -0.28170174, -0.69762975, 2.8977592, 3.8499768, 7.6856956, 0
1026, 2922536904, -0.38013464, 0.52263474, -0.266371, -0.71511805, 3.1933944, 2.8292243, 8.113855, 0
1027, 2922553571, -0.3980759, 0.49671683, -0.2483983, -0.73013926, 3.8839998, 2.125505, 9.14901, 0
1029, 2922586905, -0.43442374, 0.44852203, -0.20863952, -0.7527089, 4.2998247, -0.7605963, 11.109318, 0
1030, 2922603572, -0.45193264, 0.42488113, -0.18752766, -0.7616186, 3.3017406, -3.3111145, 10.669243, 0
1031, 2922620239, -0.4674345, 0.4021728, -0.16563393, -0.76962596, 2.3122725, -5.359381, 7.742779, 0
1033, 2922653573, -0.49003813, 0.36081606, -0.12957989, -0.78286666, 2.9276388, -5.669461, 4.248456, 0
1034, 2922670240, -0.49920017, 0.34246856, -0.11501351, -0.78758067, 2.038399, -5.1878295, 4.0601006, 0
1035, 2922686907, -0.508353, 0.32639715, -0.099864274, -0.7906113, 1.5489511, -5.190843, 4.024706, 0
1038, 2922736908, -0.5317119, 0.2789466, -0.054772045, -0.7977896, 0.7490205, -7.0018234, 3.3813992, 0
1039, 2922753575, -0.53658247, 0.26244706, -0.040127557, -0.80099154, -0.1300602, -7.329342, 1.3803034, 0
1041, 2922786909, -0.541185, 0.23288684, -0.008957906, -0.80795956, 1.5880034, -8.237341, -0.3583536, 0
1042, 2922803576, -0.54199225, 0.21866064, 0.0054073078, -0.8114182, 2.7105129, -7.8274236, -2.5161414, 0
1045, 2922853577, -0.5493642, 0.1840287, 0.033390928, -0.8143796, 5.1270595, -7.3811603, -6.5885086, 0
1046, 2922870244, -0.5544487, 0.17480393, 0.036020204, -0.8128527, 4.731854, -7.8350883, -7.3975334, 0
1048, 2922903578, -0.56654793, 0.162102, 0.034600776, -0.8071841, 3.509594, -8.861933, -8.626742, 0
1049, 2922920245, -0.57214415, 0.15773608, 0.03094984, -0.8042444, 2.6661463, -8.743584, -9.173165, 0
1050, 2922936912, -0.57662, 0.15532978, 0.026119146, -0.80168355, 1.7651482, -8.921327, -9.198856, 0
1053, 2922986913, -0.58061475, 0.1643736, 0.0119667705, -0.79732144, 1.5570829, -8.0057125, -7.562078, 0
1054, 2923003580, -0.5801421, 0.17227612, 0.008552464, -0.7960401, 2.0281591, -8.138673, -7.4259915, 0
1056, 2923036914, -0.57833594, 0.19158237, -0.00158165, -0.7929807, 2.6413686, -8.906366, -7.7910595, 0
1057, 2923053581, -0.5764218, 0.2037341, -0.00804461, -0.7913042, 2.4953601, -9.55584, -7.6773925, 0
1058, 2923070248, -0.5732006, 0.21834885, -0.014390696, -0.7896547, 2.3907707, -10.002124, -7.2327175, 0
1062, 2923136916, -0.54718214, 0.29369655, -0.047608655, -0.7823454, 3.8655622, -13.288828, -3.6413264, 0
1064, 2923170250, -0.5246562, 0.33914396, -0.07066224, -0.77763814, 6.096488, -14.3311, -3.920229, 0
1065, 2923186917, -0.51012015, 0.36555433, -0.08743938, -0.77362686, 7.3819656, -13.914032, -0.83100414, 0
1068, 2923236918, -0.47621453, 0.4443334, -0.15302917, -0.74321365, 17.592897, -11.946102, 8.556692, 0
1069, 2923253585, -0.46978572, 0.4693901, -0.18600003, -0.7241375, 10.716356, -21.52882, 27.375347, 0
1070, 2923270252, -0.47757682, 0.4501191, -0.1813455, -0.73240954, -22.070465, -2.614045, 24.196259, 0
1072, 2923303586, -0.47903666, 0.4435897, -0.17801544, -0.7362467, 1.7866727, 3.904548, -1.3609467, 0
1073, 2923320253, -0.47151452, 0.4609861, -0.18762097, -0.7279842, -5.449849, 2.5456204, -0.6916094, 0
1075, 2923353587, -0.44106376, 0.5268951, -0.21745804, -0.6932193, -0.22781938, 3.4141893, -0.8480625, 0
1076, 2923370254, -0.4139393, 0.5746047, -0.24459328, -0.6623102, 0.51429725, 3.410809, 0.16382599, 0
1079, 2923420255, -0.30243862, 0.73515594, -0.34412816, -0.49964923, -5.4189167, 8.586556, 15.829447, 0
1080, 2923436922, -0.27378833, 0.764393, -0.3685426, -0.452677, -8.778669, 16.807955, 22.803753, 0
1081, 2923453589, -0.2528788, 0.77954113, -0.38013828, -0.4287885, -4.082846, 13.679975, 29.567036, 0
1083, 2923486923, -0.22559193, 0.7917154, -0.40167332, -0.40118626, 3.4388752, 17.167324, 11.434914, 0
1084, 2923503590, -0.2040834, 0.8058776, -0.41348144, -0.37140444, 1.1616263, 8.969753, 8.230009, 0
1085, 2923520257, -0.18401076, 0.81959486, -0.42543435, -0.33675927, -0.05716031, 22.255514, 8.866398, 0
1087, 2923553591, -0.1619335, 0.83766174, -0.45024824, -0.26338917, -8.239623, 21.164621, -1.4683962, 0
1088, 2923570258, -0.14576182, 0.8469512, -0.45637622, -0.23053205, -10.173147, 20.072672, -6.515213, 0
1089, 2923586925, -0.122819096, 0.856406, -0.4579316, -0.20440084, -10.736704, 17.557829, -10.9741125, 0
1091, 2923620259, -0.06458771, 0.8710617, -0.4550005, -0.17335317, -5.510189, 11.122495, -15.194683, 0
1093, 2923653593, -0.018894393, 0.87530994, -0.45632324, -0.15887573, -3.0320213, 9.327053, -16.399984, 0
1095, 2923686927, -2.3480039E-4, 0.87651616, -0.4530671, -0.16262384, -1.5075864, 5.686379, -15.238341, 0
1096, 2923703594, 0.0016148188, 0.87764055, -0.44891733, -0.16797261, -1.9123489, 3.4518173, -13.6748085, 0
1099, 2923753595, -1.5401049E-5, 0.88248193, -0.42842317, -0.1941032, -5.277638, 0.44070005, -9.544012, 0
1100, 2923770262, -0.0032214927, 0.8828302, -0.42026362, -0.20970424, -7.3741565, 1.9775045, -9.2505045, 0
1101, 2923786929, -0.010836035, 0.8809605, -0.41236615, -0.23182297, -8.267125, 1.6972826, -8.778966, 0
1103, 2923820263, -0.03629069, 0.86931616, -0.40307385, -0.28372642, -7.08574, 1.0112201, -5.8538637, 0
1104, 2923836930, -0.056286436, 0.8569486, -0.4073597, -0.31068596, -7.9927435, 2.4793403, -4.777399, 0
1106, 2923870264, -0.09222858, 0.8235225, -0.41865057, -0.37152794, -9.697333, 2.4853804, -4.912394, 0
1107, 2923886931, -0.10693865, 0.80303746, -0.42197728, -0.406973, -7.9462476, 6.7961435, -4.676003, 0
1108, 2923903598, -0.124216475, 0.77852184, -0.42499226, -0.4448063, -6.069744, 8.564378, -4.353362, 0
1110, 2923936932, -0.16327362, 0.7242318, -0.42176747, -0.5205182, -1.7532299, 9.351823, -1.7222881, 0
1111, 2923953599, -0.18460369, 0.6974551, -0.4128865, -0.5558772, -1.7576717, 10.215658, 0.5477209, 0
1112, 2923970266, -0.20676401, 0.66996235, -0.39878806, -0.5910701, -1.9579484, 10.858848, 3.8503199, 0
1114, 2924003600, -0.25387454, 0.6098147, -0.36343363, -0.65695256, 2.0099711, 8.589369, 6.740387, 0
1115, 2924020267, -0.2777609, 0.5805209, -0.3414053, -0.6850427, 1.556291, 7.0373044, 9.871363, 0
1116, 2924036934, -0.30135643, 0.55236673, -0.31675273, -0.70974636, 4.240501, 6.1042986, 10.429964, 0
1118, 2924070268, -0.35328758, 0.49855447, -0.26654512, -0.7453736, 4.5088215, 3.453361, 12.389132, 0
1119, 2924086935, -0.38175496, 0.47274685, -0.2412425, -0.7566851, 4.38074, 1.7859557, 13.092745, 0
1122, 2924136936, -0.4647377, 0.39207527, -0.17158069, -0.7751471, 0.71808344, -5.6928043, 12.139641, 0
1123, 2924153603, -0.48460734, 0.365263, -0.14963761, -0.78060484, -0.26043227, -7.6855154, 11.024931, 0
1124, 2924170270, -0.49772486, 0.33942688, -0.12774354, -0.7878691, -0.8046075, -9.166874, 8.360292, 0
1126, 2924203604, -0.505547, 0.2952121, -0.08475757, -0.80627847, 0.91669554, -8.912877, 5.5009727, 0
1127, 2924220271, -0.50375307, 0.27468503, -0.06616151, -0.8163336, 3.4105525, -6.9011283, 5.1485643, 0
1129, 2924253605, -0.5005502, 0.23480453, -0.031782486, -0.83264816, 5.182052, -5.6119523, 4.0413675, 0
1130, 2924270272, -0.50389755, 0.21690083, -0.013895881, -0.83596945, 6.2600937, -5.030757, 2.227584, 0
1131, 2924286939, -0.51086235, 0.19873871, -2.3316965E-4, -0.8363727, 5.7484846, -5.3717647, 1.1277103, 0
1133, 2924320273, -0.52876604, 0.16498603, 0.019519884, -0.8323473, 1.829176, -6.977419, 0.055874825, 0
1134, 2924336940, -0.535939, 0.14969237, 0.029282339, -0.83036196, 1.551431, -7.511369, -0.18156147, 0
1137, 2924386941, -0.54683673, 0.108313605, 0.060223736, -0.8280142, 1.389108, -7.531439, -4.272362, 0
1138, 2924403608, -0.54755205, 0.098036654, 0.07039601, -0.82801974, 2.1599317, -6.81088, -5.2917366, 0
1139, 2924420275, -0.54844326, 0.0895465, 0.07937023, -0.8275799, 2.5454924, -6.1616077, -5.741904, 0
1141, 2924453609, -0.55242115, 0.07400363, 0.092909515, -0.82505697, 1.7138149, -6.964035, -6.305184, 0
1142, 2924470276, -0.5541228, 0.06684652, 0.09885653, -0.8238348, 0.6263831, -6.973422, -7.5510364, 0
1143, 2924486943, -0.5549406, 0.0615199, 0.10452701, -0.82299894, 0.19911498, -6.3389783, -9.146512, 0
1145, 2924520277, -0.5541027, 0.058248933, 0.112934545, -0.8226906, 0.5897764, -5.798235, -10.114454, 0
1146, 2924536944, -0.5526451, 0.059380528, 0.11565903, -0.82321143, 1.0562791, -5.994678, -9.496978, 0
1147, 2924553611, -0.5502774, 0.06144614, 0.1177482, -0.8243489, 1.6017002, -6.4092765, -9.263923, 0
1149, 2924586945, -0.54342276, 0.06571685, 0.1185211, -0.82844573, 2.6593916, -5.785717, -9.822291, 0
1151, 2924620279, -0.53784144, 0.07664202, 0.11093254, -0.83219194, 4.0110974, -5.3910766, -9.358725, 0
1153, 2924653613, -0.535495, 0.09417995, 0.094113775, -0.83397514, 4.3238683, -6.1952066, -7.2110853, 0
1154, 2924670280, -0.5341275, 0.10576799, 0.08377734, -0.83456516, 4.183106, -6.468994, -5.8601785, 0
1156, 2924703614, -0.53167796, 0.13371378, 0.06216084, -0.8340095, 4.8040376, -6.626892, -4.2357287, 0
1157, 2924720281, -0.5301119, 0.15093601, 0.050381713, -0.8328615, 4.1363187, -6.9915495, -3.6291595, 0
1158, 2924736948, -0.52803594, 0.17175895, 0.039200034, -0.830745, 4.4654264, -7.2603893, -2.6801023, 0
1160, 2924770282, -0.5234392, 0.21159464, 0.015050674, -0.825233, 6.880427, -8.183658, 1.7223215, 0
1161, 2924786949, -0.5225343, 0.22690943, 0.0014838721, -0.8218665, 5.0055213, -7.9635897, 1.8398151, 0
1162, 2924803616, -0.5224609, 0.24302272, -0.01044928, -0.8172284, 3.1393242, -7.6874285, 0.7216196, 0
1164, 2924836950, -0.5190996, 0.2822607, -0.031379074, -0.80614936, 4.2161603, -9.648291, 1.087678, 0
1166, 2924870284, -0.50847363, 0.32806453, -0.05429717, -0.7942776, 6.1676583, -12.163716, 1.944663, 0
1168, 2924903618, -0.49921164, 0.3783624, -0.083323926, -0.77503765, 9.721773, -13.920832, 3.642726, 0
1169, 2924920285, -0.49658728, 0.40404615, -0.10460638, -0.76105326, 9.379261, -17.572989, 7.6932125, 0
1170, 2924936952, -0.49303657, 0.43443793, -0.12672216, -0.7430457, 9.044318, -21.677631, 5.8902483, 0
1172, 2924970286, -0.48833638, 0.42687216, -0.16714491, -0.74254084, -6.599357, 21.09115, -4.923292, 0
1173, 2924986953, -0.47937697, 0.4407857, -0.18222158, -0.7366802, -5.2871995, -1.804024, 3.7100725, 0
1174, 2925003620, -0.46848077, 0.46378854, -0.1970942, -0.72565585, -5.3301477, 2.962634, -1.2895527, 0
1176, 2925036954, -0.42910954, 0.5462087, -0.2331474, -0.68055874, 0.06559457, 3.447897, 0.4825182, 0
1177, 2925053621, -0.39472154, 0.60716236, -0.26299033, -0.63748074, -1.6289353, 5.8751206, 3.493431, 0
1178, 2925070288, -0.3554174, 0.6657825, -0.29903093, -0.5839431, -3.2072062, 5.8019357, 10.264889, 0
1180, 2925103622, -0.265231, 0.75926405, -0.36083633, -0.47219104, -2.3685706, -2.782628, 36.16623, 0
1181, 2925120289, -0.2324145, 0.77695423, -0.37482408, -0.4492539, 8.573998, 7.427803, 33.267452, 0
1182, 2925136956, -0.20400216, 0.80063045, -0.3994063, -0.39729738, 12.171373, 42.486404, 38.556908, 0
1184, 2925170290, -0.180171, 0.83692306, -0.4297259, -0.2871075, -12.097952, 27.481113, 4.642516, 0
1185, 2925186957, -0.16446963, 0.85107285, -0.43687394, -0.24033849, -13.980569, 28.147814, -5.652088, 0
1187, 2925220291, -0.13139106, 0.8698628, -0.44082913, -0.17816122, -12.040469, 20.080042, -18.16182, 0
1188, 2925236958, -0.11956085, 0.87281156, -0.4446593, -0.16180207, -10.242562, 16.636866, -21.22719, 0
1189, 2925253625, -0.11003939, 0.8732445, -0.44846398, -0.15560219, -9.325676, 12.398363, -23.602543, 0
1191, 2925286959, -0.09633291, 0.86976963, -0.45467013, -0.16580859, -4.436017, 8.093994, -24.16957, 0
1193, 2925320293, -0.09909688, 0.85929495, -0.4589996, -0.20275123, -6.7693796, 10.355318, -21.625523, 0
1195, 2925353627, -0.12066546, 0.8417902, -0.45196152, -0.2693636, -2.9567904, 11.852601, -14.914614, 0
1196, 2925370294, -0.14135177, 0.8288015, -0.44726524, -0.30505487, -2.8799071, 10.146421, -12.193417, 0
1197, 2925386961, -0.16388783, 0.8138144, -0.44149882, -0.3404739, -4.306433, 9.598665, -9.03942, 0
1199, 2925420295, -0.21108605, 0.7803834, -0.4182124, -0.4141737, -6.7613316, 10.692978, -1.8039265, 0
1200, 2925436962, -0.23509268, 0.76065004, -0.40234458, -0.45194992, -6.703063, 7.429471, 0.57937336, 0
1201, 2925453629, -0.2565105, 0.74010265, -0.384965, -0.4881078, -7.0832167, 6.539104, 2.753131, 0
1203, 2925486963, -0.28981614, 0.69332194, -0.3505498, -0.5589481, -6.1052833, 4.039287, 6.6881943, 0
1204, 2925503630, -0.2987346, 0.6691343, -0.33116615, -0.5944264, -5.61007, 3.9298058, 7.8477173, 0
1205, 2925520297, -0.30730224, 0.64355147, -0.30984417, -0.6288087, -3.054178, 5.643262, 9.488165, 0
1208, 2925570298, -0.35633412, 0.5600867, -0.25823444, -0.7018835, -0.6383398, 2.1800246, 8.441593, 0
1210, 2925603632, -0.39103535, 0.50304794, -0.23525144, -0.7339535, 0.19957964, 1.8430107, 9.004301, 0
1211, 2925620299, -0.40449974, 0.4759949, -0.22022603, -0.7492036, 0.9877055, 1.31339, 10.823357, 0
1212, 2925636966, -0.4172168, 0.45037225, -0.20069355, -0.76342255, 2.6950111, 0.2200114, 10.853487, 0
1214, 2925670300, -0.44231355, 0.40031433, -0.16079032, -0.786289, 3.6879368, -3.026129, 8.34099, 0
1215, 2925686967, -0.45309383, 0.37704125, -0.14117315, -0.7953696, 3.368774, -4.7164273, 7.1125603, 0
1216, 2925703634, -0.46187636, 0.35554323, -0.12142191, -0.8034382, 3.6655717, -6.0316176, 5.844285, 0
1218, 2925736968, -0.47470126, 0.3162775, -0.08577681, -0.8168638, 4.314314, -7.029515, 4.1225348, 0
1219, 2925753635, -0.4799443, 0.29895425, -0.06972402, -0.82183653, 4.433195, -6.2035403, 3.2249222, 0
1220, 2925770302, -0.48521334, 0.28283784, -0.055456948, -0.82552534, 4.159671, -5.6295314, 2.971137, 0
1223, 2925820303, -0.50168556, 0.24028778, -0.013558642, -0.8308948, 2.4355185, -5.988969, 2.1854353, 0
1224, 2925836970, -0.50623775, 0.22655277, -0.001314121, -0.83210105, 2.2229054, -6.554286, 1.8615284, 0
1226, 2925870304, -0.5129264, 0.20007499, 0.023636434, -0.83445466, 2.2682571, -6.448137, 0.2987442, 0
1227, 2925886971, -0.5160459, 0.18813968, 0.03644006, -0.8348468, 2.1107912, -6.5420713, -0.59204483, 0
1228, 2925903638, -0.5193731, 0.17666681, 0.048753347, -0.83466184, 2.3832505, -6.509184, -1.2647161, 0
1230, 2925936972, -0.5264411, 0.154638, 0.06757623, -0.833293, 2.264722, -6.2737303, -3.2218103, 0
1231, 2925953639, -0.53041255, 0.14459541, 0.07439488, -0.83199584, 2.5306933, -6.747916, -3.3665905, 0
1232, 2925970306, -0.53472763, 0.13505512, 0.08025299, -0.83029073, 2.2588563, -6.4742556, -4.245023, 0
1234, 2926003640, -0.5438456, 0.120288044, 0.08841532, -0.82579803, 1.495317, -5.875895, -5.459014, 0
1235, 2926020307, -0.54769796, 0.11443126, 0.09104028, -0.82379663, 1.0195936, -5.623737, -5.7013497, 0
1238, 2926070308, -0.55483806, 0.10134359, 0.09351118, -0.820449, 0.7440654, -4.3718357, -5.091177, 0
1239, 2926086975, -0.55691236, 0.09913511, 0.09344618, -0.8193202, 0.45621797, -4.5124335, -4.7854977, 0
1241, 2926120309, -0.5600297, 0.096744865, 0.094993435, -0.81730056, -0.26433587, -5.1464534, -5.6369567, 0
1242, 2926136976, -0.5600707, 0.09707323, 0.09527112, -0.8172013, -0.02295749, -4.713916, -6.766885, 0
1243, 2926153643, -0.55886513, 0.09862719, 0.09465207, -0.8179121, 0.26695538, -5.11148, -6.8309355, 0
1245, 2926186977, -0.5547391, 0.10322615, 0.09069861, -0.82059705, 0.78870016, -4.7082977, -6.0524616, 0
1246, 2926203644, -0.55231565, 0.10680819, 0.08746668, -0.8221228, 0.813328, -5.1117206, -5.9665494, 0
1247, 2926220311, -0.5496759, 0.11176172, 0.08389828, -0.82360417, 1.6087552, -5.519674, -5.7591324, 0
1249, 2926253645, -0.54474455, 0.12531093, 0.072309256, -0.8260259, 2.8161006, -5.1911592, -5.7046723, 0
1250, 2926270312, -0.54307985, 0.13481428, 0.064265974, -0.8262906, 2.6549022, -4.92895, -5.433393, 0
1251, 2926286979, -0.54212004, 0.14673656, 0.0551984, -0.8255449, 2.930696, -5.184096, -4.293799, 0
1253, 2926320313, -0.5410777, 0.17123488, 0.032649048, -0.8227056, 4.4333377, -5.949593, -2.9709496, 0
1254, 2926336980, -0.5401995, 0.1840301, 0.018255219, -0.8209635, 4.125668, -6.327561, -3.0065975, 0
1255, 2926353647, -0.5390386, 0.19917545, 0.003278747, -0.81838405, 3.8609664, -6.708105, -3.214435, 0
1257, 2926386981, -0.5336697, 0.23975874, -0.026498217, -0.81055975, 3.8011177, -7.623668, -3.3289032, 0
1258, 2926403648, -0.52883, 0.26526722, -0.041534767, -0.80513585, 4.089666, -8.159623, -1.6944818, 0
1259, 2926420315, -0.52329826, 0.29192844, -0.056964856, -0.79855406, 4.7205706, -8.685002, 1.2487478, 0
1261, 2926453649, -0.5112056, 0.33989856, -0.08991496, -0.7842512, 4.516954, -7.2746363, 3.600747, 0
1262, 2926470316, -0.5047826, 0.36118168, -0.1082214, -0.77654845, 5.174349, -7.270124, 4.375078, 0
1265, 2926520317, -0.49074325, 0.42018926, -0.15347096, -0.7477003, 6.556268, -7.5123553, 6.1122627, 0
1266, 2926536984, -0.48834097, 0.43902412, -0.16525395, -0.73584574, 7.5822363, -8.888308, 7.711878, 0
1268, 2926570318, -0.48587117, 0.47651362, -0.19420378, -0.7065025, 6.551942, -16.106747, -1.4175148, 0
1269, 2926586985, -0.4667462, 0.49757025, -0.21833818, -0.6977801, -17.206373, -24.438452, 24.777477, 0
1270, 2926603652, -0.45819324, 0.5012003, -0.23329966, -0.6960068, -0.05210484, -2.373118, -1.2105865, 0
1272, 2926636986, -0.44668394, 0.527437, -0.24934344, -0.6783131, -2.375888, 1.6856099, 1.7591343, 0
1273, 2926653653, -0.4339684, 0.55028343, -0.25865728, -0.66479534, 1.551265, 4.2639356, -0.2385788, 0
1274, 2926670320, -0.41144693, 0.58172464, -0.2785117, -0.644, 0.32063457, 4.645494, 0.7762432, 0
1276, 2926703654, -0.34241137, 0.66711617, -0.33648643, -0.5696352, -4.112614, 5.6743226, 5.103343, 0
1277, 2926720321, -0.29608512, 0.7157659, -0.3608808, -0.51939845, -4.1543016, 8.710274, 11.558874, 0
1280, 2926770322, -0.20802246, 0.7897344, -0.41337505, -0.4026961, 26.538656, 15.78023, 42.777786, 0
1281, 2926786989, -0.20650993, 0.80666083, -0.42690498, -0.35270485, -3.7148542, 19.05537, 17.71211, 0
1282, 2926803656, -0.18433328, 0.8281836, -0.43571138, -0.30047578, -12.902935, 22.593233, 15.44808, 0
1284, 2926836990, -0.15097958, 0.8537594, -0.44838372, -0.21736825, -16.858591, 25.11984, -2.3385916, 0
1286, 2926870324, -0.101358235, 0.8675214, -0.45872423, -0.16340782, -15.598506, 20.667671, -12.985532, 0
1288, 2926903658, -0.045352254, 0.8686949, -0.47476712, -0.13381074, -7.530813, 13.614525, -17.470531, 0
1289, 2926920325, -0.019389125, 0.8676752, -0.4811762, -0.12341143, -3.272801, 11.504962, -18.166344, 0
1291, 2926953659, 0.017463336, 0.86685836, -0.48675323, -0.106394246, -1.2073082, 7.6721187, -19.03548, 0
1292, 2926970326, 0.02819009, 0.86760056, -0.48595288, -0.10159377, -1.4701046, 5.7580833, -18.959005, 0
1293, 2926986993, 0.03316648, 0.86797464, -0.4853883, -0.09957379, -1.8873845, 3.6443841, -18.651245, 0
1296, 2927036994, 0.026236385, 0.8670699, -0.48269072, -0.12044881, -4.3307543, 1.7931054, -17.686213, 0
1297, 2927053661, 0.015966438, 0.8661899, -0.4796983, -0.13909079, -4.2313213, 1.8533343, -16.746403, 0
1299, 2927086995, -0.018993046, 0.8603181, -0.47196472, -0.19167183, -7.0087867, 3.18067, -14.677008, 0
1300, 2927103662, -0.04199778, 0.8543052, -0.46658495, -0.22515354, -7.297317, 3.2557662, -12.709107, 0
1301, 2927120329, -0.06939216, 0.84377927, -0.46374375, -0.2610748, -8.889917, 6.8822927, -10.572965, 0
1303, 2927153663, -0.13279067, 0.8053493, -0.46224084, -0.34656805, -9.620076, 9.630376, -4.690788, 0
1304, 2927170330, -0.16328885, 0.77849543, -0.46046823, -0.39401457, -6.6325483, 11.3564415, -1.0115509, 0
1305, 2927186997, -0.1940526, 0.7475741, -0.4571965, -0.440959, -3.3031523, 12.870342, 2.3783169, 0
1307, 2927220331, -0.25191653, 0.6841212, -0.434016, -0.5292856, -2.6528015, 9.865528, 8.763836, 0
1308, 2927236998, -0.27321443, 0.6536552, -0.4128248, -0.572417, -0.27772424, 8.455477, 12.394875, 0
1311, 2927286999, -0.3426981, 0.55775577, -0.34980595, -0.6701486, 12.160557, 1.568896, 12.74461, 0
1312, 2927303666, -0.3751719, 0.53284144, -0.3299169, -0.6829916, 8.913338, -1.1194406, 12.669683, 0
1313, 2927320333, -0.40838316, 0.51412535, -0.30581525, -0.68947244, 3.0979078, -4.0529428, 13.079243, 0
1315, 2927353667, -0.45879364, 0.4799419, -0.24875562, -0.7051821, -3.144159, -8.147312, 11.813086, 0
1316, 2927370334, -0.4730791, 0.45819065, -0.22525766, -0.7179926, -3.5965784, -9.272989, 9.988977, 0
1318, 2927403668, -0.480953, 0.41321483, -0.18361245, -0.75114644, -0.5287757, -8.293091, 5.554696, 0
1319, 2927420335, -0.47952837, 0.3917932, -0.16497467, -0.7676789, 3.1733966, -6.8697853, 4.640274, 0
1320, 2927437002, -0.4793444, 0.37246633, -0.14837004, -0.7806927, 4.757792, -6.14689, 2.3380613, 0
1322, 2927470336, -0.49101868, 0.35210437, -0.12157492, -0.78748935, 5.2168217, -5.877862, -0.35744667, 0
1323, 2927487003, -0.50249916, 0.34493527, -0.115753494, -0.7842909, 4.9147305, -7.584424, 3.102703, 0
1324, 2927503670, -0.51555324, 0.33359197, -0.11150833, -0.78133476, 2.708709, -9.754352, 5.868251, 0
1326, 2927537004, -0.5379132, 0.30479375, -0.10054564, -0.7795111, 0.09046841, -6.16806, -1.6925831, 0
1327, 2927553671, -0.54585934, 0.2926916, -0.096214876, -0.77917194, -0.25211224, -6.2801743, -0.42516136, 0
1328, 2927570338, -0.55219436, 0.28141043, -0.09159422, -0.779421, -0.7259255, -5.913408, -0.20080757, 0
1330, 2927603672, -0.5576065, 0.2638088, -0.077841975, -0.78320974, -0.49043626, -6.8177876, 0.50447273, 0
1331, 2927620339, -0.5568736, 0.256479, -0.06750047, -0.7871156, 0.26243404, -6.5130305, -0.2631359, 0
1332, 2927637006, -0.55470896, 0.24891472, -0.05757787, -0.7918467, 1.2322022, -5.495057, -1.5364923, 0
1334, 2927670340, -0.5493765, 0.23409945, -0.044352576, -0.8008823, 2.5191772, -4.4625254, -2.6084104, 0
1335, 2927687007, -0.5481272, 0.2273599, -0.040288042, -0.8038892, 3.2380989, -3.7579734, -3.2513595, 0
1338, 2927737008, -0.5554558, 0.21443984, -0.040184196, -0.802413, 1.6000642, -3.6268513, -2.550302, 0
1339, 2927753675, -0.5597898, 0.21031938, -0.04242052, -0.8003741, -0.11394147, -4.073408, -2.090138, 0
1340, 2927770342, -0.5628471, 0.20666686, -0.043549128, -0.7991196, -1.0984217, -3.9120266, -2.3650832, 0
1342, 2927803676, -0.5635126, 0.20194317, -0.043779336, -0.7998453, -0.0018026041, -3.4558468, -2.4341922, 0
1343, 2927820343, -0.5616132, 0.20062925, -0.04367984, -0.8015157, 0.33654666, -3.2509906, -2.5442357, 0
1344, 2927837010, -0.5588123, 0.20085613, -0.04304056, -0.8034489, 1.0839605, -3.1282141, -2.5194044, 0
1346, 2927870344, -0.5524262, 0.20278983, -0.040974163, -0.8074773, 2.0896518, -2.4350016, -2.4623938, 0
1347, 2927887011, -0.5496224, 0.2034296, -0.040798526, -0.8092366, 2.4410267, -2.3321736, -2.3169932, 0
1349, 2927920345, -0.5455813, 0.20588447, -0.04385532, -0.8111882, 2.4170418, -1.4805865, -2.8802304, 0
1351, 2927953679, -0.5453396, 0.21191442, -0.051998954, -0.80931455, 1.979378, -0.5542269, -1.9985685, 0
1354, 2928003680, -0.5488853, 0.22237703, -0.066716395, -0.8030062, 0.028634105, -0.2865159, 0.2332468, 0
1355, 2928020347, -0.5488395, 0.22631118, -0.07108997, -0.8015617, -0.44818863, 0.35383642, 0.7098999, 0
1357, 2928053681, -0.5471373, 0.23423496, -0.074728824, -0.8001171, -0.90413123, 0.52311873, 0.94625664, 0
1358, 2928070348, -0.5451932, 0.23878054, -0.07321869, -0.80024, -1.2668203, 0.070765205, -0.036355972, 0
1359, 2928087015, -0.54258776, 0.24395896, -0.06961473, -0.80077034, -0.59357184, -1.2523828, -0.14717293, 0
1361, 2928120349, -0.53688115, 0.24961722, -0.064981505, -0.8032584, 1.276512, -2.269177, -1.2694273, 0
1362, 2928137016, -0.5329115, 0.2517495, -0.06647227, -0.80511236, 1.4376718, -2.1508586, -1.7348499, 0
1363, 2928153683, -0.5296342, 0.25522298, -0.068375215, -0.80602133, 2.0975726, -2.031721, -1.406291, 0
1365, 2928187017, -0.52695936, 0.26495686, -0.07308757, -0.80421805, 1.7288226, -3.2131374, -1.8188839, 0
1366, 2928203684, -0.5259364, 0.2711847, -0.074399605, -0.80268997, 1.0507748, -4.4664664, -2.4491243, 0
1369, 2928253685, -0.51601017, 0.30007514, -0.07197851, -0.79906464, 5.272896, -8.036352, -3.8593845, 0
1370, 2928270352, -0.5108754, 0.31060696, -0.075520605, -0.7980121, 6.627215, -8.847909, -5.9732456, 0
1372, 2928303686, -0.49544552, 0.35087535, -0.086868115, -0.789855, 6.986422, -14.151138, -7.300576, 0
1373, 2928320353, -0.4865838, 0.3764287, -0.09070629, -0.78313905, 11.43052, -15.478641, -0.6966629, 0
1374, 2928337020, -0.4793959, 0.3960411, -0.10053702, -0.7766726, 11.413495, -14.406988, -0.91649246, 0
1376, 2928370354, -0.46637475, 0.43599245, -0.13232163, -0.758217, 9.313608, -15.081147, 2.9988928, 0
1377, 2928387021, -0.46121475, 0.45644686, -0.14793868, -0.7463566, 10.56165, -14.5503025, 4.5294685, 0
1378, 2928403688, -0.45817125, 0.47802082, -0.16474546, -0.7310479, 11.611659, -18.168575, 4.738125, 0
1380, 2928437022, -0.44234005, 0.49037856, -0.19930315, -0.72397465, -3.9296358, -4.5497446, 4.454051, 0
1381, 2928453689, -0.44309422, 0.49393028, -0.19990948, -0.7209254, -5.8875246, 3.28532, 2.7052965, 0
1384, 2928503690, -0.4083374, 0.5535659, -0.23161778, -0.68787736, -1.7327762, 3.9233224, -0.8646202, 0
1385, 2928520357, -0.3820879, 0.59905905, -0.25979367, -0.65394276, -1.3655411, 4.227204, 0.15239525, 0
1386, 2928537024, -0.34813607, 0.6525744, -0.29854095, -0.60317326, -4.44247, 6.183961, 4.3103943, 0
1388, 2928570358, -0.26263487, 0.75590706, -0.36571094, -0.47526836, -7.675225, 14.699431, 22.764091, 0
1389, 2928587025, -0.23686655, 0.77972174, -0.38643056, -0.43196827, -8.283569, 20.065126, 35.323883, 0
1390, 2928603692, -0.23287395, 0.7811423, -0.39852566, -0.4204294, 17.03287, 8.151649, 33.22332, 0
1392, 2928637026, -0.19557011, 0.81446993, -0.42984277, -0.3370805, -2.9473443, 14.542384, 14.593554, 0
1393, 2928653693, -0.17022038, 0.83066833, -0.43918717, -0.29686153, -3.9443877, 30.901957, 10.27783, 0
1394, 2928670360, -0.14875801, 0.8435131, -0.4477204, -0.25671014, -8.64638, 27.49471, 0.8965864, 0
1396, 2928703694, -0.09766937, 0.86539024, -0.4532346, -0.19009474, -12.503764, 24.39073, -17.229986, 0
1397, 2928720361, -0.07186912, 0.8710969, -0.4551993, -0.16975127, -11.20401, 16.715334, -23.107414, 0
1399, 2928753695, -0.021533972, 0.8723208, -0.46128297, -0.16064782, -5.0670023, 7.338398, -24.77296, 0
1400, 2928770362, -0.0036771107, 0.86952996, -0.46446013, -0.1678627, -3.6809227, 5.9524837, -23.28766, 0
1401, 2928787029, 0.00760941, 0.86672175, -0.4652996, -0.17952342, -3.229338, 3.9952834, -21.47976, 0
1403, 2928820363, 0.0108645065, 0.86169297, -0.46166205, -0.21031442, -2.5721662, 2.4662867, -18.115997, 0
1404, 2928837030, 0.004821044, 0.8587469, -0.45842922, -0.22884534, -3.7408605, 2.5805824, -16.148422, 0
1405, 2928853697, -0.00439443, 0.8550989, -0.45326582, -0.25166222, -5.6323957, 4.20118, -13.028146, 0
1407, 2928887031, -0.031491406, 0.84376645, -0.43642613, -0.310798, -4.8248386, 2.8260329, -5.0820646, 0
1408, 2928903698, -0.049614638, 0.835968, -0.4270511, -0.34105763, -3.3445191, 1.7115318, -1.8470802, 0
1411, 2928953699, -0.11061668, 0.8039052, -0.408592, -0.41779196, -1.600949, 0.8630669, 4.185815, 0
1412, 2928970366, -0.12971102, 0.7911609, -0.40423086, -0.4402659, -1.1939497, -0.07292088, 4.344013, 0
1413, 2928987033, -0.14644998, 0.77870494, -0.3990102, -0.46147472, -0.8023888, 0.08589715, 4.892874, 0
1415, 2929020367, -0.17714849, 0.75475156, -0.38665152, -0.49946585, 0.34529677, 0.22933659, 3.7624922, 0
1416, 2929037034, -0.1921501, 0.7426669, -0.3820292, -0.51533955, 0.7483276, 0.5555812, 3.3456907, 0
1417, 2929053701, -0.20777942, 0.7299179, -0.37945133, -0.5292081, 0.6721855, 1.363601, 2.0026379, 0
1419, 2929087035, -0.2441963, 0.7019482, -0.37477937, -0.5542329, 0.45247158, 3.6798189, 0.89469147, 0
1420, 2929103702, -0.26608133, 0.68701714, -0.37227258, -0.56446284, 0.5742801, 4.0032916, 0.07691288, 0
1421, 2929120369, -0.2901144, 0.67119807, -0.36938757, -0.57347757, -0.12655303, 5.299149, 0.7771473, 0
1423, 2929153703, -0.34164333, 0.63465154, -0.36124098, -0.5916073, -0.99176943, 6.3642797, 1.8652086, 0
1425, 2929187037, -0.3906593, 0.5915345, -0.34741834, -0.6138156, -0.7724684, 5.607328, 3.2464333, 0
1427, 2929220371, -0.4267812, 0.54944986, -0.32492176, -0.6406135, -0.27478078, 3.8674524, 3.7029467, 0
1428, 2929237038, -0.43908536, 0.53090763, -0.31107494, -0.65465295, 0.12753426, 3.1235251, 4.125695, 0
1430, 2929270372, -0.456497, 0.49800786, -0.27674723, -0.68337864, 0.47444627, 1.6281518, 6.2667885, 0
1431, 2929287039, -0.46323484, 0.48128736, -0.25740433, -0.6982235, 0.516812, 0.6108819, 6.226906, 0
1432, 2929303706, -0.4698368, 0.4645936, -0.23757164, -0.7120132, 0.8743073, -0.31822434, 5.005538, 0
1434, 2929337040, -0.4843824, 0.4319546, -0.20312054, -0.73316306, 1.3724744, -1.4490645, 5.190633, 0
1435, 2929353707, -0.49196643, 0.41648665, -0.18727854, -0.7412365, 1.0775102, -2.4489532, 5.0656033, 0
1436, 2929370374, -0.4991903, 0.40230498, -0.17011282, -0.74834377, -0.09021005, -3.2621198, 4.590109, 0
1438, 2929403708, -0.5124658, 0.37452745, -0.13706823, -0.7604718, 0.119325355, -3.6573932, 4.7706594, 0
1440, 2929437042, -0.521281, 0.34156427, -0.11016377, -0.7742487, -0.8493509, -2.708469, 4.0630665, 0
1442, 2929470376, -0.52624136, 0.31199625, -0.077896595, -0.78718317, 0.94768935, -3.486988, 3.387969, 0
1443, 2929487043, -0.5291407, 0.29750505, -0.06212898, -0.7922359, 1.0592312, -4.3750997, 2.6521034, 0
1444, 2929503710, -0.53304076, 0.28219676, -0.047729574, -0.7962105, 2.3156166, -4.844266, 2.9055262, 0
1446, 2929537044, -0.5411441, 0.2523272, -0.023837583, -0.8018246, 1.2469656, -5.525394, 1.1725979, 0
1447, 2929553711, -0.54610443, 0.23914333, -0.012430601, -0.8027597, 1.6311048, -6.10229, 0.18522263, 0
1448, 2929570378, -0.5512839, 0.22619349, -0.002748158, -0.8030642, 1.2739682, -6.9240656, -0.73186684, 0
1450, 2929603712, -0.55991244, 0.2037968, 0.013367346, -0.8029838, 0.6994897, -7.017359, -2.573636, 0
1451, 2929620379, -0.5627133, 0.19407769, 0.020045714, -0.8032951, 0.8463109, -6.4950833, -3.0792236, 0
1453, 2929653713, -0.5671975, 0.1770036, 0.02976363, -0.8037834, 0.4707392, -5.5080705, -3.6304555, 0
1455, 2929687047, -0.57152873, 0.16337216, 0.036757343, -0.803312, 0.82859045, -5.637472, -4.3776164, 0
1457, 2929720381, -0.5751337, 0.15289336, 0.040131886, -0.8026401, 1.8072398, -5.894362, -5.682151, 0
1458, 2929737048, -0.57659477, 0.1484084, 0.04026945, -0.8024267, 2.0456617, -6.6474767, -5.4159136, 0
1459, 2929753715, -0.57791823, 0.14451693, 0.04090694, -0.8021527, 1.813529, -6.6076293, -5.9220686, 0
1461, 2929787049, -0.57973796, 0.1412623, 0.040682912, -0.8014305, 1.7153716, -6.318084, -8.099532, 0
1462, 2929803716, -0.58025587, 0.14246939, 0.03865057, -0.80094236, 1.8640361, -6.3070703, -8.665657, 0
1463, 2929820383, -0.57997775, 0.1459254, 0.03443334, -0.8007141, 2.461151, -6.2500877, -8.334672, 0
1465, 2929853717, -0.5782275, 0.16020162, 0.023893375, -0.7996342, 2.6418948, -8.090812, -6.440793, 0
1466, 2929870384, -0.5779597, 0.16812044, 0.019854413, -0.7983113, 2.6056535, -7.6974983, -6.9719744, 0
1467, 2929887051, -0.5767741, 0.17638306, 0.013547893, -0.79751754, 1.7726493, -7.592931, -8.387857, 0
1469, 2929920385, -0.5695204, 0.19963141, -0.002602594, -0.79736066, 3.0949044, -9.366636, -8.432457, 0
1470, 2929937052, -0.56411296, 0.21538226, -0.01265576, -0.7970094, 4.5748625, -9.841975, -7.897628, 0
1471, 2929953719, -0.5579778, 0.23422034, -0.025437033, -0.79570824, 6.000205, -10.440171, -6.7587175, 0
1473, 2929987053, -0.5444058, 0.28026828, -0.05493394, -0.78870225, 7.173893, -13.166044, -2.313098, 0
1474, 2930003720, -0.537836, 0.30486742, -0.068349406, -0.7830158, 7.1617713, -13.345179, -0.8448467, 0
1475, 2930020387, -0.53016514, 0.3305842, -0.081432246, -0.77653354, 7.6161523, -14.109862, 0.8859291, 0
1477, 2930053721, -0.5130381, 0.3824332, -0.09945553, -0.7619989, 10.751522, -16.333212, 6.7804604, 0
1478, 2930070388, -0.50465435, 0.41135672, -0.10344544, -0.75193465, 11.625832, -18.553, 4.5140963, 0
1480, 2930103722, -0.49161994, 0.4412883, -0.15655585, -0.73420817, 4.266236, -18.211658, 55.633686, 0
1482, 2930137056, -0.47476178, 0.442964, -0.17652921, -0.7397422, -2.1034007, 4.3631063, 2.089242, 0
1484, 2930170390, -0.44295594, 0.49491134, -0.21778107, -0.7151372, -4.774913, 1.7403716, -0.7512064, 0
1485, 2930187057, -0.42178854, 0.53498924, -0.2418866, -0.6909188, -0.016369643, 2.446972, -1.2629566, 0
1486, 2930203724, -0.3935711, 0.5864973, -0.2751755, -0.6522254, 1.7542465, 2.2286105, -0.021306992, 0
1488, 2930237058, -0.31433734, 0.69560677, -0.34694228, -0.54493237, -4.2810802, 5.307734, 9.263771, 0
1489, 2930253725, -0.2738468, 0.73917574, -0.37417975, -0.48848101, -5.7374043, 10.679433, 17.965658, 0
1490, 2930270392, -0.24507192, 0.76670074, -0.39100677, -0.44634107, -8.619024, 17.339811, 20.601847, 0
1492, 2930303726, -0.2162277, 0.7848378, -0.41198832, -0.40931424, 7.475573, 21.467579, 33.426884, 0
1493, 2930320393, -0.21267521, 0.79343075, -0.41583392, -0.39027724, -0.12583645, 4.749312, 8.884806, 0
1494, 2930337060, -0.18034957, 0.81117743, -0.42001083, -0.3647644, -5.060047, 7.4694033, 10.0893135, 0
1497, 2930387061, -0.09252043, 0.8386011, -0.44726738, -0.2968784, -6.2131395, 19.688494, -1.627821, 0
1498, 2930403728, -0.066596255, 0.84419084, -0.45781907, -0.27075014, -6.7023973, 20.153038, -5.803483, 0
1500, 2930437062, -0.013723055, 0.8562614, -0.4656651, -0.22311755, -7.539137, 13.814857, -13.046566, 0
1501, 2930453729, 0.01510182, 0.8620778, -0.46359622, -0.20413081, -6.9864063, 11.440516, -15.0129175, 0
1502, 2930470396, 0.04243736, 0.8664332, -0.46035188, -0.18858919, -5.8302937, 10.740733, -16.310917, 0
1505, 2930520397, 0.084335275, 0.8711482, -0.45806688, -0.15543573, -4.0060544, 5.9118123, -18.87516, 0
1506, 2930537064, 0.08559329, 0.87186813, -0.4576768, -0.15181813, -3.667807, 3.5654004, -18.667736, 0
1508, 2930570398, 0.07857534, 0.87167424, -0.45705575, -0.15845224, -2.9023192, 0.6253547, -16.95865, 0
1509, 2930587065, 0.0737751, 0.87123215, -0.45457482, -0.16991343, -4.116539, 1.9096612, -16.597908, 0
1512, 2930637066, 0.030629087, 0.8632947, -0.44336748, -0.23917909, -4.9188857, 3.583701, -11.191434, 0
1515, 2930687067, -0.037845537, 0.83075666, -0.43062532, -0.3506708, -7.771996, 3.92541, -1.707839, 0
1516, 2930703734, -0.049447276, 0.81571835, -0.41696164, -0.3978679, -8.185663, 3.3939173, 1.433691, 0
1517, 2930720401, -0.05373967, 0.8004282, -0.39578918, -0.4469617, -5.3191996, 2.478628, 2.467597, 0
1519, 2930753735, -0.06443836, 0.76587534, -0.3539631, -0.5329069, -0.5386539, 7.2619467, 3.9330826, 0
1520, 2930770402, -0.080635495, 0.74540293, -0.34032977, -0.5674902, 0.5396959, 7.827874, 4.1766186, 0
1521, 2930787069, -0.10291783, 0.7245751, -0.32911202, -0.59672546, 0.052913785, 7.6074433, 4.9903927, 0
1523, 2930820403, -0.15983965, 0.6805805, -0.30701962, -0.6457533, 1.4638094, 8.113913, 6.427307, 0
1524, 2930837070, -0.19288667, 0.65769136, -0.2962928, -0.66516495, 1.3275751, 6.0119987, 7.3144855, 0
1525, 2930853737, -0.22654782, 0.6345673, -0.28547925, -0.6815415, 1.9651024, 4.655804, 7.559376, 0
1527, 2930887071, -0.2915297, 0.586444, -0.2689113, -0.70624185, 1.8058757, 3.3073056, 7.136978, 0
1529, 2930920405, -0.34309942, 0.53820556, -0.24660775, -0.7292456, 0.89290184, 2.961733, 7.974758, 0
1531, 2930953739, -0.38480437, 0.49303976, -0.21096349, -0.7512182, 3.0476234, 2.2949357, 8.929661, 0
1532, 2930970406, -0.40769562, 0.4701989, -0.19325528, -0.7585162, 3.9567707, 0.8852584, 9.302404, 0
1534, 2931003740, -0.45752546, 0.42240855, -0.16318509, -0.76525116, 3.1143906, -2.7152727, 8.486454, 0
1535, 2931020407, -0.48178682, 0.39961147, -0.14873284, -0.7655506, 2.0233743, -3.8993735, 8.1186905, 0
1536, 2931037074, -0.5048929, 0.37809244, -0.13433751, -0.7642512, 0.18209562, -5.1542935, 7.406193, 0
1538, 2931070408, -0.54226667, 0.33711588, -0.10471494, -0.76245105, -2.3417695, -7.7670894, 6.9317055, 0
1539, 2931087075, -0.553633, 0.31777552, -0.08743118, -0.7647627, -3.1449637, -8.787516, 5.6251173, 0
1540, 2931103742, -0.5587184, 0.2997177, -0.06785952, -0.77032155, -3.1760633, -9.668007, 4.135499, 0
1542, 2931137076, -0.553257, 0.26637888, -0.027249767, -0.7887987, 1.1251849, -9.035871, 1.4487581, 0
1543, 2931153743, -0.54660696, 0.2507919, -0.009847708, -0.7988894, 2.9054322, -7.8796453, 0.3857689, 0
1544, 2931170410, -0.54078853, 0.23637581, 0.0061289463, -0.8072384, 4.4471126, -7.0640078, -0.09910488, 0
1546, 2931203744, -0.5409993, 0.20892936, 0.031587206, -0.814044, 5.4333997, -5.420125, -2.1903758, 0
1547, 2931220411, -0.5470152, 0.19640118, 0.040079605, -0.812768, 3.936296, -5.9006357, -2.977992, 0
1548, 2931237078, -0.555077, 0.18520969, 0.046011683, -0.809609, 2.7781603, -6.481009, -3.312128, 0
1550, 2931270412, -0.5699604, 0.16476524, 0.0536125, -0.8031938, 0.9189864, -7.4091053, -4.6886997, 0
1551, 2931287079, -0.5752076, 0.15605928, 0.056452103, -0.8009943, 0.0997375, -6.789327, -6.010503, 0
1552, 2931303746, -0.57877326, 0.14934, 0.05901795, -0.7995205, -0.003822047, -6.640424, -6.4784684, 0
1554, 2931337080, -0.5815389, 0.14103189, 0.063545235, -0.79867494, 0.8458932, -6.023931, -6.378312, 0
1556, 2931370414, -0.58166724, 0.13846517, 0.06515717, -0.79890054, 1.998125, -6.51042, -6.2520666, 0
1558, 2931403748, -0.5801243, 0.13628484, 0.063816756, -0.80050397, 2.228884, -7.8995433, -7.1202536, 0
1559, 2931420415, -0.57889634, 0.13570903, 0.06317897, -0.8015406, 2.6610365, -7.7020545, -8.475467, 0
1561, 2931453749, -0.576388, 0.14125398, 0.059547517, -0.8026677, 3.3685544, -8.269807, -10.175747, 0
1562, 2931470416, -0.57491267, 0.14744082, 0.054586973, -0.8029657, 3.7112398, -8.233921, -10.149656, 0
1563, 2931487083, -0.5734507, 0.1561003, 0.047404386, -0.8028306, 3.8871567, -8.629802, -9.861374, 0
1565, 2931520417, -0.5702394, 0.17811294, 0.0281458, -0.801441, 4.560086, -10.428989, -7.959732, 0
1566, 2931537084, -0.5676097, 0.19077073, 0.016128957, -0.80072635, 3.7815115, -10.543999, -8.331449, 0
1567, 2931553751, -0.563941, 0.20753391, 0.0038431487, -0.7993012, 2.805181, -11.077352, -8.039343, 0
1569, 2931587085, -0.55088985, 0.25170624, -0.022724364, -0.7953898, 4.402734, -12.303978, -3.5986857, 0
1571, 2931620419, -0.5275197, 0.30266833, -0.052166976, -0.7920798, 7.734904, -12.740555, 0.59527206, 0
1573, 2931653753, -0.50385326, 0.35725546, -0.08359113, -0.7819912, 11.390953, -11.782897, 2.302452, 0
1574, 2931670420, -0.4932385, 0.38864622, -0.10300327, -0.77139974, 10.583076, -12.7888365, 2.1777515, 0
1575, 2931687087, -0.48218903, 0.4259175, -0.12239793, -0.7557141, 10.752745, -14.551473, 3.1094217, 0
1577, 2931720421, -0.46183628, 0.45695162, -0.16941062, -0.74107975, -28.288164, -35.498737, 38.82564, 0
1578, 2931737088, -0.45994887, 0.45182773, -0.1719236, -0.74480736, -8.555634, 11.809985, 7.088545, 0
1579, 2931753755, -0.45222753, 0.46504027, -0.17975815, -0.7395349, 0.23361966, 4.74601, -0.8655901, 0
1581, 2931787089, -0.42406723, 0.51371634, -0.21362497, -0.71457964, -2.1901493, 2.4914484, -0.7341995, 0
1582, 2931803756, -0.4017157, 0.55031055, -0.23937978, -0.69172037, 0.22949663, 3.6033385, -0.52434635, 0
1583, 2931820423, -0.37279233, 0.5981883, -0.27567995, -0.653601, -0.57654315, 3.0409913, 1.3761396, 0
1586, 2931870424, -0.25507405, 0.7410667, -0.37239975, -0.49706426, -5.4190655, 10.899795, 21.922855, 0
1587, 2931887091, -0.22488756, 0.7658811, -0.3894415, -0.45954776, 1.0749247, 6.1628647, 35.444134, 0
1589, 2931920425, -0.2104655, 0.78501344, -0.41342723, -0.41052777, -7.7974596, 26.46688, 26.240246, 0
1590, 2931937092, -0.1827488, 0.8036634, -0.41906837, -0.38092896, -3.07305, 3.2972233, 12.145178, 0
1592, 2931970426, -0.12536822, 0.83345103, -0.43207794, -0.32085475, -4.8547406, 23.944435, 4.396014, 0
1593, 2931987093, -0.10260657, 0.8444319, -0.43865782, -0.2897984, -7.3596454, 21.609612, -0.30569458, 0
1594, 2932003760, -0.07969986, 0.8539308, -0.44407898, -0.2593089, -9.253279, 22.456743, -4.198733, 0
1596, 2932037094, -0.029486611, 0.8686769, -0.44885314, -0.20750625, -10.444662, 15.545281, -12.398983, 0
1597, 2932053761, 0.0015973763, 0.8746809, -0.447158, -0.18702252, -8.647641, 11.8772, -14.78141, 0
1598, 2932070428, 0.03410628, 0.8788533, -0.44501054, -0.16857167, -6.4979587, 9.711226, -16.269594, 0
1601, 2932120429, 0.11615759, 0.88062054, -0.440784, -0.1293105, -4.6380053, 7.2497473, -19.814137, 0
1602, 2932137096, 0.13178276, 0.8800117, -0.439399, -0.12303802, -3.488204, 5.491292, -20.130108, 0
1604, 2932170430, 0.14457765, 0.87966317, -0.43767473, -0.117166266, -3.2360137, 1.409996, -19.401638, 0
1605, 2932187097, 0.14589392, 0.87983346, -0.4362382, -0.119587444, -3.2654734, 0.828826, -18.960945, 0
1606, 2932203764, 0.14390421, 0.8802394, -0.43421587, -0.12618966, -3.132614, 1.1154001, -18.792953, 0
1608, 2932237098, 0.12265906, 0.8813652, -0.42858392, -0.15640639, -4.726345, 3.5360494, -18.484688, 0
1609, 2932253765, 0.10150144, 0.88056916, -0.42570403, -0.18184783, -5.284963, 2.9085882, -16.464804, 0
1610, 2932270432, 0.07708033, 0.8778634, -0.42237002, -0.2121673, -5.8712296, 2.5775893, -14.19748, 0
1612, 2932303766, 0.017477281, 0.86275244, -0.4173882, -0.28484535, -8.332216, 8.0507345, -10.586892, 0
1613, 2932320433, -0.020708444, 0.84770316, -0.41500705, -0.32975268, -9.336633, 11.501348, -7.3005247, 0
1615, 2932353767, -0.10349528, 0.8025852, -0.40370792, -0.42680526, -4.115572, 8.319836, -0.33034706, 0
1616, 2932370434, -0.14371718, 0.7747367, -0.39769974, -0.47006443, -2.2652066, 8.007853, 3.4991798, 0
1617, 2932387101, -0.17998038, 0.7455528, -0.38962108, -0.5098537, -3.2766192, 7.82474, 6.683113, 0
1619, 2932420435, -0.24512161, 0.68421686, -0.3638735, -0.58254266, 0.4016729, 12.327771, 13.25988, 0
1620, 2932437102, -0.27807876, 0.6513047, -0.3470286, -0.61485183, 1.351096, 9.201807, 15.817642, 0
1621, 2932453769, -0.30752888, 0.6192419, -0.32683688, -0.6443138, 3.0656269, 4.62347, 16.921217, 0
1623, 2932487103, -0.35330203, 0.5632127, -0.27903047, -0.6928983, 4.9476156, -4.6379457, 15.507147, 0
1624, 2932503770, -0.37076283, 0.5393047, -0.2568581, -0.71113026, 5.093626, -7.083821, 12.766787, 0
1625, 2932520437, -0.38599086, 0.51731795, -0.23989052, -0.7251501, 4.9208074, -6.3734403, 10.129211, 0
1628, 2932570438, -0.42220628, 0.4600482, -0.19810417, -0.7555458, 1.403658, -2.9597602, 6.4594135, 0
1629, 2932587105, -0.4332184, 0.44334427, -0.17998627, -0.7637862, 1.9573642, -2.2575953, 6.506281, 0
1631, 2932620439, -0.4549691, 0.40613106, -0.14962286, -0.77824837, 1.390343, -3.4231486, 5.3104553, 0
1632, 2932637106, -0.46354103, 0.38854954, -0.13510406, -0.7847946, 1.5367891, -3.6099353, 4.306424, 0
1633, 2932653773, -0.47079986, 0.3724966, -0.12037352, -0.7906333, 2.2156377, -3.5618868, 4.19565, 0
1635, 2932687107, -0.48541895, 0.34190193, -0.09252242, -0.79931724, 2.3354592, -3.7473357, 3.6266022, 0
1636, 2932703774, -0.49312145, 0.32725444, -0.079430506, -0.80213684, 1.8334621, -3.6719184, 2.604539, 0
1637, 2932720441, -0.5006855, 0.3129856, -0.06720213, -0.8042606, 1.4347528, -4.1837106, 2.7659178, 0
1639, 2932753775, -0.51507103, 0.28400844, -0.04559292, -0.8074399, 0.76566064, -4.652619, 1.8666468, 0
1640, 2932770442, -0.5215714, 0.2708102, -0.034624737, -0.8083461, 0.4683311, -5.231065, 1.867466, 0
1643, 2932820443, -0.5358905, 0.23495035, -0.001122385, -0.810935, 0.80814576, -7.09227, 0.99899864, 0
1644, 2932837110, -0.5373827, 0.22346196, 0.009222674, -0.8131399, 1.0217372, -6.689061, 0.08648968, 0
1646, 2932870444, -0.53795457, 0.20360745, 0.028902939, -0.8175026, 1.8897682, -6.1190724, -1.4079094, 0
1647, 2932887111, -0.53833663, 0.1947815, 0.03832107, -0.81901294, 2.160373, -6.1977086, -2.1531377, 0
1648, 2932903778, -0.5392101, 0.18615846, 0.04654089, -0.8200174, 2.595047, -6.122413, -3.068304, 0
1650, 2932937112, -0.5425522, 0.17103767, 0.056874447, -0.8204544, 2.6835988, -5.8200955, -5.267615, 0
1651, 2932953779, -0.5460758, 0.16486967, 0.05890235, -0.8192354, 2.7988384, -6.1195965, -5.7226777, 0
1652, 2932970446, -0.5502598, 0.15901275, 0.058131356, -0.8176471, 1.8503048, -6.219092, -6.552514, 0
1654, 2933003780, -0.5578519, 0.15222701, 0.05386862, -0.8140782, 0.12821305, -6.817439, -6.938579, 0
1655, 2933020447, -0.56041485, 0.15148254, 0.05248806, -0.81254566, 0.021485856, -6.9637923, -7.28391, 0
1658, 2933070448, -0.55763745, 0.16044073, 0.049537435, -0.81292206, 2.5284605, -8.595584, -7.974807, 0
1659, 2933087115, -0.5535304, 0.16658261, 0.048855748, -0.8145334, 3.2426877, -7.939813, -8.922735, 0
1660, 2933103782, -0.54851526, 0.174532, 0.04661136, -0.8163909, 4.2627845, -8.138848, -8.21641, 0
1662, 2933137116, -0.5386563, 0.18602878, 0.037447102, -0.82087606, 5.318707, -9.284308, -5.2633295, 0
1663, 2933153783, -0.533394, 0.19025509, 0.029492293, -0.8236632, 3.62485, -7.4245753, -7.8974195, 0
1664, 2933170450, -0.5277472, 0.19909309, 0.019542724, -0.8255058, 4.05327, -7.9949474, -7.444723, 0
1666, 2933203784, -0.5167203, 0.22759645, -0.005507602, -0.82532823, 4.810948, -8.570246, -5.145448, 0
1667, 2933220451, -0.51124185, 0.24804568, -0.019065944, -0.8226412, 4.5517054, -9.464079, -3.526444, 0
1668, 2933237118, -0.5061053, 0.27042302, -0.031371463, -0.81837755, 5.5434036, -10.702583, -0.12689114, 0
1670, 2933270452, -0.49793148, 0.30896348, -0.064783216, -0.80771655, 8.119761, -10.324323, -0.35362625, 0
1673, 2933320453, -0.48576844, 0.3955909, -0.13739052, -0.76724035, 11.236106, -17.58568, 4.3869076, 0
1674, 2933337120, -0.47378123, 0.43679965, -0.16680446, -0.7462645, 9.779872, -30.850624, 40.650574, 0
1675, 2933353787, -0.47033703, 0.4309312, -0.16900702, -0.75134206, -11.022278, -6.2279863, 5.9280844, 0
1677, 2933387121, -0.44714668, 0.4731605, -0.20390362, -0.7311631, -3.4644165, 1.7222223, -1.9681635, 0
1678, 2933403788, -0.428277, 0.5119312, -0.22906873, -0.70854056, -2.4605896, -1.6134799, -0.9698067, 0
1679, 2933420455, -0.4072153, 0.55369467, -0.24950114, -0.6821614, 3.1497357, -2.8688848, 0.27868366, 0
1681, 2933453789, -0.3529118, 0.6443103, -0.30481246, -0.6061384, -2.291562, 4.930686, 3.000762, 0
1682, 2933470456, -0.31409082, 0.6942942, -0.33504745, -0.55411446, -5.4314833, 7.680247, 7.5233593, 0
1683, 2933487123, -0.27534404, 0.73965836, -0.3692934, -0.49062285, -7.0409293, 10.36215, 19.3564, 0
1685, 2933520457, -0.24978143, 0.7728888, -0.39764917, -0.42676055, 8.593577, 20.5904, 46.793854, 0
1686, 2933537124, -0.23770612, 0.7886845, -0.40693453, -0.39480904, 6.5158763, 5.0852847, 42.93131, 0
1687, 2933553791, -0.20827408, 0.8097528, -0.41277742, -0.36129528, 0.4385416, 2.2059727, 17.726782, 0
1689, 2933587125, -0.14974846, 0.8438643, -0.43270457, -0.27970022, -4.3306146, 28.910507, 8.252951, 0
1690, 2933603792, -0.12640314, 0.85759264, -0.43981576, -0.23476857, -10.3989, 30.520712, 1.7389793, 0
1691, 2933620459, -0.1010064, 0.86909384, -0.44371784, -0.19386946, -15.084475, 30.51071, -5.865323, 0
1693, 2933653793, -0.024349898, 0.88583463, -0.4418037, -0.13968079, -14.17868, 17.326256, -18.010574, 0
1694, 2933670460, 0.020515814, 0.88870156, -0.441417, -0.12221577, -8.716221, 13.154334, -19.384586, 0
1696, 2933703794, 0.08809908, 0.8844908, -0.44945654, -0.08888424, -5.41528, 9.758429, -22.429295, 0
1697, 2933720461, 0.11098608, 0.8824616, -0.45060942, -0.07675943, -4.927927, 7.316526, -23.498196, 0
1700, 2933770462, 0.14012092, 0.8820096, -0.44559792, -0.06216664, -2.844694, -0.31210035, -21.104414, 0
1701, 2933787129, 0.14036681, 0.8830959, -0.44297922, -0.06484836, -4.117308, -1.0440809, -20.48988, 0
1702, 2933803796, 0.13734257, 0.8841313, -0.44050407, -0.073500484, -4.659791, -1.2068893, -19.724363, 0
1704, 2933837130, 0.11919233, 0.8855709, -0.43601426, -0.10698637, -3.9813514, -1.4650966, -17.18328, 0
1705, 2933853797, 0.10418995, 0.88598937, -0.43261, -0.13043344, -3.5635262, -0.5610151, -15.685307, 0
1706, 2933870464, 0.0837679, 0.885637, -0.42920223, -0.15624487, -3.9073403, 1.9424295, -14.422885, 0
1708, 2933903798, 0.025697911, 0.8776196, -0.42471156, -0.22077236, -8.296415, 5.481461, -9.499635, 0
1709, 2933920465, -0.0037408944, 0.86857605, -0.42025182, -0.2625775, -7.61383, 5.7484226, -4.6628547, 0
1710, 2933937132, -0.032384913, 0.85641676, -0.4143735, -0.30625704, -4.6984057, 6.4021378, -0.21898365, 0
1712, 2933970466, -0.09410765, 0.82315356, -0.4052514, -0.38643283, -2.239871, 6.4678817, 6.858881, 0
1714, 2934003800, -0.15410745, 0.781708, -0.3895749, -0.46196532, -0.26082745, 2.197072, 11.947067, 0
1716, 2934037134, -0.2007583, 0.74015266, -0.36990494, -0.5244402, 1.1040325, -2.4655015, 7.9967995, 0
1717, 2934053801, -0.2187636, 0.7213277, -0.36112165, -0.54901457, 2.3127592, 1.1010443, 8.893408, 0
1718, 2934070468, -0.24171329, 0.7003028, -0.35578936, -0.56970316, 4.936501, 4.5623055, 10.349812, 0
1720, 2934103802, -0.29684433, 0.6547704, -0.34724396, -0.60214454, 1.6748499, 0.20449893, 6.701103, 0
1721, 2934120469, -0.31988728, 0.6343885, -0.33929422, -0.6165223, 2.0692654, 0.046511035, 5.4313917, 0
1723, 2934153803, -0.35876048, 0.59524685, -0.32151207, -0.64311683, 2.2827384, 0.6669166, 4.723628, 0
1724, 2934170470, -0.37685367, 0.5759523, -0.31146482, -0.6551695, 2.2957447, 1.2101657, 3.7805195, 0
1725, 2934187137, -0.39476293, 0.5567969, -0.299728, -0.6665581, 1.498214, 1.9168372, 4.5623903, 0
1727, 2934220471, -0.4289401, 0.5178364, -0.27091604, -0.6888089, 1.2613325, -0.32262775, 3.9684, 0
1729, 2934253805, -0.4574847, 0.4806525, -0.24384129, -0.70726186, 1.6835175, -0.9066707, 4.7623806, 0
1731, 2934287139, -0.4810773, 0.4464574, -0.21486339, -0.7232368, 0.8473801, -1.8961111, 6.4334927, 0
1732, 2934303806, -0.49089044, 0.42993996, -0.19732471, -0.7315997, 0.6612347, -3.0002565, 6.0528917, 0
1733, 2934320473, -0.49935645, 0.41344428, -0.17960925, -0.7398951, 1.0556102, -3.8111408, 4.9120445, 0
1735, 2934353807, -0.5138802, 0.38188156, -0.14849918, -0.75368357, 0.7259884, -5.1004505, 2.467513, 0
1736, 2934370474, -0.5198756, 0.36842293, -0.13498415, -0.7587954, 0.32940188, -5.3978834, 1.9028273, 0
1737, 2934387141, -0.5247369, 0.35636333, -0.1223157, -0.7633428, 0.1913334, -5.4892726, 1.7912121, 0
1739, 2934420475, -0.532864, 0.33286914, -0.09656234, -0.77196306, 0.7142941, -6.4662113, 1.0812769, 0
1740, 2934437142, -0.53570384, 0.3211165, -0.08547789, -0.7762708, 0.9800948, -6.5522637, -0.7395029, 0
1741, 2934453809, -0.53758085, 0.31063995, -0.07609187, -0.7802031, 1.2026526, -6.75013, -1.1260319, 0
1744, 2934503810, -0.542721, 0.28853506, -0.059378136, -0.78655756, 2.0405934, -5.0526223, -1.4051428, 0
1745, 2934520477, -0.54607457, 0.28214988, -0.056275837, -0.7867809, 1.9592024, -6.5066366, 0.35955238, 0
1747, 2934553811, -0.5529623, 0.26690084, -0.050717752, -0.78766847, 0.19684437, -5.1347013, -3.3340206, 0
1748, 2934570478, -0.5551384, 0.26246217, -0.049179263, -0.78772694, 0.093556195, -5.6199417, -2.0775461, 0
1749, 2934587145, -0.55699503, 0.25896704, -0.047747687, -0.7876611, 0.18298402, -5.2770343, -2.1603622, 0
1751, 2934620479, -0.55813277, 0.25527635, -0.045189027, -0.7882112, 0.4827101, -6.577826, -2.4195938, 0
1752, 2934637146, -0.5577864, 0.25547516, -0.043336883, -0.78849596, 0.8692159, -7.1117725, -3.0344124, 0
1754, 2934670480, -0.5569261, 0.25761095, -0.047773916, -0.7881528, 1.9821568, -4.2529345, -4.862343, 0
1755, 2934687147, -0.55684304, 0.25894043, -0.05706046, -0.78715765, 1.5984117, -3.6304638, -2.7461872, 0
1756, 2934703814, -0.5579433, 0.2608921, -0.06545849, -0.7850777, 0.472317, -3.723754, -1.4894991, 0
1758, 2934737148, -0.5606728, 0.26714072, -0.074799776, -0.7801821, -0.90683085, -4.788751, -2.6285372, 0
1759, 2934753815, -0.56017655, 0.2720041, -0.077959694, -0.778547, -1.5452816, -4.9046783, -3.476513, 0
1760, 2934770482, -0.5568941, 0.2781596, -0.08148487, -0.7783658, -1.2855484, -3.994079, -3.65758, 0
1762, 2934803816, -0.5426678, 0.29056224, -0.08635419, -0.7833425, 1.6809658, -5.432959, 1.990632, 0
1763, 2934820483, -0.5358455, 0.29091868, -0.08325588, -0.7882269, 3.1150064, -4.451813, 0.9403877, 0
1764, 2934837150, -0.5289921, 0.28988004, -0.08127824, -0.7934279, 3.0559409, -2.627718, -3.8751163, 0
1766, 2934870484, -0.51580006, 0.29636788, -0.08283389, -0.7995324, 4.099693, -3.064316, -3.1386943, 0
1767, 2934887151, -0.5111777, 0.3028129, -0.08337553, -0.80002964, 4.080178, -2.7492807, -2.6260452, 0
1768, 2934903818, -0.50757134, 0.3093475, -0.0820325, -0.79996455, 3.4596279, -3.988384, -1.1132584, 0
1771, 2934953819, -0.49491355, 0.32154953, -0.06272929, -0.804816, 4.780879, -7.701833, -3.6324458, 0
1772, 2934970486, -0.48740655, 0.32719317, -0.05712176, -0.8075356, 7.708286, -9.300469, -4.2047114, 0
1774, 2935003820, -0.47002345, 0.3452572, -0.0535753, -0.81055665, 11.292799, -10.41414, -5.330599, 0
1775, 2935020487, -0.46312732, 0.35978028, -0.058822162, -0.80784184, 12.833747, -9.214036, -6.4164557, 0
1777, 2935053821, -0.4500129, 0.4155512, -0.083259895, -0.7860474, 22.56845, -19.648159, 4.1135483, 0
1778, 2935070488, -0.42324787, 0.42845446, -0.11589648, -0.7898437, 5.937475, -69.19085, 37.764046, 0
1779, 2935087155, -0.41896072, 0.41902357, -0.12263585, -0.7961462, -10.835877, 7.6110835, 10.374622, 0
1781, 2935120489, -0.38980928, 0.47907025, -0.16612853, -0.76872545, -5.7766953, 0.98324245, -1.2217379, 0
1782, 2935137156, -0.37147725, 0.5247025, -0.18942536, -0.742164, -0.937965, 1.0933807, -2.3052373, 0
1783, 2935153823, -0.34637958, 0.57960314, -0.2166536, -0.70508134, 1.2119802, 1.4082782, -1.2374735, 0
1786, 2935203824, -0.23505622, 0.74773234, -0.32391548, -0.52983093, -6.914113, 10.683659, 24.19424, 0
1787, 2935220491, -0.19998991, 0.77451813, -0.345174, -0.49089497, -1.9627044, 5.5529294, 38.72191, 0
1789, 2935253825, -0.16856465, 0.7968496, -0.38438603, -0.43458158, 2.127593, 26.416714, 36.515312, 0
