sep=,
DeviceTag:,Xsens_DOT_1,,,,,,,,,,,,,,,,,
FirmwareVersion:,3.0.0,,,,,,,,,,,,,,,,,
AppVersion:,2023.6.1,,,,,,,,,,,,,,,,,
SyncStatus:,Synced,,,,,,,,,,,,,,,,,
OutputRate:,60Hz,,,,,,,,,,,,,,,,,
FilterProfile:,General,,,,,,,,,,,,,,,,,
Measurement Mode:,Sensor fusion Mode - Extended (Quaternion),,,,,,,,,,,,,,,,,
StartTime:,2025-05-05 11:43:50.378 +0200,,,,,,,,,,,,,,,,,
 2025,,,,,,,,,,,,,,,,,,,

PacketCounter,SampleTimeFine,Quat_W,Quat_X,Quat_Y,Quat_Z,FreeAcc_X,FreeAcc_Y,FreeAcc_Z,Status
1, 2223406255, 0.7867905, 0.015136704, 0.21471044, 0.5785294, -0.04411805, -0.10496364, 0.3241167, 0
2, 2223422922, 0.78679293, 0.015073374, 0.21478046, 0.5785018, -0.019168695, -0.07579749, 0.42017746, 0
3, 2223439589, 0.78679943, 0.014985062, 0.21481484, 0.57848257, -0.088528425, -0.0676876, 0.3609314, 0
4, 2223456256, 0.7868001, 0.014893562, 0.21482301, 0.5784808, -0.12681282, -0.018778162, 0.35417366, 0
5, 2223472923, 0.78679276, 0.014814168, 0.21481663, 0.5784952, -0.11714378, -0.00817074, 0.36371613, 0
6, 2223489590, 0.7867694, 0.014742374, 0.21478462, 0.5785408, -0.10318473, -0.026368046, 0.37178707, 0
7, 2223506257, 0.7867731, 0.014679119, 0.21470265, 0.57856774, -0.09635928, 0.013989229, 0.37691784, 0
8, 2223522924, 0.7868074, 0.014635533, 0.21463466, 0.57854736, -0.0430636, 0.0021053802, 0.32179832, 0
9, 2223539591, 0.7867888, 0.014619924, 0.21464589, 0.57856894, -0.025603103, 0.018247932, 0.34761715, 0
10, 2223556258, 0.78676164, 0.014609158, 0.21467601, 0.57859486, -0.03896887, 0.03665646, 0.31948948, 0
11, 2223572925, 0.7867671, 0.014591321, 0.21471933, 0.5785718, -0.05720828, 0.05405929, 0.33218575, 0
12, 2223589592, 0.7867171, 0.014564104, 0.21477406, 0.5786203, -0.046554144, 0.07094519, 0.38326263, 0
13, 2223606259, 0.78669786, 0.014565013, 0.21480748, 0.578634, -0.023596095, 0.043371294, 0.3810215, 0
14, 2223622926, 0.7866616, 0.014575042, 0.21485785, 0.5786642, -0.025987683, 0.046201915, 0.35939026, 0
15, 2223639593, 0.78665805, 0.01462432, 0.21491061, 0.5786482, 0.018761287, 0.056785088, 0.3495512, 0
16, 2223656260, 0.7866466, 0.014665082, 0.21494082, 0.57865155, -0.0020354765, 0.09051883, 0.3296156, 0
17, 2223672927, 0.7866236, 0.014693499, 0.2149772, 0.57866865, -0.02037433, 0.07481954, 0.31619453, 0
18, 2223689594, 0.78662187, 0.014709905, 0.21506622, 0.5786376, -0.02191008, 0.03354309, 0.3477888, 0
19, 2223706261, 0.7865867, 0.01471173, 0.21514386, 0.57865626, -0.012258708, 0.011246446, 0.37869263, 0
20, 2223722928, 0.786611, 0.014745399, 0.21521442, 0.57859635, -0.06322318, 0.026598545, 0.35435867, 0
21, 2223739595, 0.78656435, 0.014773488, 0.21527073, 0.5786381, -0.054739524, -0.0249265, 0.32557678, 0
22, 2223756262, 0.78656304, 0.014816418, 0.21533532, 0.5786148, -0.047611892, -0.026774393, 0.3087597, 0
23, 2223772929, 0.78655916, 0.014857948, 0.215403, 0.5785936, -0.062191445, -0.0134762665, 0.34087944, 0
24, 2223789596, 0.78654915, 0.0148862675, 0.21543401, 0.5785951, -0.03367382, -2.0579956E-4, 0.40622807, 0
25, 2223806263, 0.7865847, 0.014919482, 0.2154552, 0.5785381, -0.005842629, -0.018448256, 0.37138462, 0
26, 2223822930, 0.78659743, 0.014924131, 0.21545112, 0.5785222, 0.0018639863, -0.00990615, 0.3615427, 0
27, 2223839597, 0.7865931, 0.01493229, 0.21546061, 0.5785242, 0.043409374, 0.014790579, 0.32220078, 0
28, 2223856264, 0.78660655, 0.014935538, 0.21546061, 0.5785058, 0.036292024, 0.044955943, 0.3208294, 0
29, 2223872931, 0.78665686, 0.014926642, 0.21545747, 0.57843864, -0.01608838, 0.10278959, 0.34670258, 0
30, 2223889598, 0.7866411, 0.014882386, 0.21541284, 0.5784779, 0.013170306, 0.10085039, 0.35340595, 0
31, 2223906265, 0.7866623, 0.014871784, 0.21534568, 0.57847446, -0.004100317, 0.105398655, 0.35529804, 0
32, 2223922932, 0.78662, 0.014851518, 0.21528603, 0.5785547, -0.003669049, 0.0856914, 0.35851383, 0
33, 2223939599, 0.78661764, 0.01485347, 0.21524015, 0.5785749, 0.009925288, 0.08751711, 0.39516354, 0
34, 2223956266, 0.78659403, 0.014868677, 0.21522243, 0.5786132, 0.04376501, 0.08078032, 0.4405222, 0
35, 2223972933, 0.7865352, 0.014887385, 0.21521555, 0.5786953, 0.07861772, 0.08516134, 0.42109585, 0
36, 2223989600, 0.7865764, 0.014943019, 0.21523099, 0.5786321, 0.07669406, 0.09891951, 0.39903927, 0
37, 2224006267, 0.78654873, 0.014967807, 0.21524067, 0.57866544, 0.04378996, 0.17699136, 0.3268366, 0
38, 2224022934, 0.7865178, 0.014950477, 0.21522823, 0.57871246, 0.06717587, 0.13576949, 0.27556133, 0
39, 2224039601, 0.78654474, 0.014910422, 0.2151984, 0.578688, 0.115090735, 0.08162112, 0.31779194, 0
40, 2224056268, 0.78660107, 0.014825471, 0.21518545, 0.5786185, 0.09627648, 0.033711787, 0.31121922, 0
41, 2224072935, 0.7866818, 0.014714643, 0.21513817, 0.57852936, 0.037686463, 0.061094157, 0.34414482, 0
42, 2224089602, 0.78677815, 0.01459007, 0.21505737, 0.57843137, 0.016732153, -0.0036844993, 0.30911732, 0
43, 2224106269, 0.78687185, 0.014492765, 0.21499181, 0.57833064, -0.001979319, 0.0064711473, 0.3340435, 0
44, 2224122936, 0.7869731, 0.014391482, 0.21493585, 0.57821625, -0.042022698, 0.042668007, 0.33492374, 0
45, 2224139603, 0.7870102, 0.014257103, 0.21489425, 0.57818455, -0.063123554, 0.05011071, 0.30330563, 0
46, 2224156270, 0.7870359, 0.014121987, 0.21485771, 0.57816637, -0.021323834, -0.012269297, 0.37968636, 0
47, 2224172937, 0.7870518, 0.013973422, 0.2148176, 0.5781633, 0.005671893, -0.004309609, 0.34889698, 0
48, 2224189604, 0.78707093, 0.013825871, 0.21480145, 0.5781467, 0.023375347, 5.4397463E-4, 0.33715343, 0
49, 2224206271, 0.7871178, 0.013663933, 0.2148008, 0.5780871, -0.0050461125, 0.0060886606, 0.32267952, 0
50, 2224222938, 0.78713465, 0.013490751, 0.21481644, 0.57806236, -0.0043635457, 0.04874326, 0.36762524, 0
51, 2224239605, 0.787133, 0.013304025, 0.21483496, 0.5780622, -0.0040267813, 0.04551478, 0.3471508, 0
52, 2224256272, 0.7870944, 0.013117172, 0.21488443, 0.5781005, -0.008285262, 0.1001708, 0.3486719, 0
53, 2224272939, 0.78710675, 0.012978949, 0.21494603, 0.5780642, -0.013723388, 0.10162715, 0.34904003, 0
56, 2224322940, 0.7871533, 0.012561418, 0.215247, 0.57789767, 0.060397573, -0.030963138, 0.31439304, 0
57, 2224339607, 0.7871736, 0.012404017, 0.2153271, 0.57784355, 0.034885775, -0.11140947, 0.31056213, 0
59, 2224372941, 0.7871587, 0.012073092, 0.21541461, 0.57783836, -0.24955766, 0.2768199, 0.5149908, 0
60, 2224389608, 0.78721434, 0.01205682, 0.2154545, 0.5777482, -0.13585322, 0.113992, 0.38039875, 0
62, 2224422942, 0.78715515, 0.012030676, 0.21570666, 0.57773507, -0.010840113, -0.03900681, 0.32174587, 0
63, 2224439609, 0.7872044, 0.012047179, 0.21578443, 0.57763857, -0.10626285, 0.083729744, 0.326622, 0
64, 2224456276, 0.78727686, 0.012092635, 0.21591993, 0.5774883, -0.1978176, 0.045267798, 0.2604723, 0
66, 2224489610, 0.78736645, 0.012294397, 0.21641758, 0.5771756, -0.22398555, -0.026852679, 0.36319447, 0
67, 2224506277, 0.78736514, 0.012392193, 0.21666129, 0.5770837, -0.23620062, -0.083699346, 0.36397266, 0
68, 2224522944, 0.78747076, 0.012528941, 0.21696417, 0.57682276, -0.24888715, -0.18837379, 0.375309, 0
70, 2224556278, 0.78746235, 0.012788236, 0.21743053, 0.57665294, -0.17747122, -0.24733114, 0.34713554, 0
71, 2224572945, 0.7874528, 0.01291772, 0.21759638, 0.5766005, -0.32232028, -0.15464842, 0.22801971, 0
72, 2224589612, 0.78747493, 0.013052955, 0.2177867, 0.5764953, -0.35076565, -0.10013752, 0.26438332, 0
74, 2224622946, 0.78747183, 0.013396516, 0.21799096, 0.5764146, -0.084696546, -0.19208418, 0.36956024, 0
75, 2224639613, 0.78744245, 0.013615951, 0.21807083, 0.5764194, -0.15401088, -0.08533434, 0.32611275, 0
76, 2224656280, 0.7874427, 0.013834111, 0.21815985, 0.57638025, -0.16348232, 0.020931877, 0.36501312, 0
78, 2224689614, 0.78738385, 0.0141376555, 0.21837649, 0.5763714, 0.16073652, 0.021201266, 0.44392967, 0
79, 2224706281, 0.7873069, 0.014235169, 0.21847492, 0.57643664, 0.20299503, 0.053701837, 0.42242718, 0
80, 2224722948, 0.78726655, 0.014290072, 0.21854126, 0.5764652, 0.11330232, 0.11085673, 0.2623453, 0
83, 2224772949, 0.7873223, 0.014257424, 0.2185097, 0.5764019, 0.17119676, 0.07910979, 0.40254688, 0
85, 2224806283, 0.7873149, 0.014105909, 0.21839488, 0.57645905, 0.022915386, 0.16877541, 0.34361744, 0
86, 2224822950, 0.78738195, 0.014061056, 0.2182888, 0.57640886, 0.059885297, 0.14816718, 0.3192463, 0
87, 2224839617, 0.78743577, 0.014008932, 0.21815738, 0.5763864, 0.1098234, 0.09860308, 0.33901787, 0
89, 2224872951, 0.78755915, 0.013810411, 0.21792519, 0.5763104, 0.11196391, 0.044435285, 0.34756947, 0
90, 2224889618, 0.7876257, 0.0136473775, 0.21773301, 0.576296, 0.066393405, 0.11764867, 0.40248585, 0
91, 2224906285, 0.78772414, 0.01346267, 0.21751183, 0.57624936, 0.09552883, 0.109581865, 0.3965912, 0
93, 2224939619, 0.7878831, 0.013002768, 0.21707816, 0.57620615, 0.09178409, 0.041578326, 0.40025806, 0
94, 2224956286, 0.7879622, 0.012746453, 0.21684456, 0.5761918, 0.08272128, 0.07510684, 0.34155846, 0
95, 2224972953, 0.7880338, 0.012486547, 0.21660596, 0.5761893, 0.09618541, 0.0819598, 0.2626562, 0
98, 2225022954, 0.7882402, 0.011502348, 0.21583967, 0.5762149, 0.16857406, 0.047121223, 0.37949848, 0
99, 2225039621, 0.7883338, 0.011171296, 0.21552098, 0.5762128, 0.09466381, 0.11396741, 0.30622196, 0
101, 2225072955, 0.78849804, 0.010518782, 0.21496502, 0.5762079, 0.041506022, 0.18508683, 0.3083191, 0
102, 2225089622, 0.7885408, 0.010174245, 0.21468312, 0.57626057, 0.16468564, 0.19094583, 0.4211483, 0
103, 2225106289, 0.7886044, 0.0098297, 0.21436465, 0.5762983, 0.2613516, 0.13997382, 0.38765717, 0
105, 2225139623, 0.7888258, 0.009060629, 0.21370797, 0.5762517, 0.06344465, 0.15760334, 0.45306492, 0
106, 2225156290, 0.78894883, 0.008609392, 0.21337482, 0.5762136, 0.09626074, 0.18246558, 0.51163673, 0
107, 2225172957, 0.7890739, 0.0081411, 0.21307255, 0.5761609, 0.17890999, 0.18815589, 0.3941269, 0
109, 2225206291, 0.78918934, 0.007144086, 0.21261214, 0.57618606, 0.054772854, 0.07917075, 0.34074593, 0
110, 2225222958, 0.7893499, 0.0066720247, 0.21230707, 0.5760843, -0.017957212, 0.08764776, 0.31363773, 0
113, 2225272959, 0.78968287, 0.0053260177, 0.21157166, 0.5759125, -0.09923124, 0.056800004, 0.4404688, 0
114, 2225289626, 0.78979504, 0.00494951, 0.21133669, 0.5758485, -0.17040852, 0.07690712, 0.35944653, 0
116, 2225322960, 0.7899506, 0.004371837, 0.21103124, 0.5757517, -0.21096489, 0.08205781, 0.32530212, 0
117, 2225339627, 0.7899749, 0.004190251, 0.21093924, 0.5757533, -0.21750583, 0.069982685, 0.30109215, 0
118, 2225356294, 0.78998387, 0.0041024536, 0.21095006, 0.57573766, -0.23230697, 0.02618253, 0.38378143, 0
120, 2225389628, 0.7899487, 0.0042690635, 0.21122141, 0.57568526, -0.3362653, 0.07791103, 0.25172138, 0
121, 2225406295, 0.7898859, 0.004485704, 0.21139124, 0.5757076, -0.376601, 0.04111789, 0.30805397, 0
122, 2225422962, 0.78983784, 0.004848331, 0.21156344, 0.57570726, -0.28629512, -0.027011596, 0.3147478, 0
124, 2225456296, 0.7896538, 0.0059214607, 0.21203971, 0.5757744, -0.20471844, 0.01371604, 0.31886292, 0
125, 2225472963, 0.7895264, 0.0065469146, 0.21236783, 0.57582134, -0.13499466, 0.121542044, 0.3055477, 0
128, 2225522964, 0.7889875, 0.008670121, 0.21399678, 0.5759288, -0.05742505, 0.18188775, 0.35764503, 0
129, 2225539631, 0.7887916, 0.009366117, 0.21465543, 0.57594144, -0.08568167, 0.1944294, 0.26055145, 0
130, 2225556298, 0.78862333, 0.010042459, 0.21530403, 0.57591814, -0.0050626104, 0.010319593, 0.31026936, 0
132, 2225589632, 0.78827035, 0.011413485, 0.21643566, 0.57595176, 0.1474685, -0.0713531, 0.26971245, 0
133, 2225606299, 0.7881621, 0.012071386, 0.2168705, 0.5759228, -0.042011354, 0.07913912, 0.28194904, 0
134, 2225622966, 0.7880937, 0.012681365, 0.21715, 0.5758983, -0.031481184, 0.13359538, 0.28397465, 0
136, 2225656300, 0.78793484, 0.013744429, 0.21757758, 0.57592964, 0.15437381, -0.06953091, 0.45967484, 0
137, 2225672967, 0.7878783, 0.014182769, 0.21785429, 0.575892, 0.14413334, 0.011478769, 0.42801666, 0
138, 2225689634, 0.78777635, 0.014536023, 0.2181106, 0.57592547, 0.10145214, 0.10680891, 0.4335842, 0
140, 2225722968, 0.7876044, 0.015163645, 0.21863973, 0.575944, 0.30766556, -0.06230217, 0.41827965, 0
141, 2225739635, 0.787486, 0.015422985, 0.21906072, 0.5759388, 0.22500102, 0.005570781, 0.4634943, 0
143, 2225772969, 0.7875346, 0.015374608, 0.2197513, 0.57561046, -0.22620183, 0.05154192, -0.067173004, 0
144, 2225789636, 0.787597, 0.015163645, 0.22007404, 0.57540727, -0.1256612, -0.21850596, 0.18565655, 0
145, 2225806303, 0.7877263, 0.014838472, 0.22021031, 0.57518667, -0.13475241, -0.44899622, 0.12984753, 0
147, 2225839637, 0.7880189, 0.014159806, 0.22048447, 0.57469803, -0.3856968, -0.43580976, 0.5521679, 0
148, 2225856304, 0.7881128, 0.013768643, 0.22059023, 0.5745382, -0.44014096, -0.34093264, 0.5506735, 0
149, 2225872971, 0.78822756, 0.013325043, 0.22074085, 0.5743329, -0.65285957, -0.49081567, 0.4063015, 0
151, 2225906305, 0.7883355, 0.01248648, 0.22135943, 0.5739656, -0.48997548, -0.41473413, 0.5393734, 0
152, 2225922972, 0.788264, 0.012207516, 0.22161034, 0.573973, -0.37564877, -0.33803958, 0.49536705, 0
155, 2225972973, 0.78794783, 0.011982828, 0.22163966, 0.5744003, -0.17612849, -0.19150344, 0.22127056, 0
156, 2225989640, 0.78781796, 0.012082167, 0.22136825, 0.57468116, -0.17745459, 0.18393189, 0.30554104, 0
157, 2226006307, 0.78771555, 0.012166262, 0.22084484, 0.5750208, -0.02002155, 0.46788588, 0.3394556, 0
159, 2226039641, 0.78773785, 0.012013659, 0.21946445, 0.5755217, 0.44518197, 0.16310365, 0.33041286, 0
160, 2226056308, 0.78780186, 0.011796683, 0.21888393, 0.57565963, 0.569027, 0.33533135, 0.49085903, 0
161, 2226072975, 0.7878924, 0.011491977, 0.2184341, 0.5757128, 0.3532846, 0.44916216, 0.42022228, 0
163, 2226106309, 0.78815424, 0.0108513385, 0.21762653, 0.57567286, 0.35708377, 0.5734121, 0.27070713, 0
164, 2226122976, 0.78825366, 0.01054702, 0.21730626, 0.5756633, 0.43187526, 0.3362606, 0.16232777, 0
165, 2226139643, 0.7883523, 0.010251977, 0.21705951, 0.5756266, 0.42486683, 0.40441093, 0.23956966, 0
167, 2226172977, 0.788597, 0.009658165, 0.21665688, 0.5754535, 0.3088611, 0.32701415, 0.31544113, 0
170, 2226222978, 0.7889779, 0.008658402, 0.21608455, 0.57516235, 0.22116588, 0.14445877, 0.48861885, 0
171, 2226239645, 0.7890732, 0.00834623, 0.21585654, 0.57512176, 0.15706041, 0.15027004, 0.37969303, 0
172, 2226256312, 0.7892332, 0.008071482, 0.2156752, 0.5749744, 0.058371916, 0.15838307, 0.23586273, 0
174, 2226289646, 0.7893854, 0.007315345, 0.21538964, 0.5748823, -0.014539154, 0.039269943, 0.41204834, 0
175, 2226306313, 0.7895119, 0.0068653002, 0.21519661, 0.57478637, 0.034318723, -0.11792393, 0.3569584, 0
176, 2226322980, 0.78965044, 0.006426513, 0.21499257, 0.5746776, 0.0026898107, -0.2174239, 0.32524014, 0
178, 2226356314, 0.79001456, 0.0055052117, 0.21450947, 0.5743674, -0.27273202, 0.010945653, 0.41420078, 0
179, 2226372981, 0.7901887, 0.00503549, 0.21423207, 0.5742355, -0.23480031, -0.09455897, 0.36714554, 0
180, 2226389648, 0.7902975, 0.004623592, 0.21396686, 0.57418805, -0.16643053, -0.16614263, 0.36581802, 0
182, 2226422982, 0.79045564, 0.0038886592, 0.21338761, 0.5741913, -0.20060767, -0.094379686, 0.31446743, 0
184, 2226456316, 0.7906134, 0.0033562034, 0.21287927, 0.57416606, -0.10002494, 0.027119106, 0.33509636, 0
186, 2226489650, 0.7906694, 0.0030092, 0.21243648, 0.5742552, -0.088818364, 0.14973262, 0.19789886, 0
187, 2226506317, 0.790699, 0.0028355196, 0.2123683, 0.57424027, -0.030991245, 0.060081735, 0.28710842, 0
188, 2226522984, 0.790711, 0.0026633218, 0.21224758, 0.57426924, 0.040184807, 0.0015976706, 0.39596653, 0
190, 2226556318, 0.79081273, 0.0023567677, 0.21182236, 0.5742874, -0.011507676, 0.10373801, 0.34148884, 0
191, 2226572985, 0.79089445, 0.0022310168, 0.21157786, 0.5742656, -9.2097116E-4, 0.14779201, 0.31180763, 0
193, 2226606319, 0.79100734, 0.0020294785, 0.21119283, 0.5742527, 0.0042845057, 0.0935813, 0.3490944, 0
194, 2226622986, 0.79103553, 0.0019244403, 0.21110532, 0.57424647, -0.050767377, 0.038498376, 0.31016636, 0
195, 2226639653, 0.7910577, 0.0018239394, 0.21113443, 0.5742055, -0.09008949, 0.009660901, 0.4011116, 0
197, 2226672987, 0.79110014, 0.0016532764, 0.21115324, 0.5741404, -0.12782711, -0.059451763, 0.43294525, 0
199, 2226706321, 0.7911977, 0.0016236901, 0.21111105, 0.5740216, -0.1187324, -0.021020109, 0.27760315, 0
201, 2226739655, 0.7912541, 0.0016405359, 0.21102613, 0.5739751, -0.020920658, 9.1137405E-4, 0.35509396, 0
202, 2226756322, 0.7912791, 0.0016462952, 0.21097161, 0.57396066, -0.060202364, 3.353812E-4, 0.43646717, 0
203, 2226772989, 0.79129755, 0.0016613752, 0.21090096, 0.57396114, -0.06859987, 0.012903794, 0.40243912, 0
205, 2226806323, 0.79131603, 0.0017260686, 0.21071307, 0.5740046, -0.056083646, -0.0024728356, 0.23670578, 0
206, 2226822990, 0.7913235, 0.0017677471, 0.21061315, 0.5740308, -0.04274955, 0.08395169, 0.2769699, 0
207, 2226839657, 0.7913427, 0.0018386617, 0.2104563, 0.57406163, 0.018841654, 0.06057894, 0.31185818, 0
209, 2226872991, 0.7912266, 0.0019733757, 0.21025814, 0.5742936, 0.14513147, 0.13960256, 0.43956852, 0
210, 2226889658, 0.7911784, 0.0020374656, 0.21020901, 0.57437783, 0.13603902, 0.18965739, 0.44040966, 0
211, 2226906325, 0.7911364, 0.002077356, 0.21016815, 0.5744505, 0.17276113, 0.17285392, 0.39180946, 0
213, 2226939659, 0.79101455, 0.0020896718, 0.21009551, 0.574645, 0.15275718, 0.18870455, 0.33406448, 0
214, 2226956326, 0.79101574, 0.0020301044, 0.21007338, 0.5746514, 0.031795207, 0.04315756, 0.17238617, 0
215, 2226972993, 0.7910116, 0.0019055381, 0.21004763, 0.574667, 0.046746463, 0.041853976, 0.30863857, 0
218, 2227022994, 0.791255, 0.0016458407, 0.20960538, 0.5744942, -0.057076674, 0.13041568, 0.36376762, 0
220, 2227056328, 0.79147387, 0.0014606491, 0.2093525, 0.5742854, -0.0056815315, 0.1049143, 0.40420437, 0
221, 2227072995, 0.79156625, 0.0013724938, 0.20929757, 0.5741783, 0.044742208, -0.01645346, 0.37859344, 0
222, 2227089662, 0.79162526, 0.0012845472, 0.20944954, 0.57404196, 0.034418005, 0.04524992, 0.5593624, 0
224, 2227122996, 0.7917847, 8.528605E-4, 0.20988864, 0.57366204, -0.10230426, -0.12733223, 0.06735802, 0
225, 2227139663, 0.7918804, 5.633831E-4, 0.21016265, 0.57343006, -0.16977146, -0.30548796, 0.20711517, 0
228, 2227189664, 0.7922671, -4.1324645E-4, 0.21070331, 0.5726973, -0.54125, -0.43645966, 0.6450758, 0
229, 2227206331, 0.7923308, -7.555336E-4, 0.21084473, 0.5725565, -0.4247157, -0.62098974, 0.59721375, 0
230, 2227222998, 0.7923858, -0.0010795295, 0.21100496, 0.57242095, -0.49377045, -0.60488856, 0.50015926, 0
232, 2227256332, 0.79243183, -0.0016117245, 0.21118975, 0.57228774, -0.614997, -0.3669224, 0.31735134, 0
233, 2227272999, 0.7923746, -0.0017128512, 0.21117273, 0.5723731, -0.4843882, -0.37893933, 0.32799625, 0
234, 2227289666, 0.7923125, -0.0017356575, 0.2110899, 0.5724894, -0.3582366, -0.36667094, 0.40847683, 0
236, 2227323000, 0.79223096, -0.0016529411, 0.21082932, 0.57269853, -0.19290163, -0.10306574, 0.28234005, 0
237, 2227339667, 0.7921639, -0.0016045123, 0.21067676, 0.5728475, -0.16949739, 0.17625466, 0.31355858, 0
238, 2227356334, 0.7921095, -0.0015243292, 0.21043435, 0.573012, -0.053949337, 0.31040254, 0.34020805, 0
240, 2227389668, 0.7920155, -0.001395382, 0.20994668, 0.5733213, 0.35213393, 0.17153971, 0.466218, 0
242, 2227423002, 0.7919162, -0.0012378693, 0.20952651, 0.5736123, 0.27279615, 0.52787054, 0.33532238, 0
244, 2227456336, 0.7919598, -0.0012078807, 0.20924807, 0.57365376, 0.371957, 0.42594215, 0.29606342, 0
245, 2227473003, 0.7919778, -0.0011743382, 0.20914708, 0.57366574, 0.44063574, 0.32892308, 0.25253773, 0
246, 2227489670, 0.7920193, -0.0011544153, 0.20903768, 0.57364845, 0.36404684, 0.34165722, 0.2676134, 0
248, 2227523004, 0.79214644, -0.0011186898, 0.20893031, 0.57351214, 0.27556193, 0.28040695, 0.36720276, 0
249, 2227539671, 0.79219687, -0.0011262223, 0.20897363, 0.57342666, 0.22407904, 0.28387073, 0.5027981, 0
251, 2227573005, 0.79227746, -0.0012103617, 0.20925593, 0.573212, 0.07475864, 0.11329464, 0.4364872, 0
252, 2227589672, 0.792286, -0.0012718216, 0.20948055, 0.5731181, 0.050060015, 0.031584226, 0.4603672, 0
253, 2227606339, 0.792285, -0.0013437942, 0.20971169, 0.5730349, -0.018929243, -0.0407691, 0.26450825, 0
255, 2227639673, 0.7923342, -0.0015065745, 0.21011794, 0.5728177, -0.03931568, -0.19082715, 0.15440083, 0
257, 2227673007, 0.7924487, -0.0015510619, 0.21011311, 0.57266086, -0.06949999, -0.17756136, 0.21093082, 0
259, 2227706341, 0.7925801, -0.0015012398, 0.20976576, 0.5726065, -0.20213121, 0.049876247, 0.40664387, 0
260, 2227723008, 0.79261506, -0.0014920533, 0.20958401, 0.57262456, -0.06912383, 0.078254454, 0.5469456, 0
261, 2227739675, 0.79257965, -0.0015708655, 0.2094802, 0.5727114, 0.060145225, 0.07157991, 0.68463707, 0
263, 2227773009, 0.7925143, -0.0018265471, 0.2095921, 0.5727601, 0.09113024, -0.013377418, 0.5297909, 0
264, 2227789676, 0.79247487, -0.0020117536, 0.20974009, 0.57276005, 0.007068653, 0.054032914, 0.33037376, 0
265, 2227806343, 0.79249215, -0.0022119507, 0.20986438, 0.5726896, -0.024781985, 0.060829442, 0.17652416, 0
267, 2227839677, 0.7925289, -0.0024658293, 0.20984003, 0.5726468, -0.056703463, -0.08296276, -0.0035486221, 0
268, 2227856344, 0.7925822, -0.002451621, 0.20959815, 0.5726617, -0.12078454, 0.020266032, 0.16232586, 0
269, 2227873011, 0.7926497, -0.002371937, 0.20925474, 0.57269406, -0.11067603, 0.1407702, 0.4631195, 0
272, 2227923012, 0.79268456, -0.002323769, 0.2086643, 0.5728614, 0.0894415, 0.09487935, 0.71142197, 0
273, 2227939679, 0.7926685, -0.0024607182, 0.20877768, 0.57284164, 0.08903774, 0.013370489, 0.5372343, 0
275, 2227973013, 0.7926385, -0.0028735474, 0.2090574, 0.5727793, -0.06781245, 0.055914838, 0.08741951, 0
276, 2227989680, 0.79267585, -0.0030623898, 0.20906305, 0.5727246, -0.069122985, -0.14875232, -0.09506321, 0
278, 2228023014, 0.7927823, -0.0030632913, 0.20876536, 0.57268584, -0.17481388, -0.15608491, 0.12525558, 0
279, 2228039681, 0.7928389, -0.0029311404, 0.20850903, 0.57270175, -0.28444165, 0.08523432, 0.41491222, 0
280, 2228056348, 0.7928828, -0.0027873442, 0.20827666, 0.57272613, -0.25894287, 0.24760212, 0.720006, 0
282, 2228089682, 0.79288125, -0.002658613, 0.2082325, 0.57274485, 0.08659522, -0.12370196, 0.6626816, 0
283, 2228106349, 0.792806, -0.0027354658, 0.20841208, 0.5727834, 0.07359447, -0.17636965, 0.49104786, 0
284, 2228123016, 0.79273593, -0.0028930753, 0.2086435, 0.5727955, -0.059931662, -0.067149326, 0.32279968, 0
286, 2228156350, 0.79277915, -0.0032901168, 0.20893031, 0.57262886, -0.15576856, -0.1082324, 0.047709465, 0
287, 2228173017, 0.7928179, -0.0034345612, 0.2089509, 0.57256675, -0.08404822, -0.2770769, -0.0962801, 0
288, 2228189684, 0.79288137, -0.0034811646, 0.20881094, 0.5725296, -0.06490443, -0.26378345, 7.5531006E-4, 0
290, 2228223018, 0.79304653, -0.0032886043, 0.20812526, 0.5725517, -0.23301977, 0.058936734, 0.48550987, 0
291, 2228239685, 0.79311347, -0.003175959, 0.20781401, 0.57257277, -0.23730817, 0.31536254, 0.7997694, 0
292, 2228256352, 0.79312515, -0.0031961054, 0.20767742, 0.57260597, -0.12374216, 0.2664047, 0.88450146, 0
294, 2228289686, 0.7930435, -0.0035507083, 0.20797046, 0.57261056, 0.21714763, -0.23234463, 0.48304558, 0
295, 2228306353, 0.7929844, -0.0038778484, 0.20817696, 0.5726154, 0.015353119, -0.08912221, 0.23603535, 0
296, 2228323020, 0.7930433, -0.0042147785, 0.2083011, 0.57248634, -0.17481638, -0.041810557, 0.13641357, 0
299, 2228373021, 0.79324067, -0.00494007, 0.20806335, 0.57229346, -0.06003079, -0.14747313, 0.08789158, 0
301, 2228406355, 0.7934261, -0.004974894, 0.20744157, 0.57226175, -0.10064397, 0.03567669, 0.33338928, 0
302, 2228423022, 0.79345894, -0.004888296, 0.20711629, 0.57233477, -0.1924231, 0.2711535, 0.5081768, 0
303, 2228439689, 0.79347277, -0.0048453137, 0.20685065, 0.572412, -0.15697174, 0.4100886, 0.63941956, 0
305, 2228473023, 0.7934686, -0.005043313, 0.20666482, 0.5724831, 0.21021703, -0.074905366, 0.59076786, 0
306, 2228489690, 0.79349554, -0.005233608, 0.2066662, 0.5724436, 0.2794591, -0.17835462, 0.4019308, 0
307, 2228506357, 0.7935625, -0.0054485872, 0.20666769, 0.5723482, 0.084279135, 0.061345533, 0.3979683, 0
309, 2228539691, 0.79387534, -0.006064892, 0.20672032, 0.5718891, -0.05079368, 0.13705456, 0.15528679, 0
310, 2228556358, 0.7939625, -0.006444402, 0.20691507, 0.57169366, -0.31307182, -0.00218076, 0.019418716, 0
311, 2228573025, 0.79406023, -0.006784953, 0.20697851, 0.57153094, -0.40855923, -0.1370323, 0.08183575, 0
314, 2228623026, 0.79447055, -0.007492706, 0.20670758, 0.5710497, -0.27824906, -0.6591108, 0.62031174, 0
315, 2228639693, 0.7944941, -0.0076767355, 0.20667891, 0.5710247, -0.5457916, -0.22383778, 0.7754278, 0
317, 2228673027, 0.79441166, -0.008069478, 0.20699099, 0.5710211, -0.48188046, -0.14540431, 0.29670238, 0
318, 2228689694, 0.79426074, -0.008258309, 0.20715415, 0.571169, -0.16244169, -0.38495702, 0.18555832, 0
319, 2228706361, 0.7941221, -0.008409206, 0.20714533, 0.57136285, 0.05616745, -0.38706508, 0.12706566, 0
321, 2228739695, 0.7941893, -0.008638255, 0.20623364, 0.57159597, 0.23102418, -0.07671194, 0.5279474, 0
322, 2228756362, 0.79435354, -0.008748341, 0.20529555, 0.57170343, 0.25841916, 0.24583234, 0.41404915, 0
323, 2228773029, 0.794622, -0.009006605, 0.20401366, 0.5717852, 0.3102057, 0.46632048, 0.46407127, 0
325, 2228806363, 0.7951434, -0.00951729, 0.20111592, 0.5720785, 0.072451584, 0.2847958, 0.9408684, 0
326, 2228823030, 0.7954984, -0.010141864, 0.19967048, 0.57208073, 0.20345448, 0.9018619, 0.082271576, 0
329, 2228873031, 0.79664713, -0.011960067, 0.1958961, 0.57175195, 0.8446119, 0.787271, 0.30613327, 0
330, 2228889698, 0.797036, -0.012679227, 0.19528033, 0.5714051, 0.7934655, -0.0061974274, 0.03087616, 0
332, 2228923032, 0.7975342, -0.013621032, 0.19439214, 0.5709909, 0.28026387, -0.14477432, 0.13543415, 0
333, 2228939699, 0.79775137, -0.013801575, 0.19388461, 0.5708558, -0.081843235, 0.33060056, 0.4395151, 0
334, 2228956366, 0.7979437, -0.013813704, 0.19344406, 0.57073593, 0.2071204, 0.85040647, 0.584404, 0
336, 2228989700, 0.7981764, -0.014107656, 0.19247888, 0.57073003, -0.19777915, 0.4525939, 0.15263653, 0
337, 2229006367, 0.79851294, -0.014691357, 0.19175194, 0.570489, 0.74617463, 0.17113423, 0.45425987, 0
338, 2229023034, 0.7988752, -0.015247427, 0.19099364, 0.57022136, 0.72766215, -0.45315146, 0.11556053, 0
340, 2229056368, 0.79940575, -0.015946347, 0.18959385, 0.5699258, -0.91116965, -0.15026203, -0.4573593, 0
341, 2229073035, 0.7996762, -0.016089872, 0.18875085, 0.56982243, -0.798113, -0.21051194, 0.15485954, 0
344, 2229123036, 0.8000391, -0.01650608, 0.18740505, 0.56974494, -0.35085806, -0.14496467, 0.96337986, 0
345, 2229139703, 0.8003212, -0.017340329, 0.18744114, 0.56931233, -1.3226392, -1.3257213, 0.189044, 0
346, 2229156370, 0.8007556, -0.01881526, 0.187163, 0.56874573, -1.276714, -2.336804, 0.42661, 0
348, 2229189704, 0.8012781, -0.021330904, 0.18525347, 0.5685463, -2.1278658, -1.935953, 1.8189697, 0
349, 2229206371, 0.8015734, -0.022944413, 0.18481939, 0.56820846, -2.7791524, -0.18305297, 1.8579416, 0
350, 2229223038, 0.8018957, -0.02461832, 0.18533169, 0.56751615, -3.067319, -0.21429181, 1.4164724, 0
352, 2229256372, 0.8019007, -0.024048604, 0.18859658, 0.5664569, -1.510612, -1.5359836, 1.0971899, 0
353, 2229273039, 0.8013084, -0.020781487, 0.19130436, 0.5665165, -1.4366246, -1.5074438, -0.025691032, 0
354, 2229289706, 0.8003823, -0.01706573, 0.19477126, 0.5667684, -1.4780445, -1.7825351, -0.8430395, 0
356, 2229323040, 0.7980951, -0.00900954, 0.20107898, 0.567975, -0.997359, -0.38539144, 0.088110924, 0
357, 2229339707, 0.796654, -0.005602725, 0.20305954, 0.5693357, 0.7407835, -2.212097, -1.2247925, 0
359, 2229373041, 0.7873598, -0.010733403, 0.20859556, 0.5800882, 1.7979331, 2.3480635, -0.5010729, 0
360, 2229389708, 0.78319955, -0.017214965, 0.20999159, 0.5850395, 0.37589613, 1.2228191, -2.1072297, 0
361, 2229406375, 0.78019893, -0.022062317, 0.20943376, 0.58907187, -2.0229747, 0.7311874, 2.355773, 0
363, 2229439709, 0.77685225, -0.016777642, 0.2016519, 0.59633946, -4.466944, -4.414233, 0.36023235, 0
364, 2229456376, 0.77506566, -0.014139477, 0.20026591, 0.59919274, -2.8750231, -4.472755, -0.48622036, 0
365, 2229473043, 0.7735171, -0.01466563, 0.20002545, 0.60125816, -2.843954, 0.29340377, 0.7371397, 0
367, 2229506377, 0.7737464, -0.019230206, 0.2023579, 0.6000527, -0.5862432, -0.5426597, 1.6329489, 0
368, 2229523044, 0.7739929, -0.01961321, 0.20288658, 0.5995437, -0.28994095, -0.5501067, 0.6038904, 0
371, 2229573045, 0.7736192, -0.018027268, 0.20431596, 0.5995903, -1.9101964, -1.0186815, 1.0924911, 0
372, 2229589712, 0.7732923, -0.017524954, 0.20574299, 0.5995389, -1.8070993, -1.9190103, 0.02586937, 0
373, 2229606379, 0.7728681, -0.017694566, 0.20800203, 0.59930134, -1.2195554, -1.5404117, 0.29735088, 0
375, 2229639713, 0.77188146, -0.020705257, 0.21293575, 0.59874374, -0.1870534, -0.2591515, -0.05008793, 0
376, 2229656380, 0.7712826, -0.023508664, 0.21650167, 0.5981327, -0.46861824, -0.61698675, -0.7164812, 0
377, 2229673047, 0.7706317, -0.026403952, 0.22045669, 0.5974059, -0.13603802, -0.7658563, 1.655591, 0
379, 2229706381, 0.77087957, -0.032017104, 0.22458352, 0.59527063, -3.6854959, -3.822393, 0.25746918, 0
380, 2229723048, 0.7720143, -0.033020318, 0.2218656, 0.59476423, -6.575574, -5.2907553, -1.2925177, 0
381, 2229739715, 0.7741159, -0.033004683, 0.21800224, 0.5934607, -2.4377625, -2.967329, -0.43806648, 0
383, 2229773049, 0.77761686, -0.028971259, 0.20526753, 0.59363556, -3.6881623, -1.3461943, 0.23393631, 0
386, 2229823050, 0.7777418, -0.0297133, 0.20098875, 0.59489805, -3.167611, -2.7661724, 0.21986961, 0
387, 2229839717, 0.77801925, -0.030946985, 0.20172568, 0.59422237, -2.6432123, -2.7194958, -0.7530947, 0
388, 2229856384, 0.7785244, -0.031691637, 0.20206828, 0.59340453, -3.8629336, -2.143027, -0.3577175, 0
390, 2229889718, 0.77975076, -0.033358663, 0.20124517, 0.59198105, -5.141569, -3.1640012, 0.2118578, 0
391, 2229906385, 0.78055644, -0.035442743, 0.20309754, 0.5901629, -4.096185, -2.0095558, 0.6463766, 0
392, 2229923052, 0.78180313, -0.037030727, 0.2049897, 0.58775604, -3.476718, -2.0018961, 1.3262529, 0
394, 2229956386, 0.78438807, -0.036731653, 0.20903203, 0.58288693, -3.2801087, -2.127725, -0.4746933, 0
395, 2229973053, 0.7845042, -0.034981497, 0.21043058, 0.58233476, -4.1396527, -1.3871621, 0.2398386, 0
396, 2229989720, 0.7839637, -0.031725667, 0.21110183, 0.5830059, -4.197423, -1.2129303, 0.14072323, 0
398, 2230023054, 0.78379536, -0.02621578, 0.21086143, 0.58359265, -2.170235, -2.3734066, -1.8841801, 0
400, 2230056388, 0.78554547, -0.022239678, 0.20464082, 0.58361906, -2.1175022, -2.0809278, -0.14003849, 0
402, 2230089722, 0.7879106, -0.020383429, 0.20041245, 0.58196366, -0.7598325, 1.8746469, 1.679965, 0
403, 2230106389, 0.7889548, -0.019118857, 0.19916019, 0.58102095, -1.433491, 3.0457387, 2.3215055, 0
404, 2230123056, 0.7899057, -0.01809068, 0.19931266, 0.57970804, 1.3188456, 2.481912, 2.5135336, 0
406, 2230156390, 0.79173136, -0.01591247, 0.20047514, 0.5768738, 3.4132776, 1.1576765, 0.29965687, 0
407, 2230173057, 0.79241514, -0.014820982, 0.20135538, 0.57565594, 2.897332, 1.5814297, 0.9512329, 0
409, 2230206391, 0.79282594, -0.012490783, 0.20308995, 0.57453537, 3.2342098, 1.8159128, 0.58863163, 0
410, 2230223058, 0.7924645, -0.01080323, 0.20431769, 0.5746328, 2.6410174, 1.0073951, 0.07921982, 0
411, 2230239725, 0.7918331, -0.009121262, 0.205587, 0.5750795, 0.82127285, 0.8314454, -0.22492409, 0
413, 2230273059, 0.7903478, -0.005899459, 0.20684452, 0.5767114, 1.9531829, -0.6700209, -0.25538254, 0
415, 2230306393, 0.7882037, -0.0032516867, 0.2084124, 0.57909745, 1.1153421, -0.6956068, 0.923666, 0
417, 2230339727, 0.78652465, -0.002386652, 0.20873605, 0.58126414, 0.29920536, -0.7229747, 0.4466009, 0
418, 2230356394, 0.78587323, -0.0027101114, 0.20832193, 0.5822913, 0.29184917, -0.6772512, 1.151454, 0
419, 2230373061, 0.785165, -0.0027689338, 0.20794898, 0.5833787, 1.0394478, -0.7886225, 0.6387434, 0
421, 2230406395, 0.783779, -0.0035255924, 0.20751469, 0.5853895, -1.1287967, 0.14940533, 0.085333824, 0
422, 2230423062, 0.7833774, -0.0039352104, 0.20669776, 0.5862131, 0.089206174, -0.14376934, 0.6427412, 0
423, 2230439729, 0.78269404, -0.004254192, 0.20690371, 0.5870503, -1.0210118, -1.5966614, -0.5184336, 0
425, 2230473063, 0.78161466, -0.005314231, 0.20729248, 0.5883413, -0.097451285, -0.69977814, 0.5587387, 0
426, 2230489730, 0.78110516, -0.0057327673, 0.20744406, 0.58895993, -1.3797829, -2.0307674, -0.1687975, 0
427, 2230506397, 0.7806497, -0.006271176, 0.20696875, 0.58972543, -1.2146275, -1.7237155, -0.08632946, 0
429, 2230539731, 0.77992743, -0.007437229, 0.20681927, 0.590719, -2.693964, -2.022577, 0.09235954, 0
430, 2230556398, 0.77969515, -0.007985394, 0.20692556, 0.59098107, -2.4710777, -1.4097059, 0.9468384, 0
431, 2230573065, 0.77935517, -0.008349642, 0.2077497, 0.5911353, -2.704406, -2.858756, -0.082452774, 0
433, 2230606399, 0.77813697, -0.009130612, 0.21153282, 0.5913869, -3.2394738, -3.2239237, 1.1778355, 0
434, 2230623066, 0.77769834, -0.010636814, 0.21536708, 0.59055424, -3.200296, -3.23705, 0.8508625, 0
436, 2230656400, 0.77693456, -0.012834355, 0.22306181, 0.58865666, -5.44306, -3.8590705, -0.19115925, 0
437, 2230673067, 0.776523, -0.0132877305, 0.22634009, 0.58793783, -4.2600245, -4.414561, -0.68797016, 0
438, 2230689734, 0.77616453, -0.013217829, 0.22914238, 0.587327, -4.0125422, -4.110945, -0.111860275, 0
440, 2230723068, 0.7764476, -0.013480328, 0.23411012, 0.58498305, -3.482006, -2.9402294, 3.2710361, 0
442, 2230756402, 0.78130805, -0.017938122, 0.24127302, 0.5754029, -2.8275306, -2.6994474, 0.40501213, 0
444, 2230789736, 0.7798929, -0.02046533, 0.24448231, 0.5758834, -3.363796, 0.21763752, 0.78703594, 0
445, 2230806403, 0.7783419, -0.022548757, 0.24632826, 0.57711613, -2.4847288, 0.20270568, -1.9045901, 0
446, 2230823070, 0.7767524, -0.02489524, 0.24908535, 0.5779772, -2.2597356, -0.9936516, -0.4908371, 0
448, 2230856404, 0.77562344, -0.023023538, 0.2515788, 0.57849073, -2.0441024, -0.42405334, -2.775622, 0
449, 2230873071, 0.77713704, -0.021461591, 0.25188985, 0.5763802, -1.8436092, 2.1351447, -0.56255627, 0
450, 2230889738, 0.77820146, -0.017797522, 0.25217962, 0.57494044, -2.768403, 2.6620343, -1.6260443, 0
452, 2230923072, 0.77980244, -0.0033209622, 0.24467248, 0.5762794, -3.5758226, -0.86947393, -0.51276875, 0
453, 2230939739, 0.7803147, 0.0011945292, 0.24273488, 0.5764135, -3.6489365, -3.2449076, -5.125327, 0
454, 2230956406, 0.78183985, 0.0031715333, 0.24183023, 0.57471716, -1.7633277, -1.3256735, 4.925149, 0
457, 2231006407, 0.78502345, 0.012938008, 0.23833779, 0.5716915, -2.4047556, 0.28822812, 1.4433079, 0
458, 2231023074, 0.78557533, 0.016502291, 0.23733352, 0.57125926, -2.5008092, 1.0131911, 1.4426842, 0
460, 2231056408, 0.7860404, 0.021587707, 0.23922761, 0.5696577, 4.6214366, 2.025367, 1.5094967, 0
461, 2231073075, 0.78645194, 0.02358576, 0.23984577, 0.56874996, 4.571681, 2.234687, 1.5665493, 0
462, 2231089742, 0.78702164, 0.025002606, 0.23994596, 0.5678584, 4.020008, 1.8543384, 2.4695501, 0
464, 2231123076, 0.7876577, 0.026425153, 0.24063885, 0.5666176, 3.6301084, 3.839469, -0.6995001, 0
465, 2231139743, 0.7879129, 0.026604526, 0.24013959, 0.566466, 3.1715949, 3.2710865, -0.1938467, 0
467, 2231173077, 0.7886574, 0.02629216, 0.23831382, 0.5662154, 2.2792451, 1.2340662, -0.46595764, 0
468, 2231189744, 0.78903425, 0.02529277, 0.23776421, 0.56596714, 3.2873118, 2.532695, -0.41438198, 0
469, 2231206411, 0.7897329, 0.02402214, 0.23549674, 0.5659961, 2.3628898, 1.535463, 0.94866085, 0
472, 2231256412, 0.79310066, 0.019059263, 0.22756875, 0.5647174, 0.8532514, 0.24440335, 0.10466099, 0
473, 2231273079, 0.7943676, 0.017496273, 0.22433941, 0.5642791, 0.7652986, 0.26072106, 0.51896, 0
475, 2231306413, 0.7968592, 0.013807856, 0.21887901, 0.5630116, 1.0257511, 0.4756235, -1.2713461, 0
476, 2231323080, 0.79776746, 0.011810042, 0.21644999, 0.5627096, 0.928188, 0.68191266, -0.12979221, 0
477, 2231339747, 0.79846877, 0.010226846, 0.21395844, 0.5626989, 0.23417926, 0.21317168, 0.5483179, 0
479, 2231373081, 0.80023634, 0.0069950446, 0.20764765, 0.56260157, -0.9853382, -1.200434, 2.5566692, 0
480, 2231389748, 0.8005835, 0.005989298, 0.2064264, 0.5625686, -0.28914908, -0.76737165, 0.23252106, 0
481, 2231406415, 0.80059344, 0.0050483197, 0.20589256, 0.56275934, -1.041856, -0.6208904, -1.7988787, 0
483, 2231439749, 0.7999447, 0.0036631972, 0.20476544, 0.5641023, 0.06805068, -2.198944, -0.24310017, 0
484, 2231456416, 0.7992447, 0.0034644827, 0.20538962, 0.56486857, 0.23231047, -3.0252545, -0.24662495, 0
487, 2231506417, 0.7960346, 0.002105087, 0.20741288, 0.5686561, -2.0831897, -4.141635, 0.28609943, 0
488, 2231523084, 0.79490185, 0.0016585216, 0.20769426, 0.5701376, -3.0033135, -4.416938, 0.7390251, 0
489, 2231539751, 0.79374266, 0.0011448637, 0.20823595, 0.57155454, -2.2866864, -4.3686323, 0.25908852, 0
491, 2231573085, 0.79064834, 8.331537E-4, 0.20943104, 0.5753941, -2.9615772, -2.7773726, 1.0777674, 0
492, 2231589752, 0.78919137, 0.0010828003, 0.20998737, 0.5771885, -3.5666878, -2.6903815, 0.64706135, 0
494, 2231623086, 0.78666145, 0.0017303154, 0.21200533, 0.57989645, -2.9648156, -3.019214, 1.1360741, 0
495, 2231639753, 0.7852694, 0.002395399, 0.21279265, 0.5814902, -3.527685, -3.028189, 2.3789434, 0
496, 2231656420, 0.78420955, 0.0029457286, 0.21391, 0.5825071, -3.4748185, -1.7478129, 1.6103907, 0
499, 2231706421, 0.782465, 0.0040666163, 0.21794072, 0.5833515, -0.9196475, 0.043588266, 3.1937685, 0
500, 2231723088, 0.78188807, 0.005665466, 0.21696347, 0.5844749, -2.5603373, -1.4236823, 7.25189, 0
502, 2231756422, 0.7819583, 0.0046695843, 0.22317433, 0.5820463, -5.3483934, -0.9211814, -1.8523045, 0
503, 2231773089, 0.7819747, 0.0043352917, 0.22824487, 0.580057, -5.8034782, -1.7150183, -8.190613, 0
504, 2231789756, 0.7822557, 0.0050505474, 0.22879896, 0.57945395, -3.5999362, -0.24845955, -3.3677096, 0
506, 2231823090, 0.7842509, 0.007947758, 0.2268682, 0.57748026, -1.7280637, 1.0483086, 5.16807, 0
507, 2231839757, 0.785535, 0.008866414, 0.22871254, 0.5749885, -0.54305714, 4.03277, 5.2270775, 0
508, 2231856424, 0.7865292, 0.011396937, 0.23128228, 0.57255197, -3.0647717, 1.5983942, -2.1856809, 0
510, 2231889758, 0.7909636, 0.017394237, 0.22983572, 0.5668465, -2.1253245, 0.22577891, -4.8779783, 0
511, 2231906425, 0.7942218, 0.022122838, 0.22675267, 0.56335676, 1.8187631, 3.0064688, 1.2941866, 0
512, 2231923092, 0.7969994, 0.027307957, 0.2238675, 0.56035244, 0.44437706, 5.2338943, 3.2092085, 0
515, 2231973093, 0.80076814, 0.03612724, 0.21973866, 0.55609846, -0.3907636, -2.043825, -4.194874, 0
517, 2232006427, 0.80191404, 0.04200498, 0.21905245, 0.5543022, 6.722955, 4.568714, 2.9375315, 0
518, 2232023094, 0.8025756, 0.04477202, 0.21899799, 0.55314815, 7.4866557, 5.8462877, 9.363968, 0
519, 2232039761, 0.80282634, 0.048163176, 0.22006825, 0.5520736, 3.5362363, 3.3117619, 6.258934, 0
521, 2232073095, 0.8024887, 0.060594678, 0.22378156, 0.54984295, -0.77286696, 2.2273903, -3.3374348, 0
522, 2232089762, 0.8030544, 0.06936487, 0.22370294, 0.54800946, 0.19346899, -0.28353885, -0.81959534, 0
523, 2232106429, 0.8035089, 0.07828167, 0.22362038, 0.54617274, 3.0152926, 0.4436548, 1.971385, 0
525, 2232139763, 0.80674416, 0.0931609, 0.22171903, 0.5398063, 2.9592106, 3.7495494, 2.2069054, 0
526, 2232156430, 0.8108536, 0.09913084, 0.21827176, 0.53395903, 1.2682713, 0.917432, 1.939395, 0
527, 2232173097, 0.8161223, 0.104639284, 0.21243866, 0.5271909, 1.3389113, 0.64825726, 1.3899498, 0
530, 2232223098, 0.8406228, 0.11658746, 0.19002594, 0.49367607, 0.28437063, 1.5245584, -3.8885531, 0
531, 2232239765, 0.8483332, 0.12029423, 0.18465608, 0.48148465, 1.1979231, -2.1953692, -1.3962994, 0
533, 2232273099, 0.8595972, 0.1272156, 0.18012181, 0.46100998, -0.18776122, -1.1812279, 0.64621735, 0
534, 2232289766, 0.86513144, 0.12950054, 0.17928883, 0.4502198, -1.4115652, -0.7149729, -0.97876644, 0
535, 2232306433, 0.87065434, 0.13102272, 0.17958578, 0.43887144, -0.07354889, -3.9981194, -1.3174791, 0
537, 2232339767, 0.87695193, 0.13240668, 0.18446052, 0.42363125, 7.942657, -10.096427, 4.3594484, 0
538, 2232356434, 0.87403804, 0.13356894, 0.19148704, 0.4261628, 0.2421524, -12.077671, -5.1417074, 0
539, 2232373101, 0.87095803, 0.13306071, 0.19932672, 0.4290233, 0.2947885, 1.0060552, 0.9589548, 0
541, 2232406435, 0.8702283, 0.12838836, 0.2095745, 0.42703977, -7.389383, 13.309773, -3.5050588, 0
542, 2232423102, 0.8674655, 0.13264355, 0.21825244, 0.4270135, 4.6229715, -17.48794, 6.062212, 0
545, 2232473103, 0.8606374, 0.14287086, 0.2351754, 0.42854276, 0.106225185, 4.2687154, 0.7749157, 0
546, 2232489770, 0.860459, 0.14417905, 0.2397424, 0.4259244, 1.7254956, -1.9130445, 0.8927889, 0
548, 2232523104, 0.8526203, 0.15914492, 0.26219875, 0.4231178, -7.8335085, 11.886145, -8.189978, 0
549, 2232539771, 0.84798795, 0.16810456, 0.28264266, 0.41573504, 4.481194, -2.9176764, 1.2869482, 0
550, 2232556438, 0.8386143, 0.17839983, 0.31105262, 0.41013545, -4.6987596, 4.9438076, -6.5533905, 0
552, 2232589772, 0.80432737, 0.20259637, 0.38846427, 0.4014634, -3.912113, 1.8759476, 7.203045, 0
553, 2232606439, 0.7875545, 0.20546539, 0.4202021, 0.40129465, -1.383639, -3.7202368, 10.617174, 0
554, 2232623106, 0.76644444, 0.20178431, 0.45354533, 0.40768608, -4.806549, -0.35930333, -2.6067238, 0
556, 2232656440, 0.7691316, 0.11968577, 0.46075156, 0.4264801, -17.1937, 26.432901, 0.7047529, 0
557, 2232673107, 0.7864575, 0.08681151, 0.44272536, 0.42191005, -14.835857, -5.5909853, -2.6250796, 0
560, 2232723108, 0.830695, -0.017824546, 0.36032248, 0.4241007, -3.6989098, -18.822968, 1.5644798, 0
561, 2232739775, 0.8266708, -0.0043274835, 0.34361157, 0.44563782, 3.8171184, -19.009033, 5.0626593, 0
562, 2232756442, 0.8138916, 0.017121792, 0.3321895, 0.47644812, 10.472426, -8.820675, -2.3694348, 0
564, 2232789776, 0.77845377, 0.071383566, 0.3406316, 0.5224459, 18.595898, 18.924458, -2.1828737, 0
565, 2232806443, 0.77413994, 0.08449809, 0.33915982, 0.52782905, 22.247833, 25.532837, -6.1651134, 0
566, 2232823110, 0.78508705, 0.08545109, 0.33557257, 0.5136075, 28.311224, 27.686352, -13.079679, 0
568, 2232856444, 0.8339482, 0.0330099, 0.33136082, 0.44012043, 68.095665, 34.329746, 10.60808, 0
569, 2232873111, 0.8580266, -0.008159138, 0.3304245, 0.3932033, 62.291695, 16.375055, 13.800953, 0
570, 2232889778, 0.86781913, -0.03382452, 0.35265347, 0.34849223, -25.459232, 7.0518727, 2.4597902, 0
572, 2232923112, 0.85854924, -0.13416606, 0.3910211, 0.30341458, 6.5385995, 11.8964, -2.9840007, 0
573, 2232939779, 0.84991384, -0.16203976, 0.40463284, 0.29618767, 5.0609136, 6.742748, 0.06369114, 0
575, 2232973113, 0.83797324, -0.19443777, 0.42635307, 0.2797915, -1.5822235, -4.3866673, 2.8106642, 0
576, 2232989780, 0.83249724, -0.21588276, 0.43962687, 0.25910723, -3.5157363, -5.1186986, 3.375475, 0
577, 2233006447, 0.8224547, -0.24692658, 0.45919397, 0.22760043, -6.1399503, -4.593072, 2.53543, 0
579, 2233039781, 0.77032673, -0.32172304, 0.5309549, 0.14575051, -7.341995, 0.3159453, 6.2484016, 0
580, 2233056448, 0.73481977, -0.33315074, 0.5830619, 0.09568024, -25.343966, -9.977402, 19.368002, 0
581, 2233073115, 0.70475715, -0.3241855, 0.63056254, 0.026024193, -36.857563, -19.052242, 23.345325, 0
583, 2233106449, 0.6624249, -0.32634354, 0.67070264, 0.070117146, 3.2865896, -56.91197, 2.6119585, 0
584, 2233123116, 0.6206826, -0.3110538, 0.715453, 0.07868458, 21.992414, 13.080127, 18.04604, 0
587, 2233173117, 0.5790876, -0.27509472, 0.76749295, 6.3058734E-4, -25.840582, 3.3608878, 0.13084698, 0
588, 2233189784, 0.57407165, -0.28346595, 0.7676495, -0.02946791, -28.661417, -3.858413, -7.1558337, 0
589, 2233206451, 0.5711981, -0.2961946, 0.7640666, -0.047634482, -24.498623, -4.381012, -12.322605, 0
591, 2233239785, 0.5697039, -0.32198858, 0.75422007, -0.054572403, -17.086786, -1.7737485, -16.330015, 0
592, 2233256452, 0.57395566, -0.33354494, 0.7465383, -0.045483068, -14.893055, -0.29487267, -16.281769, 0
593, 2233273119, 0.5817069, -0.34415355, 0.7364419, -0.029901788, -9.9615965, 1.0655901, -16.163076, 0
595, 2233306453, 0.5998774, -0.35954854, 0.7147294, 0.0099532455, -6.799706, -0.25950664, -15.352005, 0
596, 2233323120, 0.6107041, -0.36333027, 0.70271087, 0.035975456, -8.029607, -1.1282189, -14.469681, 0
597, 2233339787, 0.62572384, -0.3601309, 0.68902177, 0.063951045, -8.353629, 0.39133334, -12.254084, 0
599, 2233373121, 0.6744084, -0.32784712, 0.65068704, 0.119838014, -10.646832, -1.4889551, -7.1183596, 0
602, 2233423122, 0.76831096, -0.24224924, 0.55437636, 0.20915471, -3.0617921, -3.2227964, -1.7562361, 0
603, 2233439789, 0.7920859, -0.21047541, 0.5208633, 0.23888625, -1.9782884, -3.6618035, 0.1215477, 0
604, 2233456456, 0.81016815, -0.17444266, 0.49165177, 0.26747176, -2.3226511, -0.6109014, 4.8457403, 0
606, 2233489790, 0.8375017, -0.109952606, 0.4292682, 0.31983647, 4.648676, -0.78501874, 15.935265, 0
607, 2233506457, 0.84788024, -0.081676275, 0.39402765, 0.34530488, 8.516915, -2.43976, 13.8431, 0
608, 2233523124, 0.8523557, -0.05361232, 0.36190048, 0.3737764, 9.769673, -4.357998, 11.731377, 0
610, 2233556458, 0.84185797, 0.003767155, 0.30592155, 0.44467786, 11.15161, 1.317239, 8.621897, 0
611, 2233573125, 0.82971567, 0.030760348, 0.28365734, 0.47982252, 10.948181, 6.527443, 6.650442, 0
612, 2233589792, 0.8170903, 0.055373497, 0.26533666, 0.5088804, 9.350215, 10.002885, 5.1632586, 0
614, 2233623126, 0.800625, 0.09587244, 0.23480746, 0.54289865, 10.744428, 10.972742, 2.3592024, 0
616, 2233656460, 0.7999829, 0.11571662, 0.21567412, 0.54789335, 11.973228, 8.371547, -6.0690207, 0
618, 2233689794, 0.79965, 0.12578759, 0.22400582, 0.5427926, 14.7145195, 6.4562855, -5.8595815, 0
619, 2233706461, 0.7957132, 0.13057181, 0.2349557, 0.54281914, 16.297432, 6.4461756, -4.7826233, 0
620, 2233723128, 0.790308, 0.13437358, 0.24426079, 0.5456728, 18.27013, 8.147957, -2.3354568, 0
622, 2233756462, 0.7807289, 0.13358453, 0.25237805, 0.55586684, 16.254984, 9.192114, -10.116016, 0
623, 2233773129, 0.7781445, 0.1278849, 0.26140067, 0.5566612, 16.521992, 10.978711, -11.719181, 0
625, 2233806463, 0.78407896, 0.111749604, 0.28610516, 0.5393899, 22.033978, 13.216448, -0.6803789, 0
626, 2233823130, 0.7932892, 0.10162181, 0.29793563, 0.52121466, 22.994402, 11.674235, -0.9075289, 0
627, 2233839797, 0.80339056, 0.09082357, 0.3143993, 0.49752682, 23.959068, 7.622825, -2.414236, 0
629, 2233873131, 0.8221478, 0.018589124, 0.3718637, 0.43070883, 36.86197, 22.480122, 6.6546364, 0
631, 2233906465, 0.8513719, -0.020342566, 0.35768855, 0.38324445, -14.933779, 1.6236689, 5.9878283, 0
633, 2233939799, 0.8456177, -0.044098377, 0.3764301, 0.37596762, -4.0474405, -2.0726886, 0.49020004, 0
634, 2233956466, 0.839723, -0.062667556, 0.3938709, 0.36860415, -2.4434388, -3.586554, 3.0601082, 0
635, 2233973133, 0.83279705, -0.08956305, 0.4176154, 0.3522643, -2.7121923, -3.6050606, 2.633401, 0
637, 2234006467, 0.7975289, -0.17873257, 0.4895314, 0.30401757, -6.8674693, -1.8193356, 1.939352, 0
638, 2234023134, 0.765507, -0.23266715, 0.5338738, 0.27369508, -9.934843, -1.3673674, 8.765322, 0
639, 2234039801, 0.7238034, -0.27808207, 0.5852306, 0.23738065, -13.896585, -2.0246506, 12.52615, 0
641, 2234073135, 0.6354052, -0.30984485, 0.69782853, 0.11557271, -46.60568, -29.10245, 35.765556, 0
642, 2234089802, 0.6103743, -0.32084095, 0.7177411, 0.09704237, -62.300186, -66.98881, 31.223171, 0
643, 2234106469, 0.60976785, -0.32876897, 0.7066851, 0.14406829, -1.3621441, -19.917025, 6.3184586, 0
645, 2234139803, 0.60570663, -0.3227573, 0.72445077, 0.06468207, -16.68226, -20.560524, 9.016829, 0
646, 2234156470, 0.6017544, -0.32858858, 0.72712463, 0.03572464, -21.533623, -22.27452, -0.4858551, 0
647, 2234173137, 0.5838667, -0.34639305, 0.7340771, 0.017543629, -15.625347, -13.534504, -7.742567, 0
649, 2234206471, 0.53168654, -0.3672549, 0.7629275, -0.0209876, -23.270824, -8.334385, -13.370782, 0
650, 2234223138, 0.51135075, -0.3664024, 0.77657515, -0.035580397, -22.377954, -5.271493, -17.369343, 0
652, 2234256472, 0.48895854, -0.36027226, 0.79339844, -0.04132259, -16.219963, -1.19656, -19.481983, 0
653, 2234273139, 0.48589727, -0.3591507, 0.7962326, -0.031516954, -13.790925, 0.8180299, -18.598618, 0
654, 2234289806, 0.49019325, -0.3569415, 0.7950504, -0.016235858, -11.9141865, 2.218135, -17.073713, 0
656, 2234323140, 0.5194531, -0.34683502, 0.7807723, 0.018265262, -6.9914923, 4.8594694, -13.874533, 0
658, 2234356474, 0.57219595, -0.32931542, 0.7495126, 0.049388424, -8.633451, 4.0216036, -11.873284, 0
660, 2234389808, 0.64216965, -0.3006616, 0.69974977, 0.08738524, -9.258079, 3.273471, -8.267523, 0
661, 2234406475, 0.68176043, -0.2796257, 0.6673615, 0.108194694, -9.838153, 2.1954143, -5.3252335, 0
662, 2234423142, 0.7220244, -0.25461027, 0.6300258, 0.1303353, -6.5786967, 0.57115, -3.9894037, 0
664, 2234456476, 0.78508204, -0.20632638, 0.5569401, 0.17595111, -2.5593863, -1.5262598, -1.8757391, 0
665, 2234473143, 0.8061027, -0.17618111, 0.5280684, 0.20091762, -5.709492, -2.3836102, 1.6461048, 0
666, 2234489810, 0.82312685, -0.14427254, 0.49979785, 0.22784847, -6.275042, -2.2232578, 10.349775, 0
668, 2234523144, 0.85286796, -0.083235785, 0.43333608, 0.27923685, 1.5657691, -3.6615672, 18.137814, 0
669, 2234539811, 0.8625225, -0.0547679, 0.39728177, 0.3086874, 4.5626106, -4.6036015, 14.5625, 0
670, 2234556478, 0.8665982, -0.02422326, 0.36386824, 0.34071392, 6.3844457, -3.7459943, 14.618689, 0
673, 2234606479, 0.85631245, 0.058117427, 0.28598902, 0.42617697, 10.114949, 3.679248, 11.722904, 0
674, 2234623146, 0.8501999, 0.08344559, 0.26379567, 0.4479668, 9.94907, 7.0167055, 11.92956, 0
676, 2234656480, 0.84038514, 0.13057545, 0.22184116, 0.47702718, 10.487728, 9.330813, 3.2827473, 0
677, 2234673147, 0.83794594, 0.14920041, 0.20532802, 0.4832095, 9.704734, 8.4791, 0.07191563, 0
678, 2234689814, 0.8363238, 0.16403729, 0.194353, 0.48574325, 8.105221, 6.933205, -4.0533366, 0
680, 2234723148, 0.8338283, 0.1772649, 0.19233853, 0.4861882, 7.490865, 5.5256343, -3.0575018, 0
681, 2234739815, 0.83178604, 0.18012264, 0.19506194, 0.4875492, 9.798165, 6.174775, 2.014924, 0
683, 2234773149, 0.82760954, 0.182188, 0.19092813, 0.49546123, 8.937463, 5.3445334, -3.253704, 0
684, 2234789816, 0.82577235, 0.17930274, 0.18977052, 0.50000304, 8.261207, 5.1059794, -6.361287, 0
685, 2234806483, 0.8233616, 0.17463547, 0.19218493, 0.5046864, 8.628651, 4.724797, -7.0824633, 0
688, 2234856484, 0.8123615, 0.15681213, 0.21565968, 0.51868594, 11.70939, 5.3493233, -4.513775, 0
689, 2234873151, 0.80903757, 0.15284696, 0.22211453, 0.52232766, 13.285621, 6.8825126, -2.5967412, 0
691, 2234906485, 0.8068036, 0.15348312, 0.22811429, 0.5230108, 15.099812, 8.197538, -6.878183, 0
692, 2234923152, 0.80708086, 0.16301484, 0.23463124, 0.5167786, 18.197792, 10.125015, -5.385478, 0
693, 2234939819, 0.80854785, 0.17950174, 0.24249858, 0.5052616, 20.48922, 8.85102, -7.040371, 0
695, 2234973153, 0.82352746, 0.18922016, 0.26775342, 0.46300292, 24.436708, 6.2825513, -14.851789, 0
696, 2234989820, 0.8322321, 0.18114397, 0.29572505, 0.43265283, 27.598948, 6.46196, -8.375212, 0
697, 2235006487, 0.8390631, 0.16652858, 0.32755366, 0.401267, 27.7961, 11.556522, -6.8967447, 0
699, 2235039821, 0.871897, 0.06259042, 0.32274875, 0.36301073, 12.042192, 37.233932, 24.442142, 0
700, 2235056488, 0.88202477, 0.044957697, 0.3157046, 0.3469971, -8.004489, -4.391284, 5.184064, 0
703, 2235106489, 0.8621133, -0.005321756, 0.39810443, 0.31354508, -4.0025787, -0.7178219, 1.5980873, 0
704, 2235123156, 0.84402925, -0.030428842, 0.4453705, 0.29731992, -3.087037, -1.2640375, 1.157012, 0
705, 2235139823, 0.81995165, -0.070763074, 0.4958946, 0.27717432, -8.075861, -1.2765231, 3.98345, 0
707, 2235173157, 0.7390838, -0.16385849, 0.6147501, 0.22147919, -19.613453, -2.9204738, 21.000355, 0
708, 2235189824, 0.6848823, -0.20106797, 0.6772421, 0.17865178, -34.555317, -13.56828, 22.85371, 0
710, 2235223158, 0.5691205, -0.281988, 0.75472414, 0.16444215, -26.195547, -95.88813, 29.119171, 1024
711, 2235239825, 0.5217134, -0.27597785, 0.7804239, 0.20653094, 12.198731, -12.065605, 4.2600107, 0
712, 2235256492, 0.47938076, -0.23785916, 0.8290665, 0.16226931, -23.689947, -7.739699, 8.429911, 0
714, 2235289826, 0.43303928, -0.19032058, 0.8738663, 0.112596214, -46.539703, 7.7065835, -13.104331, 0
715, 2235306493, 0.44186574, -0.18260275, 0.87453824, 0.0816022, -34.756046, 20.903233, -18.62983, 0
716, 2235323160, 0.47049734, -0.18850063, 0.8609779, 0.043384828, -30.713406, 7.9373894, -17.758295, 0
718, 2235356494, 0.53999716, -0.23825222, 0.8069661, 0.022582486, -12.89047, -5.6585083, -17.368847, 0
719, 2235373161, 0.56426585, -0.26808393, 0.77992857, 0.038880333, -10.018361, -8.248957, -19.669634, 0
720, 2235389828, 0.5838246, -0.28957915, 0.7552436, 0.07046394, -10.789754, -4.928846, -18.062988, 0
722, 2235423162, 0.6262844, -0.29077289, 0.7081323, 0.14775963, -5.6168537, -1.619236, -13.977905, 0
723, 2235439829, 0.6472005, -0.2779287, 0.6842112, 0.1892286, -7.1031666, -1.569767, -10.627624, 0
724, 2235456496, 0.669955, -0.25663644, 0.6575157, 0.23029622, -7.773295, 1.0049201, -7.721081, 0
726, 2235489830, 0.72034436, -0.20395198, 0.59169406, 0.29911724, -4.8113084, 1.0349292, -4.343055, 0
727, 2235506497, 0.7472171, -0.1729976, 0.5526569, 0.3261503, -3.9663088, 2.6163876, 1.2596979, 0
730, 2235556498, 0.80171156, -0.0869903, 0.43064117, 0.40534562, 19.905443, -2.9970098, 3.513113, 0
731, 2235573165, 0.7960731, -0.063453406, 0.40895602, 0.44165784, 24.68747, -3.004734, 2.7874498, 0
733, 2235606499, 0.79082966, -0.05759473, 0.36057714, 0.49124426, 18.438023, 13.272723, 11.089666, 0
734, 2235623166, 0.7734813, -0.046488732, 0.3483701, 0.5275122, 30.956047, -15.982862, -6.5542765, 0
735, 2235639833, 0.7471697, -0.052238993, 0.34645596, 0.56483823, 17.288515, 12.762546, -6.2208967, 0
737, 2235673167, 0.7149557, -0.051670246, 0.36045325, 0.596915, 6.745262, 2.8387523, 9.226761, 0
738, 2235689834, 0.7057739, -0.039750837, 0.36146632, 0.6080382, 4.117697, -2.580883, 10.886332, 0
739, 2235706501, 0.6978607, -0.030015402, 0.36139548, 0.6176958, 4.0656786, 7.265183, 0.10194683, 0
741, 2235739835, 0.70740384, -0.045125157, 0.34922856, 0.6129017, 19.221972, 3.028912, 2.3639135, 0
742, 2235756502, 0.7129801, -0.053790405, 0.3415857, 0.6100414, 3.415758, 3.2244234, 6.7708225, 0
745, 2235806503, 0.719389, -0.06473988, 0.33491793, 0.6051309, -1.639813, 0.7041759, -1.1747437, 0
746, 2235823170, 0.72342587, -0.07459597, 0.32835868, 0.6027738, -5.9431047, 5.9475365, -0.4076624, 0
747, 2235839837, 0.7291221, -0.08097269, 0.32424426, 0.59728986, -1.7518284, -2.8496861, -4.6460466, 0
749, 2235873171, 0.72903043, -0.08060044, 0.32331255, 0.59795696, 1.4605557, 2.8839371, 4.1903067, 0
750, 2235889838, 0.732175, -0.07941066, 0.32131034, 0.5953475, -4.110081, 0.7158428, -1.0406647, 0
751, 2235906505, 0.7336143, -0.07864204, 0.32354015, 0.59246314, -4.1887717, -3.05778, 1.3369465, 0
753, 2235939839, 0.73120373, -0.079403296, 0.33130243, 0.59105, -1.1410214, 0.70224875, 1.3216887, 0
754, 2235956506, 0.73317105, -0.08238145, 0.33244514, 0.5875535, -0.51349556, 0.48401216, 0.19594383, 0
755, 2235973173, 0.73718596, -0.08384902, 0.33168724, 0.5827309, 1.4047812, -1.0589513, 1.9924355, 0
757, 2236006507, 0.75710064, -0.06978658, 0.3208432, 0.5648482, -2.4511855, -1.9916428, -3.5243921, 0
760, 2236056508, 0.796393, -0.03695927, 0.2972411, 0.5254574, -3.1804152, 1.2380545, 3.2508984, 0
761, 2236073175, 0.80576146, -0.030760184, 0.2904475, 0.5152747, -4.009016, 1.3268938, 0.20624065, 0
762, 2236089842, 0.81375945, -0.026450597, 0.28636938, 0.5051273, -2.747068, 1.7815299, 1.2118645, 0
764, 2236123176, 0.8243503, -0.016093642, 0.2842026, 0.48936874, -1.5817974, 0.085297346, -0.9295645, 0
765, 2236139843, 0.8275947, -0.007839747, 0.28213292, 0.4852751, -1.4729263, 1.0861753, 3.9847069, 0
766, 2236156510, 0.8308904, 0.00204999, 0.2763189, 0.4830426, -1.8826579, 0.6936377, 2.7383413, 0
768, 2236189844, 0.8368199, 0.014440514, 0.26953313, 0.47638354, 1.0507684, 0.3375843, -5.851575, 0
769, 2236206511, 0.83827, 0.019534297, 0.26781154, 0.47462007, 3.7092783, 2.430279, 1.1912842, 0
770, 2236223178, 0.83940583, 0.028643042, 0.26039672, 0.47627312, 3.820017, 2.7203498, 0.2117176, 0
772, 2236256512, 0.8443851, 0.051963016, 0.2332874, 0.4795375, 4.491672, 2.447291, -2.5347672, 0
774, 2236289846, 0.8471888, 0.070384905, 0.21052584, 0.48276407, -5.2286024, -0.53334427, 6.64168, 0
776, 2236323180, 0.8486735, 0.07280548, 0.21383151, 0.4783244, 7.1024437, 2.4775524, -4.478723, 0
777, 2236339847, 0.849117, 0.07536371, 0.21283779, 0.47758356, 2.1985965, 1.5558134, -2.0587873, 0
778, 2236356514, 0.84978056, 0.07848792, 0.20910975, 0.4775469, -1.8100588, -2.724962, -0.16140842, 0
780, 2236389848, 0.84993374, 0.08128114, 0.20802036, 0.477283, 7.38886, 4.589016, 7.129366, 0
781, 2236406515, 0.84981304, 0.08229155, 0.20843908, 0.47714198, 5.297017, 3.641955, 0.81782055, 0
782, 2236423182, 0.84945077, 0.08296186, 0.20971934, 0.4771098, 1.9622442, 1.5311531, -5.892308, 0
784, 2236456516, 0.84843457, 0.0861121, 0.2086573, 0.47882256, -0.8011925, 1.7642297, 2.2505388, 0
785, 2236473183, 0.8481696, 0.087329105, 0.20965686, 0.47863472, 4.190146, 2.5747385, 1.839056, 0
786, 2236489850, 0.84786683, 0.088247344, 0.21126209, 0.47829694, 5.493012, 1.9553446, -1.0897131, 0
788, 2236523184, 0.8485403, 0.08755553, 0.21082664, 0.47742105, -0.09737177, 1.0588242, -0.32551765, 0
789, 2236539851, 0.84981173, 0.08669287, 0.20759863, 0.47673094, -2.044878, -0.38126346, 3.2398558, 0
791, 2236573185, 0.8527061, 0.08516188, 0.20320348, 0.473723, -0.58465594, 1.6181349, -0.59977245, 0
792, 2236589852, 0.8541949, 0.08384615, 0.20232028, 0.47164905, 1.6686561, 1.8477949, -2.5225964, 0
793, 2236606519, 0.8557538, 0.082833454, 0.20036471, 0.4698335, 1.2071218, 1.612809, -0.7487707, 0
795, 2236639853, 0.85844463, 0.080385275, 0.19745064, 0.46657225, 0.58725876, 1.2256107, 2.0942135, 0
796, 2236656520, 0.85983324, 0.079550736, 0.19510087, 0.46514466, -2.0238957, 0.024386857, 1.6291399, 0
797, 2236673187, 0.8611991, 0.07869849, 0.19339658, 0.46347153, -1.8036623, -0.38811323, 0.46706104, 0
799, 2236706521, 0.8629686, 0.07735889, 0.19327806, 0.4604451, 0.8353588, 0.8826148, -1.2166834, 0
801, 2236739855, 0.86484545, 0.076330945, 0.19034937, 0.4583103, -1.6662756, -1.2768699, 0.9098892, 0
803, 2236773189, 0.86602736, 0.07581434, 0.18927287, 0.45660675, -3.237801, -1.263402, -0.7997923, 0
804, 2236789856, 0.8664918, 0.07559059, 0.18929015, 0.45575494, -3.3612895, -0.4742697, -2.7118592, 0
805, 2236806523, 0.8669141, 0.07546686, 0.18833677, 0.45536733, -1.9203967, -0.8976055, 0.03762245, 0
807, 2236839857, 0.86747766, 0.07471575, 0.1861677, 0.45531005, 2.8649025, -0.44336125, 3.757306, 0
808, 2236856524, 0.8677892, 0.07422098, 0.18581961, 0.454939, 1.595769, 1.2648993, 5.2598667, 0
809, 2236873191, 0.867852, 0.07422495, 0.18698452, 0.45434108, -5.5686235, -0.45139867, -0.19136047, 0
811, 2236906525, 0.8675246, 0.073684715, 0.1919015, 0.4530019, -4.089986, -0.6725212, -4.358335, 0
812, 2236923192, 0.8676412, 0.07383607, 0.1907047, 0.45325947, 1.9368372, -0.7975971, 0.94344616, 0
813, 2236939859, 0.8681806, 0.07439707, 0.18789089, 0.45330983, 3.9026628, -1.4415067, 8.186176, 0
816, 2236989860, 0.8689224, 0.07503396, 0.19322824, 0.44952393, -5.942838, 0.93184096, -6.8220134, 0
818, 2237023194, 0.8689599, 0.07597796, 0.1987277, 0.44688776, 3.2415447, 0.3970412, -0.31313324, 0
819, 2237039861, 0.86947, 0.07906698, 0.19030118, 0.4490224, 0.83301085, -3.124033, 18.587809, 0
820, 2237056528, 0.86958635, 0.0820705, 0.18721633, 0.44955468, -16.393253, -1.3928686, 3.4446259, 0
822, 2237089862, 0.86947966, 0.081781015, 0.20748195, 0.44083273, 0.7410256, 3.294186, -7.917201, 0
823, 2237106529, 0.87029094, 0.08076494, 0.20783645, 0.43924925, 0.92231447, 1.8803113, -6.4444504, 0
824, 2237123196, 0.87099886, 0.07990747, 0.20341997, 0.44006944, 1.437948, -0.63621646, 6.5655365, 0
826, 2237156530, 0.87090164, 0.0806016, 0.20105337, 0.44122145, -5.8742747, -1.677053, 0.3143816, 0
827, 2237173197, 0.87117445, 0.07838526, 0.2111522, 0.43633834, -4.836344, 3.2833679, -6.9322567, 0
828, 2237189864, 0.8773578, 0.07915042, 0.21798643, 0.4201496, -2.0340142, -0.745847, -1.1835861, 0
831, 2237239865, 0.886208, 0.09004294, 0.21293738, 0.40156025, -4.864893, 3.3798099, -8.817683, 0
832, 2237256532, 0.88509524, 0.09373344, 0.21070153, 0.40433997, -2.6894798, 0.92479897, -10.12477, 0
834, 2237289866, 0.8871693, 0.10113888, 0.19026028, 0.40812716, 2.7477198, 2.2081, 7.488987, 0
835, 2237306533, 0.8875071, 0.1016985, 0.19316655, 0.40588236, 2.5790894, 2.0333674, 1.8916769, 0
836, 2237323200, 0.88808775, 0.10342674, 0.1942727, 0.4036414, 6.1711416, 1.4727651, -4.349427, 0
838, 2237356534, 0.8884759, 0.10979672, 0.18890253, 0.40365374, -0.7830332, 4.607874, 2.0372458, 0
839, 2237373201, 0.88930374, 0.11136429, 0.18757094, 0.4020189, 8.741236, 3.704215, 11.644358, 0
841, 2237406535, 0.8891677, 0.11306995, 0.19192362, 0.39978316, 8.662305, 0.23309422, -1.8987818, 0
842, 2237423202, 0.8891577, 0.11323172, 0.19241244, 0.3995246, 1.3251987, -1.8160057, -7.4617133, 0
843, 2237439869, 0.88920164, 0.11367242, 0.19162595, 0.39967978, -1.3795156, -0.69649017, -3.5756445, 0
846, 2237489870, 0.8875714, 0.1142669, 0.19460836, 0.40168777, 3.0741267, 3.131709, 2.1089153, 0
847, 2237506537, 0.8868886, 0.11461097, 0.19702949, 0.40191728, 2.0958877, 0.3415391, -2.6648216, 0
849, 2237539871, 0.8856152, 0.11641693, 0.19968879, 0.40289286, 1.7644998, 0.884327, -0.5254631, 0
850, 2237556538, 0.88526875, 0.11731915, 0.19956642, 0.4034525, 1.6585897, 2.6894863, 2.9290638, 0
851, 2237573205, 0.88538206, 0.117723934, 0.19967817, 0.4030304, 1.2387623, 1.8554989, 1.4231186, 0
853, 2237606539, 0.8869782, 0.11643539, 0.19852692, 0.4004556, -0.15594126, 0.6174524, 0.05468464, 0
854, 2237623206, 0.88833684, 0.115473494, 0.196523, 0.39870718, -0.07241492, 1.6375583, 1.8407211, 0
855, 2237639873, 0.8898515, 0.114530854, 0.1947974, 0.3964416, 0.75104046, 2.557679, 2.0464983, 0
857, 2237673207, 0.8934025, 0.11112918, 0.19241305, 0.39054438, 1.1521993, 1.2953862, -1.6138525, 0
859, 2237706541, 0.8965848, 0.108376145, 0.1878141, 0.38624024, -1.818085, -0.12769762, -0.697814, 0
861, 2237739875, 0.89928025, 0.10619682, 0.18499538, 0.38191542, -1.2643082, 1.1003354, 0.9199896, 0
862, 2237756542, 0.90050095, 0.105463326, 0.18368217, 0.37987086, -2.505907, -0.010739078, -1.4725447, 0
863, 2237773209, 0.90136987, 0.105182126, 0.18295753, 0.37823388, -0.8376432, -0.42097482, -0.8080206, 0
865, 2237806543, 0.9025391, 0.10522427, 0.18143111, 0.37616375, 0.23249264, -0.23990741, 1.7341299, 0
866, 2237823210, 0.90316087, 0.10535299, 0.18011338, 0.37526774, -3.058301, -1.5287982, -0.037732124, 0
867, 2237839877, 0.90361655, 0.10558342, 0.17902017, 0.37462837, -2.4645178, -1.6348577, -0.47842693, 0
869, 2237873211, 0.9042266, 0.10583964, 0.17719394, 0.37395167, -1.0165339, 0.38335577, 1.565445, 0
870, 2237889878, 0.90456045, 0.10570975, 0.17673503, 0.37339768, -0.30663106, 0.5028922, 0.8368664, 0
872, 2237923212, 0.9052118, 0.1050522, 0.17640992, 0.37215656, -0.87037075, 0.066744216, 1.2803593, 0
874, 2237956546, 0.9064721, 0.10349918, 0.17470294, 0.37032482, -1.7539753, -0.2543916, -0.0765295, 0
876, 2237989880, 0.90778303, 0.10217445, 0.17239726, 0.36855787, -1.365114, 0.4364513, 0.8563862, 0
877, 2238006547, 0.9083601, 0.10136716, 0.17217256, 0.36746216, 0.63536143, 0.7541703, 1.3616228, 0
878, 2238023214, 0.9087942, 0.100579366, 0.17236301, 0.3665149, -1.0939534, 0.15234675, -0.44343376, 0
880, 2238056548, 0.90933263, 0.10041864, 0.17237422, 0.36521554, -2.4836488, -0.3493585, 0.129282, 0
881, 2238073215, 0.9094612, 0.10127258, 0.17146878, 0.36508623, -1.5801214, -0.18764383, 0.78202724, 0
882, 2238089882, 0.9091656, 0.10255949, 0.17278826, 0.36484092, 0.84708655, -1.0159804, 2.1262627, 0
884, 2238123216, 0.9082404, 0.10478526, 0.17661476, 0.36468077, -0.58119345, -0.08676534, 1.943757, 0
885, 2238139883, 0.9076042, 0.10613978, 0.17905071, 0.36468482, -2.5791984, -1.3365569, -1.5393801, 0
886, 2238156550, 0.9068241, 0.10769287, 0.18189818, 0.36476135, -1.1854295, -0.41841066, -0.76759815, 0
889, 2238206551, 0.90459585, 0.111469686, 0.18527624, 0.3674493, 0.12239215, 0.2833228, 4.1425123, 0
890, 2238223218, 0.9041628, 0.11115664, 0.18710531, 0.36768296, -3.656026, -0.4760792, -0.23182297, 0
892, 2238256552, 0.90359414, 0.110667, 0.19073264, 0.36736482, -2.4928956, 0.08462118, -0.6947241, 0
893, 2238273219, 0.90357965, 0.11016487, 0.19090356, 0.3674626, -1.8523165, -0.5871194, 3.4423456, 0
894, 2238289886, 0.9034396, 0.109911494, 0.19302014, 0.36677626, -2.4338114, 0.32969844, 3.1804962, 0
896, 2238323220, 0.9038934, 0.11104539, 0.19759707, 0.36285856, -2.4306777, 3.7440968, -1.0142574, 0
897, 2238339887, 0.9071189, 0.1142442, 0.19639224, 0.3543713, -1.2740743, 5.1237316, -1.7200489, 0
899, 2238373221, 0.9176805, 0.12174976, 0.18524769, 0.32983038, 7.6723557, 9.883141, -3.321394, 0
900, 2238389888, 0.92309374, 0.12529083, 0.1745657, 0.31904924, 2.5125117, -6.1454887, -1.754219, 0
901, 2238406555, 0.9252913, 0.12624504, 0.16844432, 0.3155787, 0.88856226, -6.590151, -3.7331758, 0
904, 2238456556, 0.92875737, 0.123678386, 0.16133147, 0.3100825, 6.8622756, 2.9243445, 1.4270315, 0
905, 2238473223, 0.9292465, 0.12312788, 0.16198845, 0.30848908, 6.182861, 2.0222669, 2.2422495, 0
907, 2238506557, 0.9287961, 0.12505217, 0.16375752, 0.3081373, 5.700918, 1.2799366, 2.4566917, 0
908, 2238523224, 0.92812204, 0.12653784, 0.16606855, 0.30832508, 5.953642, 0.9824756, 0.90338993, 0
909, 2238539891, 0.92715013, 0.12881821, 0.1685521, 0.308956, 3.379186, 1.8622398, -0.21211529, 0
911, 2238573225, 0.92561865, 0.13362795, 0.17187423, 0.30967456, 1.6872785, 3.5656035, 1.4649572, 0
912, 2238589892, 0.9248706, 0.13727118, 0.17313163, 0.30961558, 2.3341618, 2.962832, 1.9750242, 0
913, 2238606559, 0.9240052, 0.14315635, 0.17404126, 0.3090234, 3.3372028, 3.4222105, 2.9668264, 0
915, 2238639893, 0.92235416, 0.16518195, 0.17386812, 0.3030064, -0.4160136, 5.668889, -1.20403, 0
916, 2238656560, 0.92396486, 0.17629701, 0.17229675, 0.29255363, 1.4248255, 6.3332806, -1.7542715, 0
919, 2238706561, 0.94633764, 0.2009342, 0.14090466, 0.21043184, 0.34588295, -1.6640749, -3.2151742, 0
920, 2238723228, 0.95052373, 0.21029058, 0.13126087, 0.1873987, -3.1432555, -2.721717, -4.67457, 0
922, 2238756562, 0.9514239, 0.23229027, 0.12258143, 0.16085026, -6.1142273, -9.943704, 0.50978947, 0
923, 2238773229, 0.94931436, 0.24260029, 0.12128375, 0.1590692, -8.444917, -5.9087434, -3.047967, 0
924, 2238789896, 0.94840205, 0.24806967, 0.122464515, 0.15512188, 3.3063042, 1.1595008, 2.0099564, 0
926, 2238823230, 0.9480463, 0.24960212, 0.12590411, 0.15205438, 0.81735104, -0.8664532, 1.2302208, 0
927, 2238839897, 0.9495427, 0.24443948, 0.12860899, 0.14880514, -1.1903894, 2.918322, 1.0845852, 0
928, 2238856564, 0.95088077, 0.23957223, 0.13183913, 0.14530817, -0.29672197, 1.8538917, -0.25446892, 0
930, 2238889898, 0.9524601, 0.23149122, 0.13754705, 0.14275064, 2.0068278, -1.9086894, 3.1448336, 0
931, 2238906565, 0.9526544, 0.22902896, 0.14061403, 0.142437, 4.231681, 0.038695637, 2.6147099, 0
932, 2238923232, 0.9524829, 0.22878507, 0.14314401, 0.14145282, 3.688731, 0.918775, 1.5411768, 0
934, 2238956566, 0.949886, 0.23489916, 0.1518088, 0.13985102, -2.108925, 9.52422, -8.044754, 0
935, 2238973233, 0.9454476, 0.24501412, 0.16267054, 0.14035958, 4.9358053, -11.718487, 4.456913, 0
936, 2238989900, 0.9398385, 0.25453717, 0.17752454, 0.14305454, 0.87469715, 5.4161844, -3.3194046, 0
938, 2239023234, 0.92279506, 0.28052574, 0.22152685, 0.14403358, -3.3191385, -3.2351239, 0.8490257, 0
939, 2239039901, 0.9087466, 0.29853877, 0.250545, 0.1494885, 1.9698687, 1.3922544, 4.5617714, 0
940, 2239056568, 0.89390683, 0.3117808, 0.2800599, 0.15923178, -2.9631538, -2.5085397, 9.304951, 0
942, 2239089902, 0.8707994, 0.29201195, 0.34200442, 0.19883624, -8.27003, -1.1144491, 13.646276, 0
943, 2239106569, 0.8711446, 0.25574282, 0.35931903, 0.21600476, 3.5828664, 28.497723, 2.4788961, 0
946, 2239156570, 0.89811003, 0.15348965, 0.3369579, 0.23741144, -16.022797, -3.935362, -8.472211, 0
947, 2239173237, 0.90592563, 0.11483789, 0.32338268, 0.24819365, -13.219145, -10.511762, -6.4703135, 0
949, 2239206571, 0.903639, 0.09073379, 0.30483848, 0.28695446, -1.4217058, -12.167388, 4.4309397, 0
950, 2239223238, 0.8952028, 0.109068915, 0.29657835, 0.31436038, 5.7373185, -12.800108, 7.8581734, 0
951, 2239239905, 0.8846344, 0.13051823, 0.28427354, 0.3458917, 13.278854, -5.1663084, 3.7864304, 0
953, 2239273239, 0.8710019, 0.16193205, 0.26930666, 0.3777208, 25.426233, 10.6832485, -12.714412, 0
954, 2239289906, 0.874684, 0.16818443, 0.26760966, 0.36754897, 33.022297, 8.826979, -10.553771, 0
955, 2239306573, 0.88442034, 0.17166626, 0.2676934, 0.34166792, 38.207127, 5.437297, -14.91028, 0
957, 2239339907, 0.9012309, 0.1538615, 0.2991143, 0.27332327, 37.912624, -7.6735706, -15.539944, 0
958, 2239356574, 0.89866257, 0.1280247, 0.33921772, 0.24700524, 41.117203, -19.267498, -7.5218663, 0
961, 2239406575, 0.9034015, 0.07499396, 0.3618359, 0.21767396, 2.911663, 6.6722026, 3.7638779, 0
962, 2239423242, 0.89757836, 0.0693836, 0.37918457, 0.214064, -2.945114, -3.5681694, 0.9838352, 0
963, 2239439909, 0.8903243, 0.060161322, 0.4018945, 0.20554614, -2.2943223, 0.69021565, 1.1999025, 0
965, 2239473243, 0.8633118, 0.029638499, 0.46810043, 0.18644446, -3.3880718, 1.9883118, -0.24874783, 0
966, 2239489910, 0.84049577, 0.0038097352, 0.5115015, 0.17884028, -6.3705125, 1.4481615, 3.7987633, 0
967, 2239506577, 0.81069714, -0.028140798, 0.5596305, 0.1698739, -6.4861584, 2.0533261, 5.305497, 0
969, 2239539911, 0.71749777, -0.096894324, 0.6761361, 0.13679802, -28.183453, -1.1398783, 25.979305, 0
970, 2239556578, 0.66535026, -0.11917782, 0.7301126, 0.100532055, -21.31613, -8.428406, 19.120214, 0
971, 2239573245, 0.6196145, -0.13187401, 0.77128303, 0.062249318, -24.743078, -25.015203, 25.444794, 0
973, 2239606579, 0.58305335, -0.14974709, 0.7930676, 0.093455, 1.0909795, -2.245076, 3.954255, 0
975, 2239639913, 0.5502307, -0.11327027, 0.8269632, 0.024759188, -15.550029, 1.0826067, 0.6475525, 0
977, 2239673247, 0.5142489, -0.10581152, 0.85077804, -0.024373844, -23.392082, 7.0056024, -7.9892344, 0
978, 2239689914, 0.5066212, -0.10740462, 0.85400635, -0.050373316, -19.43586, 11.910938, -9.836484, 0
980, 2239723248, 0.5188155, -0.10301991, 0.8393649, -0.12549692, -17.029127, 5.27365, -13.309381, 0
981, 2239739915, 0.5339377, -0.11199859, 0.8243508, -0.15125437, -18.923546, 2.385451, -14.642937, 0
982, 2239756582, 0.55450064, -0.12888397, 0.8064004, -0.16031754, -17.975527, 0.48316035, -15.165133, 0
984, 2239789916, 0.6022913, -0.17130226, 0.7677631, -0.13603646, -11.025264, -2.2722728, -15.219874, 0
985, 2239806583, 0.62412643, -0.19054386, 0.749047, -0.114686996, -6.593249, -1.048233, -14.816868, 0
986, 2239823250, 0.6461052, -0.20109606, 0.7300251, -0.096108735, -8.371769, 0.02993509, -12.952333, 0
988, 2239856584, 0.70253587, -0.19052434, 0.6833811, -0.056562483, -10.047781, -1.1133658, -10.870457, 0
990, 2239889918, 0.7634162, -0.1527161, 0.62747234, -0.014742494, -8.287235, 2.9436872, -4.47313, 0
993, 2239939919, 0.8526486, -0.07231457, 0.51725864, 0.01643154, -5.7938557, 0.52393156, 3.9561405, 0
994, 2239956586, 0.8771797, -0.04872615, 0.47711763, 0.024609327, -3.9846447, -0.02014187, 8.766321, 0
996, 2239989920, 0.9162686, 0.010071412, 0.39817798, 0.043243885, 1.483187, -5.060639, 10.833441, 0
997, 2240006587, 0.9289526, 0.040442355, 0.36255312, 0.06349903, 1.8541722, -5.373461, 12.587456, 0
998, 2240023254, 0.93720365, 0.07155089, 0.32838362, 0.093591064, 5.235543, -3.5835295, 12.544304, 0
1000, 2240056588, 0.94086754, 0.12501884, 0.26590714, 0.16881084, 12.030346, 1.8655093, 8.696978, 0
1001, 2240073255, 0.9376857, 0.14529967, 0.2387695, 0.20661062, 13.624578, 4.7810173, 7.431978, 0
1002, 2240089922, 0.93380773, 0.15924248, 0.2134865, 0.23902646, 13.890847, 4.6516104, 5.88095, 0
1004, 2240123256, 0.93074316, 0.16704158, 0.17024948, 0.27729908, 15.470235, 0.79403174, 1.9068222, 0
1005, 2240139923, 0.9302733, 0.17174144, 0.1526591, 0.28610656, 15.249461, -0.9966666, -0.10293388, 0
1007, 2240173257, 0.9257757, 0.18636914, 0.13703263, 0.29915422, 15.275839, -1.8685592, -5.370986, 0
1008, 2240189924, 0.92127466, 0.19463515, 0.14019576, 0.30623612, 16.671974, -2.867735, -6.9239244, 0
1009, 2240206591, 0.9160572, 0.20187612, 0.14963003, 0.31266814, 16.793343, -2.243114, -8.640952, 0
1011, 2240239925, 0.9028915, 0.21320397, 0.18409608, 0.32481545, 18.2463, -1.1568956, -6.0144997, 0
1012, 2240256592, 0.8950904, 0.21588753, 0.20346914, 0.33297342, 19.777401, -0.61510915, -4.220937, 0
1013, 2240273259, 0.8876893, 0.21620287, 0.2222602, 0.3404848, 20.984169, 0.94887555, -5.642723, 0
1015, 2240306593, 0.87916327, 0.2107189, 0.26661628, 0.33414164, 24.789139, 2.2502422, -8.117784, 0
1016, 2240323260, 0.8757548, 0.20384803, 0.2939107, 0.32431674, 24.712479, -0.19000255, -7.6914916, 0
1019, 2240373261, 0.8589579, 0.15022126, 0.392327, 0.2928645, 30.16789, 6.971615, 6.265478, 0
1021, 2240406595, 0.8649464, 0.062088788, 0.41037583, 0.28225818, 0.90616834, 5.8715386, -2.1039128, 0
1023, 2240439929, 0.87375474, 0.047166526, 0.40771145, 0.26108384, 0.94417983, 1.8924431, 3.6971512, 0
1024, 2240456596, 0.87797385, 0.03898391, 0.40872133, 0.24628131, -1.5152695, 0.48250014, 1.1169119, 0
1025, 2240473263, 0.8800923, 0.02825734, 0.4143324, 0.23028873, -2.4500303, 0.14414068, 1.4630194, 0
1027, 2240506597, 0.8758077, 0.0020623058, 0.43845183, 0.20194548, -0.5766659, 4.5731797, -0.837245, 0
1028, 2240523264, 0.86609674, -0.0072374344, 0.4597252, 0.1963216, -3.5121841, 4.8564143, -0.17753983, 0
1030, 2240556598, 0.82654333, -0.034014657, 0.52725714, 0.19425355, -5.1023827, 1.1803364, 1.348485, 0
1031, 2240573265, 0.7957284, -0.054594427, 0.57276696, 0.1893126, -5.591479, 1.9871019, 5.2544394, 0
1032, 2240589932, 0.7539638, -0.07548113, 0.627023, 0.18096595, -9.211581, 3.0699825, 8.808153, 0
1035, 2240639933, 0.5929236, -0.11937408, 0.79119706, 0.090907134, -35.969418, 1.5392361, 27.980213, 0
1036, 2240656600, 0.56954026, -0.12156074, 0.8122433, 0.03425312, -32.925903, -9.161399, 15.113842, 0
1038, 2240689934, 0.5733652, -0.12455706, 0.8098164, 5.040914E-4, -2.9804242, -5.8118143, -2.1431303, 0
1039, 2240706601, 0.55802554, -0.124537066, 0.8198861, -0.030818537, -19.659668, -5.2675376, -1.8978214, 0
1040, 2240723268, 0.54240835, -0.12256169, 0.82944506, -0.05346267, -28.527828, -2.5215614, -5.963396, 0
1042, 2240756602, 0.52667654, -0.10744205, 0.8396388, -0.07835758, -24.385258, 7.2923427, -10.93931, 0
1043, 2240773269, 0.53273004, -0.09856145, 0.8363178, -0.084392264, -22.307112, 8.209265, -12.47439, 0
1044, 2240789936, 0.54916453, -0.092747554, 0.8263807, -0.08352421, -19.572338, 8.211152, -12.521941, 0
1046, 2240823270, 0.60522234, -0.09373303, 0.787928, -0.064457834, -11.679319, 5.4835496, -11.262245, 0
1047, 2240839937, 0.63910407, -0.09565857, 0.7612012, -0.05507514, -7.917083, 5.610228, -10.722054, 0
1051, 2240906605, 0.7945813, -0.089983545, 0.5986954, -0.046613783, -4.255733, 0.7652988, -3.7015877, 0
1052, 2240923272, 0.82816637, -0.08264357, 0.5522188, -0.0492965, -3.690413, 1.3601298, -3.292982, 0
1054, 2240956606, 0.8797723, -0.049587302, 0.47018117, -0.050365895, -5.7219105, -2.0854652, 4.807494, 0
1055, 2240973273, 0.90082866, -0.027792968, 0.43124437, -0.04276514, -3.1927207, -3.7571745, 5.790348, 0
1057, 2241006607, 0.9301717, 0.021284312, 0.36657643, -0.0038235784, 0.8283195, -3.3017192, 9.259977, 0
1058, 2241023274, 0.9399277, 0.04868967, 0.33707035, 0.02478382, 4.403928, -2.8737319, 9.893528, 0
1059, 2241039941, 0.9470074, 0.07055383, 0.3087067, 0.054448336, 7.355974, -2.951073, 7.5070095, 0
1061, 2241073275, 0.95507854, 0.10096411, 0.25571188, 0.11094159, 7.8666725, -4.364304, 6.8997498, 0
1062, 2241089942, 0.9565113, 0.11141112, 0.23062596, 0.13982442, 7.767794, -4.3772163, 5.116293, 0
1063, 2241106609, 0.9558039, 0.12177103, 0.2070116, 0.16977131, 7.878449, -3.3136282, 4.652894, 0
1066, 2241156610, 0.9444698, 0.15123518, 0.15117025, 0.24963464, 8.596937, 1.666556, -0.95975494, 0
1067, 2241173277, 0.94057673, 0.15746036, 0.13950133, 0.26669517, 9.4626665, 1.6174477, 0.58671665, 0
1069, 2241206611, 0.93634605, 0.1661284, 0.11770454, 0.2861265, 10.165196, 2.303487, -2.9926095, 0
1070, 2241223278, 0.9347748, 0.17130004, 0.11322833, 0.28999475, 9.7354, 2.0545719, -5.95333, 0
1071, 2241239945, 0.93260175, 0.17775783, 0.11610045, 0.2919628, 10.718105, 0.88673544, -6.3684883, 0
1073, 2241273279, 0.9259633, 0.19144696, 0.13763973, 0.2950604, 15.408454, -0.5058971, -4.70341, 0
1074, 2241289946, 0.9214217, 0.1988741, 0.15143177, 0.29759842, 17.821177, -0.60253084, -3.7076511, 0
1075, 2241306613, 0.91636604, 0.20639189, 0.16364905, 0.3015959, 19.680079, -0.034988604, -4.042999, 0
1077, 2241339947, 0.90763223, 0.21523008, 0.19066215, 0.30593005, 20.39273, 2.4173343, -11.809834, 0
1078, 2241356614, 0.90487504, 0.21515107, 0.21099436, 0.30076176, 22.055994, 2.0027525, -10.849113, 0
1079, 2241373281, 0.9037965, 0.21114816, 0.23328772, 0.2901903, 24.259012, 0.4883391, -5.442246, 0
1081, 2241406615, 0.90582764, 0.19642645, 0.26810035, 0.26283184, 24.360178, -2.4343982, -0.34869957, 0
1082, 2241423282, 0.90708053, 0.18439075, 0.2854976, 0.24851829, 21.886797, -3.5292587, -3.822122, 0
1083, 2241439949, 0.9068685, 0.16579679, 0.30899826, 0.23385112, 20.608244, -2.9745135, -1.8510695, 0
1085, 2241473283, 0.91433823, 0.088724434, 0.3291961, 0.21865243, 6.9600916, 8.331217, 6.6569366, 0
1086, 2241489950, 0.9170603, 0.085069835, 0.33261877, 0.2029621, -6.1652684, 7.080451, -0.2879877, 0
1088, 2241523284, 0.9132206, 0.053102672, 0.35782054, 0.18771842, 2.5055425, 5.063022, -0.6208248, 0
1089, 2241539951, 0.90655017, 0.040296286, 0.3760376, 0.1876277, 1.5702147, 5.153928, -2.366312, 0
1090, 2241556618, 0.8979143, 0.031593665, 0.3961802, 0.18936272, 0.585309, 1.1055523, -1.9234037, 0
1093, 2241606619, 0.8751737, 0.009260014, 0.45267275, 0.17069927, -1.239075, 0.12621665, 1.6382027, 0
1094, 2241623286, 0.86372375, -0.0014875084, 0.4771559, 0.1623781, -2.823109, 2.8950539, 1.6182957, 0
1097, 2241673287, 0.79627985, -0.05737853, 0.5859079, 0.13936782, -7.1577196, 1.0789579, 6.375473, 0
1098, 2241689954, 0.75766176, -0.08127454, 0.6354171, 0.12511358, -11.726254, 2.8777668, 13.255854, 0
1100, 2241723288, 0.66368115, -0.10762642, 0.73676246, 0.072044104, -16.29656, -4.277608, 16.086435, 0
1101, 2241739955, 0.61852306, -0.10887925, 0.7774625, 0.034526065, -33.12703, -11.066847, 19.21232, 0
1102, 2241756622, 0.5855279, -0.12366238, 0.8001376, 0.041351885, -47.182953, -27.575758, 20.87934, 0
1104, 2241789956, 0.5635177, -0.11656979, 0.81486094, 0.070186794, -3.3314645, 9.835046, -1.465395, 0
1105, 2241806623, 0.54564935, -0.10448824, 0.83033717, 0.04420893, -18.247509, 9.647116, -1.03825, 0
1106, 2241823290, 0.53448343, -0.096616685, 0.8394565, 0.019257888, -31.43055, 8.505099, -2.1200147, 0
1109, 2241873291, 0.5611528, -0.12849733, 0.8176705, 0.008720756, -20.232002, 12.791439, -10.065896, 0
1110, 2241889958, 0.58754957, -0.14415528, 0.79628015, 0.0028247684, -18.044645, 8.599312, -9.586735, 0
1112, 2241923292, 0.6523861, -0.182796, 0.7355554, -0.0012406409, -13.902362, -1.041642, -9.785451, 0
1113, 2241939959, 0.68457335, -0.19882363, 0.70131457, 0.0071891695, -9.782117, -3.861029, -11.471974, 0
1115, 2241973293, 0.7413153, -0.20118129, 0.63901, 0.041343957, -4.8309813, -3.2377214, -10.921355, 0
1116, 2241989960, 0.7670918, -0.18529452, 0.61116165, 0.061505124, -4.7125177, -0.6451629, -7.5591383, 0
1117, 2242006627, 0.7930544, -0.16375148, 0.5812474, 0.0804176, -4.34364, 1.5826638, -2.8605647, 0
1119, 2242039961, 0.8430223, -0.121634625, 0.50995725, 0.12052883, 4.1582093, -5.078202, -1.7362223, 0
1120, 2242056628, 0.859294, -0.10609844, 0.47845098, 0.14665288, 9.104489, -3.8213425, 1.2896872, 0
1121, 2242073295, 0.8702734, -0.09122109, 0.45128915, 0.17523172, 11.860863, -7.2528462, 5.149679, 0
1124, 2242123296, 0.86259955, -0.06133721, 0.40449107, 0.29767737, 18.074406, -7.2925124, 1.8037014, 0
1125, 2242139963, 0.84680605, -0.047280774, 0.4033306, 0.3436184, 16.624374, -0.63707983, -0.21248245, 0
1127, 2242173297, 0.82010674, -0.02171889, 0.4035707, 0.4051535, 9.575717, 6.19984, -2.1511645, 0
1128, 2242189964, 0.8189058, -0.016589478, 0.39600512, 0.41516665, 8.168057, 1.8543707, -2.3009706, 0
1129, 2242206631, 0.82083404, -0.014164574, 0.3884259, 0.4185946, 9.737055, -6.4650345, -1.8042727, 0
1131, 2242239965, 0.81242824, 0.0043336153, 0.38825628, 0.43504477, 12.201713, -8.3924, 2.1654854, 0
1132, 2242256632, 0.8064372, 0.013320163, 0.3933984, 0.4413441, 12.76679, -0.61468697, -7.48975, 0
1133, 2242273299, 0.8052609, 0.010635108, 0.40307152, 0.43478787, 9.897524, 6.062809, -13.501235, 0
1135, 2242306633, 0.8292418, -0.043712445, 0.4095092, 0.37790817, -3.3992827, 13.536018, 33.333942, 0
1136, 2242323300, 0.85383826, -0.035399504, 0.39039582, 0.34258366, 2.96749, 8.161105, -14.0700035, 0
1139, 2242373301, 0.90492445, -0.0050250962, 0.33005303, 0.268732, -9.184172, 6.786116, 1.5683289, 0
1140, 2242389968, 0.9125737, 0.0025072247, 0.30924213, 0.26765227, -9.657517, 8.3888235, 3.1638365, 0
1142, 2242423302, 0.92399055, 0.019966476, 0.26370874, 0.2763436, -2.5251532, 1.1017972, 2.7505941, 0
1143, 2242439969, 0.929686, 0.032397315, 0.23914464, 0.27840516, -2.9327118, -2.4943244, -2.5707884, 0
1144, 2242456636, 0.93508804, 0.04618691, 0.21317394, 0.27946293, -4.3538713, 0.38132787, 2.3660898, 0
1146, 2242489970, 0.940034, 0.06714901, 0.17681764, 0.28395104, -7.945484, 5.0113134, -2.4386969, 0
1147, 2242506637, 0.939539, 0.0685076, 0.18090001, 0.2826903, -2.5655897, -1.3108087, 15.077471, 0
1148, 2242523304, 0.9391326, 0.06757007, 0.18844606, 0.2793161, -0.945517, -2.4250207, 2.8845034, 0
1150, 2242556638, 0.9351106, 0.064124726, 0.2272575, 0.26433986, -0.05758828, 2.2767012, -3.2571702, 0
1151, 2242573305, 0.9349514, 0.06409815, 0.23546377, 0.25764215, 5.431917, -1.3442502, 2.2753344, 0
1152, 2242589972, 0.9353187, 0.070068374, 0.23492299, 0.2552363, 6.4856443, -1.7518675, -5.165603, 0
1154, 2242623306, 0.93639874, 0.08756493, 0.21985152, 0.2592685, 6.266424, 1.667666, -5.19638, 0
1155, 2242639973, 0.93785036, 0.0971841, 0.20030707, 0.26633474, 5.5290723, -8.460727, 10.156029, 0
1156, 2242656640, 0.9386038, 0.1050149, 0.18313298, 0.27298796, -10.399306, -4.0566072, -7.850013, 0
1158, 2242689974, 0.93554425, 0.1142027, 0.18804637, 0.27643856, 3.488561, 3.543188, 3.016654, 0
1159, 2242706641, 0.934778, 0.11717538, 0.19122824, 0.27560297, 5.247836, 1.097591, -3.2301197, 0
1160, 2242723308, 0.93388325, 0.12122799, 0.19028538, 0.27752954, -0.20391238, -1.8765025, -1.8880029, 0
1162, 2242756642, 0.9335324, 0.12617318, 0.1863643, 0.2791618, 3.6078892, 0.17229958, 3.7373447, 0
1163, 2242773309, 0.9344592, 0.12591891, 0.184204, 0.2776053, 6.1148815, -0.8458572, 4.0544567, 0
1166, 2242823310, 0.93613386, 0.12448256, 0.17764783, 0.2768827, 0.88125783, 3.0003135, -1.1193037, 0
1167, 2242839977, 0.9368736, 0.12532529, 0.17449461, 0.27600425, 1.5044979, 0.83070177, 0.22103882, 0
1169, 2242873311, 0.9374316, 0.13167506, 0.16948313, 0.274271, 3.648537, 1.3461246, 0.65573883, 0
1170, 2242889978, 0.9382503, 0.13391156, 0.16648802, 0.27221492, 2.6666605, 2.6006994, -1.3062782, 0
1171, 2242906645, 0.9398964, 0.13535804, 0.16204812, 0.26847485, 1.5558946, 1.8967099, -0.35519695, 0
1173, 2242939979, 0.9439768, 0.1388211, 0.15220112, 0.25794688, 1.6232721, -1.5730009, 0.079156876, 0
1174, 2242956646, 0.94682413, 0.13744017, 0.14766665, 0.25078726, 0.8580417, 1.3627961, -0.7644882, 0
1177, 2243006647, 0.95423985, 0.12838976, 0.13891587, 0.2317543, -0.28579977, 0.75488055, 0.03868103, 0
1178, 2243023314, 0.95570517, 0.12562342, 0.13836753, 0.22752175, -1.2470616, -1.4176848, -1.3725777, 0
1179, 2243039981, 0.9567393, 0.1224443, 0.13873804, 0.22466482, -1.1826291, -2.105018, 0.4636507, 0
1182, 2243089982, 0.9584576, 0.11055132, 0.13911602, 0.22327039, -2.047334, -0.16269597, -0.2672224, 0
1183, 2243106649, 0.9586514, 0.1076003, 0.13899639, 0.22395293, -1.3462498, -0.026375199, 1.101902, 0
1185, 2243139983, 0.9591386, 0.10311424, 0.137553, 0.22486722, -2.8078523, -1.016883, 2.1002836, 0
1186, 2243156650, 0.9590265, 0.10184531, 0.13811357, 0.22557822, -2.7996817, -0.3077365, 0.8093424, 0
1187, 2243173317, 0.9589047, 0.099925295, 0.13929, 0.22623074, -2.2689211, -0.10399908, 0.640049, 0
1189, 2243206651, 0.9588778, 0.09723432, 0.1392157, 0.22755909, -5.7668576, -0.031134076, -0.49005795, 0
1190, 2243223318, 0.9584826, 0.09770757, 0.1394935, 0.22884676, -1.9357849, -0.55848676, 1.5899458, 0
1191, 2243239985, 0.95816505, 0.09809938, 0.13888752, 0.23037359, -1.5817233, -0.03760697, 2.3935719, 0
1193, 2243273319, 0.9576357, 0.097211696, 0.1407731, 0.2318011, -4.1699452, 0.69388413, 0.33719635, 0
1194, 2243289986, 0.9574977, 0.095853806, 0.1425479, 0.23185258, -6.5792704, 1.0296082, -1.9178019, 0
1197, 2243339987, 0.9568164, 0.0956425, 0.14217027, 0.23496306, -0.25054726, 1.5130582, 3.1799965, 0
1198, 2243356654, 0.9564597, 0.09728742, 0.14244032, 0.2355761, -0.90396005, 1.4668295, 2.9118652, 0
1200, 2243389988, 0.9556688, 0.099927336, 0.14903241, 0.233594, -1.7800728, 0.88060635, -1.0816526, 0
1201, 2243406655, 0.95532537, 0.10035339, 0.15339786, 0.23198509, -0.81703, 1.153341, -1.9234018, 0
1202, 2243423322, 0.9553349, 0.09854162, 0.15630864, 0.23077631, 1.1051289, -0.5974862, -0.06145954, 0
1204, 2243456656, 0.9555505, 0.09592414, 0.16317353, 0.22618914, 0.74420786, -1.1620554, 1.476512, 0
1205, 2243473323, 0.95603174, 0.0950589, 0.16602853, 0.22241157, -0.026736367, 0.44464412, 1.7948313, 0
1206, 2243489990, 0.95698047, 0.09393588, 0.1690322, 0.21646683, 0.40077633, -0.35734954, -0.18505955, 0
1208, 2243523324, 0.9599064, 0.09251815, 0.16678421, 0.2055931, 2.176821, -3.0821807, -2.5308862, 0
1209, 2243539991, 0.95971894, 0.097146004, 0.16062063, 0.20920867, 2.399258, 1.1684549, -1.7288837, 0
1212, 2243589992, 0.9596548, 0.102142304, 0.14964743, 0.21517557, -1.2692834, -1.8405676, -0.10888195, 0
1213, 2243606659, 0.95877665, 0.10514947, 0.15015435, 0.21727799, 3.1270196, -0.13307375, 0.646719, 0
1214, 2243623326, 0.9579348, 0.10890238, 0.14918393, 0.21979721, 1.8674296, 1.0085434, 0.7356672, 0
1216, 2243656660, 0.9557974, 0.11750741, 0.15143901, 0.22310264, 2.8751688, -0.11441184, 2.928607, 0
1217, 2243673327, 0.9547556, 0.121234655, 0.15399946, 0.22381516, 4.685735, -1.7450105, 1.5151777, 0
1218, 2243689994, 0.9539789, 0.12462395, 0.15521085, 0.22442788, 4.284391, -2.1878529, 1.1627579, 0
1220, 2243723328, 0.9530627, 0.12919527, 0.15629742, 0.22498122, 2.976803, -1.8904413, -0.609849, 0
1221, 2243739995, 0.95267946, 0.13044868, 0.15673298, 0.22557753, 5.0787253, -0.88547635, 0.06949043, 0
1223, 2243773329, 0.95183325, 0.13284087, 0.1569631, 0.22758433, 3.0890734, -1.4366019, -0.15877819, 0
1224, 2243789996, 0.9512758, 0.13398173, 0.1576296, 0.22878247, 3.1407952, -1.5724053, -0.24591827, 0
1225, 2243806663, 0.9505821, 0.13505793, 0.1589295, 0.23013003, 2.7105954, -1.7644205, -1.6186724, 0
1227, 2243839997, 0.9493405, 0.1361765, 0.16101003, 0.23313029, 2.3278487, -0.3169392, 0.35986328, 0
1228, 2243856664, 0.9492451, 0.13547781, 0.1607097, 0.23413056, 2.1468406, -0.65846646, 2.4123287, 0
1229, 2243873331, 0.94893575, 0.13532466, 0.16159111, 0.23486504, 0.104774185, -0.7504056, -1.7524357, 0
1231, 2243906665, 0.94907904, 0.13297589, 0.16079271, 0.23617238, -0.25615337, 0.93649656, -0.34415054, 0
1232, 2243923332, 0.949362, 0.13215962, 0.15981755, 0.23615523, 1.0394566, 0.41491494, 1.1138, 0
1233, 2243939999, 0.9496561, 0.13157722, 0.15895742, 0.23587784, 0.9580682, 0.3708849, 0.65804577, 0
1235, 2243973333, 0.95041835, 0.12965257, 0.15781344, 0.23463818, 0.5701821, 0.87150615, 0.45476246, 0
1236, 2243990000, 0.9507266, 0.12944476, 0.15722446, 0.23389888, -0.9082984, 0.6471651, -0.63221264, 0
1239, 2244040001, 0.95207125, 0.12675111, 0.15523854, 0.23121615, 0.5429857, 0.0959571, 0.44891167, 0
1240, 2244056668, 0.9525311, 0.12575571, 0.15484232, 0.23012888, 0.06036783, 0.44100666, -0.015416145, 0
1241, 2244073335, 0.95300734, 0.124654695, 0.1544779, 0.22899818, -0.34971112, -0.053876933, 0.6576967, 0
1243, 2244106669, 0.9536842, 0.12348877, 0.15392792, 0.22717482, -1.8973029, 0.96272844, -0.49848557, 0
1244, 2244123336, 0.9540369, 0.12256779, 0.15411212, 0.22606504, 0.3480827, 0.25181288, 0.8372059, 0
1246, 2244156670, 0.9545227, 0.12149821, 0.15457395, 0.22426876, -0.9436219, -0.25292966, 0.8710823, 0
1247, 2244173337, 0.95453644, 0.12181005, 0.1549801, 0.2237609, -2.1691015, -0.15931, -0.042943954, 0
1248, 2244190004, 0.95449734, 0.12204471, 0.1557065, 0.22329527, -0.7077375, 0.04142349, 1.1253242, 0
1250, 2244223338, 0.9542446, 0.12384305, 0.1571863, 0.22234596, -0.92279947, -0.0026593152, -0.0452013, 0
1251, 2244240005, 0.9540631, 0.12500167, 0.15781152, 0.22203344, -0.98538226, 0.31468898, -0.095422745, 0
1254, 2244290006, 0.95455235, 0.12427491, 0.15765338, 0.22044581, -2.3840044, -0.1573239, 0.4467125, 0
1255, 2244306673, 0.9548038, 0.12344355, 0.15824145, 0.21939999, -1.3658333, 0.27325726, -6.465912E-4, 0
1256, 2244323340, 0.95519376, 0.122301534, 0.15817304, 0.21838887, -1.6481229, 0.97386384, 0.42521667, 0
1258, 2244356674, 0.9561355, 0.12043162, 0.15679038, 0.21629435, -0.53020144, 0.3754854, 0.559042, 0
1259, 2244373341, 0.9566345, 0.119831264, 0.15555105, 0.21531385, -0.67487377, 0.7839802, 2.3035622, 0
1260, 2244390008, 0.9570612, 0.11943661, 0.15488775, 0.2141122, -2.5362577, 1.5601796, 0.31884003, 0
1262, 2244423342, 0.9578583, 0.11806817, 0.15609324, 0.21039903, -0.74583024, 1.3087708, -0.053997993, 0
1263, 2244440009, 0.9584824, 0.11776039, 0.15430278, 0.20904519, -1.8072525, 1.1637034, 1.0159245, 0
1264, 2244456676, 0.95899695, 0.11749216, 0.15324111, 0.20761324, -0.7178897, 0.041135672, 2.1817284, 0
1266, 2244490010, 0.9595196, 0.11764507, 0.15503636, 0.20374203, -1.9618694, 0.52690774, -0.43176556, 0
1268, 2244523344, 0.9602746, 0.117468834, 0.15453425, 0.20064494, -1.8781613, 1.096928, -0.2581463, 0
1270, 2244556678, 0.961235, 0.11720151, 0.15107462, 0.19882885, -1.1230832, -0.12771739, 3.5376797, 0
1271, 2244573345, 0.9614242, 0.11740467, 0.15086243, 0.19795331, -1.410386, -0.06418701, 3.1952286, 0
1273, 2244606679, 0.9609772, 0.12112286, 0.15327336, 0.19602153, -2.4936798, 1.6121212, 1.2773113, 0
1274, 2244623346, 0.9604196, 0.1254291, 0.15432455, 0.19522071, -2.8014781, 2.0241177, 2.5947466, 0
1275, 2244640013, 0.9593146, 0.1319403, 0.15645784, 0.1946629, -1.420762, 0.61236674, 4.120203, 0
1277, 2244673347, 0.95734566, 0.14929503, 0.15937507, 0.18938151, 0.7276576, 5.759236, -2.4555492, 0
1278, 2244690014, 0.95770925, 0.15754363, 0.1612118, 0.17902297, 2.758948, 0.7741642, -7.191136, 0
1281, 2244740015, 0.95660114, 0.11949127, 0.19142634, 0.18454559, 6.180457, 0.8325267, 2.8670483, 0
1282, 2244756682, 0.9555328, 0.12128887, 0.18734282, 0.1929093, -13.984034, 1.7196999, 2.7402859, 0
1285, 2244806683, 0.9568458, 0.12647444, 0.16287869, 0.20490521, 2.763516, -3.1402237, 6.832365, 0
1286, 2244823350, 0.95679915, 0.1268141, 0.16247854, 0.20523043, 3.7978861, 2.9773586, 3.113781, 0
1287, 2244840017, 0.95681417, 0.12679714, 0.1632283, 0.2045751, 6.8307495, 0.80831236, 0.6577749, 0
1289, 2244873351, 0.9561495, 0.12925524, 0.16158399, 0.20742916, 2.9867818, -1.7463299, 5.4390287, 0
1290, 2244890018, 0.95576864, 0.1315365, 0.16118787, 0.20805863, 5.689606, 0.93527347, 5.8860044, 0
1291, 2244906685, 0.9552553, 0.13631643, 0.1603572, 0.207981, 5.6312866, 0.93889904, 1.8073044, 0
1293, 2244940019, 0.95251244, 0.15337265, 0.15779287, 0.21062669, 0.9450132, 3.6622624, 1.52353, 0
1294, 2244956686, 0.9505572, 0.16740048, 0.15483493, 0.21097316, 4.378644, 3.0877204, 2.8061323, 0
1295, 2244973353, 0.94973755, 0.18037686, 0.14999302, 0.20743711, 5.9346194, 1.7860603, 0.8339157, 0
1297, 2245006687, 0.9508804, 0.19824664, 0.13275757, 0.19739656, 1.3009082, -1.0127146, 0.9194441, 0
1298, 2245023354, 0.9521469, 0.20294428, 0.122099385, 0.19335744, -0.10998785, -2.9388974, 0.11806679, 0
1299, 2245040021, 0.95406437, 0.20511962, 0.11050578, 0.18852249, 3.6282063, 1.1016716, -2.440392, 0
1301, 2245073355, 0.9598343, 0.20706324, 0.087718315, 0.16796957, 1.0802269, 0.39104682, -2.7669868, 0
1302, 2245090022, 0.96190995, 0.20917623, 0.07973218, 0.15710708, 0.76205903, 3.1213245, -2.342502, 0
1304, 2245123356, 0.9661257, 0.21400565, 0.06813103, 0.12738192, 0.6857066, 4.1680923, -2.0058646, 0
1305, 2245140023, 0.9683838, 0.21710625, 0.06345318, 0.10553105, 2.2814875, 3.8452044, -2.309052, 0
1306, 2245156690, 0.9701854, 0.22017086, 0.059359223, 0.08250335, -1.9645336, -2.0770793, -0.9198723, 0
1308, 2245190024, 0.9711031, 0.22590484, 0.05742502, 0.051898926, -5.3814793, -5.3994656, -1.3253593, 0
1309, 2245206691, 0.97074664, 0.22840825, 0.060741886, 0.043087482, -2.8199766, -4.4153566, 0.18230343, 0
1312, 2245256692, 0.9699992, 0.22915941, 0.076663494, 0.027847141, 1.6905228, -1.9189441, 1.6127462, 0
1313, 2245273359, 0.96950823, 0.22963631, 0.08197543, 0.025814056, 2.6237435, -1.040572, 1.2225647, 0
1314, 2245290026, 0.9687996, 0.23101054, 0.08647108, 0.02548623, -0.26257625, 4.5598354, 2.1293726, 0
1316, 2245323360, 0.9638511, 0.24434663, 0.10403332, 0.022981882, -1.2616533, -3.7871444, -2.6388903, 0
1317, 2245340027, 0.96010053, 0.2507006, 0.12241674, 0.020873934, 5.2298365, 7.3030486, -1.4598503, 0
1318, 2245356694, 0.9548237, 0.25991318, 0.14357147, 0.014467657, 0.42316747, 5.729309, -1.7405643, 0
1320, 2245390028, 0.93378496, 0.29452202, 0.20203209, 0.023467064, -0.24031298, -1.214617, 8.061876, 0
1321, 2245406695, 0.9271127, 0.29316363, 0.23092455, 0.035446286, -4.5585203, -1.5068, 10.671755, 0
1322, 2245423362, 0.9278782, 0.2677806, 0.25478137, 0.04987198, 5.9423656, 12.014214, 4.0450277, 0
1324, 2245456696, 0.9364614, 0.19775017, 0.28407782, 0.057445854, -1.6392366, 5.635817, 3.545515, 0
1326, 2245490030, 0.9420482, 0.12745744, 0.304752, 0.059088886, -7.61504, -3.8801513, -4.3664923, 0
1328, 2245523364, 0.9359126, 0.109862074, 0.3216628, 0.0927161, -9.374228, -13.924665, 3.340847, 0
1329, 2245540031, 0.93067634, 0.110625006, 0.32407734, 0.12900771, -3.9730287, -14.678873, -1.5131569, 0
1331, 2245573365, 0.91583216, 0.11960764, 0.3238219, 0.20530528, 10.97405, -1.4401007, -2.8712773, 0
1332, 2245590032, 0.9106155, 0.124730244, 0.32183433, 0.22739801, 14.804547, 1.8833454, -9.282013, 0
1333, 2245606699, 0.90880245, 0.12464328, 0.32198408, 0.23437949, 17.254192, 0.34379914, -5.492795, 0
1335, 2245640033, 0.91653305, 0.11562156, 0.31807193, 0.21329357, 19.514818, -2.4953313, -6.972288, 0
1336, 2245656700, 0.92137694, 0.10659331, 0.32054284, 0.19240622, 18.09452, -5.853233, -6.4038067, 0
1337, 2245673367, 0.92319417, 0.092934445, 0.33057737, 0.1727987, 17.156052, -6.0978756, -9.615922, 0
1339, 2245706701, 0.9139019, 0.05020067, 0.38030344, 0.13303192, 18.140118, 6.681912, -15.945295, 0
1341, 2245740035, 0.9020611, 0.03227541, 0.4091799, 0.13372065, -12.359508, 1.5800595, -11.470013, 0
1343, 2245773369, 0.9056294, 0.036033213, 0.40360686, 0.12531504, -3.5153878, -2.0128555, 0.22939396, 0
1344, 2245790036, 0.9049434, 0.036060706, 0.40862375, 0.11344184, -4.4388547, 2.295831, 1.6825533, 0
1345, 2245806703, 0.89768773, 0.031426966, 0.42736015, 0.1029443, -6.3755307, 2.5967047, 1.384181, 0
1347, 2245840037, 0.85773605, -0.008363277, 0.50649273, 0.088030845, -7.5285563, 0.6066849, 3.3271065, 0
1348, 2245856704, 0.8247279, -0.039739475, 0.55911106, 0.075529814, -6.520875, 0.5492758, 7.1971684, 0
1351, 2245906705, 0.6877505, -0.07375589, 0.7219752, -0.019402757, -17.325626, -1.3737739, 16.993616, 0
1352, 2245923372, 0.6495719, -0.058957323, 0.7555417, -0.06166397, -33.77185, -9.454198, 10.633612, 0
1354, 2245956706, 0.6231528, -0.047499284, 0.7803673, -0.022723809, -13.710403, -1.426993, 4.629525, 0
1355, 2245973373, 0.62302434, -0.042750135, 0.7810346, -0.007947296, 5.945107, 5.9624205, -2.6619163, 0
1358, 2246023374, 0.5970815, -0.03857112, 0.79946154, -0.054153666, -16.512474, 2.915064, -5.207934, 0
1359, 2246040041, 0.59043425, -0.044813856, 0.8030879, -0.06704053, -18.638014, 3.9663785, -7.3439903, 0
1360, 2246056708, 0.58829, -0.050190434, 0.80337334, -0.07779734, -17.98301, 5.1573563, -9.340591, 0
1362, 2246090042, 0.59791374, -0.055435076, 0.79346555, -0.099519074, -16.500694, 6.0006633, -11.1308365, 0
1363, 2246106709, 0.6126859, -0.057465345, 0.7811065, -0.1060742, -16.68574, 5.352317, -11.008, 0
1364, 2246123376, 0.6327201, -0.062266022, 0.7645154, -0.10662921, -13.283874, 3.6266954, -11.684985, 0
1366, 2246156710, 0.67757386, -0.07582383, 0.72468877, -0.1001779, -11.291789, 3.087524, -10.149285, 0
1367, 2246173377, 0.7041085, -0.077995524, 0.6996827, -0.09304483, -10.848652, 2.6362221, -10.077008, 0
1368, 2246190044, 0.7309956, -0.07583116, 0.6730784, -0.08322118, -8.844912, 2.373124, -10.090744, 0
1370, 2246223378, 0.7866842, -0.05548948, 0.6116499, -0.06323421, -6.048003, 4.5033026, -5.5633545, 0
1371, 2246240045, 0.81218123, -0.040175214, 0.57917815, -0.058012635, -4.1433926, 3.8849235, -3.8947206, 0
1372, 2246256712, 0.8359226, -0.024814442, 0.54580647, -0.05270964, -7.818585, 2.0809731, 1.5032568, 0
1374, 2246290046, 0.8811756, 0.008963838, 0.47222307, -0.022802949, -8.461481, -1.835129, 6.6572437, 0
1375, 2246306713, 0.90079, 0.031053126, 0.43318707, 0.005258858, -5.062637, -3.2406685, 7.0778446, 0
1376, 2246323380, 0.9160281, 0.056067884, 0.39513552, 0.04101309, -1.3408926, -2.856203, 8.870819, 0
1378, 2246356714, 0.9328316, 0.11090809, 0.3210778, 0.120411366, 9.397383, 2.3396747, 10.600115, 0
1379, 2246373381, 0.93509924, 0.13617924, 0.28795695, 0.15553415, 13.789967, 3.1514885, 13.951307, 0
1381, 2246406715, 0.94088256, 0.16370952, 0.21761933, 0.20160922, 23.576365, 5.9854074, 8.364397, 0
1382, 2246423382, 0.94583684, 0.16842127, 0.18595903, 0.20618299, 22.417654, 1.9242374, 0.9911556, 0
1385, 2246473383, 0.9588481, 0.16209286, 0.13960543, 0.18684654, 16.370737, -6.6922426, -4.8218284, 0
1386, 2246490050, 0.9579775, 0.16515478, 0.14005071, 0.1882921, 14.440323, -7.3935785, -5.94051, 0
1387, 2246506717, 0.95477086, 0.16834971, 0.14702575, 0.19626418, 14.615745, -7.282676, -5.4971313, 0
1389, 2246540051, 0.9438882, 0.16956672, 0.17338601, 0.22433156, 15.269876, -3.87785, -5.4042892, 0
1390, 2246556718, 0.9372898, 0.16683346, 0.1919303, 0.23850116, 15.373181, -2.246291, -5.146218, 0
1391, 2246573385, 0.9301517, 0.16302298, 0.21325868, 0.25065398, 15.4568615, -1.468449, -4.251013, 0
1393, 2246606719, 0.91654223, 0.15522791, 0.25568363, 0.2656045, 18.226952, -0.42492098, -1.7208776, 0
1394, 2246623386, 0.91326755, 0.14829582, 0.27292472, 0.26368207, 19.017511, -1.3123816, -2.0805073, 0
1395, 2246640053, 0.91161764, 0.14213352, 0.29030088, 0.2540511, 18.685686, -4.7732587, -4.126532, 0
1397, 2246673387, 0.9062857, 0.13288848, 0.3302967, 0.22793913, 14.772999, -13.534662, -2.1251779, 0
1399, 2246706721, 0.89579666, 0.117523625, 0.36931214, 0.2177388, 14.628188, -8.154985, -1.2201996, 0
1401, 2246740055, 0.894819, 0.06338963, 0.39230886, 0.2035669, 5.1278486, 4.1727157, -4.3698053, 0
1402, 2246756722, 0.8984287, 0.06067232, 0.38730276, 0.19800624, -4.058984, 11.8452215, 9.53487, 0
1403, 2246773389, 0.9016606, 0.05799882, 0.38125265, 0.19584659, -1.1716326, -2.0762951, 6.291857, 0
1405, 2246806723, 0.9085764, 0.047702245, 0.3730216, 0.18202588, -1.8396283, -1.0125093, 0.7777958, 0
1406, 2246823390, 0.9105037, 0.03692305, 0.37635654, 0.16745368, -2.4345481, 0.5382818, 0.4087696, 0
1407, 2246840057, 0.91070956, 0.027170226, 0.38332134, 0.15165704, -0.07473624, 1.3678997, 0.71341133, 0
1409, 2246873391, 0.9047902, 0.013480231, 0.4071323, 0.124424934, -2.2837481, 1.1235557, 1.2214413, 0
1410, 2246890058, 0.89641064, 0.0032665879, 0.4286324, 0.11303538, -4.083884, 0.08913931, 1.8141108, 0
1412, 2246923392, 0.86038625, -0.040585488, 0.5006664, 0.086527035, -7.401143, 2.0237417, 1.8197803, 0
1414, 2246956726, 0.78460854, -0.07497512, 0.6136191, 0.048012838, -8.888137, 4.7840767, 13.02883, 0
1416, 2246990060, 0.6779736, -0.05562237, 0.73236185, -0.03113325, -30.381271, 1.6864265, 24.429222, 0
1417, 2247006727, 0.64147407, -0.052209884, 0.7631894, -0.058244348, -40.502235, -7.8218493, 16.453909, 0
1418, 2247023394, 0.6296137, -0.057036266, 0.7735893, -0.044253692, -44.090195, 4.3131795, 13.2100525, 0
1420, 2247056728, 0.6226759, -0.052632824, 0.7797313, -0.039861098, -1.7060277, 3.5537906, -6.735058, 0
1421, 2247073395, 0.6097128, -0.052870855, 0.7888036, -0.05752586, -15.152636, 4.646952, -4.318333, 0
1422, 2247090062, 0.600137, -0.054762468, 0.7948512, -0.07151157, -19.62058, 6.565605, -5.71301, 0
1424, 2247123396, 0.5964185, -0.05870554, 0.7958119, -0.08710489, -19.12389, 8.7704735, -8.771473, 0
1425, 2247140063, 0.6053444, -0.057518527, 0.78850687, -0.09258494, -16.922373, 8.021746, -9.979427, 0
1426, 2247156730, 0.6208304, -0.05726914, 0.77595913, -0.09613897, -15.357827, 6.678235, -10.200048, 0
1429, 2247206731, 0.6914811, -0.07306194, 0.71293753, -0.09110977, -9.977891, 3.0672328, -9.031919, 0
1430, 2247223398, 0.7199534, -0.075900644, 0.68438023, -0.08715154, -9.203952, 1.691059, -8.724325, 0
1432, 2247256732, 0.77594864, -0.06945762, 0.62241304, -0.075806126, -7.639881, 0.29285997, -6.9210176, 0
1433, 2247273399, 0.8019093, -0.059857726, 0.5903526, -0.070053875, -5.801302, 0.37159768, -5.418606, 0
1434, 2247290066, 0.8254429, -0.049534813, 0.5586617, -0.06444073, -5.655834, 0.960042, -2.8761024, 0
1436, 2247323400, 0.86946, -0.0197514, 0.49076512, -0.053518802, -5.5602436, 0.6542249, 3.2622747, 0
1437, 2247340067, 0.88977814, -0.0022131354, 0.45414922, -0.04586652, -4.467617, -1.6647136, 4.7467575, 0
1439, 2247373401, 0.92337507, 0.036053486, 0.38209677, -0.012084395, -1.0877904, -3.107616, 5.4045115, 0
1440, 2247390068, 0.9349978, 0.061059013, 0.34923533, 0.012281388, 3.4570088, -2.6854317, 6.4420433, 0
1441, 2247406735, 0.9428906, 0.085177734, 0.31987745, 0.038023263, 7.2813797, -2.0283377, 6.4013824, 0
1443, 2247440069, 0.95173323, 0.12286262, 0.26647323, 0.09036581, 11.771989, -1.5111896, 9.950914, 0
1444, 2247456736, 0.95339376, 0.13950756, 0.24117215, 0.116100505, 15.357588, -0.33728227, 6.320339, 0
1445, 2247473403, 0.9525238, 0.15647525, 0.2209481, 0.13950306, 17.343542, -0.20585297, 1.4826136, 0
1447, 2247506737, 0.9473281, 0.18318376, 0.19660488, 0.17442784, 20.672848, -2.0374897, 3.5047426, 0
1448, 2247523404, 0.94771457, 0.1865603, 0.18346545, 0.18286102, 21.529434, -0.7977904, 0.14929676, 0
1449, 2247540071, 0.9494324, 0.18796374, 0.17180818, 0.18383445, 21.113169, -1.0883961, -4.0595207, 0
1451, 2247573405, 0.9516914, 0.18978982, 0.16302222, 0.17819192, 17.952751, -6.219886, -7.5611706, 0
1452, 2247590072, 0.95071185, 0.1896126, 0.16904503, 0.17799784, 17.276823, -7.0972204, -9.009155, 0
1453, 2247606739, 0.9479722, 0.18888752, 0.18244272, 0.18013893, 17.7759, -7.042805, -7.7534227, 0
1456, 2247656740, 0.9379451, 0.1756723, 0.23379704, 0.18655393, 18.775156, -2.4048815, -5.66199, 0
1457, 2247673407, 0.93447196, 0.16986644, 0.25642595, 0.17949517, 18.617239, -2.9143102, -4.486442, 0
1459, 2247706741, 0.9294363, 0.15351649, 0.29844058, 0.15355559, 17.818975, -5.083648, 1.8181553, 0
1460, 2247723408, 0.92781603, 0.14165428, 0.3174703, 0.13553329, 18.69515, -3.9726648, -3.3998737, 0
1462, 2247756742, 0.92154425, 0.09423291, 0.36282673, 0.101480156, 0.7388705, -17.445961, 7.9865, 0
1463, 2247773409, 0.91903764, 0.081427634, 0.37136558, 0.10436536, 1.5478014, 17.533607, 5.4547606, 0
1464, 2247790076, 0.91683257, 0.07730339, 0.37660027, 0.10807304, -2.727392, -3.8163586, 2.830059, 0
1466, 2247823410, 0.91370994, 0.07535899, 0.38563585, 0.10394947, -1.6782717, -1.013367, 0.6901846, 0
1467, 2247840077, 0.91097486, 0.07260895, 0.3954908, 0.092223525, -2.4966817, 0.8975481, 0.68582916, 0
1468, 2247856744, 0.905871, 0.07021618, 0.40971333, 0.08165704, 0.3150069, 2.5889, 0.3237524, 0
1471, 2247906745, 0.87050414, 0.068005934, 0.483751, 0.060397163, -3.9673388, 1.7700549, 0.63232136, 0
1472, 2247923412, 0.84910166, 0.059200495, 0.5220607, 0.055130392, -5.189393, 3.3509278, 2.366457, 0
1474, 2247956746, 0.77200097, 0.038996622, 0.6317589, 0.058648467, -6.9677954, 8.468342, 9.925463, 0
1475, 2247973413, 0.71141976, 0.02972892, 0.69940925, 0.06236969, -16.237068, 6.80015, 19.377697, 0
1476, 2247990080, 0.6504618, 0.0030294955, 0.75709605, 0.0613285, -31.584955, 5.702747, 18.826475, 0
1478, 2248023414, 0.5592064, -0.070933774, 0.8250748, 0.03966488, -27.64276, 4.3857856, 12.602198, 0
1479, 2248040081, 0.56444883, -0.09229007, 0.81979007, 0.02982232, -48.201714, -9.134064, 4.49726, 0
1480, 2248056748, 0.57598984, -0.102415144, 0.8108735, 0.017207265, -17.086224, -1.3314283, -3.089419, 0
1482, 2248090082, 0.5828572, -0.09804426, 0.80465865, -0.057048365, -25.432547, 12.350567, -3.621148, 0
1483, 2248106749, 0.59760493, -0.09738381, 0.7905773, -0.09185767, -28.791311, 12.382931, -3.563396, 0
1486, 2248156750, 0.6734689, -0.14623228, 0.7151913, -0.116714984, -18.190483, 0.5742765, -11.6752, 0
1487, 2248173417, 0.70041543, -0.16492935, 0.6875962, -0.09743403, -14.87038, -1.547882, -12.066918, 0
1489, 2248206751, 0.7566453, -0.1691531, 0.630926, -0.02954191, -9.563264, -3.335052, -8.527177, 0
1490, 2248223418, 0.7838783, -0.15472513, 0.60130066, 0.009883553, -5.499103, 0.12650235, -4.785551, 0
1491, 2248240085, 0.81090707, -0.13236147, 0.5681862, 0.046259955, -3.315407, 1.8537877, -0.9917164, 0
1493, 2248273419, 0.8560841, -0.09516328, 0.49520272, 0.1135937, 3.3094301, -3.7654977, 2.077876, 0
1494, 2248290086, 0.87184167, -0.08049704, 0.45884576, 0.15145406, 7.0204935, -6.9999967, 2.8945932, 0
1495, 2248306753, 0.8811569, -0.07116027, 0.42540863, 0.19388501, 11.757143, -10.272218, 1.3762503, 0
1497, 2248340087, 0.87922144, -0.057995476, 0.37690514, 0.28568178, 16.206116, -9.977201, -0.9160948, 0
1498, 2248356754, 0.86940503, -0.042806506, 0.3651329, 0.33022064, 19.060347, -4.700515, -4.7686973, 0
1501, 2248406755, 0.8489982, 0.0055992007, 0.35094824, 0.39505857, 18.88826, 2.4847584, -2.8984866, 0
1502, 2248423422, 0.8533539, 0.011922322, 0.3450828, 0.3906765, 19.612206, 1.8234644, -6.0992603, 0
1503, 2248440089, 0.85913754, 0.0101384595, 0.34620965, 0.37680778, 19.85203, -0.70358455, -8.776786, 0
1505, 2248473423, 0.85231054, 0.020245954, 0.39435694, 0.34308112, 43.28604, 3.9988234, 0.21198273, 0
1506, 2248490090, 0.8543717, 0.012819707, 0.40010676, 0.33145803, 17.312962, -1.4717141, 25.073158, 0
1507, 2248506757, 0.85978717, -0.027140953, 0.39317152, 0.32482412, -8.567393, 8.392533, 2.2049093, 0
1509, 2248540091, 0.87871766, -0.030693457, 0.36567217, 0.30538866, -12.167513, 1.3319378, -7.097576, 0
1510, 2248556758, 0.8873657, -0.033264637, 0.35251355, 0.29542372, -3.2826822, 5.6812687, 3.5694113, 0
1511, 2248573425, 0.89699286, -0.03048668, 0.33607593, 0.2856439, -0.7816957, 4.115285, 7.2959614, 0
1513, 2248606759, 0.90908426, -0.024117298, 0.3114187, 0.27580374, -8.334284, -0.72302854, 0.6681776, 0
1514, 2248623426, 0.9128902, -0.022082783, 0.30206373, 0.27380025, -4.567185, 1.8145053, 3.5153732, 0
1515, 2248640093, 0.9173259, -0.020212792, 0.29182172, 0.27020365, -3.5536854, 1.6796006, 0.92479897, 0
1517, 2248673427, 0.9255103, -0.019276798, 0.27732238, 0.25732577, -5.14901, -0.29240417, 2.1418295, 0
1518, 2248690094, 0.929624, -0.019386366, 0.27415442, 0.24561712, -4.174378, 0.38283458, 2.0338163, 0
1520, 2248723428, 0.93943465, -0.014857382, 0.27554446, 0.2034262, -2.0575073, -1.2853767, 0.58247566, 0
1521, 2248740095, 0.9449928, -0.007547915, 0.27830458, 0.17188206, -1.7740021, -2.768329, -3.109517, 0
1522, 2248756762, 0.9497625, 0.0022466406, 0.28161737, 0.1367585, -2.0992897, -2.9601154, -3.6164885, 0
1524, 2248790096, 0.95974714, 0.029087253, 0.26744208, 0.08111307, 0.048348814, 4.139793, 1.0499029, 0
1525, 2248806763, 0.96336156, 0.043157563, 0.25648335, 0.065980226, -1.6856883, 5.010998, -6.4327354, 0
1528, 2248856764, 0.96870184, 0.0782987, 0.22479671, 0.07083613, -0.68356305, 1.6369555, -0.8929987, 0
1529, 2248873431, 0.9690407, 0.08757977, 0.21738315, 0.07810086, 1.077416, -1.4337927, -1.3611975, 0
1530, 2248890098, 0.96909577, 0.09621672, 0.21099699, 0.08450621, 3.7173548, -2.6572137, 3.1214046, 0
1532, 2248923432, 0.96883714, 0.11289948, 0.19794141, 0.09743106, -1.1762424, -0.3286414, -3.6569653, 0
1533, 2248940099, 0.96763784, 0.11999597, 0.19699833, 0.102640405, -1.3313776, -0.8863441, -4.6804953, 0
1534, 2248956766, 0.9674023, 0.12795961, 0.18991509, 0.10842882, -1.016005, -2.253956, -1.9305153, 0
1536, 2248990100, 0.97052735, 0.13378096, 0.16401923, 0.11550954, -4.670305, 0.10413263, -3.1459732, 0
1537, 2249006767, 0.9699772, 0.1368157, 0.16319105, 0.11772697, 3.2903752, -0.630172, 15.550673, 0
1538, 2249023434, 0.96919066, 0.13983756, 0.16484287, 0.118352145, 4.935946, 2.100554, 5.8878756, 0
1540, 2249056768, 0.9682005, 0.14572078, 0.16484877, 0.1193454, -4.1251, -0.84105015, -4.884508, 0
1542, 2249090102, 0.96856785, 0.14943774, 0.15783952, 0.121230006, 4.2187233, -1.7648145, 5.2776117, 0
1544, 2249123436, 0.96966004, 0.14514573, 0.15615186, 0.11989109, 7.7300944, 0.70327157, 0.89501286, 0
1545, 2249140103, 0.9705167, 0.14093344, 0.15464377, 0.11994043, -1.4715657, 1.0850017, -2.93638, 0
1547, 2249173437, 0.97129726, 0.1373476, 0.15337998, 0.119403675, 2.2443352, 0.13830772, -0.19032955, 0
1548, 2249190104, 0.9717382, 0.13628577, 0.15238717, 0.11829738, 4.9818487, -0.59151053, 2.1295395, 0
1549, 2249206771, 0.97222555, 0.13469374, 0.15168954, 0.11700666, 3.8674312, -0.6583907, 1.1877604, 0
1551, 2249240105, 0.9730806, 0.13157825, 0.15105031, 0.114238694, 0.5648041, -0.19418754, -2.1647482, 0
1552, 2249256772, 0.97403115, 0.12910742, 0.14863694, 0.112102956, 0.38290566, -0.6382757, -0.12514019, 0
1553, 2249273439, 0.9752687, 0.1254712, 0.14550516, 0.10955115, 0.31525132, -1.3764874, 0.47297, 0
1555, 2249306773, 0.97722507, 0.118473075, 0.14099856, 0.1057349, 0.913984, -0.05883772, 0.83368015, 0
1557, 2249340107, 0.97858506, 0.11296106, 0.13843693, 0.10252544, 0.41050902, -0.7122222, -0.8810015, 0
1559, 2249373441, 0.9794593, 0.10963933, 0.135676, 0.101468995, -1.511861, -0.17204303, 1.3766174, 0
1560, 2249390108, 0.9797714, 0.10827933, 0.13474502, 0.10115592, -1.3569719, -0.006681445, 0.06653023, 0
1561, 2249406775, 0.97984344, 0.10797871, 0.13461332, 0.10095489, -0.6555151, -0.43537077, -1.0137653, 0
1563, 2249440109, 0.9800102, 0.10764201, 0.1327965, 0.10209446, -2.0743334, -0.8749493, 1.5803881, 0
1564, 2249456776, 0.9800754, 0.10712192, 0.13228688, 0.10267584, -1.609188, -0.9129646, 0.6808233, 0
1565, 2249473443, 0.9801527, 0.106420085, 0.13188566, 0.1031844, -1.3128194, -0.8071597, 0.11493683, 0
1567, 2249506777, 0.9799571, 0.10623476, 0.13203175, 0.105029166, -1.3377479, -0.4793926, 0.20431614, 0
1568, 2249523444, 0.97990495, 0.10586997, 0.13196464, 0.10596484, -0.9241651, -0.22774635, 1.0994043, 0
1570, 2249556778, 0.97984684, 0.104551665, 0.13193743, 0.1078293, -0.8771609, -1.1673331, 1.6765213, 0
1572, 2249590112, 0.979491, 0.10361695, 0.1338051, 0.10964747, -2.1815238, 0.9209142, -0.11908054, 0
1574, 2249623446, 0.9790141, 0.10391122, 0.13561559, 0.1113904, -1.2908555, -0.06511511, 0.14418793, 0
1575, 2249640113, 0.9788122, 0.10442357, 0.13540655, 0.11292803, -2.0234084, 0.2342124, 1.1206665, 0
1576, 2249656780, 0.9785175, 0.10533251, 0.13562487, 0.11436777, -1.2653729, 0.0846517, 0.8259773, 0
1578, 2249690114, 0.97756374, 0.10830849, 0.13806234, 0.1168005, -2.001359, 0.43638992, 0.6948929, 0
1579, 2249706781, 0.97709084, 0.10922988, 0.13981059, 0.11781667, -2.605289, 0.98771685, -0.19018269, 0
1580, 2249723448, 0.97677124, 0.10992473, 0.14073506, 0.118714735, -2.4919915, 0.43956336, -0.15816498, 0
1582, 2249756782, 0.97636217, 0.11146691, 0.14095908, 0.12036514, -2.3222237, 0.35653567, 0.7957516, 0
1583, 2249773449, 0.97615045, 0.1119085, 0.14194143, 0.12051782, -0.71817213, 0.9701725, 1.3301849, 0
1584, 2249790116, 0.9759827, 0.11207506, 0.14285767, 0.12063885, -2.3526404, 2.405218, 1.0346918, 0
1586, 2249823450, 0.9757903, 0.11218864, 0.14453213, 0.120094046, -1.8449868, 0.695439, 1.3160305, 0
1587, 2249840117, 0.97573453, 0.11227135, 0.14508493, 0.11980355, -2.1132028, 1.441483, 3.290862, 0
1588, 2249856784, 0.97552884, 0.11232738, 0.14726634, 0.118759185, -1.5366583, 2.1138587, 1.6584702, 0
1590, 2249890118, 0.97486395, 0.11324996, 0.15392232, 0.114839226, -2.7358623, 2.2679236, -1.1531239, 0
1591, 2249906785, 0.97466534, 0.11413976, 0.15557812, 0.11340289, -2.5797148, 2.177699, -0.92021847, 0
1592, 2249923452, 0.9746119, 0.11509045, 0.1561839, 0.11206064, -1.2939925, 1.5242578, -0.50731754, 0
1594, 2249956786, 0.9751259, 0.11708976, 0.1536182, 0.109024584, -1.7236872, 1.8233184, -2.9025855, 0
1595, 2249973453, 0.97544456, 0.11800836, 0.15215907, 0.10721362, -0.10035648, 0.6366357, -0.76514244, 0
1597, 2250006787, 0.97596383, 0.12184602, 0.14688845, 0.105532885, -0.34778947, 0.13977298, -2.4632406, 0
1599, 2250040121, 0.9763949, 0.12487368, 0.14201272, 0.10467726, -0.31742886, -0.03323617, 0.20879364, 0
1601, 2250073455, 0.9762555, 0.12877344, 0.13994943, 0.10403006, 2.6827345, -1.1292837, 0.17096424, 0
1602, 2250090122, 0.9762554, 0.12970899, 0.13938689, 0.10362226, 5.219109, -0.9874151, 2.1549845, 0
1603, 2250106789, 0.97659504, 0.12954307, 0.138107, 0.1023348, 3.9419756, -0.06460379, 3.1815624, 0
1605, 2250140123, 0.9773976, 0.12791784, 0.13678744, 0.09841438, 4.2492895, -1.911329, 0.4955721, 0
1606, 2250156790, 0.9779706, 0.12601325, 0.13587543, 0.09642242, 3.9602048, -1.6370018, -0.5040798, 0
1607, 2250173457, 0.9787088, 0.1234425, 0.13442253, 0.094271034, 4.4660907, -1.6427225, 0.16107655, 0
1609, 2250206791, 0.9799536, 0.11899294, 0.13159604, 0.090990216, 4.0693383, -1.5740427, -0.73053837, 0
1610, 2250223458, 0.9802455, 0.11774364, 0.13089275, 0.0904856, 4.0721493, -1.7525543, -0.46078014, 0
1611, 2250240125, 0.9803989, 0.117173135, 0.13023235, 0.09051719, 3.0133934, -2.1278796, -0.0187397, 0
1614, 2250290126, 0.9797795, 0.11888062, 0.13141766, 0.09324418, 1.1796923, -2.603084, 0.1003809, 0
1615, 2250306793, 0.9794912, 0.11948973, 0.1317844, 0.09496036, 0.57070535, -2.1181524, -0.10643101, 0
1617, 2250340127, 0.97901666, 0.119063005, 0.13318971, 0.098368526, 0.8963328, -3.1257644, -0.4718294, 0
1618, 2250356794, 0.9789299, 0.11774938, 0.13349582, 0.100377426, 0.63468593, -1.8851901, 0.6908932, 0
1619, 2250373461, 0.9788936, 0.116368644, 0.1334808, 0.102342054, 0.050393984, -1.1652482, 1.0300589, 0
1621, 2250406795, 0.9786997, 0.11394277, 0.13431644, 0.10577516, 0.34786373, -0.85926104, 0.765357, 0
1622, 2250423462, 0.9786493, 0.112641916, 0.13436572, 0.10755558, 0.3763524, -0.21781285, 0.42974567, 0
1623, 2250440129, 0.97844166, 0.112052634, 0.13487728, 0.109406024, 0.536294, -0.54975915, 1.0106583, 0
1625, 2250473463, 0.9779428, 0.1112494, 0.13619125, 0.11299817, 0.25802502, -0.34099355, 0.30335903, 0
1626, 2250490130, 0.9776498, 0.111214235, 0.13670832, 0.11492747, -1.0242683, -0.91414297, 0.028684616, 0
1629, 2250540131, 0.9764625, 0.11258203, 0.13886775, 0.12094419, -0.32419294, -0.4028743, -0.25957775, 0
1630, 2250556798, 0.9759908, 0.11326824, 0.14016041, 0.12260774, 0.21541785, -0.052712597, -0.7424717, 0
1632, 2250590132, 0.9752033, 0.11480989, 0.14138515, 0.12598756, -1.1793578, 0.06723845, 1.0819368, 0
1633, 2250606799, 0.97480506, 0.11570614, 0.14199115, 0.12755759, -1.5160751, 0.21620277, 0.48932743, 0
1634, 2250623466, 0.97433317, 0.11661373, 0.14338231, 0.12877472, -0.7194545, 0.56708586, -1.1625633, 0
1636, 2250656800, 0.9737327, 0.11786045, 0.14490637, 0.13046508, -0.24680258, -0.7075826, 1.3074684, 0
1637, 2250673467, 0.9735059, 0.11861424, 0.14523695, 0.13110554, -1.6852264, 0.14326814, 1.240531, 0
1638, 2250690134, 0.97325885, 0.11933107, 0.14612167, 0.1313044, -1.3344665, 1.340657, 0.25691795, 0
1640, 2250723468, 0.97293955, 0.12042716, 0.14790933, 0.13066784, -1.9033829, 0.92709833, -0.561491, 0
1641, 2250740135, 0.9728011, 0.121069655, 0.14862037, 0.13029794, -0.7083808, 0.6092069, 1.000906, 0
1644, 2250790136, 0.97258675, 0.12331864, 0.1500076, 0.12818196, -0.39071244, 1.231148, 1.3595724, 0
1645, 2250806803, 0.9724461, 0.12380315, 0.15143076, 0.12710416, -1.2740705, 1.1388353, 0.5948353, 0
1646, 2250823470, 0.9722868, 0.12433196, 0.1530395, 0.12587374, -2.1790102, 1.0078542, -0.85531616, 0
1648, 2250856804, 0.97200733, 0.12663963, 0.15440677, 0.12404813, -1.1947352, 0.6881462, 0.78579617, 0
1649, 2250873471, 0.9719328, 0.12795213, 0.15452722, 0.12313177, -0.7579286, 1.2350624, 1.7320089, 0
1650, 2250890138, 0.97173226, 0.12939942, 0.15551381, 0.1219545, -2.007416, 1.4874923, 0.9693022, 0
1652, 2250923472, 0.9712749, 0.13133478, 0.15952034, 0.118300006, -2.83571, 1.5712681, -0.6261854, 0
1653, 2250940139, 0.9712478, 0.13216235, 0.16025074, 0.116601005, -2.7055783, 2.1550949, -0.16806221, 0
1655, 2250973473, 0.9711913, 0.1336165, 0.161723, 0.11333637, -2.8171108, 1.9089758, 2.5118246, 0
1656, 2250990140, 0.9707669, 0.13474181, 0.16513535, 0.11068854, -3.5109696, 2.102497, -0.30879974, 0
1657, 2251006807, 0.97043467, 0.13567889, 0.16832474, 0.10760993, -3.7705412, 2.3159394, -1.7430115, 0
1659, 2251040141, 0.9701978, 0.13760799, 0.17206329, 0.10119161, -3.7118883, 1.6587011, 1.0682116, 0
1660, 2251056808, 0.9704195, 0.1381062, 0.17246813, 0.09763649, -2.5050304, 2.0806572, 1.7533216, 0
1661, 2251073475, 0.97090214, 0.1389328, 0.1706329, 0.09485014, -1.8327882, 2.5380564, 0.8063812, 0
1663, 2251106809, 0.9716088, 0.14132623, 0.16635466, 0.091621876, -0.6362381, 2.7510293, 0.94792557, 0
1664, 2251123476, 0.9718424, 0.14190783, 0.16525522, 0.09022467, 0.26198244, 2.0139747, 1.7754383, 0
1665, 2251140143, 0.9720586, 0.14256987, 0.16431883, 0.08854769, -0.9029012, 1.7665303, -1.1556177, 0
1667, 2251173477, 0.9726366, 0.14421074, 0.16133763, 0.08495176, 2.185138, -0.805384, -2.4953995, 0
1668, 2251190144, 0.97325957, 0.1450858, 0.15726414, 0.08396226, 2.2795956, -0.42012745, 0.91767216, 0
1671, 2251240145, 0.973261, 0.15071708, 0.15267375, 0.08248171, 2.7999349, -2.4297404, 0.7900343, 0
1672, 2251256812, 0.97307986, 0.15296137, 0.15147749, 0.082692, -0.03439384, -0.6583022, 0.49180794, 0
1673, 2251273479, 0.972884, 0.15458769, 0.15126374, 0.08236495, 2.6253188, -0.86386025, 1.6670856, 0
1675, 2251306813, 0.97308946, 0.15550436, 0.15009302, 0.080328494, 3.1498837, -0.3180247, 1.2527008, 0
1676, 2251323480, 0.97383577, 0.15355608, 0.14833567, 0.07827106, 1.99205, -0.7718995, 1.0608196, 0
1678, 2251356814, 0.9760047, 0.14635874, 0.14445898, 0.072047114, 3.9685178, 0.3146381, 1.2843428, 0
1679, 2251373481, 0.9774003, 0.14182095, 0.14141873, 0.06812811, 3.9626164, 1.0101676, 1.121542, 0
1680, 2251390148, 0.9786655, 0.13750269, 0.13874114, 0.06421229, 3.1198065, 0.6285456, -0.370821, 0
1682, 2251423482, 0.9806116, 0.13059138, 0.13450092, 0.05763164, 2.4856155, 0.4956278, 0.60700417, 0
1683, 2251440149, 0.9812441, 0.12851638, 0.13298234, 0.054992825, 1.4074664, -0.6756456, -1.1489763, 0
1686, 2251490150, 0.98213226, 0.125475, 0.13116679, 0.050326735, 1.6162808, -2.815636, -0.2121563, 0
1687, 2251506817, 0.9823456, 0.1246084, 0.13044894, 0.05018148, -0.4975576, -1.6747814, -0.28729057, 0
1688, 2251523484, 0.98255104, 0.12367175, 0.1296485, 0.050548017, -0.6706521, -2.1889753, 0.31620884, 0
1690, 2251556818, 0.98263985, 0.12262073, 0.1294625, 0.051844865, 0.2609462, -2.7312276, -0.20061302, 0
1691, 2251573485, 0.9826839, 0.12201772, 0.12915859, 0.053174198, -0.61062557, -0.95233506, -0.42870903, 0
1692, 2251590152, 0.98266774, 0.12159283, 0.12898816, 0.054833412, 0.68835276, -1.3812414, 0.9199209, 0
1694, 2251623486, 0.9822681, 0.1220754, 0.12982431, 0.058804482, 0.34422684, -1.8494886, 0.67282486, 0
1695, 2251640153, 0.9819909, 0.1226886, 0.13024275, 0.061186105, 0.29766944, -1.5633799, 1.2133408, 0
1696, 2251656820, 0.98159707, 0.12362172, 0.13118461, 0.06356549, 0.4361233, -1.1480447, -0.14793587, 0
1698, 2251690154, 0.98078316, 0.1258417, 0.13260743, 0.06861955, -1.0185814, 0.06709212, -0.041254044, 0
1700, 2251723488, 0.98006463, 0.12750511, 0.13386591, 0.07321769, -0.34728274, -1.3183808, 0.09735203, 0
1702, 2251756822, 0.97959864, 0.12837309, 0.13433084, 0.0769887, 0.19239101, 0.15041791, 0.5685768, 0
