sep=,
DeviceTag:,Xsens_DOT_5,,,,,,,,,,,,,,,,,
FirmwareVersion:,3.0.0,,,,,,,,,,,,,,,,,
AppVersion:,2023.6.1,,,,,,,,,,,,,,,,,
SyncStatus:,Synced,,,,,,,,,,,,,,,,,
OutputRate:,60Hz,,,,,,,,,,,,,,,,,
FilterProfile:,General,,,,,,,,,,,,,,,,,
Measurement Mode:,Sensor fusion Mode - Extended (Quaternion),,,,,,,,,,,,,,,,,
StartTime:,2025-05-05 11:43:50.378 +0200,,,,,,,,,,,,,,,,,
 2025,,,,,,,,,,,,,,,,,,,

PacketCounter,SampleTimeFine,Quat_W,Quat_X,Quat_Y,Quat_Z,FreeAcc_X,FreeAcc_Y,FreeAcc_Z,Status
1, 2223372921, -0.77841026, -0.0057263803, -0.40290394, 0.48136666, -0.021459926, 0.06520221, -0.11918354, 0
2, 2223389588, -0.7784358, -0.0056860875, -0.40287414, 0.48135072, -0.024585754, 0.04725546, -0.11172104, 0
3, 2223406255, -0.77848387, -0.0056469943, -0.40281978, 0.48131895, -0.02864855, 0.047981568, -0.08617401, 0
4, 2223422922, -0.7785324, -0.005597681, -0.4027679, 0.4812844, 0.012134071, 0.0533708, -0.100141525, 0
5, 2223439589, -0.7785808, -0.0055421796, -0.40272158, 0.4812454, -0.007435382, 0.046666738, -0.095505714, 0
6, 2223456256, -0.77861655, -0.005511891, -0.40269452, 0.48121068, -0.010946323, 0.020279093, -0.10783005, 0
7, 2223472923, -0.7786599, -0.005503066, -0.40272295, 0.48111683, -0.010666932, 0.024382567, -0.103144646, 0
8, 2223489590, -0.7786932, -0.005513208, -0.40276182, 0.4810303, 0.00214863, 0.036917537, -0.076319695, 0
9, 2223506257, -0.7787081, -0.005526334, -0.40285233, 0.4809301, 0.0048312326, 0.045524016, -0.096253395, 0
10, 2223522924, -0.77868253, -0.0055648815, -0.4029409, 0.48089725, 0.030792039, 0.06301536, -0.100001335, 0
11, 2223539591, -0.77862346, -0.0055960156, -0.40304205, 0.48090735, 0.00489024, 0.04268279, -0.10082817, 0
12, 2223556258, -0.7785795, -0.005636422, -0.4031144, 0.48091757, -0.016825609, 0.034889173, -0.08788109, 0
13, 2223572925, -0.7785647, -0.005690325, -0.40312964, 0.48092812, -0.05215518, 0.03855185, -0.088092804, 0
14, 2223589592, -0.77863806, -0.0057139974, -0.4030693, 0.48085976, -0.08388776, 0.047299433, -0.12236118, 0
15, 2223606259, -0.7787429, -0.005728768, -0.40297127, 0.48077196, -0.023789601, 0.05013876, -0.120015144, 0
16, 2223622926, -0.77884024, -0.005720658, -0.40286663, 0.48070195, 0.026720751, 0.032056857, -0.099705696, 0
17, 2223639593, -0.77886254, -0.005756624, -0.40281555, 0.48070827, 0.039924107, 0.030030027, -0.086419106, 0
18, 2223656260, -0.778845, -0.005788494, -0.40281156, 0.48073965, 0.039925896, 0.060825516, -0.09035587, 0
19, 2223672927, -0.77880496, -0.0058456864, -0.4028248, 0.48079282, -0.003104148, 0.044199392, -0.094242096, 0
20, 2223689594, -0.77879095, -0.0059133824, -0.40280774, 0.4808289, -0.04139393, 0.045905035, -0.111457825, 0
21, 2223706261, -0.7788553, -0.0059631728, -0.4027435, 0.4807777, -0.05553492, 0.043913633, -0.08553028, 0
22, 2223722928, -0.77894604, -0.0060076863, -0.40262803, 0.48072687, -0.03076164, 0.043781873, -0.095552444, 0
23, 2223739595, -0.77906513, -0.006024398, -0.40249208, 0.4806475, -0.0086352, 0.06513891, -0.112968445, 0
24, 2223756262, -0.7791587, -0.006029824, -0.40236947, 0.4805982, 0.017856004, 0.06998315, -0.10175514, 0
25, 2223772929, -0.7792215, -0.006053703, -0.40226552, 0.4805834, 0.017598515, 0.042144403, -0.11141777, 0
26, 2223789596, -0.7792217, -0.0061161146, -0.40221968, 0.4806205, 0.0029738399, 0.032610133, -0.12172985, 0
27, 2223806263, -0.7792079, -0.006168762, -0.40221322, 0.48064756, 0.015834328, 0.034268644, -0.07944107, 0
28, 2223822930, -0.779181, -0.006215645, -0.40219253, 0.48070794, -0.014901162, 0.0757919, -0.108756065, 0
29, 2223839597, -0.7791615, -0.006224498, -0.4021565, 0.48076957, -0.02594002, 0.041558087, -0.108881, 0
30, 2223856264, -0.7791827, -0.0062029865, -0.40210056, 0.48078236, -0.026008861, 0.04504697, -0.11533928, 0
31, 2223872931, -0.779211, -0.0061640833, -0.40200087, 0.48082042, -0.018691719, 0.053423103, -0.10645771, 0
32, 2223889598, -0.77929664, -0.0060578454, -0.40184912, 0.48080963, -0.030073445, 0.04211917, -0.112439156, 0
33, 2223906265, -0.7793535, -0.0059559047, -0.4016494, 0.48088586, -0.012050478, 0.041355874, -0.104208946, 0
34, 2223922932, -0.779425, -0.0058607273, -0.401476, 0.48091614, 0.015140767, -0.0066945483, -0.08846569, 0
35, 2223939599, -0.7794707, -0.0057932977, -0.40135026, 0.48094764, 0.015248724, 0.024077471, -0.09989166, 0
37, 2223972933, -0.7794399, -0.005802816, -0.4013876, 0.48096627, 0.033742856, 0.035123345, -0.10579777, 0
38, 2223989600, -0.77936757, -0.0058585536, -0.40153193, 0.4809624, 0.01844697, 0.010088174, -0.09044361, 0
41, 2224039601, -0.779029, -0.0061592795, -0.40212867, 0.48100868, -0.06984534, 0.031270802, -0.1089201, 0
42, 2224056268, -0.7790001, -0.0061933473, -0.40220785, 0.48098874, -0.018949205, 0.047824565, -0.13043976, 0
43, 2224072935, -0.7789583, -0.006233683, -0.40229353, 0.48098427, -0.0014374118, 0.015128586, -0.11220455, 0
45, 2224106269, -0.77880627, -0.0063012037, -0.40250456, 0.48105296, 0.015596287, 0.04884359, -0.09920883, 0
46, 2224122936, -0.77869064, -0.0063706078, -0.40259194, 0.48116618, -0.027564066, 0.0021653934, -0.09734821, 0
47, 2224139603, -0.778623, -0.006403871, -0.40262672, 0.48124608, -0.0362015, 0.041308478, -0.09436798, 0
49, 2224172937, -0.7786073, -0.0063379053, -0.4025553, 0.48133218, -0.06240169, 0.015696686, -0.113137245, 0
50, 2224189604, -0.77867156, -0.006267097, -0.40248474, 0.4812881, -0.0068931393, 0.046808336, -0.08705902, 0
51, 2224206271, -0.77871734, -0.006199075, -0.40238044, 0.48130196, -5.6660536E-4, 0.06650196, -0.10249424, 0
53, 2224239605, -0.7788369, -0.0059757736, -0.40211034, 0.48133713, -0.0361825, 0.085883625, -0.11762428, 0
55, 2224272939, -0.77910686, -0.0055121463, -0.40154168, 0.48138037, -0.024279766, 0.03884978, -0.109181404, 0
58, 2224322940, -0.7792991, -0.005085433, -0.40090972, 0.48160055, 0.009799479, 0.0036088123, -0.073859215, 0
60, 2224356274, -0.77921283, -0.00522157, -0.4010242, 0.48164338, 0.0140232025, -0.04790703, -0.12445736, 0
61, 2224372941, -0.7791173, -0.0053507946, -0.4012344, 0.4816215, 0.067261755, 0.01781672, -0.108068466, 0
62, 2224389608, -0.7789194, -0.0055107716, -0.4015408, 0.48168436, 0.05554565, 0.03686328, -0.1083765, 0
64, 2224422942, -0.7784523, -0.0058644786, -0.40222645, 0.48186344, -0.028911848, 0.0033986962, -0.13060284, 0
66, 2224456276, -0.77811605, -0.006229354, -0.4027262, 0.4819846, -0.10893373, 0.009915048, -0.10502529, 0
68, 2224489610, -0.77802753, -0.0067372695, -0.40297794, 0.4819102, -0.024864253, -0.024878556, -0.10022831, 0
70, 2224522944, -0.77802515, -0.0075084195, -0.4034429, 0.48151335, 0.007913923, -0.028665816, -0.07504463, 0
72, 2224556278, -0.7778863, -0.008441463, -0.4041398, 0.48113772, 0.038175788, 0.04475249, -0.10348129, 0
73, 2224572945, -0.7777777, -0.008837525, -0.4045379, 0.48097175, -0.0067243874, 0.052718926, -0.09510136, 0
74, 2224589612, -0.77769583, -0.009187898, -0.4048899, 0.48080137, -0.044405542, 0.084452555, -0.099969864, 0
76, 2224622946, -0.7777682, -0.009547615, -0.4051363, 0.48046935, -0.07683638, 0.12874444, -0.12199402, 0
77, 2224639613, -0.7779651, -0.009417865, -0.4049254, 0.48033094, -0.044661913, 0.12393057, -0.1293621, 0
78, 2224656280, -0.77819395, -0.009193733, -0.40452912, 0.48029867, -0.053909536, 0.071761265, -0.09721756, 0
80, 2224689614, -0.77876425, -0.008698283, -0.40361518, 0.4801525, 0.0069798627, 0.032205634, -0.0814867, 0
82, 2224722948, -0.77907825, -0.008469924, -0.40327007, 0.4799371, 0.09630257, 0.016847666, -0.06667423, 0
85, 2224772949, -0.7789015, -0.008817041, -0.40370065, 0.47985563, -0.023072125, 0.0506244, -0.12729454, 0
87, 2224806283, -0.7789318, -0.008895887, -0.40371078, 0.47979626, -0.07638868, 0.061527975, -0.106903076, 0
88, 2224822950, -0.7790402, -0.008851446, -0.40349877, 0.47979942, -0.07416383, 0.06349358, -0.14293861, 0
89, 2224839617, -0.77921563, -0.008730257, -0.4032135, 0.4797569, -0.07046335, -0.0012673744, -0.11863518, 0
91, 2224872951, -0.7796479, -0.0085951425, -0.40261042, 0.47956347, 0.0013086684, -0.034767453, -0.08394718, 0
92, 2224889618, -0.7798388, -0.008619502, -0.40234682, 0.47947368, -0.002107727, 0.018996408, -0.08716202, 0
93, 2224906285, -0.7799859, -0.008645022, -0.40219808, 0.47935876, 0.0449755, 0.029968617, -0.08317661, 0
95, 2224939619, -0.78008693, -0.008657465, -0.4021257, 0.47925484, 0.035334047, 0.035614107, -0.11449242, 0
96, 2224956286, -0.78008276, -0.008674892, -0.40216693, 0.47922668, -0.018909866, 0.02544178, -0.10120392, 0
100, 2225022954, -0.780199, -0.008919911, -0.40240458, 0.47883323, 0.016025208, 0.025350211, -0.092523575, 0
101, 2225039621, -0.78021127, -0.008912876, -0.4024451, 0.47877923, 0.06351702, 0.10066771, -0.13235188, 0
103, 2225072955, -0.7801391, -0.008588925, -0.40230158, 0.47902343, -0.0808196, 0.042485036, -0.10577202, 0
104, 2225089622, -0.78023165, -0.008284174, -0.402042, 0.47909597, -0.06563726, 0.055515993, -0.10860062, 0
105, 2225106289, -0.7803602, -0.007939648, -0.4017213, 0.4791614, -0.00885536, -0.01894078, -0.09552097, 0
107, 2225139623, -0.78058225, -0.0073766373, -0.40110946, 0.4793215, 0.028078368, -0.011929347, -0.06834221, 0
108, 2225156290, -0.78063464, -0.007176159, -0.4009589, 0.47936517, 0.043136884, -0.030381557, -0.08522034, 0
109, 2225172957, -0.7806153, -0.007060129, -0.40100867, 0.47935656, 0.027638048, -0.069622375, -0.082164764, 0
111, 2225206291, -0.780437, -0.0070089847, -0.40145797, 0.4792718, 0.036074992, -0.009928906, -0.09780502, 0
112, 2225222958, -0.78028923, -0.0070299245, -0.4017768, 0.47924516, -0.019822694, -0.012970094, -0.08756733, 0
116, 2225289626, -0.77985555, -0.0067946725, -0.40262574, 0.47924146, 0.018180767, 0.045542553, -0.101367, 0
118, 2225322960, -0.77957964, -0.006424645, -0.4027937, 0.47955438, 0.041118115, 0.054731116, -0.10981274, 0
119, 2225339627, -0.77939427, -0.0062186904, -0.4029088, 0.4797618, -0.022858, 0.0031983308, -0.10012627, 0
120, 2225356294, -0.7792865, -0.0059654918, -0.4029458, 0.47990885, -0.038211327, 0.083309345, -0.09037781, 0
122, 2225389628, -0.7788086, -0.0055315085, -0.4027791, 0.48082888, -0.075502455, -0.045273807, -0.07586384, 0
123, 2225406295, -0.7785882, -0.0053918343, -0.40266976, 0.4812789, -0.07999931, -0.03127188, -0.08535671, 0
124, 2225422962, -0.77854496, -0.005204808, -0.4024541, 0.48153087, -0.17627484, -0.056716524, -0.08931732, 0
126, 2225456296, -0.7789069, -0.0050592907, -0.4017198, 0.48156077, -0.11850813, -0.06107522, -0.073955536, 0
127, 2225472963, -0.7792292, -0.005147744, -0.4012734, 0.4814103, -0.07335002, -0.027077729, -0.099069595, 0
130, 2225522964, -0.7800692, -0.005595701, -0.40060735, 0.4805993, 0.10798224, -0.0128093315, -0.09379959, 0
131, 2225539631, -0.7801579, -0.0057436973, -0.4007266, 0.48035368, 0.06663748, 0.043413732, -0.0960474, 0
132, 2225556298, -0.7801758, -0.005887963, -0.40084958, 0.48022026, -0.0012559193, 0.070268326, -0.12919235, 0
134, 2225589632, -0.7802796, -0.005886443, -0.40071326, 0.48016536, -0.04107073, 0.08780009, -0.1397171, 0
135, 2225606299, -0.78039086, -0.005757319, -0.40036383, 0.48027766, -0.046845634, 0.08948432, -0.12107277, 0
136, 2225622966, -0.78057134, -0.005515568, -0.39986303, 0.48040444, -0.06684647, 0.03982547, -0.14299583, 0
138, 2225656300, -0.78100646, -0.00486291, -0.3986577, 0.4807061, 0.0038073198, -0.014597366, -0.08111, 0
139, 2225672967, -0.78117186, -0.0046962798, -0.398114, 0.48088944, -0.02035823, -0.047908228, -0.081944466, 0
141, 2225706301, -0.7813577, -0.00471282, -0.397608, 0.48100588, 0.038174447, 0.028822206, 0.0021915436, 0
142, 2225722968, -0.7812348, -0.004988404, -0.3978948, 0.48096552, 0.18981838, -0.08892977, -0.15214062, 0
146, 2225789636, -0.78100026, -0.0064399373, -0.3989773, 0.48043224, -0.2006668, -0.030839242, -0.15570259, 0
147, 2225806303, -0.78136784, -0.0066633, -0.39869866, 0.48006293, -0.1639729, 0.005350649, -0.15318298, 0
149, 2225839637, -0.78238505, -0.0071559735, -0.39798385, 0.47899097, 0.13593812, -0.19446148, -0.119874, 0
150, 2225856304, -0.7826491, -0.0075493176, -0.39821905, 0.47835767, 0.20381878, -0.05996432, -0.052765846, 0
151, 2225872971, -0.78268737, -0.008049663, -0.39878696, 0.47781324, 0.14647073, 9.263215E-4, -0.026602745, 0
153, 2225906305, -0.7823958, -0.0095529705, -0.40035325, 0.47695285, -0.030964814, -0.012473127, -0.07703495, 0
154, 2225922972, -0.7823102, -0.010342997, -0.40123585, 0.47633448, -0.050751746, -0.038712, -0.101724625, 0
155, 2225939639, -0.7822565, -0.011109414, -0.40214536, 0.475638, -0.028984489, 0.03594309, -0.118867874, 0
157, 2225972973, -0.78220105, -0.0122588985, -0.40376592, 0.4743262, 0.0010464877, 0.11903241, -0.11104298, 0
159, 2226006307, -0.78213173, -0.01247105, -0.40454546, 0.47377056, 0.01099639, 0.14090385, -0.14796448, 0
162, 2226056308, -0.78260183, -0.011789806, -0.40391448, 0.47354963, -0.067257956, 0.01854663, -0.0915966, 0
163, 2226072975, -0.78302425, -0.011483412, -0.40354344, 0.47317532, -0.040617667, -0.062439952, -0.06969452, 0
165, 2226106309, -0.78384465, -0.011234084, -0.40302607, 0.47226277, 0.03451286, -0.005941477, -0.089811325, 0
166, 2226122976, -0.7841341, -0.011088954, -0.40281013, 0.47196972, 0.11052962, 0.08471694, -0.12417221, 0
168, 2226156310, -0.78432655, -0.010416357, -0.40223122, 0.472159, -6.741151E-4, 0.051396135, -0.15672684, 0
169, 2226172977, -0.7843783, -0.010001119, -0.40181226, 0.47243863, -0.06110241, 0.012094566, -0.09923077, 0
170, 2226189644, -0.7845035, -0.0096081775, -0.40136245, 0.47262132, -0.077010944, -0.10634038, -0.106799126, 0
172, 2226222978, -0.78483534, -0.009056773, -0.40086174, 0.4725062, 0.046066467, -0.07451785, -0.08344841, 0
174, 2226256312, -0.78478104, -0.008831862, -0.40102586, 0.4724615, 0.10816194, -0.007956209, -0.06601906, 0
176, 2226289646, -0.7843444, -0.008884709, -0.4015789, 0.47271588, -0.022383928, -0.024081578, -0.092619896, 0
178, 2226322980, -0.78409004, -0.008849993, -0.40204233, 0.47274452, -0.04956355, -0.010579315, -0.114533424, 0
180, 2226356314, -0.7839343, -0.00863448, -0.40243116, 0.4726758, 0.0027257404, 0.029860185, -0.103357315, 0
181, 2226372981, -0.7838023, -0.0084836185, -0.40265954, 0.47270322, 0.04376674, -0.0024036863, -0.09462929, 0
182, 2226389648, -0.7836075, -0.008308588, -0.4030154, 0.47272572, 0.038071632, -0.0019630166, -0.09772587, 0
184, 2226422982, -0.783088, -0.008065781, -0.40385225, 0.47287664, -0.023214279, 0.024383573, -0.06764221, 0
185, 2226439649, -0.78282845, -0.00791133, -0.4042745, 0.4729481, 0.03313289, 0.059083316, -0.114821434, 0
186, 2226456316, -0.78252804, -0.007689817, -0.40471724, 0.4730702, -0.022997025, 0.01584, -0.10985184, 0
189, 2226506317, -0.78199255, -0.0073159263, -0.40528807, 0.47347307, -0.14790836, 0.013171619, -0.0982666, 0
190, 2226522984, -0.78205836, -0.007229602, -0.40505812, 0.47356248, -0.14447407, 0.042240497, -0.10655594, 0
192, 2226556318, -0.78258795, -0.006881006, -0.40417257, 0.47344944, -0.023962377, -0.038036037, -0.11954498, 0
195, 2226606319, -0.78290683, -0.0064003617, -0.40342748, 0.47356424, 0.035030067, -0.005169603, -0.07274914, 0
196, 2226622986, -0.7828591, -0.006325189, -0.40332562, 0.47373086, -0.054740783, -0.036867388, -0.08503342, 0
197, 2226639653, -0.7828476, -0.006301988, -0.40323845, 0.4738245, -0.06902818, -0.06327386, -0.10728264, 0
199, 2226672987, -0.7829206, -0.0063364506, -0.403171, 0.4737606, -0.039589956, -0.02322086, -0.10705185, 0
200, 2226689654, -0.7829402, -0.006402308, -0.40315792, 0.47373822, 0.016841924, -0.009266973, -0.09332752, 0
201, 2226706321, -0.7829591, -0.006456362, -0.40313262, 0.4737282, -0.006696895, 0.03253561, -0.124115944, 0
204, 2226756322, -0.78287834, -0.006669771, -0.4030827, 0.47390103, 0.011545786, -0.040539872, -0.07724953, 0
205, 2226772989, -0.78280044, -0.0067941565, -0.40316144, 0.47396114, 0.023834528, 0.01271635, -0.09596062, 0
207, 2226806323, -0.78267807, -0.0067476295, -0.40313628, 0.47418502, -0.033121493, 0.049349006, -0.11872196, 0
208, 2226822990, -0.78272045, -0.006554948, -0.40288085, 0.4743352, -0.09481844, 0.037325393, -0.10608959, 0
209, 2226839657, -0.7828341, -0.006272236, -0.4024861, 0.47448623, -0.04080117, 0.016348058, -0.1251154, 0
211, 2226872991, -0.78319424, -0.0056568943, -0.4016787, 0.47458413, 0.038055986, -0.02363676, -0.07965469, 0
212, 2226889658, -0.78326553, -0.0054370947, -0.401456, 0.4746574, 0.08695995, -0.01585084, -0.057476044, 0
213, 2226906325, -0.78321934, -0.005247852, -0.40142334, 0.47476324, 0.08105049, -0.030528251, -0.07346439, 0
215, 2226939659, -0.782909, -0.0049863104, -0.40172073, 0.47502628, -0.073749885, -0.045438997, -0.09151459, 0
216, 2226956326, -0.78278583, -0.0049626473, -0.40175897, 0.4751971, -0.04857093, 0.005579093, -0.11365509, 0
219, 2227006327, -0.78274554, -0.004561363, -0.4012548, 0.4756934, -0.0591042, -0.008073092, -0.11567402, 0
220, 2227022994, -0.7828131, -0.004414277, -0.40094367, 0.47584584, -0.014810863, -0.06337237, -0.12527943, 0
222, 2227056328, -0.782867, -0.0042803753, -0.40051693, 0.4761174, 0.09291389, -0.035961222, -0.09973621, 0
224, 2227089662, -0.7825236, -0.004461523, -0.4008751, 0.47637904, 0.039965905, -0.19504642, -0.042391777, 0
226, 2227122996, -0.7819258, -0.005189631, -0.40198427, 0.47641852, -0.082091615, 0.030636307, -0.17452335, 0
227, 2227139663, -0.78182966, -0.0053369235, -0.40220955, 0.4763846, -0.13835944, 0.03134638, -0.17301655, 0
228, 2227156330, -0.78194267, -0.0053489823, -0.40217808, 0.4762253, -0.15471187, -0.044088755, -0.13697529, 0
230, 2227189664, -0.7825985, -0.0053856764, -0.40177807, 0.47548503, -0.030646756, -0.08502402, -0.13084984, 0
231, 2227206331, -0.782939, -0.0055864323, -0.40168992, 0.47499636, 0.12053629, -0.09628574, -0.07893944, 0
234, 2227256332, -0.78320277, -0.006920507, -0.40315047, 0.47330365, -0.007165155, 0.0482213, -0.06540489, 0
235, 2227272999, -0.7831512, -0.0073794574, -0.4037694, 0.47285387, 0.04567733, 0.071117796, -0.1123333, 0
236, 2227289666, -0.7830666, -0.007679507, -0.40434605, 0.47249645, 0.04630138, 0.07737387, -0.11693764, 0
238, 2227323000, -0.7828688, -0.007895177, -0.40525264, 0.47204384, -0.08690005, 0.026611187, -0.073521614, 0
240, 2227356334, -0.78290534, -0.007838311, -0.40548295, 0.47178623, -0.03345408, 0.075639896, -0.13912296, 0
242, 2227389668, -0.78302073, -0.007553477, -0.4054336, 0.47164184, 0.0014193073, -0.0035062057, -0.08918095, 0
243, 2227406335, -0.7830074, -0.0074872766, -0.40542144, 0.47167557, 0.046743043, 8.9737657E-4, -0.08441639, 0
244, 2227423002, -0.7828861, -0.0074574165, -0.4054817, 0.4718255, 0.017061414, -0.027590705, -0.10291004, 0
246, 2227456336, -0.78267765, -0.0074424427, -0.40562487, 0.47204855, -0.03253209, 0.012913014, -0.11026859, 0
249, 2227506337, -0.7826856, -0.007056063, -0.40508336, 0.47250637, -0.04147596, -0.018197153, -0.09322071, 0
250, 2227523004, -0.7827921, -0.0069630407, -0.40471208, 0.47264907, -0.077502444, -0.073134415, -0.082297325, 0
251, 2227539671, -0.7829172, -0.0069506615, -0.4044023, 0.47270718, -0.021648794, -0.111772895, -0.08174038, 0
253, 2227573005, -0.7830112, -0.007216964, -0.40435013, 0.47259182, 0.08248321, -0.08666433, -0.057147026, 0
254, 2227589672, -0.78292006, -0.007470429, -0.40462628, 0.47250256, 0.05423497, -0.04624518, -0.092199326, 0
257, 2227639673, -0.7824082, -0.008381268, -0.40593043, 0.47221676, 0.015823599, 0.028928304, -0.12649918, 0
258, 2227656340, -0.7822305, -0.00859331, -0.40625292, 0.4722297, -0.020374324, 0.07345079, -0.119436264, 0
259, 2227673007, -0.78213, -0.008571392, -0.40632918, 0.47233102, -0.06310352, 0.11262924, -0.14264965, 0
261, 2227706341, -0.7822867, -0.007708678, -0.4053666, 0.47291318, -0.109444015, 0.03446888, -0.13526821, 0
263, 2227739675, -0.7828538, -0.0067990776, -0.40401328, 0.47314668, 0.046903525, -0.20072114, -0.045948982, 0
265, 2227773009, -0.78294444, -0.0069508236, -0.40415162, 0.47287637, 0.14180087, -0.17299506, -0.029561043, 0
266, 2227789676, -0.7827159, -0.0073190983, -0.40487355, 0.47263157, 0.112203054, -0.08756352, -0.06493187, 0
267, 2227806343, -0.7823686, -0.0077786054, -0.40584525, 0.47236553, 0.06916385, -0.019730788, -0.12059021, 0
269, 2227839677, -0.7816143, -0.008166527, -0.4072681, 0.4723832, -0.0680027, 0.22852536, -0.20374489, 0
270, 2227856344, -0.7815006, -0.0077589564, -0.40702012, 0.47279182, -0.17685373, 0.254374, -0.16896439, 0
273, 2227906345, -0.7823376, -0.0061395485, -0.4042935, 0.47376978, 0.025344804, -0.23766364, -0.037269592, 0
274, 2227923012, -0.7825046, -0.006188469, -0.40398824, 0.47375396, 0.15383458, -0.18486609, -0.0023756027, 0
276, 2227956346, -0.7821908, -0.006858362, -0.40496436, 0.47342944, 0.135302, -0.11635704, -0.08588028, 0
278, 2227989680, -0.7813364, -0.007821625, -0.4069169, 0.47315115, -0.020298105, 0.12157251, -0.12704849, 0
280, 2228023014, -0.7809287, -0.0074356794, -0.40694046, 0.47380933, -0.21065225, 0.24432276, -0.17264748, 0
281, 2228039681, -0.78113866, -0.0067239255, -0.40594545, 0.47432712, -0.23820335, 0.041098893, -0.08562946, 0
282, 2228056348, -0.78154075, -0.0060141906, -0.4047773, 0.47467262, -0.13856596, -0.21884696, -0.06137085, 0
284, 2228089682, -0.7822068, -0.0054767355, -0.4034329, 0.47472674, 0.20218825, -0.17677855, -0.017365456, 0
285, 2228106349, -0.7821813, -0.0056092236, -0.40356937, 0.47465116, 0.16443782, -0.1692807, -0.041441917, 0
286, 2228123016, -0.7819531, -0.00595095, -0.4041032, 0.47456878, 0.069587186, -0.1162209, -0.058098793, 0
288, 2228156350, -0.78135467, -0.0067412816, -0.40567514, 0.47420254, -0.038340073, 0.0022608615, -0.13663673, 0
289, 2228173017, -0.7811051, -0.0070257727, -0.40623015, 0.47413453, -0.023938907, 0.12356858, -0.16118813, 0
290, 2228189684, -0.7809831, -0.0069620777, -0.40629023, 0.47428456, -0.08620582, 0.20044272, -0.20581532, 0
293, 2228239685, -0.7816254, -0.0052164122, -0.40358388, 0.47555798, -0.09692483, -0.31555456, -0.06029606, 0
294, 2228256352, -0.78201187, -0.0049870703, -0.40297446, 0.47544175, 0.056554366, -0.35772556, -0.025723457, 0
296, 2228289686, -0.7819758, -0.005572038, -0.4036773, 0.47489813, 0.16429499, -0.15282203, -0.05215645, 0
297, 2228306353, -0.78165203, -0.0061465297, -0.40462416, 0.4746183, 0.053386293, -0.052157838, -0.10029602, 0
298, 2228323020, -0.7812994, -0.006741762, -0.40561712, 0.47434345, -0.071398534, -0.029421834, -0.12383175, 0
300, 2228356354, -0.780933, -0.0077872686, -0.40725508, 0.47352615, -0.019565653, 0.026203584, -0.12832451, 0
303, 2228406355, -0.7805865, -0.0076647904, -0.40785748, 0.47358134, -0.07035785, 0.16597874, -0.10791206, 0
304, 2228423022, -0.7805886, -0.0072458163, -0.40737924, 0.47399595, -0.10867379, 0.01616704, -0.11467934, 0
305, 2228439689, -0.7807297, -0.006827146, -0.4068071, 0.47426093, -0.124258675, -0.19637527, -0.1016922, 0
308, 2228489690, -0.7811275, -0.006707823, -0.4065782, 0.4738035, 0.30319354, 0.046621546, 0.06771755, 0
309, 2228506357, -0.78070223, -0.0072686058, -0.4075454, 0.47366536, 0.22923422, -0.20835786, -0.11354923, 0
311, 2228539691, -0.77935904, -0.009191919, -0.41047832, 0.47331125, -0.10195253, 0.001108778, -0.16526318, 0
312, 2228556358, -0.7789799, -0.00990032, -0.4114918, 0.47304103, -0.29717255, 0.03609776, -0.17696095, 0
313, 2228573025, -0.77894336, -0.010304747, -0.411905, 0.47273275, -0.25875828, 0.049136627, -0.2016344, 0
315, 2228606359, -0.7797449, -0.010427315, -0.41119596, 0.4720252, -0.13137197, -0.05842676, -0.17194748, 0
316, 2228623026, -0.7803568, -0.010550957, -0.41054714, 0.4715758, -0.0012364737, -0.2021628, -0.115021706, 0
319, 2228673027, -0.78126305, -0.011934735, -0.41097537, 0.46966532, 0.15471523, -0.008729299, 0.006242752, 0
320, 2228689694, -0.7811385, -0.012554724, -0.41173452, 0.46919113, 0.115770325, 0.048909746, -0.071290016, 0
323, 2228739695, -0.7804147, -0.014118737, -0.41391194, 0.4684349, -0.1337553, 0.114048295, -0.08750725, 0
324, 2228756362, -0.7803409, -0.014421031, -0.41405717, 0.46842057, -0.16606298, 0.111693755, -0.13173294, 0
325, 2228773029, -0.780483, -0.01458022, -0.41369858, 0.46849564, -0.21668151, 0.15767841, -0.101688385, 0
327, 2228806363, -0.78100324, -0.014452394, -0.41201654, 0.46911412, 0.022776194, 0.049175058, -0.091197014, 0
328, 2228823030, -0.7811244, -0.014349561, -0.41119096, 0.46963978, 0.01479544, -0.056433752, -0.05615139, 0
330, 2228856364, -0.7809086, -0.014316766, -0.41090152, 0.4702528, 0.18559934, -0.29734933, -0.120446205, 0
331, 2228873031, -0.78052354, -0.014818711, -0.41139504, 0.4704451, 0.07102683, -0.17646553, -0.054615974, 0
332, 2228889698, -0.78000695, -0.015506366, -0.41202116, 0.47073147, 0.05416859, 0.008546297, -0.09588146, 0
335, 2228939699, -0.7776826, -0.015774637, -0.41302443, 0.47367975, 0.06669872, 0.37167472, -0.14599133, 0
338, 2228989700, -0.7753596, -0.011028685, -0.40949315, 0.48063725, -0.3658556, 0.33781004, 0.014180183, 0
339, 2229006367, -0.77542305, -0.008656034, -0.40619597, 0.48337346, -0.46390897, 0.535984, 0.15371132, 0
340, 2229023034, -0.77616274, -0.00538408, -0.40144277, 0.48619652, -0.6436686, 0.9691182, 0.2540655, 0
342, 2229056368, -0.77900827, 0.004565833, -0.38746163, 0.49295002, -0.7315081, 0.9195927, 0.5400181, 0
343, 2229073035, -0.78068244, 0.012002047, -0.3783315, 0.49724942, -0.4132361, 1.8278073, 0.42525387, 0
344, 2229089702, -0.78214896, 0.019690016, -0.36707723, 0.5031008, -0.8094392, 0.5196322, -0.48448658, 0
346, 2229123036, -0.78603643, 0.03490543, -0.34045678, 0.51479924, 0.42106822, -0.5375067, 0.16727161, 0
347, 2229139703, -0.78743887, 0.041993283, -0.32970065, 0.51910967, 2.0747333, -2.781092, -1.7241926, 0
348, 2229156370, -0.78815925, 0.04515668, -0.32301697, 0.52194506, -0.07209388, -2.7148178, -0.870306, 0
352, 2229223038, -0.7877924, 0.04242724, -0.32287169, 0.5228171, -0.6573751, -0.28816912, -1.0870733, 0
354, 2229256372, -0.78816944, 0.03875227, -0.32151392, 0.5233707, 0.55508214, 2.022001, 1.734623, 0
355, 2229273039, -0.7877619, 0.04192081, -0.32059073, 0.52430534, 0.6717856, 0.9944562, 1.9515009, 0
357, 2229306373, -0.7850228, 0.05503176, -0.3198839, 0.52762294, -0.1332345, -0.15901382, 0.16556168, 0
358, 2229323040, -0.78353024, 0.06135922, -0.3198205, 0.5291799, -0.530312, -0.3473864, -0.1625328, 0
359, 2229339707, -0.7821371, 0.067458324, -0.31939209, 0.5307548, -0.4428194, 0.13390695, 0.043693542, 0
361, 2229373041, -0.77964425, 0.07712293, -0.31821802, 0.53380245, -0.39529943, -0.68671304, -0.32183266, 0
362, 2229389708, -0.7783585, 0.08060591, -0.31810018, 0.53523266, -0.38033167, -0.38536215, -0.13367653, 0
363, 2229406375, -0.7771306, 0.08379512, -0.3179108, 0.5366378, 0.05893545, -0.3500867, -0.6241121, 0
365, 2229439709, -0.7760462, 0.0874226, -0.3168783, 0.5382365, -0.32469815, -0.36918887, -0.63205814, 0
367, 2229473043, -0.77637595, 0.08649627, -0.31504062, 0.53898895, -0.7074006, -0.3536574, -0.4983759, 0
369, 2229506377, -0.7761625, 0.083153054, -0.31326333, 0.54085517, -0.21117862, -0.42032158, -1.100832, 0
370, 2229523044, -0.77604693, 0.0804732, -0.31263575, 0.5417888, -0.5215811, -0.21774487, -0.22904682, 0
371, 2229539711, -0.7759624, 0.07702184, -0.3115449, 0.54303825, -1.125654, -0.3180603, -0.27649307, 0
373, 2229573045, -0.7767178, 0.071125254, -0.3107925, 0.5431939, 3.1678255, 0.26132587, -0.44557095, 0
374, 2229589712, -0.7774993, 0.06867949, -0.31120557, 0.5421529, -1.1251285, -0.81274104, -1.0931206, 0
375, 2229606379, -0.77873355, 0.064445205, -0.31082582, 0.54111844, -0.13254407, 0.020380387, -0.29075623, 0
377, 2229639713, -0.78191173, 0.05412786, -0.30816057, 0.5391866, -0.008169399, -0.5038905, -0.79189396, 0
378, 2229656380, -0.78373116, 0.04740768, -0.30634686, 0.53821063, 0.057874657, -0.4258733, -0.59494686, 0
382, 2229723048, -0.7896819, 0.019777006, -0.30764398, 0.5304407, 0.24893263, -1.3442348, -0.61637497, 0
384, 2229756382, -0.79215425, 0.0032736035, -0.31736147, 0.5213096, -1.0287664, 0.4695422, 0.8701401, 0
385, 2229773049, -0.7919413, -0.008850053, -0.32482448, 0.5169531, 0.44261757, -1.9693509, 0.8627901, 0
386, 2229789716, -0.7901378, -0.023013562, -0.3354818, 0.51245064, 1.8675228, -0.89404523, 1.1809797, 0
388, 2229823050, -0.78279257, -0.0632517, -0.36818698, 0.49766845, -0.17875606, -1.2514342, 0.0516634, 0
389, 2229839717, -0.7758551, -0.08859993, -0.38910344, 0.48866993, 0.52280754, -0.59873426, 0.2529354, 0
390, 2229856384, -0.7670334, -0.11619619, -0.40991408, 0.47971815, 0.35135344, 0.74719435, -0.49316406, 0
392, 2229889718, -0.7454253, -0.16664875, -0.4459854, 0.4665483, -0.3819273, 2.2581592, -0.98283195, 0
393, 2229906385, -0.736009, -0.18725654, -0.4591331, 0.4608941, -1.2086186, 1.6939083, -1.2514467, 0
394, 2229923052, -0.7294568, -0.20276856, -0.46873143, 0.45504877, -1.3156388, 1.9115012, -0.13790894, 0
398, 2229989720, -0.7345684, -0.21945795, -0.4699545, 0.43748295, 0.34303272, -0.047045454, 0.9368305, 0
400, 2230023054, -0.7394709, -0.22432737, -0.4691609, 0.42749166, -1.4759839, -2.8179061, 0.8175211, 0
401, 2230039721, -0.73889434, -0.23820445, -0.47401315, 0.41545913, -2.1645634, -4.1371913, 0.13978386, 0
402, 2230056388, -0.7352469, -0.2605132, -0.4838733, 0.39675233, -1.1381432, -5.331596, 1.4775333, 0
404, 2230089722, -0.7102049, -0.3331055, -0.5241988, 0.33146086, 0.23086028, -10.2039795, 5.978448, 0
405, 2230106389, -0.6886965, -0.37104675, -0.55925274, 0.27433342, -1.4803196, -7.2088447, 7.872677, 0
406, 2230123056, -0.6776866, -0.37562433, -0.5988574, 0.20252912, -2.1707935, -28.13084, 18.085855, 0
408, 2230156390, -0.66722316, -0.39476582, -0.61905956, 0.12545621, -47.125797, -35.9155, -1.7426863, 0
409, 2230173057, -0.6444562, -0.4097919, -0.6238327, 0.1660743, -18.675354, -4.874107, -2.6821804, 0
412, 2230223058, -0.5716081, -0.43080276, -0.6682001, 0.20293537, -3.0911846, -14.296402, -4.202385, 0
415, 2230273059, -0.50801295, -0.4414177, -0.6960027, 0.2503086, 8.938673, -16.97695, -10.168013, 0
416, 2230289726, -0.50963736, -0.43863022, -0.69366914, 0.25825828, 5.6833386, -15.976184, -11.0151, 0
417, 2230306393, -0.5213143, -0.4372617, -0.6814744, 0.26949486, 1.110331, -16.01889, -10.425927, 0
419, 2230339727, -0.5637189, -0.42931774, -0.63734365, 0.30282238, -1.6394401, -9.597341, -9.806724, 0
420, 2230356394, -0.5890799, -0.4196064, -0.61078286, 0.32227427, -3.7901402, -7.3128304, -9.512035, 0
421, 2230373061, -0.61348414, -0.40524846, -0.5848689, 0.34254947, -3.7003696, -5.303981, -9.523831, 0
423, 2230406395, -0.65510935, -0.3591099, -0.54263073, 0.3839595, -6.061891, -6.3874745, -5.2306356, 0
424, 2230423062, -0.6697901, -0.32761657, -0.52645344, 0.40852952, -5.072512, -5.0528517, -2.4264717, 0
427, 2230473063, -0.68427855, -0.21036536, -0.49271265, 0.49471667, 3.2245994, -1.7941023, 5.7758846, 0
428, 2230489730, -0.6855933, -0.16946353, -0.47677392, 0.5233845, 4.0655737, 1.7752315, 7.7215347, 0
431, 2230539731, -0.68506545, -0.07062808, -0.41272998, 0.5961141, 4.8979206, 11.903989, 7.9699364, 0
432, 2230556398, -0.682289, -0.04175199, -0.3925876, 0.6153165, 6.929608, 14.435825, 6.7546043, 0
433, 2230573065, -0.6793717, -0.01498222, -0.37371218, 0.63132405, 7.189749, 17.39972, 3.5972672, 0
435, 2230606399, -0.6765721, 0.016268704, -0.33581886, 0.65514284, 6.449413, 22.520962, -0.81023884, 0
436, 2230623066, -0.6743296, 0.027774386, -0.3209336, 0.6644628, 6.625041, 25.83326, -0.32147884, 0
438, 2230656400, -0.66567934, 0.0351685, -0.30538985, 0.67997956, 8.101295, 28.668875, -9.8735485, 0
439, 2230673067, -0.66432726, 0.027454892, -0.30470613, 0.6819607, 10.878054, 28.312862, -9.704992, 0
442, 2230723068, -0.6776387, -0.04395494, -0.32189217, 0.65974253, 13.631594, 28.599993, -9.592424, 0
443, 2230739735, -0.67359126, -0.030516753, -0.32189825, 0.6646246, -11.175521, 29.06925, 51.073517, 0
444, 2230756402, -0.6704601, -0.0320146, -0.32633492, 0.6655561, -6.112224, -17.504255, -3.5652976, 0
446, 2230789736, -0.6726324, -0.05571738, -0.34787026, 0.65072936, 1.8500501, -4.6576037, 0.618783, 0
447, 2230806403, -0.6708979, -0.073221564, -0.3649417, 0.6413681, -1.1204385, -0.7331836, 0.9167681, 0
448, 2230823070, -0.6672128, -0.09587367, -0.38498443, 0.6304151, -0.21089229, 0.50713474, -0.9370756, 0
450, 2230856404, -0.66019714, -0.14399254, -0.4208367, 0.60523, 0.9044045, 2.027194, -1.0248814, 0
451, 2230873071, -0.65794504, -0.16134697, -0.43384492, 0.59401613, 0.6990598, 2.2551272, 0.16092205, 0
452, 2230889738, -0.6570151, -0.17569993, -0.44392717, 0.58342993, -0.40452582, 0.82918924, 0.31340408, 0
454, 2230923072, -0.6549244, -0.21418037, -0.46672338, 0.5544107, -0.76067805, -2.0636516, 0.56317616, 0
456, 2230956406, -0.6427692, -0.2732527, -0.49916288, 0.51285285, -0.19805394, -2.548065, 0.43274498, 0
458, 2230989740, -0.6164548, -0.34659788, -0.5394534, 0.4569952, -0.025814405, -5.034755, 2.093133, 0
460, 2231023074, -0.5638236, -0.42591846, -0.6045775, 0.36767292, -1.0498931, -14.859733, 12.307993, 0
462, 2231056408, -0.50386924, -0.47908652, -0.6793737, 0.2346153, -12.063695, -35.842342, 22.130783, 0
463, 2231073075, -0.48971593, -0.49058717, -0.69040585, 0.20698649, -39.101795, -30.75266, 18.383156, 0
465, 2231106409, -0.46381408, -0.49488556, -0.6907051, 0.2507835, 11.9312935, 0.57268447, -2.479578, 0
466, 2231123076, -0.4786428, -0.48312053, -0.6975309, 0.2257148, 5.8734164, -2.6030385, -3.1021972, 0
467, 2231139743, -0.49330458, -0.4734626, -0.7032769, 0.19464414, -7.6795297, -15.174378, -2.5054111, 0
469, 2231173077, -0.49911025, -0.47629675, -0.7014091, 0.17904453, -5.7948112, -17.925549, -9.583806, 0
471, 2231206411, -0.5040154, -0.4788569, -0.69582623, 0.18025406, -0.016684348, -14.025563, -12.535104, 0
473, 2231239745, -0.5179814, -0.4798181, -0.68284816, 0.18758774, -3.2894902, -11.59533, -13.991869, 0
474, 2231256412, -0.52446574, -0.4822998, -0.6718679, 0.20227943, -3.6866238, -11.0747795, -13.972555, 0
477, 2231306413, -0.5478401, -0.46671838, -0.6365329, 0.27725825, -2.984146, -8.077425, -11.815206, 0
478, 2231323080, -0.55712485, -0.4513265, -0.62596154, 0.3067405, -1.6202343, -5.603504, -11.735789, 0
479, 2231339747, -0.5670167, -0.43094686, -0.61715746, 0.33450606, -1.5626707, -6.912985, -9.414741, 0
481, 2231373081, -0.58706605, -0.37863892, -0.59735185, 0.39390057, 0.16783945, -8.170449, -5.695624, 0
482, 2231389748, -0.5979878, -0.3475691, -0.58580667, 0.4224194, 1.395439, -8.626896, -3.1650562, 0
483, 2231406415, -0.6117791, -0.31284198, -0.57176775, 0.448262, 2.9205408, -9.850853, 1.1787701, 0
486, 2231456416, -0.6693496, -0.19387099, -0.4993222, 0.51484305, -1.2933041, -0.9069545, 11.869833, 0
487, 2231473083, -0.6828174, -0.14899743, -0.47169834, 0.5376447, -0.10279182, 4.2262406, 9.23509, 0
489, 2231506417, -0.69642425, -0.063309915, -0.42428467, 0.5752987, 4.3512216, 8.9526615, 8.68153, 0
490, 2231523084, -0.69858426, -0.027167987, -0.4016569, 0.5915359, 4.6115446, 11.277361, 8.736067, 0
493, 2231573085, -0.6942284, 0.05203049, -0.33635363, 0.634198, 5.123195, 17.451544, 3.3145504, 0
494, 2231589752, -0.69101876, 0.06924496, -0.319573, 0.64464915, 4.8919716, 18.718372, 1.3647995, 0
496, 2231623086, -0.6848283, 0.09504441, -0.29729754, 0.658477, 8.794916, 20.43998, -1.0129232, 0
497, 2231639753, -0.68445706, 0.10471988, -0.29030055, 0.6605142, 8.893913, 20.778318, -3.085648, 0
498, 2231656420, -0.68674815, 0.10944457, -0.28410432, 0.660064, 8.991946, 20.11036, -4.403067, 0
501, 2231706421, -0.70495325, 0.088088274, -0.2695114, 0.65011233, 4.538628, 18.980364, -3.9175515, 0
502, 2231723088, -0.70944357, 0.07222762, -0.26812053, 0.647754, 3.599229, 18.385798, -3.8428817, 0
504, 2231756422, -0.7166617, 0.028691737, -0.27207962, 0.6415189, 2.5284984, 21.025713, -6.8334546, 0
505, 2231773089, -0.7186449, 0.0036709309, -0.28135487, 0.635906, 2.1922607, 22.814926, -12.181206, 0
506, 2231789756, -0.71498775, -0.018805422, -0.30642086, 0.6281289, 2.47997, 33.013214, -15.868623, 0
509, 2231839757, -0.7074771, -0.027339926, -0.3228934, 0.62806803, -1.3143295, -1.2933443, 4.1998167, 0
510, 2231856424, -0.7134944, -0.03579155, -0.3252378, 0.61956924, 2.2760305, -1.3493505, 1.196866, 0
512, 2231889758, -0.71557504, -0.055177994, -0.34729907, 0.6035663, 0.42503425, -0.8579396, 0.92873573, 0
513, 2231906425, -0.71366525, -0.06783123, -0.36428303, 0.5944575, 0.017452562, 0.4342879, 0.6306, 0
516, 2231956426, -0.67526376, -0.16886498, -0.47298524, 0.5401753, -1.7139595, -11.402977, 4.990011, 0
517, 2231973093, -0.6528072, -0.24161325, -0.5202198, 0.49481118, -2.6259968, -12.979395, 5.9939613, 0
519, 2232006427, -0.5919089, -0.38898942, -0.6094464, 0.3562403, -11.561621, -33.75387, 28.27666, 0
520, 2232023094, -0.56723493, -0.4419545, -0.626187, 0.30134976, -39.89433, -37.28025, 32.68166, 0
521, 2232039761, -0.5260986, -0.48201025, -0.6305406, 0.3054602, -34.892246, -69.0784, 34.08041, 0
523, 2232073095, -0.49287605, -0.50871855, -0.65381545, 0.26609182, -5.432115, -39.519543, -6.4852576, 0
524, 2232089762, -0.49032772, -0.5181437, -0.65598106, 0.24656798, -19.717358, -44.28915, -16.491232, 0
525, 2232106429, -0.4878862, -0.52515805, -0.65246636, 0.24589586, -9.457339, -31.805178, -24.949226, 0
527, 2232139763, -0.50317234, -0.5094859, -0.64602923, 0.26436555, -7.3387485, -17.923847, -23.303177, 0
528, 2232156430, -0.51080275, -0.49637273, -0.638896, 0.2907024, -7.777105, -11.231493, -20.801464, 0
531, 2232206431, -0.51920813, -0.43525153, -0.6096981, 0.41139808, -5.0119853, -5.998846, -10.357903, 0
532, 2232223098, -0.52128726, -0.4039009, -0.5972485, 0.45652905, -4.2546, -6.590171, -5.510136, 0
533, 2232239765, -0.52585727, -0.36691627, -0.58177793, 0.5003819, -2.723025, -3.5466793, -1.059351, 0
535, 2232273099, -0.53313845, -0.29384592, -0.5353967, 0.585465, -4.6309905, 8.287828, 3.83257, 0
536, 2232289766, -0.5315273, -0.2546558, -0.51271564, 0.6243019, 0.44486052, 12.337579, 6.814354, 0
539, 2232339767, -0.53075373, -0.2039915, -0.42825222, 0.7023453, 45.31413, 6.864745, 2.6254044, 0
540, 2232356434, -0.54088473, -0.1842511, -0.412699, 0.70934874, -4.289398, 26.562866, 10.056538, 0
541, 2232373101, -0.53105795, -0.18062194, -0.39514336, 0.72747225, -1.3688189, 26.001394, 2.1930199, 0
543, 2232406435, -0.49629033, -0.16315456, -0.40145218, 0.75227237, 8.227022, 15.034863, 1.2311268, 0
546, 2232456436, -0.49736944, -0.15347481, -0.37657642, 0.7663291, -0.78735644, 5.3046784, -9.272309, 0
547, 2232473103, -0.49482864, -0.1609256, -0.37783888, 0.7658239, 0.35542944, 1.235319, -8.118603, 0
548, 2232489770, -0.49374095, -0.17424281, -0.3783986, 0.7633314, -0.2648111, -0.61810374, -7.781452, 0
550, 2232523104, -0.49900705, -0.21712871, -0.37822303, 0.7488628, 16.752508, 15.838139, 29.134483, 0
551, 2232539771, -0.50427616, -0.21819673, -0.38058886, 0.7438069, -0.28800428, 2.319318, 1.8216448, 0
552, 2232556438, -0.51056266, -0.21715313, -0.38142645, 0.7393817, 2.6880932, -0.3921366, 0.8518257, 0
555, 2232606439, -0.51624864, -0.2047331, -0.38593546, 0.73663193, -3.5569248, 1.607842, 2.3372612, 0
556, 2232623106, -0.5175076, -0.2067205, -0.3754933, 0.74057984, -1.4905169, -0.48250157, 0.29441738, 0
558, 2232656440, -0.536658, -0.20276046, -0.3610786, 0.7351938, -4.8280573, -5.486643, -0.20543861, 0
560, 2232689774, -0.5463518, -0.19963746, -0.3495321, 0.7344881, -0.23161799, -3.3172345, 1.2340412, 0
562, 2232723108, -0.56044173, -0.19795118, -0.34234452, 0.7276824, -2.0684626, -1.585872, 1.7484674, 0
563, 2232739775, -0.5671935, -0.19654183, -0.3419583, 0.7229995, -1.4495361, -3.565952, 0.89723396, 0
564, 2232756442, -0.5757692, -0.19609977, -0.3418065, 0.71638256, -1.1977001, -2.4255393, -2.1218762, 0
566, 2232789776, -0.6037398, -0.18741009, -0.33848023, 0.69699913, -3.9391565, -1.4404138, -0.92142963, 0
567, 2232806443, -0.6213861, -0.1784054, -0.33365047, 0.68609697, -2.5163362, -0.38493893, 0.17285442, 0
568, 2232823110, -0.64053655, -0.16364118, -0.32613283, 0.67570174, -2.2776344, -2.253007, -0.9764061, 0
571, 2232873111, -0.6799951, -0.10685398, -0.30081674, 0.66007507, 0.6853144, -3.0307667, 0.66557693, 0
573, 2232906445, -0.6601102, -0.09045578, -0.30010432, 0.68264985, -2.134963, -5.349903, -3.2151074, 0
575, 2232939779, -0.6338468, -0.09352531, -0.30976757, 0.70252144, -4.03499, 1.0286211, -0.32112122, 0
577, 2232973113, -0.6245012, -0.08565581, -0.3108337, 0.71136814, -2.6626704, 0.62226176, -1.0784407, 0
578, 2232989780, -0.62462234, -0.07350598, -0.29891148, 0.71770245, -3.856517, -2.4974828, -12.003634, 0
579, 2233006447, -0.6198009, -0.0660605, -0.29729807, 0.723255, 0.9550026, -4.8582225, -6.0804305, 0
581, 2233039781, -0.61218655, -0.057863094, -0.29914317, 0.7296534, 1.6558957, 3.4750016, 4.998006, 0
582, 2233056448, -0.60945535, -0.057569683, -0.30274633, 0.73047614, 1.0646051, 12.191482, 3.6861868, 0
583, 2233073115, -0.6065165, -0.054575585, -0.30427632, 0.7325137, -4.859532, 2.5983992, 2.074707, 0
585, 2233106449, -0.60241103, -0.052547637, -0.30501676, 0.73573464, 0.99011576, 3.8947375, -1.3235693, 0
587, 2233139783, -0.5988372, -0.05303745, -0.3018535, 0.73990977, 4.836958, 6.2983575, 3.6899738, 0
590, 2233189784, -0.5973177, -0.05443368, -0.30160797, 0.7411358, 1.0141118, 0.021767564, -5.7619963, 0
591, 2233206451, -0.59687495, -0.053926706, -0.30160493, 0.74153084, 2.6857731, -0.8636773, -3.5615158, 0
593, 2233239785, -0.5982861, -0.055965833, -0.29787743, 0.74174917, 1.3430876, 2.6726973, 1.7598629, 0
594, 2233256452, -0.5998512, -0.05841734, -0.29475546, 0.741543, -0.30751607, 2.063645, 4.5771494, 0
595, 2233273119, -0.6010885, -0.059073906, -0.29352632, 0.7409766, -0.73449093, 0.11212617, -0.94927216, 0
597, 2233306453, -0.6023358, -0.058162794, -0.29206833, 0.7406116, 0.32932577, -3.2790754, -2.8541331, 0
598, 2233323120, -0.60236263, -0.056821916, -0.29121485, 0.74103016, 0.48834294, -0.09550284, 0.47979546, 0
600, 2233356454, -0.6011355, -0.055347398, -0.2925022, 0.74163073, -0.6046523, 3.1627977, -0.06819153, 0
601, 2233373121, -0.60051024, -0.05465966, -0.293073, 0.74196285, 0.104745656, 2.2402055, 2.423705, 0
602, 2233389788, -0.599919, -0.05303055, -0.29388493, 0.74223804, -0.72322947, -2.9145498, -0.6192465, 0
605, 2233439789, -0.5974078, -0.04895056, -0.2974831, 0.7431102, -0.47156316, -0.0049786954, -1.1368952, 0
606, 2233456456, -0.5963617, -0.047105987, -0.2996337, 0.74320555, 0.7850223, 2.0515313, -1.5238218, 0
608, 2233489790, -0.59484637, -0.04481741, -0.30145034, 0.7438265, 0.05093078, 0.3978604, 1.9806728, 0
609, 2233506457, -0.5945941, -0.043560043, -0.3014331, 0.74410987, -2.190309, -2.328923, -0.23687172, 0
610, 2233523124, -0.594742, -0.043551836, -0.30128846, 0.74405086, -0.058991216, -1.9265114, -0.84300137, 0
612, 2233556458, -0.59541357, -0.04352454, -0.30014122, 0.7439789, 0.87123215, 1.9535521, 0.37323666, 0
613, 2233573125, -0.5958056, -0.043596826, -0.29935786, 0.7439765, 1.2362599, 0.6807961, 0.25965118, 0
614, 2233589792, -0.596495, -0.044155598, -0.2980831, 0.74390286, 0.08215465, -0.26854667, 0.38680172, 0
617, 2233639793, -0.5979797, -0.04430671, -0.296445, 0.7433564, 1.0345507, -0.86742395, 0.6312666, 0
620, 2233689794, -0.59968346, -0.04585167, -0.2952689, 0.74235743, -1.4697205, 0.04778031, 0.8308315, 0
621, 2233706461, -0.59994054, -0.046309143, -0.29509342, 0.7421911, -1.0955235, -1.8842864, 0.14955235, 0
622, 2233723128, -0.6003034, -0.046300463, -0.29507273, 0.7419064, -0.68922377, -3.1440322, 1.3565664, 0
624, 2233756462, -0.6024886, -0.04879109, -0.29706717, 0.7391746, -1.2935259, -3.2999, -1.9052105, 0
625, 2233773129, -0.6047047, -0.052819557, -0.29763564, 0.7368558, -3.8156486, -3.4143763, -1.6193924, 0
627, 2233806463, -0.60709643, -0.05545999, -0.2961181, 0.7353049, -0.5794552, -5.0411253, -0.027122498, 0
628, 2233823130, -0.60839987, -0.05662718, -0.2944079, 0.734825, 1.2495192, -5.159555, 3.9273615, 0
629, 2233839797, -0.61057335, -0.060495786, -0.2956386, 0.7322154, -2.202419, -5.9445376, 0.6001406, 0
631, 2233873131, -0.6164798, -0.06977631, -0.30273122, 0.7234907, -1.8520429, -6.366137, -5.659724, 0
635, 2233939799, -0.6286794, -0.07372208, -0.3036042, 0.71214676, 1.4157821, -0.8154654, -2.4316812, 0
636, 2233956466, -0.6268727, -0.070476376, -0.30272424, 0.71443874, -0.116630174, -1.0076015, 1.2603436, 0
637, 2233973133, -0.62389266, -0.06450126, -0.3014114, 0.718157, -2.798802, -2.8896341, 0.98708344, 0
639, 2234006467, -0.62200874, -0.05900859, -0.29729858, 0.72196794, 0.56205964, 1.5403986, -3.482438, 0
640, 2234023134, -0.6213741, -0.057572857, -0.2935948, 0.7241429, 3.1824021, 2.6388998, -0.48975658, 0
641, 2234039801, -0.62120736, -0.05594699, -0.2879709, 0.7266672, 1.1212051, -1.4000578, 4.357482, 0
643, 2234073135, -0.62254184, -0.0570205, -0.28562427, 0.7263678, 2.4968736, 5.8389254, 1.7649813, 0
644, 2234089802, -0.62308407, -0.057914462, -0.28487557, 0.72612625, 1.1101482, 4.5361395, -3.511601, 0
645, 2234106469, -0.6232802, -0.058218025, -0.28269312, 0.726786, -1.2955707, 3.760178, -0.19432259, 0
647, 2234139803, -0.6219612, -0.059394557, -0.2789333, 0.7292694, -0.105800085, 6.6357145, 3.6410084, 0
651, 2234206471, -0.6141155, -0.06237029, -0.27928936, 0.7355072, -1.3781462, 2.6671169, 0.42175102, 0
652, 2234223138, -0.6110045, -0.06336503, -0.2805384, 0.7375349, -1.318053, 3.7169502, -0.27239704, 0
654, 2234256472, -0.60506976, -0.06321992, -0.2816858, 0.74198925, -2.0045753, 0.77811295, -0.14970589, 0
655, 2234273139, -0.6021654, -0.06366661, -0.28307238, 0.7437838, -1.1788274, 1.775772, -1.0931873, 0
656, 2234289806, -0.5994802, -0.06465497, -0.28369486, 0.7456282, 2.0750165, 5.027108, 1.5894918, 0
658, 2234323140, -0.59639597, -0.06684361, -0.28251484, 0.7483517, -0.08024249, 1.7899224, 1.6300774, 0
659, 2234339807, -0.595017, -0.066621035, -0.2813195, 0.7499179, -1.2260977, -2.5722654, -1.6177568, 0
660, 2234356474, -0.59370697, -0.06626012, -0.28068364, 0.75122523, 1.0156008, 0.35409042, -0.45943546, 0
662, 2234389808, -0.5920697, -0.065806374, -0.2787188, 0.7532862, 1.7473059, 1.7745134, 1.3606882, 0
664, 2234423142, -0.5918481, -0.06615714, -0.2757377, 0.7545256, -0.3264142, -0.6802504, -1.4602528, 0
667, 2234473143, -0.5915188, -0.0659415, -0.27042216, 0.7567233, -0.031040361, 1.6907246, 1.3193741, 0
668, 2234489810, -0.59120685, -0.06528732, -0.2699967, 0.7571757, -0.5892792, 1.2462208, 0.04889202, 0
670, 2234523144, -0.590493, -0.06425278, -0.26890343, 0.7582095, -0.52883554, -0.99643606, 0.6613436, 0
671, 2234539811, -0.59007716, -0.06414595, -0.26873165, 0.758603, -0.8152398, 0.2694473, 0.052749634, 0
672, 2234556478, -0.5894944, -0.063674256, -0.26870647, 0.7591045, -1.417267, -0.70716816, -1.064745, 0
674, 2234589812, -0.5879617, -0.06033565, -0.26804513, 0.7607979, -1.0070764, 0.58935916, 0.9689646, 0
675, 2234606479, -0.58694714, -0.058292434, -0.26882416, 0.7614656, -1.3497115, 1.4600613, 0.92916775, 0
676, 2234623146, -0.58559406, -0.056263845, -0.26953983, 0.76240623, -0.40022823, 0.76558656, 1.2747622, 0
679, 2234673147, -0.5807291, -0.04729379, -0.2732412, 0.7654132, -2.1088731, -1.5776274, -1.7515392, 0
681, 2234706481, -0.5762651, -0.042355962, -0.27694845, 0.76774037, 0.4008375, -0.1998737, -0.56385803, 0
682, 2234723148, -0.5742647, -0.039874874, -0.27877498, 0.7687104, -0.21563904, 0.7243012, 1.3170681, 0
683, 2234739815, -0.57222724, -0.03726042, -0.2798659, 0.7699634, -2.4417338, -1.9233661, 1.2867517, 0
685, 2234773149, -0.56679344, -0.03367552, -0.2860734, 0.7718641, -0.28912652, 0.4706195, -2.0046124, 0
686, 2234789816, -0.56460506, -0.032855675, -0.28775972, 0.7728758, 0.25000158, -0.19260144, -0.7795248, 0
687, 2234806483, -0.5634322, -0.03283479, -0.28782463, 0.7737079, 0.64498967, 0.6281788, 1.7511997, 0
689, 2234839817, -0.56281364, -0.03470032, -0.28767288, 0.774133, -1.6501434, -1.0910561, -1.328743, 0
690, 2234856484, -0.56291914, -0.036731273, -0.28725508, 0.77411765, -0.41825208, -1.5218234, -0.889246, 0
691, 2234873151, -0.5633966, -0.03836248, -0.28717107, 0.7737223, -0.20037356, -0.9500008, 0.39587784, 0
694, 2234923152, -0.5673496, -0.04563883, -0.28665453, 0.77062416, -1.2166599, -2.759561, -1.5398684, 0
697, 2234973153, -0.57214576, -0.054727152, -0.2884404, 0.76580495, -1.520545, -4.277861, -0.2579527, 0
698, 2234989820, -0.57302004, -0.05589285, -0.28902414, 0.7648465, -1.1269559, -4.9411106, 3.527297, 0
699, 2235006487, -0.5744301, -0.058800615, -0.29088798, 0.7628618, -2.092958, -4.761685, 0.7957554, 0
701, 2235039821, -0.57856, -0.063855276, -0.29287305, 0.75856256, -3.4784799, -6.1731105, -3.1353588, 0
702, 2235056488, -0.58028233, -0.06491327, -0.29324514, 0.75701207, -1.9802383, -3.6531155, -2.2330203, 0
703, 2235073155, -0.5801577, -0.062774196, -0.29371256, 0.7571066, 0.42509872, -3.171745, -0.8402872, 0
705, 2235106489, -0.57879746, -0.05256343, -0.29256135, 0.75936776, 0.15364404, -1.7606469, 0.8562784, 0
706, 2235123156, -0.5766781, -0.044705167, -0.2938213, 0.7609953, 0.78215563, -1.1044528, 1.2763672, 0
709, 2235173157, -0.5704549, -0.021367691, -0.3037043, 0.7628167, 0.53266245, 1.2689445, -1.9262738, 0
710, 2235189824, -0.5684205, -0.015248727, -0.3071658, 0.7630962, 0.80093354, 6.4024997, -0.400815, 0
713, 2235239825, -0.5650453, -0.0065699145, -0.3075387, 0.76557267, 1.5758383, 6.9161735, 8.254337, 0
714, 2235256492, -0.5636717, -0.0024581235, -0.30571866, 0.7673366, 5.3334136, 4.141785, 2.3451576, 0
716, 2235289826, -0.5624952, 0.014821592, -0.30180353, 0.7696071, 4.815279, 2.2377105, -2.4497824, 0
717, 2235306493, -0.5630268, 0.027133081, -0.30028847, 0.76947546, 1.1777759, 2.705191, 4.2310247, 0
718, 2235323160, -0.56336725, 0.040153034, -0.29951698, 0.7689576, 0.86104083, 4.019966, -0.007621765, 0
720, 2235356494, -0.5656128, 0.06372596, -0.29687473, 0.7667383, -0.22274251, 4.8532515, -2.4098907, 0
721, 2235373161, -0.5688544, 0.07437529, -0.29446426, 0.76430684, -2.5365796, 3.778445, -2.676568, 0
724, 2235423162, -0.5750702, 0.09984551, -0.28654298, 0.75974953, 1.4182525, 1.6116238, -5.161369, 0
725, 2235439829, -0.57688177, 0.10631362, -0.28491977, 0.7581072, -1.1961685, 0.71637714, -0.6963711, 0
726, 2235456496, -0.5798241, 0.11315709, -0.2836963, 0.75532573, 0.6132991, -1.8818134, -1.6175404, 0
729, 2235506497, -0.60104585, 0.13414448, -0.28623152, 0.7340447, 3.1251745, -0.5532131, -0.13476467, 0
730, 2235523164, -0.6100949, 0.1398629, -0.28942174, 0.72419524, -4.890855, -3.2938607, 1.6509542, 0
732, 2235556498, -0.63867927, 0.1476871, -0.29292262, 0.69604224, -3.0303652, 1.1611832, -2.198484, 0
733, 2235573165, -0.6511195, 0.14718848, -0.29614687, 0.6831377, -9.99426, -1.1684504, -7.194968, 0
735, 2235606499, -0.6643231, 0.13399127, -0.31537756, 0.66427344, -6.3690705, 3.8684058, 0.47267342, 0
736, 2235623166, -0.6631797, 0.13021302, -0.33072308, 0.658681, -4.483061, 0.32084185, 2.959402, 0
739, 2235673167, -0.66173226, 0.12656622, -0.36863637, 0.6404683, 1.7047226, 0.25851753, -0.6094084, 0
740, 2235689834, -0.66200054, 0.1238605, -0.3806477, 0.633658, 2.272263, 1.6901414, 3.294444, 0
741, 2235706501, -0.6626131, 0.12046197, -0.3942863, 0.62527764, 7.021739, -3.5677874, -3.9278393, 0
743, 2235739835, -0.66204745, 0.12061663, -0.425743, 0.60488725, 3.6514359, -2.446557, -5.8333845, 0
745, 2235773169, -0.64106834, 0.11865794, -0.48698846, 0.5812011, 2.086435, -0.7147844, 4.367687, 0
747, 2235806503, -0.6220336, 0.10466907, -0.52477664, 0.5716023, 2.018931, -4.040948, 7.885702, 0
748, 2235823170, -0.6192357, 0.06512141, -0.5244308, 0.58075786, -5.0640216, -12.153296, -5.1925526, 0
749, 2235839837, -0.6175022, 0.0165141, -0.5092206, 0.59926087, 14.91787, -13.196666, 14.780859, 0
751, 2235873171, -0.6163962, -0.035391405, -0.4640742, 0.6351689, -0.70022005, -17.502977, 0.890007, 0
753, 2235906505, -0.6276127, -0.049902372, -0.40079236, 0.6655664, -3.1000361, -9.415511, 4.8749638, 0
755, 2235939839, -0.63628554, -0.022123426, -0.32882708, 0.6975135, -6.3535743, 3.369096, 1.5429525, 0
756, 2235956506, -0.6337035, -0.0030062664, -0.29818797, 0.71378976, -6.441319, 7.5982633, -2.5460482, 0
757, 2235973173, -0.626308, 0.015512339, -0.27208117, 0.7303904, -4.4121666, 11.303276, -1.6350832, 0
759, 2236006507, -0.604862, 0.05568695, -0.23574805, 0.7585941, 2.8786457, 11.9105425, -6.608783, 0
760, 2236023174, -0.59340763, 0.07687258, -0.22478631, 0.769045, 4.9538393, 13.9645605, -6.6015472, 0
762, 2236056508, -0.582762, 0.10360059, -0.20589449, 0.7792713, 8.786223, 18.951986, -13.432791, 0
763, 2236073175, -0.58241373, 0.11206455, -0.20220836, 0.7793256, 9.525388, 23.53808, -15.987324, 0
764, 2236089842, -0.58348686, 0.11222356, -0.2045193, 0.77789575, 9.409412, 26.954744, -20.804161, 0
766, 2236123176, -0.586836, 0.067746654, -0.24273333, 0.7694904, 11.076773, 58.88179, -51.56212, 0
768, 2236156510, -0.57174873, -0.055264637, -0.30110836, 0.7611727, 22.76196, -14.03971, 48.66444, 0
770, 2236189844, -0.5893466, -0.089516416, -0.313734, 0.7390734, 6.7087913, 3.4894745, 4.536687, 0
771, 2236206511, -0.5927558, -0.1009073, -0.32322425, 0.73074305, 4.8540263, -3.7109606, 1.5157909, 0
772, 2236223178, -0.592948, -0.122416444, -0.34008694, 0.71956146, -2.1275756, -3.8262167, -0.3359518, 0
775, 2236273179, -0.57544905, -0.25450352, -0.43544155, 0.64379954, -1.094285, -5.8784695, 1.2897291, 0
776, 2236289846, -0.5626534, -0.32314274, -0.46633282, 0.6012776, -1.9405459, -7.603072, 3.2162733, 0
778, 2236323180, -0.52200013, -0.46349967, -0.55165106, 0.45647132, -23.45737, -33.685047, 34.062477, 0
779, 2236339847, -0.50890154, -0.51925075, -0.579126, 0.36879814, -40.92541, -43.427494, 46.292137, 0
780, 2236356514, -0.49117228, -0.5514929, -0.57812405, 0.3469567, -56.272297, -27.360542, 33.32904, 0
783, 2236406515, -0.46704984, -0.6039065, -0.5779978, 0.28823763, -24.766005, -23.464163, 1.6358032, 0
784, 2236423182, -0.45657364, -0.61452734, -0.58779, 0.26153514, -13.809437, -24.795708, -6.3822646, 0
786, 2236456516, -0.4449846, -0.62926316, -0.5998543, 0.21492437, -6.971597, -23.244719, -13.315933, 0
787, 2236473183, -0.44890058, -0.6341787, -0.5978749, 0.19710974, -5.1449614, -18.54768, -15.558841, 0
789, 2236506517, -0.4734066, -0.63699234, -0.5815742, 0.1786042, -4.9423738, -12.081866, -16.812532, 0
791, 2236539851, -0.4960357, -0.641195, -0.5523274, 0.19430156, -4.253178, -5.228264, -16.84829, 0
793, 2236573185, -0.5102529, -0.6359678, -0.5285823, 0.23619637, -4.4613614, -5.537955, -15.311579, 0
794, 2236589852, -0.51638144, -0.6256011, -0.52139133, 0.2648129, -2.8263428, -4.2129397, -14.442539, 0
795, 2236606519, -0.5227223, -0.6097715, -0.51742774, 0.29531306, -1.1160798, -3.7744303, -13.537619, 0
798, 2236656520, -0.544538, -0.532296, -0.5122485, 0.3971675, -3.0025256, -7.0922956, -8.617032, 0
799, 2236673187, -0.55114454, -0.49927598, -0.50661117, 0.43624467, -1.772586, -6.617381, -6.666093, 0
801, 2236706521, -0.56067115, -0.42466158, -0.49494308, 0.51023805, -2.1529565, -5.945787, -2.937457, 0
802, 2236723188, -0.5637074, -0.383609, -0.48837942, 0.5445775, -2.2474728, -7.561723, 2.539363, 0
803, 2236739855, -0.56899667, -0.34012273, -0.4769708, 0.577113, -1.5376865, -6.070747, 8.113901, 0
805, 2236773189, -0.58175486, -0.24697816, -0.43528143, 0.64116645, -4.680501, 0.39316332, 15.969126, 0
807, 2236806523, -0.57834035, -0.14465402, -0.38519734, 0.7044301, 1.6291533, 10.169674, 12.666483, 0
809, 2236839857, -0.5642496, -0.05249928, -0.3384945, 0.7511916, 7.042135, 13.763722, 11.66795, 0
810, 2236856524, -0.5591685, -0.0128622055, -0.3165168, 0.76614857, 8.270909, 15.581764, 9.99786, 0
813, 2236906525, -0.53724134, 0.07495037, -0.27969405, 0.79216564, 8.768396, 16.05293, 0.1718483, 0
814, 2236923192, -0.5267037, 0.09520985, -0.27485698, 0.7987323, 11.82253, 13.543451, -2.202927, 0
816, 2236956526, -0.5139152, 0.1237885, -0.26036865, 0.80794615, 15.484167, 9.708924, -3.2161393, 0
817, 2236973193, -0.5151045, 0.13228308, -0.24967639, 0.8092165, 13.410117, 10.660501, -6.094941, 0
818, 2236989860, -0.51922107, 0.13710384, -0.24115542, 0.8083671, 10.10335, 12.406701, -9.23467, 0
820, 2237023194, -0.5235835, 0.13465291, -0.23148026, 0.8087936, 8.82302, 11.970421, -10.207911, 0
821, 2237039861, -0.52413696, 0.1288353, -0.22936846, 0.8099837, 10.599846, 9.210534, -10.913385, 0
824, 2237089862, -0.55406296, 0.09483865, -0.22218317, 0.796653, 11.477631, 16.393051, -12.174259, 0
825, 2237106529, -0.56806177, 0.07086607, -0.223711, 0.7888208, 10.21657, 23.888262, -11.428338, 0
828, 2237156530, -0.5686728, -0.053873904, -0.30013874, 0.7639548, 22.931265, 48.163025, 1.4648619, 0
829, 2237173197, -0.56847775, -0.06326954, -0.2938344, 0.7658281, 10.184962, 6.138734, 44.242588, 0
830, 2237189864, -0.57308877, -0.0769474, -0.2959845, 0.76029116, -7.1311975, 6.0622354, 2.0509882, 0
832, 2237223198, -0.57997376, -0.093969, -0.3100707, 0.7474342, 4.915441, -1.6669888, 1.3980045, 0
833, 2237239865, -0.57575214, -0.10629662, -0.32680726, 0.7418953, -1.1900468, -1.3894492, -0.23534012, 0
834, 2237256532, -0.5738642, -0.1276038, -0.34835505, 0.73010075, -3.772986, -2.375687, 0.4035883, 0
836, 2237289866, -0.56342953, -0.20624578, -0.40991008, 0.6870114, -2.0052738, -3.2176678, 0.16492271, 0
837, 2237306533, -0.5543193, -0.26589173, -0.44143948, 0.65357786, -3.5242445, -6.392628, 2.752883, 0
838, 2237323200, -0.5430784, -0.34413058, -0.46899733, 0.6055434, -7.7154856, -9.958933, 9.098869, 0
840, 2237356534, -0.51816434, -0.48477113, -0.542206, 0.45001838, -24.44159, -27.336796, 32.095543, 0
843, 2237406535, -0.4930588, -0.5685115, -0.54066503, 0.3759925, 12.703397, 8.683541, -1.7350254, 0
844, 2237423202, -0.4995395, -0.5898027, -0.5417575, 0.33029267, -15.922221, -13.586742, 8.843758, 0
845, 2237439869, -0.49680576, -0.6101682, -0.5431276, 0.29307434, -32.067257, -18.753922, -0.507596, 0
847, 2237473203, -0.46695545, -0.6464977, -0.55993456, 0.22465056, -12.469369, -22.428968, -12.073643, 0
848, 2237489870, -0.4575188, -0.6535387, -0.5730675, 0.18750678, -11.388282, -20.737593, -15.300576, 0
849, 2237506537, -0.45011684, -0.6594551, -0.58146405, 0.15625143, -11.097977, -18.374918, -17.321886, 0
851, 2237539871, -0.43836847, -0.6749823, -0.5798987, 0.12629716, -5.093331, -14.415406, -19.454258, 0
853, 2237573205, -0.44559854, -0.6751923, -0.5712022, 0.13887656, -3.2628384, -7.728252, -18.663406, 0
855, 2237606539, -0.45772687, -0.66778, -0.5575488, 0.18356664, -3.4055657, -6.540901, -15.841587, 0
857, 2237639873, -0.47385022, -0.64228135, -0.54706496, 0.25231293, -0.38028342, -3.883644, -13.9996805, 0
859, 2237673207, -0.49141723, -0.5981802, -0.5404435, 0.329563, -1.1673353, -7.1140347, -11.131004, 0
860, 2237689874, -0.5002451, -0.56958383, -0.53534335, 0.37247565, -0.73918974, -7.3315406, -9.611235, 0
861, 2237706541, -0.51032746, -0.5371513, -0.5286458, 0.41420922, 0.7448686, -6.8632774, -7.775727, 0
863, 2237739875, -0.5332375, -0.46243447, -0.50915384, 0.4925197, -2.5968034, -7.274868, -1.6693335, 0
864, 2237756542, -0.5439598, -0.42118293, -0.49566597, 0.53012204, -2.6740053, -8.259192, 3.6269226, 0
865, 2237773209, -0.55678564, -0.37581494, -0.47908157, 0.5650085, -1.3409691, -5.0418973, 8.399641, 0
867, 2237806543, -0.57751215, -0.28599855, -0.43925083, 0.62589496, -4.104113, 4.0197525, 12.186546, 0
870, 2237856544, -0.5611434, -0.1463455, -0.38861147, 0.71601903, 4.4866567, 9.03541, 14.7753525, 0
872, 2237889878, -0.53946036, -0.05687455, -0.35008416, 0.7636689, 7.5063715, 12.890106, 11.361607, 0
874, 2237923212, -0.51745594, 0.01442855, -0.3106657, 0.7971947, 4.846899, 15.010593, 4.31775, 0
875, 2237939879, -0.503148, 0.040270686, -0.29631528, 0.81081367, 4.4866033, 14.267664, 2.099331, 0
876, 2237956546, -0.48532742, 0.061413303, -0.28716737, 0.8235422, 6.362586, 13.567361, 3.9522152, 0
878, 2237989880, -0.4390097, 0.099643536, -0.2781887, 0.8485009, 11.733581, 8.431963, -0.8440056, 0
879, 2238006547, -0.42198494, 0.11152706, -0.27031243, 0.8581509, 13.929351, 5.3888183, -3.6079493, 0
880, 2238023214, -0.41429245, 0.12042789, -0.2587486, 0.8642393, 15.120277, 6.9596577, -3.262414, 0
882, 2238056548, -0.4187721, 0.13761264, -0.23940277, 0.86508983, 13.299732, 8.046957, -7.4151893, 0
883, 2238073215, -0.4250445, 0.14524536, -0.2342776, 0.8621812, 11.83694, 8.597559, -8.648515, 0
887, 2238139883, -0.46070987, 0.13684793, -0.21797392, 0.84941614, 6.8796835, 10.609665, -7.399893, 0
888, 2238156550, -0.46532467, 0.12610738, -0.2154343, 0.8492111, 9.145734, 9.309002, -6.713631, 0
890, 2238189884, -0.48050955, 0.105360076, -0.21528879, 0.8436005, 13.817903, 9.974489, -5.8896394, 0
891, 2238206551, -0.49556562, 0.0942638, -0.2145201, 0.836368, 14.581869, 12.449514, -8.129074, 0
893, 2238239885, -0.533048, 0.052584283, -0.2242836, 0.81412077, 14.013882, 26.723274, -19.172142, 0
894, 2238256552, -0.5242207, -0.00212947, -0.26868278, 0.80808353, 17.3409, 48.30028, -8.627532, 0
895, 2238273219, -0.521568, -0.03874874, -0.28184012, 0.80438346, 28.26107, 2.7866309, 43.408016, 0
897, 2238306553, -0.53776, -0.06693258, -0.28116158, 0.79201245, 3.1045465, 2.9006572, 5.518755, 0
898, 2238323220, -0.54168487, -0.073536254, -0.28211126, 0.78840625, 1.9782124, 0.674685, 2.5070925, 0
899, 2238339887, -0.5452936, -0.07906152, -0.28397417, 0.7847065, -2.3919804, 0.26994026, 0.31542778, 0
903, 2238406555, -0.5500924, -0.16369441, -0.33678788, 0.74644345, -3.213464, -3.5622766, 1.4210567, 0
905, 2238439889, -0.5327544, -0.30167502, -0.40927798, 0.6765042, -5.383123, -10.097728, 5.3216114, 0
906, 2238456556, -0.5211151, -0.39756885, -0.43788365, 0.6153351, -13.299932, -14.391299, 13.855843, 0
907, 2238473223, -0.51069885, -0.47897625, -0.4696156, 0.53780204, -26.574978, -30.680014, 39.316566, 0
909, 2238506557, -0.4552113, -0.5883578, -0.477542, 0.46751767, -62.321934, -29.234375, 47.308857, 0
910, 2238523224, -0.41961226, -0.5973372, -0.5009445, 0.46494085, -1.8227723, -16.017916, -6.026662, 0
911, 2238539891, -0.40690303, -0.6093028, -0.5293943, 0.427695, -11.674845, -33.29546, -2.4739666, 0
913, 2238573225, -0.4038577, -0.6272146, -0.5352278, 0.39627415, -19.624731, -31.95505, -21.185167, 0
914, 2238589892, -0.41345948, -0.62648106, -0.52640533, 0.39933866, -16.245243, -23.7246, -23.310474, 0
917, 2238639893, -0.44496807, -0.595646, -0.47078988, 0.47493955, -10.486679, -3.8675716, -18.025898, 0
918, 2238656560, -0.44728047, -0.5753145, -0.45523474, 0.5115822, -9.644801, -1.0037001, -15.311413, 0
919, 2238673227, -0.4424597, -0.5509519, -0.4446511, 0.55042535, -9.042504, 1.8487264, -13.310684, 0
921, 2238706561, -0.41817245, -0.4847751, -0.44066057, 0.62924135, -6.3315334, 2.2560928, -6.0006456, 0
922, 2238723228, -0.40107518, -0.4461908, -0.44124508, 0.6673504, -2.2391505, 1.4947388, -3.157136, 0
924, 2238756562, -0.3611391, -0.36413687, -0.43665066, 0.7391349, 7.048043, 5.6994405, 0.79102135, 0
925, 2238773229, -0.341364, -0.32842934, -0.42582154, 0.77089703, 11.070701, 8.64895, 3.7284813, 0
926, 2238789896, -0.34096968, -0.31435037, -0.39210197, 0.794469, 45.22201, -2.2652242, 5.0803194, 0
928, 2238823230, -0.32518274, -0.2717081, -0.33789986, 0.8403904, 1.3101258, 34.33788, -4.6131353, 0
929, 2238839897, -0.2838242, -0.26335192, -0.33580613, 0.85867643, 8.237233, 20.021328, 1.2751055, 0
933, 2238906565, -0.16702896, -0.21839662, -0.33457, 0.9013704, 3.4957533, 1.6691244, -2.947425, 0
934, 2238923232, -0.16903546, -0.20955922, -0.3271307, 0.90581393, 3.514775, 5.438983, -7.998332, 0
936, 2238956566, -0.1954475, -0.24775445, -0.2987671, 0.900643, 49.366695, 0.6476802, 31.76744, 0
937, 2238973233, -0.22351645, -0.24960028, -0.2890232, 0.89677596, 8.814076, -14.493037, 0.30920792, 0
938, 2238989900, -0.2458163, -0.24931142, -0.28373072, 0.8927018, -0.43448764, 1.0733879, -0.23770332, 0
940, 2239023234, -0.24953032, -0.2518232, -0.29083577, 0.8886707, 1.2374651, -2.7517343, 0.58068466, 0
941, 2239039901, -0.25005448, -0.2514928, -0.29415828, 0.8875226, 3.9395692, -0.7192107, 1.8594561, 0
942, 2239056568, -0.25134933, -0.24976395, -0.2960421, 0.8870186, -0.5161579, 4.0591903, 4.4442425, 0
944, 2239089902, -0.26184642, -0.24189487, -0.28292656, 0.8904365, -4.623227, -8.553438, -5.3932304, 0
946, 2239123236, -0.27399275, -0.23934576, -0.27033535, 0.891382, -2.0102494, -1.1849747, 0.40839005, 0
949, 2239173237, -0.2842368, -0.24003795, -0.25980613, 0.891119, -2.3635285, -3.8829684, -1.1310997, 0
951, 2239206571, -0.29093742, -0.24290243, -0.25929573, 0.8883248, -1.9692752, 0.38581282, 1.1513901, 0
952, 2239223238, -0.29458958, -0.24466974, -0.26039666, 0.8863118, -1.2563102, 0.66056794, -0.06594467, 0
953, 2239239905, -0.30120608, -0.24670815, -0.26315668, 0.88270026, 2.1395173, 0.016614892, 1.6749926, 0
955, 2239273239, -0.33235148, -0.24111985, -0.2705582, 0.8707487, -0.78820807, 2.2499478, -0.8832693, 0
956, 2239289906, -0.35844532, -0.2293454, -0.27399865, 0.86246395, -2.6883345, -1.2981803, -2.6360526, 0
957, 2239306573, -0.38660666, -0.2124051, -0.2725559, 0.855064, -6.2418995, 2.7755346, -2.6540084, 0
959, 2239339907, -0.4223139, -0.17174199, -0.25876713, 0.85158485, 0.7154539, -4.944301, -1.2092705, 0
961, 2239373241, -0.42679614, -0.13880152, -0.24972677, 0.85803103, -1.6184908, -8.382119, 0.35315228, 0
963, 2239406575, -0.41652393, -0.1352567, -0.26774836, 0.8582106, -5.2881284, -0.9637568, 3.466216, 0
965, 2239439909, -0.41362283, -0.13367492, -0.28385526, 0.85467803, -1.2037212, -2.0510764, -3.856153, 0
967, 2239473243, -0.41261703, -0.11231353, -0.28094038, 0.8591897, 0.72059965, -3.1077077, -4.351272, 0
968, 2239489910, -0.41013157, -0.10478822, -0.27973738, 0.861719, -0.3705589, 0.044255063, -2.294128, 0
969, 2239506577, -0.40914768, -0.097536966, -0.27707598, 0.86389506, 2.2391005, 1.5382209, 5.238847, 0
971, 2239539911, -0.40581855, -0.089465514, -0.27857366, 0.8658552, 1.5333483, 0.5232789, -0.10676193, 0
972, 2239556578, -0.4038293, -0.085938334, -0.2812884, 0.86626494, 2.990226, 1.6428187, 0.61082935, 0
974, 2239589912, -0.39990565, -0.07932533, -0.28374806, 0.8679122, 2.4343266, 3.801452, 1.5282488, 0
976, 2239623246, -0.39740348, -0.07688248, -0.28339562, 0.86939526, 4.5351934, 5.4802704, -0.80382824, 0
978, 2239656580, -0.3957893, -0.07341516, -0.28539872, 0.86977583, 3.3699195, 2.8042734, -3.9112377, 0
979, 2239673247, -0.39490843, -0.07186249, -0.28706533, 0.8697575, 4.768882, 4.0704775, -0.7983446, 0
982, 2239723248, -0.39356992, -0.07362244, -0.2882376, 0.86982924, 2.5938082, 3.7291992, -2.0813942, 0
983, 2239739915, -0.39359957, -0.07572971, -0.28725213, 0.86996084, 2.6465871, 2.8422146, -1.4920712, 0
984, 2239756582, -0.3938005, -0.07734542, -0.28489602, 0.87050253, 0.1816079, 0.5118506, -0.61316395, 0
986, 2239789916, -0.3946331, -0.07947506, -0.2768421, 0.8725298, 3.054726, -0.15816794, 15.439045, 0
987, 2239806583, -0.3955858, -0.080954924, -0.27605745, 0.8722109, -6.428461, -2.0608191, -5.368749, 0
988, 2239823250, -0.3967859, -0.08341952, -0.27521023, 0.87170124, 10.467716, 6.4761124, -1.9759893, 0
991, 2239873251, -0.3946766, -0.084960915, -0.27101263, 0.8738224, 0.28695554, -1.0784103, 1.6029024, 0
992, 2239889918, -0.39484963, -0.086018294, -0.2697242, 0.87403935, 0.62880576, 1.0018307, -0.3076439, 0
994, 2239923252, -0.39309853, -0.08651359, -0.2689485, 0.8750184, -0.38752174, -2.0768833, 0.2558756, 0
995, 2239939919, -0.39200976, -0.08571033, -0.26949447, 0.8754177, 0.49370447, -0.64653635, -0.23082066, 0
996, 2239956586, -0.39117283, -0.084537394, -0.26992095, 0.87577474, -0.36341614, -0.9346994, 0.0033636093, 0
998, 2239989920, -0.38920635, -0.083555244, -0.27184695, 0.87614924, 0.7932758, -0.29325277, -1.277708, 0
999, 2240006587, -0.38861817, -0.0830525, -0.2718167, 0.87646765, -0.3159876, -1.5288463, -0.7980337, 0
1000, 2240023254, -0.38857245, -0.0825087, -0.2713652, 0.8766791, -0.600419, -1.1849524, -0.44876862, 0
1002, 2240056588, -0.38867298, -0.08205725, -0.27122545, 0.8767201, 0.33670864, -0.43188527, 0.39251328, 0
1003, 2240073255, -0.389307, -0.081782475, -0.2689927, 0.8771523, -0.9209998, -2.2810297, -0.06293297, 0
1006, 2240123256, -0.39220446, -0.0807741, -0.26271486, 0.87785745, -3.1550884, -4.620026, -2.991571, 0
1007, 2240139923, -0.39363804, -0.08319206, -0.26058504, 0.8776247, 5.91353, 7.1893477, 4.314436, 0
1009, 2240173257, -0.3956921, -0.086615905, -0.25725675, 0.8773516, -1.5975721, -1.846232, -0.9944639, 0
1011, 2240206591, -0.3967448, -0.09105391, -0.25476202, 0.8771548, -4.2710524, 0.7978, -2.1370645, 0
1013, 2240239925, -0.39375734, -0.09040486, -0.2534472, 0.8789471, -0.54765683, 0.62034, 1.8214874, 0
1014, 2240256592, -0.39242855, -0.09159343, -0.25357568, 0.87938124, 1.4850693, 1.7433877, 1.4905462, 0
1015, 2240273259, -0.390548, -0.09238808, -0.25412345, 0.87997687, -1.3942322, -3.040782, -0.44911003, 0
1017, 2240306593, -0.38679448, -0.09747822, -0.2595915, 0.8794893, -3.7467291, -2.174765, 0.6405401, 0
1018, 2240323260, -0.38578007, -0.10130577, -0.26258436, 0.8786136, -6.439281, -3.298977, -1.363513, 0
1021, 2240373261, -0.38273764, -0.10851334, -0.26736972, 0.8776398, -5.335668, -3.8368716, 1.5017719, 0
1022, 2240389928, -0.38094267, -0.108636305, -0.26879814, 0.87796915, -6.735814, -5.853245, -0.09730339, 0
1023, 2240406595, -0.38036495, -0.110653356, -0.27046824, 0.87745464, -3.1728463, -5.1570396, 3.7691507, 0
1025, 2240439929, -0.3814276, -0.11804882, -0.2766774, 0.8740872, -5.235594, -5.689324, -0.4902897, 0
1027, 2240473263, -0.38428217, -0.1255552, -0.28514406, 0.8690555, -5.504959, -6.0991597, -3.7271738, 0
1029, 2240506597, -0.38171342, -0.13399191, -0.28932452, 0.86754465, -0.93414146, -2.0482688, -4.3625803, 0
1030, 2240523264, -0.3822248, -0.13167036, -0.28543445, 0.86896247, 1.2521563, 1.4028256, 10.085173, 0
1032, 2240556598, -0.37985662, -0.104995966, -0.27132958, 0.87810385, -3.9014657, -4.6738987, -12.182747, 0
1033, 2240573265, -0.37903544, -0.10166931, -0.2702647, 0.87917775, 4.146757, 3.927448, 2.833558, 0
1036, 2240623266, -0.37316433, -0.08605491, -0.26928192, 0.8836469, 3.72162, 4.9853196, 2.7822409, 0
1037, 2240639933, -0.3714381, -0.082565926, -0.27218232, 0.88381845, 3.8431756, 6.144138, 1.6398077, 0
1038, 2240656600, -0.3688187, -0.08049132, -0.276188, 0.883864, 6.2764564, 7.782832, 3.163846, 0
1040, 2240689934, -0.3617797, -0.073621824, -0.28716812, 0.88387287, 6.477423, 3.4581013, 0.8615923, 0
1041, 2240706601, -0.35860234, -0.06990101, -0.29151174, 0.88404775, 5.2342477, 3.3573358, 0.39592934, 0
1044, 2240756602, -0.35089433, -0.06916748, -0.2984369, 0.8848875, 3.5550861, 2.0524724, 0.16278744, 0
1045, 2240773269, -0.35035205, -0.07038255, -0.29784593, 0.8852057, 4.1705203, 2.5998614, -0.6196785, 0
1046, 2240789936, -0.35021278, -0.07198927, -0.29662958, 0.8855398, 5.543042, 3.9102576, -1.4665537, 0
1048, 2240823270, -0.3509993, -0.07835631, -0.29240564, 0.8860924, 3.7465389, 1.3624239, 1.2302103, 0
1050, 2240856604, -0.35303068, -0.08471842, -0.28707594, 0.8864428, 3.1900886E-4, 1.3533208, -3.429957, 0
1052, 2240889938, -0.35465652, -0.08764824, -0.2827642, 0.8868948, 2.5194368, 0.5702301, 2.2751684, 0
1053, 2240906605, -0.35474965, -0.08842125, -0.28223017, 0.8869509, 3.3895535, 0.48196545, 2.0711489, 0
1055, 2240939939, -0.35505792, -0.0893665, -0.28264678, 0.8866001, 1.1323198, -0.03593468, -1.0748653, 0
1056, 2240956606, -0.3552686, -0.08912199, -0.28308865, 0.8863993, -1.0585217, -1.0545288, -1.4364796, 0
1057, 2240973273, -0.35561153, -0.0886035, -0.2833814, 0.88622016, -0.48007247, -1.3849111, -1.7560368, 0
1060, 2241023274, -0.35945964, -0.08632765, -0.2803114, 0.88586867, 1.1544248, 0.1950438, -0.73763657, 0
1061, 2241039941, -0.36181235, -0.08669877, -0.2780399, 0.8855904, 1.5683023, 0.4494266, 0.009984016, 0
1063, 2241073275, -0.3675617, -0.08793133, -0.2714014, 0.88516057, 0.90721107, -0.37993655, -0.8876858, 0
1065, 2241106609, -0.3736667, -0.08992943, -0.26382157, 0.884695, 1.2037948, 0.49436206, 0.16755295, 0
1067, 2241139943, -0.37898436, -0.09204715, -0.25723636, 0.88415444, 1.247707, 0.3208801, 0.32463455, 0
1068, 2241156610, -0.38097054, -0.092735045, -0.25472444, 0.88395625, -0.49862012, -0.47987518, -0.59629154, 0
1069, 2241173277, -0.38256082, -0.09363623, -0.2526193, 0.8837784, -0.35198352, 0.17396961, -0.5954695, 0
1071, 2241206611, -0.3839111, -0.09579248, -0.24991354, 0.8837311, -1.0019388, 2.0582902, -0.5329132, 0
1072, 2241223278, -0.38364127, -0.09661612, -0.24907954, 0.88399416, -1.078069, 0.75040734, -0.18915462, 0
1073, 2241239945, -0.38295805, -0.096835524, -0.24816355, 0.8845238, -2.0764296, 0.07753145, 0.854125, 0
1075, 2241273279, -0.38095048, -0.09851594, -0.24716778, 0.88548344, -2.075652, -0.10330372, 0.21262741, 0
1076, 2241289946, -0.37975672, -0.09957594, -0.24701379, 0.8859206, -1.6635346, -0.49241313, 0.015089989, 0
1077, 2241306613, -0.37866148, -0.10092933, -0.24720056, 0.8861839, -2.152691, -1.3738054, -0.31440735, 0
1080, 2241356614, -0.37568212, -0.10459069, -0.24700068, 0.8870827, -4.2002983, -3.0589306, -1.2729607, 0
1081, 2241373281, -0.37489977, -0.10544504, -0.24805883, 0.88701725, -2.3682404, -2.415014, -0.42374516, 0
1083, 2241406615, -0.3732623, -0.10710401, -0.25189954, 0.8864265, -2.172415, -2.3788512, 2.141656, 0
1084, 2241423282, -0.37472045, -0.1122431, -0.25387087, 0.8846113, -5.0210643, -3.5217023, -1.756053, 0
1086, 2241456616, -0.37761924, -0.11854355, -0.25330848, 0.8827159, -6.60576, -0.4301662, -3.00673, 0
1087, 2241473283, -0.37351975, -0.11186248, -0.25167164, 0.88579494, -6.4359884, -6.9884, -1.3078642, 0
1090, 2241523284, -0.37044057, -0.11806939, -0.25607553, 0.88501996, -5.208315, -3.6076121, 3.258152, 0
1091, 2241539951, -0.37213057, -0.1267807, -0.26456803, 0.8805969, -2.7802625, -1.3703517, -2.8291974, 0
1092, 2241556618, -0.37459195, -0.13275272, -0.27042058, 0.87688756, -3.01505, -1.4311134, -4.5903754, 0
1095, 2241606619, -0.36184612, -0.10763861, -0.2729639, 0.8848579, -2.6031268, -1.3840308, -1.3237209, 0
1096, 2241623286, -0.35651544, -0.09882014, -0.2763108, 0.88700914, -3.0416243, 4.2086363, 4.524849, 0
1098, 2241656620, -0.34471816, -0.08041256, -0.29067516, 0.8889389, 2.2893336, 2.3299577, 0.89282894, 0
1099, 2241673287, -0.33954775, -0.069352135, -0.29938617, 0.88896954, 0.8848673, 1.9661909, -2.491046, 0
1100, 2241689954, -0.33215952, -0.058798432, -0.3070408, 0.88991016, 1.2576215, -1.9014784, -1.5795097, 0
1102, 2241723288, -0.32313928, -0.05072633, -0.31794724, 0.8898981, 6.2427635, 2.4040425, 5.709256, 0
1103, 2241739955, -0.31952313, -0.043418825, -0.32297736, 0.88977903, 7.6482735, 4.513642, 1.0030508, 0
1106, 2241789956, -0.31680822, -0.024268238, -0.3239638, 0.8911187, 10.285563, 1.0447792, 0.3031845, 0
1107, 2241806623, -0.3202814, -0.018425694, -0.31983894, 0.891507, 10.039789, 0.38129517, -2.520523, 0
1110, 2241856624, -0.33669677, -0.002120044, -0.3138421, 0.88776994, 3.9650679, 3.7711477, 0.07683468, 0
1111, 2241873291, -0.3413772, 8.3858706E-4, -0.31250754, 0.8864543, 3.489915, 3.03678, -0.014245987, 0
1113, 2241906625, -0.35090736, 0.003449278, -0.30877092, 0.88403285, 2.5294442, 0.70674956, -1.0412321, 0
1114, 2241923292, -0.3557886, 0.0050471006, -0.30735034, 0.8825679, 0.89307845, 0.2915657, 2.1630087, 0
1115, 2241939959, -0.36272112, 0.0073092617, -0.30676913, 0.8799284, 4.9838552, -3.6221564, -0.04208851, 0
1117, 2241973293, -0.3966825, 0.014151611, -0.30557877, 0.8654859, 4.4010096, -4.745187, -3.4835134, 0
1118, 2241989960, -0.42086542, 0.017564634, -0.30642596, 0.8536207, 3.0659778, -2.4876292, -2.153656, 0
1119, 2242006627, -0.44783622, 0.022750659, -0.30842867, 0.8389269, 4.6068497, -1.7277372, -2.7371693, 0
1122, 2242056628, -0.5133008, 0.032000534, -0.32322133, 0.79437256, -7.7250977, 7.901832, 0.3237524, 0
1125, 2242106629, -0.52469224, 0.022178035, -0.3379532, 0.7810221, -3.4171762, 1.269373, -3.1783671, 0
1126, 2242123296, -0.52403307, 0.01659603, -0.34366274, 0.7791093, 1.289732, 1.2378896, -1.9660678, 0
1127, 2242139963, -0.52176595, 0.013676327, -0.35153908, 0.7771712, 0.6348538, -1.0947243, -0.015147209, 0
1129, 2242173297, -0.50883514, 0.014954193, -0.38948974, 0.7675691, 3.3679147, -3.7324355, 2.0718174, 0
1130, 2242189964, -0.49873012, 0.015858497, -0.42182574, 0.75702137, 6.2341795, -7.651011, 1.6356468, 0
1131, 2242206631, -0.48752218, 0.008554168, -0.45875925, 0.7428259, 0.41884404, -9.624444, -3.29662, 0
1133, 2242239965, -0.42848963, -0.020520104, -0.55960727, 0.70909566, -13.266067, 2.8646266, 17.381021, 0
1134, 2242256632, -0.3791564, -0.059566595, -0.56690025, 0.7289154, -20.657549, 1.7556425, 21.999924, 0
1136, 2242289966, -0.31646082, -0.18099713, -0.50409627, 0.78293097, 10.923429, -46.865414, 4.3980837, 0
1140, 2242356634, -0.44416058, -0.16204156, -0.31942385, 0.82123905, -2.4546642, 27.436892, 2.533554, 0
1141, 2242373301, -0.4603033, -0.13443893, -0.29292983, 0.8271882, 2.7037632, 35.68687, -10.237034, 0
1142, 2242389968, -0.44923794, -0.118256435, -0.293862, 0.8353724, 6.373815, 38.953747, -19.26804, 0
1144, 2242423302, -0.39966562, -0.13767299, -0.30504978, 0.8533813, 28.988474, 22.769924, -11.923225, 0
1145, 2242439969, -0.3886106, -0.163401, -0.31031588, 0.85204905, 32.051365, 11.068996, -3.2624745, 0
1146, 2242456636, -0.39244586, -0.18863724, -0.31518662, 0.84324443, 25.695265, 8.136137, -6.45647, 0
1148, 2242489970, -0.3995989, -0.20786096, -0.31562358, 0.8351633, 3.0411954, -0.40640473, -1.9206991, 0
1149, 2242506637, -0.39401063, -0.2194742, -0.32008243, 0.8331478, -7.4011664, 1.2605301, -1.3271942, 0
1150, 2242523304, -0.3912403, -0.23009759, -0.3248401, 0.82973886, 2.6589525, 2.5186346, -0.05337906, 0
1152, 2242556638, -0.3969265, -0.24345727, -0.32466263, 0.8232699, -0.7411004, -1.3632135, 0.19092846, 0
1154, 2242589972, -0.4029922, -0.2708634, -0.33307588, 0.80826485, -3.0626798, -1.3270262, 1.0298567, 0
1156, 2242623306, -0.4051678, -0.33605844, -0.34914872, 0.7752421, -2.851264, -1.7205875, 0.29640007, 0
1157, 2242639973, -0.40522033, -0.38545188, -0.3552029, 0.7490365, -4.5510387, -3.7516177, 1.9545364, 0
1158, 2242656640, -0.4044068, -0.44573388, -0.35925716, 0.7132406, -3.059199, -3.1365662, 2.7360678, 0
1160, 2242689974, -0.39514565, -0.57179487, -0.38725007, 0.60576344, -13.044253, -12.461793, 19.365837, 0
1161, 2242706641, -0.3966214, -0.61621445, -0.41360036, 0.5402844, -19.148855, -9.786557, 18.133549, 0
1162, 2242723308, -0.39896506, -0.64168847, -0.4295735, 0.49450046, -52.88683, -15.933259, 36.592316, 0
1164, 2242756642, -0.33378762, -0.6803257, -0.42047584, 0.498943, 9.885837, 2.3362834, 1.220437, 0
1165, 2242773309, -0.32338855, -0.6985354, -0.42664087, 0.4748127, -0.6458539, -4.976444, 3.231761, 0
1169, 2242839977, -0.31413865, -0.73998964, -0.44643295, 0.39297765, -13.847101, -11.360583, -8.957175, 0
1171, 2242873311, -0.3388744, -0.74705, -0.43903553, 0.36651024, -10.219926, -10.992453, -12.983856, 0
1172, 2242889978, -0.36220467, -0.7416282, -0.43565795, 0.35916427, -10.771127, -8.9355545, -12.999415, 0
1173, 2242906645, -0.385368, -0.73375964, -0.42831334, 0.3600522, -8.462497, -4.7115855, -13.831785, 0
1175, 2242939979, -0.42046657, -0.7236067, -0.40034568, 0.37326378, -4.4383035, -0.33207187, -14.550879, 0
1176, 2242956646, -0.43274164, -0.7192337, -0.38648057, 0.38219306, -6.4207907, -1.4274224, -14.075048, 0
1177, 2242973313, -0.4424296, -0.7105424, -0.37832814, 0.3952905, -9.372789, -2.4509876, -13.602091, 0
1179, 2243006647, -0.44810396, -0.6808002, -0.37849474, 0.4386993, -7.7160606, -3.5968442, -12.477264, 0
1180, 2243023314, -0.44741338, -0.6588158, -0.38619798, 0.46544126, -4.1970434, -4.2483788, -11.632879, 0
1181, 2243039981, -0.4465331, -0.63432616, -0.39670774, 0.49077776, -1.5382816, -4.07229, -11.2839575, 0
1185, 2243106649, -0.446715, -0.51506436, -0.41928634, 0.59946203, -3.3046331, -11.256256, -0.6383152, 0
1187, 2243139983, -0.4602211, -0.43543944, -0.39902183, 0.6628514, -5.9929338, 0.023492329, 6.8972054, 0
1188, 2243156650, -0.45944604, -0.3957843, -0.38532922, 0.6955479, -2.898523, 5.132773, 5.5484285, 0
1189, 2243173317, -0.44971657, -0.35806972, -0.37765238, 0.72589326, -0.8746473, 8.822355, 9.396694, 0
1191, 2243206651, -0.40658745, -0.2899441, -0.37098408, 0.7829375, 9.4078665, 8.508253, 11.687218, 0
1192, 2243223318, -0.38188732, -0.25968945, -0.368562, 0.80677557, 13.546206, 7.326687, 10.396351, 0
1194, 2243256652, -0.34588504, -0.20746794, -0.35806322, 0.84208834, 20.753744, 4.186395, 6.7053833, 0
1195, 2243273319, -0.3402812, -0.18404587, -0.34966856, 0.8532696, 21.89944, 6.417091, 4.8052034, 0
1196, 2243289986, -0.34237522, -0.16469443, -0.338284, 0.86094147, 23.287695, 8.760505, -1.2581205, 0
1199, 2243339987, -0.37152767, -0.13796456, -0.31260794, 0.86325586, 23.259804, 13.35202, -6.856595, 0
1202, 2243389988, -0.41203618, -0.18177447, -0.29378796, 0.8431335, 26.505766, 8.231429, -8.4165745, 0
1203, 2243406655, -0.4273391, -0.2126281, -0.29229417, 0.8286953, 25.961695, 8.634793, -8.014217, 0
1204, 2243423322, -0.43134078, -0.2321071, -0.3045823, 0.8168858, 31.74043, 25.050367, 26.72789, 0
1206, 2243456656, -0.40915194, -0.23843843, -0.33301723, 0.81537884, -6.6518116, 6.4744115, -2.727542, 0
1207, 2243473323, -0.41079658, -0.23985556, -0.34028614, 0.8111241, -2.632997, 2.9855833, -0.14045429, 0
1208, 2243489990, -0.41896182, -0.24200888, -0.34313354, 0.805086, -0.7553159, -0.6265101, 0.6467123, 0
1210, 2243523324, -0.42178917, -0.25494915, -0.35708955, 0.7934627, -1.6862118, -0.7356791, 0.29466248, 0
1211, 2243539991, -0.42272046, -0.2694744, -0.36528534, 0.78438437, -3.3450608, -0.47677588, 0.82130814, 0
1214, 2243589992, -0.42034435, -0.38206506, -0.3913965, 0.72398007, -6.837762, -5.017508, 4.3134575, 0
1215, 2243606659, -0.41671807, -0.45078838, -0.39961067, 0.6807706, -6.7872972, -6.272051, 8.227188, 0
1218, 2243656660, -0.42030984, -0.61709166, -0.45870957, 0.4817929, -40.88396, -15.612813, 39.06362, 0
1219, 2243673327, -0.40355393, -0.64069396, -0.44829977, 0.47506225, -40.668938, -4.437275, 30.413166, 0
1221, 2243706661, -0.3958867, -0.66097033, -0.44427392, 0.4571806, 3.3796082, 0.046231866, 4.15117, 0
1222, 2243723328, -0.4005138, -0.6796141, -0.4359983, 0.4331517, -21.93122, -7.048389, 6.9949226, 0
1223, 2243739995, -0.3979073, -0.70032704, -0.4241316, 0.41391498, -16.635433, -8.068065, -2.7848015, 0
1225, 2243773329, -0.39142615, -0.73590165, -0.40994933, 0.3703746, -20.066292, -10.896416, -9.965658, 0
1226, 2243789996, -0.3890912, -0.74934715, -0.40367335, 0.35232964, -16.32333, -9.560763, -14.344181, 0
1229, 2243839997, -0.39932114, -0.76601744, -0.38696474, 0.32252064, -10.713545, -4.7988086, -17.367498, 0
1230, 2243856664, -0.40312535, -0.76660395, -0.3799478, 0.32472983, -7.0554156, -2.4032338, -17.179628, 0
1231, 2243873331, -0.406197, -0.76559156, -0.3731914, 0.33106315, -7.507373, -2.0754473, -16.348705, 0
1233, 2243906665, -0.41228473, -0.7517283, -0.36390412, 0.36400694, -8.585308, -2.9769642, -14.831961, 0
1234, 2243923332, -0.41631007, -0.73662823, -0.36313137, 0.39013064, -8.4093685, -3.2975535, -13.513119, 0
1235, 2243939999, -0.42050102, -0.71596473, -0.36443338, 0.42161945, -5.6047897, -3.0882196, -12.601456, 0
1237, 2243973333, -0.43487167, -0.6608757, -0.3748206, 0.48336408, -3.559153, -5.0652413, -9.133968, 0
1238, 2243990000, -0.44324046, -0.6268659, -0.38162768, 0.51472193, -3.8356597, -4.9979296, -7.4214363, 0
1239, 2244006667, -0.45036507, -0.59099084, -0.38855442, 0.5449111, -2.1244893, -6.024065, -6.375088, 0
1241, 2244040001, -0.46604645, -0.5118774, -0.39373866, 0.6047755, -3.3229332, -6.335682, 2.0997171, 0
1243, 2244073335, -0.47973406, -0.42412648, -0.38895163, 0.66233665, -3.8423147, -0.30342063, 7.658821, 0
1245, 2244106669, -0.46996868, -0.33626118, -0.39030293, 0.7167446, 2.7761295, 2.6766434, 9.584465, 0
1248, 2244156670, -0.42919347, -0.21615286, -0.38131136, 0.78973025, 8.583736, 6.7969255, 10.861008, 0
1249, 2244173337, -0.4109815, -0.18279515, -0.3728686, 0.8115728, 9.41553, 8.319054, 8.3917885, 0
1250, 2244190004, -0.3910241, -0.15302974, -0.36489353, 0.830985, 11.248438, 7.0412316, 7.586979, 0
1252, 2244223338, -0.35452244, -0.10017851, -0.35170367, 0.86057204, 12.783514, 5.6117654, 2.928607, 0
1253, 2244240005, -0.34117648, -0.07833803, -0.3469634, 0.8701031, 13.063118, 5.0365996, 1.4145308, 0
1254, 2244256672, -0.33158574, -0.058862336, -0.34321213, 0.8768081, 13.014766, 4.152412, 0.34269524, 0
1256, 2244290006, -0.32201758, -0.028091779, -0.3376926, 0.88401383, 12.758917, 4.1840196, -1.858223, 0
1258, 2244323340, -0.32234704, -0.0060209148, -0.32619092, 0.8886264, 11.162384, 5.178841, -4.088596, 0
1260, 2244356674, -0.32115802, 0.0020899652, -0.31415033, 0.89340025, 8.752808, 5.804397, -4.6079693, 0
1261, 2244373341, -0.31823152, 0.0010833377, -0.3088015, 0.8963094, 8.6090555, 4.5091233, -3.8879218, 0
1264, 2244423342, -0.31452432, -0.0041972175, -0.2960888, 0.9018811, 9.180329, 3.145218, -3.3438787, 0
1265, 2244440009, -0.3180333, -0.0066630067, -0.29177812, 0.90204054, 8.713435, 3.038947, -3.7577415, 0
1266, 2244456676, -0.32471758, -0.010114838, -0.2864504, 0.9013344, 8.860257, 2.7751033, -2.940713, 0
1268, 2244490010, -0.34380785, -0.01562529, -0.2759717, 0.8974368, 9.2236395, 3.9401848, -2.8183494, 0
1269, 2244506677, -0.3556019, -0.02031001, -0.27070928, 0.89434475, 8.672541, 7.255322, -6.301963, 0
1270, 2244523344, -0.36635035, -0.031444736, -0.26893443, 0.89021033, 11.832776, 10.751375, -9.920366, 0
1273, 2244573345, -0.34919995, -0.1163357, -0.28956604, 0.88356, 25.49771, -9.1497555, 40.585567, 0
1275, 2244606679, -0.3582219, -0.13909352, -0.28306246, 0.8787531, -0.5957267, -4.3686953, -0.13191509, 0
1276, 2244623346, -0.36560163, -0.15598935, -0.28375098, 0.8726336, 4.716728, -2.7683177, 4.1243677, 0
1277, 2244640013, -0.3680924, -0.17164688, -0.28943297, 0.8667613, 2.0096242, -2.531706, 1.088561, 0
1280, 2244690014, -0.36848545, -0.21048461, -0.31573004, 0.8486639, 1.020073, -0.42588377, -0.1837883, 0
1281, 2244706681, -0.3678688, -0.22206002, -0.32442105, 0.84268266, 0.63968337, 0.15615995, -0.2087555, 0
1283, 2244740015, -0.36625642, -0.2549999, -0.34853348, 0.82423115, -2.1940308, -1.9054792, 1.2310514, 0
1284, 2244756682, -0.3633597, -0.28506246, -0.3670829, 0.8074405, -4.418233, -3.7587361, 0.7123709, 0
1285, 2244773349, -0.36116183, -0.33083865, -0.38543892, 0.78201395, -5.6376376, -5.167571, 0.3693962, 0
1288, 2244823350, -0.3564147, -0.55361176, -0.42681867, 0.6199273, -21.687813, -8.616317, 24.020546, 0
1289, 2244840017, -0.35488915, -0.6207915, -0.426758, 0.55367005, -23.581163, -6.5819387, 26.551239, 0
1291, 2244873351, -0.32975736, -0.69044244, -0.4001549, 0.50440717, -51.09009, -6.907287, 10.543007, 0
1292, 2244890018, -0.31478333, -0.7154066, -0.3862371, 0.48982325, -17.179127, -18.18011, -13.2381935, 0
1293, 2244906685, -0.32126504, -0.725625, -0.39709663, 0.4610561, -37.08616, -17.103476, -11.266464, 0
1296, 2244956686, -0.3181911, -0.7125421, -0.40629834, 0.4753536, -20.698143, -14.988991, -19.024464, 0
1298, 2244990020, -0.32497984, -0.665959, -0.40481105, 0.53573895, -18.268604, -4.523136, -11.010288, 0
1299, 2245006687, -0.31974328, -0.63556314, -0.39572862, 0.5807098, -13.105307, -3.990256, -8.18746, 0
1300, 2245023354, -0.31510857, -0.5979777, -0.38801932, 0.6265554, -9.406263, -2.4613147, -5.332435, 0
1303, 2245073355, -0.2789579, -0.45856982, -0.36524945, 0.7605855, 0.8627595, 8.113905, 0.57013416, 0
1304, 2245090022, -0.25508597, -0.4122055, -0.36340666, 0.79558456, 4.0721154, 11.124118, 4.536647, 0
1306, 2245123356, -0.18471399, -0.33738983, -0.36004, 0.8499537, 15.753397, 12.464554, 3.0253153, 0
1307, 2245140023, -0.14324704, -0.31298846, -0.35948393, 0.8673471, 21.74983, 9.906005, 0.0913105, 0
1308, 2245156690, -0.10702245, -0.29907885, -0.35928234, 0.8775053, 26.262949, 4.443998, -3.7994256, 0
1310, 2245190024, -0.075358585, -0.2842723, -0.34616706, 0.8908872, 24.345121, -0.73624206, 4.068245, 0
1311, 2245206691, -0.076774135, -0.2748066, -0.33764187, 0.8969874, 20.79988, 4.1344156, -3.8046517, 0
1312, 2245223358, -0.08111477, -0.27047113, -0.32940745, 0.90097594, 16.887781, 6.191921, -3.8089757, 0
1314, 2245256692, -0.084933266, -0.2709966, -0.32024145, 0.90376645, 7.462945, 4.6256084, -7.813484, 0
1315, 2245273359, -0.087408766, -0.277385, -0.3169081, 0.9027666, 4.073364, 2.6673515, -5.888718, 0
1318, 2245323360, -0.119827315, -0.26512185, -0.29756695, 0.90928924, 0.50569594, -2.7538524, 1.3814783, 0
1319, 2245340027, -0.12281725, -0.26181856, -0.29839146, 0.90957725, 2.216392, 0.06493554, 1.3232851, 0
1320, 2245356694, -0.11896794, -0.26376137, -0.30274668, 0.9080871, -3.6934202, 0.60170984, -1.1084423, 0
1322, 2245390028, -0.112331994, -0.2678494, -0.31216595, 0.90453947, 1.3059322, -1.1195083, 1.0967779, 0
1323, 2245406695, -0.11390823, -0.26496238, -0.31442404, 0.9044106, -1.2668447, 2.2565901, 1.7423086, 0
1326, 2245456696, -0.1321705, -0.2585954, -0.300449, 0.9085103, -0.006980114, -2.1418543, 2.9263477, 0
1327, 2245473363, -0.13926166, -0.25777942, -0.2934268, 0.90997684, -2.7036266, -0.5562196, -0.63870716, 0
1329, 2245506697, -0.15862533, -0.25989854, -0.27893308, 0.9107625, -1.4115925, -3.0460913, 0.8515434, 0
1330, 2245523364, -0.17272963, -0.26262033, -0.2724795, 0.9093686, -1.0076728, -3.3905342, 0.98042583, 0
1333, 2245573365, -0.2355023, -0.26553652, -0.27141187, 0.8946316, -1.7487451, -2.0342257, -0.066399574, 0
1334, 2245590032, -0.26359957, -0.26007026, -0.27638075, 0.88684464, -3.1443288, -2.2691479, -2.7428012, 0
1335, 2245606699, -0.29377016, -0.2526895, -0.28202125, 0.8776743, -3.7402933, -0.7236026, -2.6926126, 0
1337, 2245640033, -0.34753, -0.21908188, -0.2927454, 0.8634392, -3.2873766, -3.554851, -4.7305007, 0
1338, 2245656700, -0.36741042, -0.19921708, -0.2923663, 0.8601426, -1.273094, -3.0432124, -4.048282, 0
1339, 2245673367, -0.37743053, -0.17646673, -0.28927842, 0.8618148, 1.4659622, -4.5130816, -0.041707993, 0
1342, 2245723368, -0.3638669, -0.10963372, -0.2811043, 0.88122815, -9.005834, -4.112949, 0.091812134, 0
1343, 2245740035, -0.36716658, -0.11247634, -0.2805019, 0.8796918, -5.738426, -0.29369697, 10.266512, 0
1345, 2245773369, -0.37258166, -0.121229306, -0.28778768, 0.8738796, -4.4967923, -1.2464426, -9.199174, 0
1347, 2245806703, -0.37136164, -0.107361466, -0.28774402, 0.87622416, 2.1648583, -4.430189, -2.1501427, 0
1349, 2245840037, -0.3693581, -0.09256194, -0.2789912, 0.8815736, 3.03118, 3.5709698, 7.878483, 0
1350, 2245856704, -0.36978987, -0.0912343, -0.27757704, 0.88197726, 4.0315065, 3.4982834, 5.06824, 0
1351, 2245873371, -0.3706782, -0.09029875, -0.27615276, 0.8821477, 4.94285, -0.34048828, -3.552453, 0
1353, 2245906705, -0.3723979, -0.086719215, -0.26852068, 0.88413656, 2.8022552, -3.1302166, -1.7297335, 0
1354, 2245923372, -0.37380055, -0.08596415, -0.26464745, 0.884786, 4.1243415, 1.5138135, 3.8460217, 0
1356, 2245956706, -0.3783317, -0.087373376, -0.25809523, 0.88465774, 4.3141456, 5.312855, -1.3353605, 0
1358, 2245990040, -0.38288468, -0.088347, -0.25089926, 0.8846722, 3.7706165, 1.0231187, -0.0879364, 0
1360, 2246023374, -0.38708875, -0.09055458, -0.24379721, 0.88460517, 3.2857955, 4.200126, 0.29818344, 0
1362, 2246056708, -0.38944453, -0.09242951, -0.23920994, 0.8846297, 1.8481216, 2.2753878, -1.0553942, 0
1364, 2246090042, -0.38946134, -0.09405668, -0.23481026, 0.88562894, 1.4141606, 2.1661806, -0.268075, 0
1365, 2246106709, -0.38850352, -0.09495427, -0.23272695, 0.8865033, 0.6346232, 3.4422376, 0.5855131, 0
1366, 2246123376, -0.38698992, -0.09599325, -0.23181738, 0.8872915, 0.25791618, 3.129576, -0.2932825, 0
1368, 2246156710, -0.3819899, -0.09728281, -0.23119836, 0.8894764, 0.0052052815, 1.0600553, 0.0119485855, 0
1369, 2246173377, -0.3788617, -0.09798345, -0.23114991, 0.89074916, -0.069421895, 1.8378056, -0.3546667, 0
1370, 2246190044, -0.3752834, -0.0991405, -0.23213409, 0.89187926, 0.11628714, 2.9876428, -0.07811451, 0
1372, 2246223378, -0.3664915, -0.10093397, -0.23547024, 0.8944559, 0.12046711, 1.1568849, 0.6080332, 0
1374, 2246256712, -0.35761166, -0.10288031, -0.23931348, 0.8968054, -1.2032657, 0.7815807, -1.2899475, 0
1377, 2246306713, -0.343695, -0.10323886, -0.24355209, 0.9010544, -1.235809, -0.31381106, -0.27058887, 0
1379, 2246340047, -0.3364538, -0.10359153, -0.24553932, 0.9032051, 0.258715, 0.7034908, 0.13815403, 0
1380, 2246356714, -0.3332889, -0.10357194, -0.24649127, 0.9041209, 0.08894625, 0.015800243, -0.51658344, 0
1381, 2246373381, -0.33086678, -0.103582755, -0.24691235, 0.90489393, 1.53646, -1.527908, -0.21797371, 0
1383, 2246406715, -0.3269993, -0.103034265, -0.24729688, 0.90625656, -0.4855814, -0.614861, -0.20640182, 0
1384, 2246423382, -0.3253871, -0.10333837, -0.2482171, 0.9065506, -0.32441318, -0.9763075, -0.51452446, 0
1385, 2246440049, -0.32431877, -0.103604004, -0.24891509, 0.90671176, -0.17785808, -0.8756712, -0.338212, 0
1387, 2246473383, -0.32213154, -0.102922134, -0.2503964, 0.9071612, -0.5695659, -0.027579738, 0.23797989, 0
1388, 2246490050, -0.3207599, -0.10254882, -0.25206438, 0.9072274, -0.70693827, -1.4879172, -0.5878563, 0
1389, 2246506717, -0.31954956, -0.10218615, -0.25346553, 0.9073052, -0.026616873, -1.3083792, 0.028867722, 0
1392, 2246556718, -0.31655952, -0.10131192, -0.25881508, 0.90694106, -0.793942, -1.2422988, 0.3136387, 0
1393, 2246573385, -0.3163833, -0.10187513, -0.26100883, 0.9063105, -1.3665502, -1.2582961, -0.49393463, 0
1395, 2246606719, -0.31695133, -0.10360889, -0.2649781, 0.9047624, -3.5751953, -0.48612687, -0.19159603, 0
1396, 2246623386, -0.31795663, -0.105549864, -0.26641867, 0.90376157, -4.4088235, -0.8343854, -1.4648056, 0
1397, 2246640053, -0.31920248, -0.10727475, -0.26731786, 0.90285337, -4.94356, -2.4190161, -1.3227739, 0
1399, 2246673387, -0.32130918, -0.10974735, -0.26931703, 0.9012134, -5.1542416, -4.0877447, 0.9849577, 0
1400, 2246690054, -0.3215822, -0.11029927, -0.270316, 0.9007494, -5.774204, -3.9178154, 2.83364, 0
1401, 2246706721, -0.32231027, -0.1127623, -0.27317616, 0.8993202, -6.2563114, -2.9173806, 0.6960907, 0
1404, 2246756722, -0.32721978, -0.12425953, -0.28219974, 0.8932254, -4.636967, -3.3557448, 0.09630203, 0
1407, 2246806723, -0.3379726, -0.12862393, -0.285099, 0.8876656, -2.0826147, -1.3298461, 3.2066832, 0
1408, 2246823390, -0.3369924, -0.12585118, -0.28572214, 0.88823515, -3.902623, -3.1087165, -2.1252332, 0
1410, 2246856724, -0.3315821, -0.11170334, -0.28772092, 0.891512, 1.2811663, -2.06951, -3.0689101, 0
1411, 2246873391, -0.3288953, -0.10342628, -0.2866703, 0.8938414, -1.9895185, -1.7695223, -1.2345858, 0
1412, 2246890058, -0.32805067, -0.09667081, -0.28653523, 0.8949505, 3.512958, -2.1005845, 4.3216295, 0
1414, 2246923392, -0.3294931, -0.08949361, -0.29077488, 0.8937987, 6.489034, 0.4885853, -2.310968, 0
1415, 2246940059, -0.33089057, -0.08444142, -0.29070818, 0.89379585, 5.212769, -1.1985265, -1.6374254, 0
1416, 2246956726, -0.33302176, -0.080510184, -0.2912042, 0.89320546, 3.389664, -1.6850256, -2.586175, 0
1418, 2246990060, -0.33957937, -0.07882791, -0.2902752, 0.8911867, 8.6405, 4.1237965, 3.5973148, 0
1422, 2247056728, -0.352786, -0.079644084, -0.2834521, 0.8881751, 3.7980695, 0.9445452, -0.36917973, 0
1423, 2247073395, -0.35503712, -0.079496555, -0.28145233, 0.8879273, 4.406035, 1.7970372, 0.944685, 0
1424, 2247090062, -0.35693684, -0.079494156, -0.27934453, 0.8878315, 2.8375823, 2.2920015, 0.6435299, 0
1426, 2247123396, -0.35988754, -0.07934336, -0.2772224, 0.8873188, 2.1125712, 1.3390121, -1.8076344, 0
1427, 2247140063, -0.3610811, -0.07937467, -0.2757416, 0.88729256, 1.651301, 1.5653077, -0.92423725, 0
1428, 2247156730, -0.36195916, -0.07956549, -0.27392, 0.8874819, 1.3927747, 2.71867, 0.3418579, 0
1430, 2247190064, -0.36333165, -0.08065246, -0.27009284, 0.8879957, 1.727849, 2.539823, -0.25353622, 0
1431, 2247206731, -0.36374825, -0.08150847, -0.26760197, 0.8885009, 0.5741139, 1.8795953, -0.59749126, 0
1432, 2247223398, -0.363752, -0.08227231, -0.26506498, 0.8891893, 0.55778134, 1.8728722, -0.22394562, 0
1434, 2247256732, -0.36257547, -0.084522575, -0.2608314, 0.89070934, 0.84004974, 1.5090159, -0.7314129, 0
1438, 2247323400, -0.35526347, -0.08888519, -0.25511822, 0.89487606, 0.5030499, 0.42575943, -0.2047987, 0
1439, 2247340067, -0.3528621, -0.090344496, -0.25409818, 0.8959696, 0.23447432, 2.4528446, 0.649045, 0
1441, 2247373401, -0.3475478, -0.09337852, -0.2526422, 0.8981449, -0.82091767, -0.06328413, -0.6850996, 0
1442, 2247390068, -0.34500638, -0.09479002, -0.25165328, 0.8992538, -0.23335138, 0.3840658, -0.80441475, 0
1443, 2247406735, -0.34246448, -0.09611665, -0.2506583, 0.90036184, -0.932404, 0.24257405, -0.12746239, 0
1445, 2247440069, -0.33773017, -0.09857609, -0.24871984, 0.90241945, -0.92709255, -0.2888362, -0.21899033, 0
1446, 2247456736, -0.33574662, -0.099491, -0.24831204, 0.90317124, -1.1948085, -0.4256837, -0.102381706, 0
1447, 2247473403, -0.3336632, -0.100244105, -0.24811277, 0.90391445, -1.275951, -0.8940603, -0.17893982, 0
1449, 2247506737, -0.3297967, -0.102079906, -0.24748316, 0.9052995, -1.6948464, -0.6465803, -0.23866749, 0
1451, 2247540071, -0.3261258, -0.103045255, -0.24879438, 0.9061602, -1.5648946, -0.8069722, 1.2743587, 0
1454, 2247590072, -0.3219785, -0.10517502, -0.25369, 0.9060413, -3.5091567, -0.48626173, -0.85128117, 0
1455, 2247606739, -0.32084116, -0.10635304, -0.25503114, 0.9059306, -3.7503288, -0.16575953, 2.9945374E-4, 0
1457, 2247640073, -0.31770855, -0.10753169, -0.25680414, 0.90639454, -4.7098966, -1.2798262, -0.58113194, 0
1458, 2247656740, -0.31627482, -0.10863814, -0.25852877, 0.9062737, -3.8194525, -2.2339382, 0.42826748, 0
1460, 2247690074, -0.31458908, -0.11362811, -0.2649168, 0.9044019, -4.786689, -2.3517845, -0.77410316, 0
1461, 2247706741, -0.31453004, -0.11682571, -0.2669539, 0.90341544, -4.583932, -1.2306454, 0.86634254, 0
1462, 2247723408, -0.31392774, -0.118834265, -0.26794267, 0.9030702, -5.1907544, -1.8688774, 1.4007025, 0
1464, 2247756742, -0.31683093, -0.12713301, -0.2713605, 0.8999, -4.697701, -2.748925, 2.184659, 0
1466, 2247790076, -0.331362, -0.13369906, -0.27631336, 0.89217484, -5.850059, -1.3965982, 0.2006197, 0
1468, 2247823410, -0.34060097, -0.14496624, -0.28597507, 0.88385236, -4.469711, -3.5043883, 0.85984707, 0
1469, 2247840077, -0.34193388, -0.14815237, -0.28815278, 0.8821005, -3.2499804, -2.782719, -1.620884, 0
1470, 2247856744, -0.34127682, -0.14869301, -0.28803363, 0.882303, -2.9685857, -2.5288255, -2.7536092, 0
1472, 2247890078, -0.33826, -0.12544343, -0.28096017, 0.88932943, 2.6429534, -0.7404745, -2.635981, 0
1473, 2247906745, -0.33311167, -0.10526991, -0.27373582, 0.8961166, -2.2183092, 0.16217923, -4.3094115, 0
1474, 2247923412, -0.33200946, -0.0989275, -0.27436337, 0.8970557, -3.1506474, -0.47171247, 3.701106, 0
1476, 2247956746, -0.33357215, -0.09204895, -0.27649257, 0.89655435, 8.999989, 0.9372775, -1.5613785, 0
1477, 2247973413, -0.33341286, -0.0884316, -0.2783453, 0.8964045, 6.107261, -0.21379709, -3.6483216, 0
1478, 2247990080, -0.33395493, -0.08484628, -0.28068894, 0.8958182, 4.3528175, 0.35116798, 0.6108055, 0
1481, 2248040081, -0.33683318, -0.077252075, -0.28500304, 0.8940637, 7.7682743, 3.5914233, 0.782774, 0
1484, 2248090082, -0.33830655, -0.06721516, -0.29179147, 0.89212656, 3.962526, -0.43347678, -3.1210418, 0
1485, 2248106749, -0.33930537, -0.06288013, -0.29442322, 0.8911982, 3.9952762, 1.891868, 0.328166, 0
1486, 2248123416, -0.3405657, -0.05624377, -0.2978778, 0.8900122, 1.4547839, 0.3542872, 3.3667936, 0
1488, 2248156750, -0.34792137, -0.043999154, -0.30316907, 0.8860613, 4.9344034, 0.20599906, -0.070222855, 0
1489, 2248173417, -0.35533723, -0.03500798, -0.30442092, 0.88308495, 2.7448475, -2.0129108, -0.19270706, 0
1491, 2248206751, -0.37687418, -0.014307352, -0.30538252, 0.8743592, 6.9825163, -5.303691, -2.2576022, 0
1492, 2248223418, -0.39992005, -0.0024517868, -0.3040953, 0.8646301, 8.654849, -3.8771756, -1.195013, 0
1493, 2248240085, -0.43114412, 0.009032867, -0.30124182, 0.8504632, 6.50312, -3.3116515, -4.4647765, 0
1496, 2248290086, -0.50809836, 0.030846264, -0.30481532, 0.80496806, -7.0645137, 4.6001534, -3.7719412, 0
1497, 2248306753, -0.51775455, 0.030713253, -0.30957523, 0.7969638, -9.82577, 8.507059, -2.1442723, 0
1500, 2248356754, -0.51437664, 0.016816735, -0.32132545, 0.794912, 0.6384098, 2.5391536, -2.5657454, 0
1501, 2248373421, -0.5118924, 0.013134463, -0.32489762, 0.7951331, 2.4169297, 2.1935203, -1.3193178, 0
1503, 2248406755, -0.50544065, 0.0046898536, -0.33641803, 0.794564, 2.06215, -3.6598263, 1.7707996, 0
1504, 2248423422, -0.50113666, -0.0010882206, -0.34956282, 0.7916238, 3.887475, -5.7233243, 0.14420319, 0
1505, 2248440089, -0.49589428, -0.008337479, -0.36792693, 0.78654337, 3.2729466, -4.366244, -0.11299896, 0
1507, 2248473423, -0.47800994, -0.036026165, -0.42810318, 0.7661186, -1.2139615, -6.9193482, 2.156969, 0
1508, 2248490090, -0.45270088, -0.054914776, -0.47529474, 0.75242454, -5.0271754, -3.4779732, -5.4260345, 0
1511, 2248540091, -0.32006165, -0.20509185, -0.5054622, 0.7746013, -6.1838875, -18.770998, -13.495007, 0
1512, 2248556758, -0.29523396, -0.24989033, -0.46606582, 0.7957235, 7.4341774, -44.840103, 5.562211, 0
1513, 2248573425, -0.29553956, -0.2565279, -0.43331194, 0.8118447, -6.8314624, -21.786125, 0.054610252, 0
1516, 2248623426, -0.36745787, -0.24362613, -0.28507924, 0.8510888, -1.5783743, 16.571741, 8.710075, 0
1518, 2248656760, -0.3588337, -0.19907255, -0.25467122, 0.87564397, 6.709279, 31.501154, -10.00901, 0
1519, 2248673427, -0.3253362, -0.19150412, -0.25597742, 0.88992095, 16.92902, 25.910938, -7.8437934, 0
1520, 2248690094, -0.28888863, -0.1904555, -0.2577438, 0.90213054, 25.962492, 11.606751, -7.7101526, 0
1522, 2248723428, -0.2738575, -0.206603, -0.26362637, 0.9015651, 28.665693, 1.4486628, -4.9642153, 0
1523, 2248740095, -0.29357064, -0.2184306, -0.25951466, 0.89373237, 25.167236, 5.159848, -9.058202, 0
1526, 2248790096, -0.3294127, -0.24886747, -0.27553475, 0.8681209, 7.2318125, 1.5971663, 4.2148447, 0
1527, 2248806763, -0.32006642, -0.25000557, -0.2843506, 0.8684473, -12.679259, 7.3778486, -4.635391, 0
1528, 2248823430, -0.3154651, -0.25986552, -0.29091707, 0.86505514, -1.1258638, 2.3065925, 0.22014332, 0
1530, 2248856764, -0.3247517, -0.28972733, -0.29389742, 0.8510113, 1.2419038, -1.8871297, 0.28931618, 0
1532, 2248890098, -0.3309089, -0.32256678, -0.3024325, 0.8336581, -1.4439815, -0.07978021, 0.41196823, 0
1534, 2248923432, -0.33817127, -0.3751523, -0.30768725, 0.806369, -3.0032558, -0.09128705, 0.7529745, 0
1535, 2248940099, -0.3429531, -0.41298553, -0.30747402, 0.7856762, -3.9489307, -1.9504896, 1.5601854, 0
1536, 2248956766, -0.3479167, -0.46011412, -0.30731905, 0.75683916, -4.2137556, -1.621217, 0.8556452, 0
1538, 2248990100, -0.3531344, -0.5827096, -0.306257, 0.6647959, -8.011543, -5.4432225, 7.6024094, 0
1541, 2249040101, -0.38981894, -0.7033101, -0.3539672, 0.47760272, -44.406605, 6.9384093, 25.05497, 0
1542, 2249056768, -0.36432132, -0.729125, -0.34980157, 0.46183005, -49.55848, 5.161291, 27.402576, 0
1543, 2249073435, -0.3360153, -0.74332464, -0.3355593, 0.47112978, 6.739321, 1.258125, 3.0366564, 0
1545, 2249106769, -0.3372625, -0.7727704, -0.33599955, 0.4197446, -22.184032, -1.991728, 2.4641476, 0
1546, 2249123436, -0.33369902, -0.78287756, -0.3394781, 0.4006292, -22.29528, -3.3163688, -3.514439, 0
1547, 2249140103, -0.32558247, -0.7930782, -0.34106284, 0.38561684, -18.910711, -6.6534743, -7.0506487, 0
1549, 2249173437, -0.31952307, -0.8020494, -0.34632194, 0.3669936, -15.471558, -8.054404, -11.795129, 0
1550, 2249190104, -0.3220558, -0.8015963, -0.34792382, 0.36424425, -12.114356, -6.5865226, -13.623009, 0
1551, 2249206771, -0.32678586, -0.79880935, -0.34818852, 0.36589658, -10.967736, -6.1250243, -14.355103, 0
1553, 2249240105, -0.34001958, -0.7843493, -0.34573972, 0.3868439, -4.469685, -3.2225418, -15.202953, 0
1555, 2249273439, -0.3489218, -0.7677485, -0.33541843, 0.41989467, -6.6672745, -3.3291724, -13.608795, 0
1557, 2249306773, -0.3544916, -0.7357539, -0.3360837, 0.4690958, -7.1329308, -4.8001385, -12.276754, 0
1558, 2249323440, -0.3556023, -0.712411, -0.34052035, 0.50006473, -7.330111, -6.1657863, -10.444767, 0
1559, 2249340107, -0.35853457, -0.6844384, -0.34546873, 0.53258777, -3.0697274, -7.1886067, -9.522158, 0
1562, 2249390108, -0.37953222, -0.5849836, -0.35559827, 0.6223349, -3.6094458, -6.813696, -2.8995857, 0
1563, 2249406775, -0.38668013, -0.54697764, -0.3567017, 0.65119815, -3.8331854, -6.3932753, 1.9496956, 0
1565, 2249440109, -0.3927224, -0.4669772, -0.34874776, 0.71139145, -1.9350382, 2.3468184, 7.9405823, 0
1566, 2249456776, -0.38522524, -0.42807972, -0.3467465, 0.7403496, 1.962179, 3.2740958, 6.9015255, 0
1567, 2249473443, -0.3719957, -0.39045298, -0.34776306, 0.7669602, 3.2058494, 2.7082005, 10.833441, 0
1570, 2249523444, -0.3264316, -0.288119, -0.34155944, 0.83292735, 11.925916, 1.4259945, 7.249981, 0
1572, 2249556778, -0.3138168, -0.23417829, -0.3226446, 0.8617315, 10.937859, 4.794073, 2.4023638, 0
1573, 2249573445, -0.31092077, -0.21462233, -0.3118335, 0.8717952, 10.847409, 4.314446, 2.3826466, 0
1574, 2249590112, -0.30828175, -0.19527782, -0.30494896, 0.8796797, 11.423796, 4.4150043, 6.023798, 0
1576, 2249623446, -0.3003799, -0.15537085, -0.29585904, 0.8933646, 10.297013, 4.4861903, -0.38581562, 0
1578, 2249656780, -0.2885768, -0.12345441, -0.294781, 0.9025454, 12.670433, 2.6114802, 0.88874054, 0
1580, 2249690114, -0.27781755, -0.094744004, -0.29216313, 0.91021043, 14.51979, 2.2909036, -3.350572, 0
1581, 2249706781, -0.2760993, -0.085062414, -0.28842536, 0.9128777, 14.809181, 2.022794, -5.3476577, 0
1582, 2249723448, -0.2774039, -0.07854451, -0.28448915, 0.9143003, 15.790579, 2.7733002, -5.04039, 0
1585, 2249773449, -0.29149175, -0.077975854, -0.27388322, 0.91320395, 17.976212, 7.069731, -8.255874, 0
1586, 2249790116, -0.29906967, -0.09083736, -0.27013418, 0.91067815, 19.878983, 7.956094, -6.9873004, 0
1588, 2249823450, -0.3150673, -0.14301807, -0.26560533, 0.8998519, 24.44082, 12.951326, -7.0225105, 0
1589, 2249840117, -0.32425597, -0.18378107, -0.26703712, 0.8886927, 26.677063, 14.521003, -4.3984694, 0
1590, 2249856784, -0.33203357, -0.20347287, -0.28219354, 0.87676704, 29.955576, -14.936922, 53.367844, 0
1592, 2249890118, -0.34256074, -0.20945579, -0.2909211, 0.8684162, 3.2774966, -4.9910183, -2.1903105, 0
1594, 2249923452, -0.33743224, -0.23159947, -0.30398178, 0.86028916, -2.5039034, 3.8912349, -1.3393631, 0
1596, 2249956786, -0.35050818, -0.25872687, -0.30522928, 0.8467826, 0.13814832, -0.2829208, 0.37378597, 0
1597, 2249973453, -0.35562846, -0.27355334, -0.30671182, 0.83942014, 0.6305556, -1.766, 0.84996796, 0
1600, 2250023454, -0.358817, -0.36118096, -0.32550937, 0.79677063, -5.0867815, -2.6847312, 1.3708429, 0
1601, 2250040121, -0.35874063, -0.4149595, -0.33080733, 0.76790726, -6.225071, -3.9294615, 2.1946354, 0
1603, 2250073455, -0.35707927, -0.55845815, -0.33507895, 0.6695837, -7.3941045, -5.9802966, 9.832272, 0
1604, 2250090122, -0.36443132, -0.6144377, -0.3586031, 0.6008837, -29.517511, -12.737324, 26.229832, 0
1605, 2250106789, -0.37467155, -0.66467446, -0.37770018, 0.5245694, -24.677904, -4.470624, 24.707031, 0
1607, 2250140123, -0.35661358, -0.6975666, -0.38799456, 0.48547813, -34.192394, -4.36263, 18.087837, 0
1608, 2250156790, -0.3401798, -0.70519453, -0.37344605, 0.49751142, 10.146737, -3.219037, -0.60061455, 0
1611, 2250206791, -0.36702207, -0.7406527, -0.35174212, 0.4393259, -20.066868, 0.6337068, -1.4697638, 0
1612, 2250223458, -0.36633918, -0.7557126, -0.34046578, 0.42282176, -19.690119, -1.781238, -5.738087, 0
1615, 2250273459, -0.3631143, -0.79053944, -0.3178206, 0.3770764, -14.621536, -5.240608, -13.0520935, 0
1616, 2250290126, -0.36711395, -0.79595226, -0.31269687, 0.36593625, -13.656382, -3.6993277, -14.617869, 0
1617, 2250306793, -0.37032118, -0.79925376, -0.3057851, 0.3613203, -14.100976, -3.082373, -15.349432, 0
1619, 2250340127, -0.37451044, -0.7969278, -0.2924927, 0.3729575, -8.079129, -1.1497487, -16.149982, 0
1620, 2250356794, -0.37552702, -0.79241186, -0.28750572, 0.38523304, -8.102094, 0.059754625, -15.783897, 0
1622, 2250390128, -0.37126717, -0.77436095, -0.28045362, 0.42880383, -8.849143, -0.89013475, -14.332895, 0
1623, 2250406795, -0.36949724, -0.7580594, -0.28198332, 0.457498, -6.9770966, -1.7173413, -13.499102, 0
1624, 2250423462, -0.370345, -0.7350583, -0.28895757, 0.48891604, -7.6866436, -2.4477346, -11.860707, 0
1626, 2250456796, -0.3715824, -0.6759122, -0.31300727, 0.55416316, -5.545656, -2.2690864, -8.800672, 0
1627, 2250473463, -0.37020665, -0.6424407, -0.32785666, 0.58543015, -7.2927213, -5.031192, -5.971459, 0
1630, 2250523464, -0.37311047, -0.51287156, -0.36782578, 0.68004185, -4.682001, -10.391912, 5.7664633, 0
1631, 2250540131, -0.381557, -0.4616428, -0.37675604, 0.7066514, -2.6649435, -9.562656, 9.495039, 0
1632, 2250556798, -0.3916138, -0.40976354, -0.38208356, 0.72989446, -1.719615, -5.78908, 12.92823, 0
1634, 2250590132, -0.4044041, -0.30375993, -0.39104074, 0.7689447, 2.446239, 0.9197348, 18.426016, 0
1635, 2250606799, -0.39937067, -0.25183284, -0.39540157, 0.7878719, 3.6248405, 4.8695135, 19.92858, 0
1636, 2250623466, -0.38363823, -0.20338231, -0.3967579, 0.8087285, 6.1733985, 6.1132927, 16.505123, 0
1638, 2250656800, -0.32889718, -0.121221095, -0.39007857, 0.8514529, 10.023594, 5.8510256, 10.388565, 0
1640, 2250690134, -0.2628138, -0.054103844, -0.37639067, 0.88675416, 16.274008, 2.3224735, 4.9642477, 0
1642, 2250723468, -0.22033952, -4.336685E-4, -0.35703486, 0.9077322, 19.308237, 2.5347116, 0.20052338, 0
1644, 2250756802, -0.1970278, 0.042783737, -0.34246495, 0.91764295, 17.335068, 4.6859894, -6.553032, 0
1646, 2250790136, -0.18233445, 0.058000077, -0.31886062, 0.92828834, 15.755573, 4.5005736, -11.589485, 0
1647, 2250806803, -0.17991818, 0.056962598, -0.30788818, 0.93251854, 17.081476, 3.0563686, -11.704327, 0
1648, 2250823470, -0.17912419, 0.05530183, -0.3006135, 0.9351412, 18.278946, 3.5112793, -9.425391, 0
1650, 2250856804, -0.18432918, 0.04787548, -0.29366672, 0.93674535, 14.174536, 2.7844303, -11.884756, 0
1651, 2250873471, -0.19251424, 0.039855823, -0.2923557, 0.93588424, 14.791391, 3.7117264, -9.78405, 0
1653, 2250906805, -0.21630704, 0.017352384, -0.2924166, 0.9313454, 16.441242, 4.576434, -8.263794, 0
1654, 2250923472, -0.23132282, 0.0020128367, -0.29518616, 0.9270126, 17.821762, 7.039448, -8.361111, 0
1657, 2250973473, -0.2744729, -0.09167474, -0.28769717, 0.9129578, 19.607557, 12.764208, -3.8167834, 0
1659, 2251006807, -0.27831998, -0.19738725, -0.28198656, 0.8966946, 25.534925, 12.809381, -1.8687057, 0
1661, 2251040141, -0.26332512, -0.18421152, -0.27620664, 0.90577996, -37.85102, 13.795675, -21.347172, 1024
1662, 2251056808, -0.26118663, -0.18873322, -0.27806962, 0.9048978, 5.5635715, -1.3201544, 8.325943, 0
1663, 2251073475, -0.25938323, -0.19794907, -0.2830331, 0.90190345, -3.8391416, -3.555646, -0.27281284, 0
1665, 2251106809, -0.26751918, -0.22497742, -0.29252514, 0.8900839, 0.058613002, 2.6007814, -1.0807877, 0
1666, 2251123476, -0.2743323, -0.23701172, -0.2936305, 0.8845054, 2.3074956, 0.0901934, 0.2380209, 0
1667, 2251140143, -0.2787792, -0.2508085, -0.29450944, 0.8790009, 0.09771668, -1.2963802, 0.39971256, 0
1669, 2251173477, -0.28383648, -0.29890674, -0.30198118, 0.85959303, -3.3602266, -0.5322438, 1.2371387, 0
1670, 2251190144, -0.2855756, -0.33730012, -0.309042, 0.84212214, -3.335523, -1.866385, 1.1148863, 0
1674, 2251256812, -0.30545712, -0.5794978, -0.32484233, 0.68217087, -9.209222, -3.5798075, 15.565161, 0
1675, 2251273479, -0.32201305, -0.6268852, -0.348245, 0.6181015, -22.411282, -4.6203027, 22.923927, 0
1677, 2251306813, -0.3316096, -0.6889918, -0.37310693, 0.52546924, -38.777786, 4.0967703, 36.646427, 0
1678, 2251323480, -0.3147505, -0.6909061, -0.37235934, 0.533789, -14.215806, -2.6279395, 11.97332, 0
1680, 2251356814, -0.33187202, -0.70608675, -0.3476518, 0.5200405, -4.0395007, 0.3460444, -1.3066816, 0
1681, 2251373481, -0.34614614, -0.7154195, -0.33633012, 0.5052142, -16.29985, 6.1184196, -2.0880451, 0
1682, 2251390148, -0.34832764, -0.7273585, -0.32363528, 0.49485266, -16.535065, 5.3597293, -7.231533, 0
1684, 2251423482, -0.33232802, -0.7557533, -0.3129053, 0.4695601, -11.86761, -1.0194902, -13.4155445, 0
1685, 2251440149, -0.3260897, -0.76609194, -0.31774873, 0.45365816, -12.049537, -4.2252145, -15.535692, 0
1686, 2251456816, -0.32520413, -0.7702528, -0.3275148, 0.44010043, -12.991843, -6.0863132, -16.219824, 0
1690, 2251523484, -0.35460594, -0.7438061, -0.35029593, 0.4453102, -6.0307107, -5.2745943, -14.882132, 0
1692, 2251556818, -0.37543082, -0.72419786, -0.34143347, 0.46691933, -10.53214, -4.1575665, -12.915379, 0
1693, 2251573485, -0.38261265, -0.7109709, -0.3362227, 0.48485452, -11.516114, -4.363723, -11.7143135, 0
1694, 2251590152, -0.38817087, -0.6934618, -0.33375657, 0.5069931, -9.724911, -4.195382, -10.924083, 0
1696, 2251623486, -0.39779085, -0.6510642, -0.33576825, 0.5523939, -6.9463205, -3.9160225, -6.901283, 0
1697, 2251640153, -0.40161353, -0.62731844, -0.33577093, 0.5765738, -9.791413, -1.8359417, -2.2040062, 0
1698, 2251656820, -0.4019989, -0.6013643, -0.33466592, 0.60395193, -8.265105, -1.6918813, 0.9721441, 0
1700, 2251690154, -0.4005764, -0.5389655, -0.34352136, 0.65654325, -1.5078887, -0.57018334, 4.7932014, 0
1701, 2251706821, -0.3964822, -0.5069806, -0.34881756, 0.681249, -0.81835604, 1.1024059, 7.51013, 0
1704, 2251756822, -0.36781198, -0.42040086, -0.3521797, 0.7509649, 4.654157, 2.4755404, 6.059167, 0
1705, 2251773489, -0.35518605, -0.3962019, -0.35289454, 0.76963216, 4.3789005, 1.4620099, 6.9524174, 0
1707, 2251806823, -0.33080825, -0.34868768, -0.3542766, 0.8021671, 5.117493, 0.8606447, 5.7545366, 0
1708, 2251823490, -0.32038766, -0.32692683, -0.35358667, 0.8157502, 5.087163, -0.086166255, 5.7568035, 0
1709, 2251840157, -0.31160948, -0.3047111, -0.3535322, 0.8276877, 5.2948833, 0.13740928, 6.134678, 0
1711, 2251873491, -0.29710054, -0.2645093, -0.35393506, 0.8464617, 5.842555, 1.039961, 1.9544487, 0
1712, 2251890158, -0.2904676, -0.24806361, -0.35382462, 0.8537578, 4.9184246, 0.26138487, 3.359105, 0
1713, 2251906825, -0.2835795, -0.23141691, -0.35384622, 0.86071074, 5.0772977, -0.15239315, 3.8751926, 0
1715, 2251940159, -0.2684381, -0.20194727, -0.35117653, 0.87397635, 5.668565, -0.005011384, 1.754921, 0
1716, 2251956826, -0.26126543, -0.18873292, -0.34854084, 0.88013685, 5.9126844, 0.14609355, 1.6789837, 0
1720, 2252023494, -0.23994881, -0.14278355, -0.33026618, 0.90164477, 5.5243573, 2.9146218, 0.31898594, 0
1721, 2252040161, -0.23439161, -0.1342585, -0.32461882, 0.90645415, 5.265648, 2.9543943, 0.9664755, 0
1723, 2252073495, -0.21799743, -0.11841761, -0.31605464, 0.9157321, 4.8399577, 2.2015207, -0.40155506, 0
1724, 2252090162, -0.20879216, -0.1117603, -0.3133841, 0.9196235, 5.172744, 1.9679129, -1.0065613, 0
1725, 2252106829, -0.20014764, -0.106100194, -0.3107863, 0.92309105, 5.6704664, 1.7785038, -0.7357836, 0
1727, 2252140163, -0.18594855, -0.09736936, -0.30548838, 0.92877376, 5.5149207, 0.6048379, -1.9788795, 0
1728, 2252156830, -0.18078923, -0.09482886, -0.30386627, 0.9305855, 5.6394663, 0.39651045, -1.7377758, 0
1729, 2252173497, -0.17727518, -0.09319027, -0.30264795, 0.93182325, 5.7646294, 0.20458317, -1.4932384, 0
1731, 2252206831, -0.17531045, -0.09275541, -0.304109, 0.9317627, 5.628877, 0.081298895, -1.7332249, 0
1734, 2252256832, -0.18474554, -0.0939862, -0.3074368, 0.92871934, 4.8288026, -0.3756554, -2.4117422, 0
1736, 2252290166, -0.19617328, -0.09978023, -0.31205106, 0.9242217, 4.333487, 0.53547144, -1.3851051, 0
1738, 2252323500, -0.2066266, -0.10832187, -0.31406787, 0.92029047, 3.4770048, 0.5524017, -0.64001465, 0
1739, 2252340167, -0.20960101, -0.11287957, -0.3150884, 0.9187199, 3.0181808, 0.31309026, -0.7742634, 0
1740, 2252356834, -0.21080555, -0.11782322, -0.31613228, 0.91746414, 2.7511663, 0.31195444, -0.45400047, 0
1742, 2252390168, -0.20998153, -0.12761329, -0.31549045, 0.91656405, 2.6884167, -0.83609045, -0.20991421, 0
1743, 2252406835, -0.2090595, -0.13193896, -0.31513083, 0.9162861, 2.5214663, -1.0741812, -0.4000473, 0
1744, 2252423502, -0.20871542, -0.13613692, -0.31461832, 0.9159266, 2.4632685, -1.2467383, -0.5249548, 0
1746, 2252456836, -0.21018757, -0.1428895, -0.31501263, 0.91442454, 2.6898608, -1.3246903, 0.17533112, 0
1748, 2252490170, -0.21491536, -0.14781539, -0.31548077, 0.9123789, 2.4615264, -1.015551, -0.7584543, 0
1750, 2252523504, -0.22251162, -0.15319748, -0.31647336, 0.9093212, 2.2052019, -0.6323502, -0.4114504, 0
1752, 2252556838, -0.23193333, -0.15945943, -0.31643248, 0.90589815, 1.8342919, -0.15261763, -0.0056352615, 0
1754, 2252590172, -0.23997976, -0.16501442, -0.31715992, 0.90254694, 1.321661, -0.223992, -0.40414143, 0
1755, 2252606839, -0.24350934, -0.16831115, -0.31656283, 0.90120137, 1.4417245, -0.094758846, 0.10801411, 0
1756, 2252623506, -0.24713099, -0.1718141, -0.31546888, 0.89993715, 1.5250344, 0.0655157, 0.2522831, 0
1758, 2252656840, -0.25444388, -0.17888516, -0.31528187, 0.8965808, 1.3666098, 0.2762043, -0.28775978, 0
1759, 2252673507, -0.25770432, -0.18225141, -0.3155035, 0.89489204, 1.2450414, 0.1246777, 0.25865173, 0
1761, 2252706841, -0.26353863, -0.18848385, -0.31246305, 0.8929666, 1.0534123, -0.23160145, 0.21383381, 0
1763, 2252740175, -0.2714252, -0.19469106, -0.31068668, 0.88988715, 0.45061463, 0.012024159, -0.08203125, 0
1765, 2252773509, -0.2799151, -0.19996963, -0.313068, 0.88523966, -0.2792269, -0.31968302, 0.10627365, 0
1766, 2252790176, -0.28418565, -0.20169836, -0.31531036, 0.8826875, -0.14958957, -0.6872118, 0.5149994, 0
1769, 2252840177, -0.29890972, -0.19908231, -0.3196296, 0.87684524, 0.10980817, -0.69356877, 0.28435898, 0
1770, 2252856844, -0.30484295, -0.19628191, -0.32160854, 0.8747077, 0.15523304, -0.5470339, -0.6268215, 0
1771, 2252873511, -0.3108343, -0.1933247, -0.32490495, 0.8720355, 0.2889155, -0.4622873, -0.9943981, 0
1773, 2252906845, -0.32215774, -0.18928345, -0.33426228, 0.8652493, 0.7947108, 0.85497093, -0.58631897, 0
1774, 2252923512, -0.32774332, -0.18868758, -0.33910242, 0.86138964, 1.2625719, 1.5365682, 0.49300003, 0
1775, 2252940179, -0.33320564, -0.18729933, -0.34357345, 0.85781795, 1.6478962, 1.7489499, 2.0501652, 0
1778, 2252990180, -0.34610894, -0.17011805, -0.3621971, 0.848577, 2.6173265, -0.73523444, -0.44726467, 0
1779, 2253006847, -0.35052726, -0.16415127, -0.3681421, 0.84537435, 3.341592, -0.52277726, -0.928463, 0
1781, 2253040181, -0.36398745, -0.15643224, -0.37660763, 0.837383, 4.449733, 0.08915496, -1.6536236, 0
1782, 2253056848, -0.37141022, -0.15380943, -0.38074437, 0.83272576, 4.367941, 1.3459346, -1.0269241, 0
1784, 2253090182, -0.38306037, -0.15067045, -0.38406518, 0.8264733, 4.0221524, 2.9220293, -0.48847866, 0
1785, 2253106849, -0.3874692, -0.15163642, -0.38149044, 0.82543343, 4.167484, 3.0766778, -1.2567482, 0
1786, 2253123516, -0.3914101, -0.1542826, -0.37918565, 0.8241448, 4.443506, 2.5429776, -3.1412845, 0
1788, 2253156850, -0.39854425, -0.16647446, -0.3820055, 0.8170201, 4.704066, 2.840058, -4.3982472, 0
1789, 2253173517, -0.40199962, -0.17831501, -0.38480756, 0.8114951, 5.517519, 3.866484, -4.2088146, 0
1790, 2253190184, -0.40517905, -0.19286847, -0.38812006, 0.80498195, 6.6041994, 4.561083, -3.292593, 0
1793, 2253240185, -0.4141994, -0.25151733, -0.36771765, 0.7937021, 11.631008, 0.66442245, 15.261705, 0
1794, 2253256852, -0.41730595, -0.24770764, -0.35712314, 0.7980985, 7.92498, -2.5576098, 1.0574093, 0
1796, 2253290186, -0.4227352, -0.23734105, -0.3480681, 0.80238026, -0.9128946, -1.4883986, 0.19780922, 0
1798, 2253323520, -0.42403919, -0.22825764, -0.34383425, 0.8061443, 0.68637836, -1.4559575, 0.05260372, 0
1800, 2253356854, -0.41939792, -0.22034727, -0.342889, 0.81116045, 0.42332426, -0.55452293, 0.13197803, 0
1801, 2253373521, -0.41641364, -0.21628541, -0.34281814, 0.8138165, -0.3082951, -0.01731594, -0.01747799, 0
1802, 2253390188, -0.41430548, -0.21186423, -0.34288868, 0.8160229, -0.73899025, 0.24038684, -0.08475399, 0
1804, 2253423522, -0.41349533, -0.20393848, -0.3409098, 0.81927574, -0.6053833, 0.33318803, -0.045186996, 0
1805, 2253440189, -0.41431615, -0.20029975, -0.33929205, 0.82042944, -0.5221335, 0.0041107386, -0.07180309, 0
1808, 2253490190, -0.41715056, -0.1917707, -0.3349225, 0.82282305, 0.26468593, -0.74548507, -0.16918087, 0
1809, 2253506857, -0.41697544, -0.18909274, -0.33483848, 0.8235655, 0.3162943, -0.68161106, -0.11842728, 0
1810, 2253523524, -0.41593993, -0.1860397, -0.33579746, 0.8243936, 0.4657183, -0.69750184, -0.080239296, 0
1812, 2253556858, -0.41195416, -0.17969747, -0.33797818, 0.82690674, -0.35062835, 0.13098821, -0.1671753, 0
1815, 2253606859, -0.40974888, -0.17026779, -0.33667967, 0.8305196, -0.46081555, 0.022103028, -0.026924133, 0
1816, 2253623526, -0.4100048, -0.16752924, -0.33572015, 0.83133835, -0.47602147, -0.21208535, -0.0075941086, 0
