sep=,
DeviceTag:,Xsens_DOT_4,,,,,,,,,,,,,,,,,
FirmwareVersion:,3.0.0,,,,,,,,,,,,,,,,,
AppVersion:,2023.6.1,,,,,,,,,,,,,,,,,
SyncStatus:,Synced,,,,,,,,,,,,,,,,,
OutputRate:,60Hz,,,,,,,,,,,,,,,,,
FilterProfile:,General,,,,,,,,,,,,,,,,,
Measurement Mode:,Sensor fusion Mode - Extended (Quaternion),,,,,,,,,,,,,,,,,
StartTime:,2025-05-05 11:43:50.378 +0200,,,,,,,,,,,,,,,,,
 2025,,,,,,,,,,,,,,,,,,,

PacketCounter,SampleTimeFine,Quat_W,Quat_X,Quat_Y,Quat_Z,FreeAcc_X,FreeAcc_Y,FreeAcc_Z,Status
1, 2223372921, 0.016815439, -0.671232, -0.012781549, -0.7409459, 0.2731602, 0.073274255, 0.050614357, 0
2, 2223389588, 0.01682134, -0.6712024, -0.012824282, -0.74097186, 0.23908626, 0.025783002, 0.042119026, 0
3, 2223406255, 0.016814448, -0.6711595, -0.012811206, -0.7410111, 0.21806988, -0.020447189, 0.062514305, 0
4, 2223422922, 0.016821705, -0.6711205, -0.012793593, -0.74104655, 0.16839635, 0.022482218, 0.04495144, 0
5, 2223439589, 0.016848445, -0.671092, -0.012797557, -0.7410717, 0.17846172, 0.08468079, 0.029589653, 0
6, 2223456256, 0.016870663, -0.67106485, -0.012793038, -0.7410959, 0.1444406, 0.14722027, 0.023625374, 0
7, 2223472923, 0.016879529, -0.6710286, -0.012763489, -0.741129, 0.12821198, 0.11375848, 0.06858158, 0
8, 2223489590, 0.016901717, -0.6709891, -0.012762196, -0.7411642, 0.17017098, 0.10541055, 0.03562069, 0
9, 2223506257, 0.01691883, -0.6709552, -0.012751516, -0.7411948, 0.2198342, 0.13273904, 0.022730827, 0
10, 2223522924, 0.016893804, -0.6709356, -0.012734968, -0.7412133, 0.2779938, 0.117608435, 0.047926903, 0
11, 2223539591, 0.016904928, -0.6709026, -0.012762602, -0.7412424, 0.25883117, 0.116382636, 0.035585403, 0
12, 2223556258, 0.016852438, -0.6708683, -0.012758162, -0.7412748, 0.27130517, 0.15498291, 0.038208008, 0
13, 2223572925, 0.016866058, -0.6708354, -0.012817048, -0.7413032, 0.29353508, 0.18703601, 0.045476913, 0
14, 2223589592, 0.016859844, -0.6708075, -0.012852427, -0.74132794, 0.24753155, 0.14141276, 0.061271667, 0
15, 2223606259, 0.016831182, -0.67077136, -0.012866382, -0.74136114, 0.27406463, 0.13254659, 0.07721138, 0
16, 2223622926, 0.016843058, -0.6707435, -0.012906473, -0.7413854, 0.28108516, 0.11780988, 0.043441772, 0
17, 2223639593, 0.016834453, -0.6707035, -0.012937352, -0.7414213, 0.29728422, 0.14431885, 0.06749725, 0
18, 2223656260, 0.016807266, -0.6706645, -0.012967449, -0.74145657, 0.33196735, 0.20271404, 0.04115677, 0
19, 2223672927, 0.016753659, -0.67063004, -0.012971789, -0.74148893, 0.30918455, 0.16631468, 0.031895638, 0
20, 2223689594, 0.016704038, -0.6705945, -0.012994286, -0.7415218, 0.28483033, 0.11551462, 0.07631588, 0
21, 2223706261, 0.01665707, -0.6705548, -0.013025418, -0.7415581, 0.22351426, 0.11103414, 0.055892944, 0
22, 2223722928, 0.016616508, -0.6705156, -0.013043232, -0.74159425, 0.21012962, 0.13736036, 0.053198814, 0
23, 2223739595, 0.0165715, -0.6704726, -0.013070516, -0.7416336, 0.21654603, 0.101684146, 0.019283295, 0
24, 2223756262, 0.016508944, -0.67043525, -0.013103977, -0.74166805, 0.20029245, 0.1054381, 0.02160263, 0
25, 2223772929, 0.016457811, -0.6703944, -0.013139173, -0.7417054, 0.21162716, 0.11484066, 0.059844017, 0
26, 2223789596, 0.016444325, -0.6703592, -0.013174318, -0.7417372, 0.23706862, 0.10793128, 0.06480789, 0
27, 2223806263, 0.016405754, -0.67031974, -0.0131832175, -0.74177337, 0.24109705, 0.09609135, 0.057756424, 0
28, 2223822930, 0.01638484, -0.67027575, -0.013181042, -0.74181366, 0.30359736, 0.070922226, 0.039370537, 0
29, 2223839597, 0.016408138, -0.6702323, -0.01321099, -0.74185175, 0.3176729, 0.07244373, 0.0371418, 0
30, 2223856264, 0.016419977, -0.67019993, -0.013206501, -0.74188095, 0.31333917, 0.16544373, 0.025481224, 0
31, 2223872931, 0.016476512, -0.6701601, -0.013227031, -0.7419153, 0.2970312, 0.19523306, 0.053603172, 0
32, 2223889598, 0.016538665, -0.6701321, -0.013241962, -0.7419388, 0.31066698, 0.17540103, 0.031341553, 0
33, 2223906265, 0.016568542, -0.6701012, -0.013227783, -0.7419665, 0.29846296, 0.1625973, 0.050016403, 0
34, 2223922932, 0.016621381, -0.6700616, -0.013232082, -0.742001, 0.29983184, 0.17488705, 0.068639755, 0
35, 2223939599, 0.016639471, -0.67002857, -0.013202362, -0.742031, 0.30531046, 0.16288175, 0.09368229, 0
36, 2223956266, 0.016644001, -0.66999626, -0.013182018, -0.7420604, 0.33097553, 0.1359569, 0.14170265, 0
37, 2223972933, 0.016596712, -0.669937, -0.0131365545, -0.7421156, 0.335483, 0.12025925, 0.11846924, 0
38, 2223989600, 0.016584605, -0.6698916, -0.013127167, -0.74215716, 0.376699, 0.18789461, 0.08699703, 0
39, 2224006267, 0.016600266, -0.66984785, -0.013125289, -0.7421963, 0.41258523, 0.21890333, 0.035728455, 0
40, 2224022934, 0.016636774, -0.6697981, -0.013098098, -0.7422409, 0.40273303, 0.16350381, 0.029375076, 0
41, 2224039601, 0.016642548, -0.6697511, -0.013010513, -0.7422847, 0.40226212, 0.100143865, 0.052164078, 0
42, 2224056268, 0.01667989, -0.6696932, -0.012930103, -0.7423376, 0.3488944, 0.10842736, 0.042642593, 0
43, 2224072935, 0.016739838, -0.669647, -0.012829736, -0.7423796, 0.28671673, 0.12694703, 0.031492233, 0
44, 2224089602, 0.016813867, -0.66960776, -0.012736518, -0.74241495, 0.26343936, 0.100269474, 0.031957626, 0
45, 2224106269, 0.016883433, -0.66957307, -0.01265721, -0.74244595, 0.24647254, 0.13599889, 0.032590866, 0
46, 2224122936, 0.01685512, -0.6695362, -0.012490373, -0.7424827, 0.24925642, 0.16693649, 0.02845192, 0
47, 2224139603, 0.016929276, -0.6694913, -0.012376763, -0.74252343, 0.23815694, 0.10547817, 0.03981018, 0
48, 2224156270, 0.01700116, -0.6694653, -0.012247734, -0.74254733, 0.2495887, 0.097653985, 0.05948925, 0
49, 2224172937, 0.017145462, -0.6694277, -0.012178175, -0.74257904, 0.25714335, 0.09848696, 0.07184887, 0
50, 2224189604, 0.01727011, -0.6693844, -0.012107581, -0.74261624, 0.2582576, 0.11447311, 0.05585766, 0
51, 2224206271, 0.017339267, -0.6693511, -0.0120051205, -0.74264634, 0.2718284, 0.12358881, 0.045053482, 0
52, 2224222938, 0.017434977, -0.66932696, -0.011929382, -0.74266714, 0.2303061, 0.12113167, 0.045947075, 0
53, 2224239605, 0.017564796, -0.66929615, -0.011890627, -0.7426925, 0.26240668, 0.15894833, 0.039100647, 0
54, 2224256272, 0.017677382, -0.66926634, -0.011848081, -0.74271727, 0.27218682, 0.18594442, 0.05885601, 0
55, 2224272939, 0.017779723, -0.66922444, -0.0117955245, -0.74275357, 0.29384157, 0.20496602, 0.05050659, 0
56, 2224289606, 0.01788643, -0.66919214, -0.011758152, -0.7427806, 0.29841277, 0.19915552, 0.029119492, 0
57, 2224306273, 0.017958373, -0.6691665, -0.011680756, -0.74280316, 0.26542196, 0.20662493, 0.045511246, 0
58, 2224322940, 0.018105619, -0.66913223, -0.011679944, -0.7428305, 0.2687045, 0.07786655, 0.03255272, 0
59, 2224339607, 0.018195145, -0.6691109, -0.011660416, -0.7428479, 0.21053869, 0.090757996, 0.04389286, 0
60, 2224356274, 0.018243954, -0.6690724, -0.011602059, -0.7428823, 0.091015264, 0.33925566, 0.16595554, 0
61, 2224372941, 0.018267468, -0.66902465, -0.011515804, -0.74292606, 0.0586425, 0.3687926, 0.14472008, 0
62, 2224389608, 0.018271394, -0.6689645, -0.011471167, -0.7429808, 0.18417764, 0.21373463, 0.024102211, 0
63, 2224406275, 0.018203832, -0.6689133, -0.011485409, -0.7430284, 0.21541743, 0.10338882, -0.0027170181, 0
64, 2224422942, 0.0180754, -0.6688672, -0.011519264, -0.7430724, 0.18654981, 0.22022793, 0.024306297, 0
65, 2224439609, 0.017972127, -0.66881603, -0.0115961395, -0.74311966, 0.16286659, 0.2979345, 0.0014448166, 0
66, 2224456276, 0.017807476, -0.6687789, -0.01165764, -0.74315625, 0.10863481, 0.24362808, 0.008389473, 0
67, 2224472943, 0.017634355, -0.6687389, -0.011742182, -0.74319506, 0.034149107, 0.1969077, 0.08708668, 0
68, 2224489610, 0.017402485, -0.66868794, -0.011801433, -0.7432454, 0.0068882713, 0.19070743, 0.051653862, 0
69, 2224506277, 0.017234072, -0.6686402, -0.011925038, -0.74329036, -0.024286492, 0.17053513, 0.014641762, 0
70, 2224522944, 0.017034695, -0.6685914, -0.012012385, -0.74333745, -0.08817736, 0.022536028, 0.047272682, 0
71, 2224539611, 0.016829208, -0.6685436, -0.012152668, -0.7433829, -0.09631606, -0.051841985, 0.040733337, 0
72, 2224556278, 0.016584083, -0.6684982, -0.012308903, -0.7434265, -0.07667493, 0.08207737, -0.021879196, 0
73, 2224572945, 0.016355455, -0.668457, -0.012470361, -0.743466, -0.10824091, 0.19739704, -0.1010685, 0
74, 2224589612, 0.016137376, -0.66842824, -0.012640901, -0.7434937, -0.08568983, 0.11310694, -0.042526245, 0
75, 2224606279, 0.015916102, -0.6684088, -0.012825664, -0.74351275, -0.05008759, -0.002853307, 0.023655891, 0
76, 2224622946, 0.015651986, -0.66838026, -0.013021067, -0.7435407, 0.0011048386, 0.06306418, 0.014947891, 0
77, 2224639613, 0.015399359, -0.6683468, -0.01321071, -0.74357253, 0.083140515, 0.14347327, 0.016677856, 0
78, 2224656280, 0.015195265, -0.66833013, -0.013432324, -0.7435879, 0.15299557, 0.18824339, 0.035222054, 0
79, 2224672947, 0.014951609, -0.6682997, -0.013594322, -0.7436173, 0.2930841, 0.12601823, 0.1452303, 0
80, 2224689614, 0.014775023, -0.6682673, -0.013829667, -0.7436456, 0.3671599, 0.045265563, 0.14049816, 0
81, 2224706281, 0.014582589, -0.66821414, -0.014055312, -0.7436929, 0.3781948, 0.11801048, 0.1147213, 0
82, 2224722948, 0.014410421, -0.66816735, -0.014215965, -0.74373525, 0.40637046, 0.18459885, -0.02918911, 0
83, 2224739615, 0.0142842755, -0.6681354, -0.014340039, -0.74376386, 0.36971855, 0.1602323, 0.04717064, 0
84, 2224756282, 0.0141995475, -0.66810787, -0.014421243, -0.74378866, 0.3884862, 0.120643355, 0.11721039, 0
85, 2224772949, 0.0141623095, -0.6680635, -0.014516737, -0.7438272, 0.40897813, 0.12665763, 0.088430405, 0
86, 2224789616, 0.014091395, -0.66801804, -0.014510822, -0.7438696, 0.35924608, 0.16193044, 0.033205032, 0
87, 2224806283, 0.014101386, -0.6679775, -0.014487509, -0.74390626, 0.34275573, 0.18281478, 0.044446945, 0
88, 2224822950, 0.014130652, -0.6679409, -0.014431398, -0.74393976, 0.35471115, 0.14000013, 0.044522285, 0
89, 2224839617, 0.014176279, -0.6679013, -0.01430298, -0.7439769, 0.36374477, 0.11546741, 0.060560226, 0
90, 2224856284, 0.01427833, -0.66787094, -0.014154859, -0.744005, 0.38176382, 0.07728642, 0.05825138, 0
91, 2224872951, 0.014411509, -0.6678342, -0.013943121, -0.74403954, 0.3248325, 0.0929501, 0.07787514, 0
92, 2224889618, 0.014629677, -0.66779023, -0.013747912, -0.7440783, 0.32745236, 0.1481074, 0.10745716, 0
93, 2224906285, 0.014895238, -0.66775256, -0.013530523, -0.7441109, 0.33281273, 0.12934543, 0.0838356, 0
94, 2224922952, 0.015172094, -0.66770965, -0.0132625215, -0.7441487, 0.330133, 0.07463763, 0.09404659, 0
95, 2224939619, 0.015571751, -0.66767204, -0.013040096, -0.74417794, 0.30328864, 0.09383549, 0.089530945, 0
96, 2224956286, 0.015906699, -0.66763675, -0.012738537, -0.744208, 0.33328804, 0.11245485, 0.045764923, 0
97, 2224972953, 0.016216636, -0.6676045, -0.012414396, -0.74423563, 0.38175002, 0.13034287, -0.0071315765, 0
98, 2224989620, 0.016591318, -0.66756636, -0.012117725, -0.7442663, 0.35518557, 0.15461606, 0.042437553, 0
99, 2225006287, 0.016940445, -0.66753465, -0.01176206, -0.7442926, 0.35950434, 0.10644782, 0.10604763, 0
100, 2225022954, 0.017335981, -0.66750014, -0.011453781, -0.7443194, 0.337468, 0.09392926, 0.06769848, 0
101, 2225039621, 0.01774089, -0.6674601, -0.011161383, -0.7443502, 0.34461895, 0.19983765, -0.0027780533, 0
102, 2225056288, 0.018178359, -0.6674301, -0.010868497, -0.74437076, 0.3493943, 0.26680982, -0.005115509, 0
103, 2225072955, 0.018600248, -0.66741157, -0.010521352, -0.74438196, 0.38924828, 0.23901297, 0.06228447, 0
104, 2225089622, 0.018984884, -0.6673875, -0.010138631, -0.7443992, 0.44684106, 0.15330212, 0.1398611, 0
105, 2225106289, 0.019420594, -0.6673573, -0.0097883865, -0.7444197, 0.46517545, 0.14820766, 0.088210106, 0
106, 2225122956, 0.019906782, -0.6673235, -0.009435497, -0.74444175, 0.42381707, 0.18469161, 0.05741501, 0
107, 2225139623, 0.020413369, -0.6672941, -0.009018354, -0.7444595, 0.3404452, 0.21845773, 0.23774624, 0
108, 2225156290, 0.02095297, -0.6672562, -0.008581519, -0.74448365, 0.39258918, 0.22296719, 0.1900158, 0
109, 2225172957, 0.021480903, -0.6671962, -0.00813232, -0.74452734, 0.4233633, 0.14351481, 0.10359001, 0
110, 2225189624, 0.022068806, -0.667133, -0.007753793, -0.74457085, 0.30381536, 0.12586305, 0.042938232, 0
111, 2225206291, 0.022601947, -0.66708046, -0.0073191673, -0.74460644, 0.25647518, 0.23989022, -0.0016870499, 0
112, 2225222958, 0.02304218, -0.6670334, -0.0067624003, -0.7446403, 0.21862014, 0.23081493, -0.0068264008, 0
113, 2225239625, 0.023538612, -0.66699463, -0.006292559, -0.74466354, 0.2074547, 0.1802423, 0.016905785, 0
114, 2225256292, 0.023971349, -0.6669417, -0.005824417, -0.74470097, 0.14047125, 0.22856128, 0.099910736, 0
115, 2225272959, 0.02441533, -0.66690284, -0.0054325797, -0.74472445, 0.06710601, 0.28800973, 0.11340141, 0
116, 2225289626, 0.024817623, -0.6668615, -0.005092684, -0.7447505, 0.072833166, 0.30752105, 0.004746437, 0
117, 2225306293, 0.025150359, -0.6668107, -0.004810039, -0.74478674, 0.039748218, 0.3345186, 0.034093857, 0
118, 2225322960, 0.02534546, -0.66676956, -0.004591331, -0.74481833, 0.019267445, 0.3942806, 0.002863884, 0
119, 2225339627, 0.025469303, -0.666738, -0.004507933, -0.74484277, 0.040855717, 0.3859009, -0.0047035217, 0
120, 2225356294, 0.025432006, -0.66671187, -0.0045014396, -0.74486756, -0.016944978, 0.3684761, 0.087394714, 0
121, 2225372961, 0.025286473, -0.6666868, -0.004603617, -0.7448943, -0.021103647, 0.4128669, -0.030762672, 0
122, 2225389628, 0.025027625, -0.6666565, -0.004792124, -0.74492896, -0.08045161, 0.4388402, -0.06266594, 0
123, 2225406295, 0.024674341, -0.66663903, -0.0050495304, -0.74495465, -0.13968515, 0.4010411, -0.025104523, 0
124, 2225422962, 0.024196163, -0.66663194, -0.0054086186, -0.7449743, -0.10389713, 0.3008624, 0.0028133392, 0
125, 2225439629, 0.023577616, -0.6666355, -0.0058988556, -0.7449871, -0.057810705, 0.28397122, 0.0717783, 0
126, 2225456296, 0.022832923, -0.66663396, -0.0064910874, -0.7450068, 0.0788347, 0.34027892, -0.0012340546, 0
127, 2225472963, 0.02201534, -0.6666317, -0.0071658976, -0.7450272, 0.15878707, 0.31045184, 0.04850483, 0
128, 2225489630, 0.021126173, -0.66662097, -0.007921521, -0.7450549, 0.21124662, 0.23892619, 0.12625313, 0
129, 2225506297, 0.020181626, -0.666611, -0.0087505095, -0.7450806, 0.21671577, 0.2962834, 0.12449169, 0
130, 2225522964, 0.01918792, -0.6665965, -0.009583026, -0.74510974, 0.24282283, 0.38915733, 0.048971176, 0
131, 2225539631, 0.018228047, -0.66657335, -0.010419723, -0.7451433, 0.22384298, 0.2757622, -0.010055542, 0
132, 2225556298, 0.017279044, -0.66656536, -0.011203382, -0.74516165, 0.21888563, 0.017953008, 0.05861759, 0
133, 2225572965, 0.01637096, -0.6665609, -0.011956621, -0.7451746, 0.25879017, -0.059121523, 0.031244278, 0
134, 2225589632, 0.015479974, -0.666541, -0.012672648, -0.74519956, 0.21917242, 0.1100197, -0.011925697, 0
135, 2225606299, 0.014637388, -0.6665375, -0.013316885, -0.7452083, 0.18507323, 0.21524298, -0.028336525, 0
136, 2225622966, 0.013889454, -0.66654164, -0.013894543, -0.7452085, 0.25681543, 0.11977154, 0.0152692795, 0
137, 2225639633, 0.01325085, -0.6665437, -0.014410779, -0.74520844, 0.28999442, -0.032427996, 0.13574028, 0
138, 2225656300, 0.0126727745, -0.6665342, -0.01485474, -0.7452183, 0.3309886, -0.040936455, 0.15020657, 0
139, 2225672967, 0.012177169, -0.66652983, -0.01526897, -0.74522203, 0.315299, 0.07201319, 0.18441772, 0
140, 2225689634, 0.011724308, -0.66650707, -0.01563057, -0.7452421, 0.30358538, 0.12226455, 0.13858223, 0
141, 2225706301, 0.011347301, -0.66647017, -0.015985038, -0.7452735, 0.32947168, 0.068385966, 0.09280872, 0
142, 2225722968, 0.011008248, -0.66641766, -0.016301565, -0.7453187, 0.4545269, -0.15650494, 0.09924412, 0
143, 2225739635, 0.010670163, -0.66637105, -0.0165071, -0.7453607, 0.41951084, 0.1759851, 0.3168249, 0
144, 2225756302, 0.010475449, -0.66631144, -0.016629223, -0.74541414, 0.41289994, 0.30516332, -0.19000626, 0
145, 2225772969, 0.010387547, -0.6662936, -0.01665175, -0.74543065, 0.12899388, 0.15474777, -0.16940784, 0
146, 2225789636, 0.0104081705, -0.6663005, -0.01657525, -0.745426, -0.03827797, -0.023416726, -0.16085434, 0
147, 2225806303, 0.010486811, -0.6663179, -0.01641241, -0.7454129, -0.1827055, -0.20079133, -0.11657715, 0
148, 2225822970, 0.010587543, -0.6663311, -0.01616336, -0.7454052, -0.36709377, -0.15773617, 0.17626667, 0
149, 2225839637, 0.010737352, -0.6663198, -0.015910394, -0.74541867, -0.40201128, -0.1102623, 0.10226059, 0
150, 2225856304, 0.010944292, -0.6662908, -0.01569321, -0.74544626, -0.48782328, 0.0068793716, 0.12902546, 0
151, 2225872971, 0.01116965, -0.6662559, -0.0154212825, -0.74547976, -0.53728306, -0.021942602, -0.022039413, 0
152, 2225889638, 0.01143574, -0.66623855, -0.0151819885, -0.74549603, -0.56580395, -0.019633379, 0.09615612, 0
153, 2225906305, 0.011669524, -0.6662059, -0.015046921, -0.7455244, -0.4816529, -0.0115129845, 0.07985401, 0
154, 2225922972, 0.011825703, -0.6661543, -0.014995024, -0.74556905, -0.40370905, 0.035515428, 0.013401985, 0
155, 2225939639, 0.011993349, -0.666082, -0.01505224, -0.7456298, -0.35380334, -0.03063111, -0.026434898, 0
156, 2225956306, 0.0121238455, -0.6660286, -0.015106343, -0.7456742, -0.24400152, -0.06392353, -0.13038445, 0
157, 2225972973, 0.012182571, -0.6660068, -0.015076008, -0.7456934, -0.05428334, 0.11518061, -0.088656425, 0
158, 2225989640, 0.012391657, -0.6660058, -0.015085787, -0.7456907, 0.11526411, 0.43285006, -0.010313034, 0
159, 2226006307, 0.012643643, -0.6660011, -0.014920041, -0.74569386, 0.41383052, 0.4597196, 0.042434692, 0
160, 2226022974, 0.0129382685, -0.66600895, -0.014568873, -0.74568886, 0.6559899, 0.21488234, 0.13142586, 0
161, 2226039641, 0.013314776, -0.66601264, -0.014173765, -0.7456866, 0.77432966, 0.06647991, 0.24898434, 0
162, 2226056308, 0.013757959, -0.66597974, -0.013830405, -0.7457143, 0.8274528, 0.27364075, 0.2841978, 0
163, 2226072975, 0.014182709, -0.6659231, -0.013470352, -0.74576354, 0.73333424, 0.44173196, 0.21662235, 0
164, 2226089642, 0.014565982, -0.665869, -0.01304188, -0.745812, 0.7422775, 0.5589171, 0.091959, 0
165, 2226106309, 0.014945015, -0.66581434, -0.012618583, -0.74586076, 0.7530241, 0.36854059, 0.08028793, 0
166, 2226122976, 0.015329748, -0.6657755, -0.01226889, -0.7458935, 0.7920166, 0.2617288, 0.027926445, 0
167, 2226139643, 0.015629478, -0.6657369, -0.011896752, -0.7459277, 0.7442944, 0.3520314, 0.023508072, 0
168, 2226156310, 0.016002394, -0.6657138, -0.011558041, -0.74594575, 0.63153493, 0.377962, 0.056263924, 0
169, 2226172977, 0.01633615, -0.6656966, -0.011147771, -0.74596, 0.60610574, 0.23194057, 0.0909214, 0
170, 2226189644, 0.016673855, -0.66567206, -0.0107763, -0.7459799, 0.50256014, 0.14450823, 0.16388226, 0
171, 2226206311, 0.017017886, -0.66563845, -0.010436103, -0.746007, 0.38427496, 0.17937188, 0.2403183, 0
172, 2226222978, 0.017328545, -0.6656, -0.01010336, -0.7460388, 0.376238, 0.1760977, 0.13060284, 0
173, 2226239645, 0.017629027, -0.6655518, -0.009785108, -0.7460791, 0.339914, 0.19510035, 0.084653854, 0
174, 2226256312, 0.017937198, -0.66551507, -0.009486429, -0.7461081, 0.37522227, 0.2301442, -0.020090103, 0
175, 2226272979, 0.018328384, -0.6654692, -0.009203993, -0.7461431, 0.25514656, 0.25288373, 0.08866024, 0
176, 2226289646, 0.018692307, -0.6654346, -0.008834597, -0.74616945, 0.15968168, 0.16197635, 0.07163429, 0
177, 2226306313, 0.01907108, -0.6653983, -0.008439377, -0.7461968, 0.13423344, 0.04693107, 0.04442978, 0
178, 2226322980, 0.019454226, -0.6653597, -0.008080173, -0.7462253, 0.037830252, 0.09247323, 0.03491974, 0
179, 2226339647, 0.019837834, -0.6653238, -0.007705752, -0.74625117, -0.029278345, 0.23724389, 0.06576252, 0
180, 2226356314, 0.020240545, -0.66527915, -0.007277742, -0.7462844, -0.094632566, 0.2502854, 0.049962997, 0
181, 2226372981, 0.02066312, -0.66523695, -0.00683558, -0.74631464, -0.08007088, 0.12424745, 0.016162872, 0
182, 2226389648, 0.021065317, -0.6652008, -0.006428357, -0.7463392, -0.08124584, 0.1280841, 0.02786827, 0
183, 2226406315, 0.021440275, -0.66515714, -0.006055966, -0.74637073, -0.069707885, 0.19782296, 0.018342972, 0
184, 2226422982, 0.021818459, -0.6651167, -0.0057733245, -0.7463979, -0.010306294, 0.21823515, 0.013596535, 0
185, 2226439649, 0.022159867, -0.66507775, -0.0055811703, -0.74642396, 0.031395502, 0.24549693, 0.06082344, 0
186, 2226456316, 0.022407174, -0.665038, -0.005416058, -0.7464532, 0.090503365, 0.30899012, 0.028384209, 0
187, 2226472983, 0.022594482, -0.66500187, -0.005288724, -0.7464807, 0.19506527, 0.36104092, -0.0087041855, 0
188, 2226489650, 0.02272807, -0.6649733, -0.005122315, -0.7465032, 0.22044064, 0.2967322, -0.06158924, 0
189, 2226506317, 0.022918448, -0.6649549, -0.0050051324, -0.7465146, 0.15367061, 0.15663274, 0.078650475, 0
190, 2226522984, 0.023110263, -0.6649462, -0.004884336, -0.74651724, 0.1739142, 0.18928334, 0.08073902, 0
191, 2226539651, 0.0232554, -0.66492665, -0.0047215596, -0.7465311, 0.1534595, 0.29818767, 0.08908558, 0
192, 2226556318, 0.023370251, -0.66490746, -0.0045257024, -0.74654585, 0.1937543, 0.3062654, 0.05034542, 0
193, 2226572985, 0.02352295, -0.6648856, -0.00437741, -0.7465615, 0.23571171, 0.27757788, 0.063661575, 0
194, 2226589652, 0.023659863, -0.66487396, -0.004244566, -0.7465684, 0.21693285, 0.24842255, 0.108543396, 0
195, 2226606319, 0.023783408, -0.6648511, -0.004119925, -0.7465853, 0.22498909, 0.26145005, 0.08279705, 0
196, 2226622986, 0.023887165, -0.6648269, -0.0039917715, -0.7466043, 0.16220921, 0.23372132, 0.032749176, 0
197, 2226639653, 0.023970738, -0.6648066, -0.0038787425, -0.74662036, 0.048737746, 0.21379925, 0.13327312, 0
198, 2226656320, 0.024049208, -0.66477317, -0.0037824847, -0.7466481, 7.0431724E-4, 0.18678308, 0.113140106, 0
199, 2226672987, 0.024105392, -0.6647394, -0.0037336498, -0.7466766, -0.0033782304, 0.17147863, 0.095843315, 0
200, 2226689654, 0.024139658, -0.6647043, -0.0036775433, -0.74670696, 0.01725562, 0.1757864, 0.0069150925, 0
201, 2226706321, 0.024248831, -0.6646744, -0.0036700368, -0.74673015, 0.06488746, 0.21895698, -0.04571724, 0
202, 2226722988, 0.024279967, -0.6646565, -0.003606148, -0.7467453, 0.12534975, 0.21634023, -0.0061969757, 0
203, 2226739655, 0.024312288, -0.6646437, -0.0035676695, -0.7467558, 0.10733662, 0.22553203, 0.09413147, 0
204, 2226756322, 0.02432084, -0.6646118, -0.0035482533, -0.746784, 0.075998746, 0.22520886, 0.114748, 0
205, 2226772989, 0.024305634, -0.66459024, -0.0035113841, -0.7468039, 0.08438161, 0.21913049, 0.06759071, 0
206, 2226789656, 0.02428145, -0.6645703, -0.003487084, -0.74682266, 0.10991151, 0.20780905, -0.0038166046, 0
207, 2226806323, 0.024237938, -0.66455257, -0.0034768954, -0.74683976, 0.15762536, 0.23281224, -0.05538082, 0
208, 2226822990, 0.024226837, -0.66454995, -0.00347035, -0.7468425, 0.1410312, 0.2830732, 0.0074567795, 0
209, 2226839657, 0.024204843, -0.66455555, -0.0034769103, -0.7468381, 0.21983667, 0.20741788, 0.061223984, 0
210, 2226856324, 0.024177104, -0.66455436, -0.003560815, -0.74683976, 0.30237114, 0.21852073, 0.11265755, 0
211, 2226872991, 0.024080321, -0.66454005, -0.0036837012, -0.7468549, 0.32100624, 0.25995764, 0.19308567, 0
212, 2226889658, 0.023974784, -0.66451085, -0.0037935674, -0.7468837, 0.3727401, 0.2821995, 0.14156628, 0
213, 2226906325, 0.023873925, -0.66446996, -0.0039057918, -0.7469229, 0.39393076, 0.2515991, 0.1224699, 0
214, 2226922992, 0.023824848, -0.6644321, -0.004044529, -0.7469573, 0.38970283, 0.22703756, 0.09999943, 0
215, 2226939659, 0.023763359, -0.6643959, -0.0040953793, -0.7469913, 0.37487236, 0.26060784, 0.022363663, 0
216, 2226956326, 0.02372729, -0.66437536, -0.004076209, -0.7470107, 0.2533947, 0.19769596, -0.043066025, 0
217, 2226972993, 0.023770742, -0.6643624, -0.0040305145, -0.7470212, 0.19273484, 0.1683304, 0.04468155, 0
218, 2226989660, 0.023834221, -0.6643546, -0.0039403923, -0.7470266, 0.1741849, 0.14869523, 0.083911896, 0
219, 2227006327, 0.023867302, -0.6643351, -0.003806945, -0.7470436, 0.17092825, 0.2243818, 0.054955482, 0
220, 2227022994, 0.023948207, -0.6643121, -0.003678754, -0.74706215, 0.16828215, 0.28082857, 0.06965637, 0
221, 2227039661, 0.024020717, -0.66428715, -0.0035157055, -0.74708265, 0.15830721, 0.23689313, 0.124173164, 0
222, 2227056328, 0.0241277, -0.6642523, -0.0033580624, -0.747111, 0.19266668, 0.19012298, 0.10600567, 0
223, 2227072995, 0.02423612, -0.66421187, -0.0032139644, -0.74714404, 0.28043362, 0.09486633, 0.16019058, 0
224, 2227089662, 0.024333037, -0.6641625, -0.0030841418, -0.7471853, 0.18592988, 0.32268244, 0.25905323, 0
225, 2227106329, 0.024434276, -0.6641016, -0.0029458292, -0.74723667, 0.23183005, 0.3114438, -0.03345394, 0
226, 2227122996, 0.024532303, -0.664042, -0.0028065816, -0.747287, 0.06739779, 0.09313516, -0.14632225, 0
227, 2227139663, 0.024674863, -0.6640198, -0.0026561208, -0.7473026, -0.20819102, 0.056491334, -0.13191128, 0
228, 2227156330, 0.02484189, -0.6640252, -0.0023830496, -0.7472933, -0.3355135, 0.14196905, -0.19989586, 0
229, 2227172997, 0.025098942, -0.66403526, -0.0020155422, -0.74727696, -0.574641, 0.11154498, 0.033592224, 0
230, 2227189664, 0.02547384, -0.6640227, -0.0016669482, -0.7472761, -0.61168987, -0.06585524, 0.2067194, 0
231, 2227206331, 0.025747374, -0.66398156, -0.0013213232, -0.7473041, -0.62880456, -0.1541555, 0.115532875, 0
232, 2227222998, 0.025996484, -0.6639378, -0.0010760427, -0.74733466, -0.6531777, 0.029033775, -0.0010871887, 0
233, 2227239665, 0.026199013, -0.6638983, -9.199679E-4, -0.7473628, -0.6400402, 0.14543557, -0.13334179, 0
234, 2227256332, 0.026331022, -0.6638663, -8.6329505E-4, -0.74738663, -0.59385645, 0.11924505, -0.0941143, 0
235, 2227272999, 0.02642706, -0.6638466, -9.275563E-4, -0.7474006, -0.47912115, 0.1083018, -0.014606476, 0
236, 2227289666, 0.026476853, -0.6638227, -0.0010618791, -0.74741995, -0.3597556, 0.105227664, 0.028691292, 0
237, 2227306333, 0.026469044, -0.6638032, -0.0011810698, -0.74743736, -0.23030217, 0.12533982, 0.03123188, 0
238, 2227323000, 0.026435956, -0.66379243, -0.0012780242, -0.74744797, -0.005548185, 0.24259289, -0.037002563, 0
239, 2227339667, 0.02644647, -0.66380066, -0.0013856925, -0.74744, 0.108047776, 0.41384733, 0.013389587, 0
240, 2227356334, 0.026485942, -0.6638006, -0.0014624111, -0.74743855, 0.27297652, 0.46299985, 0.061353683, 0
241, 2227373001, 0.026531674, -0.66378415, -0.0014930852, -0.74745154, 0.395563, 0.29674602, 0.14647579, 0
242, 2227389668, 0.026518852, -0.66376245, -0.0015220679, -0.7474712, 0.52384466, 0.20836475, 0.20758438, 0
243, 2227406335, 0.02646032, -0.6637165, -0.001576852, -0.74751395, 0.6338285, 0.3745379, 0.16827583, 0
244, 2227423002, 0.026426591, -0.66366476, -0.0016425028, -0.747561, 0.6750815, 0.583208, 0.11258507, 0
245, 2227439669, 0.026387013, -0.66363627, -0.00161862, -0.74758774, 0.6750051, 0.5069748, 0.08937645, 0
246, 2227456336, 0.026363492, -0.6636073, -0.0015744902, -0.74761426, 0.6802121, 0.29130906, 0.08846092, 0
247, 2227473003, 0.026289515, -0.6635758, -0.0015041977, -0.7476449, 0.67310554, 0.27575162, 0.0716486, 0
248, 2227489670, 0.026264034, -0.66356075, -0.0014932156, -0.74765927, 0.6177296, 0.33500305, 0.0819397, 0
249, 2227506337, 0.026221149, -0.66355246, -0.001439631, -0.74766827, 0.5845104, 0.31920022, 0.08076668, 0
250, 2227523004, 0.026133358, -0.66354525, -0.0013561584, -0.74767786, 0.52989775, 0.29837996, 0.19759655, 0
251, 2227539671, 0.026104972, -0.66350996, -0.0013049617, -0.7477102, 0.43328416, 0.30065852, 0.24868107, 0
252, 2227556338, 0.026111946, -0.6634643, -0.0012422279, -0.7477507, 0.36211154, 0.25635728, 0.14912224, 0
253, 2227573005, 0.026117675, -0.6634149, -0.0011628717, -0.7477945, 0.19052637, 0.17905371, 0.18357754, 0
254, 2227589672, 0.026117384, -0.6633699, -0.0010923743, -0.7478344, 0.1793621, 0.20866913, 0.14512157, 0
255, 2227606339, 0.02614148, -0.66332334, -0.0011058375, -0.7478749, 0.12492985, 0.24456224, -0.057141304, 0
256, 2227623006, 0.026094802, -0.6632836, -0.0011088327, -0.7479118, 0.0030059908, 0.20151459, -0.09595966, 0
257, 2227639673, 0.026051573, -0.66326475, -0.0011412203, -0.74793, -0.037474275, 0.085262425, -0.12646294, 0
258, 2227656340, 0.026018158, -0.6632662, -0.0012072138, -0.7479298, -0.025023257, 0.040296257, -0.11602974, 0
259, 2227673007, 0.025948517, -0.6632753, -0.0012434945, -0.74792403, -0.034644082, 0.13081253, -0.10309601, 0
260, 2227689674, 0.025979638, -0.6632961, -0.001299981, -0.7479044, -0.040809687, 0.23096706, -0.016747475, 0
261, 2227706341, 0.02601277, -0.6633256, -0.0012690723, -0.7478772, 0.038988426, 0.25194377, 0.12426376, 0
262, 2227723008, 0.026087575, -0.6633341, -0.0012046285, -0.7478671, 0.14260018, 0.20558532, 0.2719841, 0
263, 2227739675, 0.026229076, -0.6633147, -0.0011601374, -0.74787927, 0.20138118, 0.16756347, 0.38563156, 0
264, 2227756342, 0.026353188, -0.6632705, -0.0011546575, -0.74791425, 0.20727128, 0.13565443, 0.3355217, 0
265, 2227773009, 0.026358634, -0.6632054, -0.0010891892, -0.7479719, 0.2212947, 0.22636409, 0.17281914, 0
266, 2227789676, 0.026384585, -0.6631398, -0.0010327101, -0.74802923, 0.1848567, 0.3355289, -0.014239311, 0
267, 2227806343, 0.026400015, -0.6630875, -9.615682E-4, -0.7480751, 0.12875359, 0.2623347, -0.1642456, 0
268, 2227823010, 0.02646736, -0.6630796, -9.784997E-4, -0.7480798, 0.100484625, 0.16200002, -0.36224747, 0
269, 2227839677, 0.026507124, -0.6630921, -0.0010068454, -0.7480672, 0.016463742, 0.21578008, -0.22145653, 0
270, 2227856344, 0.026516885, -0.6631287, -9.6004456E-4, -0.7480344, 0.012161829, 0.28688055, -0.07351875, 0
271, 2227873011, 0.026544765, -0.6631635, -8.52406E-4, -0.7480028, 0.093096666, 0.3280117, 0.23264885, 0
272, 2227889678, 0.0266321, -0.6631723, -7.3717907E-4, -0.747992, 0.26168877, 0.29142144, 0.38454247, 0
273, 2227906345, 0.026773207, -0.66313654, -6.3133985E-4, -0.74801874, 0.29152814, 0.2504534, 0.46313572, 0
274, 2227923012, 0.026898503, -0.6630732, -4.8017874E-4, -0.7480705, 0.24939425, 0.2167888, 0.38815975, 0
275, 2227939679, 0.027017951, -0.6629961, -3.6012754E-4, -0.74813455, 0.2357946, 0.25424013, 0.16403103, 0
276, 2227956346, 0.027115077, -0.66292155, -2.6298314E-4, -0.7481972, 0.18588215, 0.37196478, -0.05508709, 0
277, 2227973013, 0.027216636, -0.6628694, -2.0892546E-4, -0.7482397, 0.09247712, 0.28242153, -0.24399185, 0
278, 2227989680, 0.027232744, -0.66285366, -1.6601756E-4, -0.74825317, 0.021935519, 0.12715787, -0.3813076, 0
279, 2228006347, 0.027197652, -0.6628785, -1.9970536E-4, -0.7482323, -0.079247825, 0.11797461, -0.27782822, 0
280, 2228023014, 0.02708941, -0.6629326, -2.2843853E-4, -0.7481884, -0.103808396, 0.24601588, -0.13007545, 0
281, 2228039681, 0.027039222, -0.6629809, -2.5964528E-4, -0.7481474, -0.06337874, 0.3927539, 0.20767498, 0
282, 2228056348, 0.027005777, -0.66298425, -2.0902976E-4, -0.7481457, 0.02343062, 0.3456287, 0.41049862, 0
283, 2228073015, 0.027077764, -0.66295487, -1.1398643E-4, -0.7481691, 0.105734184, 0.11345339, 0.4423952, 0
284, 2228089682, 0.027195059, -0.66289395, 2.444163E-5, -0.7482188, 0.14471352, -0.007888443, 0.31146526, 0
285, 2228106349, 0.027315557, -0.662832, 1.3393164E-4, -0.7482692, 0.11242441, 0.12320157, 0.1567154, 0
286, 2228123016, 0.027377598, -0.6627553, 2.6246905E-4, -0.7483349, 0.05386986, 0.31180036, -0.011710167, 0
287, 2228139683, 0.02745942, -0.6626982, 3.472045E-4, -0.74838233, -0.04352931, 0.3433346, -0.09472275, 0
288, 2228156350, 0.027497962, -0.6626535, 4.2180344E-4, -0.74842054, -0.035290763, 0.18019816, -0.33262157, 0
289, 2228173017, 0.027474687, -0.66264343, 4.508458E-4, -0.74843043, -0.066961184, 0.06108179, -0.38496876, 0
290, 2228189684, 0.027383976, -0.6626819, 4.223846E-4, -0.7483997, -0.13246281, 0.1307107, -0.25604057, 0
291, 2228206351, 0.027301528, -0.66275036, 3.75852E-4, -0.7483421, -0.14997834, 0.17925018, -0.073298454, 0
292, 2228223018, 0.027258702, -0.662801, 3.7330762E-4, -0.74829865, -0.019876385, 0.3179321, 0.26172352, 0
293, 2228239685, 0.02731295, -0.6628205, 4.906766E-4, -0.74827945, 0.10242561, 0.42680156, 0.5107851, 0
294, 2228256352, 0.027503408, -0.6627762, 6.977394E-4, -0.7483116, 0.17733446, 0.17679568, 0.54484844, 0
295, 2228273019, 0.027771346, -0.6626968, 9.078719E-4, -0.7483718, 0.19959922, -0.07434376, 0.3656435, 0
296, 2228289686, 0.028061032, -0.66261405, 0.0010654479, -0.7484341, 0.18039899, 0.051317234, 0.10201931, 0
297, 2228306353, 0.02831734, -0.66253644, 0.0012214854, -0.7484929, 0.06840716, 0.29709357, -0.12150669, 0
298, 2228323020, 0.02856107, -0.6624805, 0.0013663024, -0.7485329, -0.07659257, 0.31685376, -0.1503973, 0
299, 2228339687, 0.028744154, -0.6624469, 0.0015035532, -0.7485553, -0.1174066, 0.29513785, -0.117539406, 0
300, 2228356354, 0.028894491, -0.6624286, 0.001599595, -0.74856544, -0.08015563, 0.250089, -0.21246147, 0
301, 2228373021, 0.028966054, -0.6624334, 0.0016549602, -0.74855834, 0.0033053027, 0.17977159, -0.19478893, 0
302, 2228389688, 0.028927512, -0.6624521, 0.0016790926, -0.74854326, 0.031052312, 0.19122165, -0.10065174, 0
303, 2228406355, 0.028901242, -0.66247827, 0.0016305633, -0.7485211, 0.03150835, 0.29173902, 0.07930851, 0
304, 2228423022, 0.028906249, -0.6624909, 0.0016093291, -0.7485098, 0.09119501, 0.46522692, 0.2502613, 0
305, 2228439689, 0.029002942, -0.6624861, 0.0016951449, -0.7485102, 0.18787189, 0.44794697, 0.32660103, 0
306, 2228456356, 0.029236041, -0.66245425, 0.0018325299, -0.748529, 0.25880718, 0.1682226, 0.29315948, 0
307, 2228473023, 0.029465586, -0.66240215, 0.0020318218, -0.7485656, 0.25813225, -0.0088948095, 0.2527752, 0
308, 2228489690, 0.02970212, -0.662352, 0.002215784, -0.74860024, 0.23245436, 0.041196845, 0.10773754, 0
309, 2228506357, 0.029879153, -0.66227365, 0.0024521127, -0.7486617, 0.17359129, 0.37517104, 0.13107586, 0
310, 2228523024, 0.03005258, -0.662201, 0.0027035624, -0.748718, 0.17238319, 0.42870808, 0.1041975, 0
311, 2228539691, 0.03017506, -0.662127, 0.0029518194, -0.74877775, 0.18111822, 0.37524387, -0.19830227, 0
312, 2228556358, 0.03033898, -0.66208476, 0.0030971467, -0.74880785, -0.14682965, 0.42725864, -0.1888504, 0
313, 2228573025, 0.030500934, -0.6620849, 0.0032793805, -0.7488004, -0.31302214, 0.31717277, -0.31202984, 0
314, 2228589692, 0.03063102, -0.6621114, 0.0035465844, -0.74877036, -0.38203222, -0.04261973, -0.27295017, 0
315, 2228606359, 0.030778699, -0.66214675, 0.0037575066, -0.7487321, -0.50413793, -0.28421342, 0.06196499, 0
316, 2228623026, 0.030881397, -0.6621714, 0.0038559958, -0.7487055, -0.5045546, -0.10471364, 0.27302933, 0
317, 2228639693, 0.030995794, -0.6621365, 0.0039050803, -0.7487313, -0.5189245, 0.36342624, 0.3080616, 0
318, 2228656360, 0.031151988, -0.6620881, 0.003996961, -0.74876726, -0.43512273, 0.4073442, 0.039671898, 0
319, 2228673027, 0.031312153, -0.66205794, 0.004080888, -0.74878675, -0.29400864, 0.14302544, -0.09392166, 0
320, 2228689694, 0.031484954, -0.662046, 0.004083466, -0.74878997, -0.1499829, -0.03720239, -0.14702606, 0
321, 2228706361, 0.031621955, -0.6620564, 0.0040627867, -0.7487751, -0.070447564, -0.00143093, -0.16884041, 0
322, 2228723028, 0.031746008, -0.66206735, 0.0040535294, -0.7487603, 0.011495226, 0.08330786, 0.061113358, 0
323, 2228739695, 0.03185571, -0.6620772, 0.004103858, -0.7487467, 0.20908454, 0.15617487, 0.20756626, 0
324, 2228756362, 0.03201872, -0.6620618, 0.0042493045, -0.7487525, 0.41838932, 0.41934487, 0.032928467, 0
325, 2228773029, 0.03238266, -0.66206014, 0.004547879, -0.7487366, 1.0487158, 0.12699598, -0.27691746, 0
326, 2228789696, 0.032729916, -0.66197, 0.004818499, -0.74879944, 0.32237193, 0.37322405, 0.86055756, 0
327, 2228806363, 0.032901622, -0.66200835, 0.0054352283, -0.7487538, 0.06749939, 1.8193808, -0.2870903, 0
328, 2228823030, 0.033646643, -0.66198444, 0.005633883, -0.7487404, 1.1761068, -0.07381705, 0.5070152, 0
329, 2228839697, 0.034105316, -0.6619861, 0.006674275, -0.7487095, 1.2365952, -0.012829755, 0.37524796, 0
330, 2228856364, 0.034682103, -0.6620129, 0.0076086894, -0.74865043, 0.7482958, 1.2143198, 0.24600601, 0
331, 2228873031, 0.035372928, -0.66195875, 0.008124165, -0.74866056, 1.4034562, 0.5505431, 0.19350338, 0
332, 2228889698, 0.0356621, -0.66193885, 0.008765079, -0.7486573, 0.9657653, -0.33159342, 0.20084286, 0
333, 2228906365, 0.035856806, -0.66188335, 0.008814808, -0.7486965, 0.43993285, -0.097909406, -0.1545639, 0
334, 2228923032, 0.035894297, -0.661863, 0.00872511, -0.7487136, 0.19267066, 0.35107276, -0.026608467, 0
335, 2228939699, 0.035975337, -0.6619027, 0.008710418, -0.74867487, 0.29150057, 0.4476151, 0.1956482, 0
336, 2228956366, 0.036087826, -0.6618678, 0.008729067, -0.74870014, 0.6205306, 0.38991255, 0.27304935, 0
337, 2228973033, 0.03620764, -0.66182417, 0.008828953, -0.7487318, 0.33025536, 0.7368757, 0.17725182, 0
338, 2228989700, 0.036503546, -0.66185, 0.00902674, -0.7486921, 0.5150385, 0.70565575, 0.019141197, 0
339, 2229006367, 0.036751054, -0.6618184, 0.009439122, -0.74870306, 0.6689851, -0.2174558, 0.15135956, 0
340, 2229023034, 0.036915116, -0.6617733, 0.009731729, -0.748731, 0.46321678, -0.43681234, -0.18196201, 0
341, 2229039701, 0.036952272, -0.6617018, 0.009720501, -0.74879247, -0.10708715, 0.17047389, -0.23779011, 0
342, 2229056368, 0.03700301, -0.66170937, 0.0096534155, -0.74878407, -0.69785696, 0.5720837, -0.7898903, 0
343, 2229073035, 0.037158266, -0.6617919, 0.009675279, -0.7487032, -0.6107268, 0.19169757, -0.21743298, 0
344, 2229089702, 0.037516333, -0.6618656, 0.009774253, -0.7486191, -0.21442023, -0.13159224, 0.5026989, 0
345, 2229106369, 0.03787587, -0.66185236, 0.0099892095, -0.74860966, 0.0014603708, 0.17886686, 0.7561512, 0
346, 2229123036, 0.038272873, -0.6617079, 0.010198202, -0.7487145, -0.6808961, 0.605378, 0.42124367, 0
347, 2229139703, 0.03859339, -0.6616332, 0.010427173, -0.74876076, -1.7131671, -0.08735032, -0.35442638, 0
348, 2229156370, 0.038804747, -0.661571, 0.010540109, -0.74880326, -2.7201068, -1.0938774, -0.29515266, 0
349, 2229173037, 0.038887993, -0.6614743, 0.010457698, -0.74888545, -2.9638915, -0.9797438, 0.46927547, 0
350, 2229189704, 0.038882323, -0.6613168, 0.01034354, -0.74902636, -2.6823323, 0.28119215, 1.1407423, 0
351, 2229206371, 0.038927518, -0.66102743, 0.010406952, -0.7492787, -2.511103, 1.1975859, 0.7690954, 0
352, 2229223038, 0.039045513, -0.6606645, 0.0105538815, -0.74959046, -2.6208417, 0.6655832, 0.35182285, 0
353, 2229239705, 0.03907288, -0.6602709, 0.010532197, -0.7499361, -2.586986, -0.30976644, 0.16703415, 0
354, 2229256372, 0.03883811, -0.6598855, 0.010337431, -0.7502901, -2.2965646, -0.51513654, -0.83563995, 0
355, 2229273039, 0.038308665, -0.6595889, 0.009943575, -0.7505834, -2.155722, -0.4451797, -1.3420753, 0
356, 2229289706, 0.03762588, -0.65940493, 0.009277232, -0.750788, -1.8434173, -0.053239223, -0.98603725, 0
357, 2229306373, 0.036870837, -0.6592674, 0.008402325, -0.7509566, -1.4519227, 0.18672909, -0.37051678, 0
358, 2229323040, 0.036152683, -0.65912724, 0.0074844062, -0.75112414, -1.0464262, 0.51814914, -0.38092136, 0
359, 2229339707, 0.035509624, -0.65900725, 0.006804839, -0.7512667, -1.0185059, 0.2340346, -0.5911989, 0
360, 2229356374, 0.034814492, -0.6589622, 0.006212257, -0.7513439, -1.5212457, -1.3640801, -0.5451727, 0
361, 2229373041, 0.034088254, -0.6590177, 0.0054039247, -0.7513348, -2.044091, -0.5572648, -0.6062689, 0
362, 2229389708, 0.03356719, -0.65907145, 0.0046316795, -0.7513162, -1.3601294, 0.7425755, -1.1304722, 0
363, 2229406375, 0.033176303, -0.65903604, 0.0040107593, -0.7513682, -1.1322283, 0.007250872, 0.37661266, 0
364, 2229423042, 0.032806277, -0.6589475, 0.0034520403, -0.7514647, -0.43474463, -0.6729886, 0.19498825, 0
365, 2229439709, 0.03240203, -0.6588713, 0.0028414018, -0.7515517, 0.24968956, 0.039919637, -1.5329227, 0
366, 2229456376, 0.03203705, -0.65892136, 0.0023743436, -0.75152516, -1.1402215, 0.5576939, 1.6171083, 0
367, 2229473043, 0.031673446, -0.65897715, 0.0018862747, -0.7514931, -0.8163366, 0.0670008, 1.1943455, 0
368, 2229489710, 0.031393737, -0.65892726, 0.0013341904, -0.7515497, -0.7747836, 0.6827747, -0.63463783, 0
369, 2229506377, 0.031211153, -0.65890515, 9.335205E-4, -0.7515773, -1.6936791, -0.27233455, -0.47937107, 0
370, 2229523044, 0.03102117, -0.65880406, 6.1514974E-4, -0.7516741, -1.3998607, -0.7559955, -0.28320122, 0
371, 2229539711, 0.030828297, -0.6586427, 2.6896968E-4, -0.75182366, -1.5650147, -0.6216846, -0.563056, 0
372, 2229556378, 0.030692637, -0.65855277, -9.3363225E-5, -0.7519079, -2.1050673, 0.014926083, 0.4898281, 0
373, 2229573045, 0.030641757, -0.6584623, -4.3625757E-4, -0.751989, -2.1211169, -0.015400794, -0.016403198, 0
374, 2229589712, 0.030725531, -0.658357, -8.3426014E-4, -0.75207746, -1.854197, -0.19348226, -0.5086107, 0
375, 2229606379, 0.030808814, -0.6582028, -0.0011363998, -0.7522086, -1.9063411, -0.56073934, -0.4538622, 0
376, 2229623046, 0.030902728, -0.6580802, -0.0012719259, -0.75231194, -2.652492, -0.40716133, 0.29520893, 0
377, 2229639713, 0.031061195, -0.65807354, -0.0013234951, -0.7523113, -2.6177623, -0.53853434, -1.183981, 0
378, 2229656380, 0.031224765, -0.658168, -0.0014994107, -0.75222147, -1.9826151, -0.28766704, -0.63945866, 0
379, 2229673047, 0.03140676, -0.6580611, -0.00172773, -0.752307, -2.3120122, 0.05041022, 0.72732735, 0
380, 2229689714, 0.031605586, -0.65798146, -0.0018696971, -0.75236785, -2.4513705, 0.13510586, -1.3765993, 0
381, 2229706381, 0.03178054, -0.6578432, -0.0019463077, -0.7524812, -1.6815617, -0.44655848, 0.51428986, 0
382, 2229723048, 0.031935044, -0.65773606, -0.0020672195, -0.7525679, -3.1093292, -0.5060645, -2.3297105, 0
383, 2229739715, 0.032237165, -0.6580382, -0.0021549203, -0.7522906, -4.117665, -0.5387048, -0.14727116, 0
384, 2229756382, 0.03248194, -0.6581309, -0.0022348613, -0.75219893, -3.5388224, -0.49121818, -0.58598423, 0
385, 2229773049, 0.032728553, -0.65821826, -0.0022085682, -0.7521118, -2.985718, -0.9024855, -1.0176897, 0
386, 2229789716, 0.033120662, -0.65832067, -0.0018488392, -0.75200593, -3.7238035, 1.1687553, 0.8184204, 0
387, 2229806383, 0.033727318, -0.6583672, -0.0013859011, -0.7519392, -4.217584, -0.3799434, 1.4686193, 0
388, 2229823050, 0.034397542, -0.6583707, -0.0010244809, -0.7519065, -3.0549445, -1.2711961, -1.7392387, 0
389, 2229839717, 0.03490355, -0.6582396, -4.8585236E-4, -0.75199836, -3.8299851, -0.3997273, -1.9844942, 0
390, 2229856384, 0.035347573, -0.65826553, 4.358925E-4, -0.7519549, -5.053378, 0.46048117, 0.02879715, 0
391, 2229873051, 0.035808705, -0.6583392, 0.0013434961, -0.75186765, -4.886041, 0.003745183, 0.241786, 0
392, 2229889718, 0.036141276, -0.65841246, 0.0019841567, -0.751786, -4.3890533, 0.3410202, -0.5543766, 0
393, 2229906385, 0.036189042, -0.6583767, 0.0027202144, -0.7518128, -4.1541433, 1.1346043, -0.17905807, 0
394, 2229923052, 0.03580361, -0.6582859, 0.00357195, -0.7519071, -4.9256015, 0.6170598, -0.08472252, 0
395, 2229939719, 0.034916103, -0.65810895, 0.0040403195, -0.75210154, -4.3895264, 0.47204646, -1.3629227, 0
396, 2229956386, 0.033587657, -0.6579065, 0.003920015, -0.7523396, -4.9317565, 0.623296, -0.9186115, 0
397, 2229973053, 0.031875484, -0.65785426, 0.003609389, -0.7524614, -4.9672666, 1.1461712, -0.61743355, 0
398, 2229989720, 0.02991248, -0.6579614, 0.0035370588, -0.75244874, -3.901193, 1.2856491, -0.82516193, 0
399, 2230006387, 0.027668707, -0.65818, 0.0033712946, -0.75234395, -3.1186647, 0.2904148, -2.5462837, 0
400, 2230023054, 0.025283761, -0.658361, 0.002852004, -0.75227183, -2.1412048, 0.24084948, -1.7195969, 0
401, 2230039721, 0.022933908, -0.6583271, 0.0026895776, -0.7523774, -2.35073, 0.5407353, 1.0204687, 0
402, 2230056388, 0.020679042, -0.6585703, 0.0031255297, -0.75222814, -1.7818998, -0.43354225, -1.4072819, 0
403, 2230073055, 0.018458486, -0.6588653, 0.003504876, -0.75202596, -0.20871282, -0.017880198, -0.7391119, 0
404, 2230089722, 0.01633995, -0.65898365, 0.003959246, -0.7519691, -0.3842748, 2.2766972, 1.998517, 0
405, 2230106389, 0.014554329, -0.6590663, 0.004705265, -0.75192887, 1.7313341, 2.2919748, 2.00033, 0
406, 2230123056, 0.012888104, -0.6590007, 0.0055655204, -0.75201094, 2.9450016, 0.3510958, 1.9911566, 0
407, 2230139723, 0.011140175, -0.6588981, 0.006223984, -0.7521236, 2.95392, -0.2975546, 1.3896809, 0
408, 2230156390, 0.009253368, -0.6588056, 0.00649542, -0.752228, 3.243207, -0.035344943, 0.22932911, 0
409, 2230173057, 0.007373862, -0.65870374, 0.006362457, -0.752339, 3.2849648, 0.16476302, 0.7647848, 0
410, 2230189724, 0.0056126416, -0.6585915, 0.005847566, -0.7524567, 3.389587, -0.019468369, 1.4113445, 0
411, 2230206391, 0.0040045753, -0.6583098, 0.0049434677, -0.75271994, 2.8724627, -0.7021336, 1.0182638, 0
412, 2230223058, 0.0024282262, -0.6581052, 0.0037771612, -0.7529123, 2.2544208, -0.19020578, -1.1648006, 0
413, 2230239725, 0.0010675266, -0.657991, 0.0025614724, -0.75302035, 1.599266, 0.247696, 0.1378603, 0
414, 2230256392, 8.491427E-5, -0.65801114, 0.001275152, -0.75300676, 1.031409, -1.0009001, 0.083106995, 0
415, 2230273059, -6.7827106E-4, -0.6580856, -3.091991E-5, -0.75294244, 1.5551893, -1.9430301, -0.45355797, 0
416, 2230289726, -0.0011871234, -0.6581339, -0.001456283, -0.7528982, 1.205252, -1.6833341, 0.46385288, 0
417, 2230306393, -0.0013532117, -0.65813714, -0.0027996376, -0.7528913, 0.73345, -0.9295406, 0.9128599, 0
418, 2230323060, -0.001210928, -0.65811324, -0.0036944263, -0.75290847, 0.24394092, -0.40448403, 0.1447134, 0
419, 2230339727, -7.2196126E-4, -0.6580672, -0.004293129, -0.7529462, 0.51437443, -0.7186945, -0.41699123, 0
420, 2230356394, 2.1524727E-5, -0.6579473, -0.0048752613, -0.7530479, -0.19916947, -1.3616064, 1.6734428, 0
421, 2230373061, 9.186864E-4, -0.657909, -0.005491007, -0.7530764, -0.22505286, -0.6903188, -0.25845432, 0
422, 2230389728, 0.0018916875, -0.6578671, -0.0060472637, -0.7531069, 0.12536289, 0.3220749, -0.8365555, 0
423, 2230406395, 0.003010355, -0.65785795, -0.0062944107, -0.7531093, -0.5840375, 0.008177513, 1.4167843, 0
424, 2230423062, 0.0042522103, -0.65790534, -0.00637722, -0.7530612, -0.785933, -0.4155636, -0.8675661, 0
425, 2230439729, 0.005548738, -0.6580967, -0.0066954754, -0.7528828, -0.7784527, -0.2512832, -0.9719496, 0
426, 2230456396, 0.0068028197, -0.6582471, -0.006946653, -0.7527386, -0.9309635, -0.045425154, 0.3662796, 0
427, 2230473063, 0.008079588, -0.6583, -0.0070031956, -0.7526792, -1.6028724, -0.26236576, -0.92382336, 0
428, 2230489730, 0.009384938, -0.6583807, -0.0071597584, -0.7525921, -1.4683084, -0.40888798, -0.1540308, 0
429, 2230506397, 0.010542534, -0.65837216, -0.0075122677, -0.75258076, -2.0245483, -0.5674537, -0.38930893, 0
430, 2230523064, 0.011435412, -0.6584533, -0.008079164, -0.7524909, -2.5087605, -0.55744827, -1.6668301, 0
431, 2230539731, 0.012124784, -0.65853447, -0.008704286, -0.75240225, -2.621346, 0.37380746, 0.41737366, 0
432, 2230556398, 0.012733713, -0.65850836, -0.009228803, -0.7524087, -3.4346435, -0.20034182, 0.17390537, 0
433, 2230573065, 0.013243929, -0.6585263, -0.010060828, -0.7523735, -3.4180765, -0.79101104, -0.8088131, 0
434, 2230589732, 0.013573147, -0.6584995, -0.011258651, -0.7523742, -3.6640635, -0.5261007, 0.8989973, 0
435, 2230606399, 0.013657756, -0.65839314, -0.012558233, -0.7524452, -4.201389, -0.40736368, 0.396533, 0
436, 2230623066, 0.013609856, -0.6582599, -0.013956398, -0.75253797, -4.45227, -0.26014233, -0.9594259, 0
437, 2230639733, 0.0135618, -0.65806526, -0.015308097, -0.75268275, -5.176719, 0.08944681, -0.27375126, 0
438, 2230656400, 0.013668202, -0.65817386, -0.016464084, -0.7525615, -6.5288897, -0.95308125, -1.7396078, 0
439, 2230673067, 0.013759553, -0.6583424, -0.01766475, -0.7523851, -5.60772, -1.3715497, -2.1895175, 0
440, 2230689734, 0.013677038, -0.658548, -0.018785436, -0.7521795, -5.536969, -0.9003976, -0.3072195, 0
441, 2230706401, 0.013497926, -0.65873986, -0.019753035, -0.7519899, -4.3896728, -0.20048782, 1.3630953, 0
442, 2230723068, 0.013178505, -0.65865165, -0.02072775, -0.7520465, -4.863254, 0.22136047, 0.594018, 0
443, 2230739735, 0.0127334, -0.65878534, -0.021803323, -0.75190675, -3.932335, 0.05157771, -4.8915567, 0
444, 2230756402, 0.01195737, -0.65890676, -0.022907943, -0.75178033, -4.99961, -1.1528093, 1.0050793, 0
445, 2230773069, 0.011005536, -0.6591503, -0.023852944, -0.7515518, -5.1157274, 0.1450432, 1.6392555, 0
446, 2230789736, 0.010076329, -0.65924656, -0.024577424, -0.7514573, -1.6195036, 2.097892, -1.9075627, 0
447, 2230806403, 0.009245746, -0.6589828, -0.025078107, -0.7516826, -1.5143582, 1.4987632, -2.4528847, 0
448, 2230823070, 0.008261979, -0.6588829, -0.025432024, -0.7517698, -1.9814163, 0.16084915, 1.6198578, 0
449, 2230839737, 0.0070652664, -0.6588667, -0.02557309, -0.7517914, -3.160336, 0.43570352, 1.6581793, 0
450, 2230856404, 0.0057716668, -0.65892184, -0.025319103, -0.75176275, -0.16223265, 2.7051036, -2.9653974, 0
451, 2230873071, 0.004606493, -0.65873337, -0.024497043, -0.7519632, -1.7347021, 2.309283, -1.032712, 0
452, 2230889738, 0.0034084097, -0.6585358, -0.023154706, -0.7521849, -1.4160982, 2.8139327, -0.91896915, 0
453, 2230906405, 0.0021780431, -0.658578, -0.021370444, -0.7522054, -4.3342543, 2.6270847, 1.9723816, 0
454, 2230923072, 6.712675E-4, -0.6589457, -0.019661326, -0.7519328, -1.9259609, 1.1946634, -5.3378625, 0
455, 2230939739, -0.0012490451, -0.6593148, -0.018300436, -0.7516429, -0.6147316, 1.9115087, -1.2340899, 0
456, 2230956406, -0.003598243, -0.65970784, -0.017134428, -0.75131786, -4.169831, -0.007418954, 3.2823439, 0
457, 2230973073, -0.006347887, -0.660279, -0.01624778, -0.75081736, -0.3498692, 1.3421944, -2.6775718, 0
458, 2230989740, -0.009351119, -0.66051507, -0.015969623, -0.75058424, -0.90578043, 0.99556965, 0.0023498535, 0
459, 2231006407, -0.012454301, -0.6611348, -0.016172666, -0.7499891, -1.852517, 1.9863987, 1.195651, 0
460, 2231023074, -0.0154838115, -0.66198665, -0.01638297, -0.7491761, 1.0536256, 1.2587903, 1.418499, 0
461, 2231039741, -0.018365227, -0.66246283, -0.016768213, -0.7486814, 3.5204513, -0.2562444, 1.559062, 0
462, 2231056408, -0.020876471, -0.66250753, -0.017254818, -0.7485651, 4.833351, -0.4336936, 1.6797638, 0
463, 2231073075, -0.022939235, -0.6622995, -0.017375246, -0.74868596, 4.569751, -0.454477, 2.0206556, 0
464, 2231089742, -0.024594493, -0.6621544, -0.01710698, -0.74876803, 4.2945757, -0.52579206, 2.7878885, 0
465, 2231106409, -0.02582454, -0.6619768, -0.016843267, -0.74888945, 4.766992, 0.32013375, 0.5296898, 0
466, 2231123076, -0.026455004, -0.6617025, -0.016298503, -0.74912184, 4.580663, 1.2476207, -0.7995901, 0
467, 2231139743, -0.026640337, -0.66132593, -0.015183587, -0.7494713, 3.8161337, 1.3398691, 0.37230396, 0
468, 2231156410, -0.02654799, -0.6613001, -0.013850931, -0.7495231, 2.44896, -0.30547372, 1.3824396, 0
469, 2231173077, -0.0263982, -0.6612962, -0.012470726, -0.7495561, 3.8652296, 0.00531247, -1.0519466, 0
470, 2231189744, -0.0260058, -0.66108483, -0.010913368, -0.74978054, 3.391378, 0.8660532, 0.9710531, 0
471, 2231206411, -0.025406566, -0.6608355, -0.009238452, -0.7500434, 2.2857213, 0.5523871, 0.5668907, 0
472, 2231223078, -0.024695847, -0.66066897, -0.0072954297, -0.75023514, 1.9713856, 0.12894787, 1.0179396, 0
473, 2231239745, -0.023742482, -0.6604861, -0.005294472, -0.75044376, 1.7788835, -0.17499168, 0.64775276, 0
474, 2231256412, -0.022580244, -0.66035944, -0.0034196153, -0.75060195, 1.1664666, -0.26117244, 0.31419086, 0
475, 2231273079, -0.02120388, -0.6603135, -0.0013526753, -0.75068915, 0.92325497, -0.11907407, -0.23215389, 0
476, 2231289746, -0.019716281, -0.66021574, 8.3169714E-4, -0.7508162, 0.77385193, -0.41616178, -1.3471069, 0
477, 2231306413, -0.018082175, -0.6599769, 0.0029416718, -0.75106204, 1.5100223, -0.29707587, -2.0096083, 0
478, 2231323080, -0.016287636, -0.6595271, 0.004778616, -0.75148875, 0.53845364, -0.40684265, 0.228652, 0
479, 2231339747, -0.014482565, -0.65910035, 0.006538421, -0.7518868, 0.40283054, -0.09818184, 1.1094484, 0
480, 2231356414, -0.012716748, -0.6587547, 0.008295059, -0.7522041, -0.4034277, -0.013730513, 3.27641, 0
481, 2231373081, -0.011068616, -0.65865856, 0.00966505, -0.75229794, -0.74874, -0.9765635, 2.0393257, 0
482, 2231389748, -0.0095598325, -0.65866387, 0.010404564, -0.7523043, -0.57127726, -0.43746382, -1.4798307, 0
483, 2231406415, -0.008078944, -0.6586128, 0.010616995, -0.7523633, -0.5719408, -0.43322718, -2.1282568, 0
484, 2231423082, -0.0067810975, -0.6586275, 0.010375179, -0.7523666, -0.9626766, -1.2216959, -1.3172798, 0
485, 2231439749, -0.0056585334, -0.65853745, 0.00960882, -0.75246483, -1.3909229, -2.2271852, -1.0529442, 0
486, 2231456416, -0.0047167093, -0.65825117, 0.008331668, -0.75273705, -0.9586378, -2.011352, 0.16259003, 0
487, 2231473083, -0.003823556, -0.6579549, 0.006616473, -0.7530182, -2.4165971, -1.285763, 0.26789188, 0
488, 2231489750, -0.002780646, -0.657742, 0.0044792034, -0.75322455, -3.0161734, -1.7195259, -1.0894747, 0
489, 2231506417, -0.0017559528, -0.65780425, 0.002421867, -0.75318253, -4.0363946, -1.9444447, 0.58330154, 0
490, 2231523084, -6.796941E-4, -0.65805113, 4.8480555E-4, -0.75297236, -4.267628, -2.1036537, -0.29125023, 0
491, 2231539751, 4.6875328E-4, -0.6584449, -0.0016384311, -0.75262654, -4.0887365, -2.2291706, -0.3268509, 0
492, 2231556418, 0.0015774146, -0.65870774, -0.004147712, -0.75238526, -3.7147613, -1.6858039, -1.060051, 0
493, 2231573085, 0.0026337951, -0.65888846, -0.0067256354, -0.75220543, -4.1952276, -0.55596614, 0.5769777, 0
494, 2231589752, 0.0035865903, -0.6590825, -0.008781638, -0.7520104, -4.6739674, -0.0323283, -1.2757492, 0
495, 2231606419, 0.004482113, -0.6595084, -0.01069824, -0.7516072, -4.8141785, -0.6502414, -1.2489023, 0
496, 2231623086, 0.005302064, -0.6599121, -0.012777261, -0.751215, -4.2502327, -1.3040828, 0.88563824, 0
497, 2231639753, 0.0059913322, -0.66041803, -0.014718693, -0.7507295, -4.473768, 0.039013516, 1.4881439, 0
498, 2231656420, 0.0065569505, -0.66078687, -0.016133547, -0.7503712, -4.065211, 1.1212255, -0.7386589, 0
499, 2231673087, 0.0069977865, -0.66110617, -0.017005023, -0.7500666, -4.141546, 0.5262446, -6.6449, 0
500, 2231689754, 0.007144086, -0.66122377, -0.017781753, -0.7499435, -2.9730742, 0.5631894, -4.240188, 0
501, 2231706421, 0.0072148293, -0.66103905, -0.018703636, -0.75008327, -4.383782, 0.59373504, 4.725233, 0
502, 2231723088, 0.0068493336, -0.6605458, -0.019138057, -0.75051016, -0.9237692, 1.5136081, 7.169832, 0
503, 2231739755, 0.0061937347, -0.65979296, -0.019047678, -0.75118023, -3.0078745, 2.1401262, 5.160838, 0
504, 2231756422, 0.0055625364, -0.6593757, -0.018907938, -0.75155485, -4.2353806, 1.94059, -6.0471025, 0
505, 2231773089, 0.0048815534, -0.65968513, -0.018698279, -0.75129324, -4.8631735, 1.7921537, -9.538521, 0
506, 2231789756, 0.0039191246, -0.66029906, -0.018170644, -0.75077224, -4.549429, 1.444306, -0.6671009, 0
507, 2231806423, 0.0025464967, -0.66070265, -0.017093945, -0.7504483, -2.0276744, 2.356868, 1.6591492, 0
508, 2231823090, 8.5482E-4, -0.66050774, -0.015751809, -0.7506531, 0.67404497, 2.8018193, 6.384697, 0
509, 2231839757, -0.001050204, -0.6597232, -0.01461827, -0.75136524, -0.5867652, 2.4256606, 1.4563808, 0
510, 2231856424, -0.00305672, -0.65923357, -0.013519339, -0.75181, -1.4565521, 3.185254, -4.2093406, 0
511, 2231873091, -0.0053699575, -0.6594136, -0.012334496, -0.7516596, -2.77888, 2.0133662, -5.342348, 0
512, 2231889758, -0.0081526935, -0.6600448, -0.010981716, -0.7511013, 0.27096123, 1.8163165, -3.9972692, 0
513, 2231906425, -0.011243429, -0.66066396, -0.009543836, -0.7505366, 1.3610855, 2.3741848, 3.5621643, 0
514, 2231923092, -0.01433675, -0.6608814, -0.008208528, -0.7503082, 5.7928977, 2.4312007, 2.5136766, 0
515, 2231939759, -0.01684659, -0.660566, -0.007070955, -0.75054526, 5.8434024, 1.0639662, 1.9809828, 0
516, 2231956426, -0.01895557, -0.6607233, -0.006445594, -0.750362, 1.0117364, -1.3909615, -0.88648224, 0
517, 2231973093, -0.020684097, -0.66188043, -0.0058379583, -0.7493009, 2.7712867, -0.53744733, -4.4839253, 0
518, 2231989760, -0.022243861, -0.6629156, -0.005189121, -0.7483452, 5.3923545, -0.69802874, 0.69654083, 0
519, 2232006427, -0.023327567, -0.6633829, -0.0045761988, -0.74790186, 7.700936, -0.03015423, 6.0994453, 0
520, 2232023094, -0.023710087, -0.6630477, -0.0037602745, -0.7481917, 6.536357, 0.28948364, 9.340574, 0
521, 2232039761, -0.02337576, -0.6625056, -0.0027803183, -0.7486866, 4.485757, -0.7551048, 2.9817505, 0
522, 2232056428, -0.022521403, -0.6620019, -0.0018331744, -0.74916106, 2.3620381, -0.7297903, -4.3414407, 0
523, 2232073095, -0.02136758, -0.6619917, -7.537231E-4, -0.74920577, -0.3092263, -0.6779844, -4.175109, 0
524, 2232089762, -0.020043101, -0.66238546, 6.732382E-4, -0.7488943, 1.0439552, -0.933781, 0.56624794, 0
525, 2232106429, -0.018711962, -0.6626158, 0.0019160062, -0.74872285, 2.4814243, -0.80687326, 1.6303978, 0
526, 2232123096, -0.017241042, -0.6623903, 0.002681993, -0.7489553, 3.47394, 0.06800583, 1.8508129, 0
527, 2232139763, -0.015546262, -0.66174054, 0.0033555478, -0.74956393, 1.8904278, -0.01052556, 1.2370968, 0
528, 2232156430, -0.013822794, -0.6612355, 0.004355982, -0.750038, 0.29046968, -0.84044373, 0.42557144, 0
529, 2232173097, -0.012255698, -0.66091293, 0.005109463, -0.7503449, 1.4089408, -2.2975514, 0.03405094, 0
530, 2232189764, -0.01074075, -0.6606293, 0.005133383, -0.7506175, 0.87454003, -0.82944894, 0.4872179, 0
531, 2232206431, -0.009297255, -0.66045356, 0.00484417, -0.75079346, 0.5524794, -0.153814, -1.9220562, 0
532, 2232223098, -0.007884495, -0.66031045, 0.004334446, -0.75093836, 1.3459747, -0.31186584, -1.5334902, 0
533, 2232239765, -0.0067257173, -0.66018075, 0.0035633482, -0.75106776, 0.009488335, -1.4849507, -1.0531235, 0
534, 2232256432, -0.0056953505, -0.66021824, 0.0020650998, -0.7510491, -0.11025439, -1.6326905, 1.6419077, 0
535, 2232273099, -0.004559733, -0.66021746, 5.1323324E-5, -0.75106037, -1.0472826, -0.9589451, 0.2237587, 0
536, 2232289766, -0.0033499151, -0.6602637, -0.0019371994, -0.75102353, -0.8455023, -1.0478721, 0.6058407, 0
537, 2232306433, -0.0020893142, -0.66026884, -0.0041079745, -0.75101477, -1.346574, -2.0978577, -1.6716824, 0
538, 2232323100, -5.706325E-4, -0.66056836, -0.0060827136, -0.75074077, -4.927315, 4.1192946, -1.8072577, 0
539, 2232339767, 0.0010596588, -0.6606371, -0.008574486, -0.7506553, 0.8669854, -8.181811, 1.9871235, 0
540, 2232356434, 0.0015874505, -0.6604456, -0.012408312, -0.7507693, 0.09038248, -2.6879544, -0.016017914, 0
541, 2232373101, 0.0018043593, -0.66029644, -0.014754739, -0.7508576, -1.1847032, 4.8871584, -0.97173405, 0
542, 2232389768, 0.0022289753, -0.66027826, -0.016275618, -0.75084096, -3.1861365, 0.336117, -1.3064785, 0
543, 2232406435, 0.002788268, -0.660676, -0.01783121, -0.7504537, -1.4423581, 3.665205, -1.0136213, 0
544, 2232423102, 0.0033915937, -0.660802, -0.019132718, -0.7503083, -0.32997712, -1.3785205, 2.1869488, 0
545, 2232439769, 0.0029955506, -0.6611716, -0.021420497, -0.7499225, -0.95654345, -1.997328, -0.7377281, 0
546, 2232456436, 0.0021227524, -0.66141784, -0.02308439, -0.7496589, 0.85298246, 4.671417, -1.7329016, 0
547, 2232473103, 7.7557564E-4, -0.6616139, -0.024130728, -0.74945545, 0.47554767, 1.5661664, 1.9840574, 0
548, 2232489770, -7.830411E-4, -0.66163844, -0.025902066, -0.7493746, 3.1659627, -0.042254735, 1.3022327, 0
549, 2232506437, -0.0026195645, -0.6617484, -0.02808543, -0.7491947, -2.5279012, 3.741924, -3.358663, 0
550, 2232523104, -0.0044913627, -0.661727, -0.03040957, -0.74911404, 4.2108626, -0.31588042, 3.3043966, 0
551, 2232539771, -0.0070326105, -0.66130304, -0.03394923, -0.7493168, 1.6083099, 0.061996628, 1.8095903, 0
552, 2232556438, -0.01008644, -0.66128856, -0.037394974, -0.74913067, 0.33804995, 0.4745746, -1.2234898, 0
553, 2232573105, -0.013363965, -0.66154975, -0.040013723, -0.7487134, -2.8979597, 3.0978649, 0.42417526, 0
554, 2232589772, -0.015825357, -0.66181356, -0.041187026, -0.74836844, -1.0487388, 5.887911, 3.0540295, 0
555, 2232606439, -0.017834667, -0.6614879, -0.042111456, -0.74855965, -0.91321373, -1.7646973, -0.37254238, 0
556, 2232623106, -0.020318255, -0.6611416, -0.043912165, -0.748699, -3.2977638, -5.3618793, -1.9960732, 0
557, 2232639773, -0.022777773, -0.6609017, -0.04492793, -0.74877965, -4.7776732, 3.7355347, -2.7850714, 0
558, 2232656440, -0.024832971, -0.6611401, -0.044672266, -0.7485192, -6.3969245, 3.8092625, 0.2155695, 0
559, 2232673107, -0.026598327, -0.6615347, -0.04449705, -0.7481201, -3.715041, -0.3776043, 0.850996, 0
560, 2232689774, -0.028791495, -0.6618349, -0.044530306, -0.74777126, -2.696047, -0.5960068, 0.39369965, 0
561, 2232706441, -0.031066634, -0.6619262, -0.044546165, -0.7475986, -1.7843843, 2.4662433, 0.34028625, 0
562, 2232723108, -0.033218984, -0.6617418, -0.043934166, -0.7477056, -2.5211072, 1.745716, 1.5858355, 0
563, 2232739775, -0.035362303, -0.6615872, -0.04338317, -0.74777627, -2.3694804, -0.20279834, -1.5535374, 0
564, 2232756442, -0.0374311, -0.66142786, -0.04343577, -0.74781334, -2.275939, -0.16361593, -1.7148781, 0
565, 2232773109, -0.039659668, -0.6611442, -0.04297028, -0.7479762, -3.885625, 1.5395162, 0.22752476, 0
566, 2232789776, -0.041778587, -0.66106516, -0.041895572, -0.7479916, -3.0121844, 1.6376919, -2.3794808, 0
567, 2232806443, -0.043486986, -0.66094035, -0.04050261, -0.7480813, -4.9247913, 1.1047418, 1.0748081, 0
568, 2232823110, -0.04501328, -0.6610091, -0.038782693, -0.74802136, -4.178016, 1.017185, -0.1635027, 0
569, 2232839777, -0.046146743, -0.661116, -0.036662314, -0.7479649, -1.5564702, 1.9630103, -1.4178534, 0
570, 2232856444, -0.0471086, -0.6609972, -0.033617172, -0.7481529, -2.642676, 1.8726003, 0.42609978, 0
571, 2232873111, -0.047779616, -0.6609734, -0.030211404, -0.7482766, -3.5011344, 0.5639608, 1.5584011, 0
572, 2232889778, -0.048502535, -0.6612214, -0.027131282, -0.74812907, -1.4095033, -1.2591466, -2.489746, 0
573, 2232906445, -0.049389705, -0.66149485, -0.023841698, -0.74794126, 0.142729, 1.5610431, -0.81331635, 0
574, 2232923112, -0.049841464, -0.6614712, -0.019614816, -0.7480551, -2.4443915, 4.487449, 2.9313574, 0
575, 2232939779, -0.049849354, -0.6612964, -0.014542151, -0.7483248, 1.6866274, 2.2046742, -3.2235093, 0
576, 2232956446, -0.04961604, -0.66097444, -0.010276701, -0.74869543, -2.4410715, -0.38938, 2.517974, 0
577, 2232973113, -0.04968094, -0.6613891, -0.0062477253, -0.74836946, -3.2677934, 2.5521617, -5.6386843, 0
578, 2232989780, -0.049241807, -0.6626628, -0.0014571808, -0.7472956, -0.22280805, 4.0541377, -14.430474, 0
579, 2233006447, -0.0489306, -0.6641347, 0.0029392764, -0.7460039, -2.7290158, -3.8752792, 4.3005123, 0
580, 2233023114, -0.04917244, -0.66575223, 0.0063721836, -0.7445232, 2.2387557, -3.7166066, 8.010469, 0
581, 2233039781, -0.049643353, -0.665879, 0.0092318095, -0.74434865, 8.411112, 1.9825114, 4.7354956, 0
582, 2233056448, -0.04978293, -0.6646238, 0.012365885, -0.74541485, 3.6100307, 3.9836192, 3.2991886, 0
583, 2233073115, -0.049067434, -0.6641206, 0.015650954, -0.7458489, -1.0542749, 2.5812283, 1.6982412, 0
584, 2233089782, -0.04774248, -0.664608, 0.019201707, -0.7454178, 2.4262743, 0.9559491, -1.2518644, 0
585, 2233106449, -0.04665623, -0.6649605, 0.022766031, -0.7450716, 5.158481, -0.17983414, -0.65734005, 0
586, 2233123116, -0.04616303, -0.66492116, 0.025580112, -0.74504626, 8.0411825, -0.3160551, 1.860528, 0
587, 2233139783, -0.046238236, -0.66430813, 0.027078155, -0.74553525, 6.472212, 0.1215317, 5.837429, 0
588, 2233156450, -0.04664471, -0.66374516, 0.027567387, -0.7459934, 3.1564448, 1.5682954, 2.5620413, 0
589, 2233173117, -0.047057606, -0.66348094, 0.027568577, -0.7462025, 1.4037082, 0.89866924, -4.4173603, 0
590, 2233189784, -0.047559325, -0.66366875, 0.027385548, -0.7460103, 1.0016041, -1.4277294, -5.1419673, 0
591, 2233206451, -0.048275653, -0.6640799, 0.026870675, -0.74561703, 2.049032, -1.9986721, -0.24004555, 0
592, 2233223118, -0.049002457, -0.66418904, 0.025884256, -0.7455073, 2.9036562, -0.82107854, 3.0443735, 0
593, 2233239785, -0.04962513, -0.6638744, 0.024549548, -0.7457914, 2.6544867, 0.3763121, 3.6667662, 0
594, 2233256452, -0.050126232, -0.6633746, 0.023379296, -0.7462401, 0.51672834, 1.0681918, 1.7013912, 0
595, 2233273119, -0.050390266, -0.6630312, 0.022517104, -0.74655396, -0.32112357, 0.6359633, -1.6775846, 0
596, 2233289786, -0.05037938, -0.66303587, 0.021711547, -0.74657446, -1.3724244, -1.0932167, -2.6244078, 0
597, 2233306453, -0.050511897, -0.66361344, 0.021104995, -0.74606955, -1.2981974, -1.0430024, -1.2055788, 0
598, 2233323120, -0.05068405, -0.6641595, 0.020822395, -0.74557966, -0.034369122, 0.6199484, 0.65406895, 0
599, 2233339787, -0.05091425, -0.6641899, 0.020990659, -0.74553216, 2.1523836, 2.2085097, -0.6683254, 0
600, 2233356454, -0.0510848, -0.66352934, 0.02124533, -0.74610126, 2.6022613, 1.6918823, 1.5045986, 0
601, 2233373121, -0.051156823, -0.6627388, 0.021533538, -0.74679047, -1.2793866, 0.41158673, 1.3018351, 0
602, 2233389788, -0.05123136, -0.66253775, 0.021874532, -0.74695385, -1.0741237, 0.07374106, -1.0077019, 0
603, 2233406455, -0.051301956, -0.6625403, 0.022483207, -0.7469286, -0.88230515, 0.19260055, 0.45660305, 0
604, 2233423122, -0.0514837, -0.662688, 0.023233812, -0.7467621, -0.4147082, 0.7360447, -0.4309616, 0
605, 2233439789, -0.05147252, -0.662793, 0.023879938, -0.7466493, 1.1174325, 0.5232778, -0.92997456, 0
606, 2233456456, -0.051543932, -0.662343, 0.024544366, -0.7470221, 1.8717363, 0.20164391, -2.035459, 0
607, 2233473123, -0.051725224, -0.66192955, 0.025074698, -0.74735826, 0.67366326, 0.64245725, 0.28123856, 0
608, 2233489790, -0.051950194, -0.66162395, 0.025442462, -0.74760085, -1.6317123, 0.58725864, 2.2997522, 0
609, 2233506457, -0.052373376, -0.66183263, 0.025767613, -0.7473755, -1.3125249, -0.0883332, -0.38891125, 0
610, 2233523124, -0.05276054, -0.66221184, 0.025428545, -0.7470238, -0.22986189, -0.023982702, -0.98455906, 0
611, 2233539791, -0.053309463, -0.6624815, 0.024825107, -0.746766, 0.714812, 0.15602973, -0.18935204, 0
612, 2233556458, -0.054129466, -0.66237026, 0.024087008, -0.7468298, 1.5201931, -0.19492668, 0.28978157, 0
613, 2233573125, -0.05498705, -0.66201246, 0.022987023, -0.7471192, 0.94762385, -0.56499004, 0.8610697, 0
614, 2233589792, -0.05582248, -0.6617485, 0.02183991, -0.7473252, -0.20237795, 0.6421761, 0.5351038, 0
615, 2233606459, -0.05643303, -0.6617556, 0.020809595, -0.7473026, -1.3469746, 0.459691, -0.21932983, 0
616, 2233623126, -0.056925237, -0.6619327, 0.019958347, -0.7471318, -0.31804582, -0.7528572, 0.5800419, 0
617, 2233639793, -0.05750396, -0.6620919, 0.019197322, -0.7469661, -0.16013072, -1.1427752, 0.8812809, 0
618, 2233656460, -0.058080792, -0.6621904, 0.01809379, -0.7468618, -0.42241627, -0.031933066, -0.24304295, 0
619, 2233673127, -0.058721956, -0.6621111, 0.017266314, -0.74690145, 0.07007295, 1.3461972, -0.71326256, 0
620, 2233689794, -0.059317045, -0.66185683, 0.016842254, -0.74708945, -1.8010565, 1.0980903, 0.7995043, 0
621, 2233706461, -0.059836425, -0.66174614, 0.016331218, -0.74715745, -2.4431248, -0.18171734, 0.76847076, 0
622, 2233723128, -0.06045846, -0.661792, 0.015651334, -0.74708134, -2.7570155, -0.6041434, 0.23109245, 0
623, 2233739795, -0.061191514, -0.6618503, 0.014616448, -0.746991, -2.0862846, -0.5879874, 0.11170578, 0
624, 2233756462, -0.06216657, -0.6617203, 0.013349466, -0.7470493, -2.400331, -0.63966525, -1.4818773, 0
625, 2233773129, -0.06320289, -0.6617298, 0.012345534, -0.74697113, -6.2586303, 1.8907849, -2.750348, 0
626, 2233789796, -0.0638551, -0.6620355, 0.0115066655, -0.7466582, -6.2888618, 0.8142465, -3.0925698, 0
627, 2233806463, -0.06439488, -0.66243017, 0.01033584, -0.74627894, -4.5192537, -2.643291, 2.1994133, 0
628, 2233823130, -0.0651999, -0.6623884, 0.008931417, -0.74626404, -3.5975394, -2.3367152, 3.524581, 0
629, 2233839797, -0.065961845, -0.6624123, 0.007984221, -0.7461867, -4.0695877, 0.8143338, 0.54454136, 0
630, 2233856464, -0.066441916, -0.6623568, 0.008067559, -0.74619246, -4.340873, 1.3613139, -5.1021643, 0
631, 2233873131, -0.06661123, -0.6623998, 0.008312762, -0.7461365, -4.0720863, -1.3942126, -2.928207, 0
632, 2233889798, -0.066380315, -0.662531, 0.008937523, -0.7460334, -6.943909, 2.7330582, 1.5840006, 0
633, 2233906465, -0.06551746, -0.6628661, 0.0107380785, -0.7457883, -4.5227304, 1.9414666, -0.69407845, 0
634, 2233923132, -0.0649, -0.66319734, 0.012511097, -0.74552006, -1.4850335, -2.870269, -2.8452182, 0
635, 2233939799, -0.06460165, -0.6632834, 0.013967045, -0.7454436, -2.805029, 0.56370443, -0.8604288, 0
636, 2233956466, -0.06422457, -0.6634948, 0.0155985765, -0.74525565, -3.8470678, 2.1540775, 0.4228611, 0
637, 2233973133, -0.064054154, -0.66415113, 0.016778719, -0.74465984, -2.0077353, -0.8057002, -0.29555893, 0
638, 2233989800, -0.06417095, -0.66492885, 0.017098106, -0.74394804, -0.66458416, 0.897248, -2.2360797, 0
639, 2234006467, -0.06447907, -0.66522974, 0.016760264, -0.7436601, 3.07627, -1.4642648, -3.4082193, 0
640, 2234023134, -0.06515864, -0.66533667, 0.015705962, -0.7435281, 1.630902, -2.1278455, 3.095996, 0
641, 2234039801, -0.06590521, -0.6661167, 0.014259558, -0.74279284, 0.7060667, -0.6682099, 6.0133266, 0
642, 2234056468, -0.06644569, -0.6670171, 0.0130778365, -0.741958, 4.333593, 0.539224, 2.6349697, 0
643, 2234073135, -0.06684704, -0.66708744, 0.012351386, -0.74187106, 5.1067467, -0.39880654, -0.96277237, 0
644, 2234089802, -0.06697248, -0.6668294, 0.012025017, -0.74209714, 3.714545, 1.2403356, -2.0127196, 0
645, 2234106469, -0.06665579, -0.666776, 0.012617271, -0.7421637, 2.1183798, 2.8350768, 1.892108, 0
646, 2234123136, -0.06634061, -0.6669603, 0.014279835, -0.7419962, 3.0451133, 3.8523798, 5.2665167, 0
647, 2234139803, -0.06632856, -0.6667251, 0.016435105, -0.7421639, 5.958004, 2.866628, 1.7124777, 0
648, 2234156470, -0.0669842, -0.66606504, 0.018077262, -0.7426594, 4.71406, 2.3750129, -1.2997513, 0
649, 2234173137, -0.068007536, -0.6656857, 0.019511104, -0.7428703, 1.4821427, 2.7235742, 0.5997, 0
650, 2234189804, -0.06940831, -0.66576135, 0.021794356, -0.7426094, 1.1130327, 3.151603, -0.4629879, 0
651, 2234206471, -0.070836976, -0.66579515, 0.024582427, -0.7423572, 2.533468, 2.626455, 1.3099318, 0
652, 2234223138, -0.07228932, -0.66563946, 0.027352296, -0.7422599, 2.2449565, 2.239095, -0.6710806, 0
653, 2234239805, -0.07360704, -0.6658925, 0.030095974, -0.741797, 0.6897847, 2.3099463, 1.0390491, 0
654, 2234256472, -0.07486782, -0.6663694, 0.0329113, -0.7411228, 1.015281, 2.2382886, -1.4288979, 0
655, 2234273139, -0.07621935, -0.6665401, 0.035907514, -0.7406923, 3.8133612, 1.4041419, 0.8005152, 0
656, 2234289806, -0.0778521, -0.6660446, 0.0381236, -0.7408575, 2.3397365, -0.15168713, 0.13318443, 0
657, 2234306473, -0.07954992, -0.6656335, 0.039361984, -0.7409818, 1.4755905, 0.730614, -0.41895485, 0
658, 2234323140, -0.08127892, -0.66548556, 0.04022722, -0.7408805, -0.97853726, 0.20126654, -0.060498238, 0
659, 2234339807, -0.08294539, -0.6659661, 0.04106416, -0.7402178, -0.81085134, 0.48020083, -0.2031517, 0
660, 2234356474, -0.08462155, -0.6664271, 0.041698664, -0.73957735, 1.9995847, -0.988556, -0.79212093, 0
661, 2234373141, -0.08629513, -0.66667956, 0.041799303, -0.7391506, 1.633653, -0.98364276, 2.7310305, 0
662, 2234389808, -0.08793649, -0.66676635, 0.041630886, -0.7388884, 1.7359408, -0.27576682, 1.2137871, 0
663, 2234406475, -0.089217305, -0.66693884, 0.041325465, -0.7385962, 0.51636434, 0.37185854, -0.71140194, 0
664, 2234423142, -0.09032983, -0.66735315, 0.04136796, -0.7380844, -0.24017738, 0.12537704, -0.29331493, 0
665, 2234439809, -0.09121196, -0.6678159, 0.04140988, -0.73755485, -0.29170018, -0.534112, -0.60767937, 0
666, 2234456476, -0.09211047, -0.6683533, 0.041493222, -0.7369513, 0.676114, -0.059081193, 0.28466702, 0
667, 2234473143, -0.09283397, -0.66853124, 0.041707538, -0.7366871, 0.9260765, 1.0484954, 0.99993706, 0
668, 2234489810, -0.09343688, -0.6686069, 0.042137295, -0.7365176, 0.09559451, 0.5607303, 0.3749714, 0
669, 2234506477, -0.09392788, -0.6686599, 0.042481292, -0.73638725, 0.21449654, 0.49406847, 0.5542793, 0
670, 2234523144, -0.094612315, -0.66877174, 0.042903744, -0.73617357, -0.13135615, 0.5173018, 0.19973373, 0
671, 2234539811, -0.09537735, -0.6688277, 0.04335078, -0.73599803, -0.78335595, 0.95324385, 0.7171049, 0
672, 2234556478, -0.09613914, -0.6691806, 0.044009626, -0.7355386, -1.8207009, 1.3244336, -2.6446161, 0
673, 2234573145, -0.09677827, -0.669735, 0.044775803, -0.73490375, -1.1252433, 1.5730002, -0.3399086, 0
674, 2234589812, -0.09746504, -0.6699416, 0.04585998, -0.7345578, 0.14062558, 1.7301148, 0.40214825, 0
675, 2234606479, -0.098183796, -0.669736, 0.04709824, -0.7345711, 1.1619918, 1.0820132, 1.517415, 0
676, 2234623146, -0.09895347, -0.66937655, 0.048357975, -0.73471355, -1.2862798, 0.9801879, 0.8085213, 0
677, 2234639813, -0.099691615, -0.66949207, 0.04952846, -0.7344306, -2.3898494, 0.9839322, 0.2524624, 0
678, 2234656480, -0.10053635, -0.6698391, 0.050912168, -0.7339041, -2.168721, 1.4933579, -0.96607494, 0
679, 2234673147, -0.10139763, -0.6700167, 0.052634537, -0.73350203, -0.050859753, 1.6604469, -0.55524445, 0
680, 2234689814, -0.10208134, -0.6697374, 0.054586854, -0.73351955, 0.63651305, 0.8157182, -0.6713333, 0
681, 2234706481, -0.10270297, -0.6690893, 0.05648814, -0.7338801, 0.35911143, -0.114723764, 0.27088833, 0
682, 2234723148, -0.103354946, -0.66853714, 0.058364917, -0.7341449, -0.88137525, 1.0376725, 2.5368128, 0
683, 2234739815, -0.10391593, -0.6682175, 0.06022914, -0.7342061, -2.0589967, 1.9577672, -0.48874187, 0
684, 2234756482, -0.10453283, -0.6682956, 0.062334616, -0.73387164, -0.970467, 1.0021068, -1.6983604, 0
685, 2234773149, -0.105062515, -0.66807866, 0.06420111, -0.7338327, 0.1310089, 0.0281331, -0.2878809, 0
686, 2234789816, -0.105594456, -0.6679252, 0.0658165, -0.73375285, 1.397906, -0.48893896, 0.34334087, 0
687, 2234806483, -0.10619225, -0.6675892, 0.0671159, -0.73385465, 0.3802781, 0.13187471, 2.3921509, 0
688, 2234823150, -0.1068637, -0.66737777, 0.06777084, -0.7338893, -0.24988595, -0.4044827, 0.13696098, 0
689, 2234839817, -0.10749647, -0.6673567, 0.0679195, -0.7338024, -0.5192342, -0.038371727, -0.25382328, 0
690, 2234856484, -0.10803571, -0.667484, 0.06784784, -0.73361397, -1.1143479, -0.09442489, -1.0060654, 0
691, 2234873151, -0.10841994, -0.667762, 0.06757716, -0.73332924, -1.424481, -1.4354532, 0.89763737, 0
692, 2234889818, -0.108766034, -0.66791296, 0.06678727, -0.73321295, -0.639125, -2.284099, 0.96309185, 0
693, 2234906485, -0.10908894, -0.6677625, 0.06565529, -0.73340404, -0.51913476, -1.6829216, 1.2838402, 0
694, 2234923152, -0.109217346, -0.66735446, 0.06466698, -0.7338441, -1.9435111, -0.16770291, -0.5941076, 0
695, 2234939819, -0.10907975, -0.6673348, 0.06417905, -0.73392534, -5.004397, 0.3221923, -4.983813, 0
696, 2234956486, -0.10864389, -0.667599, 0.06379053, -0.73378354, -5.538837, -0.8087977, -1.5234051, 0
697, 2234973153, -0.107992604, -0.6678704, 0.06335152, -0.73367083, -4.881688, -1.2488676, 0.62405396, 0
698, 2234989820, -0.10712931, -0.6678032, 0.063157074, -0.7338752, -3.58681, -1.0942454, 2.3787327, 0
699, 2235006487, -0.10603884, -0.6675632, 0.0633936, -0.73423153, -4.4926715, -0.14196599, 1.3988676, 0
700, 2235023154, -0.10468201, -0.66758525, 0.06386432, -0.73436517, -6.502286, -0.2152753, -1.2514429, 0
701, 2235039821, -0.10309285, -0.66786057, 0.06450832, -0.73428345, -5.2075477, 0.48400238, -4.220121, 0
702, 2235056488, -0.10131941, -0.6680533, 0.065483496, -0.7342686, -5.1518316, 0.8938825, -2.949852, 0
703, 2235073155, -0.09971133, -0.66828495, 0.06663441, -0.7341746, -3.9645517, 0.24124028, -1.6523247, 0
704, 2235089822, -0.098485686, -0.6684307, 0.067344576, -0.7341425, -2.7166018, -0.057478886, -1.7680225, 0
705, 2235106489, -0.09765376, -0.6688262, 0.06764691, -0.7338655, -1.4098747, 1.7206929, 0.516963, 0
706, 2235123156, -0.097235955, -0.6690413, 0.06725964, -0.7337607, 3.2838578, -0.78510076, 0.33917904, 0
707, 2235139823, -0.097328395, -0.6695448, 0.06634979, -0.7333718, -0.50825375, -0.0016636349, 1.5509539, 0
708, 2235156490, -0.09784272, -0.67062324, 0.06555279, -0.73238885, 1.2285444, -0.8933878, -1.2754478, 0
709, 2235173157, -0.09836428, -0.6715286, 0.06495887, -0.73154193, 5.2286572, -0.23220171, -1.1741295, 0
710, 2235189824, -0.09899454, -0.67191046, 0.06436792, -0.7311583, 5.720458, 1.3567582, 1.4478683, 0
711, 2235206491, -0.099353604, -0.67192006, 0.06386422, -0.731145, 6.032173, 1.9951173, 4.832999, 0
712, 2235223158, -0.09968415, -0.6716764, 0.06372267, -0.73133624, 6.4830427, 1.4602858, 7.378172, 0
713, 2235239825, -0.100282826, -0.6714044, 0.06380679, -0.7314967, 5.5838375, 1.137196, 4.685829, 0
714, 2235256492, -0.10136233, -0.6712702, 0.06359724, -0.7314894, 5.5452247, 0.037834108, -2.5837479, 0
715, 2235273159, -0.10308927, -0.67123747, 0.063182846, -0.731314, 4.7313147, 0.3528507, -5.3055515, 0
716, 2235289826, -0.10523063, -0.6714306, 0.06318985, -0.730831, 3.3642945, 2.539654, 0.6851654, 0
717, 2235306493, -0.10739079, -0.67175347, 0.064033866, -0.7301464, 2.904552, 2.7654932, 3.4277363, 0
718, 2235323160, -0.109752364, -0.67177206, 0.06541827, -0.7296552, 5.484565, 1.9538631, 0.69518566, 0
719, 2235339827, -0.11218774, -0.6712129, 0.066807844, -0.72967345, 5.5636096, 2.4582665, -1.4883804, 0
720, 2235356494, -0.11453587, -0.6703726, 0.06869082, -0.72990626, 4.3461313, 3.1995296, -0.80342484, 0
721, 2235373161, -0.11689734, -0.6696038, 0.071300074, -0.72998726, 1.0739858, 2.8245952, 1.133647, 0
722, 2235389828, -0.11912979, -0.6693733, 0.07390009, -0.72957915, 1.8829983, 1.2594343, 1.005847, 0
723, 2235406495, -0.12126817, -0.66913706, 0.076355375, -0.7291907, 3.3944936, 0.5185556, 1.0117636, 0
724, 2235423162, -0.123274565, -0.66870284, 0.07863906, -0.72900987, 1.9693698, 0.10347747, -0.54582787, 0
725, 2235439829, -0.12493382, -0.6686953, 0.08104269, -0.7284708, -0.5049947, 0.95871454, 0.060580254, 0
726, 2235456496, -0.1262232, -0.66894484, 0.08390495, -0.7276949, 0.40379092, 0.74742705, -1.3771877, 0
727, 2235473163, -0.127031, -0.66896546, 0.08693813, -0.72717905, 0.61789376, -0.10053811, -0.3782673, 0
728, 2235489830, -0.1276857, -0.6685292, 0.08981269, -0.7271163, 2.285803, -1.1240042, 2.3422356, 0
729, 2235506497, -0.12817281, -0.6680693, 0.09233029, -0.727138, -2.0984097, -0.14295709, 2.0320644, 0
730, 2235523164, -0.12858312, -0.66810656, 0.09486002, -0.72670555, -1.2325262, 0.08914884, -1.8482409, 0
731, 2235539831, -0.12877266, -0.66792154, 0.09722937, -0.7265289, 0.22675878, -1.1544905, -2.9556785, 0
732, 2235556498, -0.12883818, -0.6677542, 0.09914544, -0.72641206, -0.7792213, -0.88066196, -1.4448586, 0
733, 2235573165, -0.12852976, -0.66761255, 0.10064638, -0.72639066, -0.8500733, 0.8323282, 1.0590191, 0
734, 2235589832, -0.1282542, -0.66794944, 0.101596355, -0.7259972, -4.333711, -4.9405932, -1.4235516, 0
735, 2235606499, -0.12690389, -0.66802824, 0.10321984, -0.72593313, 0.15132, 6.387087, 2.825838, 0
736, 2235623166, -0.12496432, -0.6684489, 0.10517041, -0.72560227, -3.1537764, -3.7319481, -1.5064745, 0
737, 2235639833, -0.12308761, -0.6692013, 0.10586983, -0.7251275, 0.36935094, -5.1937504, 0.08815479, 0
738, 2235656500, -0.12113471, -0.66988707, 0.106052995, -0.7247965, -0.29873464, -1.1071727, 2.2559128, 0
739, 2235673167, -0.11918302, -0.6704251, 0.106217645, -0.72459835, 1.3494182, -0.648142, 1.1696882, 0
740, 2235689834, -0.11711715, -0.67069024, 0.10636003, -0.724669, 0.7462938, -3.1153438, 0.8647289, 0
741, 2235706501, -0.11513695, -0.6712062, 0.10533386, -0.72465855, -0.4125957, -5.411073, -0.31891823, 0
742, 2235723168, -0.11347449, -0.67171484, 0.10340999, -0.7247267, 0.3403555, -1.4660957, -2.2110553, 0
743, 2235739835, -0.11151366, -0.67174333, 0.10244064, -0.72514194, 2.4689863, 1.2614521, 2.9047928, 0
744, 2235756502, -0.109168515, -0.67124003, 0.10247169, -0.72595996, 2.094556, -0.49418268, 2.6984854, 0
745, 2235773169, -0.10711843, -0.67098314, 0.10158691, -0.726627, 0.23108444, -6.865966, 2.2560558, 0
746, 2235789836, -0.10588696, -0.6714428, 0.09898338, -0.72674227, -0.89701307, -4.4586444, 0.4954996, 0
747, 2235806503, -0.10470249, -0.67233163, 0.09690258, -0.7263724, -1.1664897, 3.840248, -0.96943283, 0
748, 2235823170, -0.10266627, -0.67341167, 0.096738294, -0.7256841, -2.6503656, 6.4563346, -4.397605, 0
749, 2235839837, -0.10064618, -0.6743942, 0.09640165, -0.72509927, -0.5768133, -5.8474154, -3.2583375, 0
750, 2235856504, -0.09932327, -0.6750428, 0.09500249, -0.7248626, -0.8498451, -2.9290385, 5.8002167, 0
751, 2235873171, -0.09783284, -0.6749968, 0.09457381, -0.72516435, -0.2724748, 4.886794, 1.8352451, 0
752, 2235889838, -0.09602416, -0.67493117, 0.09550303, -0.7253455, -1.6557593, 0.78794765, -2.152738, 0
753, 2235906505, -0.09459535, -0.67535275, 0.09606777, -0.7250661, -3.7184815, -2.8789916, 1.1877956, 0
754, 2235923172, -0.09337817, -0.67599934, 0.095878065, -0.7246463, -1.9078472, 0.9185102, -1.0191889, 0
755, 2235939839, -0.09230466, -0.67615443, 0.0960806, -0.72461236, -0.44987962, 3.2794094, -1.0713549, 0
756, 2235956506, -0.09170164, -0.6755985, 0.09695786, -0.72509027, -0.82737887, 1.1625131, -0.19310284, 0
757, 2235973173, -0.09161777, -0.6749367, 0.09733969, -0.725666, -3.197654, -0.9323997, 2.4858265, 0
758, 2235989840, -0.09168817, -0.6747012, 0.09689951, -0.72593504, -4.336156, 1.8624635, -2.3329759, 0
759, 2236006507, -0.09171921, -0.6748823, 0.096407324, -0.72582823, -2.560985, 1.4792993, -3.6324816, 0
760, 2236023174, -0.0920086, -0.67525876, 0.09554943, -0.7255549, -2.9679263, -2.3817174, 0.14412117, 0
761, 2236039841, -0.09273577, -0.67587686, 0.09460097, -0.7250107, -3.0901728, -1.1112524, 6.306095, 0
762, 2236056508, -0.09350062, -0.6761467, 0.09417659, -0.724716, -0.95056105, 2.4695144, -0.37102222, 0
763, 2236073175, -0.093672246, -0.6760862, 0.094119966, -0.7247578, 0.28300014, 1.9103004, -1.0302086, 0
764, 2236089842, -0.09362316, -0.6757182, 0.09406299, -0.7251145, -1.7104125, -0.40431258, -0.25366879, 0
765, 2236106509, -0.09366027, -0.67539036, 0.093743026, -0.72545666, -0.79153, -0.83228874, -3.7828298, 0
766, 2236123176, -0.0938929, -0.67504495, 0.09337853, -0.72579485, -1.6208677, 0.27453497, 1.425808, 0
767, 2236139843, -0.09437218, -0.6750211, 0.09337242, -0.72575575, -3.908595, 1.6011312, 5.19761, 0
768, 2236156510, -0.094898365, -0.6753352, 0.09324074, -0.72541153, 0.62672794, 1.2278833, -0.544837, 0
769, 2236173177, -0.09575175, -0.67568123, 0.092525825, -0.72506887, 1.5217187, -0.10171985, -4.237236, 0
770, 2236189844, -0.09732892, -0.6761136, 0.091248356, -0.72461754, 3.6944482, 0.36974782, -3.1150365, 0
771, 2236206511, -0.09949128, -0.67686576, 0.08961515, -0.7238252, 1.9944563, 1.5772307, 3.590207, 0
772, 2236223178, -0.102133445, -0.67789054, 0.087804005, -0.72271913, 3.8938859, 1.4118612, -2.0822706, 0
773, 2236239845, -0.105080105, -0.6785331, 0.085613, -0.7219563, 6.1619925, 0.33429962, -5.5654387, 0
774, 2236256512, -0.108382404, -0.67892766, 0.08342101, -0.72135365, 1.5395073, 1.8999095, 1.8311949, 0
775, 2236273179, -0.11176048, -0.6803184, 0.081748664, -0.71971726, 1.4770083, 1.0715652, -4.9087515, 0
776, 2236289846, -0.114407584, -0.6817171, 0.081196845, -0.7180385, 2.2884753, 4.6831255, 11.358221, 0
777, 2236306513, -0.11677894, -0.6829211, 0.08029502, -0.7166126, 3.8434832, -3.8666945, 3.4862623, 0
778, 2236323180, -0.11882366, -0.6831379, 0.07917044, -0.7161946, 5.570183, 0.45955607, -5.097475, 0
779, 2236339847, -0.12078856, -0.68361706, 0.07890849, -0.7154375, -0.9912092, 0.26512077, -1.5138063, 0
780, 2236356514, -0.12279251, -0.6847111, 0.07885774, -0.7140544, 2.2216442, -2.412635, 0.3321123, 0
781, 2236373181, -0.12471907, -0.68509454, 0.078108534, -0.71343464, 6.845415, -2.5752597, 8.452551, 0
782, 2236389848, -0.12633067, -0.6847773, 0.077262685, -0.7135477, 7.076313, 0.2576741, 5.7668476, 0
783, 2236406515, -0.12758783, -0.68412197, 0.07693803, -0.7139876, 5.8280516, -0.09378267, -1.9567981, 0
784, 2236423182, -0.12871607, -0.6834561, 0.076928765, -0.71442366, 2.116612, -0.51652277, -5.8515453, 0
785, 2236439849, -0.12960532, -0.6837121, 0.07687366, -0.71402377, -0.117786035, 0.6074332, 1.0655451, 0
786, 2236456516, -0.13041356, -0.68448865, 0.077211656, -0.71309566, 2.4714198, 1.4247234, 2.1478233, 0
787, 2236473183, -0.1310558, -0.6848372, 0.07769712, -0.7125903, 5.658102, -1.0477918, 1.2001963, 0
788, 2236489850, -0.13167864, -0.6842867, 0.07834396, -0.7129334, 4.5786405, -1.2622634, -2.982335, 0
789, 2236506517, -0.13198543, -0.6833049, 0.07961607, -0.71367717, 2.388274, 0.58472794, -2.1602025, 0
790, 2236523184, -0.13189082, -0.68247813, 0.081718035, -0.7142477, -0.5146154, 1.5753495, 0.50640774, 0
791, 2236539851, -0.13170087, -0.6822241, 0.084603265, -0.71418965, -1.3391489, 0.8127331, 4.3128347, 0
792, 2236556518, -0.13142505, -0.6822994, 0.08746537, -0.7138237, 0.5185856, 0.5353561, 2.7884455, 0
793, 2236573185, -0.13115326, -0.6822562, 0.090630196, -0.71352017, 2.246436, 0.9488264, -2.3458514, 0
794, 2236589852, -0.13089448, -0.6817804, 0.09396972, -0.7135905, 1.8022491, 0.64702654, -2.1243596, 0
795, 2236606519, -0.13054681, -0.681027, 0.09710375, -0.7139539, 0.9552862, 0.37849432, -2.6598125, 0
796, 2236623186, -0.1303165, -0.680108, 0.10028876, -0.71443135, 1.0935531, 0.37597734, 1.0678043, 0
797, 2236639853, -0.12995943, -0.67916936, 0.103054404, -0.7149956, -0.7122247, 0.698154, 1.9348564, 0
798, 2236656520, -0.12957901, -0.67866576, 0.10593989, -0.7151212, -1.4101005, 0.6519167, 0.8830948, 0
799, 2236673187, -0.12941757, -0.6784437, 0.10874486, -0.71494, -1.0601736, 0.23936352, -0.5945072, 0
800, 2236689854, -0.12928152, -0.6784185, 0.11072571, -0.7146844, 0.020692669, -0.37799868, -3.465331, 0
801, 2236706521, -0.12925532, -0.67799765, 0.112296745, -0.71484333, 1.3349539, -0.29977965, 0.9515457, 0
802, 2236723188, -0.129273, -0.6773021, 0.11379075, -0.7152631, -1.2265556, 0.4380171, -0.02128601, 0
803, 2236739855, -0.12924023, -0.676858, 0.1148434, -0.7155211, -1.2895236, -1.0887234, 1.3314495, 0
804, 2236756522, -0.12946206, -0.67658794, 0.1155505, -0.71562266, -2.3737235, -0.9387574, -0.58843994, 0
805, 2236773189, -0.12946212, -0.67670274, 0.11620179, -0.7154085, -2.667437, 0.53232336, -2.0050297, 0
806, 2236789856, -0.12914649, -0.6770182, 0.116897054, -0.7150539, -2.6718118, 0.3383617, -3.0513988, 0
807, 2236806523, -0.12865539, -0.6774932, 0.117579356, -0.71458036, -2.2828975, -0.6619846, 0.35977268, 0
808, 2236823190, -0.12817635, -0.6774821, 0.117847726, -0.71463287, 0.103242494, -1.706644, 0.57357883, 0
809, 2236839857, -0.12790972, -0.6768105, 0.11799757, -0.71529204, 1.5486089, -1.0437096, 5.0202427, 0
810, 2236856524, -0.1276829, -0.6757303, 0.11835736, -0.71629393, -0.49678856, 0.18113154, 3.4247828, 0
811, 2236873191, -0.1273449, -0.6753285, 0.11883132, -0.71665406, -3.7339659, 1.55691, -1.995297, 0
812, 2236889858, -0.12667055, -0.67571616, 0.11930671, -0.71632916, -4.7716637, 2.552994, -7.199589, 0
813, 2236906525, -0.12579218, -0.67635393, 0.11969619, -0.7158169, -2.9585083, 0.6810265, -3.9768, 0
814, 2236923192, -0.12547274, -0.67605805, 0.120116845, -0.7160821, 0.2602551, -1.4818449, 2.3010826, 0
815, 2236939859, -0.12565407, -0.6754289, 0.120442115, -0.71658903, -1.250407, -1.2554941, 8.615847, 0
816, 2236956526, -0.12611571, -0.6752152, 0.12067272, -0.71667063, -1.8804941, 1.0314616, 3.28222, 0
817, 2236973193, -0.1263874, -0.67516786, 0.120985076, -0.7166146, -1.3046095, 3.319674, -2.5603986, 0
818, 2236989860, -0.1263118, -0.675043, 0.12151127, -0.7166567, -2.5059586, 3.327125, -10.916687, 0
819, 2237006527, -0.12648247, -0.6743906, 0.12194706, -0.7171664, -0.029532082, -0.10092148, -8.119874, 0
820, 2237023194, -0.1272159, -0.67307925, 0.12213811, -0.71823555, -1.7947354, -0.49891293, 9.65188, 0
821, 2237039861, -0.12806879, -0.6735397, 0.1225805, -0.71757656, -8.500007, 1.063315, 14.952208, 0
822, 2237056528, -0.12903863, -0.6749165, 0.1228379, -0.7160636, -0.5945066, 1.5635226, 1.3379889, 0
823, 2237073195, -0.12970741, -0.6757587, 0.12291592, -0.71513456, 1.3180591, 1.5026773, -7.7990904, 0
824, 2237089862, -0.13024655, -0.6757603, 0.12333929, -0.71496195, -1.5507663, 2.9386303, -8.877133, 0
825, 2237106529, -0.13082698, -0.67532843, 0.12461102, -0.7150435, -0.5881614, 1.0752028, -4.6901584, 0
826, 2237123196, -0.13158298, -0.6751222, 0.12580082, -0.71489114, -3.6770175, -0.8885075, 12.549852, 0
827, 2237139863, -0.13261004, -0.67564976, 0.12552851, -0.7142507, -3.713671, -1.4156578, 6.917095, 0
828, 2237156530, -0.13368416, -0.6764523, 0.124378294, -0.7134917, -0.07020943, 1.148939, -3.2112498, 0
829, 2237173197, -0.13490419, -0.67716485, 0.12379961, -0.7126862, -0.21016592, 3.3483858, -9.005203, 0
830, 2237189864, -0.13619557, -0.6773308, 0.12386646, -0.71227103, -0.33765832, 0.9449293, 1.4678116, 0
831, 2237206531, -0.13789096, -0.67754734, 0.123274, -0.71184164, -3.39017, -2.707344, 4.6840544, 0
832, 2237223198, -0.13965529, -0.6785411, 0.12184503, -0.71079654, -0.58889705, 0.7438664, -3.8908987, 0
833, 2237239865, -0.14112121, -0.6804703, 0.121137775, -0.7087806, -0.4392542, 3.2257156, -9.690016, 0
834, 2237256532, -0.14256033, -0.6828296, 0.121130444, -0.7062201, 3.5526617, 0.6089218, -6.3801565, 0
835, 2237273199, -0.14425167, -0.68342024, 0.12044008, -0.705423, 4.0810933, -0.747675, 12.96179, 0
836, 2237289866, -0.14644527, -0.68316483, 0.11946428, -0.7053845, 9.758633, -3.3167748, 3.9809303, 0
837, 2237306533, -0.14851192, -0.6827963, 0.119074404, -0.70537525, 7.143561, -1.8771935, 4.1440296, 0
838, 2237323200, -0.15039125, -0.682585, 0.118487746, -0.7052801, -1.467463, -0.33874622, -7.1073933, 0
839, 2237339867, -0.15186656, -0.6839223, 0.11771437, -0.7037965, 0.17345999, 2.9712763, -10.440348, 0
840, 2237356534, -0.15310222, -0.68534076, 0.11761448, -0.70216376, 4.8756185, 1.4696655, 7.4994545, 0
841, 2237373201, -0.15426558, -0.68575066, 0.11777801, -0.70148116, 8.701989, -4.3838053, 13.090408, 0
842, 2237389868, -0.1553429, -0.6850872, 0.11742967, -0.70194995, 9.598731, -5.8728614, 5.2634783, 0
843, 2237406535, -0.15619783, -0.6839429, 0.11683775, -0.7029742, 4.954858, -3.0838377, -4.6930366, 0
844, 2237423202, -0.15689564, -0.6836981, 0.116221175, -0.703159, 0.6520274, -1.3435069, -7.2445354, 0
845, 2237439869, -0.15788493, -0.6842456, 0.11567187, -0.7024953, 0.9131749, 0.8526868, -2.0097308, 0
846, 2237456536, -0.15857476, -0.68454033, 0.114666544, -0.7022176, 5.03873, -2.067861, 3.4858074, 0
847, 2237473203, -0.15934455, -0.6842944, 0.11325195, -0.7025126, 5.351831, -0.9104536, 6.474127, 0
848, 2237489870, -0.1597898, -0.68381274, 0.112357944, -0.7030238, 4.11571, -0.16823205, 0.47874928, 0
849, 2237506537, -0.16028851, -0.6834654, 0.11202921, -0.7033004, 0.9053005, -1.3059636, -4.101658, 0
850, 2237523204, -0.16083817, -0.6836288, 0.11172544, -0.70306444, 0.13340569, -0.72168684, -4.5760956, 0
851, 2237539871, -0.16117662, -0.6838731, 0.11134522, -0.70280945, 1.8944476, 0.26774177, 1.0280542, 0
852, 2237556538, -0.16138774, -0.68377125, 0.11179814, -0.7027882, 2.338666, 1.6908239, 2.9434433, 0
853, 2237573205, -0.1614168, -0.6833111, 0.113304436, -0.7029879, 2.2577534, 0.23541468, 0.16967964, 0
854, 2237589872, -0.161322, -0.6826367, 0.11553624, -0.70330155, 0.71655774, -0.09899445, -0.8551903, 0
855, 2237606539, -0.16092058, -0.6822236, 0.118478835, -0.7033049, 0.36746, 0.6472184, 0.2746992, 0
856, 2237623206, -0.16029097, -0.68173045, 0.12177199, -0.70336425, 1.2073324, 1.1034201, 2.2007856, 0
857, 2237639873, -0.15950662, -0.68103224, 0.12557292, -0.7035507, 1.8737551, 1.8458521, 1.3584375, 0
858, 2237656540, -0.15866461, -0.6800179, 0.12977423, -0.7039597, 1.8541118, 1.0856117, -3.1480374, 0
859, 2237673207, -0.15785637, -0.67882097, 0.13402791, -0.7044993, 0.83906716, 0.009107203, 0.06658077, 0
860, 2237689874, -0.15719242, -0.6779753, 0.13782409, -0.7047297, -0.94878, 0.24156806, 0.12539577, 0
861, 2237706541, -0.15677238, -0.6773413, 0.14099348, -0.7048059, 0.1323556, 0.27937016, -0.81427956, 0
862, 2237723208, -0.15652032, -0.6766912, 0.14399195, -0.70488024, -4.3740787E-4, 0.81370205, 0.9892721, 0
863, 2237739875, -0.15636215, -0.67607236, 0.14694145, -0.7049005, -0.6378586, 0.7996146, -0.3096857, 0
864, 2237756542, -0.15621053, -0.67575264, 0.14943846, -0.7047156, -1.6290649, 0.16899541, -1.8802576, 0
865, 2237773209, -0.15608859, -0.67553866, 0.15109232, -0.7045952, -0.9006915, -0.9108331, -2.0331154, 0
866, 2237789876, -0.15611753, -0.675154, 0.15220356, -0.70471835, -0.5622032, -0.554121, 1.5138445, 0
867, 2237806543, -0.15626277, -0.67467713, 0.15310669, -0.7049473, -1.335896, 0.2645322, 0.40750313, 0
868, 2237823210, -0.15647757, -0.6745835, 0.15371513, -0.70485675, -2.764411, -0.3415858, -1.0345125, 0
869, 2237839877, -0.15672159, -0.6748922, 0.1538172, -0.7044847, -2.0275195, -0.8821804, -0.0071516037, 0
870, 2237856544, -0.15682223, -0.6752469, 0.15398756, -0.70408505, -1.493673, 0.07596358, 0.33267307, 0
871, 2237873211, -0.1566744, -0.6753639, 0.15451461, -0.7038901, -0.21190985, 0.23860751, 1.148653, 0
872, 2237889878, -0.15633503, -0.67515874, 0.15526253, -0.70399785, -0.6432927, -0.0823976, -0.5500603, 0
873, 2237906545, -0.15597646, -0.6747383, 0.15616424, -0.70428103, -0.88781214, -0.27740997, -0.51617527, 0
874, 2237923212, -0.15553889, -0.6742393, 0.15727077, -0.7046093, -1.168564, 0.8091522, 0.20318031, 0
875, 2237939879, -0.15495634, -0.67378074, 0.1588389, -0.7048245, -1.6766962, 0.77813244, 0.15959167, 0
876, 2237956546, -0.15428759, -0.67343014, 0.16067283, -0.70489067, -1.2241911, 0.26922733, -0.8282223, 0
877, 2237973213, -0.15353647, -0.6730805, 0.16242093, -0.704988, -1.1223776, 0.28968742, 1.0782261, 0
878, 2237989880, -0.1528298, -0.6727351, 0.16417581, -0.7050648, 0.009799988, 0.4838424, 0.33288097, 0
879, 2238006547, -0.15217318, -0.6721549, 0.16570792, -0.7054016, 0.73513854, -0.24452071, 0.3284273, 0
880, 2238023214, -0.1517035, -0.6715632, 0.16682307, -0.7058032, -1.0274061, -0.10306138, -0.44209194, 0
881, 2238039881, -0.15143502, -0.67113787, 0.16760951, -0.70607907, -1.3519545, 0.22449116, -2.3051996, 0
882, 2238056548, -0.15119858, -0.67115307, 0.1679903, -0.706025, -2.268497, 0.15308224, 0.14750671, 0
883, 2238073215, -0.15110642, -0.67137367, 0.16810171, -0.7058083, -0.99096847, -0.9074853, 0.5427847, 0
884, 2238089882, -0.15122356, -0.6714959, 0.16770092, -0.70576215, -0.11200666, -0.781641, 0.93262005, 0
885, 2238106549, -0.15147689, -0.67162883, 0.16679573, -0.7057962, -0.1404393, -0.3531862, 2.1504593, 0
886, 2238123216, -0.1518291, -0.6718381, 0.1658868, -0.70573545, -1.9477247, 0.11198323, -0.16000175, 0
887, 2238139883, -0.15220308, -0.6722282, 0.1646596, -0.7055706, -1.5550042, -0.2948027, -2.8724208, 0
888, 2238156550, -0.15264632, -0.6726948, 0.16324274, -0.7053595, -1.9554894, -0.029960962, 0.5897217, 0
889, 2238173217, -0.15292747, -0.6734567, 0.16184957, -0.7048924, -3.4855347, 0.105403796, 0.596159, 0
890, 2238189884, -0.15329087, -0.67423224, 0.16057657, -0.70436305, -0.5722908, -0.054245587, 0.18161392, 0
891, 2238206551, -0.15367375, -0.6746281, 0.15943485, -0.70415986, -1.4041963, 0.17404898, 4.2673826, 0
892, 2238223218, -0.15395236, -0.6750165, 0.15848593, -0.703941, -2.0189207, 1.0243628, -2.7649856, 0
893, 2238239885, -0.15420417, -0.6755803, 0.15788938, -0.7034792, -2.9370306, 1.8191974, -3.636527, 0
894, 2238256552, -0.15456071, -0.6760245, 0.1574651, -0.7030691, -2.4848032, 0.81101125, 0.5269823, 0
895, 2238273219, -0.15516022, -0.6763131, 0.15703438, -0.7027556, -2.0320106, 0.37304264, 1.8893299, 0
896, 2238289886, -0.15612328, -0.67638654, 0.1566472, -0.70255804, -1.336763, 1.5619478, 2.8888884, 0
897, 2238306553, -0.15713766, -0.6764743, 0.15637332, -0.70230854, -1.8274418, 2.1021085, -1.1678953, 0
898, 2238323220, -0.1582587, -0.6766149, 0.15622005, -0.7019552, 0.18189155, 1.6601945, -2.382893, 0
899, 2238339887, -0.15952563, -0.67662317, 0.15613167, -0.70168006, 1.1863595, 1.8807172, -1.8150892, 0
900, 2238356554, -0.16098267, -0.6769406, 0.15585878, -0.7011016, 0.8637625, -0.6304059, -2.3597589, 0
901, 2238373221, -0.16287169, -0.677345, 0.15563524, -0.7003239, 3.8714826, 0.6771596, -0.20800781, 0
902, 2238389888, -0.16436231, -0.67770433, 0.15618742, -0.69950455, 6.302006, 0.79572535, -3.3481073, 0
903, 2238406555, -0.16573337, -0.6781739, 0.15672663, -0.69860494, 5.5466146, -3.6252108, 0.3427019, 0
904, 2238423222, -0.16724569, -0.67857885, 0.15685773, -0.6978214, 5.4656916, -4.1279054, -0.495471, 0
905, 2238439889, -0.16872254, -0.67886895, 0.15696985, -0.6971583, 7.532984, -1.876269, 1.6276846, 0
906, 2238456556, -0.17008121, -0.67893654, 0.15726063, -0.69669646, 5.7441278, -2.052544, 0.79868317, 0
907, 2238473223, -0.17101529, -0.67895836, 0.15743749, -0.69640654, 5.4828267, -3.0916436, 2.9817047, 0
908, 2238489890, -0.17144038, -0.6788959, 0.15776686, -0.6962885, 5.670026, -2.7098644, 2.9196558, 0
909, 2238506557, -0.17156789, -0.6785782, 0.15842691, -0.69641674, 5.783311, -2.6498215, 1.8277359, 0
910, 2238523224, -0.1715222, -0.67790633, 0.15936467, -0.6968683, 5.0272665, -2.1613646, 0.80498123, 0
911, 2238539891, -0.17133993, -0.6771499, 0.16057763, -0.69737, 2.4827604, -0.40542534, -1.0226831, 0
912, 2238556558, -0.17100176, -0.6765081, 0.16202846, -0.69774014, 2.1599305, 1.1438633, -0.24369812, 0
913, 2238573225, -0.17080727, -0.67589396, 0.16348676, -0.6980428, 1.837792, 1.1853764, 0.5626583, 0
914, 2238589892, -0.1708456, -0.67507106, 0.16483605, -0.698512, 2.082595, -0.18759498, 0.9830179, 0
915, 2238606559, -0.17117178, -0.6739079, 0.16613947, -0.69924635, 1.0657688, -0.59957767, 2.2850199, 0
916, 2238623226, -0.17149012, -0.67277855, 0.16738725, -0.6999578, -0.46966583, -0.17260917, 0.8840008, 0
917, 2238639893, -0.17181718, -0.67185366, 0.16837803, -0.7005282, 0.21104746, 0.5676564, -2.669726, 0
918, 2238656560, -0.17229943, -0.6710127, 0.16924493, -0.7010067, -0.68080086, -0.5708115, -0.7916479, 0
919, 2238673227, -0.17304385, -0.67050076, 0.17007636, -0.7011121, -1.1925224, 1.6318177, -0.37206936, 0
920, 2238689894, -0.17381728, -0.67036176, 0.17113039, -0.7007971, -0.5827063, 1.1562066, -0.66798306, 0
921, 2238706561, -0.17465603, -0.6701937, 0.17207056, -0.70051885, -0.56604105, 0.9095014, -1.5457745, 0
922, 2238723228, -0.17530882, -0.67008704, 0.17295909, -0.7002392, 0.014786856, 0.07807749, -1.7989693, 0
923, 2238739895, -0.17563397, -0.6701408, 0.17397954, -0.6998535, -1.1439306, -0.48791108, 0.9427042, 0
924, 2238756562, -0.17562532, -0.6704243, 0.17525995, -0.69926405, -2.0498896, -1.0213317, -0.3179102, 0
925, 2238773229, -0.17545475, -0.6708075, 0.17673923, -0.69856673, -0.55069005, -0.29078618, -2.0790124, 0
926, 2238789896, -0.17467713, -0.67102116, 0.17895406, -0.6979922, -0.72704405, -0.6752019, 0.51581097, 0
927, 2238806563, -0.17452338, -0.6707887, 0.17999884, -0.6979856, -0.9165388, -6.304585, -1.4559631, 0
928, 2238823230, -0.17413779, -0.67052823, 0.18129401, -0.69799703, 1.7115154, 1.9746554, 1.8968496, 0
929, 2238839897, -0.1734946, -0.6701518, 0.18359588, -0.6979171, -0.15809421, 1.9397016, -0.8538418, 0
930, 2238856564, -0.1723101, -0.6699742, 0.18571478, -0.69782025, 1.1135805, -0.24409185, -2.0327268, 0
931, 2238873231, -0.17121384, -0.6697948, 0.18700483, -0.6979179, 1.149254, -2.13379, 0.8718767, 0
932, 2238889898, -0.1704731, -0.6698573, 0.1875357, -0.69789684, 0.82371694, -2.2321382, 1.8155441, 0
933, 2238906565, -0.17010799, -0.66991436, 0.18761823, -0.69790894, 2.364285, -2.3810985, 1.8197565, 0
934, 2238923232, -0.17006955, -0.66988957, 0.18756914, -0.69795513, 1.4643748, -1.7545575, -0.068255424, 0
935, 2238939899, -0.16955732, -0.67007065, 0.18805563, -0.6977752, -0.5300274, 9.162582, -2.911522, 0
936, 2238956566, -0.16893016, -0.67024106, 0.18785429, -0.69781786, -0.61372167, -9.450287, 0.30682945, 0
937, 2238973233, -0.1694966, -0.67073643, 0.18370779, -0.6983082, 0.7488649, -6.844639, 3.2210903, 0
938, 2238989900, -0.1703233, -0.6711374, 0.18008536, -0.6986652, 6.4505396, 6.230708, -1.8404374, 0
939, 2239006567, -0.17141443, -0.67154056, 0.1785429, -0.6984068, -2.397696, 0.8605887, -0.5795517, 0
940, 2239023234, -0.1730801, -0.6726564, 0.17634615, -0.69747996, -1.1885422, -3.7546918, -0.09166908, 0
941, 2239039901, -0.17492618, -0.6735447, 0.17262492, -0.69709283, 0.9787144, -0.8292966, 3.0696926, 0
942, 2239056568, -0.1766578, -0.67393696, 0.16913077, -0.6971334, 1.5441793, 3.498594, 3.327382, 0
943, 2239073235, -0.17854458, -0.6739398, 0.16719024, -0.6971181, -2.9316847, -0.2718498, -2.7835503, 0
944, 2239089902, -0.18029651, -0.6743995, 0.16557318, -0.6966085, -3.8647022, 0.24001335, -2.942408, 0
945, 2239106569, -0.1816105, -0.67540807, 0.16312712, -0.6958668, -2.853327, 0.9433489, -1.2805681, 0
946, 2239123236, -0.18266204, -0.6761733, 0.1608926, -0.6953684, -0.57178754, 2.3449495, 0.08276844, 0
947, 2239139903, -0.18409158, -0.6762212, 0.16001669, -0.6951469, 0.31785065, 1.5132242, 0.55064297, 0
948, 2239156570, -0.18588775, -0.6758051, 0.15966773, -0.69515395, -1.9283037, 0.38288987, 1.8218107, 0
949, 2239173237, -0.18761444, -0.67607516, 0.1585374, -0.6946859, -1.1800585, 0.54306805, -2.0060124, 0
950, 2239189904, -0.18925178, -0.6765297, 0.15711798, -0.6941215, -0.9887249, 2.200427, 3.2719374, 0
951, 2239206571, -0.19111097, -0.6768607, 0.15649319, -0.69343036, 0.04323436, 1.7763972, 0.16726112, 0
952, 2239223238, -0.19298314, -0.67689145, 0.1565597, -0.69286644, 1.2034444, -0.6217735, -0.50578976, 0
953, 2239239905, -0.19486631, -0.67658776, 0.15650111, -0.69264925, -1.2297328, -1.9730762, 1.7625694, 0
954, 2239256572, -0.1964126, -0.67604864, 0.15647659, -0.69274443, 0.8492018, 0.6815249, -0.86872673, 0
955, 2239273239, -0.1974661, -0.67538947, 0.15750729, -0.6928543, -1.4434637, 3.1449351, -2.0623875, 0
956, 2239289906, -0.19815983, -0.6749822, 0.15973592, -0.69254285, -3.2734876, 2.4920657, -1.4897203, 0
957, 2239306573, -0.19839722, -0.67468286, 0.16252555, -0.6921174, -1.2748207, 2.5572531, -1.1435966, 0
958, 2239323240, -0.19818673, -0.6741654, 0.16534448, -0.6920143, -1.9837925, 0.78834146, 1.2711086, 0
959, 2239339907, -0.19798121, -0.6735905, 0.16768467, -0.6920699, -1.9718214, -1.8130485, -1.1409187, 0
960, 2239356574, -0.19802935, -0.672766, 0.1697729, -0.69234884, -2.5704165, 0.010006117, 1.5988855, 0
961, 2239373241, -0.19816789, -0.6719777, 0.17232832, -0.6924433, -1.7787917, 1.7471921, -3.0601745, 0
962, 2239389908, -0.1982823, -0.67114264, 0.17486364, -0.692585, -3.7940228, 0.04578417, 3.70889, 0
963, 2239406575, -0.1982652, -0.6704451, 0.17736273, -0.6926298, -3.617849, 3.095935, -0.119812965, 0
964, 2239423242, -0.1978653, -0.6698646, 0.17969418, -0.692705, -2.6290455, 1.1547663, -4.1699543, 0
965, 2239439909, -0.19752109, -0.6696297, 0.18147327, -0.69256663, -4.3164196, 0.1815365, -2.5947099, 0
966, 2239456576, -0.19711983, -0.66972375, 0.18319182, -0.69213736, -2.7035036, 2.423853, -2.587738, 0
967, 2239473243, -0.19672346, -0.6696962, 0.18464406, -0.6918908, 0.36833924, -2.077615, -5.17386, 0
968, 2239489910, -0.19658932, -0.66982186, 0.18502036, -0.69170666, 0.9671008, -3.6139464, 2.245592, 0
969, 2239506577, -0.19640248, -0.669819, 0.18573938, -0.6915698, 2.0510979, 0.53940964, 5.255432, 0
970, 2239523244, -0.19591568, -0.6696929, 0.18706867, -0.69147176, 1.92737, -1.0919014, 2.2163534, 0
971, 2239539911, -0.1952246, -0.66952884, 0.18859169, -0.69141227, 2.010949, -1.5237082, -1.5205793, 0
972, 2239556578, -0.1944651, -0.66926455, 0.19016545, -0.6914512, 2.4259768, -2.3267097, 1.2920752, 0
973, 2239573245, -0.19364153, -0.6690238, 0.1918086, -0.6914615, 3.6527984, -1.7418029, 2.5132008, 0
974, 2239589912, -0.19292653, -0.6685915, 0.19336677, -0.69164544, 5.7667055, -2.155748, 1.5073614, 0
975, 2239606579, -0.19231908, -0.6676301, 0.19461234, -0.69239366, 6.8503823, -2.0025344, 0.74475574, 0
976, 2239623246, -0.19183934, -0.6667636, 0.19564052, -0.69307154, 5.2565346, -1.757102, 0.13685894, 0
977, 2239639913, -0.19154193, -0.66624105, 0.19630256, -0.6934692, 4.6439633, -2.0761616, -2.745479, 0
978, 2239656580, -0.19164062, -0.6658706, 0.19679081, -0.693659, 5.423307, -2.5578532, -2.3603816, 0
979, 2239673247, -0.19204888, -0.6655205, 0.19720888, -0.69376326, 4.7329965, -1.7523437, 2.2268772, 0
980, 2239689914, -0.192519, -0.6652416, 0.19768073, -0.6937663, 5.9940124, -1.0695214, 1.0238037, 0
981, 2239706581, -0.1929593, -0.6646008, 0.19834082, -0.69406974, 5.798072, -1.2285972, -0.37071514, 0
982, 2239723248, -0.19354361, -0.6638716, 0.19885899, -0.69445664, 4.1067805, -1.6663208, -1.7931461, 0
983, 2239739915, -0.19438398, -0.6632764, 0.19925511, -0.694677, 2.3227077, -1.0496721, 1.1750402, 0
984, 2239756582, -0.19546682, -0.6627189, 0.19967544, -0.69478434, 3.1590714, 0.68947834, -7.5015955, 0
985, 2239773249, -0.19644168, -0.6627441, 0.20019464, -0.69433594, 3.054601, -0.9234695, 13.57555, 0
986, 2239789916, -0.19740394, -0.663753, 0.20068958, -0.6929552, -1.9780146, 1.6239862, 1.4506855, 0
987, 2239806583, -0.19860864, -0.66502285, 0.2007198, -0.6913829, 5.171554, -2.7127194, -3.6253247, 0
988, 2239823250, -0.20076486, -0.6649128, 0.20015015, -0.6910309, 4.4538507, 0.5467396, -3.7715092, 0
989, 2239839917, -0.20281227, -0.66480756, 0.20017457, -0.690527, 1.8611726, 0.18567997, -0.10860157, 0
990, 2239856584, -0.20493874, -0.6646843, 0.1998348, -0.6901163, 0.65214723, -1.7429153, 2.4847612, 0
991, 2239873251, -0.20687014, -0.6648251, 0.19879085, -0.6897058, 0.19505191, -0.8274153, 0.52794933, 0
992, 2239889918, -0.20890127, -0.66492856, 0.19784953, -0.6892643, 1.3609769, 0.042859334, -0.3083048, 0
993, 2239906585, -0.21089455, -0.6647718, 0.19741146, -0.6889341, -0.40009198, -0.08734176, -1.4774237, 0
994, 2239923252, -0.21260002, -0.6648364, 0.19714089, -0.68842477, -0.89671385, -1.448712, 0.4127531, 0
995, 2239939919, -0.21399313, -0.6650446, 0.196687, -0.6879216, -0.9494898, -0.8109495, -0.21382904, 0
996, 2239956586, -0.21512441, -0.6653211, 0.19634257, -0.6873998, -0.0179199, -0.4012946, -0.37975883, 0
997, 2239973253, -0.2161532, -0.66528887, 0.19632804, -0.6871122, 0.3882678, -0.89894176, -1.459053, 0
998, 2239989920, -0.21713579, -0.66518, 0.19629472, -0.6869173, -0.74127054, -1.1714312, -0.65117836, 0
999, 2240006587, -0.21793139, -0.66532266, 0.19582105, -0.6866624, -1.0094326, -0.8259493, -0.6233988, 0
1000, 2240023254, -0.21863793, -0.66552407, 0.19524021, -0.6864079, -0.27909622, -0.4767637, -1.0410728, 0
1001, 2240039921, -0.21926898, -0.6655229, 0.1947731, -0.68634045, -0.1561671, -0.81372774, 0.54163265, 0
1002, 2240056588, -0.2197625, -0.665647, 0.19426596, -0.6862059, -1.1400739, -1.2794436, 0.9569874, 0
1003, 2240073255, -0.22019027, -0.6660791, 0.19353479, -0.6858561, -1.3421557, -0.28642347, -0.5880337, 0
1004, 2240089922, -0.22041784, -0.66675586, 0.19266182, -0.68537116, -0.6078693, 0.30033234, -0.06231785, 0
1005, 2240106589, -0.22057584, -0.6674726, 0.19197872, -0.68481404, -1.7873911, 0.6464414, 1.1457319, 0
1006, 2240123256, -0.22080345, -0.6684687, 0.191623, -0.683868, 2.5111604, -2.0433402, -5.1447124, 0
1007, 2240139923, -0.22165994, -0.66772324, 0.19069797, -0.68457735, 4.0260825, -0.49197266, 9.771847, 0
1008, 2240156590, -0.22231267, -0.6667617, 0.19003609, -0.6854864, 2.5259771, -0.076314144, 1.4304523, 0
1009, 2240173257, -0.22323422, -0.6659558, 0.18938968, -0.686149, -0.047796305, -0.93882686, -2.9778185, 0
1010, 2240189924, -0.22432134, -0.6658766, 0.18907672, -0.6859574, -3.8243961, 3.739214, -3.2964463, 0
1011, 2240206591, -0.22518486, -0.6664326, 0.18960242, -0.68498874, -0.46416795, 3.7472785, -1.1451778, 0
1012, 2240223258, -0.22613242, -0.66666746, 0.19052733, -0.684191, 0.12010871, 1.320315, 2.5183878, 0
1013, 2240239925, -0.22701687, -0.6665735, 0.19142038, -0.6837402, 1.3675977, -0.91413486, 2.451888, 0
1014, 2240256592, -0.22801694, -0.6658594, 0.19235864, -0.6838398, -0.40969747, -0.100736395, 0.20614147, 0
1015, 2240273259, -0.22916457, -0.6651947, 0.19362776, -0.68374497, -1.5992113, 0.5257043, -0.97026825, 0
1016, 2240289926, -0.23044385, -0.66438603, 0.1949898, -0.6837143, -2.3016164, 1.1532254, 0.16581726, 0
1017, 2240306593, -0.23173927, -0.6635129, 0.19643138, -0.6837117, -3.8881702, 2.5347881, 0.38386726, 0
1018, 2240323260, -0.23282492, -0.66272116, 0.19781213, -0.68371254, -4.323118, 3.1419613, -3.4447036, 0
1019, 2240339927, -0.23359117, -0.66223055, 0.19930053, -0.6834943, -6.602488, 3.973594, -1.0930185, 0
1020, 2240356594, -0.23417865, -0.6620488, 0.20117761, -0.68291926, -6.4178715, 3.4013555, -0.7297411, 0
1021, 2240373261, -0.23464079, -0.66187453, 0.20326994, -0.6823097, -6.4591103, 2.8886814, 1.9820004, 0
1022, 2240389928, -0.2347445, -0.6620594, 0.20525041, -0.68150127, -6.48374, 1.0528628, -0.35637474, 0
1023, 2240406595, -0.23474929, -0.6620643, 0.20666677, -0.6810667, -5.249186, -0.03749877, 3.8673353, 0
1024, 2240423262, -0.2346128, -0.6616449, 0.20774376, -0.68119365, -5.7990885, 1.2548546, -1.3133755, 0
1025, 2240439929, -0.23414618, -0.66107047, 0.2091808, -0.6814721, -5.6291556, 1.1627669, -0.6358042, 0
1026, 2240456596, -0.2334281, -0.6604833, 0.2109023, -0.6817572, -6.618397, 2.901791, -1.4987898, 0
1027, 2240473263, -0.23230119, -0.66030693, 0.21283856, -0.68171114, -6.0612507, 2.6174676, -3.8455954, 0
1028, 2240489930, -0.23114702, -0.6601237, 0.21425694, -0.6818365, -4.139256, 0.05262255, -3.7016306, 0
1029, 2240506597, -0.2301519, -0.6597648, 0.21517405, -0.6822316, -2.541244, -0.0029552884, 1.0318174, 0
1030, 2240523264, -0.2292093, -0.6596972, 0.21630217, -0.6822576, -4.9811516, 2.732282, 12.633667, 0
1031, 2240539931, -0.22792329, -0.65971893, 0.21800642, -0.6821249, 1.1113333, 1.7598188, -14.32582, 0
1032, 2240556598, -0.22660293, -0.6596801, 0.21968119, -0.68206507, 2.633552, -3.6940217, -3.089282, 0
1033, 2240573265, -0.22549894, -0.66010654, 0.22120485, -0.6815258, 0.40021905, 1.9629796, 2.493885, 0
1034, 2240589932, -0.22405687, -0.6607154, 0.22381483, -0.6805586, 5.0065393, -1.3366654, -1.5862141, 0
1035, 2240606599, -0.22293788, -0.6608186, 0.22688633, -0.6798083, 4.9144735, -0.7140633, 0.95869064, 0
1036, 2240623266, -0.22182895, -0.6605996, 0.23006171, -0.6793167, 6.9709334, -1.69816, 1.9838943, 0
1037, 2240639933, -0.22110558, -0.65951824, 0.23310976, -0.67956406, 8.792614, -1.721133, 2.4752502, 0
1038, 2240656600, -0.22075617, -0.6580125, 0.23613007, -0.68009436, 7.9993677, -2.3385274, 3.7125797, 0
1039, 2240673267, -0.22100756, -0.65667903, 0.23847164, -0.6804844, 6.8073764, -4.0619135, 0.67613506, 0
1040, 2240689934, -0.22181092, -0.65602994, 0.2398412, -0.6803678, 5.8321924, -4.0115576, 1.9592323, 0
1041, 2240706601, -0.22296715, -0.6558109, 0.24050781, -0.6799655, 6.363549, -2.5228114, 0.8463774, 0
1042, 2240723268, -0.22434394, -0.6555703, 0.24119188, -0.67950207, 7.040247, -3.1100054, -2.8826375, 0
1043, 2240739935, -0.22584294, -0.6554401, 0.24145047, -0.6790393, 5.2412386, -4.028269, -0.37363338, 0
1044, 2240756602, -0.22717428, -0.6559537, 0.2411531, -0.6782044, 3.3184645, -3.7011714, 1.0767422, 0
1045, 2240773269, -0.22850205, -0.65653855, 0.2406928, -0.6773553, 4.258547, -3.5120108, 0.042412758, 0
1046, 2240789936, -0.22972628, -0.656757, 0.23993933, -0.6769967, 6.0493, -5.0579944, 0.74159527, 0
1047, 2240806603, -0.23099396, -0.6563564, 0.23920453, -0.67721397, 4.3012404, -4.7086015, 2.2461061, 0
1048, 2240823270, -0.23194923, -0.65602756, 0.23864554, -0.6774032, 2.7171566, -3.5599532, 0.56397533, 0
1049, 2240839937, -0.23254508, -0.65594256, 0.23813245, -0.67746174, 0.81981313, -1.2025392, -2.411662, 0
1050, 2240856604, -0.23269746, -0.6561507, 0.23786691, -0.67730117, 1.5268381, -0.72320145, -1.9753337, 0
1051, 2240873271, -0.23268905, -0.6561382, 0.23798797, -0.6772737, 1.5759732, -0.99624074, 0.44873238, 0
1052, 2240889938, -0.23251492, -0.6559066, 0.23830673, -0.6774457, 1.6968567, -2.657089, 2.3521175, 0
1053, 2240906605, -0.23238024, -0.65533596, 0.238491, -0.6779791, 1.2794756, -2.9698336, 0.85672283, 0
1054, 2240923272, -0.2322757, -0.65476894, 0.23855963, -0.67853844, 0.8538152, -1.9222168, -0.38566208, 0
1055, 2240939939, -0.23205008, -0.65432376, 0.23843113, -0.67908996, 0.24724276, -0.1788079, -1.3051319, 0
1056, 2240956606, -0.23170328, -0.6541713, 0.23828486, -0.6794066, -0.9267232, 0.07001308, -1.7748976, 0
1057, 2240973273, -0.23150387, -0.6543478, 0.2379838, -0.67941004, -0.8490544, -1.1107856, -1.021966, 0
1058, 2240989940, -0.23147845, -0.65484226, 0.23716271, -0.6792292, -0.9760147, -1.1393201, 0.89076805, 0
1059, 2241006607, -0.23155256, -0.6556547, 0.23583078, -0.67888397, 0.661518, -1.4162645, -0.2424078, 0
1060, 2241023274, -0.23190027, -0.6563272, 0.23405331, -0.67873055, 1.1743376, -1.6506058, 0.12286377, 0
1061, 2241039941, -0.23244973, -0.6571208, 0.23179793, -0.6785488, 0.48777977, -1.6618378, 0.51943207, 0
1062, 2241056608, -0.23317263, -0.6580303, 0.22909772, -0.67833656, 0.32674587, -1.7703049, -0.5535822, 0
1063, 2241073275, -0.23406531, -0.65895426, 0.22613071, -0.6781275, 0.28219056, -1.6344556, -0.53554916, 0
1064, 2241089942, -0.23498285, -0.6599162, 0.22301006, -0.6779082, 0.76185876, -1.2894622, -0.24987793, 0
1065, 2241106609, -0.23583978, -0.66073865, 0.21992984, -0.67781585, 0.90771955, -1.2079343, 0.023488045, 0
1066, 2241123276, -0.23668176, -0.6614494, 0.21708962, -0.67774487, 1.0599849, -1.0903934, 1.0153494, 0
1067, 2241139943, -0.23754892, -0.6620093, 0.2146176, -0.67768204, 0.65019673, -0.47757533, 0.21447277, 0
1068, 2241156610, -0.23831464, -0.66260606, 0.21262765, -0.6774573, 0.283594, -0.1225307, -1.0845127, 0
1069, 2241173277, -0.23917724, -0.66299677, 0.21108428, -0.6772535, 1.1759229, 0.2222733, -0.6723318, 0
1070, 2241189944, -0.24010278, -0.66302216, 0.21012732, -0.6771987, 1.3888081, 1.4770513, 0.036481857, 0
1071, 2241206611, -0.24108554, -0.662753, 0.20977129, -0.6772234, 1.077082, 1.1511146, -0.94385815, 0
1072, 2241223278, -0.2422186, -0.66233194, 0.20972389, -0.6772458, -0.08005706, 1.4255753, 0.83381844, 0
1073, 2241239945, -0.2433362, -0.6620087, 0.21000275, -0.67707473, -0.23637876, 1.3419344, 1.0274305, 0
1074, 2241256612, -0.2445133, -0.6616541, 0.21062094, -0.6768052, -0.4070066, 1.3955767, 0.648016, 0
1075, 2241273279, -0.24569972, -0.6613739, 0.2115, -0.6763751, -0.7713628, 1.460765, 0.46766186, 0
1076, 2241289946, -0.24688658, -0.6610663, 0.21239391, -0.67596364, -0.97622657, 0.6659146, -0.560647, 0
1077, 2241306613, -0.248141, -0.6606803, 0.21324992, -0.67561203, -1.3896238, 0.44945964, -0.648716, 0
1078, 2241323280, -0.24938051, -0.6600715, 0.2144, -0.67538667, -1.8968859, 1.9665084, 1.5439367, 0
1079, 2241339947, -0.25033253, -0.6596444, 0.21566005, -0.6750503, -3.3311498, 2.3533397, -1.0324993, 0
1080, 2241356614, -0.25113308, -0.65948695, 0.21697463, -0.6744853, -3.328311, 1.2025019, -1.3929291, 0
1081, 2241373281, -0.25185558, -0.6592644, 0.21820775, -0.6740356, -2.8844538, 0.88680977, -0.10514927, 0
1082, 2241389948, -0.2526088, -0.65877783, 0.21944477, -0.6738278, -2.2247338, 0.24804851, 2.4344292, 0
1083, 2241406615, -0.25341997, -0.65796065, 0.22043993, -0.6739969, -3.036973, 0.48568282, 0.84908485, 0
1084, 2241423282, -0.2540713, -0.6574143, 0.22128095, -0.6740091, -4.648391, 2.1700177, -1.2599449, 0
1085, 2241439949, -0.25455973, -0.65698004, 0.22215725, -0.6739601, -5.627921, 3.922946, -4.2485323, 0
1086, 2241456616, -0.2549914, -0.65656775, 0.22339803, -0.6737884, -9.798406, 7.5119824, -6.6679735, 0
1087, 2241473283, -0.25526756, -0.65624964, 0.22473754, -0.6735482, -4.840145, 0.33477458, 4.7767973, 0
1088, 2241489950, -0.25575295, -0.6558344, 0.22630134, -0.6732451, -5.420396, 4.1367364, 6.091056, 0
1089, 2241506617, -0.25616083, -0.65507495, 0.22802065, -0.67324907, -3.6227477, 3.0433874, 2.8853931, 0
1090, 2241523284, -0.2562188, -0.6542308, 0.2293967, -0.6735805, -1.9679073, 1.2943829, -0.66033554, 0
1091, 2241539951, -0.2564363, -0.6529789, 0.23139647, -0.6740282, -3.396601, 1.0307231, -6.014749, 0
1092, 2241556618, -0.25626636, -0.65211993, 0.2341025, -0.67399, -4.2145586, 5.360893, -1.7578535, 0
1093, 2241573285, -0.25578213, -0.6512548, 0.23749314, -0.67382437, -4.9098234, 5.857115, 0.053483963, 0
1094, 2241589952, -0.2552973, -0.65039015, 0.24143755, -0.67344147, -1.1308748, 1.309259, -6.277771, 0
1095, 2241606619, -0.25517106, -0.64907575, 0.24548654, -0.6732935, 0.9581122, 2.162671, 2.0047464, 0
1096, 2241623286, -0.25499535, -0.64746785, 0.25026333, -0.67314965, 0.43969542, 5.4976683, 4.5722437, 0
1097, 2241639953, -0.25437474, -0.6462023, 0.25552973, -0.67262167, 2.7462645, 0.54354775, -3.1843324, 0
1098, 2241656620, -0.25404155, -0.64455914, 0.26006722, -0.6725851, 1.123552, 0.3240093, 0.95048237, 0
1099, 2241673287, -0.25405705, -0.64333624, 0.264114, -0.6721732, 0.91716665, -0.6441888, -2.9007273, 0
1100, 2241689954, -0.25464424, -0.64250404, 0.26762488, -0.6713577, 3.064916, -3.2342737, -0.16394234, 0
1101, 2241706621, -0.25562656, -0.6420706, 0.27025065, -0.6703464, 3.6041512, -2.687563, 2.145915, 0
1102, 2241723288, -0.25637063, -0.6423114, 0.27163765, -0.66927016, 4.3684773, -4.361573, 1.7828207, 0
1103, 2241739955, -0.25730044, -0.6427682, 0.2715315, -0.66851753, 5.99411, -7.058302, 0.9984808, 0
1104, 2241756622, -0.2582551, -0.6433132, 0.27048197, -0.66805047, 5.8337617, -7.272597, 1.5907316, 0
1105, 2241773289, -0.25911283, -0.64379895, 0.26923677, -0.6677533, 5.497331, -8.44664, 1.3976488, 0
1106, 2241789956, -0.25985587, -0.64440054, 0.2678771, -0.667431, 5.337043, -8.941714, 0.8471222, 0
1107, 2241806623, -0.26028156, -0.64499766, 0.2661601, -0.6673752, 6.6869154, -7.724786, -2.0561237, 0
1108, 2241823290, -0.26023194, -0.6453781, 0.26478648, -0.66757315, 6.9713917, -5.823599, -0.0051488876, 0
1109, 2241839957, -0.2598606, -0.64542, 0.26428187, -0.6678772, 5.91767, -4.3104672, 0.9701872, 0
1110, 2241856624, -0.25933433, -0.64548445, 0.26428396, -0.66801864, 4.461159, -3.5793025, 1.1788273, 0
1111, 2241873291, -0.25880462, -0.6454263, 0.26430222, -0.6682731, 4.892868, -4.380517, -1.1572714, 0
1112, 2241889958, -0.25843686, -0.64501244, 0.26433384, -0.66880226, 3.7896774, -2.1459982, 0.1001215, 0
1113, 2241906625, -0.25810203, -0.644724, 0.26450515, -0.6691418, 1.8054918, -0.12914176, 1.3368254, 0
1114, 2241923292, -0.25800893, -0.6446118, 0.26462552, -0.6692382, 1.5275286, -0.37367165, 1.1822672, 0
1115, 2241939959, -0.25829569, -0.644391, 0.264607, -0.66934747, 1.9764444, -1.1721851, -0.45788956, 0
1116, 2241956626, -0.25898263, -0.6441583, 0.26407823, -0.6695151, 0.976147, -1.4233983, -0.32396317, 0
1117, 2241973293, -0.25986457, -0.64406765, 0.2632282, -0.6695951, 0.15690012, -0.24573618, -0.4353962, 0
1118, 2241989960, -0.26084802, -0.64401954, 0.26249975, -0.669545, 0.7816024, -0.06487698, -0.96694756, 0
1119, 2242006627, -0.2617477, -0.644043, 0.26193348, -0.669393, -0.35066715, -0.8919611, 0.1000967, 0
1120, 2242023294, -0.26258177, -0.6443355, 0.2612841, -0.6690384, -0.83888185, -1.4578184, -1.5225086, 0
1121, 2242039961, -0.26323387, -0.6445876, 0.26090604, -0.6686869, 1.2762296, -0.91296446, -0.26011467, 0
1122, 2242056628, -0.2633882, -0.6445602, 0.26121554, -0.6685317, 1.4241573, 0.08873408, -0.29969597, 0
1123, 2242073295, -0.26321712, -0.6444604, 0.26184124, -0.6684505, 1.4789078, -2.423942, -1.2994823, 0
1124, 2242089962, -0.26285237, -0.64425147, 0.26247138, -0.6685483, 1.5379676, -1.5349723, -0.10173607, 0
1125, 2242106629, -0.26206055, -0.64415866, 0.26338866, -0.668588, 1.3392599, -0.34194487, -2.7125816, 0
1126, 2242123296, -0.26090994, -0.64402246, 0.26480213, -0.6686107, 0.23020731, -1.0479622, -2.5832915, 0
1127, 2242139963, -0.25950003, -0.6440324, 0.26646614, -0.6684886, -1.4438305, -0.96808064, -0.071679115, 0
1128, 2242156630, -0.2578521, -0.64372283, 0.26832345, -0.6686816, 0.64309615, -0.42756027, 4.961295, 0
1129, 2242173297, -0.256315, -0.64260554, 0.2702868, -0.669556, -0.30114964, -2.561186, 6.452116, 0
1130, 2242189964, -0.25553983, -0.6409064, 0.2718125, -0.67086196, -2.2226446, -4.2241583, 4.1619005, 0
1131, 2242206631, -0.2554897, -0.6393585, 0.27257216, -0.67204875, -3.297612, -0.47471055, 1.4416332, 0
1132, 2242223298, -0.25542334, -0.6382993, 0.27237248, -0.67316073, -3.283943, 2.9914644, 1.5424366, 0
1133, 2242239965, -0.25553817, -0.6376497, 0.27089527, -0.67432797, -3.6563113, -0.33896902, 3.6526632, 0
1134, 2242256632, -0.25585434, -0.63706356, 0.2690199, -0.6755118, -0.57117116, 4.8495865, -9.922758, 0
1135, 2242273299, -0.25549537, -0.6366095, 0.2690905, -0.67604744, -0.9124315, 6.933882, -6.051711, 0
1136, 2242289966, -0.25529036, -0.6357952, 0.2701337, -0.676475, -7.0775347, 1.7220855, -1.3292131, 0
