sep=,
DeviceTag:,Xsens_DOT_3,,,,,,,,,,,,,,,,,
FirmwareVersion:,3.0.0,,,,,,,,,,,,,,,,,
AppVersion:,2023.6.1,,,,,,,,,,,,,,,,,
SyncStatus:,Synced,,,,,,,,,,,,,,,,,
OutputRate:,60Hz,,,,,,,,,,,,,,,,,
FilterProfile:,General,,,,,,,,,,,,,,,,,
Measurement Mode:,Sensor fusion Mode - Extended (Quaternion),,,,,,,,,,,,,,,,,
StartTime:,2025-05-05 11:43:50.378 +0200,,,,,,,,,,,,,,,,,
 2025,,,,,,,,,,,,,,,,,,,

PacketCounter,SampleTimeFine,Quat_W,Quat_X,Quat_Y,Quat_Z,FreeAcc_X,FreeAcc_Y,FreeAcc_Z,Status
1, 2223372921, -0.52891344, -0.2845196, 0.74985135, -0.27753413, -0.101949625, 0.07221145, 0.056257248, 0
2, 2223389588, -0.52883095, -0.28525168, 0.74960065, -0.2776172, -0.10739797, 0.018292971, 0.08528805, 0
3, 2223406255, -0.52871644, -0.2861867, 0.7492783, -0.27774283, -0.08689066, -0.016791634, 0.14204311, 0
4, 2223422922, -0.5286258, -0.28719324, 0.748902, -0.27789155, -0.06599399, -0.039744403, 0.09106922, 0
5, 2223439589, -0.528691, -0.28811005, 0.74842286, -0.27810913, 0.004204279, 0.033811588, 0.07513332, 0
6, 2223456256, -0.5287383, -0.28907144, 0.7479427, -0.2783134, -0.08998989, -0.02919258, 0.0846529, 0
7, 2223472923, -0.52876556, -0.2901137, 0.7474249, -0.27856842, -0.08950308, 0.07490925, 0.10599232, 0
8, 2223489590, -0.5288595, -0.2907726, 0.7469879, -0.27887452, -0.044513498, 0.09911112, 0.09978199, 0
9, 2223506257, -0.5288425, -0.291331, 0.7467174, -0.27904862, -0.06813256, 0.085093506, -0.0038795471, 0
10, 2223522924, -0.5288705, -0.29172745, 0.74650854, -0.27913952, -0.09103986, 0.1518505, 0.0082092285, 0
11, 2223539591, -0.52896714, -0.2919925, 0.7463157, -0.27919498, -0.122131504, 0.16558209, -0.02878189, 0
12, 2223556258, -0.5291104, -0.29218456, 0.7461183, -0.2792504, -0.07932698, 0.14445865, -0.016904831, 0
13, 2223572925, -0.52925, -0.2922594, 0.7460069, -0.27920496, -0.08302389, 0.14109233, 0.064748764, 0
14, 2223589592, -0.52938217, -0.2922287, 0.74598086, -0.27905613, -0.03584388, 0.12610489, 0.035176277, 0
15, 2223606259, -0.5294159, -0.29240054, 0.7459011, -0.2790259, -0.007590053, 0.1112443, 0.04074955, 0
16, 2223622926, -0.52946746, -0.29237258, 0.7458833, -0.2790047, 0.0055002067, 0.116627604, 0.0641346, 0
17, 2223639593, -0.5295341, -0.29239845, 0.7458278, -0.27899957, 0.018164003, 0.05370491, 0.047240257, 0
18, 2223656260, -0.5296667, -0.29240733, 0.7457496, -0.27894744, -0.012045113, 0.059276417, 0.04936123, 0
19, 2223672927, -0.52979845, -0.29243612, 0.74568343, -0.27884424, -0.07098235, 0.06247366, 0.04630661, 0
20, 2223689594, -0.5298558, -0.2924511, 0.74563634, -0.27884513, -0.0557866, 0.123071484, 0.05269909, 0
21, 2223706261, -0.5299615, -0.29225913, 0.74567324, -0.2787472, -0.055043194, 0.13458006, 0.03258133, 0
22, 2223722928, -0.5300909, -0.29210925, 0.7456387, -0.27875042, -0.05759437, 0.13180447, 0.029891968, 0
23, 2223739595, -0.5302496, -0.2919585, 0.7455704, -0.27878934, -0.06574008, 0.14487383, 0.017355919, 0
24, 2223756262, -0.5304704, -0.29181153, 0.7454487, -0.27884835, -0.047770083, 0.15830395, 0.037836075, 0
25, 2223772929, -0.5306998, -0.2916726, 0.7453362, -0.278858, -0.07155946, 0.12716949, 0.06166458, 0
26, 2223789596, -0.5308599, -0.29147804, 0.7453269, -0.27878165, -0.073078535, 0.17066984, 0.083758354, 0
27, 2223806263, -0.5309482, -0.29122394, 0.74542266, -0.27862322, -0.0016607012, 0.21317391, 0.11024666, 0
28, 2223822930, -0.5309793, -0.29108375, 0.74552125, -0.27844694, 0.0108122155, 0.17117974, 0.08459091, 0
29, 2223839597, -0.5308094, -0.29111093, 0.745696, -0.27827412, -0.05168469, 0.12727252, 0.019857407, 0
30, 2223856264, -0.5306121, -0.29109186, 0.7459192, -0.27807134, -0.12118872, 0.12342732, -0.04531002, 0
31, 2223872931, -0.5303508, -0.2911114, 0.7461755, -0.2778617, -0.16094318, 0.070403226, -0.04852867, 0
32, 2223889598, -0.5300649, -0.29115835, 0.7464493, -0.27762306, -0.11266662, 0.056989994, -0.05553627, 0
33, 2223906265, -0.529799, -0.29130054, 0.7465963, -0.27758598, -0.14123918, 0.013126581, -0.01276207, 0
34, 2223922932, -0.52965325, -0.2913371, 0.7466579, -0.27765992, -0.08173511, 0.017025206, 0.11893463, 0
35, 2223939599, -0.5297897, -0.2910155, 0.74667406, -0.27769357, 0.024714274, 0.087124124, 0.23059559, 0
36, 2223956266, -0.5302687, -0.2905465, 0.74650174, -0.27773377, 0.114706405, 0.20690717, 0.28977013, 0
37, 2223972933, -0.53090125, -0.2900604, 0.7462369, -0.27774504, 0.0434308, 0.2456594, 0.2966175, 0
38, 2223989600, -0.5314916, -0.2894609, 0.74610287, -0.2776016, 0.004265521, 0.22748847, 0.20630646, 0
39, 2224006267, -0.5321456, -0.28877312, 0.74598515, -0.2773814, -0.041751325, 0.223482, 0.10046959, 0
40, 2224022934, -0.5327423, -0.28803468, 0.7459979, -0.27696887, -0.15126328, 0.20808174, -0.030046463, 0
41, 2224039601, -0.53347284, -0.28714222, 0.7460056, -0.2764687, -0.09908642, 0.3107189, -0.071484566, 0
42, 2224056268, -0.53444964, -0.28591797, 0.74598396, -0.27590886, -0.05230382, 0.2916168, -0.017902374, 0
43, 2224072935, -0.535148, -0.2847907, 0.74612087, -0.27534977, -0.013173063, 0.17920372, -0.045449257, 0
44, 2224089602, -0.5358083, -0.28375447, 0.74624443, -0.2748002, 0.08582987, 0.12819138, 0.04056835, 0
45, 2224106269, -0.53660303, -0.28269148, 0.7462786, -0.2742513, 0.10001713, 0.104168214, 0.03520012, 0
46, 2224122936, -0.53754437, -0.28182358, 0.7460657, -0.27388105, 0.08308915, 0.084571935, 0.02886486, 0
47, 2224139603, -0.5383926, -0.28100047, 0.7459064, -0.27349412, 0.037625723, 0.048447996, 0.019599915, 0
48, 2224156270, -0.53917813, -0.28026962, 0.74570626, -0.27324212, 0.1114145, 0.054920487, 0.015808105, 0
50, 2224189604, -0.54077774, -0.27932736, 0.744882, -0.2732943, 0.17849119, -0.086748175, 0.03637886, 0
51, 2224206271, -0.5417832, -0.27904522, 0.7441329, -0.2736311, 0.14211312, -0.039011057, 0.0074710846, 0
53, 2224239605, -0.54381776, -0.27885047, 0.742313, -0.27473462, 0.2486519, 0.12597436, 0.029494286, 0
54, 2224256272, -0.5451739, -0.27876222, 0.74108547, -0.27544966, 0.1984424, 0.21423717, 0.048353195, 0
55, 2224272939, -0.54633874, -0.2788591, 0.73987484, -0.27629682, 0.15591101, 0.2282702, 0.0784893, 0
57, 2224306273, -0.5494013, -0.278138, 0.737282, -0.2778777, 0.18871154, 0.3008367, 0.29077435, 0
58, 2224322940, -0.55237126, -0.27694458, 0.7352299, -0.27861795, 0.18150415, 0.5192137, 0.2919321, 0
59, 2224339607, -0.55549335, -0.2754659, 0.7332914, -0.2789846, -0.19715342, 0.4651297, 0.20866966, 0
61, 2224372941, -0.5597339, -0.27278826, 0.73111224, -0.27885917, -0.24066713, 0.47538903, 0.02435875, 0
62, 2224389608, -0.56137604, -0.27119958, 0.7306256, -0.27838296, -0.3929501, 0.47101903, 0.003332138, 0
65, 2224439609, -0.5642518, -0.26355904, 0.7323063, -0.27547663, -0.3926671, 0.19230708, -0.16353893, 0
66, 2224456276, -0.56485784, -0.26057285, 0.7334779, -0.2739539, -0.37163678, 0.117998526, -0.1341381, 0
67, 2224472943, -0.5659552, -0.2581107, 0.73475635, -0.27057302, -0.16256097, 0.23031613, -0.4170227, 0
69, 2224506277, -0.5674347, -0.25306797, 0.7366081, -0.26718202, -0.02666733, -0.15012695, 0.09227657, 0
77, 2224639613, -0.56587684, -0.24323626, 0.742862, -0.26225713, 0.12369431, 0.1660071, -0.05009556, 0
78, 2224656280, -0.5652595, -0.24260952, 0.7432127, -0.26317298, 0.12425711, 0.08881701, 0.005900383, 0
81, 2224706281, -0.56403863, -0.24266529, 0.74343354, -0.26511085, 0.13670902, -0.03913164, 0.18435764, 0
82, 2224722948, -0.5640398, -0.24308352, 0.7430835, -0.26570532, 0.10187184, -0.0839461, 0.25443363, 0
84, 2224756282, -0.56358534, -0.24412817, 0.74284506, -0.2663782, -0.13158923, -0.09195625, -0.017960548, 0
85, 2224772949, -0.56352663, -0.24460472, 0.7426438, -0.26662642, -0.11438589, 0.1380331, -0.10141373, 0
88, 2224822950, -0.5640522, -0.24511716, 0.7416801, -0.2677245, -0.16400889, -0.063878104, 0.013712883, 0
89, 2224839617, -0.56416345, -0.2451551, 0.7414752, -0.26802224, -0.12199203, -0.064301215, 0.022601128, 0
90, 2224856284, -0.56435865, -0.24515057, 0.7412478, -0.26824486, -0.14022443, -0.1157796, 0.039823532, 0
92, 2224889618, -0.5645507, -0.24472854, 0.7412495, -0.26822126, -0.194437, -0.14381157, 0.07837963, 0
94, 2224922952, -0.56448686, -0.2438645, 0.7417494, -0.26776016, -0.109075665, 0.115417846, 0.11429691, 0
96, 2224956286, -0.5641863, -0.24276435, 0.74252975, -0.26723033, -0.06656931, -0.14675614, 5.9890747E-4, 0
97, 2224972953, -0.56408507, -0.24234925, 0.7428217, -0.26700953, -0.08066225, -0.12429332, 0.047883987, 0
98, 2224989620, -0.5638159, -0.24202679, 0.7432795, -0.26659584, -0.16786583, -0.066390164, 0.09929466, 0
100, 2225022954, -0.56364655, -0.24169105, 0.74378437, -0.2658491, 0.035912275, 0.0802758, 0.028175354, 0
101, 2225039621, -0.563561, -0.24160086, 0.7439381, -0.2656823, -0.01402812, 0.11319814, -0.1097393, 0
104, 2225089622, -0.5622423, -0.2419053, 0.7449787, -0.26528355, -0.00500669, 0.114607275, -0.030643463, 0
105, 2225106289, -0.5619012, -0.2421064, 0.74520606, -0.26518375, -0.036047723, -0.022197966, 0.03711319, 0
107, 2225139623, -0.56145763, -0.24231294, 0.74544173, -0.26527235, 0.17391722, -0.20381051, 0.27713203, 0
108, 2225156290, -0.5613704, -0.24238503, 0.745458, -0.2653453, 0.040926564, 0.06639072, 0.24833488, 0
115, 2225272959, -0.5625379, -0.24150868, 0.7453221, -0.26405033, -0.06946246, 0.20011406, -0.04376793, 0
116, 2225289626, -0.5630146, -0.24116606, 0.74501294, -0.26422036, -0.07941102, 0.18243541, 0.013623238, 0
117, 2225306293, -0.563177, -0.24089472, 0.74492174, -0.26437843, -0.09220088, -0.039787766, 0.011048317, 0
120, 2225356294, -0.56313235, -0.24008358, 0.74520946, -0.26440024, -0.033636913, -0.09535632, -0.031140327, 0
121, 2225372961, -0.56314135, -0.23953088, 0.74537086, -0.26442719, -0.07093139, 0.047989685, -5.7792664E-4, 0
123, 2225406295, -0.5626987, -0.23824331, 0.74620056, -0.2641934, 0.08913831, -0.010476834, 0.026353836, 0
124, 2225422962, -0.56279516, -0.23756324, 0.74641865, -0.26398453, 0.18315412, -0.20102185, 0.019217491, 0
126, 2225456296, -0.56345433, -0.2365802, 0.74623764, -0.26397255, 0.17027843, -0.050396696, 0.16760921, 0
127, 2225472963, -0.5639195, -0.23632109, 0.7459179, -0.26411492, 0.17767939, -0.016633388, 0.12823677, 0
128, 2225489630, -0.5644295, -0.23632626, 0.74541956, -0.26442763, 0.16935219, -0.023892306, 0.19989109, 0
130, 2225522964, -0.5649918, -0.23698097, 0.7445112, -0.26519904, 0.12719631, 0.09374871, 0.040753365, 0
134, 2225589632, -0.5644836, -0.2393705, 0.74353284, -0.26687452, 0.018941382, 0.3413748, -0.25392628, 0
135, 2225606299, -0.56429183, -0.23985238, 0.7433951, -0.26723105, -0.0016620423, 0.30399996, -0.24134922, 0
136, 2225622966, -0.5639568, -0.24028109, 0.7434173, -0.26749116, 0.00899282, 0.23774692, -0.12124729, 0
138, 2225656300, -0.56339836, -0.24077982, 0.743517, -0.2679417, 0.12179087, 0.019136174, 0.13861752, 0
140, 2225689634, -0.56152374, -0.24329534, 0.7440127, -0.26822892, 3.9170647, 1.5021127, 1.8248281, 0
142, 2225722968, -0.545463, -0.23460384, 0.76549363, -0.24789837, 13.019409, 6.581561, -8.331177, 0
143, 2225739635, -0.5437519, -0.23795855, 0.76615417, -0.24641496, 0.24553211, 3.5737042, -1.0517902, 0
144, 2225756302, -0.5456842, -0.24131632, 0.7629657, -0.2487601, 0.034962345, 2.2476265, 0.21697426, 0
146, 2225789636, -0.5480297, -0.23959361, 0.7613531, -0.25020555, 1.0736485, -0.7101144, 1.2256546, 0
147, 2225806303, -0.54804134, -0.24139354, 0.76030463, -0.25163448, 0.07748434, -0.65601647, 0.87769127, 0
148, 2225822970, -0.5499843, -0.24452987, 0.7569527, -0.25445685, 0.35333553, -0.23265128, 0.118021965, 0
150, 2225856304, -0.560231, -0.24806437, 0.74665916, -0.2590531, 0.2890362, 0.09729396, 0.11730003, 0
151, 2225872971, -0.5655539, -0.2486771, 0.74188316, -0.26061675, 0.0019579735, 0.4237902, -0.010045052, 0
152, 2225889638, -0.5698697, -0.24817204, 0.73808515, -0.26247385, -0.4613388, -0.10971491, 0.19103813, 0
155, 2225939639, -0.5755237, -0.2449377, 0.73354477, -0.26588157, 0.17386536, 0.28092572, 0.31718445, 0
157, 2225972973, -0.5768582, -0.2444067, 0.7321508, -0.26731658, 0.039308775, 0.354183, -0.33884144, 0
158, 2225989640, -0.5776232, -0.2436899, 0.73146033, -0.26820818, 0.20785591, 0.58485764, -0.41435814, 0
159, 2226006307, -0.57856166, -0.24294679, 0.730591, -0.26922727, 0.31306788, 0.64243525, -0.31403446, 0
161, 2226039641, -0.579963, -0.24185005, 0.7290412, -0.27139175, 0.4502065, 0.23729655, 0.22045517, 0
162, 2226056308, -0.5800436, -0.24137345, 0.7286854, -0.27259678, 0.7853646, 0.38450432, 0.174716, 0
163, 2226072975, -0.58008844, -0.24080789, 0.7282645, -0.27412212, 0.9003482, 0.57567817, 0.23414326, 0
165, 2226106309, -0.5798862, -0.24113852, 0.72738713, -0.27657774, 0.6143289, 0.6543291, -0.022794724, 0
166, 2226122976, -0.5800664, -0.24157813, 0.72674537, -0.27750212, 0.31853503, 0.70978785, -0.22855377, 0
167, 2226139643, -0.58037096, -0.24188986, 0.7261167, -0.27823806, 0.1281668, 0.7736297, -0.32992077, 0
170, 2226189644, -0.58155656, -0.2416794, 0.7245942, -0.27990973, 0.33854032, 0.43343017, 0.26539135, 0
171, 2226206311, -0.58199525, -0.24141589, 0.7241566, -0.28035724, 0.55453116, 0.62197095, 0.36507797, 0
173, 2226239645, -0.5828553, -0.2407428, 0.7235026, -0.2808376, 0.33404994, 0.72320276, 0.14187622, 0
174, 2226256312, -0.5833896, -0.24030463, 0.7232707, -0.2807008, 0.23834528, 0.7104819, -1.1444092E-4, 0
175, 2226272979, -0.58405745, -0.23998536, 0.7229389, -0.28043947, 0.2539089, 0.51949173, -0.031256676, 0
177, 2226306313, -0.58557725, -0.23967487, 0.7220138, -0.27991837, 0.25136715, 0.4401237, -0.024388313, 0
178, 2226322980, -0.58605385, -0.2397162, 0.721607, -0.2799345, 0.30580506, 0.3263317, 0.048592567, 0
180, 2226356314, -0.5865343, -0.24055411, 0.72076726, -0.28037268, 0.31902674, 0.30673453, 0.05871582, 0
181, 2226372981, -0.58661366, -0.24104437, 0.72044426, -0.28061557, 0.35464174, 0.3070992, 0.06510544, 0
182, 2226389648, -0.586799, -0.24160121, 0.7199804, -0.2809398, 0.48590332, 0.25638714, 0.061570168, 0
185, 2226439649, -0.5883972, -0.2425453, 0.7178853, -0.28214228, 0.5665924, 0.48268104, -0.046078682, 0
186, 2226456316, -0.58865076, -0.24258856, 0.717556, -0.28241354, 0.53409004, 0.56332755, -0.09419823, 0
188, 2226489650, -0.5890211, -0.24251504, 0.7171426, -0.28275445, 0.50883085, 0.34876022, -0.1500082, 0
189, 2226506317, -0.58905953, -0.24270844, 0.71701795, -0.28282487, 0.5622388, 0.31346732, -0.07341194, 0
190, 2226522984, -0.5889284, -0.24324532, 0.7169161, -0.28289497, 0.66301095, 0.32205558, -0.07748699, 0
192, 2226556318, -0.5886776, -0.24459913, 0.7164739, -0.28336936, 0.68159336, 0.3408461, 0.03641796, 0
193, 2226572985, -0.5884362, -0.24528709, 0.7163173, -0.28367168, 0.54295677, 0.24852607, 0.030882835, 0
194, 2226589652, -0.58808994, -0.24591242, 0.71630204, -0.2838868, 0.4714362, 0.28265458, -0.0018625259, 0
196, 2226622986, -0.58768994, -0.24647239, 0.71631515, -0.28419623, 0.49488226, 0.41773063, 0.08550644, 0
197, 2226639653, -0.58763295, -0.24644002, 0.7163517, -0.28425005, 0.42532057, 0.49228394, 0.16856766, 0
198, 2226656320, -0.58751774, -0.24616115, 0.7165672, -0.28418648, 0.34633422, 0.6045846, 0.17798233, 0
200, 2226689654, -0.58734864, -0.2447627, 0.7174339, -0.28355697, 0.30700576, 0.69609475, 0.027254105, 0
201, 2226706321, -0.58771604, -0.24376312, 0.7176335, -0.28315103, 0.5147754, 0.60767, -0.06829262, 0
202, 2226722988, -0.5882102, -0.24275613, 0.7177824, -0.28261214, 0.46780726, 0.39633843, -0.09726238, 0
204, 2226756322, -0.58882123, -0.24059562, 0.71850973, -0.28133607, 0.36337665, 0.46208006, 0.053575516, 0
205, 2226772989, -0.5888325, -0.23961724, 0.7190707, -0.28071395, 0.42194238, 0.4422501, 0.05615616, 0
206, 2226789656, -0.58860075, -0.23879102, 0.7197418, -0.28018305, 0.45925653, 0.39364654, -0.07703209, 0
208, 2226822990, -0.58797455, -0.23799703, 0.72066075, -0.27981177, 0.7120883, 0.25077108, -0.202775, 0
209, 2226839657, -0.5877296, -0.23819622, 0.7207031, -0.28004742, 0.7935765, 0.18559946, -0.097299576, 0
212, 2226889658, -0.587401, -0.24017994, 0.7194299, -0.28230715, 0.7299933, 0.49874112, 0.31940365, 0
213, 2226906325, -0.58714503, -0.24099186, 0.7190636, -0.28307995, 0.6524768, 0.579213, 0.22838306, 0
215, 2226939659, -0.5866205, -0.2422454, 0.71867937, -0.28407186, 0.3653592, 0.6650344, -0.12620926, 0
216, 2226956326, -0.5863526, -0.24283367, 0.7186217, -0.28426784, 0.34871864, 0.6519387, -0.17912292, 0
217, 2226972993, -0.5859756, -0.2433232, 0.7187477, -0.28430834, 0.31905133, 0.6199696, -0.18055725, 0
219, 2227006327, -0.58562356, -0.24371311, 0.71891236, -0.28428298, 0.51136637, 0.6460349, 0.042256355, 0
220, 2227022994, -0.5856507, -0.24350998, 0.71900433, -0.28416896, 0.5039287, 0.5901356, 0.05800438, 0
221, 2227039661, -0.58595616, -0.24300072, 0.71903837, -0.28388906, 0.67632157, 1.1097887, 1.2354937, 0
223, 2227072995, -0.54912704, -0.23932642, 0.7607254, -0.24996445, -0.93253696, -5.9348664, -6.9791965, 0
224, 2227089662, -0.5511427, -0.24402373, 0.757771, -0.24996032, 3.033775, 0.7553035, -6.4660378, 0
227, 2227139663, -0.56874645, -0.24203828, 0.741798, -0.26016116, 1.0235566, -0.20867561, 2.0609303, 0
228, 2227156330, -0.5689148, -0.24192156, 0.7417457, -0.26005057, 1.7289549, -0.79040223, 1.7280626, 0
229, 2227172997, -0.56916493, -0.2430261, 0.7408691, -0.260971, 0.6273208, -0.6159865, 0.13649178, 0
231, 2227206331, -0.5695697, -0.24748544, 0.7376805, -0.26489964, 0.45998877, 0.22366819, 0.39961147, 0
232, 2227222998, -0.5697544, -0.24899298, 0.7366919, -0.26583934, 0.3682045, 0.4418535, 0.19168854, 0
234, 2227256332, -0.5706462, -0.2501376, 0.7355336, -0.2660591, 0.32184747, 0.15931088, 0.032299995, 0
235, 2227272999, -0.57216525, -0.25030574, 0.73393124, -0.26706177, 0.14770988, 0.64945793, -0.13134193, 0
236, 2227289666, -0.575127, -0.24970208, 0.7309775, -0.26935643, 0.042690974, 0.8659556, -0.29637337, 0
238, 2227323000, -0.5825453, -0.2439259, 0.725004, -0.2747972, 0.16919751, 0.4141114, 0.14557266, 0
239, 2227339667, -0.5841454, -0.24333167, 0.72346306, -0.27598563, 0.2522062, 0.41631177, 0.2160387, 0
242, 2227389668, -0.5861291, -0.24229188, 0.72112715, -0.27879348, 0.6486288, 0.48940665, 0.22084141, 0
243, 2227406335, -0.5867325, -0.24182731, 0.72041476, -0.27976787, 0.6206146, 0.5470758, 0.18684101, 0
244, 2227423002, -0.58732074, -0.24102671, 0.7198122, -0.28077394, 0.51273113, 0.5287131, 0.07638359, 0
246, 2227456336, -0.5880972, -0.23924872, 0.7191992, -0.2822361, 0.39784858, 0.49366993, -0.17037582, 0
247, 2227473003, -0.5883113, -0.23824096, 0.7191804, -0.2826901, 0.36020052, 0.45511574, -0.2532215, 0
248, 2227489670, -0.5884812, -0.23707376, 0.7193174, -0.28296918, 0.40073818, 0.54044384, -0.15805149, 0
250, 2227523004, -0.5892897, -0.23502268, 0.7193723, -0.28285778, 0.5283377, 0.52157, 0.19701672, 0
251, 2227539671, -0.5898166, -0.23403531, 0.71935165, -0.2826312, 0.54874444, 0.48770294, 0.3255291, 0
252, 2227556338, -0.59048665, -0.23282303, 0.71925545, -0.28247747, 0.6328108, 0.45207128, 0.34472847, 0
254, 2227589672, -0.5920277, -0.22982424, 0.71909165, -0.28212443, 0.46824533, 0.68435955, 0.1393013, 0
256, 2227623006, -0.5933585, -0.22800869, 0.7188209, -0.2814911, 0.57340324, 0.58922756, -0.13901615, 0
258, 2227656340, -0.5942445, -0.2279129, 0.71871024, -0.27997833, 0.27107516, 0.16817103, -0.39254665, 0
259, 2227673007, -0.5944315, -0.22787534, 0.7187508, -0.27950725, 0.2677149, 0.17400315, -0.5235262, 0
261, 2227706341, -0.5940536, -0.22813122, 0.71907336, -0.27927235, 0.51268464, 0.38296887, -0.17597389, 0
262, 2227723008, -0.5936774, -0.22854084, 0.7190961, -0.27967852, 0.8355241, 0.28196728, 0.35554504, 0
263, 2227739675, -0.5936353, -0.22899653, 0.7187157, -0.28037205, 0.935771, 0.1365757, 0.8096533, 0
265, 2227773009, -0.5935831, -0.23008585, 0.71786386, -0.2817698, 0.6957663, 0.35804752, 0.62747097, 0
266, 2227789676, -0.59353936, -0.2307325, 0.7175528, -0.28212547, 0.51595956, 0.53750384, 0.19023418, 0
267, 2227806343, -0.5934454, -0.23149511, 0.71743506, -0.28199765, 0.2281039, 0.44958648, -0.3441906, 0
269, 2227839677, -0.59291, -0.23264688, 0.71774936, -0.28137532, 0.043720476, 0.5162816, -1.0310669, 0
270, 2227856344, -0.5927148, -0.2329498, 0.7178662, -0.28123808, 0.29986522, 0.6803678, -0.87488174, 0
271, 2227873011, -0.5926203, -0.23318498, 0.7178244, -0.28134888, 0.51256704, 0.5645566, -0.13839912, 0
273, 2227906345, -0.59269774, -0.23320594, 0.71753263, -0.28191173, 0.83859557, 0.21511725, 1.0396395, 0
274, 2227923012, -0.592615, -0.23285812, 0.7175383, -0.28235877, 0.9152083, 0.4683293, 1.0432501, 0
275, 2227939679, -0.5925092, -0.23254047, 0.7176427, -0.28257695, 0.7693602, 0.6841006, 0.6186876, 0
277, 2227973013, -0.592294, -0.232807, 0.7180502, -0.28177258, 0.47236872, 0.13075921, -0.71164703, 0
278, 2227989680, -0.5928729, -0.2327416, 0.71782494, -0.2811821, 0.11937603, 0.3686131, -0.74786854, 0
279, 2228006347, -0.59318, -0.23253582, 0.7178163, -0.28072637, 0.21617725, 0.4927399, -0.9345665, 0
281, 2228039681, -0.59326, -0.23217666, 0.71793866, -0.2805416, 0.57403, 0.5887863, -0.028043747, 0
283, 2228073015, -0.5929806, -0.23193066, 0.71797377, -0.28124553, 0.7523728, 0.25987986, 1.0344486, 0
285, 2228106349, -0.59267896, -0.23134506, 0.7181526, -0.28190625, 0.6788929, 0.84451556, 0.51624775, 0
286, 2228123016, -0.5926908, -0.23088485, 0.71823686, -0.2820438, 0.63400835, 0.7859473, -0.020331383, 0
287, 2228139683, -0.59310615, -0.23040512, 0.7180869, -0.2819453, 0.58030444, 0.6474548, -0.36455536, 0
289, 2228173017, -0.59391224, -0.2305345, 0.71783346, -0.28078517, 0.073511176, 0.53263414, -0.6374159, 0
290, 2228189684, -0.5939276, -0.23045892, 0.71797025, -0.28046447, 0.15421245, 0.4142536, -0.4680729, 0
293, 2228239685, -0.5933878, -0.2307662, 0.71828836, -0.28054, 0.99416775, 0.69273347, 0.9162245, 0
294, 2228256352, -0.5938671, -0.231181, 0.71771675, -0.28064728, 0.88235223, 0.20848696, 1.430274, 0
296, 2228289686, -0.5943091, -0.23114875, 0.7171865, -0.2810938, 0.64862835, 0.48593527, 0.48400307, 0
297, 2228306353, -0.594488, -0.23060676, 0.7171169, -0.28133747, 0.3151622, 1.0286106, -9.422302E-4, 0
300, 2228356354, -0.5972871, -0.23004918, 0.71556836, -0.27980456, 0.4046434, 0.2501786, -0.7216978, 0
301, 2228373021, -0.5983561, -0.23023735, 0.7148147, -0.27929145, 0.20411025, 0.562633, -0.1898737, 0
302, 2228389688, -0.5983466, -0.2304815, 0.71482944, -0.27907288, 0.3769251, 0.3791019, -0.15088654, 0
304, 2228423022, -0.59738064, -0.23066556, 0.715506, -0.27925617, 0.6336507, 0.5925356, 0.03900528, 0
305, 2228439689, -0.5971767, -0.23074752, 0.7155604, -0.27948573, 0.6777346, 0.675484, 0.4462309, 0
306, 2228456356, -0.59693986, -0.23091646, 0.71562755, -0.27967918, 0.8149904, 0.42181543, 0.6858082, 0
308, 2228489690, -0.5888447, -0.19684836, 0.7460425, -0.24069925, -6.9587502, -6.4780626, 13.220835, 1024
309, 2228506357, -0.5855949, -0.2030133, 0.7493783, -0.23302221, 7.7021823, 1.5448107, -12.368738, 0
310, 2228523024, -0.5781862, -0.21020275, 0.7536937, -0.23122361, -2.8535926, 5.0209637, -9.3445215, 0
312, 2228556358, -0.595258, -0.21070231, 0.7355939, -0.2453103, 1.9582667, 1.0294763, 2.8574314, 0
315, 2228606359, -0.6296464, -0.21748805, 0.6945833, -0.27166402, 1.3387523, 0.11823573, 0.06842613, 0
316, 2228623026, -0.62862676, -0.21768902, 0.6946467, -0.2736949, 1.3082339, 2.0700245, -0.02451992, 0
317, 2228639693, -0.628092, -0.21786258, 0.6937365, -0.27707234, 1.4684703, 1.0074337, 0.31228638, 0
319, 2228673027, -0.62863755, -0.22392017, 0.6896724, -0.281122, 0.71399605, 0.75119656, 0.22525692, 0
320, 2228689694, -0.62884545, -0.22652872, 0.6880517, -0.28253487, 0.90826815, 0.7515412, 0.19705677, 0
321, 2228706361, -0.62904704, -0.2287943, 0.6865939, -0.2838042, 0.88521546, 0.74493694, 0.26489258, 0
323, 2228739695, -0.62937254, -0.23290232, 0.6840501, -0.28587618, 0.92790574, 1.3861452, 0.12857246, 0
324, 2228756362, -0.6312276, -0.23400147, 0.6812674, -0.28752893, 0.78825015, 1.6342946, 0.07689762, 0
325, 2228773029, -0.63411134, -0.2339107, 0.6776541, -0.2897873, 0.43526912, 1.3490412, 0.26745033, 0
327, 2228806363, -0.6375147, -0.23059493, 0.6740999, -0.29324606, 0.16724625, 0.68435186, -0.02262783, 0
329, 2228839697, -0.6407772, -0.22325486, 0.6724238, -0.29565388, 0.9949496, 0.8283553, -0.13956451, 0
331, 2228873031, -0.6459873, -0.21193491, 0.67041796, -0.2971984, 1.6493665, 1.5283182, -0.42757607, 0
332, 2228889698, -0.65119797, -0.20525217, 0.6681452, -0.29563087, 1.6547692, 1.8940026, -0.68485546, 0
333, 2228906365, -0.65704966, -0.20020829, 0.66511273, -0.29296845, 2.172782, 1.7636266, -0.3642292, 0
335, 2228939699, -0.66801006, -0.19380434, 0.6580908, -0.28830892, 1.5869925, 1.9184082, -0.45087147, 0
336, 2228956366, -0.6721975, -0.19230261, 0.6545792, -0.28757477, 1.2899165, 1.6074817, -0.68398285, 0
337, 2228973033, -0.67668587, -0.19086334, 0.6506671, -0.28688458, 1.0993574, 1.8841722, -1.4818287, 0
339, 2229006367, -0.6876162, -0.1887202, 0.6389007, -0.28875205, 1.5546625, 1.5505719, -1.116663, 0
340, 2229023034, -0.69340634, -0.1878705, 0.6316177, -0.29146957, 1.4882524, 1.314308, -1.1088781, 0
341, 2229039701, -0.699242, -0.18669, 0.6238756, -0.29494017, 1.2246326, 1.8503357, -1.7313261, 0
343, 2229073035, -0.7122716, -0.18599722, 0.6048304, -0.30373934, 1.2738328, 2.0632477, -1.1200199, 0
344, 2229089702, -0.7191247, -0.18495879, 0.5942949, -0.30897674, 0.74148744, 2.3666742, -0.88091946, 0
346, 2229123036, -0.7295397, -0.18198498, 0.5760159, -0.32072103, -0.46291903, 0.8063926, 0.33542347, 0
347, 2229139703, -0.7325419, -0.1817654, 0.56939155, -0.32579142, 1.2292126, -0.14135541, 0.8097105, 0
348, 2229156370, -0.7362655, -0.18452503, 0.56199324, -0.32868016, 3.1818857, -0.8685897, 3.3057232, 0
350, 2229189704, -0.7479892, -0.1869527, 0.54548734, -0.3286453, -0.26897684, 3.0995474, 4.6106253, 0
351, 2229206371, -0.75567085, -0.17508954, 0.5387497, -0.32872075, -2.0339806, 4.544125, 2.0267534, 0
352, 2229223038, -0.76643187, -0.15654927, 0.5320735, -0.32399932, -1.3430278, 4.812932, 0.7176485, 0
354, 2229256372, -0.78599256, -0.11335129, 0.5211201, -0.31273696, 0.81579906, 1.8243024, -2.612186, 0
356, 2229289706, -0.8027768, -0.08394814, 0.5063478, -0.30350846, 2.626786, 0.54080164, -1.6074286, 0
358, 2229323040, -0.816074, -0.06451529, 0.4916749, -0.29684997, 3.5321257, 0.90076244, -0.70491314, 0
359, 2229339707, -0.8219578, -0.057345852, 0.4843794, -0.29406938, 3.7209554, 1.5909449, -0.47396374, 0
360, 2229356374, -0.82724005, -0.051306784, 0.4773422, -0.2918718, 4.162908, 1.6321348, -0.40636444, 0
362, 2229389708, -0.83609873, -0.041798577, 0.46364704, -0.29021826, 4.5169473, 1.0061138, -0.18753624, 0
363, 2229406375, -0.8393397, -0.03473618, 0.45869374, -0.2896646, 4.304125, 1.4012793, -0.6799221, 0
364, 2229423042, -0.84208566, -0.027891966, 0.45434946, -0.28928107, 3.9894075, 1.7187098, -1.0637436, 0
366, 2229456376, -0.84705335, -0.015535265, 0.44614992, -0.28846678, 2.9492593, 1.7996268, -1.2124567, 0
367, 2229473043, -0.8493584, -0.011061443, 0.4424989, -0.28751674, 3.0541725, 1.2537581, -1.6103287, 0
369, 2229506377, -0.8532525, -0.006102614, 0.4356969, -0.2865218, 3.3838992, 1.0635109, -1.6224031, 0
371, 2229539711, -0.8565491, -0.0063459203, 0.42888916, -0.28695062, 3.4260056, 1.004881, -1.003541, 0
373, 2229573045, -0.8586706, -0.003133146, 0.4240699, -0.28782472, 3.4359114, 1.1450155, -1.0742712, 0
374, 2229589712, -0.85967326, -0.0012241788, 0.42155388, -0.28854093, 3.2781434, 1.136812, -0.8198366, 0
375, 2229606379, -0.8606872, 5.2575767E-4, 0.41892743, -0.2893447, 3.0259004, 1.3489051, -1.274046, 0
377, 2229639713, -0.86192423, 4.5088492E-4, 0.4138944, -0.29288426, 3.3292975, 1.0148175, -1.2574778, 0
378, 2229656380, -0.86239743, -1.5755929E-4, 0.41120845, -0.29526475, 3.400271, 0.9363832, -1.150135, 0
379, 2229673047, -0.86291474, -0.0013743378, 0.40832117, -0.29774696, 3.2197883, 0.90861624, -1.3334179, 0
381, 2229706381, -0.8638096, -0.0055099167, 0.40209696, -0.30351886, 2.3179595, 0.38364246, -1.898768, 0
382, 2229723048, -0.8643414, -0.0077363793, 0.3985678, -0.30659544, 1.9419384, 0.24671422, -2.1146073, 0
383, 2229739715, -0.86527723, -0.010640501, 0.3940996, -0.30962983, 1.9012166, -0.057916913, -2.90913, 0
386, 2229789716, -0.8710502, -0.022173539, 0.3757885, -0.3155407, 0.8361555, 0.73557323, -2.0047302, 0
387, 2229806383, -0.8728082, -0.024943825, 0.37047094, -0.3167615, 0.89010483, 1.6643627, -3.0699797, 0
389, 2229839717, -0.8760539, -0.031415336, 0.3595038, -0.31984755, 1.9144865, 2.0115867, -3.966384, 0
390, 2229856384, -0.8768633, -0.03521117, 0.3553946, -0.32182068, 2.6361146, 1.7332809, -4.4478145, 0
391, 2229873051, -0.87747014, -0.037298944, 0.3528601, -0.32271922, 3.4581907, 1.5077022, -4.831281, 0
393, 2229906385, -0.87925667, -0.037171714, 0.3513961, -0.3194524, 4.724803, 3.1754355, -4.066655, 0
394, 2229923052, -0.87986434, -0.03965498, 0.350926, -0.31799442, 5.702209, 3.2451105, -2.6535625, 0
395, 2229939719, -0.8796421, -0.042282872, 0.35098004, -0.31821036, 8.296869, 3.537177, -0.9559107, 0
397, 2229973053, -0.8781511, -0.0433821, 0.35295656, -0.31998968, 11.715783, 5.7711263, 1.795846, 0
398, 2229989720, -0.8775885, -0.044519067, 0.35273302, -0.32161906, 11.858144, 6.549402, 4.2196836, 0
401, 2230039721, -0.8751103, -0.03671987, 0.35495514, -0.32686916, 11.922616, 9.399392, 8.052544, 0
402, 2230056388, -0.8743884, -0.028203655, 0.3572517, -0.3271448, 10.064033, 8.195782, 8.390707, 0
404, 2230089722, -0.87486726, -0.01983657, 0.35728955, -0.32643682, 9.063638, -0.20893106, 7.445793, 0
405, 2230106389, -0.87596375, -0.017868588, 0.35692653, -0.3239984, 6.922364, -0.6101851, 7.077215, 0
406, 2230123056, -0.8779591, -0.015123588, 0.3565527, -0.31911165, 2.0276778, 1.0098209, 4.893055, 0
408, 2230156390, -0.88365906, -0.01707483, 0.3509658, -0.30932397, -2.29477, 2.850687, 5.3865786, 0
409, 2230173057, -0.88629794, -0.016453713, 0.3479647, -0.30517063, -0.25313333, 3.4435904, 5.1745796, 0
410, 2230189724, -0.88840467, -0.01499231, 0.34606153, -0.30125856, -0.07273827, 2.0667422, 3.1579819, 0
412, 2230223058, -0.88987815, -0.016628211, 0.34521484, -0.2977751, 0.45831218, 0.6455692, 0.4724598, 0
413, 2230239725, -0.8901632, -0.018114612, 0.34539312, -0.29662782, 0.338522, 0.46703938, -0.5724344, 0
414, 2230256392, -0.89018315, -0.018941432, 0.3462825, -0.29547685, 0.26106223, 0.3889269, -1.036027, 0
416, 2230289726, -0.8899122, -0.026729973, 0.35007694, -0.29118904, 0.4979028, 0.19469081, -1.4930792, 0
417, 2230306393, -0.889504, -0.033316184, 0.35249057, -0.2888358, 0.54873997, 0.22323035, -1.7743301, 0
418, 2230323060, -0.88899404, -0.040575907, 0.35530132, -0.2860198, 0.9040648, 0.019473957, -1.8032341, 0
422, 2230389728, -0.8853416, -0.072522104, 0.36894134, -0.27348852, 0.75070924, 0.21386866, -3.073678, 0
424, 2230423062, -0.88216347, -0.088241994, 0.3777088, -0.26709583, 0.595405, 0.5101566, -3.2852, 0
425, 2230439729, -0.8801901, -0.094618805, 0.383565, -0.26304692, 0.82618433, 1.065012, -3.5676494, 0
427, 2230473063, -0.87608236, -0.10949625, 0.3935444, -0.25615683, 0.32740468, 1.563913, -3.1432796, 0
428, 2230489730, -0.87337863, -0.11668853, 0.39952317, -0.25293887, -0.82891077, 2.0011568, -2.2562943, 0
431, 2230539731, -0.86181927, -0.13103889, 0.4250897, -0.24371725, 0.83723325, 1.7368544, -4.018841, 0
432, 2230556398, -0.85939205, -0.13163534, 0.43095303, -0.24166179, 0.14712897, 2.2449675, -2.4568381, 0
433, 2230573065, -0.8568744, -0.12786368, 0.43803635, -0.23988442, -1.7241267, 2.2795703, -1.6358976, 0
435, 2230606399, -0.85217535, -0.10979727, 0.4558453, -0.23227125, -0.94226784, 2.1187656, -3.069333, 0
436, 2230623066, -0.85182935, -0.09910456, 0.4614589, -0.22720912, -0.69491494, 1.4157932, -4.1419697, 0
437, 2230639733, -0.8519892, -0.09344583, 0.46347788, -0.22488594, -2.442294, -0.88446516, -4.917506, 0
439, 2230673067, -0.85156345, -0.097741105, 0.46180776, -0.22808602, -0.5140047, -1.003254, -5.402023, 0
440, 2230689734, -0.85248774, -0.09911964, 0.45814484, -0.23140088, -0.47552347, 0.06737784, -5.454021, 0
441, 2230706401, -0.8540668, -0.09742244, 0.45418137, -0.23409641, -0.45172253, 0.09065551, -6.6981936, 0
444, 2230756402, -0.86377347, -0.100244865, 0.4324962, -0.23832026, 0.23435065, 0.46293512, -0.74955845, 0
447, 2230806403, -0.8744842, -0.09258127, 0.4080415, -0.24537988, 5.4534183, 0.8572495, -1.8483033, 0
450, 2230856404, -0.88179326, -0.07413658, 0.3944497, -0.2477033, 8.93742, 3.6200516, 0.64590263, 0
451, 2230873071, -0.8835281, -0.07273142, 0.38953927, -0.24970083, 10.762175, 3.4378572, 1.607563, 0
452, 2230889738, -0.8849063, -0.07364337, 0.38376835, -0.25346136, 11.277389, 3.5805492, 3.3833914, 0
454, 2230923072, -0.88615096, -0.06759246, 0.37394547, -0.26520923, 11.534627, 6.4740677, 5.992379, 0
455, 2230939739, -0.8864939, -0.056725048, 0.37093648, -0.27077705, 10.999275, 7.2510653, 5.368335, 0
456, 2230956406, -0.88688755, -0.043815188, 0.3685684, -0.2750843, 10.182826, 8.017806, 5.2904463, 0
458, 2230989740, -0.88788307, -0.018820487, 0.36388683, -0.28088963, 8.146668, 4.749529, 6.625662, 0
459, 2231006407, -0.8887012, -0.009230733, 0.36099496, -0.28250793, 7.635564, 0.39935187, 6.452816, 0
460, 2231023074, -0.88981616, -0.0013720803, 0.3574408, -0.28366283, 5.452547, -2.370969, 5.9666147, 0
466, 2231123076, -0.9004017, 0.0038233437, 0.33008435, -0.28338957, 0.6425215, 2.5373507, 2.7404833, 0
467, 2231139743, -0.90170336, 0.0026299488, 0.3275635, -0.28218755, 0.90984815, 0.95893794, 0.9668045, 0
468, 2231156410, -0.9026781, 0.0012222771, 0.3260198, -0.28086558, 0.95227563, 0.20180309, 0.11891651, 0
470, 2231189744, -0.90247923, -0.0022456814, 0.32732078, -0.2799835, 1.3221196, 0.5026306, -1.1169586, 0
471, 2231206411, -0.90204555, -0.0059915613, 0.32863232, -0.27978972, 1.1747508, 0.16883303, -1.160121, 0
472, 2231223078, -0.9012913, -0.009331626, 0.33095044, -0.2793961, 1.2860825, 0.3491378, -1.0302172, 0
474, 2231256412, -0.89915216, -0.016550122, 0.33810693, -0.27737844, 0.5677164, 0.34606898, -1.8081551, 0
476, 2231289746, -0.89633864, -0.026494002, 0.3481853, -0.27321368, 0.8108402, 0.378282, -2.6958952, 0
478, 2231323080, -0.8934227, -0.04064145, 0.35965395, -0.2660761, 0.77565163, 0.6713786, -2.8706598, 0
479, 2231339747, -0.89188755, -0.047229037, 0.36530578, -0.26241404, 0.5042285, 0.84911996, -3.3043857, 0
482, 2231389748, -0.88787985, -0.05561295, 0.38256347, -0.24944976, -0.07019715, 1.2486014, -2.5209794, 0
483, 2231406415, -0.8863196, -0.059608363, 0.3877875, -0.24598536, 0.3343792, 0.7044251, -2.8001285, 0
485, 2231439749, -0.8817517, -0.071689025, 0.39924666, -0.24079086, 0.19853628, 0.41142294, -2.5846682, 0
486, 2231456416, -0.8787529, -0.075154796, 0.40685743, -0.23794028, -0.6026705, 0.28681195, -2.6804938, 0
487, 2231473083, -0.8756137, -0.07869193, 0.41427514, -0.23555835, -0.3508465, 0.19749635, -3.069034, 0
489, 2231506417, -0.8693179, -0.0845893, 0.42815542, -0.23198573, -1.0842296, 0.8416844, -3.0994349, 0
490, 2231523084, -0.8665092, -0.08673191, 0.4339775, -0.23088185, -1.0852828, 1.4042916, -2.5150466, 0
491, 2231539751, -0.8631687, -0.08549733, 0.44137946, -0.22982039, -0.8587468, 1.40809, -1.9222684, 0
493, 2231573085, -0.85534835, -0.08553241, 0.4555438, -0.23140144, -0.28286505, -0.96224296, -0.9143028, 0
494, 2231589752, -0.85120857, -0.08722566, 0.46261838, -0.23199882, -0.23589289, -1.0331361, -0.9516649, 0
495, 2231606419, -0.8475128, -0.09124218, 0.4680035, -0.23318064, -0.15876348, -0.108471595, -0.9093151, 0
497, 2231639753, -0.84274393, -0.09964872, 0.47325233, -0.23640738, -1.0042443, 1.3720374, 0.29461575, 0
498, 2231656420, -0.8405894, -0.101034984, 0.47633064, -0.23730543, -1.1584592, 1.0506238, 0.14834118, 0
499, 2231673087, -0.8391072, -0.10386466, 0.47781134, -0.23835078, 0.24554038, 0.5708279, -0.87670135, 0
501, 2231706421, -0.8404286, -0.11650024, 0.46921903, -0.2448358, 0.7838139, 1.6157811, -1.4548283, 0
502, 2231723088, -0.8434485, -0.11435336, 0.46272516, -0.24780372, -1.4924458, 2.7756786, -0.88780594, 0
504, 2231756422, -0.8511375, -0.1116075, 0.44726127, -0.2511364, 0.9114054, 2.1423044, -5.63569, 0
506, 2231789756, -0.8601869, -0.10909554, 0.4307843, -0.25021008, 2.9909556, 5.200383, -8.230044, 0
508, 2231823090, -0.8710268, -0.09521417, 0.41438222, -0.24604332, 2.5081122, 0.5160795, -2.0810914, 0
510, 2231856424, -0.8784935, -0.088903405, 0.39984545, -0.24591167, 7.0846457, 4.9915943, -1.1666679, 0
512, 2231889758, -0.883537, -0.08485706, 0.3884703, -0.24749923, 13.791391, 4.160887, 4.1020956, 0
513, 2231906425, -0.8868045, -0.07523409, 0.38416463, -0.24563865, 13.461579, 6.3466682, 5.394882, 0
514, 2231923092, -0.8903656, -0.06421204, 0.37986946, -0.24254572, 11.282487, 6.255293, 6.7625637, 0
516, 2231956426, -0.89452314, -0.031435855, 0.37791467, -0.23669429, 8.264568, 3.7105074, 6.0012445, 0
517, 2231973093, -0.8945137, -0.012580064, 0.37898183, -0.23677638, 7.604931, -2.2291586, 5.754016, 0
518, 2231989760, -0.8956048, -1.892671E-4, 0.3774008, -0.23550782, 6.0923476, -6.7605453, 7.929392, 0
520, 2232023094, -0.9020608, 0.01509426, 0.36831215, -0.22451782, -5.803554, 0.89370495, 9.343817, 0
521, 2232039761, -0.90382904, 0.01962068, 0.36540052, -0.22179705, -4.3114696, 2.523967, 9.893808, 0
522, 2232056428, -0.9043332, 0.024763756, 0.36493602, -0.219985, -0.45089805, 2.0844295, 6.9509373, 0
525, 2232106429, -0.9047923, 0.031114161, 0.36757335, -0.21278226, 0.68227285, -3.3181753, 2.1545486, 0
526, 2232123096, -0.9046177, 0.030940162, 0.37016824, -0.20901799, 0.46200597, -2.5339308, 1.3526707, 0
528, 2232156430, -0.9042111, 0.02213574, 0.37714013, -0.19920063, 1.7733489, -1.2585714, -1.3570671, 0
529, 2232173097, -0.90463877, 0.013865521, 0.37792805, -0.19649555, 1.7744242, -0.97540283, -2.1915522, 0
530, 2232189764, -0.9046796, 0.004824495, 0.37906972, -0.19452849, 1.6083834, 0.15934248, -3.4703841, 0
532, 2232223098, -0.9033928, -0.015970351, 0.38307306, -0.19205473, 1.4185792, 1.2030824, -5.0387397, 0
533, 2232239765, -0.90192527, -0.029945675, 0.38640472, -0.1906017, 1.8099422, 2.0643492, -4.7782707, 0
535, 2232273099, -0.89799345, -0.053244866, 0.394331, -0.18782808, 1.2426066, 2.3412912, -4.0554795, 0
536, 2232289766, -0.8952432, -0.061444074, 0.3998207, -0.186846, 1.3396392, 1.7231892, -4.1719184, 0
539, 2232339767, -0.88444287, -0.08686209, 0.41740364, -0.18971929, 1.5907482, 0.97794, -4.171514, 0
541, 2232373101, -0.8764134, -0.092975214, 0.43053034, -0.19468552, 2.5284295, -1.2852798, -2.748095, 0
543, 2232406435, -0.87140775, -0.09148462, 0.44001952, -0.19663504, 2.4330735, 1.5292256, -1.3751984, 0
544, 2232423102, -0.8710222, -0.09324325, 0.4402452, -0.19701101, -0.32006407, 1.4421047, -0.12893486, 0
547, 2232473103, -0.8674839, -0.1067578, 0.4424955, -0.20068778, 2.263376, 1.2121744, 0.6506481, 0
548, 2232489770, -0.8666491, -0.10959108, 0.44418192, -0.19903523, 1.5281729, 1.9489413, 1.0787458, 0
549, 2232506437, -0.86566883, -0.110271156, 0.44718865, -0.19617197, 2.2127488, 2.6731784, 0.1175518, 0
551, 2232539771, -0.86285406, -0.117754236, 0.45245984, -0.19209483, 1.8956454, 1.2329983, 0.58525085, 0
552, 2232556438, -0.86113673, -0.11912312, 0.45617762, -0.19015394, 0.9529068, 1.1934733, 0.5525398, 0
553, 2232573105, -0.85930926, -0.120219, 0.46031237, -0.18775237, 0.79469, 2.159232, 0.91576385, 0
555, 2232606439, -0.8569216, -0.12994307, 0.4631301, -0.18524078, -0.77298826, 0.13164847, 0.47541237, 0
558, 2232656440, -0.8531891, -0.12731984, 0.47256884, -0.18038888, -1.2608647, -0.03887656, 0.79918766, 0
559, 2232673107, -0.85166985, -0.12748088, 0.47506732, -0.18089138, -1.0136578, -0.010405087, 0.76094913, 0
560, 2232689774, -0.8501298, -0.12648927, 0.47774494, -0.18177702, -0.65976375, 0.14589937, 0.61421204, 0
562, 2232723108, -0.8476744, -0.12173484, 0.4830607, -0.18243992, 0.21763009, 1.0842252, -1.8997006, 0
563, 2232739775, -0.8482784, -0.11910819, 0.4829343, -0.18170005, -0.50646156, 1.1449983, -3.3988285, 0
564, 2232756442, -0.85029644, -0.115421794, 0.48097152, -0.17984335, -1.3664273, 0.714546, -3.7345004, 0
566, 2232789776, -0.8551454, -0.11112313, 0.47496346, -0.17547448, 0.2155512, -0.36377382, -6.6828585, 0
567, 2232806443, -0.8581829, -0.11341178, 0.46926528, -0.17451018, 0.49752218, -1.164304, -7.6959343, 0
568, 2232823110, -0.8614987, -0.116610415, 0.46219316, -0.17493689, 0.65002644, -1.613035, -8.329769, 0
570, 2232856444, -0.86873525, -0.113790125, 0.44874322, -0.17602253, 0.89412457, -1.9866053, -9.6750765, 0
571, 2232873111, -0.8739389, -0.10799028, 0.43963856, -0.17689069, 1.7640944, -1.8510514, -10.083549, 0
572, 2232889778, -0.88098735, -0.104564056, 0.42563888, -0.17822134, -1.4656371, -2.998699, -5.0564218, 0
574, 2232923112, -0.8895395, -0.13435498, 0.39693105, -0.1819825, 6.2571855, 1.9210753, -3.648324, 0
575, 2232939779, -0.8942589, -0.14283815, 0.3837107, -0.18074319, 6.3542213, 3.8726685, -0.1412363, 0
576, 2232956446, -0.8995283, -0.14723462, 0.37172642, -0.17605044, 7.4178095, 5.6000066, 1.4113283, 0
578, 2232989780, -0.9110075, -0.15672433, 0.3442122, -0.16439077, 11.0388775, 1.9797665, 9.121979, 0
579, 2233006447, -0.91543067, -0.16321123, 0.3319491, -0.15862623, 11.122683, 3.8650146, 11.028948, 0
580, 2233023114, -0.91878927, -0.16747281, 0.3229125, -0.15333088, 8.660297, 3.67017, 10.340042, 0
582, 2233056448, -0.9240377, -0.1609274, 0.31415161, -0.14686342, 2.710708, 5.8869514, 6.840309, 0
585, 2233106449, -0.93031126, -0.14577161, 0.30357698, -0.14531457, -2.8680928, 6.5157423, 12.204706, 0
586, 2233123116, -0.93252015, -0.13619216, 0.30219212, -0.14332229, 1.7679669, 3.962465, 10.984438, 0
587, 2233139783, -0.9335109, -0.13462214, 0.29881254, -0.14542675, 1.2520399, -4.2209415, 5.7808523, 0
589, 2233173117, -0.9332039, -0.13092062, 0.29941422, -0.14948271, 1.5436225, -2.5447693, 1.6762028, 0
590, 2233189784, -0.9325136, -0.12800756, 0.30274612, -0.14960153, 1.5349475, 0.40188769, 0.6833401, 0
591, 2233206451, -0.931413, -0.1251345, 0.30685467, -0.1505157, 0.5537174, 1.2908565, 0.22067928, 0
593, 2233239785, -0.92784667, -0.12780213, 0.31375343, -0.1559789, 1.2408803, 0.40495408, -0.21024418, 0
594, 2233256452, -0.9256338, -0.13190576, 0.31695738, -0.15919974, 0.9318568, 0.7689697, 0.103505135, 0
595, 2233273119, -0.9231394, -0.13504739, 0.32133916, -0.16223586, 0.75860184, 0.6363994, 0.02036953, 0
597, 2233306453, -0.91756696, -0.134907, 0.33465868, -0.16696689, 1.0691309, 1.7269812, -0.9822302, 0
599, 2233339787, -0.91079223, -0.13707618, 0.34993413, -0.17093061, 1.1414626, 0.3566556, -2.3003216, 0
601, 2233373121, -0.903673, -0.13884361, 0.36605823, -0.17350006, 0.9269469, 0.574483, -2.3931737, 0
602, 2233389788, -0.8997722, -0.1398812, 0.37461033, -0.17468154, 1.4152865, 0.38774797, -2.44307, 0
603, 2233406455, -0.8957211, -0.14012624, 0.38352755, -0.17594938, 1.4594963, 0.56257, -2.3879056, 0
605, 2233439789, -0.8876967, -0.13693504, 0.40146258, -0.17909405, 1.2165593, 0.9925134, -2.3888206, 0
606, 2233456456, -0.88356304, -0.13628073, 0.40973815, -0.18127877, 1.1743572, 0.75580835, -2.9900084, 0
607, 2233473123, -0.87920684, -0.13713676, 0.41831955, -0.18221137, 0.56814265, 0.9586591, -3.1857529, 0
609, 2233506457, -0.8716459, -0.14154752, 0.430983, -0.18561977, 1.5508199, -0.10201903, -2.966672, 0
610, 2233523124, -0.8689055, -0.14210352, 0.4352857, -0.18798885, 1.2790847, -0.56716305, -1.7082024, 0
611, 2233539791, -0.86568165, -0.14089705, 0.44146517, -0.1893552, 1.314612, -0.51737523, -1.3936253, 0
614, 2233589792, -0.85667175, -0.14219506, 0.4569068, -0.19270125, 1.6796422, 0.45882705, -1.265646, 0
616, 2233623126, -0.8520819, -0.14334774, 0.46463272, -0.19372132, 1.3715091, 0.17543185, -0.35058022, 0
617, 2233639793, -0.8498566, -0.14376049, 0.4686068, -0.19361755, 1.2474307, 0.37200028, -0.1560669, 0
618, 2233656460, -0.84749025, -0.14454892, 0.4725904, -0.19372064, 0.9346134, 0.57260025, -0.81668377, 0
620, 2233689794, -0.8453606, -0.1412895, 0.4780466, -0.19203644, 0.19101813, 0.42719948, -1.6171131, 0
621, 2233706461, -0.84557086, -0.13874158, 0.47928798, -0.1898612, -0.021467526, 0.17049809, -1.1787939, 0
622, 2233723128, -0.8463417, -0.137479, 0.47908443, -0.18784754, 0.049134407, 0.3639205, -1.8613057, 0
624, 2233756462, -0.8496127, -0.13586111, 0.4748839, -0.18490277, -1.5924884, 0.9221958, -4.1322823, 0
625, 2233773129, -0.8526138, -0.12726226, 0.47309697, -0.1817615, -0.9988524, 0.18164797, -4.6902986, 0
626, 2233789796, -0.85718757, -0.118325576, 0.46856695, -0.17798069, 0.22520494, -1.084159, -4.200133, 0
629, 2233839797, -0.87570465, -0.095808536, 0.44216117, -0.16869861, -2.456135, -0.56344056, -6.384039, 0
630, 2233856464, -0.881078, -0.083008714, 0.43461347, -0.16711035, 0.041233446, -1.945786, -8.0051985, 0
632, 2233889798, -0.89016294, -0.08260127, 0.41453433, -0.17015179, 4.0500674, -0.9379268, -8.281033, 0
633, 2233906465, -0.8950337, -0.08417366, 0.4031431, -0.17119753, 4.495357, 0.101375416, -2.5964503, 0
634, 2233923132, -0.89978254, -0.0857835, 0.3916884, -0.17209403, 5.702999, -0.2813213, -1.6182518, 0
636, 2233956466, -0.9083384, -0.076548964, 0.37526098, -0.16806088, 10.245648, 4.7016816, 7.154642, 0
637, 2233973133, -0.9123813, -0.084098846, 0.3642167, -0.16684687, 11.175935, 2.7777812, 8.443264, 0
639, 2234006467, -0.9183303, -0.119572885, 0.33727357, -0.16918075, 13.084318, 1.5320544, 10.230623, 0
640, 2234023134, -0.92036945, -0.12980519, 0.3277865, -0.16920477, 9.508288, 3.1227021, 7.670246, 0
641, 2234039801, -0.92239714, -0.13462391, 0.32044938, -0.16845122, 3.4596305, 6.263973, 5.463993, 0
643, 2234073135, -0.92383665, -0.14897135, 0.30876, -0.17030612, -2.909247, 3.9227526, 2.8450127, 0
644, 2234089802, -0.9240609, -0.14984186, 0.3062338, -0.17286777, -4.2139487, 2.4462807, 6.2634907, 0
645, 2234106469, -0.9252745, -0.1460894, 0.30395874, -0.17360167, -0.96857953, 3.099315, 10.4244995, 0
647, 2234139803, -0.92685866, -0.14852127, 0.29477015, -0.17885382, 1.7841716, -3.0683937, 7.479973, 0
648, 2234156470, -0.9268873, -0.1485147, 0.29308596, -0.18145987, -0.31965503, -3.9711783, 2.2455015, 0
649, 2234173137, -0.92707336, -0.14575642, 0.2942392, -0.18087845, -0.81452054, -1.6565416, 0.540081, 0
651, 2234206471, -0.92720646, -0.13679594, 0.30106652, -0.17589167, -0.16018905, 2.2761648, -0.0030002594, 0
652, 2234223138, -0.9272098, -0.13160536, 0.30479532, -0.17339431, 0.5194459, 2.5738568, -0.23201942, 0
653, 2234239805, -0.9259204, -0.12870045, 0.31145763, -0.17060249, 0.3374481, 1.5428358, -0.9075527, 0
656, 2234289806, -0.92215943, -0.11524985, 0.3326618, -0.1602476, 0.42314848, 0.5847553, -2.0687952, 0
657, 2234306473, -0.92005265, -0.11176863, 0.3410148, -0.15723717, 1.0313886, 0.21453132, -2.580062, 0
659, 2234339807, -0.9152195, -0.10715053, 0.35803327, -0.15069123, 1.6951983, -0.25454414, -2.6585183, 0
660, 2234356474, -0.9123081, -0.10581159, 0.36714864, -0.14732143, 1.5970482, 0.12214564, -3.0300002, 0
661, 2234373141, -0.9093633, -0.1042089, 0.37600452, -0.14430211, 1.4272543, -0.16952583, -3.18049, 0
663, 2234406475, -0.9028271, -0.105741486, 0.39246863, -0.1403354, 1.8427536, -0.4587246, -2.4908004, 0
664, 2234423142, -0.8993236, -0.107301295, 0.40060353, -0.13865137, 1.8161896, -0.5951673, -2.1633573, 0
665, 2234439809, -0.8957785, -0.10648616, 0.40836608, -0.13958026, 2.2078798, 0.16366915, -1.7102165, 0
667, 2234473143, -0.8878389, -0.11259204, 0.4229492, -0.14206648, 1.8095783, -1.0196009, -1.4691486, 0
668, 2234489810, -0.88369167, -0.11684807, 0.42951727, -0.14475484, 1.080794, -0.901046, -0.86765194, 0
671, 2234539811, -0.8701041, -0.12670226, 0.4503434, -0.15511276, 0.62344915, -0.60385555, -1.147439, 0
672, 2234556478, -0.86593044, -0.12754801, 0.45708975, -0.15801452, 0.46808574, 0.12155886, -0.50767136, 0
674, 2234589812, -0.85723, -0.123117805, 0.473156, -0.16163439, 0.59426844, 0.4206586, -0.89935875, 0
675, 2234606479, -0.85375804, -0.12217785, 0.47911045, -0.16317704, 0.6409516, -0.46633583, -0.27071953, 0
676, 2234623146, -0.8514154, -0.120317295, 0.48389015, -0.1626943, -0.7719677, 0.24079436, -0.0038642883, 0
678, 2234656480, -0.8460437, -0.11338711, 0.49516848, -0.16175658, 0.2927671, 0.91108525, 0.31998253, 0
679, 2234673147, -0.84381276, -0.1103292, 0.4997049, -0.16157389, 0.73111045, 0.93131834, 0.5869894, 0
680, 2234689814, -0.84247386, -0.10473624, 0.50387037, -0.15933171, 0.47495967, 1.0311648, 0.5738468, 0
682, 2234723148, -0.84145814, -0.096399695, 0.5093691, -0.15232207, 0.78719115, 0.20427895, -0.11222458, 0
683, 2234739815, -0.84205925, -0.095324665, 0.50935555, -0.14969978, 0.9375546, -1.0007939, -0.085139275, 0
686, 2234789816, -0.84185857, -0.0899487, 0.5116429, -0.14631747, 1.0313058, 0.9469604, -0.8811064, 0
687, 2234806483, -0.84242594, -0.087831035, 0.51126945, -0.14564142, 1.3215704, -0.0149102975, -0.68899345, 0
688, 2234823150, -0.8433573, -0.088082895, 0.5095873, -0.1459943, 1.1003983, 0.08395331, -0.7313833, 0
690, 2234856484, -0.84624404, -0.08639884, 0.50473434, -0.14715084, 1.2783786, -0.16564645, -1.3295832, 0
691, 2234873151, -0.8482383, -0.08525252, 0.50138557, -0.14778452, 0.9412231, -0.37335682, -1.9128466, 0
693, 2234906485, -0.8541147, -0.087952524, 0.49033234, -0.14943354, -0.42201057, 0.6441418, -3.493043, 0
694, 2234923152, -0.85817087, -0.086061984, 0.48339185, -0.1499076, -0.63584965, 0.5711038, -4.986133, 0
695, 2234939819, -0.8624816, -0.07787743, 0.4775046, -0.1485051, -0.71891844, 0.19723925, -5.5564604, 0
697, 2234973153, -0.87167764, -0.04562065, 0.4684028, -0.13674487, -0.16953547, -0.59296155, -6.5408177, 0
698, 2234989820, -0.8766705, -0.033680838, 0.4619156, -0.1302003, 0.92139137, -0.35055277, -8.1618185, 0
701, 2235039821, -0.8927643, -0.05855231, 0.42871717, -0.12549424, 1.5498174, -2.3743446, -4.7739215, 0
702, 2235056488, -0.8975601, -0.05032529, 0.42226812, -0.11638966, 1.467738, 0.6732585, 1.6939831, 0
703, 2235073155, -0.9012389, -0.037278317, 0.418267, -0.106935345, 7.379, 6.017715, 4.956417, 0
705, 2235106489, -0.90932715, -0.047372397, 0.40007868, -0.104022324, 11.073936, 1.5924336, 9.535242, 0
706, 2235123156, -0.9130979, -0.060461294, 0.38894677, -0.10639893, 10.900382, -0.55100185, 10.54874, 0
707, 2235139823, -0.9158943, -0.070091024, 0.37968278, -0.10986294, 9.68383, -2.1039937, 10.808048, 0
709, 2235173157, -0.9191484, -0.08471578, 0.3667408, -0.116165616, 2.532808, 4.5575457, 6.4489384, 0
710, 2235189824, -0.9198812, -0.09764921, 0.35886306, -0.1245157, -0.102108315, 2.8173988, 5.310067, 0
711, 2235206491, -0.92067665, -0.10914591, 0.34916574, -0.13612087, -3.823149, -0.87751794, 8.342463, 0
713, 2235239825, -0.9224504, -0.10340255, 0.3412791, -0.14807263, -0.13239835, 6.70176, 14.083786, 0
714, 2235256492, -0.92297524, -0.109862365, 0.33495137, -0.15446132, -0.5166667, 0.8822148, 7.065607, 0
715, 2235273159, -0.92259485, -0.117345415, 0.33045226, -0.16079134, -0.57886773, -1.2619933, 1.2170887, 0
717, 2235306493, -0.92062956, -0.12837659, 0.32774028, -0.16896996, -0.66867834, 0.2288738, -0.047646523, 0
718, 2235323160, -0.9190145, -0.13416614, 0.32891384, -0.17097107, 0.15558313, 1.7808149, -0.06824303, 0
719, 2235339827, -0.9170721, -0.13728282, 0.33254912, -0.17189227, -0.11360772, 3.6283145, -1.0687914, 0
721, 2235373161, -0.91328704, -0.13450672, 0.34431422, -0.17107329, 0.33765477, 3.4184184, -3.2469387, 0
722, 2235389828, -0.91140574, -0.13294563, 0.35027987, -0.1702137, 0.28500116, 2.9760807, -3.797072, 0
724, 2235423162, -0.90728396, -0.13317287, 0.36088678, -0.16989759, 0.79831237, 1.1909915, -4.243456, 0
725, 2235439829, -0.9054111, -0.13154243, 0.366715, -0.16867512, 1.9915987, 0.21201073, -4.3329067, 0
728, 2235489830, -0.8991796, -0.13876829, 0.3811088, -0.16425326, 1.3485442, -0.6532661, -3.5001726, 0
729, 2235506497, -0.8962931, -0.14328295, 0.38567027, -0.16550122, 1.0136836, -2.1633778, -2.9460907, 0
730, 2235523164, -0.89268404, -0.14997007, 0.39032575, -0.16814783, 1.258462, -1.9542497, -1.9598885, 0
732, 2235556498, -0.8844677, -0.15051247, 0.40595862, -0.17396605, 2.126765, -0.68383014, -3.2966657, 0
736, 2235623166, -0.86298233, -0.17513223, 0.42808878, -0.20330752, 1.2112108, 1.509126, 0.7194252, 0
737, 2235639833, -0.8589887, -0.17301224, 0.43359023, -0.21025798, 0.2197604, 1.6362106, 0.25185108, 0
738, 2235656500, -0.8558019, -0.16911608, 0.43832004, -0.21652251, 0.83817494, 2.108007, 1.2022915, 0
740, 2235689834, -0.85311085, -0.15712076, 0.4457092, -0.2210477, 0.12766032, 2.3473032, 2.8599396, 0
741, 2235706501, -0.85259795, -0.14929774, 0.44999295, -0.21976583, 0.98868585, 3.7168074, 2.6478043, 0
742, 2235723168, -0.8518259, -0.14622176, 0.45321313, -0.21820486, 1.33935, 3.7598445, 1.7695484, 0
745, 2235773169, -0.8490357, -0.14673638, 0.46162668, -0.21097767, -0.117158785, -1.9348104, 2.36343, 0
746, 2235789836, -0.84774673, -0.14074853, 0.46711516, -0.20814052, -0.75797826, -2.1512866, 0.39507866, 0
748, 2235823170, -0.84383285, -0.14088823, 0.47543842, -0.20508225, -0.30864748, -1.9667343, -2.05517, 0
751, 2235873171, -0.84113455, -0.13243717, 0.48595345, -0.19699238, -1.5872669, 1.9129634, -0.38410187, 0
753, 2235906505, -0.84155697, -0.11865835, 0.49216008, -0.18837278, -0.8233171, 1.4666953, -0.7964678, 0
755, 2235939839, -0.843737, -0.10675119, 0.49515823, -0.17757882, -1.1465989, -0.23140417, -1.2511692, 0
756, 2235956506, -0.8445929, -0.099424876, 0.49731824, -0.17162694, -1.3891321, -0.06051845, -2.5487766, 0
757, 2235973173, -0.8455622, -0.090963125, 0.49910244, -0.16628447, -0.48633468, 0.120522626, -3.9901762, 0
759, 2236006507, -0.8487511, -0.07892357, 0.49793348, -0.15955772, 0.47506014, 0.56340855, -5.1818786, 0
760, 2236023174, -0.85140973, -0.07376611, 0.49459776, -0.15822996, -0.900736, 1.7179092, -4.6720877, 0
763, 2236073175, -0.86087865, -0.051708974, 0.48169917, -0.15551177, -1.2408949, 1.9362326, -6.346529, 0
764, 2236089842, -0.8647635, -0.04458087, 0.47620574, -0.15306337, 0.3021047, 2.1340039, -8.630958, 0
765, 2236106509, -0.86920696, -0.044377994, 0.4685378, -0.15161128, 1.5816953, 1.0921717, -8.77416, 0
767, 2236139843, -0.87902695, -0.05587305, 0.44965035, -0.1483511, 1.2463579, -1.0196179, -4.380244, 0
768, 2236156510, -0.8831967, -0.048555925, 0.44335806, -0.14506218, 1.9931312, 3.1142476, 1.9682741, 0
772, 2236223178, -0.89711493, -0.03573825, 0.41937733, -0.1342904, 12.319127, -3.0246518, 12.123779, 0
776, 2236289846, -0.90888095, 0.019176299, 0.3955305, -0.13086933, 5.920823, -0.7520966, 6.1957703, 0
778, 2236323180, -0.91223943, 0.04060638, 0.3884473, -0.123624735, -2.755031, -4.5241094, 3.005663, 0
779, 2236339847, -0.9152496, 0.037096635, 0.3822545, -0.121766955, -3.2469802, -4.352581, 9.221401, 0
780, 2236356514, -0.9178793, 0.034849193, 0.37698314, -0.11904025, -4.059371, -1.1040637, 9.893286, 0
783, 2236406515, -0.92342407, 0.03387844, 0.36481598, -0.11425048, -1.219104, 0.33893606, 2.7260723, 0
784, 2236423182, -0.92384696, 0.032823026, 0.36303267, -0.11679315, -0.84719056, -0.81560194, -0.22937107, 0
787, 2236473183, -0.9206614, 0.025876043, 0.36845195, -0.1263328, -0.08831444, -1.5292405, -1.0116234, 0
788, 2236489850, -0.91858643, 0.023108007, 0.37307832, -0.12837926, -0.17991966, -0.7041543, -2.184143, 0
790, 2236523184, -0.91366667, 0.010959178, 0.38447133, -0.1314472, 0.47979963, -1.141504, -1.8699546, 0
791, 2236539851, -0.9111937, 0.0061178934, 0.39061207, -0.1308217, 0.39759827, -0.86477876, -1.6413336, 0
792, 2236556518, -0.9085357, 0.0036430042, 0.39745775, -0.12876505, -0.7079784, 0.31256777, -1.5375252, 0
794, 2236589852, -0.9024858, -0.0070039574, 0.41315007, -0.12157782, 0.36641687, 0.7087539, -2.8743486, 0
795, 2236606519, -0.89954853, -0.017438352, 0.42038137, -0.117437795, 0.51586765, 1.1816083, -3.0389576, 0
796, 2236623186, -0.8965238, -0.024888786, 0.4274916, -0.11349204, 0.43812698, 1.3795581, -2.4093413, 0
799, 2236673187, -0.88997793, -0.03137726, 0.44434252, -0.09756087, -0.46495903, 1.3077406, -2.0631456, 0
800, 2236689854, -0.8878308, -0.033908147, 0.4497914, -0.09109396, -0.42130694, 0.70867914, -2.562355, 0
802, 2236723188, -0.8832196, -0.04608838, 0.45975634, -0.08016893, -0.40168744, -0.10498711, -3.0212984, 0
803, 2236739855, -0.88131946, -0.04830807, 0.4640674, -0.07475083, -1.2327589, 1.3307788, -1.1880007, 0
806, 2236789856, -0.87451726, -0.042264782, 0.4798294, -0.056575537, -1.5653974, 0.6390642, -0.64391327, 0
807, 2236806523, -0.8695387, -0.044357345, 0.48929417, -0.05029815, -1.5810984, -1.089919, -1.8330965, 0
809, 2236839857, -0.86228424, -0.047926955, 0.50213116, -0.045134045, 0.08493939, 1.3962729, -0.19625378, 0
810, 2236856524, -0.8604135, -0.044267077, 0.5058084, -0.043482207, -1.1190436, 2.842978, 0.66651726, 0
811, 2236873191, -0.85809165, -0.039192773, 0.5102469, -0.042360447, -0.8671087, 1.6248363, -0.0905714, 0
814, 2236923192, -0.84763265, -0.05274399, 0.52573436, -0.048416708, -1.7109627, -2.9221551, -0.8428602, 0
815, 2236939859, -0.84429854, -0.051882457, 0.5307658, -0.052530944, -1.6656517, 0.9343833, -0.4000988, 0
817, 2236973193, -0.841978, -0.020747416, 0.5369564, -0.048208997, -0.34913886, 4.3035245, -0.6541023, 0
818, 2236989860, -0.84131396, -0.017456872, 0.53812486, -0.048078675, -0.8268996, -1.4642811, -3.5203571, 0
819, 2237006527, -0.84089255, -0.023512023, 0.5382649, -0.051200666, 1.0937442, -1.4076717, -3.0311513, 0
821, 2237039861, -0.84529334, -0.027383646, 0.5304097, -0.058297038, -1.9700439, 1.3006124, -0.035681725, 0
822, 2237056528, -0.8480945, -0.0020187497, 0.52695745, -0.055240076, -2.1486256, 6.932631, 1.4253731, 0
823, 2237073195, -0.8517487, 0.009611182, 0.5213625, -0.05115215, 0.63420254, -0.29695377, -8.180952, 0
825, 2237106529, -0.8641508, -0.015606042, 0.49951732, -0.059040636, 0.6485322, 3.75371, -6.1451607, 0
826, 2237123196, -0.8710713, -0.015673487, 0.48695117, -0.06222114, 1.809867, -0.95173216, -5.9989448, 0
829, 2237173197, -0.88758624, 0.02416441, 0.45738363, -0.049099013, 1.4819584, 1.7118008, -4.255004, 0
830, 2237189864, -0.89373046, 0.01184712, 0.44600174, -0.04681911, 5.9299326, 2.0733843, 1.134223, 0
832, 2237223198, -0.90422547, 0.010531902, 0.42407906, -0.049255952, 11.452997, -2.6403327, 6.5194435, 0
833, 2237239865, -0.909683, 0.012077145, 0.41170448, -0.05323894, 11.937768, -3.077616, 9.525612, 0
834, 2237256532, -0.91504496, 0.010369625, 0.39878345, -0.059670612, 11.315312, -1.1582291, 10.099499, 0
837, 2237306533, -0.9241314, 0.029613387, 0.37086892, -0.0869711, 9.669634, 2.0318778, 6.872978, 0
838, 2237323200, -0.92390084, 0.050462753, 0.3676269, -0.09335369, 7.1923122, 2.705394, 3.1367416, 0
840, 2237356534, -0.9237309, 0.07559168, 0.36200258, -0.09982507, -3.737434, -7.2915254, 2.540989, 0
842, 2237389868, -0.9266394, 0.06484474, 0.3573644, -0.097102135, -7.642254, -2.2323534, 7.8157387, 0
844, 2237423202, -0.9285679, 0.05494538, 0.35331163, -0.09958627, 0.9449873, 2.5827646, 7.8446865, 0
846, 2237456536, -0.92933816, 0.04696186, 0.35201868, -0.10105261, -2.308322, -0.043813903, 0.450346, 0
848, 2237489870, -0.92739886, 0.03941532, 0.3566542, -0.10573234, -1.1394476, -0.18308477, -0.7708254, 0
849, 2237506537, -0.92601746, 0.0335465, 0.35969397, -0.10949984, 0.7356927, -0.59370583, 0.08379078, 0
850, 2237523204, -0.92429644, 0.026189182, 0.3636683, -0.11286899, 0.9707984, -0.7287715, -0.21611214, 0
852, 2237556538, -0.92029226, 0.015374899, 0.37318757, -0.11644962, -0.5047716, -0.6100825, -0.8523617, 0
853, 2237573205, -0.91778195, 0.01362114, 0.37951043, -0.11604439, -0.66103333, 0.11549071, -1.9401093, 0
854, 2237589872, -0.9150641, 0.010851618, 0.38662592, -0.11429818, -0.5221638, 0.41358373, -2.0384674, 0
856, 2237623206, -0.9093759, -5.0561316E-4, 0.40162057, -0.108350046, -0.3643746, 1.4965706, -1.9198437, 0
857, 2237639873, -0.90633786, -0.0065556094, 0.40938866, -0.10446733, 0.025452984, 0.4086811, -1.9502468, 0
859, 2237673207, -0.8999627, -0.017391106, 0.4248327, -0.096361935, -0.052937478, 0.058468923, -2.7471175, 0
861, 2237706541, -0.8941513, -0.027417516, 0.4379373, -0.08919951, -0.26731947, 0.5396408, -1.7373238, 0
863, 2237739875, -0.88748646, -0.031013569, 0.45287174, -0.07947966, -0.64825684, 0.82694024, -2.9166527, 0
864, 2237756542, -0.8838684, -0.03137818, 0.4608655, -0.07347694, -0.87058204, 1.2932675, -2.3632765, 0
867, 2237806543, -0.8714434, -0.035526082, 0.4858123, -0.057572078, -0.4000341, 0.8263942, -2.1108274, 0
871, 2237873211, -0.8552325, -0.03188374, 0.5161549, -0.033892043, -0.637627, 0.6650956, -0.59872913, 0
872, 2237889878, -0.85136503, -0.030214472, 0.5229043, -0.028975654, 0.17520331, 0.8074813, -0.17326832, 0
873, 2237906545, -0.84810436, -0.029684315, 0.52834, -0.026430238, 0.67055005, 0.34242052, 0.02048111, 0
875, 2237939879, -0.8444649, -0.031292785, 0.5340793, -0.025747411, -1.0818858, -0.4017679, 0.69786835, 0
876, 2237956546, -0.8421568, -0.030696005, 0.53769636, -0.026760237, -1.4127371, 0.13286647, 0.052243233, 0
877, 2237973213, -0.84003854, -0.030446932, 0.5409503, -0.028010048, -1.569346, 0.774001, -0.16063404, 0
879, 2238006547, -0.8348, -0.023741003, 0.5493129, -0.02836168, -1.8150191, 2.3534343, -0.27805042, 0
883, 2238073215, -0.8270475, -0.009812335, 0.56134504, -0.028136818, -0.84047306, 0.9481369, 0.15809631, 0
884, 2238089882, -0.8272537, -0.0019177757, 0.561228, -0.025969412, -0.092849754, 0.9597378, -1.0253611, 0
886, 2238123216, -0.8320045, 0.0066062286, 0.55421686, -0.023922496, -0.15934306, 0.40887496, -1.7614355, 0
887, 2238139883, -0.8358261, 0.008842554, 0.54838103, -0.024461769, -0.34226337, 0.5199434, -1.6641369, 0
888, 2238156550, -0.8394395, 0.010828897, 0.5427365, -0.025785945, 0.31900975, 0.55242676, -2.5208268, 0
890, 2238189884, -0.8491925, 0.014921993, 0.52693325, -0.0315386, 0.31347135, 1.4065237, -2.6237764, 0
891, 2238206551, -0.8546131, 0.019171335, 0.5178851, -0.032672994, 0.6871477, 0.7389499, -4.761743, 0
892, 2238223218, -0.8609434, 0.023262188, 0.5070898, -0.03315051, 0.29406214, 2.5848954, -4.9224405, 0
895, 2238273219, -0.8803394, 0.023907848, 0.47237596, -0.035993516, -0.3534768, -1.181221, -2.840938, 0
896, 2238289886, -0.8861045, 0.023949828, 0.46163717, -0.033764623, 2.066733, 1.1362838, -1.9052458, 0
899, 2238339887, -0.89935404, 0.03642334, 0.43481794, -0.02779974, 8.134337, -2.2093887, 3.691535, 0
900, 2238356554, -0.90386474, 0.029569771, 0.42583573, -0.028667878, 9.28108, -3.7549438, 6.5465813, 0
902, 2238389888, -0.9110704, 0.030045474, 0.40986472, -0.032598186, 11.024598, -1.3384787, 8.122644, 0
903, 2238406555, -0.9132389, 0.037299745, 0.40432408, -0.03360362, 10.309996, -1.0428653, 7.5028896, 0
904, 2238423222, -0.91382414, 0.04862929, 0.40181145, -0.03334871, 8.017353, -2.259273, 6.5303764, 0
906, 2238456556, -0.9153499, 0.05924486, 0.39714712, -0.030039005, -0.8451177, -6.884328, 7.35742, 0
907, 2238473223, -0.91642964, 0.0651446, 0.39407963, -0.024859928, -3.448187, -2.4446425, 8.898859, 0
909, 2238506557, -0.9201534, 0.06373926, 0.3859385, -0.017611068, -6.674655, 3.4624374, 11.003204, 0
911, 2238539891, -0.9213272, 0.058342822, 0.38387072, -0.019981004, -3.0278533, 2.229832, 4.323491, 0
913, 2238573225, -0.9213316, 0.053891785, 0.3844576, -0.020971343, -1.5682626, 0.12918478, 2.4467325, 0
914, 2238589892, -0.92048806, 0.051692463, 0.38682863, -0.019929782, -0.4597295, -0.14282696, 2.4089098, 0
915, 2238606559, -0.91953117, 0.052672938, 0.38916165, -0.015657403, -0.8964977, -0.3225527, 0.5451555, 0
917, 2238639893, -0.91641295, 0.050749775, 0.39696407, -0.005936727, -1.1207578, -1.1264632, -3.8601418, 0
918, 2238656560, -0.9147818, 0.044846147, 0.40145466, -0.0010025539, -0.52923864, -0.65778553, -6.1864276, 0
919, 2238673227, -0.9128764, 0.03709955, 0.4065366, 0.003455039, -0.73068583, 0.51228845, -7.437435, 0
921, 2238706561, -0.9065115, 0.027967414, 0.42098925, 0.0150542855, 0.3518227, 1.4254155, -7.9756846, 0
922, 2238723228, -0.9027586, 0.023362463, 0.42902526, 0.020548541, 0.5902499, 0.58914554, -7.371298, 0
923, 2238739895, -0.89861697, 0.020076202, 0.43742356, 0.027367502, -0.10919859, 1.7319249, -6.507612, 0
926, 2238789896, -0.88237196, 0.021897074, 0.46733874, 0.05038312, 1.3374323, 3.3489845, -5.530857, 0
927, 2238806563, -0.87744987, 0.022584002, 0.47593018, 0.05537002, 0.5154077, 1.2902106, -3.2959723, 0
929, 2238839897, -0.86819637, 0.027147949, 0.4913653, 0.06373453, -0.19669743, -0.27625835, -0.7468233, 0
930, 2238856564, -0.8639748, 0.029631305, 0.49815348, 0.067204215, 2.4966753, -1.1910771, 0.112080574, 0
931, 2238873231, -0.86070055, 0.027615052, 0.50363165, 0.06921637, 1.4600005, -1.9318893, 1.0537071, 0
933, 2238906565, -0.8545605, 0.027362771, 0.51420504, 0.067634575, 0.03561679, -1.0951934, 2.076312, 0
934, 2238923232, -0.851218, 0.028804488, 0.5199832, 0.064958945, 0.7285146, -0.93569773, 1.6629391, 0
935, 2238939899, -0.847571, 0.031068023, 0.5261962, 0.06147833, 1.4563023, -0.67568827, 0.48506355, 0
937, 2238973233, -0.8417854, 0.03221039, 0.5362423, 0.052988928, 0.17523415, -0.20895377, 1.3640671, 0
938, 2238989900, -0.8399088, 0.02921005, 0.5398836, 0.04721748, -0.742983, -1.6893755, 3.2378092, 0
942, 2239056568, -0.83361405, 0.028356265, 0.5502632, 0.038703024, -2.217082, 1.9814296, 0.09340477, 0
944, 2239089902, -0.8324263, 0.023145173, 0.5524725, 0.036175657, -2.6837375, 2.2818327, -1.0091419, 0
945, 2239106569, -0.8327575, 0.019244894, 0.5523393, 0.032704473, -2.8398776, 1.1609805, -0.0647583, 0
946, 2239123236, -0.8333469, 0.017351076, 0.5517854, 0.027721304, -2.6882353, -0.5211128, 0.9735508, 0
948, 2239156570, -0.83408916, 0.015523102, 0.5511698, 0.016428642, -1.8173633, 0.27624404, 0.97396755, 0
949, 2239173237, -0.834309, 0.014660455, 0.5509544, 0.012899812, -1.1510497, 1.1952448, 0.19342995, 0
950, 2239189904, -0.83463305, 0.013434574, 0.55054116, 0.010733958, -0.6463278, 1.3200576, -1.2518158, 0
952, 2239223238, -0.837642, 0.009636473, 0.54606754, 0.008767441, -0.53793156, 1.8773191, -3.6302752, 0
953, 2239239905, -0.83995205, 0.00945662, 0.5424988, 0.009474374, -0.8989834, 2.0015852, -5.0874453, 0
954, 2239256572, -0.84238166, 0.013003636, 0.53860164, 0.011670236, -0.6849784, 1.4351715, -7.0818605, 0
956, 2239289906, -0.8476358, 0.019386735, 0.52995604, 0.016977284, 1.1346109, -0.9282231, -9.413507, 0
957, 2239306573, -0.8508765, 0.018863484, 0.5246663, 0.0195495, 1.3220835, -1.8295677, -8.8711195, 0
958, 2239323240, -0.8545404, 0.014308535, 0.5187776, 0.02072021, 0.5925281, -2.6042697, -8.897451, 0
960, 2239356574, -0.8611165, -0.0015263185, 0.50815266, 0.016152598, 0.5933188, -4.2864437, -10.461927, 0
961, 2239373241, -0.8647523, -0.011585847, 0.5019077, 0.012713913, -1.0933766, -2.9288678, -6.7084208, 0
963, 2239406575, -0.87021005, -0.0060181804, 0.4922359, 0.020143952, 5.258, 3.6079712, 4.41306, 0
964, 2239423242, -0.87406605, -0.005143257, 0.48513526, 0.025090221, 8.249813, 4.502694, 7.677431, 0
965, 2239439909, -0.87845004, -0.008081682, 0.47692338, 0.028427273, 8.8227825, 0.86497366, 9.506214, 0
967, 2239473243, -0.88890713, -0.030570492, 0.45607466, 0.030157343, 9.22661, -4.541303, 13.238672, 0
969, 2239506577, -0.89710987, -0.051618353, 0.43813634, 0.023867145, 6.9248896, -2.7151084, 10.27648, 0
971, 2239539911, -0.90263957, -0.061181094, 0.42555285, 0.020175863, 0.075429365, 3.8994896, 4.857955, 0
972, 2239556578, -0.90488636, -0.0688601, 0.4197698, 0.015362177, -1.8581412, 4.6581154, 3.1699572, 0
973, 2239573245, -0.90677106, -0.07256176, 0.41518295, 0.011314951, -6.066523, 4.0091248, 3.0277395, 0
975, 2239606579, -0.91054094, -0.06992567, 0.407455, 0.0030973554, 0.18162395, 3.3824673, 6.093053, 0
976, 2239623246, -0.91226435, -0.07208225, 0.40319726, -0.003669899, 0.40592858, -0.31367788, 3.1713934, 0
977, 2239639913, -0.9133804, -0.07436691, 0.40013266, -0.010152381, 0.35920632, -0.6915595, 0.9544306, 0
979, 2239673247, -0.91365373, -0.07268636, 0.39955065, -0.017798245, -0.021660864, 0.95121104, -1.9150534, 0
980, 2239689914, -0.9130767, -0.07213575, 0.40087458, -0.019772485, -0.31169263, 1.3955984, -1.088315, 0
981, 2239706581, -0.9119328, -0.070978865, 0.40360278, -0.021190792, -0.22469042, 1.5709362, -0.9244518, 0
984, 2239756582, -0.9070764, -0.06354675, 0.41556233, -0.022040077, -0.18535282, 1.6143649, -0.9193373, 0
985, 2239773249, -0.9044892, -0.060388148, 0.42160025, -0.02256934, 0.56226516, 1.3586997, -1.446681, 0
987, 2239806583, -0.8995585, -0.062316712, 0.43161428, -0.024980582, -0.49310535, 0.6221196, 0.40558338, 0
988, 2239823250, -0.8960414, -0.057039782, 0.43961075, -0.02454279, -0.29796734, 1.3490341, -1.3667479, 0
989, 2239839917, -0.892338, -0.048510548, 0.4481376, -0.023589823, 0.9784445, 0.6035556, -0.8079462, 0
991, 2239873251, -0.88531446, -0.04587931, 0.46217024, -0.022710513, -0.7070077, 0.0774167, -0.6442404, 0
994, 2239923252, -0.87336457, -0.034357447, 0.48555768, -0.017065126, -0.46194005, 0.6756245, -1.8789434, 0
995, 2239939919, -0.86929417, -0.03020262, 0.4931657, -0.014383689, -0.26424125, 0.7027325, -2.542036, 0
996, 2239956586, -0.8653665, -0.027583316, 0.5002625, -0.01101603, -0.7799666, 0.37940013, -2.1771498, 0
998, 2239989920, -0.855888, -0.02106407, 0.51671624, -0.004494924, -0.043647386, 0.18709256, -3.2903037, 0
1000, 2240023254, -0.8472447, -0.016590128, 0.5309458, -0.0012923889, -0.72253716, -1.1358331, -2.1304293, 0
1002, 2240056588, -0.83764195, -0.01577167, 0.5459934, -0.0015167482, 0.02706429, -1.2878287, -1.8345671, 0
1003, 2240073255, -0.8335043, -0.017090136, 0.5522463, -0.0025256537, 0.012200678, -1.9083055, -1.1673698, 0
1004, 2240089922, -0.83004785, -0.019120755, 0.55735326, -0.0039872564, -0.020736191, -2.3223164, -0.12656212, 0
1006, 2240123256, -0.8241621, -0.019820705, 0.56595963, -0.0075739697, -0.2733872, -0.2992052, -0.7819071, 0
1007, 2240139923, -0.8221438, -0.01732549, 0.5689517, -0.008778047, -0.9852299, -0.1697056, 0.4343605, 0
1008, 2240156590, -0.81973404, -0.018695321, 0.5723356, -0.011054605, -1.3769363, -1.2524285, 2.1982956, 0
1010, 2240189924, -0.8129319, -0.018314952, 0.5818953, -0.014416698, -0.5345697, 2.3504589, -0.21906853, 0
1011, 2240206591, -0.8097368, -0.007421702, 0.5865919, -0.013596978, 0.4194328, 2.855781, -0.22936344, 0
1012, 2240223258, -0.8090861, -0.0043014996, 0.58753186, -0.013091724, 0.671871, 0.49903122, 0.14277458, 0
1015, 2240273259, -0.8143581, -0.018184306, 0.5799827, -0.010676116, -1.4084172, -0.62947726, -0.69383526, 0
1017, 2240306593, -0.8216156, -0.023364289, 0.56949794, -0.008823287, -2.401504, 0.38490975, -2.977858, 0
1018, 2240323260, -0.8260057, -0.024799772, 0.56308544, -0.0061762035, -1.856407, 1.0150774, -4.231976, 0
1019, 2240339927, -0.8308344, -0.02401316, 0.5559998, -0.002322916, -1.3871672, 1.329049, -5.0705285, 0
1022, 2240389928, -0.8498477, -0.022271346, 0.52649593, 0.008282807, -1.5608087, -0.9683086, -5.895937, 0
1023, 2240406595, -0.85641026, -0.019913187, 0.51574975, 0.013073638, -2.2189467, -0.95374465, -6.654563, 0
1025, 2240439929, -0.8686149, -0.014371766, 0.49467984, 0.0244373, -1.493069, 0.7583186, -5.7723594, 0
1026, 2240456596, -0.874225, -0.013534218, 0.48442626, 0.029706705, -1.9385104, -0.1348477, -5.1111355, 0
1027, 2240473263, -0.8783396, -0.014114374, 0.47652894, 0.035271086, 0.80944526, -0.992118, -2.688499, 0
1029, 2240506597, -0.8823759, -0.02340752, 0.4681107, 0.041723456, 10.276098, -2.9568865, 2.9847555, 0
1031, 2240539931, -0.88711226, -0.028759813, 0.4589984, 0.03909881, 10.714789, -3.2801368, 7.9061794, 0
1033, 2240573265, -0.89201003, -0.039577942, 0.44896686, 0.034411386, 8.159421, -1.9780011, 8.431023, 0
1034, 2240589932, -0.8936338, -0.04938857, 0.44480377, 0.033655595, 5.8229227, -0.5137243, 6.1643877, 0
1035, 2240606599, -0.89433366, -0.062046688, 0.44172642, 0.034626372, 2.3983216, 3.094161, 4.3919163, 0
1037, 2240639933, -0.8962518, -0.07431538, 0.43634087, 0.028637353, -3.1448534, 5.852157, 5.042199, 0
1038, 2240656600, -0.8982093, -0.07274115, 0.43281752, 0.024523288, -3.9852388, 3.6205862, 6.4655075, 0
1039, 2240673267, -0.8999833, -0.06929765, 0.4298416, 0.021634746, -0.28950113, 1.4340804, 8.222782, 0
1041, 2240706601, -0.9023829, -0.06634599, 0.42543414, 0.01768823, -0.29175997, -0.044503078, 3.4891434, 0
1043, 2240739935, -0.90266937, -0.060312305, 0.42576754, 0.016612113, -0.079248756, 1.8391665, 0.27683163, 0
1046, 2240789936, -0.9002888, -0.04933526, 0.431929, 0.022073526, 0.9485255, 1.4393848, 1.0163136, 0
1048, 2240823270, -0.89685863, -0.045134466, 0.43915123, 0.027517673, 0.5400489, 0.95035493, 1.0163994, 0
1049, 2240839937, -0.89473325, -0.042757466, 0.44351754, 0.030333046, 0.34408736, 0.54272056, 0.547925, 0
1050, 2240856604, -0.8923273, -0.03893609, 0.4484773, 0.03328415, 0.5928292, 0.41701707, 0.3982687, 0
1052, 2240889938, -0.8869556, -0.03173278, 0.4591923, 0.038064267, 0.36342627, 0.7315123, 0.38300037, 0
1053, 2240906605, -0.8839316, -0.030400548, 0.46496302, 0.039422397, 0.08424874, 0.49991244, 0.056883812, 0
1054, 2240923272, -0.88051575, -0.028927745, 0.47137377, 0.04081385, 0.10507344, 0.04635129, -0.29330444, 0
1056, 2240956606, -0.8722925, -0.02564576, 0.4864004, 0.043204594, 0.6060044, 0.0063898163, -1.0192442, 0
1057, 2240973273, -0.8679488, -0.024723046, 0.49411044, 0.04373064, 0.20169966, -0.23421095, -1.7135181, 0
1058, 2240989940, -0.86343205, -0.023759224, 0.5020264, 0.04351772, 0.022839, -0.46680498, -2.027543, 0
1061, 2241039941, -0.84871715, -0.025904503, 0.52696484, 0.03632907, -0.34445515, -0.5229661, -2.6199088, 0
1062, 2241056608, -0.8443772, -0.026374469, 0.53409255, 0.032870267, -0.17132357, -0.79859984, -2.5341387, 0
1064, 2241089942, -0.8368078, -0.02808011, 0.5462636, 0.023749713, 0.3274753, -0.66247594, -2.0113373, 0
1065, 2241106609, -0.8344422, -0.029360123, 0.5499709, 0.019492734, -0.34991378, -0.6160558, -1.8630247, 0
1066, 2241123276, -0.8313707, -0.03146412, 0.5546124, 0.015538335, -0.8814482, -0.8872133, -1.6770086, 0
1068, 2241156610, -0.82535565, -0.032654926, 0.56360656, 0.008557752, -0.40641606, -0.4058913, -1.6624823, 0
1069, 2241173277, -0.82205963, -0.032323465, 0.5684652, 0.0049442425, -0.35166365, -0.34031337, -1.3195429, 0
1070, 2241189944, -0.81775093, -0.03291092, 0.5746337, 3.657639E-4, -0.2632585, -0.35564452, -1.3894329, 0
1072, 2241223278, -0.81019515, -0.033617295, 0.5851666, -0.006115157, -1.1707034, 1.2397019, -1.2627964, 0
1073, 2241239945, -0.8066738, -0.03284428, 0.59003264, -0.007986385, -0.9093061, 1.7048038, -0.65419006, 0
1076, 2241289946, -0.7993925, -0.02784042, 0.6001246, -0.007122513, -0.91841877, 1.3764286, -0.33696842, 0
1077, 2241306613, -0.7987553, -0.026519334, 0.60104877, -0.005569555, -1.21305, 1.1226349, -0.7567997, 0
1079, 2241339947, -0.79979515, -0.023708008, 0.59980774, -6.291121E-4, -1.530986, 0.03582467, -1.1009207, 0
1080, 2241356614, -0.801042, -0.023485225, 0.5981461, 0.0022178106, -1.6051533, -0.47554174, -0.7595806, 0
1081, 2241373281, -0.8025558, -0.022764837, 0.5961201, 0.0055249296, -1.0252179, -0.27705115, -1.4320812, 0
1083, 2241406615, -0.81003106, -0.02467692, 0.5857554, 0.011616923, -2.4286265, -0.64721125, -2.5111256, 0
1084, 2241423282, -0.81439906, -0.026609164, 0.5795125, 0.014668737, -2.9275658, -0.127031, -3.4806318, 0
1085, 2241439949, -0.81867397, -0.024531793, 0.57342285, 0.019004643, -2.7471292, 0.6556169, -4.5611687, 0
1087, 2241473283, -0.8307172, -0.020916682, 0.55541545, 0.03144871, -1.7571154, 0.9484211, -1.9554315, 0
1088, 2241489950, -0.8391075, -0.015710263, 0.5423621, 0.038717013, -4.386719, 1.2942357, -1.6623335, 0
1092, 2241556618, -0.8685223, -0.03488747, 0.4929887, 0.037653778, -0.15336588, -4.317151, -5.9972124, 0
1093, 2241573285, -0.8741838, -0.04492943, 0.48185036, 0.04010057, 2.091425, -2.3641033, -1.793438, 0
1095, 2241606619, -0.8824067, -0.054059435, 0.46464363, 0.050456442, 8.243445, -0.81981647, 7.0291367, 0
1096, 2241623286, -0.8861937, -0.061069123, 0.4560953, 0.05396439, 9.015151, 0.3722441, 10.255373, 0
1098, 2241656620, -0.89196575, -0.09080425, 0.43946987, 0.054971743, 6.892109, -1.4354534, 10.857727, 0
1099, 2241673287, -0.8931605, -0.10216303, 0.43454435, 0.05478988, 5.9249735, -1.3275208, 8.319742, 0
1100, 2241689954, -0.89381117, -0.10891612, 0.43172213, 0.05346646, 4.9000587, 2.4194524, 5.676814, 0
1102, 2241723288, -0.8959119, -0.11671446, 0.42636764, 0.0439787, 0.18799719, 3.979679, 2.9887152, 0
1103, 2241739955, -0.89698535, -0.12106216, 0.42337278, 0.0389949, -0.30647606, 3.0632193, 4.2536774, 0
1104, 2241756622, -0.89827675, -0.1238502, 0.42028478, 0.033532854, -1.8190888, 1.8068552, 3.5985441, 0
1106, 2241789956, -0.8996913, -0.1261362, 0.4168837, 0.029271342, -0.050239008, -0.37869075, 3.2437878, 0
1108, 2241823290, -0.8995806, -0.12469954, 0.41790253, 0.023785617, 0.22435336, 0.58659905, -0.49211788, 0
1110, 2241856624, -0.89790314, -0.12238662, 0.42226052, 0.022167388, -0.25906962, 2.728404, 0.2991209, 0
1111, 2241873291, -0.896652, -0.1208225, 0.42537084, 0.02192254, -0.30632317, 3.180482, 0.58585453, 0
1112, 2241889958, -0.8953872, -0.117696926, 0.42891967, 0.021468371, -0.054172613, 3.0852337, -0.1261177, 0
1114, 2241923292, -0.8927232, -0.11817847, 0.43445992, 0.018093262, -0.38931867, 1.8808982, -0.45018196, 0
1116, 2241956626, -0.89053947, -0.12129423, 0.4383148, 0.010534305, -0.44442847, 0.6505057, -2.2664227, 0
1118, 2241989960, -0.888774, -0.12068528, 0.44217533, 5.933307E-4, -0.53217405, -0.79932076, -3.1792312, 0
1119, 2242006627, -0.88803077, -0.11807219, 0.4443424, -0.004906554, -0.5799772, -0.33370048, -3.0737019, 0
1122, 2242056628, -0.8851206, -0.09713824, 0.45449784, -0.023692086, -0.4980937, -1.4578916, -3.4217758, 0
1123, 2242073295, -0.8837273, -0.08329265, 0.4596869, -0.027930722, 0.6402502, 0.3998206, -3.3043928, 0
1124, 2242089962, -0.8823062, -0.06756334, 0.46477744, -0.030928573, 0.8423289, 1.5667039, -2.923171, 0
1126, 2242123296, -0.87938863, -0.030528856, 0.4738113, -0.0353602, 2.2751155, 4.2591105, 0.32667637, 0
1129, 2242173297, -0.87519646, -0.009727841, 0.48250917, -0.033546053, 1.3906095, 1.7646544, 7.91852, 0
1130, 2242189964, -0.8743954, -0.00518433, 0.484312, -0.02918073, -0.26148066, -4.4182924E-4, 7.7539234, 0
1131, 2242206631, -0.874338, 0.0025906377, 0.48477903, -0.02278522, -1.324076, -2.3208556, 5.178898, 0
1133, 2242239965, -0.87369734, 0.016455717, 0.4861016, -0.009554915, -4.4258556, -3.8507314, -3.3485208, 0
1134, 2242256632, -0.8721114, 0.025302537, 0.4886543, -0.0015473478, -5.92985, -3.3784983, -8.016664, 0
1135, 2242273299, -0.87082285, 0.026989933, 0.49083737, 0.004632257, -4.3395047, -1.4091723, -9.449737, 0
1138, 2242323300, -0.86712307, 0.030326884, 0.4970196, 0.012374256, 0.17661296, 1.548507, -7.9722605, 0
1139, 2242339967, -0.86528873, 0.030295517, 0.5001421, 0.014808945, 1.0592506, 1.0015397, -7.294575, 0
1141, 2242373301, -0.86250347, 0.033463623, 0.5043407, 0.024741475, -2.4867165, 1.8230096, -5.735741, 0
1142, 2242389968, -0.8614237, 0.036749553, 0.5055767, 0.03153988, -2.3531435, 2.4656913, -5.013527, 0
1143, 2242406635, -0.8608019, 0.03818563, 0.5061009, 0.03778474, -1.6807792, 3.4736657, -5.7366576, 0
1145, 2242439969, -0.8608528, 0.03982011, 0.50513864, 0.046751946, 1.2759676, 5.4868383, -5.8048887, 0
1146, 2242456636, -0.8613145, 0.045845218, 0.50335103, 0.051741324, 0.90864116, 3.1274118, -5.8647738, 0
1147, 2242473303, -0.86214125, 0.055262316, 0.5001035, 0.059658576, -0.37671143, 3.8557246, -3.2182255, 0
1150, 2242523304, -0.86535025, 0.07557673, 0.4884871, 0.08271292, 4.090401, -2.8819957, 4.982399, 0
1152, 2242556638, -0.8710612, 0.07905184, 0.4770198, 0.08636594, 7.0519423, -7.2113705, 10.0713825, 0
1157, 2242639973, -0.88717717, 0.11234572, 0.44116205, 0.07533176, 9.141671, -4.8736906, 9.13517, 0
1158, 2242656640, -0.88922644, 0.12503749, 0.43306714, 0.078093775, 5.8120804, -4.0141897, 7.477112, 0
1160, 2242689974, -0.8920437, 0.14439788, 0.4197173, 0.08513794, -1.4150791, -1.3977417, 1.1861143, 0
1161, 2242706641, -0.8940519, 0.14564425, 0.41542694, 0.0829658, -4.0291767, -3.5803468, 1.4486399, 0
1162, 2242723308, -0.89630705, 0.14440414, 0.4114003, 0.08083874, -5.644534, -0.36835673, 2.8053865, 0
1164, 2242756642, -0.9007827, 0.13895997, 0.4025868, 0.08490199, -2.341339, 5.2975497, 3.0035028, 0
1165, 2242773309, -0.9024811, 0.13471094, 0.39989132, 0.08643795, -1.0605303, 5.3143764, 2.512992, 0
1166, 2242789976, -0.9039676, 0.12987395, 0.398061, 0.08675616, -1.153285, 2.5581694, 1.7152624, 0
1169, 2242839977, -0.9044768, 0.12096152, 0.39925918, 0.08880301, -0.81919754, 0.36819267, -2.2006884, 0
1170, 2242856644, -0.9035597, 0.120562255, 0.40100917, 0.09077373, -0.7318909, 0.5024408, -2.5459952, 0
1173, 2242906645, -0.90040493, 0.113124385, 0.40938792, 0.09422928, -0.5506807, -0.830147, -2.6557555, 0
1174, 2242923312, -0.89926577, 0.10789479, 0.41301787, 0.09539326, -0.6955746, -1.1602466, -2.1893592, 0
1178, 2242989980, -0.89274406, 0.08395532, 0.4316501, 0.09819007, -1.0361469, 0.3626526, -3.5981817, 0
1180, 2243023314, -0.8875232, 0.06876199, 0.44521144, 0.09677254, -1.3890611, 0.95562965, -3.017734, 0
1181, 2243039981, -0.8843252, 0.064072736, 0.4524533, 0.09567261, -1.1741229, 1.396198, -2.578413, 0
1183, 2243073315, -0.8783525, 0.057449594, 0.465227, 0.09361599, -1.0168877, 1.5250663, -0.95876503, 0
1184, 2243089982, -0.87533695, 0.055134933, 0.47141963, 0.09226471, -1.4840207, 1.7569607, -0.7083092, 0
1185, 2243106649, -0.87279564, 0.051445592, 0.47685355, 0.0905308, -2.1229262, 0.9392753, -0.38582802, 0
1187, 2243139983, -0.866865, 0.044934556, 0.4884615, 0.0890788, -2.865622, 2.1518202, 0.6567316, 0
1188, 2243156650, -0.86389816, 0.04513625, 0.49336112, 0.09078196, -1.669796, 2.5161042, -0.5579653, 0
1189, 2243173317, -0.86186576, 0.04222773, 0.49685496, 0.09242983, -1.8391382, 2.758268, -0.15073586, 0
1191, 2243206651, -0.8550179, 0.041355263, 0.50770897, 0.09731091, -1.2038218, 3.0931046, -0.17674732, 0
1192, 2243223318, -0.8518696, 0.042567, 0.51214707, 0.10107202, -1.532065, 2.525556, -0.31983376, 0
1193, 2243239985, -0.8496327, 0.04404077, 0.5150341, 0.104540005, -1.2918575, 2.2143464, -0.3454523, 0
1195, 2243273319, -0.8484247, 0.051614475, 0.514233, 0.11436625, -2.0982873, 2.436916, -2.4980087, 0
1196, 2243289986, -0.8485745, 0.052468393, 0.5136916, 0.11529566, -0.15943849, 0.35752654, -3.81804, 0
1197, 2243306653, -0.85089314, 0.051474325, 0.51047087, 0.11293471, 0.11074486, 0.11255333, -3.252026, 0
1199, 2243339987, -0.85740364, 0.057233565, 0.50006557, 0.107338145, -0.7695495, 1.0782726, -3.604486, 0
1200, 2243356654, -0.8603537, 0.061412938, 0.4949972, 0.104887694, -0.07949339, -0.37538072, -6.3878746, 0
1203, 2243406655, -0.87138873, 0.065842524, 0.47748223, 0.09143837, 2.0560412, 0.13963367, -8.58313, 0
1204, 2243423322, -0.8744294, 0.07228932, 0.47218516, 0.084809154, 2.1260533, -1.6111311, -7.8143916, 0
1206, 2243456656, -0.8811659, 0.07422586, 0.46131146, 0.07233611, 2.8263092, -2.1182566, -2.117516, 0
1207, 2243473323, -0.8852478, 0.070280686, 0.45510954, 0.06538921, 4.044658, -2.739137, 1.3868017, 0
1208, 2243489990, -0.88935906, 0.06462103, 0.4488718, 0.058159254, 6.7042503, -3.5720227, 4.4152355, 0
1210, 2243523324, -0.89861745, 0.05710552, 0.4326221, 0.04547158, 11.047114, -1.4248992, 9.577541, 0
1214, 2243589992, -0.9146169, 0.07298294, 0.39579833, 0.03869057, 7.9341936, -0.07298288, 9.129541, 0
1215, 2243606659, -0.9172154, 0.08369695, 0.38711265, 0.043107703, 3.710202, -2.4418216, 5.695466, 0
1216, 2243623326, -0.9189228, 0.094065666, 0.38002953, 0.048104346, -0.87030447, -3.5511284, 3.7417297, 0
1218, 2243656660, -0.9196273, 0.10883573, 0.37329584, 0.055626296, -6.4618673, -0.307201, 2.130064, 0
1222, 2243723328, -0.9212162, 0.09948991, 0.37053376, 0.0645825, -1.4088428, 2.407964, 2.7948704, 0
1223, 2243739995, -0.9212506, 0.09558263, 0.37112477, 0.066570185, -1.7037755, 1.4841882, 0.6369734, 0
1224, 2243756662, -0.9208417, 0.091540754, 0.37291804, 0.06787409, -1.7083507, 1.1966892, -0.48184013, 0
1226, 2243789996, -0.918694, 0.086669914, 0.37929666, 0.068024576, -0.70090735, -0.0053246375, -0.68216705, 0
1227, 2243806663, -0.9172522, 0.084229544, 0.38347366, 0.067122236, -0.5106556, -0.27621552, -0.8911295, 0
1230, 2243856664, -0.9119696, 0.0753697, 0.39830834, 0.063127026, -1.070726, 0.10122254, -1.1748648, 0
1231, 2243873331, -0.9094063, 0.074367076, 0.40442187, 0.062421687, -0.69691515, 0.062276695, -1.9700933, 0
1233, 2243906665, -0.9039181, 0.06739431, 0.41729766, 0.06524045, -0.6900797, 0.83060217, -1.9952731, 0
1234, 2243923332, -0.90077776, 0.06515605, 0.4240648, 0.06728181, -0.5190114, 1.3573912, -2.0212722, 0
1235, 2243939999, -0.897466, 0.062237483, 0.43083632, 0.07116884, -0.5736266, 1.2632508, -2.3438354, 0
1238, 2243990000, -0.8873414, 0.04873217, 0.451696, 0.0788978, -0.41804254, 1.0850974, -2.0735497, 0
1241, 2244040001, -0.87662977, 0.041606907, 0.47183472, 0.084645584, -0.7086543, 0.6387064, -2.0594769, 0
1242, 2244056668, -0.873079, 0.0403767, 0.47810566, 0.086728156, -0.8340712, 0.83959657, -2.0589547, 0
1243, 2244073335, -0.8690449, 0.03881216, 0.4850322, 0.089455195, -1.2743837, 1.1288832, -2.1836925, 0
1245, 2244106669, -0.8592167, 0.041106965, 0.5007922, 0.09626986, -0.155542, 0.9048549, -2.2341743, 0
1246, 2244123336, -0.8552005, 0.040521305, 0.5070038, 0.09970567, 0.14272532, 0.51546335, -1.3910971, 0
1247, 2244140003, -0.8518915, 0.039683137, 0.5119355, 0.103111036, -0.37192112, 1.7137047, -0.4950943, 0
1249, 2244173337, -0.84328777, 0.04474215, 0.52419263, 0.10995438, -0.93685055, 1.2162476, -0.4131174, 0
1250, 2244190004, -0.8385061, 0.046347406, 0.5310719, 0.11280878, -0.52563137, 0.44968787, -0.26933098, 0
1251, 2244206671, -0.8345584, 0.046064235, 0.53662795, 0.115864046, -0.066475436, -0.0042309887, -0.49254036, 0
1257, 2244306673, -0.8201452, 0.054323416, 0.5546655, 0.12946367, -1.3769695, 1.5608325, -1.1702814, 0
1258, 2244323340, -0.8186322, 0.05820831, 0.556075, 0.13129124, -1.8133997, 1.2606313, -1.0827303, 0
1259, 2244340007, -0.8168357, 0.06162984, 0.5583008, 0.13147178, -1.5425223, 0.73687744, -0.9281893, 0
1261, 2244373341, -0.8133244, 0.07168509, 0.5625989, 0.12981059, -1.1399273, 1.184582, 0.4097786, 0
1262, 2244390008, -0.81303084, 0.079849295, 0.56184715, 0.13013974, -1.2379096, 1.0695808, 0.14494228, 0
1264, 2244423342, -0.8146869, 0.087693706, 0.5579943, 0.13130651, -1.1603942, 0.97711, -0.578701, 0
1265, 2244440009, -0.81717896, 0.09139347, 0.55370396, 0.13145801, -1.4592444, 1.7730695, 0.4474163, 0
1268, 2244490010, -0.8322999, 0.104169905, 0.52743274, 0.1350698, -0.3045594, -0.07984626, -2.8945236, 0
1269, 2244506677, -0.8402569, 0.10270426, 0.51519483, 0.13415743, -0.09997064, 1.4282687, -2.3000784, 0
1270, 2244523344, -0.84689236, 0.10657476, 0.5034326, 0.1340698, 0.08161151, 2.6525593, -2.6647449, 0
1272, 2244556678, -0.8615258, 0.12592807, 0.4736316, 0.13263649, 1.4437848, 2.6418052, -2.9226775, 0
1273, 2244573345, -0.86866707, 0.13383856, 0.45809105, 0.13289517, -0.09755402, 2.103311, -3.6554146, 0
1274, 2244590012, -0.8747794, 0.13474536, 0.44563994, 0.13421446, 0.41060558, 1.700535, -3.0134463, 0
1276, 2244623346, -0.88663644, 0.13221778, 0.42195424, 0.13547197, 0.6148909, 0.03737908, -1.3688412, 0
1277, 2244640013, -0.89066046, 0.13730484, 0.41124022, 0.1369541, 1.7903829, -0.29592144, -2.1329427, 0
1278, 2244656680, -0.89372224, 0.14606868, 0.401332, 0.13733509, 3.5503957, -2.3112867, -1.4964771, 0
1282, 2244723348, -0.9057665, 0.1396979, 0.3780942, 0.13084404, 8.198858, -7.7391896, 5.938879, 0
1284, 2244756682, -0.9101325, 0.14289197, 0.3699169, 0.120024964, 7.9952497, -4.776615, 6.781992, 0
1285, 2244773349, -0.91055363, 0.1519616, 0.36658818, 0.115830064, 6.535229, -3.0948842, 5.155778, 0
1289, 2244840017, -0.9093283, 0.1617493, 0.36550018, 0.11563937, -6.837349, 3.4451678, 7.310299, 0
1291, 2244873351, -0.90817094, 0.1492302, 0.37345412, 0.11615305, -4.277944, 4.954198, 9.888741, 0
1292, 2244890018, -0.90667516, 0.14774549, 0.3773604, 0.11710763, -3.760923, 5.7125154, 7.3799877, 0
1293, 2244906685, -0.9045402, 0.14730279, 0.3821746, 0.118555345, -2.5299098, 4.7790504, 4.3432665, 0
1295, 2244940019, -0.8990297, 0.13847701, 0.39575344, 0.12630418, -0.67145616, -0.34363642, 3.6716175, 0
1296, 2244956686, -0.8965706, 0.1368991, 0.40032226, 0.1310181, -0.38537857, 0.03272118, 1.8709126, 0
1297, 2244973353, -0.8941588, 0.13379839, 0.40487286, 0.13660127, -0.19602206, -1.2651033, -0.66286564, 0
1299, 2245006687, -0.89068025, 0.12080364, 0.41291907, 0.1469585, -0.056311183, -1.4248973, -3.2938437, 0
1300, 2245023354, -0.88882744, 0.11622789, 0.41653088, 0.15159988, -0.27949288, -1.4428059, -4.297616, 0
1301, 2245040021, -0.88665175, 0.11127387, 0.42102456, 0.15559229, -0.2269707, -1.0598958, -5.408462, 0
1304, 2245090022, -0.87696785, 0.09181445, 0.44161186, 0.16577223, 1.2335505, 2.4696467, -6.031871, 0
1305, 2245106689, -0.87252504, 0.09038671, 0.44852418, 0.17134777, 1.8990119, 2.833931, -5.5467815, 0
1307, 2245140023, -0.86174196, 0.09164451, 0.46409202, 0.18336989, 2.501946, 2.422372, -5.0307517, 0
1308, 2245156690, -0.85528064, 0.096141234, 0.47249746, 0.18974066, 2.3359246, 2.3770075, -4.423494, 0
1309, 2245173357, -0.84842205, 0.10394867, 0.48061866, 0.19591917, 1.6458895, 0.94559044, -3.7755866, 0
1311, 2245206691, -0.8340969, 0.12264544, 0.49599704, 0.20792088, 0.8818308, -0.4419647, -1.3068762, 0
1313, 2245240025, -0.8223988, 0.13360159, 0.5099381, 0.21395737, 0.11718036, -2.4690375, 0.9480076, 0
1315, 2245273359, -0.8139429, 0.13995552, 0.52225554, 0.21251397, -0.45705047, -2.607238, 2.0144224, 0
1316, 2245290026, -0.8106108, 0.14456853, 0.52733946, 0.20958737, 0.16099057, -2.2609453, 1.4848986, 0
1318, 2245323360, -0.80877775, 0.14853361, 0.5324654, 0.20075002, -1.6535327, -1.0195776, 2.6474028, 0
1320, 2245356694, -0.808351, 0.14640693, 0.53707695, 0.19153526, -0.8470533, 1.7128526, 1.3872137, 0
1322, 2245390028, -0.8064757, 0.14609036, 0.54223466, 0.18504018, -0.34768558, 3.0621548, -0.3272009, 0
1323, 2245406695, -0.8056085, 0.14660546, 0.54451907, 0.18167108, -0.6297775, 2.8059945, -0.47855186, 0
1324, 2245423362, -0.8060285, 0.14254963, 0.54653406, 0.17692359, -1.7324717, 3.011051, 0.40009308, 0
1326, 2245456696, -0.8077348, 0.13445331, 0.54977685, 0.16503295, -2.7767973, 2.4787354, 1.0071049, 0
1327, 2245473363, -0.8086957, 0.13248134, 0.5509424, 0.15788014, -2.3350337, 1.1202497, 1.2865438, 0
1328, 2245490030, -0.8097626, 0.1332431, 0.5507946, 0.1521844, -1.7497256, 1.2672802, 0.5159321, 0
1330, 2245523364, -0.8148403, 0.1273842, 0.5477267, 0.14074013, -1.5907296, 0.5540815, -1.0254307, 0
1331, 2245540031, -0.8187353, 0.12063627, 0.545032, 0.1343988, -1.9018387, 0.6063214, -2.3710594, 0
1332, 2245556698, -0.8228825, 0.114936695, 0.5415204, 0.12811464, -2.0760057, 0.054922834, -3.8455229, 0
1335, 2245606699, -0.83641416, 0.103393614, 0.526344, 0.1126356, -2.3083174, -1.041255, -8.151644, 0
1336, 2245623366, -0.8407181, 0.1007094, 0.5206047, 0.1096593, -2.442845, -0.51827633, -9.209183, 0
1338, 2245656700, -0.8475792, 0.10322341, 0.50936884, 0.10724579, -0.67443794, 0.5581151, -9.479235, 0
1339, 2245673367, -0.8516637, 0.103284165, 0.5029514, 0.105094835, 0.45068106, -0.5786182, -9.39108, 0
1341, 2245706701, -0.8618526, 0.08499886, 0.49052182, 0.0968367, 1.469013, -1.3537067, -7.524101, 0
1342, 2245723368, -0.86808395, 0.06405546, 0.4835502, 0.09225063, 0.5758818, -0.48349345, -6.2151427, 0
1343, 2245740035, -0.8726319, 0.05014897, 0.47746533, 0.08960786, 0.47172633, 2.265004, -0.101914406, 0
1345, 2245773369, -0.8773281, 0.057500154, 0.46625587, 0.09797153, 10.478016, 3.1290097, 10.697126, 0
1346, 2245790036, -0.88043225, 0.051153235, 0.46007016, 0.10276963, 9.411509, -0.5925174, 13.744465, 0
1347, 2245806703, -0.8842735, 0.03708335, 0.45328435, 0.10593516, 10.60723, -1.7854564, 17.209743, 0
1349, 2245840037, -0.89436346, 0.009940494, 0.43559688, 0.10136242, 6.2820973, -4.9770103, 15.08197, 0
1350, 2245856704, -0.8981499, 0.0033322927, 0.42860574, 0.09806356, 5.5178666, -3.0522523, 10.262314, 0
1351, 2245873371, -0.90078807, -0.002686048, 0.42333347, 0.09677881, 4.2439823, 2.055713, 5.1532593, 0
1353, 2245906705, -0.9051738, -0.019968642, 0.4140767, 0.09383935, 0.8093265, 6.7552767, 1.5664225, 0
1354, 2245923372, -0.90699786, -0.026759189, 0.4102504, 0.091308214, -1.322549, 4.850028, 1.8784647, 0
1355, 2245940039, -0.90819013, -0.031020518, 0.40783417, 0.08890145, -2.5809963, 1.6340262, 2.0528984, 0
1357, 2245973373, -0.9089935, -0.033419874, 0.4062641, 0.086990446, 0.030238621, -0.36927935, 3.4448853, 0
1358, 2245990040, -0.9092839, -0.034154706, 0.40596452, 0.08504701, -0.82983947, -0.24789132, 2.200056, 0
1359, 2246006707, -0.90918595, -0.034400277, 0.40668657, 0.08250637, -1.602773, -0.21404874, 0.5212984, 0
1362, 2246056708, -0.90616065, -0.0320064, 0.4146809, 0.07675934, -0.57347816, 0.7137466, -0.943367, 0
1363, 2246073375, -0.90455395, -0.030139387, 0.41851446, 0.075651824, -0.744477, 1.113667, -0.7496662, 0
1365, 2246106709, -0.9002359, -0.024864338, 0.42827523, 0.074438654, -0.72527605, 0.65537393, -1.2224884, 0
1366, 2246123376, -0.8967435, -0.024085889, 0.43549606, 0.07495179, -1.2668091, 1.0542327, -1.3875551, 0
1369, 2246173377, -0.88519204, -0.015645357, 0.45825016, 0.07874507, -0.717431, 0.75299406, -1.3933372, 0
1370, 2246190044, -0.8808331, -0.011396939, 0.46640614, 0.080449045, -0.34920213, 0.6734663, -1.3011961, 0
1372, 2246223378, -0.87295514, -0.0015100166, 0.47968242, 0.08863126, -0.37423086, 0.63137484, -0.8644514, 0
1374, 2246256712, -0.8662853, 0.010644171, 0.4895057, 0.09911707, -1.2174478, 1.1771969, -2.4226394, 0
1376, 2246290046, -0.86007965, 0.020432293, 0.49781027, 0.10970014, -0.8454941, 0.058486525, -1.2623882, 0
1377, 2246306713, -0.85704684, 0.025754765, 0.50181514, 0.113986656, -0.97078985, 0.76939005, -1.1276264, 0
1380, 2246356714, -0.84644955, 0.041992027, 0.5174784, 0.118235, -0.032099143, -1.8046695, -1.0426788, 0
1381, 2246373381, -0.8432147, 0.045508653, 0.52226233, 0.119010255, -0.5042779, -1.7326791, -1.3193846, 0
1382, 2246390048, -0.8397558, 0.047719028, 0.5276271, 0.118938476, -0.84675515, -1.2977866, -0.8450432, 0
1384, 2246423382, -0.8340632, 0.04938017, 0.5370493, 0.11611232, -0.34580985, -1.2025974, -0.69361687, 0
1385, 2246440049, -0.83187115, 0.05031756, 0.5407803, 0.114100285, -0.753177, -0.3833649, -0.32201385, 0
1386, 2246456716, -0.82978195, 0.05164713, 0.5441667, 0.112609304, -1.5680401, -0.47727633, -0.28587055, 0
1388, 2246490050, -0.8264416, 0.054956757, 0.5495412, 0.10946374, -1.1327416, -0.35761413, 0.19589233, 0
1389, 2246506717, -0.8251341, 0.056003027, 0.5516714, 0.10807307, -1.6091366, -0.26727745, 0.24183369, 0
1390, 2246523384, -0.82421947, 0.05630357, 0.55333835, 0.1063605, -1.1215961, -0.548565, 0.34820843, 0
1392, 2246556718, -0.82349455, 0.05519834, 0.5551808, 0.10289712, -0.4967021, 0.19127943, -0.07971001, 0
1394, 2246590052, -0.8253407, 0.058344897, 0.5523999, 0.10132426, -1.3494843, -0.14271526, -1.8191853, 0
1396, 2246623386, -0.8308032, 0.055447925, 0.5443001, 0.102139995, -2.1530645, 0.48238403, -3.4909873, 0
1397, 2246640053, -0.83484894, 0.053850498, 0.53801316, 0.10331008, -2.3963764, 0.8663495, -3.8337326, 0
1399, 2246673387, -0.8443602, 0.050762624, 0.5227647, 0.10583076, -2.2556489, 1.3392823, -4.631155, 0
1400, 2246690054, -0.84951323, 0.048925534, 0.51435065, 0.106680654, -2.434745, 0.9011675, -5.148637, 0
1401, 2246706721, -0.85442203, 0.048764613, 0.50609237, 0.10704868, -2.3225584, 0.54335105, -5.795714, 0
1403, 2246740055, -0.86292404, 0.06783676, 0.4879314, 0.11263691, -1.9120249, -0.87527984, -7.982064, 0
1404, 2246756722, -0.86677533, 0.07792824, 0.47874835, 0.11589458, -2.0276093, -0.7647722, -7.5212398, 0
1405, 2246773389, -0.87011635, 0.08541292, 0.47015682, 0.12065861, -1.6782635, 1.087071, -6.630243, 0
1407, 2246806723, -0.8735654, 0.094485894, 0.4579375, 0.1351032, 2.7928603, 0.5883758, -2.1840224, 0
1409, 2246840057, -0.8757673, 0.08354726, 0.45076427, 0.15121838, 8.8184805, -2.4674134, 5.074237, 0
1411, 2246873391, -0.87793046, 0.072963044, 0.44443232, 0.16247447, 10.477763, -5.5351415, 12.104557, 0
1412, 2246890058, -0.8797208, 0.06569758, 0.44090572, 0.16547237, 10.3856945, -5.3720016, 13.228355, 0
1413, 2246906725, -0.8818786, 0.053921748, 0.4378882, 0.16625285, 9.907793, -5.3719897, 13.286694, 0
1417, 2246973393, -0.88788676, 0.0032076612, 0.43162477, 0.15921898, 2.9200344, 7.520956, 3.3868866, 0
1419, 2247006727, -0.89197505, -0.014674689, 0.4269276, 0.14799143, -6.2343388, 1.9662546, 2.4313507, 0
1420, 2247023394, -0.89340353, -0.015805826, 0.425226, 0.14410777, -1.7649218, 0.11555477, 6.240492, 0
1422, 2247056728, -0.89634985, -0.019536953, 0.42144287, 0.13625278, -1.7174546, 0.33694366, 3.3530216, 0
1423, 2247073395, -0.897448, -0.021046296, 0.4205184, 0.1315754, -1.245081, 0.9894135, 1.5923977, 0
1424, 2247090062, -0.89807934, -0.023555994, 0.42051193, 0.12677589, -1.4452356, 0.9775, 0.36422253, 0
1426, 2247123396, -0.8975866, -0.025024747, 0.42374083, 0.1189932, -0.262328, 1.3603617, -0.31921864, 0
1428, 2247156730, -0.8956112, -0.027683135, 0.42974648, 0.11151698, -0.16803928, 1.5776329, -0.49463367, 0
1430, 2247190064, -0.89221114, -0.029782115, 0.4384395, 0.10414821, -0.42682123, 0.9924203, -1.3853626, 0
1431, 2247206731, -0.8900489, -0.029765097, 0.44367865, 0.100398466, -0.3695874, 0.6902061, -1.5629492, 0
1432, 2247223398, -0.8878039, -0.029402617, 0.44912136, 0.09609038, -0.42793858, 0.32492656, -1.9324498, 0
1434, 2247256732, -0.88255614, -0.026714541, 0.4610799, 0.088260025, -0.5621939, 0.13215747, -2.1318831, 0
1435, 2247273399, -0.8795654, -0.023446176, 0.46739027, 0.08581988, -0.6476067, 0.2308516, -1.9729629, 0
1436, 2247290066, -0.8753631, -0.02220073, 0.47551203, 0.08449024, -0.57432705, 0.07328536, -2.537951, 0
1438, 2247323400, -0.86812484, -0.017414702, 0.48880368, 0.08444335, -0.65532726, 0.6159409, -2.6723938, 0
1440, 2247356734, -0.8609594, -0.008659545, 0.50112695, 0.08688742, -0.8830413, 0.7767949, -2.1782236, 0
1442, 2247390068, -0.8521567, 7.2840974E-4, 0.51550204, 0.08994371, -0.9438876, 0.89664793, -2.1655517, 0
1443, 2247406735, -0.84692574, 0.004727248, 0.5239321, 0.09051581, -0.09073464, 0.06814857, -2.597206, 0
1444, 2247423402, -0.84264463, 0.008333176, 0.5306049, 0.091337726, -0.07979278, -0.7028602, -1.8222508, 0
1448, 2247490070, -0.8250919, 0.020789094, 0.5564216, 0.09586512, -0.88484955, -0.8867786, -0.69980526, 0
1450, 2247523404, -0.8189884, 0.024872236, 0.5653262, 0.095128864, -1.8565967, -1.7738054, -0.08600044, 0
1451, 2247540071, -0.81676817, 0.027319197, 0.56850404, 0.09460615, -2.1482236, -0.9092226, 0.22760773, 0
1453, 2247573405, -0.8139142, 0.031138033, 0.572621, 0.09318335, -1.967627, -0.17838876, -0.5498009, 0
1454, 2247590072, -0.81322443, 0.0322789, 0.5737155, 0.09207794, -1.9742004, 0.5570895, -1.5913067, 0
1455, 2247606739, -0.8135531, 0.032650545, 0.57336926, 0.09119746, -1.4285743, 1.0134182, -1.7226, 0
1458, 2247656740, -0.82106334, 0.022961047, 0.56236285, 0.09528693, -2.9059072, 1.6076231, -2.8971891, 0
1459, 2247673407, -0.824695, 0.020439044, 0.5568319, 0.0969671, -2.46354, 1.5208246, -3.681498, 0
1461, 2247706741, -0.83390564, 0.019845434, 0.5418567, 0.10296826, -2.9941123, 1.0705636, -4.790698, 0
1462, 2247723408, -0.83870065, 0.020975195, 0.53355366, 0.10707684, -2.2990305, 0.93679404, -5.2630596, 0
1463, 2247740075, -0.84403676, 0.021430068, 0.524475, 0.10987389, -1.8598739, 0.7616762, -6.566373, 0
1465, 2247773409, -0.8561185, 0.023865767, 0.5036339, 0.11334957, -1.8819581, 0.4537908, -6.51659, 0
1466, 2247790076, -0.8612487, 0.03148185, 0.49335277, 0.117756486, -2.3572655, 0.6014123, -6.982718, 0
1467, 2247806743, -0.8652232, 0.04062368, 0.4839922, 0.124474056, -0.53416157, 0.9577103, -5.7842584, 0
1469, 2247840077, -0.86983395, 0.052983124, 0.46898535, 0.14366011, 5.825989, -0.43772352, 1.2324028, 0
1470, 2247856744, -0.8704374, 0.053898852, 0.46509233, 0.1520746, 10.3474, -3.248326, 4.625391, 0
1473, 2247906745, -0.87465614, 0.046330042, 0.4541256, 0.16310698, 8.630679, -5.8747272, 11.957455, 0
1474, 2247923412, -0.8770177, 0.033426426, 0.4519116, 0.1596945, 8.097554, -6.998843, 12.8465805, 0
1476, 2247956746, -0.88071483, 0.013778055, 0.45024675, 0.14640078, 5.7332726, -3.5381143, 8.1110935, 0
1477, 2247973413, -0.8814946, 0.010513445, 0.4503763, 0.1414976, 4.9850574, 1.3989041, 5.8708687, 0
1478, 2247990080, -0.8836148, 5.3129345E-4, 0.44862103, 0.13404326, 3.3680644, 5.4227257, 4.8460865, 0
1480, 2248023414, -0.8905041, -0.019669421, 0.44022977, 0.11321114, -5.751329, 2.2185583, 6.0914183, 0
1481, 2248040081, -0.89227974, -0.017228443, 0.43756136, 0.10992527, -1.8025001, 5.535473, 9.373695, 0
1482, 2248056748, -0.89438516, -0.020188063, 0.43416345, 0.105703995, -1.0424523, 4.323328, 6.2008286, 0
1484, 2248090082, -0.89733464, -0.033955697, 0.43012786, 0.09290639, -1.3260462, 0.13143817, 0.6269026, 0
1485, 2248106749, -0.8978907, -0.039918434, 0.42968807, 0.08700913, -1.2201167, 0.83604926, 0.228652, 0
1488, 2248156750, -0.8980791, -0.056958444, 0.4308244, 0.067850694, -0.656614, 2.6180205, -0.08677769, 0
1489, 2248173417, -0.8979894, -0.05879917, 0.4315843, 0.06242189, -0.1660451, 2.5474832, -0.33367348, 0
1490, 2248190084, -0.8981376, -0.05998539, 0.43184054, 0.057166953, -0.8411023, 1.641204, -1.9638157, 0
1492, 2248223418, -0.89860725, -0.05370954, 0.43267283, 0.049174294, -0.2727817, 2.0754244, -4.028458, 0
1493, 2248240085, -0.8984451, -0.050438218, 0.4338272, 0.045273513, 0.16793445, 0.9866575, -5.4032297, 0
1494, 2248256752, -0.898028, -0.047956817, 0.43536642, 0.04129894, 0.08255641, -0.34236827, -6.043769, 0
1496, 2248290086, -0.89563775, -0.04400743, 0.44113964, 0.035999592, -0.25763008, -1.6209704, -6.284769, 0
1497, 2248306753, -0.8939018, -0.036409676, 0.4453188, 0.036178235, 0.23708667, -0.83125085, -5.9969673, 0
1498, 2248323420, -0.8919408, -0.022775978, 0.44998375, 0.03796423, 0.3879025, 0.9528503, -4.704635, 0
1500, 2248356754, -0.8867134, 0.0028060675, 0.46046534, 0.041312315, 1.9623678, 2.2440572, -1.8212876, 0
1501, 2248373421, -0.88332856, 0.00898461, 0.46681893, 0.04163758, 2.0225735, 0.9207339, 0.3651209, 0
1502, 2248390088, -0.8795788, 0.010127872, 0.47371706, 0.042827863, 1.9165503, -0.1092203, 2.9808283, 0
1504, 2248423422, -0.87212044, 0.010849554, 0.486854, 0.047593724, 1.4601225, 0.8315538, 5.193302, 0
1505, 2248440089, -0.8681414, 0.01512479, 0.49329412, 0.052597392, 0.17978443, 0.33900592, 4.234453, 0
1507, 2248473423, -0.8579593, 0.02504576, 0.5091772, 0.0634101, -1.4347622, -4.0668526, -0.84140015, 0
1508, 2248490090, -0.8536101, 0.023913488, 0.5159446, 0.06769712, -2.7893176, -4.163767, -2.1305733, 0
1509, 2248506757, -0.849366, 0.028866451, 0.5217852, 0.07407907, -4.4793406, -0.84893364, -4.274887, 0
1511, 2248540091, -0.8425434, 0.05244178, 0.52848244, 0.08989193, -4.1392922, 3.166132, -4.912843, 0
1512, 2248556758, -0.840052, 0.054808926, 0.5312833, 0.09513365, -3.1054661, 3.968316, -3.4841833, 0
1515, 2248606759, -0.83498114, 0.06862864, 0.5334861, 0.11615874, -1.0356739, 2.4011326, -1.4977427, 0
1516, 2248623426, -0.8360421, 0.066409186, 0.5314827, 0.11896825, -2.1835978, -0.0484333, -1.5069551, 0
1517, 2248640093, -0.8369057, 0.0648177, 0.52970284, 0.12168129, -3.3767529, -0.58619356, -2.0724745, 0
1519, 2248673427, -0.8379144, 0.0737445, 0.5242278, 0.13285343, -1.6783916, 0.49708042, -3.6055813, 0
1520, 2248690094, -0.8392172, 0.08234426, 0.5195321, 0.13792847, -0.8051234, 2.201114, -4.1673093, 0
1521, 2248706761, -0.8406214, 0.08780983, 0.5155844, 0.14078856, -0.48368797, 1.998863, -7.1260123, 0
1523, 2248740095, -0.84380007, 0.08699028, 0.50870943, 0.14714797, 1.0302814, 0.087995134, -9.30765, 0
1524, 2248756762, -0.84513783, 0.085673004, 0.50559896, 0.1509163, 2.3650925, 1.5168461, -8.859086, 0
1525, 2248773429, -0.84662384, 0.08764659, 0.5016249, 0.15466933, 2.1954381, 0.2310927, -7.2102165, 0
1528, 2248823430, -0.85514337, 0.07957578, 0.4867502, 0.15961078, 0.8919835, -5.4638534, 4.118555, 0
1535, 2248940099, -0.8861194, 0.11732118, 0.42064577, 0.1552057, 7.986082, -4.788483, 8.057718, 0
1536, 2248956766, -0.88849384, 0.13207017, 0.41225943, 0.15225697, 8.625304, -3.859937, 7.3718376, 0
1538, 2248990100, -0.8937882, 0.1514283, 0.39606947, 0.14609878, -1.3441796, -6.0134077, 5.379197, 0
1539, 2249006767, -0.895222, 0.16303925, 0.38810152, 0.14620799, -4.294734, -0.58334935, 4.4623137, 0
1540, 2249023434, -0.89652437, 0.16782106, 0.38320315, 0.14573742, -5.4876714, 1.6928666, 3.0936565, 0
1542, 2249056768, -0.902265, 0.15658084, 0.37709737, 0.1385688, -3.1338947, 2.1810904, 8.863022, 0
1543, 2249073435, -0.9049626, 0.15176165, 0.37331834, 0.13655877, -1.2600828, 3.2330964, 7.289898, 0
1544, 2249090102, -0.9066635, 0.14775072, 0.3706737, 0.13687827, -1.2932881, 4.306898, 4.406353, 0
1546, 2249123436, -0.9082121, 0.13989112, 0.37095463, 0.13408074, -1.1224349, 2.2650826, 0.17411423, 0
1547, 2249140103, -0.9082795, 0.13661626, 0.3727421, 0.13202803, -0.358226, 1.5609459, -0.24005318, 0
1550, 2249190104, -0.90506923, 0.13011442, 0.38312402, 0.1309169, -0.662038, 1.0134829, -2.0187492, 0
1551, 2249206771, -0.90335, 0.12817284, 0.3876374, 0.13142097, -0.6182234, 0.7530333, -1.8482246, 0
1552, 2249223438, -0.90126437, 0.12510642, 0.39336473, 0.13167697, -0.61279786, 0.38365898, -2.0434732, 0
1554, 2249256772, -0.8962688, 0.1175544, 0.40624046, 0.1336249, -0.5095693, -0.21832466, -2.348824, 0
1558, 2249323440, -0.8821575, 0.104742326, 0.43593296, 0.14419828, -1.0035527, 0.90149176, -2.6794934, 0
1559, 2249340107, -0.8782804, 0.09891126, 0.44469443, 0.14522567, -0.70599025, 0.4177169, -2.654107, 0
1561, 2249373441, -0.8714104, 0.09075655, 0.45824578, 0.14973783, -0.9419784, 0.82295024, -1.3775911, 0
1562, 2249390108, -0.86805046, 0.088591024, 0.46402034, 0.1527372, -0.7589351, 1.2990992, -1.8527718, 0
1563, 2249406775, -0.864319, 0.08614887, 0.47085795, 0.1543618, -0.94025934, 0.9466404, -2.2259436, 0
1565, 2249440109, -0.8559596, 0.079803206, 0.48610356, 0.15707211, -1.2360923, 1.3870147, -1.7274857, 0
1567, 2249473443, -0.8482062, 0.077707835, 0.4986477, 0.16081613, -2.013247, 1.9408877, -2.023368, 0
1569, 2249506777, -0.8375094, 0.075827315, 0.5165582, 0.16124389, -0.13993387, 0.59048736, -1.2100992, 0
1570, 2249523444, -0.83352154, 0.07504679, 0.5227428, 0.1623375, 0.24006945, 0.31666684, -0.6624756, 0
1573, 2249573445, -0.8272586, 0.07605739, 0.53189385, 0.16416834, -1.8629812, 1.7776978, 0.028877258, 0
1575, 2249606779, -0.82314306, 0.0754273, 0.5386613, 0.16307627, -0.35228592, -0.32536066, -0.87743664, 0
1577, 2249640113, -0.8231878, 0.07051526, 0.54088414, 0.15759906, -1.6442211, 1.5768485, -0.2804098, 0
1578, 2249656780, -0.8225062, 0.073776655, 0.54199046, 0.15585408, -2.3344235, 2.7576013, -0.747591, 0
1579, 2249673447, -0.820937, 0.07761331, 0.5440896, 0.15494812, -1.5407085, 1.7781218, -2.178907, 0
1581, 2249706781, -0.82032883, 0.0787352, 0.54511404, 0.15399879, -0.52280957, 1.3816463, -2.0903463, 0
1582, 2249723448, -0.8217458, 0.07754492, 0.54330516, 0.15344, -0.9409189, 1.7668395, -2.1580076, 0
1583, 2249740115, -0.82350713, 0.077872336, 0.5407299, 0.15292725, -1.3330109, 2.1274977, -1.9094486, 0
1585, 2249773449, -0.8283681, 0.08236569, 0.5322089, 0.15420657, 0.008814457, 0.866221, -3.234159, 0
1586, 2249790116, -0.8331983, 0.0812359, 0.5246641, 0.1546366, 0.35397008, 1.3361115, -3.915174, 0
1588, 2249823450, -0.8436575, 0.08003156, 0.5071785, 0.15687786, 1.6261632, 1.513995, -4.606103, 0
1589, 2249840117, -0.8491456, 0.08098176, 0.4969719, 0.159424, 1.3352666, 1.1327279, -6.1805882, 0
1590, 2249856784, -0.8540196, 0.08571506, 0.48624277, 0.16393635, 1.6014147, 2.2741063, -6.447564, 0
1592, 2249890118, -0.86257076, 0.08324216, 0.4695969, 0.16889346, 0.35026425, -0.4331513, -4.951667, 0
1594, 2249923452, -0.8688924, 0.08768572, 0.4559222, 0.17168511, 3.7914631, -4.3265944, -0.82318497, 0
1596, 2249956786, -0.8746549, 0.09013748, 0.44341636, 0.17389622, 8.981422, -3.7908049, 6.5903378, 0
1600, 2250023454, -0.88776165, 0.10284417, 0.41162106, 0.1785329, 6.948253, -6.038436, 12.014044, 0
1601, 2250040121, -0.8892487, 0.11710757, 0.4022807, 0.18356545, 5.6040163, -5.4405317, 10.139397, 0
1602, 2250056788, -0.89006114, 0.1315073, 0.39359927, 0.18862668, 3.1193867, -4.3682666, 6.474287, 0
1605, 2250106789, -0.8904108, 0.15895921, 0.37953177, 0.19457649, -5.6614885, -0.066011645, 1.256485, 0
1606, 2250123456, -0.8900215, 0.16080642, 0.37922642, 0.19543307, -4.7975936, 0.517409, 2.555091, 0
1609, 2250173457, -0.8899833, 0.15531455, 0.37890476, 0.20060377, 0.4461381, 3.429835, 3.5078773, 0
1611, 2250206791, -0.88965446, 0.15431744, 0.3789965, 0.202648, -0.69876766, 1.8682842, 0.006269455, 0
1612, 2250223458, -0.8891689, 0.15454097, 0.3799861, 0.20275524, -0.6587432, 1.4172767, -1.2393036, 0
1613, 2250240125, -0.8888326, 0.15461117, 0.38118193, 0.20193028, -0.7627478, 0.7799025, -1.7277298, 0
1615, 2250273459, -0.8876429, 0.15310884, 0.38590613, 0.19931829, -1.3081263, 0.020729374, -1.5096779, 0
1617, 2250306793, -0.8852806, 0.14771397, 0.39495516, 0.196145, -1.7237247, -0.23431332, -0.84772205, 0
1619, 2250340127, -0.8814917, 0.14168675, 0.40682033, 0.19338608, -1.3681355, -0.051024098, -1.4939108, 0
1620, 2250356794, -0.87954414, 0.13652416, 0.41358548, 0.19160911, -1.2543381, 0.34452432, -1.1397648, 0
1621, 2250373461, -0.87738806, 0.13183407, 0.42017218, 0.1904436, -1.3712558, 0.40574586, -1.0264215, 0
1623, 2250406795, -0.8722533, 0.12483687, 0.43310174, 0.18978025, -0.8102586, 0.6386507, -1.5474997, 0
1624, 2250423462, -0.8698394, 0.11992092, 0.43978816, 0.1886493, -0.79430693, 0.7715499, -1.220046, 0
1625, 2250440129, -0.8675744, 0.11342524, 0.44661728, 0.18704489, -0.9081094, 0.70367074, -1.0275669, 0
1627, 2250473463, -0.8628031, 0.10196981, 0.45945758, 0.18459524, -0.6879897, 0.8947114, -1.2795687, 0
1628, 2250490130, -0.860387, 0.09682279, 0.4659274, 0.18241337, -0.6218336, 0.6924883, -1.2615824, 0
1629, 2250506797, -0.857703, 0.09192683, 0.47275245, 0.18001023, -0.93854743, 0.4568174, -1.2856045, 0
1632, 2250556798, -0.8481194, 0.08152525, 0.4934843, 0.17471108, -1.2458326, 0.6191949, -2.2665157, 0
1633, 2250573465, -0.8444822, 0.077193156, 0.50104034, 0.17278117, -1.0424056, 0.54850423, -2.2573357, 0
1637, 2250640133, -0.8316762, 0.06897654, 0.52590674, 0.16426449, -0.477096, 0.8170402, -1.3782101, 0
1644, 2250756802, -0.80245197, 0.06641821, 0.5673012, 0.17272137, -0.4485713, 1.2861012, 0.050136566, 0
1646, 2250790136, -0.7971723, 0.07184629, 0.5724085, 0.17806293, -1.0186361, 0.892675, -0.48192978, 0
1647, 2250806803, -0.7958412, 0.07401839, 0.5734982, 0.17961419, -1.4354078, 0.8608299, -1.2733765, 0
1648, 2250823470, -0.7949158, 0.07659319, 0.5741126, 0.18066701, -1.2482405, 0.6043192, -1.7580862, 0
1650, 2250856804, -0.7950999, 0.080247805, 0.5737129, 0.17953655, -0.9064671, 0.84946656, -1.6804237, 0
1651, 2250873471, -0.79649395, 0.084990084, 0.5710444, 0.17968217, -0.766748, 1.6875316, -1.519351, 0
1652, 2250890138, -0.79860646, 0.09152067, 0.5665973, 0.18116996, -0.53095883, 1.6635616, -1.9035006, 0
1655, 2250940139, -0.80951625, 0.09464726, 0.54936266, 0.18420026, -0.41393772, 0.8016071, -2.817182, 0
1656, 2250956806, -0.81534594, 0.0925067, 0.5408765, 0.18468797, -0.15439023, 1.5658087, -3.6081743, 0
1658, 2250990140, -0.82863694, 0.091508225, 0.5187204, 0.18952504, 0.8272406, 2.1496859, -5.558409, 0
1659, 2251006807, -0.83416325, 0.09383708, 0.50721705, 0.19519405, 2.5296185, 1.2450079, -7.0164704, 0
1660, 2251023474, -0.8425664, 0.09137055, 0.49166232, 0.20001294, 2.1240158, 0.30083367, -4.847731, 0
1662, 2251056808, -0.8570242, 0.07775357, 0.46412715, 0.20988917, -0.9772534, -0.5725542, -1.2001534, 0
1663, 2251073475, -0.8619984, 0.08206357, 0.45152932, 0.21528837, 0.4533759, -0.37499893, 0.34846687, 0
1665, 2251106809, -0.867777, 0.09707366, 0.43364042, 0.22248447, 5.609143, -5.3395996, 3.9134617, 0
1666, 2251123476, -0.8709841, 0.09769627, 0.4268605, 0.22279075, 6.1772656, -6.946131, 7.36479, 0
1667, 2251140143, -0.8750039, 0.09564297, 0.42000794, 0.22094671, 6.0944376, -7.415546, 10.387096, 0
1669, 2251173477, -0.8828363, 0.09890749, 0.40327922, 0.21951497, 6.8959494, -6.7659273, 11.518194, 0
1670, 2251190144, -0.88579434, 0.10658116, 0.39415413, 0.2205787, 6.4486313, -7.1403084, 10.506197, 0
1671, 2251206811, -0.88811463, 0.116398014, 0.38496014, 0.22251536, 4.972396, -7.6656604, 8.509436, 0
1673, 2251240145, -0.89217645, 0.1316847, 0.37103, 0.2214059, 1.1175089, -5.1327057, 3.5104713, 0
1674, 2251256812, -0.89365596, 0.13908316, 0.3654377, 0.22021304, -2.1521847, -3.3812559, 1.3292103, 0
1675, 2251273479, -0.89381063, 0.14882722, 0.36108905, 0.22038883, -3.4225624, -0.08348287, 0.0412302, 0
1678, 2251323480, -0.89593154, 0.14706466, 0.36029953, 0.21416458, -1.9937974, 2.8643448, 3.077547, 0
1681, 2251373481, -0.8967399, 0.14015038, 0.36091733, 0.21437767, -0.87485653, 2.6293697, 0.7178831, 0
1682, 2251390148, -0.89574844, 0.14073376, 0.36199382, 0.21631604, -0.7743944, 2.1414468, -0.9049177, 0
1685, 2251440149, -0.89038503, 0.14351162, 0.3704255, 0.22227745, -0.43893877, -0.07940253, -2.0421195, 0
1687, 2251473483, -0.8851839, 0.14765322, 0.37919867, 0.22552167, -1.1644493, -0.054466754, -1.7025394, 0
1689, 2251506817, -0.880626, 0.1492354, 0.38978767, 0.22426683, -1.6486487, -0.8271165, -1.6955376, 0
1690, 2251523484, -0.8784669, 0.14799066, 0.39578122, 0.2230596, -2.04776, -0.047790535, -1.4353113, 0
1692, 2251556818, -0.87436455, 0.13927357, 0.41057506, 0.21799377, -1.5366235, 0.12729643, -1.8539305, 0
1693, 2251573485, -0.87213963, 0.13398145, 0.41873527, 0.21467593, -1.9033726, 0.10771795, -1.7450123, 0
1694, 2251590152, -0.86999017, 0.12927753, 0.4268353, 0.21028437, -1.7234014, 0.48957786, -1.4919329, 0
1697, 2251640153, -0.86201495, 0.12120585, 0.45054275, 0.19812617, -1.2458764, 1.4482139, -1.5805063, 0
1698, 2251656820, -0.85833853, 0.11949126, 0.45945477, 0.19463141, -1.2060665, 1.2957138, -1.6291914, 0
1701, 2251706821, -0.84392124, 0.111812614, 0.49031085, 0.18679851, 0.119762935, 0.88604313, -1.4784956, 0
1704, 2251756822, -0.827044, 0.106764056, 0.5228435, 0.17674218, 0.06363503, 0.2834607, -0.7692375, 0
1705, 2251773489, -0.8208931, 0.10581404, 0.53368044, 0.17356996, -0.32241476, 0.4125704, -0.80993176, 0
1708, 2251823490, -0.8013907, 0.10129115, 0.5652537, 0.16734612, -0.44312114, 0.68034846, -0.25298405, 0
1710, 2251856824, -0.78929985, 0.0970121, 0.5826478, 0.16768874, -0.08746375, 0.46697947, -0.07014656, 0
1713, 2251906825, -0.7801847, 0.088696435, 0.59661853, 0.16581482, -0.5665481, 1.3758955, -0.4770193, 0
1714, 2251923492, -0.7779566, 0.087755725, 0.5999128, 0.16489515, -0.8563671, 1.7135046, 0.2642107, 0
1716, 2251956826, -0.7720881, 0.08889226, 0.6070812, 0.16563156, -0.37378073, 1.5785426, -0.6434145, 0
1717, 2251973493, -0.7696503, 0.09142556, 0.60926765, 0.16755852, -1.0538819, 2.3541996, -0.2004633, 0
1718, 2251990160, -0.76630116, 0.09518563, 0.61231095, 0.16970842, -1.1271217, 2.5852344, -0.1486988, 0
1721, 2252040161, -0.7534462, 0.10357517, 0.6247219, 0.17696592, -0.36471593, 0.6995486, 0.18523693, 0
1724, 2252090162, -0.74329966, 0.11255887, 0.63288045, 0.18520781, -0.8519858, 0.825157, -0.20816135, 0
1725, 2252106829, -0.73973686, 0.11541533, 0.6360332, 0.18690668, -0.38079277, 0.8564718, 0.040157318, 0
1728, 2252156830, -0.73162246, 0.1223719, 0.64375603, 0.18797678, -0.87773, 0.21330176, 0.54664326, 0
1729, 2252173497, -0.7294838, 0.12412292, 0.6460427, 0.18729366, -0.84317535, -0.17378591, 0.48775387, 0
1731, 2252206831, -0.7254776, 0.12540144, 0.65117687, 0.18419805, -0.67260325, -0.44427246, 0.23720741, 0
1732, 2252223498, -0.7241754, 0.12511009, 0.6532371, 0.18221444, -0.22463141, -0.5927964, 0.1876936, 0
1733, 2252240165, -0.7238922, 0.12383296, 0.65443754, 0.17989045, -0.31706297, -0.13962865, 0.23629284, 0
1735, 2252273499, -0.7238325, 0.12216819, 0.6561729, 0.1748769, -0.58342427, 0.7779221, 0.5303612, 0
1736, 2252290166, -0.7235518, 0.12091024, 0.6573745, 0.17238222, -0.3852742, 0.38868892, 0.3473301, 0
1737, 2252306833, -0.7237928, 0.11883406, 0.658104, 0.17001474, -0.58421546, 0.25007534, 0.2652855, 0
1740, 2252356834, -0.7277575, 0.11322251, 0.65603137, 0.1648511, -0.5635316, 0.6292754, 0.02486229, 0
1743, 2252406835, -0.73466295, 0.11045793, 0.64950544, 0.1619119, -0.81498367, 0.72759813, -0.31168556, 0
1744, 2252423502, -0.7375739, 0.10711506, 0.6473966, 0.15934941, -0.39203188, -0.5647124, -0.12267208, 0
1746, 2252456836, -0.74205506, 0.10128909, 0.64436865, 0.15455435, -0.963791, 0.73802567, -0.23953438, 0
1747, 2252473503, -0.7441755, 0.097840235, 0.6430129, 0.15221052, -0.8120923, -0.09219988, -0.29844093, 0
1748, 2252490170, -0.74646807, 0.09495782, 0.6412984, 0.15002751, -1.4223443, 1.1666479, 0.076566696, 0
1750, 2252523504, -0.74902254, 0.09645464, 0.6384683, 0.14840302, -0.6289109, 1.1090814, 0.024582863, 0
1751, 2252540171, -0.75037485, 0.09603184, 0.6369941, 0.14817968, -0.9897811, 0.25582018, -0.4689455, 0
1752, 2252556838, -0.75133824, 0.09358339, 0.63654476, 0.14678957, -1.1726062, 0.42791986, -0.57503414, 0
1754, 2252590172, -0.7536417, 0.09313741, 0.634171, 0.14553358, -0.6459587, 2.3608975, 0.34087372, 0
1755, 2252606839, -0.75450706, 0.09540233, 0.63265294, 0.1461886, -0.8417592, 2.1584299, 0.29232693, 0
1756, 2252623506, -0.7553054, 0.09678021, 0.63130635, 0.14698003, -0.81616294, 1.268736, 0.053355217, 0
1758, 2252656840, -0.7575477, 0.097018935, 0.62827855, 0.14825125, -1.430796, 0.8661484, -0.4665327, 0
1759, 2252673507, -0.75905037, 0.098116025, 0.62606674, 0.14919668, -2.1209168, 1.3833189, -0.41217804, 0
1760, 2252690174, -0.76022243, 0.10109211, 0.62377733, 0.15082353, -2.3671925, 2.2000575, -0.25803185, 0
1762, 2252723508, -0.76073647, 0.10756855, 0.62125415, 0.15412879, -2.2418294, 0.9841331, -0.57855225, 0
1763, 2252740175, -0.7612966, 0.107502416, 0.62060004, 0.15404452, -2.593088, 0.13744281, -0.7081995, 0
1764, 2252756842, -0.76198095, 0.10643144, 0.6200508, 0.1536151, -2.6555612, 0.5438189, -0.3328514, 0
1766, 2252790176, -0.76213986, 0.1052915, 0.6204323, 0.15206453, -1.9691463, 1.4655019, -0.38836288, 0
1768, 2252823510, -0.76241684, 0.10260065, 0.62142277, 0.14842731, -1.479319, 1.0395592, -0.16705227, 0
1770, 2252856844, -0.7640934, 0.095633484, 0.6218097, 0.1427292, -1.6881918, 0.65806484, -0.43895435, 0
1771, 2252873511, -0.7653245, 0.093045056, 0.62132096, 0.13994679, -1.9623445, 2.2608795, 0.1685009, 0
1772, 2252890178, -0.76626843, 0.09331067, 0.62053883, 0.13805997, -1.5614557, 2.3663883, 0.087620735, 0
1774, 2252923512, -0.77032495, 0.09055257, 0.6172168, 0.13208541, -1.726292, 0.432408, 0.27843094, 0
1775, 2252940179, -0.77298784, 0.08532401, 0.61542594, 0.12831213, -2.142818, -0.19295922, -0.40540886, 0
1777, 2252973513, -0.7770349, 0.07561611, 0.61301464, 0.121307224, -1.768431, 1.3533441, 0.053401947, 0
1778, 2252990180, -0.77824694, 0.074318364, 0.612176, 0.1185441, -1.7433913, 2.5730028, -0.10902405, 0
1779, 2253006847, -0.77849, 0.07492693, 0.61230004, 0.115893096, -1.0441462, 2.5487692, -0.32401943, 0
1783, 2253073515, -0.7793341, 0.07480929, 0.6130781, 0.105738506, -2.118182, 2.421754, -0.21276093, 0
1786, 2253123516, -0.77950215, 0.07964209, 0.6125815, 0.103830904, -1.8226123, 1.3620251, -0.41454983, 0
1787, 2253140183, -0.77905893, 0.08176257, 0.6128296, 0.10404539, -1.9312688, 2.2807217, -0.45549965, 0
1789, 2253173517, -0.77442324, 0.089681506, 0.6169623, 0.10764156, -1.3598665, 2.1514235, -0.6383562, 0
1790, 2253190184, -0.77093184, 0.093281165, 0.62035286, 0.1101291, -1.0464338, 1.6557448, -1.0688505, 0
1793, 2253240185, -0.7636333, 0.104325235, 0.6265092, 0.11606106, -0.53992593, 2.3390841, -0.81733704, 0
1794, 2253256852, -0.76064354, 0.10977779, 0.6283882, 0.12042313, -1.0898156, 2.1391633, 0.012524605, 0
1795, 2253273519, -0.7561808, 0.11814187, 0.63143975, 0.12458026, 0.15037684, 2.105428, 0.6270828, 0
1797, 2253306853, -0.7470355, 0.13278458, 0.63796943, 0.13154784, -1.6854594, 0.4795209, 0.13024616, 0
1798, 2253323520, -0.7431065, 0.13712353, 0.6406824, 0.13608593, -1.4373354, -0.086558744, -0.4348383, 0
1800, 2253356854, -0.7398484, 0.143718, 0.64117765, 0.14444485, -2.781472, 1.012487, -0.4202633, 0
1802, 2253390188, -0.73665005, 0.1510249, 0.6415814, 0.15137681, -3.4854312, 2.3646364, 0.1363697, 0
1804, 2253423522, -0.73113805, 0.16148353, 0.64430064, 0.15569338, -3.7396927, 1.4651957, -0.13725471, 0
1805, 2253440189, -0.72868335, 0.16746196, 0.6452913, 0.15677941, -3.7703574, 1.117991, -0.29386997, 0
1806, 2253456856, -0.72502035, 0.17468402, 0.6473045, 0.15757939, -3.6148689, 0.9265666, -0.09112549, 0
1808, 2253490190, -0.71627444, 0.18827555, 0.6535552, 0.15611568, -2.2122717, 0.31388834, -0.4196043, 0
