sep=,
DeviceTag:,Xsens_DOT_3,,,,,,,,,,,,,,,,,
FirmwareVersion:,3.0.0,,,,,,,,,,,,,,,,,
AppVersion:,2023.6.1,,,,,,,,,,,,,,,,,
SyncStatus:,Synced,,,,,,,,,,,,,,,,,
OutputRate:,60Hz,,,,,,,,,,,,,,,,,
FilterProfile:,General,,,,,,,,,,,,,,,,,
Measurement Mode:,Sensor fusion Mode - Extended (Quaternion),,,,,,,,,,,,,,,,,
StartTime:,2025-05-05 11:34:40.245 +0200,,,,,,,,,,,,,,,,,
 2025,,,,,,,,,,,,,,,,,,,

PacketCounter,SampleTimeFine,Quat_W,Quat_X,Quat_Y,Quat_Z,FreeAcc_X,FreeAcc_Y,FreeAcc_Z,Status
1, 1673261919, 0.078480035, -0.6743837, -0.20658061, -0.70453846, -0.032487042, 0.017895592, -0.053679466, 0
2, 1673278586, 0.078592956, -0.6743936, -0.20662512, -0.70450336, -7.3708984E-4, 0.0027835744, 0.0042276382, 0
3, 1673295253, 0.078723684, -0.6743972, -0.20670186, -0.7044629, -0.010884068, -0.007060411, 0.06096649, 0
4, 1673311920, 0.078822866, -0.6744447, -0.2068228, -0.7043708, -0.0052737463, 0.03166807, 0.054595947, 0
5, 1673328587, 0.07883576, -0.6745492, -0.20692475, -0.7042393, -0.023927858, 0.010415676, 0.009300232, 0
6, 1673345254, 0.07878303, -0.6746307, -0.20695543, -0.70415807, -0.007285021, -0.020390835, -0.038459778, 0
7, 1673361921, 0.07875971, -0.6746333, -0.20696896, -0.70415425, -0.028677724, -0.04317608, -0.038365364, 0
8, 1673378588, 0.07872421, -0.6746493, -0.2069323, -0.70415354, -0.01355435, -0.012269967, -0.024341583, 0
9, 1673395255, 0.07878678, -0.6746225, -0.20697065, -0.7041611, -0.059084784, 0.02500121, -0.016860962, 0
10, 1673411922, 0.078718275, -0.67460304, -0.206909, -0.7042055, -0.033765223, -0.008960579, 0.023089409, 0
11, 1673428589, 0.078692794, -0.6745692, -0.20687923, -0.7042496, -0.01575128, -0.02550199, 0.016929626, 0
12, 1673445256, 0.07871333, -0.6746042, -0.20690218, -0.704207, 0.008006298, -0.0040539466, -0.030433655, 0
13, 1673461923, 0.078686446, -0.6746524, -0.20688745, -0.7041681, -0.057263043, 0.040373676, 0.0071983337, 0
14, 1673478590, 0.07866463, -0.67468315, -0.20691758, -0.7041322, -0.0989318, 0.0063584964, -0.0020980835, 0
15, 1673495257, 0.07857582, -0.6747219, -0.20688999, -0.7041131, -0.014291405, -0.029344177, -0.009595871, 0
16, 1673511924, 0.07851335, -0.6747653, -0.20683774, -0.7040938, 0.0033851666, -0.03415588, -0.039139748, 0
17, 1673528591, 0.07853376, -0.67477083, -0.20682485, -0.70409, -0.015482156, 0.009360946, -0.028624535, 0
18, 1673545258, 0.07850097, -0.6748303, -0.20675984, -0.7040558, -0.0055807135, 0.038998067, -0.011602402, 0
19, 1673561925, 0.07844799, -0.6748721, -0.20665146, -0.7040534, -0.06382507, 0.018510757, -0.022442818, 0
20, 1673578592, 0.07842825, -0.6749022, -0.20659359, -0.70404375, -0.06846921, -0.023055837, 0.01261425, 0
21, 1673595259, 0.078384206, -0.67497367, -0.20656559, -0.70398855, -0.047846362, -0.056915842, 0.052238464, 0
22, 1673611926, 0.07833565, -0.67503536, -0.20653816, -0.7039428, -0.0708307, -0.054757684, 0.023674965, 0
23, 1673628593, 0.0782062, -0.67504203, -0.20642252, -0.7039847, -0.08044293, -0.074479125, 0.02103901, 0
24, 1673645260, 0.07799192, -0.67509156, -0.20627043, -0.70400566, -0.12748763, -0.05591878, 0.038339615, 0
25, 1673661927, 0.07766777, -0.6752751, -0.20608968, -0.70391816, -0.14609505, -0.08059771, 0.0631237, 0
26, 1673678594, 0.0772648, -0.67554003, -0.2059411, -0.703752, -0.102702074, -0.102794506, 0.006661415, 0
27, 1673695261, 0.07673721, -0.6759672, -0.2057267, -0.7034621, -0.070562616, -0.0945495, -0.029349327, 0
28, 1673711928, 0.076224834, -0.6765022, -0.20551325, -0.7030658, 0.036213156, -0.032119986, -0.06743145, 0
29, 1673728595, 0.07584974, -0.6770606, -0.20525119, -0.70264524, -0.05350239, -0.004376512, -0.04991913, 0
30, 1673745262, 0.07558113, -0.6774381, -0.20495194, -0.70239764, -0.06822919, 0.03413694, -0.053729057, 0
31, 1673761929, 0.075429186, -0.6776806, -0.20476249, -0.7022352, -0.05003755, 0.12117093, -0.022892952, 0
32, 1673778596, 0.075295076, -0.6779207, -0.20461172, -0.702062, -0.03630178, 0.0916464, 0.079735756, 0
33, 1673795263, 0.075182155, -0.6780359, -0.20449668, -0.7019962, -0.089613184, 0.035475194, 0.089668274, 0
34, 1673811930, 0.0750854, -0.6779434, -0.20443371, -0.7021142, -0.14177196, 0.0024704048, 0.102698326, 0
35, 1673828597, 0.0749207, -0.6777107, -0.20443201, -0.70235693, -0.15591037, 0.018015228, 0.1014595, 0
36, 1673845264, 0.07465726, -0.6773928, -0.20444047, -0.7026893, -0.13966651, -0.015625093, 0.03254509, 0
37, 1673861931, 0.074427485, -0.67702293, -0.20456313, -0.70303434, -0.20895925, -0.0018084154, 0.005886078, 0
38, 1673878598, 0.07417748, -0.6765539, -0.2047241, -0.7034651, -0.17333849, -0.009042356, 0.037132263, 0
39, 1673895265, 0.07377542, -0.6760503, -0.20474063, -0.7039865, -0.16048053, -0.06402224, 0.02440834, 0
40, 1673911932, 0.07345365, -0.6755872, -0.20484114, -0.7044354, -0.08918642, -0.06894704, -0.0579319, 0
41, 1673928599, 0.073081955, -0.67525876, -0.20486751, -0.7047811, -0.03881517, -0.032196872, -0.10634136, 0
42, 1673945266, 0.07270646, -0.674991, -0.20485248, -0.7050808, -0.0897612, -0.03088231, -0.11066723, 0
43, 1673961933, 0.07238938, -0.67477185, -0.2048502, -0.705324, -0.07584732, -0.022159074, -0.10614109, 0
44, 1673978600, 0.0721547, -0.674593, -0.2049006, -0.70550436, -0.12733816, -0.017915485, -0.057793617, 0
45, 1673995267, 0.071930036, -0.6744112, -0.20489189, -0.70570356, -0.1159646, 0.00954438, -0.0344553, 0
46, 1674011934, 0.07182337, -0.6741989, -0.20489134, -0.7059175, -0.06292931, 0.06810021, -0.071676254, 0
47, 1674028601, 0.0718596, -0.67391557, -0.20490156, -0.7061813, -0.1198332, 0.07774364, -0.05942917, 0
48, 1674045268, 0.07190403, -0.67367715, -0.20486543, -0.7064147, -0.17830545, 0.06394133, -0.014330864, 0
49, 1674061935, 0.072074234, -0.6734644, -0.20493814, -0.70657915, -0.17515947, 0.009370836, 0.06452179, 0
50, 1674078602, 0.07210258, -0.6733904, -0.20489565, -0.706659, -0.11900805, -0.08419129, 0.063482285, 0
54, 1674145270, 0.07333586, -0.6730004, -0.20449643, -0.70701915, -0.05856103, 0.26968423, -0.030322075, 0
57, 1674195271, 0.07545282, -0.67249393, -0.20501994, -0.70712686, -0.077843525, 0.005677732, 0.012931824, 0
58, 1674211938, 0.07613088, -0.6723816, -0.2053595, -0.7070623, -0.036390617, -0.010220381, 0.004541397, 0
59, 1674228605, 0.07687213, -0.6721972, -0.20572945, -0.7070499, -0.15392116, -0.036211222, 3.7002563E-4, 0
65, 1674328607, 0.07960762, -0.6752996, -0.2067823, -0.7034747, 0.14133638, -0.11322018, 0.064629555, 0
73, 1674461943, 0.07858747, -0.6733982, -0.2073845, -0.705233, 0.10773467, -0.14984752, -0.055685997, 0
78, 1674545278, 0.07395697, -0.6707857, -0.2041342, -0.70916057, -0.050848007, -0.13860947, -0.19858551, 0
80, 1674578612, 0.07269184, -0.67021286, -0.20236129, -0.7103401, -0.081285834, -0.16697285, -0.07131195, 0
81, 1674595279, 0.07243158, -0.6699691, -0.20169088, -0.7107871, -0.090193026, -0.12950936, 0.011800766, 0
82, 1674611946, 0.07228984, -0.66979253, -0.20108362, -0.71114, -0.14119276, -0.14284784, 0.0011825562, 0
84, 1674645280, 0.072516516, -0.6691086, -0.20079394, -0.7118422, -0.24456157, -0.00891691, 0.08625698, 0
88, 1674711948, 0.07342161, -0.667737, -0.20194289, -0.7127118, 0.024391647, -0.09847465, 0.029610634, 0
101, 1674928619, 0.071086906, -0.6657422, -0.20013118, -0.71532094, 0.075644106, -0.032873992, 0.021130562, 0
105, 1674995287, 0.06943245, -0.66674894, -0.19736774, -0.7153137, 0.11743868, 0.10441008, -0.060120583, 0
121, 1675261959, 0.06895252, -0.66759944, -0.1941675, -0.7154426, -0.099290594, 0.26113948, 0.2991581, 0
122, 1675278626, 0.06829372, -0.6675657, -0.1933465, -0.71575963, -0.09547836, 0.2843353, 0.4854288, 0
123, 1675295293, 0.06748168, -0.66762835, -0.19257535, -0.7159861, -0.10481977, 0.2570302, 0.35899162, 0
126, 1675345294, 0.06489323, -0.6683021, -0.19119368, -0.71596694, 0.06361705, 0.18306443, -0.1336956, 0
127, 1675361961, 0.064361624, -0.6684775, -0.1910505, -0.7158895, 0.081368476, 0.20200096, -0.09834576, 0
130, 1675411962, 0.06505698, -0.66880316, -0.19130097, -0.7154555, 0.09080438, -0.15227768, -0.3877468, 0
134, 1675478630, 0.0696262, -0.66979456, -0.19104908, -0.7141642, -0.15314563, -0.11994991, 0.27997208, 0
139, 1675561965, 0.07230687, -0.66791785, -0.19465831, -0.7146805, -0.3070486, 0.32171556, 0.15506649, 0
140, 1675578632, 0.0728215, -0.66714036, -0.1958356, -0.7150328, -0.2206411, 0.20785059, 0.04339695, 0
142, 1675611966, 0.074045286, -0.665199, -0.19815661, -0.71607554, -0.076023825, -0.22328995, -0.230587, 0
144, 1675645300, 0.0752984, -0.6626543, -0.19988662, -0.7178213, -0.15236442, -0.14547633, -0.05456066, 0
146, 1675678634, 0.07598285, -0.66011256, -0.20079508, -0.7198346, -0.025185063, -0.23659712, -0.040180206, 0
147, 1675695301, 0.07587974, -0.6591822, -0.20094533, -0.72065574, -0.012419679, -0.22961742, -0.0011587143, 0
151, 1675761969, 0.074679665, -0.65640205, -0.19915529, -0.7238088, 0.07336697, -0.17454943, -0.048690796, 0
154, 1675811970, 0.07355417, -0.6553931, -0.1970877, -0.72540265, 0.04972533, 0.001854012, 0.028063774, 0
155, 1675828637, 0.07324312, -0.6550848, -0.19656919, -0.7258529, 0.06840682, -0.044891894, -0.01280117, 0
158, 1675878638, 0.07312416, -0.6538201, -0.19530402, -0.7273452, 0.06661528, -0.02935133, -0.12666702, 0
161, 1675928639, 0.07390168, -0.6527144, -0.19442666, -0.7284939, 0.0852277, 0.0015033417, -0.041882515, 0
162, 1675945306, 0.074296236, -0.6527267, -0.19406953, -0.72853816, 0.13555044, -0.036961652, -0.080984116, 0
165, 1675995307, 0.07515645, -0.6533179, -0.19303295, -0.72819525, 0.06221113, 0.20681953, -0.14333057, 0
167, 1676028641, 0.076155305, -0.65470827, -0.19180444, -0.7271665, -0.18309358, 0.12018121, 0.070604324, 0
169, 1676061975, 0.07657829, -0.65569013, -0.19139203, -0.7263456, -0.0287306, 0.24535272, 0.19655609, 0
173, 1676128643, 0.07650505, -0.6573821, -0.19278874, -0.7244521, 0.02016385, 0.0421356, 0.15207767, 0
174, 1676145310, 0.07657631, -0.65749365, -0.19334687, -0.7241945, 0.009031767, -0.02848262, 0.14127636, 0
175, 1676161977, 0.07655616, -0.65734315, -0.19411483, -0.7241278, 0.040862314, -0.100467205, 0.0806942, 0
177, 1676195311, 0.07648976, -0.65636045, -0.19576848, -0.72458106, 0.0680403, -0.12758078, -0.056807518, 0
181, 1676261979, 0.0762573, -0.6535371, -0.19843447, -0.72643, 0.105670236, -0.16279161, -0.029260635, 0
184, 1676311980, 0.076188065, -0.6519387, -0.19936398, -0.7276181, 0.13480352, -0.12291208, -0.26839542, 0
185, 1676328647, 0.076390035, -0.6515768, -0.19939506, -0.72791237, 0.0010459918, -0.046537466, -0.2087326, 0
189, 1676395315, 0.0774125, -0.6509486, -0.19869272, -0.72855836, -0.013219115, 0.06156494, -0.030220032, 0
193, 1676461983, 0.072720386, -0.6454407, -0.18644902, -0.73712784, 10.378601, 1.5802616, 7.2485256, 0
194, 1676478650, 0.07408212, -0.6648429, -0.19199857, -0.7180774, -14.441035, -1.945359, -10.645052, 0
197, 1676528651, 0.06888424, -0.65948355, -0.19345608, -0.7231278, -0.23544218, -0.16939889, 0.60013485, 0
198, 1676545318, 0.06761521, -0.65960777, -0.19213279, -0.72348696, -0.87655956, -0.48964614, 1.1949425, 0
200, 1676578652, 0.06906855, -0.6599958, -0.1904727, -0.72343487, 0.15005775, 0.06712713, -0.4218521, 0
201, 1676595319, 0.07104668, -0.66022813, -0.19020766, -0.72310096, 0.053721115, 0.53268135, 0.3378544, 0
205, 1676661987, 0.076541245, -0.660032, -0.19224676, -0.7221794, -0.25379327, 0.15041302, -0.24015808, 0
209, 1676728655, 0.07778141, -0.65577865, -0.1950386, -0.72516686, 0.2798436, -0.22171265, -0.0014829636, 0
211, 1676761989, 0.07782054, -0.65555894, -0.19585662, -0.7251408, 0.16107686, -0.12978011, -0.055936813, 0
212, 1676778656, 0.07776217, -0.655691, -0.195806, -0.7250412, 0.1489162, -0.25567764, -0.06399822, 0
213, 1676795323, 0.07747704, -0.6562132, -0.195434, -0.7246998, 0.24064805, -0.2901892, -0.123680115, 0
215, 1676828657, 0.076028824, -0.6586532, -0.19316879, -0.7232457, 0.19559203, -0.20726755, -0.13678741, 0
216, 1676845324, 0.074774526, -0.6601585, -0.19122906, -0.7225189, 0.14430307, -0.15967152, 0.036309242, 0
217, 1676861991, 0.073233336, -0.6618821, -0.18895808, -0.721697, 0.19215544, -0.11621975, 0.18402576, 0
219, 1676895325, 0.070322156, -0.6651112, -0.18491694, -0.7200628, -0.16303179, -0.011030979, -0.14160633, 0
220, 1676911992, 0.069261715, -0.665642, -0.18339081, -0.7200653, -0.106348306, -8.149841E-4, -0.21895123, 0
223, 1676961993, 0.06794791, -0.666872, -0.17937298, -0.72006446, -0.02038139, 0.015810343, 0.21800137, 0
224, 1676978660, 0.06754213, -0.6674301, -0.17810373, -0.71990067, 0.042249598, -0.10437189, 0.24725151, 0
225, 1676995327, 0.066746466, -0.66814315, -0.17704207, -0.71957505, 0.058691107, -0.16283768, 0.20851421, 0
227, 1677028661, 0.0646246, -0.66943055, -0.1754954, -0.718951, 0.09202394, -0.05630917, -0.13137531, 0
228, 1677045328, 0.06342651, -0.6698494, -0.17498632, -0.71879154, 0.025080955, -0.025736762, -0.08108616, 0
229, 1677061995, 0.062327176, -0.66979015, -0.17466058, -0.71902215, -0.2755707, -0.07043498, -0.057953835, 0
231, 1677095329, 0.060770195, -0.668518, -0.17428145, -0.7204302, -0.14917386, -0.13198335, -0.0131073, 0
232, 1677111996, 0.06034472, -0.6678626, -0.1741802, -0.7210977, -0.12484028, -0.11831566, -0.03690338, 0
234, 1677145330, 0.059953846, -0.66651994, -0.17422348, -0.72236097, 0.017817056, -0.0227532, -0.030995369, 0
235, 1677161997, 0.060016315, -0.66606736, -0.17442238, -0.7227253, 0.064186014, 0.0018156237, -0.031392097, 0
238, 1677211998, 0.060996085, -0.6652515, -0.1752104, -0.7232041, -0.09433428, 0.008314403, -0.063489914, 0
240, 1677245332, 0.06214818, -0.66486496, -0.17584652, -0.72330695, -0.1173799, 0.06524586, -3.1471252E-5, 0
243, 1677295333, 0.063119896, -0.6656882, -0.17644635, -0.7223189, -0.02435029, 0.059236724, 0.04934883, 0
244, 1677312000, 0.06318761, -0.6661553, -0.17647658, -0.7218749, -0.0778288, 0.0809102, -0.10263729, 0
246, 1677345334, 0.06329735, -0.6663506, -0.17656638, -0.72166276, -0.07886065, 0.0320416, -0.06901932, 0
247, 1677362001, 0.06354277, -0.6662279, -0.17668423, -0.7217258, -0.13725454, 0.1293254, 0.006550789, 0
248, 1677378668, 0.06388744, -0.6660699, -0.17681737, -0.7218084, -0.15333712, 0.060379844, 0.018432617, 0
250, 1677412002, 0.0647888, -0.6657225, -0.17741638, -0.7219016, -0.10122427, 0.15823711, 0.015644073, 0
251, 1677428669, 0.06522923, -0.66579247, -0.17785558, -0.72168934, -0.011852944, 0.12730184, 0.053779602, 0
252, 1677445336, 0.065757036, -0.6658353, -0.1785546, -0.7214294, -0.08941981, 0.114907786, 0.0357275, 0
254, 1677478670, 0.06734915, -0.66532254, -0.18046857, -0.7212793, -0.056147303, -0.026388945, -0.03415203, 0
255, 1677495337, 0.06832361, -0.6647832, -0.18149121, -0.7214284, -0.045420866, -0.04092775, 0.06367874, 0
256, 1677512004, 0.069235995, -0.6642251, -0.18254247, -0.72159004, -0.02290975, -0.049149144, 0.10504913, 0
258, 1677545338, 0.07062541, -0.6631796, -0.1846959, -0.7218692, 0.10405186, -0.073001705, 0.09293175, 0
259, 1677562005, 0.07110588, -0.6628714, -0.18580593, -0.7218202, 0.07057074, -0.13299184, 0.05525589, 0
261, 1677595339, 0.0715942, -0.66247696, -0.18754813, -0.7216833, -0.043276127, -0.18761274, -0.062913895, 0
262, 1677612006, 0.0717645, -0.6621694, -0.18824911, -0.7217661, 0.03356231, -0.1709816, -0.029233932, 0
265, 1677662007, 0.07184844, -0.662168, -0.18982805, -0.72134554, 0.13070175, -0.03574165, -0.06808281, 0
266, 1677678674, 0.0716967, -0.66264904, -0.19000694, -0.72087157, 0.032527585, -0.14840926, -0.09483433, 0
269, 1677728675, 0.071445435, -0.66318244, -0.18986525, -0.72044307, -0.16521569, 0.040419273, 0.0136966705, 0
270, 1677745342, 0.07137398, -0.6632246, -0.18983303, -0.72042, -0.12443666, 0.018301632, -0.022647858, 0
271, 1677762009, 0.07126728, -0.6631928, -0.18970954, -0.7204923, -0.09984245, -0.021174919, -0.04685116, 0
273, 1677795343, 0.07154666, -0.662863, -0.18966675, -0.7207793, -0.116489895, -0.028258352, 0.0021390915, 0
274, 1677812010, 0.07172291, -0.6628991, -0.18969443, -0.7207214, -0.20120585, 0.06491484, 0.001502037, 0
275, 1677828677, 0.07186934, -0.66290724, -0.18978107, -0.72067654, -0.24152917, 0.046521455, 0.04824066, 0
279, 1677895345, 0.072234854, -0.6625001, -0.19110985, -0.72066325, -0.20495264, -0.056333758, -0.3786316, 0
281, 1677928679, 0.05941017, -0.6702747, -0.18093686, -0.71726334, 0.5208061, -3.147107, -11.665303, 0
282, 1677945346, 0.058248874, -0.6624076, -0.1806283, -0.7247064, -1.6831056, 0.49672106, -0.3131361, 0
283, 1677962013, 0.062361546, -0.66162115, -0.18441167, -0.7241294, 0.5519156, 1.400833, 2.8504047, 0
288, 1678045348, 0.063096754, -0.65933657, -0.18243238, -0.72664654, 0.15642965, -0.17061138, 0.03293228, 0
289, 1678062015, 0.06563997, -0.6577784, -0.18386656, -0.7274715, 0.05030259, 0.44291526, 0.0719614, 0
290, 1678078682, 0.0677111, -0.65637964, -0.18538861, -0.7281584, 0.06680408, 0.6196936, -0.07700825, 0
292, 1678112016, 0.069501534, -0.6549102, -0.1874197, -0.7287926, -0.09938221, 0.35634765, 0.40855312, 0
293, 1678128683, 0.07012455, -0.6545877, -0.18900245, -0.728614, 0.1969196, -0.37234282, 0.13772488, 0
294, 1678145350, 0.07121438, -0.65435785, -0.19051804, -0.7283199, 0.5129412, -0.6439398, -0.25304604, 0
297, 1678195351, 0.07409111, -0.6534832, -0.19273823, -0.7282342, 0.037925314, 0.16347905, 0.02360344, 0
298, 1678212018, 0.07455292, -0.6533529, -0.19299105, -0.72823703, -0.12064746, 0.22558467, 0.06865311, 0
300, 1678245352, 0.074917674, -0.6535809, -0.192578, -0.7281041, 0.54342216, -0.25970513, -0.41713524, 0
301, 1678262019, 0.07508685, -0.65399945, -0.1928183, -0.72764724, 0.25542358, -0.07801239, -0.20401382, 0
304, 1678312020, 0.073661566, -0.6542616, -0.19283247, -0.72755337, -0.04179382, -0.08878228, 0.15740967, 0
305, 1678328687, 0.07310337, -0.6541578, -0.19258733, -0.72776794, -0.052023653, -0.1750484, 0.15282536, 0
308, 1678378688, 0.07070616, -0.65478605, -0.19154534, -0.7277149, -0.07392919, -0.033002444, -0.06549835, 0
309, 1678395355, 0.069837935, -0.65457284, -0.1913253, -0.7280483, 0.023651319, -0.13212043, -0.08837414, 0
310, 1678412022, 0.06905327, -0.6546336, -0.19115934, -0.72811216, 0.13047035, -0.043759365, 0.017429352, 0
312, 1678445356, 0.067426205, -0.6548506, -0.19105722, -0.7280962, 0.0560967, 0.0029573278, -0.09925079, 0
313, 1678462023, 0.06645116, -0.6549992, -0.19095272, -0.7280796, 0.082000636, -0.07661115, -0.13111496, 0
315, 1678495357, 0.06471111, -0.65517926, -0.19054003, -0.7281825, -0.010913491, -0.07028501, -0.15715313, 0
316, 1678512024, 0.06386327, -0.6552, -0.19033341, -0.7282926, 0.053378794, -0.0606968, -0.12836647, 0
317, 1678528691, 0.06304236, -0.6551913, -0.19013944, -0.72842264, -0.0028727353, -0.037646804, -0.044693947, 0
320, 1678578692, 0.060949896, -0.6553095, -0.1890664, -0.7287736, 0.037656784, -0.03933047, 0.035435677, 0
321, 1678595359, 0.06029261, -0.6554466, -0.18865196, -0.7288124, -0.058958333, 0.0077851936, 0.020746231, 0
324, 1678645360, 0.058669813, -0.65563637, -0.18780237, -0.72899365, -0.091427766, 0.0682044, 0.080355644, 0
325, 1678662027, 0.05829037, -0.65577406, -0.18763122, -0.72894424, -0.017428856, -0.015112787, 0.02610588, 0
327, 1678695361, 0.057743054, -0.6561758, -0.18740657, -0.7286841, -0.09147568, -0.026632603, -0.04621792, 0
328, 1678712028, 0.057624876, -0.6563253, -0.1874162, -0.72855633, -0.048781548, -0.059966806, -0.030796051, 0
329, 1678728695, 0.057638712, -0.6565109, -0.18754312, -0.7283552, 0.021436943, 0.04368885, -0.0034770966, 0
331, 1678762029, 0.057870872, -0.6566476, -0.18806817, -0.728078, -0.05008124, -0.038257565, 0.06900883, 0
332, 1678778696, 0.057888225, -0.6565615, -0.18835324, -0.72808063, -0.076442264, -0.07409947, 0.07846165, 0
333, 1678795363, 0.057845294, -0.6565258, -0.18862887, -0.72804487, -0.038136613, -0.01765121, 0.043121338, 0
335, 1678828697, 0.05772835, -0.65630823, -0.18900347, -0.72815347, 0.05843427, -0.08117377, -0.036959648, 0
336, 1678845364, 0.057720385, -0.6560701, -0.18916021, -0.7283278, 0.08321083, -0.054108225, -0.11186504, 0
338, 1678878698, 0.057296187, -0.65549815, -0.19052556, -0.7285206, 0.06600708, 0.0034659596, -0.08362293, 0
339, 1678895365, 0.057119068, -0.6552551, -0.19136028, -0.7285342, 0.002023791, 0.057340488, -0.096087456, 0
340, 1678912032, 0.05714392, -0.6549164, -0.19210666, -0.7286403, 0.055123203, 0.07922558, -0.06135845, 0
342, 1678945366, 0.05737313, -0.6543818, -0.19342606, -0.7287538, 0.2603006, 0.07803506, 0.16325474, 0
343, 1678962033, 0.057419773, -0.6544472, -0.19402714, -0.72853136, 0.33083394, 0.04199736, 0.16785145, 0
346, 1679012034, 0.056747064, -0.65470165, -0.1951995, -0.7280423, 0.36065584, -0.13626596, -0.054156303, 0
348, 1679045368, 0.055412397, -0.65556026, -0.1953545, -0.72733045, 0.24089459, 2.6551244E-4, 0.0012073517, 0
351, 1679095369, 0.05267533, -0.6581683, -0.19394276, -0.7255538, 0.14805011, -0.19800642, 0.05612755, 0
352, 1679112036, 0.051832348, -0.65927565, -0.19294661, -0.72487473, 0.061967004, -0.11132613, -0.065107346, 0
354, 1679145370, 0.050196234, -0.6612582, -0.19066332, -0.72378725, -0.15767597, 0.07068088, -0.19603443, 0
355, 1679162037, 0.049312904, -0.6619442, -0.18950425, -0.7235254, -0.2547133, 0.08167207, -0.10801697, 0
356, 1679178704, 0.048360914, -0.662422, -0.18840556, -0.72343934, -0.31161794, 0.05187492, 0.13330936, 0
358, 1679212038, 0.04649493, -0.66276205, -0.18657327, -0.72372484, -0.25127652, 0.13718157, 0.24934578, 0
359, 1679228705, 0.04552212, -0.6630142, -0.18570872, -0.7237781, -0.12495491, 0.165714, 0.22209358, 0
360, 1679245372, 0.044708554, -0.66341674, -0.18468133, -0.723723, 0.051725395, 0.06995596, 0.09153175, 0
362, 1679278706, 0.04290122, -0.66329813, -0.18392284, -0.724134, -0.2567918, 0.13955894, 0.067837715, 0
363, 1679295373, 0.042228647, -0.6626615, -0.18434566, -0.7246487, -0.26409048, 0.28422752, 0.1434164, 0
366, 1679345374, 0.042161673, -0.65777427, -0.18899684, -0.7278999, -0.36820215, 0.12539041, -0.11763859, 0
367, 1679362041, 0.043197475, -0.6543092, -0.19281821, -0.729957, -0.41199854, 0.39854166, -0.03054905, 0
369, 1679395375, 0.04805874, -0.64607996, -0.20225267, -0.7344166, -0.11163639, 0.25270805, 0.17111874, 0
370, 1679412042, 0.051449396, -0.6422551, -0.20696644, -0.736226, 0.13631247, -0.34562618, 0.14760113, 0
371, 1679428709, 0.05504092, -0.63857955, -0.21142513, -0.7378948, 0.067529894, -0.6180202, 0.1543293, 0
373, 1679462043, 0.061402973, -0.63139075, -0.21981756, -0.7411197, -0.039016504, -0.47205076, 0.21109772, 0
374, 1679478710, 0.064172514, -0.62804705, -0.22357987, -0.7425992, -0.20223624, -0.327215, 0.009501457, 0
375, 1679495377, 0.066086724, -0.6394731, -0.22917132, -0.7308829, -15.631457, 6.2676573, -1.7910547, 0
377, 1679528711, 0.05488, -0.64773697, -0.21218243, -0.7296618, -3.0048053, 7.820627, -13.26248, 0
378, 1679545378, 0.053290583, -0.6467863, -0.21427506, -0.7300113, -0.8319758, -4.13201, 4.890151, 0
383, 1679628713, 0.067525685, -0.63640356, -0.21649596, -0.73726714, 0.17900774, -0.32715794, -0.19548893, 0
385, 1679662047, 0.070974015, -0.63331485, -0.22138663, -0.73815006, 0.08271417, 1.4025663, -0.08188057, 0
386, 1679678714, 0.06891183, -0.6333255, -0.22484918, -0.73728925, -0.05709063, 0.51686275, -0.71101093, 0
387, 1679695381, 0.06592609, -0.6321854, -0.2276372, -0.737685, -0.10367637, -0.4269792, -0.1573267, 0
390, 1679745382, 0.06405002, -0.6306274, -0.22985506, -0.73849577, 0.20550609, -0.022627907, 0.11712265, 0
391, 1679762049, 0.063638635, -0.6294232, -0.23106742, -0.73918, 0.20400865, 0.041062698, 0.07104397, 0
393, 1679795383, 0.063279904, -0.62694055, -0.232973, -0.74072087, 0.2266033, -0.1271176, 0.02076912, 0
394, 1679812050, 0.06303718, -0.6257013, -0.23359637, -0.7415927, 0.27660516, -0.1407966, -0.04173565, 0
396, 1679845384, 0.06252822, -0.6232345, -0.23439226, -0.74345934, 0.040841494, -0.045678545, 0.0777359, 0
397, 1679862051, 0.062290248, -0.6217228, -0.23470797, -0.7446445, -0.13200364, -0.07403509, 0.04873562, 0
401, 1679928719, 0.05920369, -0.6147888, -0.23597006, -0.75023377, -0.16642947, 0.28389826, -0.03999138, 0
402, 1679945386, 0.05783443, -0.61275834, -0.23670419, -0.7517689, -0.19516885, 0.2861205, -0.10512924, 0
404, 1679978720, 0.055512853, -0.6083052, -0.23802382, -0.75513583, -0.19026908, 0.1642144, -0.02594471, 0
405, 1679995387, 0.054735836, -0.60588044, -0.23884474, -0.75688094, -0.1237885, 0.084070876, -0.09350872, 0
406, 1680012054, 0.05417895, -0.6033816, -0.24003142, -0.75853986, -0.06438909, 0.050013788, -0.20265579, 0
408, 1680045388, 0.054256123, -0.5984868, -0.24215151, -0.7617316, 0.050016806, 0.0868359, -0.1920557, 0
409, 1680062055, 0.05441051, -0.59572184, -0.24317722, -0.76355904, 0.006945061, 0.04234847, -0.17928314, 0
410, 1680078722, 0.05460248, -0.5926207, -0.24470109, -0.7654694, 0.2015494, 0.087714076, -0.0036115646, 0
414, 1680145390, 0.058050618, -0.58122325, -0.2432241, -0.7743735, 0.39993507, -0.59424305, -0.40604877, 0
417, 1680195391, 0.06408105, -0.5664672, -0.23527941, -0.78718156, -0.8599759, -0.29735443, -0.2169962, 0
418, 1680212058, 0.06721437, -0.56052756, -0.23324905, -0.7917628, -1.114966, -0.2967778, 0.03042984, 0
423, 1680295393, 0.07727849, -0.5260269, -0.22189432, -0.81736726, -1.5427809, -0.76098824, -0.6158371, 0
424, 1680312060, 0.07729292, -0.5176219, -0.21950701, -0.8233545, -2.5082836, -1.1980864, 0.43301296, 0
425, 1680328727, 0.07659955, -0.50819135, -0.21829323, -0.8295933, -2.1579335, -1.2019025, -0.7704773, 0
427, 1680362061, 0.07487955, -0.4924395, -0.21601762, -0.8397829, -2.0742745, -0.7098422, -0.5610962, 0
428, 1680378728, 0.072451346, -0.48536405, -0.21356013, -0.84472895, -1.9310346, -0.83274406, -0.8546171, 0
429, 1680395395, 0.06970774, -0.4790901, -0.21041614, -0.8493181, -1.7983818, -0.9500319, -1.2094936, 0
431, 1680428729, 0.06262573, -0.4683554, -0.20512037, -0.8571171, -2.4868755, -1.0455418, -1.4162502, 0
432, 1680445396, 0.059910867, -0.46344185, -0.20299804, -0.86048055, -2.03255, -0.33989912, -1.942658, 0
436, 1680512064, 0.052048884, -0.4499639, -0.19192372, -0.87062687, -0.9872195, -0.6078008, -3.379139, 0
437, 1680528731, 0.051483944, -0.44809005, -0.187706, -0.87254435, -0.8141038, -0.007501318, -3.9083595, 0
439, 1680562065, 0.04919923, -0.4464566, -0.17086792, -0.8769622, -0.29903316, -0.718946, -1.775672, 0
440, 1680578732, 0.048303645, -0.4467985, -0.15903914, -0.87906027, -0.9085006, 0.38161433, -2.584496, 0
441, 1680595399, 0.04726456, -0.4475281, -0.14957814, -0.8804055, -1.4524289, 0.9683473, -3.4356823, 0
443, 1680628733, 0.044708494, -0.45069855, -0.14587404, -0.87954265, -2.514663, 1.0638163, -4.107292, 0
444, 1680645400, 0.04393757, -0.45427418, -0.14541206, -0.8778169, -4.012046, -0.8203768, -2.336186, 0
451, 1680762069, 0.027927253, -0.458731, -0.14768514, -0.87577254, -9.22127, 0.58692366, 13.225325, 0
452, 1680778736, 0.03216435, -0.45524362, -0.15069945, -0.8769327, -8.039173, -0.58266884, 12.987062, 0
454, 1680812070, 0.038325414, -0.44897738, -0.15277863, -0.87955207, -5.7196965, -2.1965992, 9.507305, 0
458, 1680878738, 0.0475313, -0.43335983, -0.15813312, -0.88596654, 2.2659085, 2.4571376, -0.18874931, 0
462, 1680945406, 0.05725834, -0.42902333, -0.13690475, -0.89102215, 0.78636974, 0.47954136, -1.3211708, 0
463, 1680962073, 0.060877413, -0.4301447, -0.13182412, -0.89100766, 1.0718126, 0.21006607, -2.4234567, 0
464, 1680978740, 0.06453371, -0.43193027, -0.12766653, -0.89049184, 0.98620355, 0.5985411, -2.9393678, 0
466, 1681012074, 0.071977, -0.43733823, -0.12138709, -0.88815683, 0.67806536, 0.34627545, -3.3820157, 0
467, 1681028741, 0.07658424, -0.44030887, -0.11963276, -0.8865403, 0.49997044, 0.6404832, -3.4001207, 0
468, 1681045408, 0.08126386, -0.4435326, -0.11830263, -0.8846933, 0.95488447, 0.8147837, -3.2520986, 0
470, 1681078742, 0.08810032, -0.45292428, -0.11535932, -0.87965494, 1.0305108, 0.8360641, -3.2701392, 0
471, 1681095409, 0.089448124, -0.45851365, -0.11261387, -0.87697494, 0.96849346, 0.3883601, -3.0844617, 0
472, 1681112076, 0.09075062, -0.463914, -0.10987028, -0.8743451, 1.2508159, -0.008451318, -2.7695765, 0
475, 1681162077, 0.095597595, -0.47940123, -0.10349787, -0.866214, 1.4403034, 0.07734744, -2.577623, 0
477, 1681195411, 0.09390749, -0.48923355, -0.09880044, -0.8614366, 1.1524147, 0.23568782, -1.9830933, 0
478, 1681212078, 0.09203434, -0.4936061, -0.09789402, -0.8592451, 1.4709728, 0.34290722, -1.8861675, 0
479, 1681228745, 0.08911733, -0.49758568, -0.09769839, -0.85727733, 1.0061861, 0.53669894, -1.1584816, 0
481, 1681262079, 0.08328108, -0.5066404, -0.094968595, -0.852856, 0.8024268, -0.25436097, -0.4975109, 0
482, 1681278746, 0.081664115, -0.5119728, -0.09171592, -0.85017973, 0.6015488, 0.44137454, -0.90966415, 0
483, 1681295413, 0.07907342, -0.5170108, -0.0900072, -0.84755445, 0.4209165, 0.70085996, -0.23721409, 0
485, 1681328747, 0.07476658, -0.52839965, -0.09089112, -0.8408002, 0.43626496, 1.1336482, -0.37937832, 0
486, 1681345414, 0.07290819, -0.53509736, -0.08991256, -0.8368236, 0.107972525, 0.8000469, -0.26380825, 0
487, 1681362081, 0.071086556, -0.54131997, -0.08904082, -0.83306277, -0.16353156, 0.48427054, -0.003651619, 0
490, 1681412082, 0.062372424, -0.55313903, -0.080672085, -0.8268261, 1.097633, 0.56107575, 0.20478344, 0
491, 1681428749, 0.059148148, -0.5552304, -0.076761484, -0.8260333, 0.71517235, 0.9665604, 0.015069008, 0
493, 1681462083, 0.054863065, -0.55997133, -0.0725776, -0.82350314, -0.42989329, 0.45785266, -0.28784084, 0
495, 1681495417, 0.052063, -0.56235236, -0.07121796, -0.82218003, 0.17627266, 0.97798854, -0.82159996, 0
497, 1681528751, 0.049475055, -0.5635119, -0.07305825, -0.82138395, 0.18023609, 0.60340005, -1.6246881, 0
499, 1681562085, 0.044816934, -0.5627685, -0.072689675, -0.8221933, 0.4158327, 0.15719377, -1.967155, 0
501, 1681595419, 0.03609355, -0.5588241, -0.07057923, -0.82549024, 0.6874631, 0.438481, -2.6544943, 0
502, 1681612086, 0.030119915, -0.5554811, -0.06740432, -0.8282468, 0.6033454, -0.10221488, -3.3337636, 0
504, 1681645420, 0.017042888, -0.54623187, -0.057889655, -0.835459, 0.003348322, 0.54774296, -5.237824, 0
506, 1681678754, 0.0076791905, -0.5332025, -0.051743537, -0.84437037, -0.65058255, 1.5805824, -7.2075553, 0
510, 1681745422, -0.016686898, -0.50425303, -0.008977001, -0.8633497, 2.0257227, -0.84088236, -2.86906, 0
512, 1681778756, -0.035343822, -0.4925051, 0.004631024, -0.86958075, -8.15758, -1.033398, 3.6175108, 0
513, 1681795423, -0.040234465, -0.4874839, -0.0021054726, -0.87220347, -11.877527, 2.7246215, 8.697445, 0
516, 1681845424, -0.042160273, -0.47193643, -0.003637066, -0.8806181, -11.071846, 1.5069096, 14.926786, 0
517, 1681862091, -0.03715651, -0.46619523, -0.012520419, -0.8838141, -10.253818, 0.43499985, 13.239401, 0
521, 1681928759, -0.015611634, -0.4443037, -0.054512598, -0.8940816, -1.6119044, -5.464581, 1.7354126, 0
522, 1681945426, -0.0063578524, -0.43728545, -0.06895707, -0.8966542, 3.2188423, -1.8793899, 0.04713154, 0
524, 1681978760, 0.0049602278, -0.42956117, -0.07472201, -0.89992887, 1.1843153, -1.2905192, 1.8759546, 0
526, 1682012094, 0.0147449635, -0.42475608, -0.080614865, -0.9015924, 1.05646, 0.7849523, 1.0561581, 0
532, 1682112096, 0.05387739, -0.43580008, -0.08647251, -0.89425987, 0.36963534, -0.7245447, -1.996304, 0
533, 1682128763, 0.05995144, -0.439514, -0.0871744, -0.89198464, 0.59313476, -1.1183457, -1.91537, 0
535, 1682162097, 0.07247436, -0.44793904, -0.0897755, -0.8865896, 0.6969269, -0.38431254, -2.065505, 0
539, 1682228765, 0.08980557, -0.46914336, -0.09148305, -0.87376946, 1.2714982, 0.3720164, -0.8457937, 0
540, 1682245432, 0.092995025, -0.47492197, -0.09067437, -0.8703917, 1.1737967, 0.044792745, -0.87961006, 0
541, 1682262099, 0.094643444, -0.48070446, -0.09051565, -0.8670497, 1.3451264, 0.07354346, -1.0935135, 0
543, 1682295433, 0.09521535, -0.4919419, -0.08913599, -0.8608046, 1.0172601, -0.6817996, -1.6301146, 0
544, 1682312100, 0.09440373, -0.49718657, -0.08749668, -0.8580445, 1.0697954, -0.629627, -1.5643101, 0
545, 1682328767, 0.09415333, -0.5024899, -0.088095866, -0.85491574, 0.7639203, -0.51875603, -1.8140945, 0
547, 1682362101, 0.09583305, -0.5126613, -0.09306971, -0.8481363, -0.02655697, 0.3567483, -1.9013405, 0
549, 1682395435, 0.09521562, -0.5229455, -0.09287121, -0.8419262, 0.3505411, 1.0074298, -1.2163877, 0
551, 1682428769, 0.08974166, -0.5343792, -0.08887217, -0.835757, 0.33655155, 0.050291505, -1.4616632, 0
552, 1682445436, 0.088942945, -0.5400987, -0.09029386, -0.83200496, -0.14248656, 0.23741373, -1.4284382, 0
553, 1682462103, 0.088390425, -0.5457653, -0.09131555, -0.828246, -0.16726415, 0.6423147, -1.2633753, 0
556, 1682512104, 0.085690506, -0.56008345, -0.09114611, -0.81893754, 0.1571889, 0.6567051, 0.12497997, 0
558, 1682545438, 0.08308771, -0.56782115, -0.091428384, -0.8138299, 0.4991236, 0.22500652, 0.71767044, 0
559, 1682562105, 0.08236113, -0.5710001, -0.0926683, -0.811536, 0.66411173, 0.9199203, 0.8432436, 0
560, 1682578772, 0.0807889, -0.5739552, -0.09340502, -0.80952257, 1.0055509, 0.7123627, 0.3069725, 0
562, 1682612106, 0.07982795, -0.5798898, -0.09265201, -0.805465, 0.13894817, -0.5012131, 1.0637512, 0
563, 1682628773, 0.080339916, -0.58167964, -0.09288375, -0.8040955, 0.1339667, 0.19426508, -0.3092928, 0
566, 1682678774, 0.08224233, -0.5819433, -0.09654759, -0.80328053, 0.43649116, 0.63358873, -0.099648476, 0
567, 1682695441, 0.08292836, -0.58063614, -0.09930733, -0.8038191, 0.58451676, 0.4165849, 0.01940155, 0
568, 1682712108, 0.08323695, -0.5792315, -0.10139464, -0.8045398, 0.7528858, 0.23743357, -0.09418011, 0
570, 1682745442, 0.08264447, -0.5740491, -0.105284095, -0.807809, 0.95819926, 0.6340877, -0.4496994, 0
571, 1682762109, 0.08105306, -0.570799, -0.106002174, -0.81017596, 1.0868345, 0.40548906, -0.72064877, 0
574, 1682812110, 0.07332166, -0.5575655, -0.10684408, -0.8199584, 2.0795808, 0.26779127, -2.410882, 0
575, 1682828777, 0.07061684, -0.55224127, -0.10723508, -0.8237391, 2.1519394, -0.08257274, -3.6282353, 0
576, 1682845444, 0.066840425, -0.5471041, -0.10366, -0.8279292, 1.3003476, -0.24651666, -4.842516, 0
578, 1682878778, 0.05652468, -0.53462064, -0.08963977, -0.83842295, 0.58568645, 2.0099065, -6.3463693, 0
580, 1682912112, 0.05210972, -0.5180941, -0.086682275, -0.8493244, -0.48638633, 3.136861, -7.97499, 0
583, 1682962113, 0.05211962, -0.49082392, -0.095885485, -0.86439806, 1.9450281, 0.6412456, -5.376775, 0
585, 1682995447, 0.032088127, -0.47859702, -0.0739784, -0.8743255, -5.7885957, -5.096009, 4.8510466, 0
586, 1683012114, 0.025027484, -0.4726711, -0.07453105, -0.8777264, -9.608161, -3.3546107, 7.232752, 0
587, 1683028781, 0.019018315, -0.46579516, -0.08111763, -0.8809629, -11.582127, -1.1651611, 10.310181, 0
589, 1683062115, 0.010300413, -0.4506449, -0.09331995, -0.887754, -10.163734, 0.76350474, 12.269869, 0
590, 1683078782, 0.010052055, -0.4426689, -0.10732349, -0.89018387, -8.227759, 0.5312794, 11.338495, 0
591, 1683095449, 0.011546059, -0.43709573, -0.11681408, -0.8917235, -4.7734036, 0.8154509, 7.221569, 0
593, 1683128783, 0.012526292, -0.4309665, -0.12477707, -0.893613, -0.85163254, -5.4484153, 4.264764, 0
594, 1683145450, 0.018072365, -0.42630172, -0.12963119, -0.89506346, 3.1408787, -1.7786019, 4.028139, 0
597, 1683195451, 0.040069234, -0.41836798, -0.13358128, -0.8975084, -0.4324054, -0.49758872, 4.9223833, 0
598, 1683212118, 0.04354024, -0.4187683, -0.13038915, -0.89762956, 0.8505463, -1.6271554, 2.8627853, 0
599, 1683228785, 0.04771881, -0.41860038, -0.13100155, -0.8974061, 1.3442433, -1.4613289, 1.7675142, 0
601, 1683262119, 0.051835902, -0.42234775, -0.13319746, -0.89509577, 0.2111906, -0.856625, 1.3388319, 0
602, 1683278786, 0.05186691, -0.42621285, -0.13145886, -0.89351755, 1.0687757, -0.6320053, 0.73155785, 0
603, 1683295453, 0.051445164, -0.43033805, -0.1293339, -0.8918733, 0.6768233, -1.1573635, 0.81844044, 0
605, 1683328787, 0.050497152, -0.43857637, -0.12902743, -0.88795, 0.7244884, -0.44105095, 0.16121674, 0
606, 1683345454, 0.050580136, -0.44318524, -0.12954655, -0.8855782, 0.7940074, 6.132921E-4, -0.08365631, 0
607, 1683362121, 0.051300567, -0.4481845, -0.1295284, -0.8830197, 0.5636923, 0.11860624, -0.336998, 0
609, 1683395455, 0.052976582, -0.4596396, -0.12734199, -0.87733215, 0.721557, 0.895596, -0.43316936, 0
612, 1683445456, 0.056117587, -0.47943828, -0.11918948, -0.8676326, -0.25956595, 0.06640677, -2.034885, 0
614, 1683478790, 0.058306403, -0.4929989, -0.11624786, -0.8602566, 0.12302408, 0.71624047, -2.4103317, 0
616, 1683512124, 0.062189452, -0.5065489, -0.12058645, -0.8514707, -0.11044543, 1.0710895, -1.5896072, 0
618, 1683545458, 0.06150184, -0.5238401, -0.114219055, -0.8418823, -1.6272482, 0.28286448, -1.0752525, 0
620, 1683578792, 0.06701874, -0.5387446, -0.11336468, -0.83211416, -0.74647397, -0.0033734113, -1.8824587, 0
621, 1683595459, 0.07134071, -0.5451026, -0.11539375, -0.82732123, -0.4485137, 0.6940304, -1.6509123, 0
622, 1683612126, 0.074104756, -0.55180645, -0.115972534, -0.8225394, 0.6856487, 0.99980015, -2.578525, 0
624, 1683645460, 0.07340266, -0.5674978, -0.11245386, -0.8123515, 0.24876383, -0.1388775, -2.8027825, 0
625, 1683662127, 0.07313178, -0.5756271, -0.11169914, -0.8067412, 0.10171667, -0.014115821, -2.9996514, 0
626, 1683678794, 0.074308835, -0.58220947, -0.111668795, -0.80189955, 0.016811423, 0.420233, -2.0201645, 0
629, 1683728795, 0.07736039, -0.5962562, -0.11098064, -0.7913153, 1.191166, 0.37754345, -0.5505104, 0
630, 1683745462, 0.07828124, -0.60011864, -0.112950675, -0.7880194, 1.4653406, 0.1495636, -0.17306423, 0
632, 1683778796, 0.07748335, -0.60606915, -0.11859599, -0.7826967, 1.6398658, 0.6669517, 0.37411022, 0
633, 1683795463, 0.07783283, -0.6088906, -0.12211983, -0.77992535, 1.6277839, 0.7233052, 0.13270569, 0
634, 1683812130, 0.07886486, -0.61082804, -0.12505168, -0.7778394, 1.5353554, -0.18632953, 0.15930653, 0
636, 1683845464, 0.08015883, -0.6174952, -0.123627, -0.77265334, 1.3775839, 0.37667826, 0.8497925, 0
637, 1683862131, 0.08111223, -0.6202004, -0.12611905, -0.76997983, 0.81339884, 0.86376673, 1.3446379, 0
639, 1683895465, 0.08215343, -0.62495756, -0.12033354, -0.7669427, 1.4049041, -1.0171392, 1.6045542, 0
640, 1683912132, 0.08192678, -0.6293611, -0.11421696, -0.76429707, 0.92944276, -0.6467772, 0.2827835, 0
641, 1683928799, 0.081902586, -0.63124186, -0.11147172, -0.76315296, 0.37950698, 0.27916655, -0.7647791, 0
644, 1683978800, 0.079728104, -0.6316737, -0.10345766, -0.76415366, 0.58274364, 0.39341095, 0.27980232, 0
645, 1683995467, 0.07772431, -0.6311924, -0.10154403, -0.765014, 0.5281428, 0.030326657, 0.10606003, 0
647, 1684028801, 0.07255098, -0.6262546, -0.099016294, -0.769896, 1.1191, -0.25527945, -0.9036741, 0
648, 1684045468, 0.06854802, -0.6214202, -0.09847951, -0.7742368, 1.2772154, -0.005350956, -0.8251276, 0
649, 1684062135, 0.067207165, -0.6142292, -0.101184264, -0.7797245, 0.4489752, 0.4887669, -0.51078606, 0
651, 1684095469, 0.06412291, -0.6014824, -0.1029448, -0.78962797, 1.9293368, -0.46488217, -0.7959099, 0
652, 1684112136, 0.06324453, -0.5947382, -0.10308968, -0.79477155, 1.5076143, 0.065863006, -1.9117589, 0
653, 1684128803, 0.062266126, -0.5873645, -0.102498546, -0.80038893, 1.6820074, 0.52572256, -3.5308723, 0
655, 1684162137, 0.058326658, -0.5709844, -0.09330961, -0.81355435, 1.8046246, 1.9799331, -5.5251656, 0
656, 1684178804, 0.05626464, -0.5618227, -0.08853122, -0.82058185, 2.0206447, 2.0999286, -5.774985, 0
659, 1684228805, 0.057118822, -0.53375113, -0.07502684, -0.8403696, 0.83739036, 3.7875516, -8.195864, 0
660, 1684245472, 0.060370702, -0.5255041, -0.0751946, -0.8453101, -1.119971, 3.503933, -9.038566, 0
663, 1684295473, 0.0719084, -0.49543405, -0.09202241, -0.8607606, -3.7271361, 0.32299042, -1.0767345, 0
664, 1684312140, 0.06900598, -0.4869112, -0.09446469, -0.86558354, -8.3265505, -2.812316, 4.102042, 0
666, 1684345474, 0.063347295, -0.46998033, -0.098111235, -0.87491846, -8.155466, -3.3854647, 10.538906, 0
670, 1684412142, 0.05851291, -0.4424544, -0.1399795, -0.88386565, -1.000703, -5.7751207, 5.1582785, 0
671, 1684428809, 0.06173349, -0.43959776, -0.1432595, -0.88454634, 3.541083, -4.423113, 4.4486933, 0
672, 1684445476, 0.06532016, -0.4368211, -0.14488727, -0.8853988, 4.974261, -1.95642, 5.9029446, 0
675, 1684495477, 0.07712146, -0.43095767, -0.14249441, -0.8877081, -0.51095176, -0.679004, 5.739711, 0
678, 1684545478, 0.07637364, -0.43567485, -0.1314569, -0.88717324, 1.2055913, -1.8825289, 1.1712723, 0
680, 1684578812, 0.069904074, -0.44038713, -0.12825146, -0.88584805, -0.1014522, -1.0959014, 2.9243279, 0
682, 1684612146, 0.064418264, -0.4453861, -0.13010225, -0.88349175, 0.66014874, 0.09038754, 1.7159071, 0
683, 1684628813, 0.06193545, -0.44892246, -0.12914115, -0.88201916, 0.55479777, 0.103658855, 1.035676, 0
684, 1684645480, 0.059777744, -0.4527746, -0.12743787, -0.88044536, 0.23868786, -0.036404073, 0.8702631, 0
686, 1684678814, 0.054100193, -0.46168277, -0.12271483, -0.87685, -0.21393688, -0.3080135, 0.40902615, 0
687, 1684695481, 0.04961845, -0.46686676, -0.11933112, -0.874835, -0.6029625, -0.55684155, -0.042990685, 0
688, 1684712148, 0.044286467, -0.47196805, -0.11741619, -0.8726402, -0.4480593, -0.19697542, -0.23385239, 0
690, 1684745482, 0.033061825, -0.48466322, -0.11488801, -0.86649394, -0.42756528, 0.31026655, -1.048851, 0
694, 1684812150, 0.02516178, -0.5172602, -0.11660396, -0.8474757, -1.1181812, 1.9240516, -2.5606718, 0
697, 1684862151, 0.03254022, -0.5383396, -0.11544739, -0.83414996, -0.27624926, 1.1328806, -2.55685, 0
698, 1684878818, 0.030511186, -0.54269236, -0.115573876, -0.8313839, -0.2572577, 0.7832616, -2.522594, 0
699, 1684895485, 0.03204415, -0.54623604, -0.11619702, -0.8289151, 0.09023607, 0.19005845, -1.559288, 0
701, 1684928819, 0.0400938, -0.55205655, -0.11668509, -0.8246292, 0.54637504, 0.96433824, -2.9580412, 0
702, 1684945486, 0.042029608, -0.5559614, -0.116496876, -0.8219317, 0.43821895, 0.94150585, -2.838678, 0
703, 1684962153, 0.044287812, -0.55942434, -0.113383025, -0.8198962, 1.1334198, 0.9286073, -2.1020656, 0
705, 1684995487, 0.046460405, -0.56647074, -0.10395196, -0.8161794, 2.1033294, 1.1599029, -1.9384985, 0
707, 1685028821, 0.04736424, -0.5726016, -0.097853154, -0.8125954, 2.3211462, 0.281131, -1.6532793, 0
709, 1685062155, 0.052213605, -0.5824705, -0.096186236, -0.80545175, 1.917917, 0.7210574, -1.0149775, 0
710, 1685078822, 0.054838635, -0.5865249, -0.09590924, -0.80236226, 1.7587316, 0.5301932, 0.52904797, 0
715, 1685162157, 0.06809277, -0.60295147, -0.093653105, -0.789332, 0.14345382, 0.0975447, 0.8712759, 0
721, 1685262159, 0.078689754, -0.61039066, -0.08970827, -0.7830621, 0.7777656, -0.1484121, -0.099823, 0
722, 1685278826, 0.08036953, -0.6107105, -0.08948887, -0.7826671, 0.3347302, 0.15343094, -0.30421734, 0
724, 1685312160, 0.08321802, -0.60856533, -0.09136785, -0.7838224, 0.5178917, 0.29980394, -0.48782253, 0
725, 1685328827, 0.08600713, -0.60574216, -0.09665766, -0.7850727, 0.33171344, 0.48271808, -0.4949503, 0
726, 1685345494, 0.08920807, -0.6016001, -0.10259735, -0.787144, 0.5844735, -0.016717274, -1.175786, 0
728, 1685378828, 0.09139322, -0.59114397, -0.1076353, -0.79411167, 1.5912089, -0.22112681, -2.4843478, 0
729, 1685395495, 0.091416545, -0.5843118, -0.11121515, -0.7986594, 1.2953908, -0.10308533, -2.6420426, 0
730, 1685412162, 0.089380786, -0.5767974, -0.112491935, -0.8041543, 1.7703412, -0.26063907, -3.146501, 0
737, 1685528831, 0.07138854, -0.50971454, -0.09619604, -0.8519648, 0.16949081, 3.618643, -7.199156, 0
740, 1685578832, 0.07820196, -0.482738, -0.11111375, -0.8651617, -5.1663356, 0.6637882, 1.7328424, 0
741, 1685595499, 0.07774857, -0.47448945, -0.11594384, -0.8691229, -7.6619215, -2.0563254, 5.4592295, 0
742, 1685612166, 0.07691866, -0.46603936, -0.12099796, -0.8730711, -8.388284, -2.5915163, 8.060019, 0
744, 1685645500, 0.071760654, -0.4453979, -0.14280449, -0.88095444, -6.4603868, -3.2571645, 10.359276, 0
747, 1685695501, 0.06956895, -0.42066222, -0.18398261, -0.885639, 1.3884197, -5.511801, 3.6820383, 0
748, 1685712168, 0.073505685, -0.4134145, -0.18955888, -0.8875561, 6.605469, -3.7254496, 6.071454, 0
749, 1685728835, 0.07861207, -0.40782756, -0.189908, -0.889626, 7.5065045, -0.0071546496, 6.732603, 0
751, 1685762169, 0.083890304, -0.39953193, -0.18299152, -0.8943453, -1.8673339, 1.4813026, 8.445494, 0
753, 1685795503, 0.088527575, -0.39481777, -0.17999649, -0.8965968, 1.4635434, 0.1850928, -0.042347908, 0
755, 1685828837, 0.090253584, -0.39490423, -0.17633781, -0.8971135, 0.5642993, -1.4683528, -0.6068411, 0
760, 1685912172, 0.080088116, -0.40918025, -0.1620094, -0.89437854, 0.10693262, -1.3826883, 0.737134, 0
761, 1685928839, 0.077467754, -0.41365466, -0.15698189, -0.8934472, 0.048973482, -0.7727074, 0.27201557, 0
763, 1685962173, 0.06915889, -0.4237805, -0.14792113, -0.890926, 0.27841455, 0.05663184, -0.15496731, 0
764, 1685978840, 0.06299235, -0.42961827, -0.14197391, -0.88955396, 0.085718445, 0.787199, -0.23853016, 0
765, 1685995507, 0.055319533, -0.43655494, -0.1335352, -0.8879925, -0.18639539, 0.2688309, -0.361166, 0
767, 1686028841, 0.039985687, -0.4511896, -0.1191766, -0.8835319, -1.0551428, 0.39096114, -1.0090055, 0
768, 1686045508, 0.034054603, -0.45906687, -0.1156663, -0.880183, -1.159072, 0.6279535, -1.3329878, 0
769, 1686062175, 0.029191788, -0.46734935, -0.112773106, -0.876366, -1.081557, 0.9767459, -1.1062212, 0
771, 1686095509, 0.023416193, -0.4858636, -0.10398827, -0.8675123, -1.1457316, 2.2020345, -1.3084688, 0
774, 1686145510, 0.021464158, -0.5150182, -0.09301944, -0.8518483, -0.6410391, 1.1354815, -2.1830044, 0
776, 1686178844, 0.022130921, -0.5296617, -0.089755684, -0.843158, -0.62477523, 0.5619379, -2.0424237, 0
779, 1686228845, 0.032652114, -0.5434714, -0.093652226, -0.83354944, 0.82569516, 2.1401231, -2.118154, 0
786, 1686345514, 0.050926037, -0.5619737, -0.07889034, -0.82180953, 2.633528, 0.3437357, -0.5684166, 0
787, 1686362181, 0.05238883, -0.56452847, -0.07734692, -0.82011163, 2.1607344, 0.029064849, -0.054177284, 0
791, 1686428849, 0.06171313, -0.57995147, -0.08171679, -0.80819106, 0.7365832, 0.7088895, 0.8827667, 0
794, 1686478850, 0.06897507, -0.58642924, -0.08019579, -0.80306566, 0.2937643, -0.87390363, 0.61057186, 0
795, 1686495517, 0.07093029, -0.5876768, -0.07893898, -0.8021074, 0.48821208, -0.24549446, 0.34336853, 0
797, 1686528851, 0.0748069, -0.5903727, -0.07918165, -0.7997481, 0.50501794, 0.8654627, 0.035758972, 0
799, 1686562185, 0.079107985, -0.59411705, -0.0791204, -0.796561, 0.6708775, 0.0011776199, -0.41539955, 0
803, 1686628853, 0.086282186, -0.5953537, -0.08476616, -0.79430896, 0.32136586, -0.87768847, -0.2383709, 0
805, 1686662187, 0.0867302, -0.5927346, -0.086665444, -0.79601204, 1.0366518, -0.3043426, -0.65498924, 0
806, 1686678854, 0.08685057, -0.5905868, -0.08885861, -0.79735255, 0.8011977, 0.2303035, -0.5831356, 0
807, 1686695521, 0.086573884, -0.588094, -0.091178924, -0.79896164, 1.441388, -0.16669701, -0.746686, 0
809, 1686728855, 0.085096344, -0.58138436, -0.09098289, -0.80403703, 1.2946253, 0.19499922, -1.6662207, 0
810, 1686745522, 0.08512657, -0.5753808, -0.093419075, -0.80806303, 0.561852, 1.1703203, -1.9415326, 0
811, 1686762189, 0.08490657, -0.56814307, -0.09679745, -0.81279594, 2.7615712, 0.08366995, -2.3858805, 0
813, 1686795523, 0.08322259, -0.5566383, -0.10245399, -0.8202033, 2.029215, -0.43169308, -3.553257, 0
814, 1686812190, 0.081700824, -0.5510071, -0.10327691, -0.8240465, 1.5416423, -0.29512554, -4.363561, 0
815, 1686828857, 0.07808215, -0.5448819, -0.09986695, -0.82887655, 1.0619906, 0.2509159, -4.7523675, 0
818, 1686878858, 0.062071532, -0.5234451, -0.08210108, -0.84582156, -1.3290207, 1.6493524, -6.845301, 0
819, 1686895525, 0.060505845, -0.51406217, -0.080779284, -0.8517959, -1.7022924, 3.3507488, -8.545568, 0
821, 1686928859, 0.058862753, -0.49714366, -0.08082189, -0.86188966, -3.3371155, 3.0309675, -7.781663, 0
823, 1686962193, 0.056322988, -0.48155355, -0.08293085, -0.87066597, -5.767949, 0.05879719, 0.030888557, 0
825, 1686995527, 0.05439766, -0.46573302, -0.08314787, -0.8793308, -7.270452, -2.1430695, 7.7158546, 0
826, 1687012194, 0.05211384, -0.45692608, -0.08463969, -0.8839352, -6.319334, -1.2838, 9.69932, 0
828, 1687045528, 0.04573626, -0.43944627, -0.09832378, -0.89170074, -8.211255, -0.91550225, 10.872057, 0
829, 1687062195, 0.043390386, -0.43061197, -0.10966119, -0.8948003, -6.2446723, -2.6338422, 9.181353, 0
833, 1687128863, 0.06342326, -0.40257367, -0.13924333, -0.9025108, 7.822166, 1.7290505, 7.3690853, 0
834, 1687145530, 0.06600777, -0.39768866, -0.13466905, -0.90518147, 3.183074, -2.7555156, 13.395, 0
837, 1687195531, 0.080111, -0.39020842, -0.13510372, -0.9072317, 2.6249533, 0.36920246, -0.1483221, 0
838, 1687212198, 0.08012867, -0.39207625, -0.1318763, -0.9068996, 0.5390731, -1.1136537, 0.51391506, 0
840, 1687245532, 0.07410973, -0.39952454, -0.1255274, -0.90506, 0.06994651, -2.5111582, 0.9479923, 0
841, 1687262199, 0.07064666, -0.4034719, -0.12445788, -0.9037325, 0.84109044, -2.1852608, 0.387681, 0
844, 1687312200, 0.06167636, -0.4149888, -0.12471446, -0.89912707, 0.4269204, 0.7145326, -0.41521835, 0
846, 1687345534, 0.05662309, -0.42478028, -0.11956608, -0.8955793, 0.5741221, -0.03914743, -0.35688686, 0
848, 1687378868, 0.0490897, -0.4376208, -0.113436766, -0.89062506, -0.45379514, -0.52618, -0.95474434, 0
849, 1687395535, 0.044553824, -0.44489804, -0.109437115, -0.8877539, -0.93364877, -0.789241, -0.72028255, 0
852, 1687445536, 0.033041306, -0.4642321, -0.108810365, -0.8783848, -0.5823518, 0.24293143, -1.180212, 0
853, 1687462203, 0.029293146, -0.472435, -0.1067245, -0.8743911, -1.3518164, 0.6075727, -1.2846022, 0
856, 1687512204, 0.029371899, -0.49713033, -0.11190495, -0.8599295, -1.166275, 1.9722689, -1.3547935, 0
857, 1687528871, 0.032816764, -0.5052708, -0.115504235, -0.8545677, -1.0220226, 1.6958342, -1.6386204, 0
859, 1687562205, 0.03684946, -0.5202455, -0.11479687, -0.845465, -0.6066588, 0.6012559, -1.572998, 0
860, 1687578872, 0.040016573, -0.52692425, -0.114515014, -0.8412125, 0.17554915, 0.8491937, -2.081026, 0
861, 1687595539, 0.042427145, -0.5330552, -0.11307948, -0.83741736, 0.51010627, 0.5096197, -2.077786, 0
863, 1687628873, 0.04693219, -0.54368657, -0.10664288, -0.8311632, 1.816627, 0.28570798, -2.710072, 0
864, 1687645540, 0.045825098, -0.54946876, -0.10171874, -0.8280338, 1.5201792, 0.15053317, -2.6476154, 0
865, 1687662207, 0.04270805, -0.55479085, -0.0955922, -0.8253774, 1.3657831, -0.27350897, -3.2242908, 0
867, 1687695541, 0.040284816, -0.5659785, -0.08762055, -0.8187617, 2.124802, 1.3227069, -1.9426508, 0
868, 1687712208, 0.042330194, -0.5708279, -0.08693805, -0.81535786, 2.5141518, 2.418137, -2.445848, 0
869, 1687728875, 0.044171978, -0.5744994, -0.08651002, -0.8127227, 2.4819367, 2.1410918, -0.8207283, 0
871, 1687762209, 0.043512933, -0.5818552, -0.08377085, -0.80779713, 1.3145612, -0.5988844, 0.20979881, 0
872, 1687778876, 0.04363041, -0.58573204, -0.082866885, -0.8050778, 0.9437366, -1.0547615, 0.14286995, 0
876, 1687845544, 0.049655423, -0.59693426, -0.081962526, -0.79654795, 0.25334284, 1.148515, 1.2856731, 0
877, 1687862211, 0.051606458, -0.59853375, -0.08283499, -0.79513216, 0.10597803, 0.7247889, 1.0986204, 0
879, 1687895545, 0.05567742, -0.6010462, -0.08423721, -0.79281163, -0.17950106, -0.24610975, 0.808115, 0
880, 1687912212, 0.057597123, -0.60193163, -0.08442755, -0.79198205, -0.9784045, -0.19328386, 0.25425243, 0
882, 1687945546, 0.06254375, -0.6012172, -0.08450854, -0.79214096, 0.1290462, 0.33742276, -0.22157478, 0
883, 1687962213, 0.06547361, -0.6011018, -0.08528848, -0.79190814, -0.79424, 1.32303, 0.30545998, 0
887, 1688028881, 0.07772718, -0.5991712, -0.09110521, -0.7916153, 0.5730882, 0.04946785, -0.7970009, 0
888, 1688045548, 0.07938409, -0.5984551, -0.094317995, -0.79161626, 1.2914792, -0.020832721, -1.0660267, 0
890, 1688078882, 0.08011228, -0.5963821, -0.10131893, -0.79224205, 2.0851028, -0.8720451, -1.0260143, 0
891, 1688095549, 0.079314426, -0.59473556, -0.103860356, -0.7932305, 2.121446, -1.0761818, -1.0990305, 0
895, 1688162217, 0.069145635, -0.57527673, -0.10434243, -0.80832595, 2.5074058, -0.38637152, -3.448525, 0
896, 1688178884, 0.06519876, -0.56905556, -0.10044288, -0.81353474, 2.3998048, 0.17604965, -4.647799, 0
898, 1688212218, 0.058535088, -0.55264825, -0.094114766, -0.82601357, 2.1080036, 1.2303754, -4.7062, 0
899, 1688228885, 0.056885324, -0.54350376, -0.09232916, -0.83237344, 2.1939368, 0.9055545, -5.130025, 0
902, 1688278886, 0.06169343, -0.516194, -0.07900808, -0.8505869, 0.72745734, 4.4549475, -7.602461, 0
903, 1688295553, 0.06484513, -0.5080709, -0.08103822, -0.8550408, -1.31337, 2.970074, -6.2913027, 0
906, 1688345554, 0.06878787, -0.47854704, -0.094125986, -0.87028956, -6.392165, -3.0888288, 6.4649525, 0
907, 1688362221, 0.06688645, -0.46845537, -0.09353089, -0.8759741, -5.5108957, -3.3260858, 8.485661, 0
909, 1688395555, 0.06369896, -0.44608986, -0.117357574, -0.8849724, -6.469507, 0.83793116, 9.74724, 0
910, 1688412222, 0.06006733, -0.43753418, -0.12725374, -0.88812447, -3.988409, -1.4752983, 8.456644, 0
911, 1688428889, 0.061453123, -0.42930794, -0.13518126, -0.89086854, -1.4884452, -3.2997088, 5.9059544, 0
913, 1688462223, 0.06920957, -0.41686088, -0.14468437, -0.89471006, 6.627296, -2.472366, 5.228344, 0
914, 1688478890, 0.06921561, -0.4136916, -0.1367045, -0.8974313, 6.67756, -3.170056, 6.987158, 0
915, 1688495557, 0.069587976, -0.40754953, -0.13364975, -0.9006671, 0.42991745, -3.2836154, 11.802963, 0
917, 1688528891, 0.074753895, -0.3970994, -0.13281481, -0.9050341, 1.6349285, 2.8108761, 2.1997862, 0
918, 1688545558, 0.07658489, -0.39569628, -0.12819597, -0.90616095, 0.55564475, 0.6956628, 1.2427225, 0
921, 1688595559, 0.07312833, -0.3989899, -0.11647294, -0.9065847, 0.007925302, -2.5207055, 0.60980606, 0
922, 1688612226, 0.07136956, -0.4012262, -0.114364, -0.9060063, -0.21467212, -1.7547772, 0.55396557, 0
923, 1688628893, 0.06919515, -0.40342152, -0.114575, -0.9051731, 0.11229692, -0.40062952, 0.46625137, 0
926, 1688678894, 0.06294634, -0.41478336, -0.10939283, -0.9011262, 5.085269E-5, -0.06151722, -0.07096481, 0
927, 1688695561, 0.061154157, -0.4201218, -0.10479264, -0.89932144, 0.42315233, -0.26531073, -0.443223, 0
929, 1688728895, 0.057239935, -0.43094623, -0.0991565, -0.89508635, -0.12464452, 0.011611568, -0.7221737, 0
930, 1688745562, 0.05448633, -0.436752, -0.097586825, -0.8926134, -0.07220234, -0.09757435, -0.5954113, 0
931, 1688762229, 0.051321164, -0.443187, -0.0959351, -0.8898037, -0.1693161, 0.23420332, -0.6977854, 0
933, 1688795563, 0.04397888, -0.45887473, -0.09030521, -0.8828066, -0.59623224, -0.29688638, -0.6056051, 0
934, 1688812230, 0.0417149, -0.4667503, -0.09049596, -0.8787589, -1.0859758, -0.1461714, -0.57818604, 0
937, 1688862231, 0.04148661, -0.49251047, -0.092506915, -0.86438274, -0.4868595, 1.1524367, -0.68724823, 0
938, 1688878898, 0.042552676, -0.5005114, -0.09362223, -0.8596019, -0.09578457, 1.6365187, -0.947732, 0
942, 1688945566, 0.04540172, -0.5317428, -0.08217788, -0.84168744, 0.043488145, 0.98928195, -2.9694533, 0
945, 1688995567, 0.048415538, -0.5493299, -0.07933749, -0.830422, 0.5451404, 0.43065262, -1.8169608, 0
946, 1689012234, 0.048702683, -0.5542785, -0.076890886, -0.8273413, 1.0098271, 0.8516748, -2.9574742, 0
948, 1689045568, 0.052302904, -0.5617981, -0.0742922, -0.82227176, 1.5046872, 0.5663397, -0.90918446, 0
949, 1689062235, 0.054384224, -0.5659043, -0.07320028, -0.8194139, 1.3914771, 0.770194, -1.085948, 0
950, 1689078902, 0.055693608, -0.56946176, -0.070331365, -0.8171093, 2.0185492, 0.89222586, -1.312747, 0
952, 1689112236, 0.05617848, -0.5778051, -0.06656857, -0.811515, 1.5041003, 0.52985144, -1.19417, 0
953, 1689128903, 0.05579736, -0.58200276, -0.06523144, -0.80864507, 1.7810173, 0.24402884, -0.9577093, 0
954, 1689145570, 0.05609124, -0.5854775, -0.0662256, -0.8060315, 1.1605071, 0.61901706, -0.1637783, 0
956, 1689178904, 0.057700597, -0.5939258, -0.06937269, -0.7994455, 1.2325324, -0.33024666, -0.22483349, 0
960, 1689245572, 0.06375417, -0.60927737, -0.07236808, -0.7870718, 0.63343394, -0.14593887, 1.0071096, 0
961, 1689262239, 0.06531643, -0.6104255, -0.073458456, -0.78595245, 0.49756688, 0.38947502, 1.3273945, 0
963, 1689295573, 0.06834425, -0.6119679, -0.076057345, -0.7842462, 0.5518442, 0.33465204, 1.346281, 0
964, 1689312240, 0.07134923, -0.6122652, -0.07914024, -0.7834413, 0.12016802, 0.3689379, 1.3157578, 0
965, 1689328907, 0.07342978, -0.61296135, -0.08057697, -0.7825576, 0.07942223, -0.45994723, 0.14104366, 0
967, 1689362241, 0.07422431, -0.6141042, -0.07747476, -0.7818997, 0.9098548, 0.5883086, -0.29200554, 0
969, 1689395575, 0.07907201, -0.6137384, -0.08387998, -0.7810504, 0.26354715, 1.1713924, 0.52468014, 0
972, 1689445576, 0.08190184, -0.61406595, -0.0856062, -0.78031355, 1.1565171, -1.0962039, -0.2690897, 0
973, 1689462243, 0.08224825, -0.61363757, -0.08617182, -0.78055185, 0.9918666, -0.84919584, -1.0314617, 0
975, 1689495577, 0.08099578, -0.61173624, -0.08488395, -0.7823144, 1.0823947, -0.44311082, -0.82958317, 0
976, 1689512244, 0.079941615, -0.60921913, -0.08523948, -0.7843456, 1.1551318, 0.25942913, -0.4504738, 0
977, 1689528911, 0.080269635, -0.60528284, -0.088925436, -0.7869462, 0.7709529, 0.8332788, -1.0243454, 0
980, 1689578912, 0.07911329, -0.58603424, -0.091960765, -0.801156, 2.2455115, -0.84456784, -4.3736553, 0
983, 1689628913, 0.06990519, -0.56189287, -0.080183655, -0.8203432, 1.53093, 1.7675501, -5.405788, 0
984, 1689645580, 0.06761051, -0.5516314, -0.076694384, -0.82779956, 1.4568574, 1.4736397, -6.2150965, 0
985, 1689662247, 0.06502131, -0.5414784, -0.06948721, -0.83531284, 0.8298765, 1.5103003, -6.7201385, 0
987, 1689695581, 0.06813674, -0.52189374, -0.066908285, -0.84764993, -1.0037469, 2.7866278, -8.300707, 0
991, 1689762249, 0.07286775, -0.48839092, -0.08574094, -0.86534137, -7.736782, -2.3611338, 7.9325237, 0
992, 1689778916, 0.072862044, -0.48028907, -0.08898895, -0.8695385, -6.943634, -0.5845705, 8.872707, 0
994, 1689812250, 0.07485598, -0.46149406, -0.11039546, -0.8770606, -6.914573, 0.7094271, 8.721315, 0
995, 1689828917, 0.078201875, -0.4528374, -0.120755754, -0.8799112, -4.3202066, 0.49578673, 7.3130035, 0
996, 1689845584, 0.08179614, -0.44508815, -0.1265274, -0.8827228, -0.6934169, -0.47180673, 5.535721, 0
998, 1689878918, 0.09104991, -0.42951602, -0.13406816, -0.88839996, 7.488004, -3.6800423, 6.206585, 0
999, 1689895585, 0.09127696, -0.4226891, -0.1265084, -0.8927489, 6.3921337, -5.4985733, 10.847565, 0
1000, 1689912252, 0.09201074, -0.41442168, -0.12279436, -0.8970578, 1.4342785, -3.87045, 11.94268, 0
1002, 1689945586, 0.09804528, -0.40240705, -0.11729112, -0.902608, 2.805657, 2.7363052, 0.4950714, 0
1004, 1689978920, 0.09338398, -0.40219143, -0.10518105, -0.9046884, 0.43520185, -1.2586741, -0.8340683, 0
1007, 1690028921, 0.081924655, -0.41038504, -0.09490663, -0.9032539, 0.2457426, -2.2082088, -0.119125366, 0
1008, 1690045588, 0.078730315, -0.41346654, -0.09571162, -0.9020469, 0.5353362, -0.49162754, -0.21042252, 0
1010, 1690078922, 0.07138701, -0.42245808, -0.092864536, -0.8987835, 0.58383805, -0.36183804, 0.102713585, 0
1011, 1690095589, 0.06753366, -0.4280928, -0.09055234, -0.8966485, 0.64403373, 0.13991508, 0.11157036, 0
1012, 1690112256, 0.06301099, -0.4349416, -0.08655423, -0.8940729, 0.25402442, -0.5589212, -0.33467674, 0
1014, 1690145590, 0.054313157, -0.44854242, -0.08232531, -0.88830453, -0.05223719, 0.3566699, -0.3530283, 0
1015, 1690162257, 0.05105009, -0.45515844, -0.083932206, -0.8849762, -0.34506762, 1.0663823, -0.1330452, 0
1017, 1690195591, 0.046808705, -0.4695063, -0.08679277, -0.87740666, -1.4177401, 1.088426, -0.22602272, 0
1021, 1690262259, 0.04710038, -0.5013521, -0.087684676, -0.85950077, -1.3096465, 0.46059364, -0.8765898, 0
1022, 1690278926, 0.051253438, -0.5079851, -0.09131542, -0.85497856, -1.3905145, 0.6849377, -0.76180077, 0
1025, 1690328927, 0.06301374, -0.52790076, -0.095190085, -0.84160066, -0.24804834, 0.717807, -1.4314461, 0
1026, 1690345594, 0.06649036, -0.5337576, -0.095103905, -0.83763933, -0.17935042, 0.27866858, -1.0489855, 0
1027, 1690362261, 0.06810616, -0.54010254, -0.0930978, -0.8336584, 0.6498461, 0.10409452, -2.0512176, 0
1029, 1690395595, 0.06727481, -0.5514667, -0.08606848, -0.8270148, 0.68094254, -0.20158878, -1.8471565, 0
1030, 1690412262, 0.068267636, -0.55601674, -0.08331044, -0.8241644, 0.5168721, -0.14808917, -1.8038912, 0
1031, 1690428929, 0.06913436, -0.5606294, -0.08199876, -0.821093, 1.556147, 0.2614849, -3.4339857, 0
1033, 1690462263, 0.06858419, -0.5696795, -0.07941306, -0.81514263, 1.6079313, 1.8099033, -1.8884983, 0
1034, 1690478930, 0.06849438, -0.57483196, -0.078152396, -0.8116475, 2.225423, 1.0495268, -1.6874418, 0
1035, 1690495597, 0.0690929, -0.5793803, -0.0770181, -0.8084649, 1.5208827, 0.6298557, -1.7141418, 0
1037, 1690528931, 0.07236296, -0.58681154, -0.07574175, -0.80292064, 1.0815179, 0.40204495, -0.88610363, 0
1038, 1690545598, 0.07389109, -0.5902513, -0.07635219, -0.8001979, 1.5065662, 0.60741544, -0.8554754, 0
1039, 1690562265, 0.07536603, -0.59357, -0.07743295, -0.797497, 0.7080984, 0.6658683, -0.51122284, 0
1041, 1690595599, 0.07968581, -0.5992095, -0.081367224, -0.79245204, 0.33901864, 1.1638143, -0.10328865, 0
1042, 1690612266, 0.08222831, -0.6007497, -0.08424794, -0.7907232, 0.3507972, 0.9279217, 0.14097881, 0
1044, 1690645600, 0.08661695, -0.60363764, -0.087704316, -0.7876736, 1.3011504, -0.7110374, 0.8564768, 0
1045, 1690662267, 0.0872065, -0.60635066, -0.08645913, -0.7856597, 0.74686354, -0.940249, 0.60705185, 0
1046, 1690678934, 0.0886896, -0.60838664, -0.08728903, -0.7838258, 0.24912833, -0.37674466, 0.73334885, 0
1052, 1690778936, 0.08911746, -0.6167625, -0.09154659, -0.77671355, 0.18986592, 0.055677257, 0.09707928, 0
1053, 1690795603, 0.08850084, -0.6173227, -0.09281753, -0.7761881, 1.1715242, -0.016385818, -0.2053175, 0
1056, 1690845604, 0.087383255, -0.6176752, -0.097888574, -0.77541095, 1.4044882, -0.7203691, -0.5751171, 0
1057, 1690862271, 0.085896626, -0.6167352, -0.097545624, -0.7763679, 1.5536151, -0.08619924, -0.8015356, 0
1058, 1690878938, 0.08504367, -0.61470616, -0.09942422, -0.7778311, 0.89056426, 0.4160021, -0.7294731, 0
1060, 1690912272, 0.08280381, -0.60543483, -0.1042039, -0.7846888, 1.4410685, -0.17483985, -1.7467995, 0
1061, 1690928939, 0.07982516, -0.5997426, -0.10214747, -0.7896237, 1.6427257, -0.6621858, -2.3949218, 0
1062, 1690945606, 0.07540652, -0.59334713, -0.097125486, -0.7955013, 1.4692774, -0.9638958, -3.5066571, 0
1064, 1690978940, 0.06054441, -0.58119166, -0.073568985, -0.8081714, 2.4215684, -0.38792002, -5.4865117, 0
1065, 1690995607, 0.05229863, -0.5749208, -0.059028693, -0.81440115, 2.1605523, 0.5617521, -6.2517824, 0
1066, 1691012274, 0.043320134, -0.56779426, -0.04332129, -0.8208892, 3.34986, 0.5216954, -6.59124, 0
1068, 1691045608, 0.03387546, -0.55076194, -0.023334105, -0.8336498, -1.0219835, 5.6339397, -9.531375, 0
1071, 1691095609, 0.05133926, -0.5180149, -0.061221793, -0.85163337, -3.2064285, 1.7207657, 0.2677765, 0
1072, 1691112276, 0.05209071, -0.5089474, -0.05556888, -0.8574229, -9.171254, -0.5534912, 6.4696846, 0
1073, 1691128943, 0.054603655, -0.49792057, -0.055220515, -0.86373997, -10.372136, -2.5986702, 8.53834, 0
1075, 1691162277, 0.062210858, -0.47208306, -0.082155325, -0.8755115, -5.0965734, -0.5672162, 9.903139, 0
1076, 1691178944, 0.06214671, -0.46082067, -0.09836192, -0.87983495, -4.369078, -1.1047848, 8.364195, 0
1077, 1691195611, 0.057908937, -0.45238757, -0.1080091, -0.88336205, -1.1730374, -2.2844622, 5.9275303, 0
1079, 1691228945, 0.063665465, -0.43198508, -0.13551484, -0.8893671, 4.0473876, -4.2418704, 4.8020344, 0
1080, 1691245612, 0.071260974, -0.42299035, -0.14144188, -0.89218706, 8.06756, 1.4567883, 5.763296, 0
1081, 1691262279, 0.07572262, -0.4163477, -0.13977918, -0.8952011, 4.679057, -0.4561832, 7.5275345, 0
1083, 1691295613, 0.08358207, -0.40648195, -0.1422787, -0.89863545, 0.14714578, 1.0660486, 4.8713827, 0
1085, 1691328947, 0.08791357, -0.40268895, -0.14370832, -0.8997017, 0.90104264, -1.2765082, 1.9809647, 0
1087, 1691362281, 0.08787274, -0.40304706, -0.14296407, -0.899664, 0.81749547, -3.318333, 1.9644213, 0
1088, 1691378948, 0.088051096, -0.40268764, -0.14557724, -0.8993885, 0.24276508, -2.5927155, 2.8297234, 0
1089, 1691395615, 0.088176064, -0.403041, -0.14821742, -0.89878654, 0.6969461, -1.4374282, 2.1655302, 0
1091, 1691428949, 0.08665477, -0.40630242, -0.14783598, -0.89752793, 1.3274901, -0.6974508, 0.5066776, 0
1093, 1691462283, 0.08366753, -0.41360185, -0.14372073, -0.89514256, 1.1305637, -0.26167655, -0.094926834, 0
1095, 1691495617, 0.07897574, -0.42423928, -0.13967961, -0.8912217, 0.14325023, 0.6146772, -1.1583576, 0
1096, 1691512284, 0.075093605, -0.43143445, -0.1358779, -0.8886873, -0.4089963, 0.50492305, -1.2868252, 0
1098, 1691545618, 0.06778701, -0.44732952, -0.1324874, -0.88190186, -0.3574908, 0.2743987, -1.2761059, 0
1099, 1691562285, 0.064109586, -0.45674282, -0.1292663, -0.8778205, -0.119973734, -0.04982316, -1.4325237, 0
1102, 1691612286, 0.054422263, -0.4863572, -0.119447604, -0.8638459, -0.8608701, -0.26336563, -1.5353346, 0
1103, 1691628953, 0.052578107, -0.49549052, -0.11604304, -0.8592214, -0.59327465, 0.10451547, -2.0609455, 0
1104, 1691645620, 0.052251134, -0.5052175, -0.116270885, -0.8535273, -0.10182514, 0.9532233, -2.0947523, 0
1106, 1691678954, 0.053206563, -0.5252626, -0.11528547, -0.84141564, -0.6524302, 1.8568761, -2.1529098, 0
1107, 1691695621, 0.0543258, -0.5348695, -0.11299729, -0.835582, -0.7238024, 1.7940822, -2.4345236, 0
1108, 1691712288, 0.0542896, -0.54207045, -0.10851862, -0.83152777, 0.14454296, 2.2221608, -2.360386, 0
1110, 1691745622, 0.049482472, -0.5554118, -0.09691645, -0.8244264, 0.37637025, 0.94646126, -1.7653542, 0
1111, 1691762289, 0.04707116, -0.5607639, -0.09274152, -0.8214195, 0.5542083, 0.47046003, -1.652134, 0
1112, 1691778956, 0.04524596, -0.565595, -0.09002458, -0.81850684, 0.77625453, 0.5911086, -1.9834456, 0
1114, 1691812290, 0.044454552, -0.57252586, -0.08636234, -0.8141143, 1.6019912, 0.31702372, -0.99631023, 0
1115, 1691828957, 0.04376982, -0.5760198, -0.083594404, -0.811973, 1.2338411, 0.53666407, 0.22423077, 0
1116, 1691845624, 0.04239733, -0.58038193, -0.07999473, -0.8092977, 1.1310141, 0.62247944, -0.8356972, 0
1118, 1691878958, 0.04165431, -0.5883782, -0.07121499, -0.8043676, 0.9565808, 0.64054185, -0.37221622, 0
1119, 1691895625, 0.043631326, -0.5922092, -0.06928127, -0.8016154, 0.19520953, 2.07111, -0.6257887, 0
1122, 1691945626, 0.05680664, -0.59762174, -0.07603676, -0.7961423, 0.13261768, 0.5882196, 0.1312418, 0
1123, 1691962293, 0.06259565, -0.5986271, -0.08027202, -0.7945352, -0.5384012, 1.3974018, 0.38672733, 0
1125, 1691995627, 0.07097689, -0.6018749, -0.084639914, -0.79091555, 0.35131758, 0.63773364, 0.510849, 0
1130, 1692078962, 0.08471759, -0.6067989, -0.084457844, -0.7858036, 0.75098604, -0.826206, -0.4115448, 0
1131, 1692095629, 0.08587524, -0.60659975, -0.08410219, -0.78587013, 1.3693075, -1.0791259, -0.62509346, 0
1134, 1692145630, 0.08657627, -0.6070007, -0.08646519, -0.7852267, 1.0272051, 0.29398414, 0.50936127, 0
1135, 1692162297, 0.086378254, -0.60734487, -0.08726478, -0.7848939, 0.90020597, -0.47176465, 0.717679, 0
1137, 1692195631, 0.08469704, -0.6072944, -0.08516665, -0.7853465, 0.8538119, -0.24687849, 0.14681053, 0
1138, 1692212298, 0.08391522, -0.60694003, -0.08604453, -0.7856086, 0.5850804, -0.4302683, -0.32006264, 0
1139, 1692228965, 0.08255964, -0.6065554, -0.08550125, -0.78610843, 0.9981873, -0.07122438, -0.6553488, 0
1141, 1692262299, 0.07934663, -0.6031374, -0.085887626, -0.7890218, 0.5904526, 0.17065924, -0.030724525, 0
1142, 1692278966, 0.076877385, -0.5999652, -0.086314335, -0.79163384, 0.9640097, 0.16193403, 0.51418304, 0
1143, 1692295633, 0.07572337, -0.59493905, -0.0887035, -0.795266, 0.33719325, 0.896266, 0.4589157, 0
1145, 1692328967, 0.07429131, -0.57997805, -0.08960979, -0.8062747, 1.0976819, -0.29330122, -1.7608194, 0
1146, 1692345634, 0.070421405, -0.57262397, -0.08570288, -0.81228083, 0.92084616, -0.5229843, -1.795044, 0
1149, 1692395635, 0.071281046, -0.5416678, -0.10100673, -0.8314536, 0.5942889, 1.5730687, -1.637723, 0
1150, 1692412302, 0.07452865, -0.5299836, -0.107245326, -0.8378926, 1.2148304, 1.3747158, -2.745679, 0
1152, 1692445636, 0.07674122, -0.5131711, -0.09967759, -0.8490191, 2.191903, 1.4022304, -5.636345, 0
1153, 1692462303, 0.077329725, -0.50667644, -0.093768924, -0.8535275, 2.0486877, 1.6088035, -6.02944, 0
1156, 1692512304, 0.08467555, -0.48688596, -0.089308985, -0.8647534, 1.4958574, 3.2771091, -8.3689785, 0
1158, 1692545638, 0.095804736, -0.47374725, -0.11834628, -0.8673995, -4.550316, 4.011214, -6.2482443, 0
1160, 1692578972, 0.09480614, -0.4578097, -0.14213642, -0.87248045, -8.915984, -1.4748675, 0.779644, 0
1161, 1692595639, 0.094443575, -0.4482869, -0.14953603, -0.8762198, -9.536123, -5.3599834, 4.457779, 0
1162, 1692612306, 0.093317896, -0.43612164, -0.15742694, -0.8810841, -6.235419, -2.5028002, 5.9697504, 0
1164, 1692645640, 0.08325778, -0.41447884, -0.17548074, -0.8890921, -0.89070576, 0.70541555, 7.8657436, 0
1169, 1692728975, 0.08106688, -0.3752754, -0.16928704, -0.90771216, 1.0871156, 3.8711786, 11.621811, 0
1170, 1692745642, 0.08618243, -0.36903617, -0.16425988, -0.9107174, 0.19404414, 3.1607964, 7.133539, 0
1172, 1692778976, 0.08902456, -0.3639594, -0.15084651, -0.9147983, 1.059861, -1.7903174, 1.3376503, 0
1174, 1692812310, 0.08773433, -0.36307323, -0.14342211, -0.91646785, -0.6762546, -1.9355799, 2.7143478, 0
1176, 1692845644, 0.08388848, -0.36679327, -0.13841026, -0.91611713, 0.04379199, -3.3019648, 2.149809, 0
1180, 1692912312, 0.08136341, -0.3800182, -0.12917273, -0.91229564, 0.8787275, -0.7916705, 1.2538891, 0
1183, 1692962313, 0.07707097, -0.39692482, -0.12547724, -0.9059629, -0.03367742, -0.17466952, -0.30228138, 0
1184, 1692978980, 0.07675754, -0.4037993, -0.1247032, -0.9030539, -0.45247993, -0.12294194, -1.0763559, 0
1185, 1692995647, 0.07732943, -0.41121474, -0.12415773, -0.8997278, -0.4382076, 0.102063954, -1.1952257, 0
1187, 1693028981, 0.08069181, -0.4282378, -0.12209013, -0.89173865, -0.2621705, 0.5020671, -1.9719319, 0
1189, 1693062315, 0.08646771, -0.4464387, -0.122184694, -0.8822071, -0.65333915, 0.2789452, -2.5976248, 0
1191, 1693095649, 0.09255412, -0.46545464, -0.11965366, -0.8720501, 0.11394753, 0.15251136, -3.0375295, 0
1192, 1693112316, 0.09491199, -0.47554678, -0.11854248, -0.86648566, 0.30609283, 0.41617805, -2.793559, 0
1193, 1693128983, 0.09694742, -0.4858254, -0.11642516, -0.8608268, -0.10347624, 0.11911367, -3.0715237, 0
1195, 1693162317, 0.1003508, -0.5046434, -0.11134819, -0.85021704, 0.60440654, 0.78703225, -1.6002884, 0
1196, 1693178984, 0.10073205, -0.51404077, -0.11079767, -0.84459555, 0.29614353, 1.0697559, -2.61268, 0
1197, 1693195651, 0.10150735, -0.52226204, -0.109292, -0.83964074, 0.0384828, -0.65801626, -2.0827765, 0
1199, 1693228985, 0.10594337, -0.5355982, -0.110848814, -0.8304372, 0.18438174, 0.96502465, -1.3756924, 0
1200, 1693245652, 0.10573045, -0.54152757, -0.109025806, -0.82685244, 1.3806473, 1.1866283, -2.685884, 0
1201, 1693262319, 0.1060652, -0.54667765, -0.107112885, -0.8236644, 0.8911963, 1.0535936, -1.8104639, 0
1204, 1693312320, 0.10878177, -0.5580625, -0.11320095, -0.8148135, 1.1080893, 0.6789083, -1.0809517, 0
1206, 1693345654, 0.11048675, -0.5656458, -0.11536278, -0.8090312, 2.143441, 0.39796728, -1.1585484, 0
1208, 1693378988, 0.11336149, -0.5737847, -0.120049186, -0.8021914, -0.6631532, 3.1339564, 0.45998383, 0
1210, 1693412322, 0.11546447, -0.5816045, -0.11704482, -0.79668516, 0.76486856, -0.96029615, 0.31101513, 0
1211, 1693428989, 0.117513895, -0.5854138, -0.11647796, -0.7936729, 0.59877956, 0.20810744, 0.39479828, 0
1212, 1693445656, 0.1199836, -0.58847094, -0.11780934, -0.7908409, 0.65836644, 0.28641516, 0.7930708, 0
1215, 1693495657, 0.12231098, -0.5942846, -0.12382649, -0.78519785, -1.5860189, 1.8124006, 2.6051178, 0
1218, 1693545658, 0.117726825, -0.6034772, -0.11563775, -0.7801194, 1.7291716, -0.4703348, -0.94198227, 0
1219, 1693562325, 0.1167119, -0.60527724, -0.114549525, -0.7790372, 0.15828697, 1.7069234, -2.085154, 0
1222, 1693612326, 0.118095115, -0.604179, -0.11928039, -0.77897114, 0.43735257, 0.6243423, 1.65411, 0
1223, 1693628993, 0.11880247, -0.60361946, -0.12036361, -0.7791308, -0.011398672, 0.2755136, 0.5725622, 0
1224, 1693645660, 0.11926456, -0.6021606, -0.12027213, -0.7802026, 1.3692528, 0.048644383, -0.23818588, 0
1226, 1693678994, 0.120382085, -0.5961282, -0.12481974, -0.78394, 0.048015397, -0.43290126, 0.15819836, 0
1227, 1693695661, 0.11955188, -0.5918209, -0.12597956, -0.78713846, 2.059337, -0.46386483, 1.5049973, 0
1228, 1693712328, 0.11880718, -0.5877256, -0.12783712, -0.79001504, 0.4014093, 1.266965, 1.9461651, 0
1230, 1693745662, 0.11936893, -0.5785068, -0.13239455, -0.7959619, 0.44360265, -0.7163715, -0.5296936, 0
1231, 1693762329, 0.116089314, -0.57512486, -0.12478362, -0.8001165, 1.0613651, -1.9978267, -0.94684696, 0
1234, 1693812330, 0.107109934, -0.5636238, -0.11652613, -0.810728, 0.40725976, 1.7782423, -2.757465, 0
1235, 1693828997, 0.10929817, -0.5575553, -0.123492435, -0.81359583, -0.048652053, 2.5273745, -2.801395, 0
1238, 1693878998, 0.1092841, -0.54025877, -0.12800032, -0.8244976, -0.0021465905, 0.44510227, -4.3243833, 0
1239, 1693895665, 0.10804613, -0.53361046, -0.12912282, -0.828804, 0.6703274, -0.0021981942, -4.718751, 0
1241, 1693928999, 0.09767498, -0.5203996, -0.120622195, -0.8397005, 2.4745648, -1.013024, -4.2373633, 0
1242, 1693945666, 0.09091034, -0.5146539, -0.11319777, -0.84501815, -0.39061147, 0.87425506, -5.788689, 0
1243, 1693962333, 0.08605479, -0.5077591, -0.10940352, -0.8501816, -1.2278434, 2.018807, -5.591754, 0
1246, 1694012334, 0.07897262, -0.4819773, -0.11718768, -0.86471426, -4.322525, 4.334246, -0.535244, 0
1247, 1694029001, 0.07728038, -0.4769803, -0.11481919, -0.8679497, -7.175439, -0.9070901, 3.2805424, 0
1249, 1694062335, 0.07478644, -0.46223217, -0.11370875, -0.8762541, -6.4182796, -2.891254, 7.971609, 0
1250, 1694079002, 0.073890924, -0.45080823, -0.11631163, -0.88192195, -4.746833, -1.2344096, 8.803659, 0
1251, 1694095669, 0.07228877, -0.43850043, -0.122500464, -0.88740534, -3.5391626, -1.1334847, 7.5448, 0
1254, 1694145670, 0.06315029, -0.4069526, -0.13890404, -0.9006164, 0.65412575, -2.7807577, 2.940483, 0
1255, 1694162337, 0.06515961, -0.3962789, -0.14723015, -0.90390444, 3.817858, -2.324672, 3.2944756, 0
1257, 1694195671, 0.0702717, -0.38456097, -0.13391839, -0.910628, 4.790637, -0.48854172, 4.8605957, 0
1258, 1694212338, 0.07262203, -0.3774648, -0.12986661, -0.9139933, 0.8476414, -0.33858544, 6.7088356, 0
1260, 1694245672, 0.07615773, -0.36696056, -0.12353474, -0.91884804, 1.0799624, -0.30492178, 1.9158754, 0
1261, 1694262339, 0.07882555, -0.3638048, -0.12022224, -0.9203163, 1.5904179, -0.35805085, 0.008490562, 0
1262, 1694279006, 0.08185461, -0.36210275, -0.11784762, -0.92102987, 1.7494205, -0.06923782, -0.44755936, 0
1264, 1694312340, 0.0834436, -0.36334822, -0.11297953, -0.9210068, 0.3825578, -1.2921948, 0.67103004, 0
1265, 1694329007, 0.08282984, -0.3652726, -0.11103542, -0.9205373, 0.049021598, -1.5837754, 0.92225266, 0
1266, 1694345674, 0.08220567, -0.36803263, -0.10811115, -0.9198417, 0.6211487, -1.466921, 0.27066135, 0
1269, 1694395675, 0.08199875, -0.37777576, -0.10460646, -0.9163089, 1.1131091, 0.21930532, 0.21922588, 0
1272, 1694445676, 0.08176266, -0.39686722, -0.09337187, -0.909448, 0.43233335, 0.039287962, -0.44665527, 0
1273, 1694462343, 0.0812197, -0.40478402, -0.088943094, -0.9064465, -0.06227518, 0.045744736, -0.76985836, 0
1274, 1694479010, 0.08012909, -0.41310257, -0.08599171, -0.9030692, -0.22275306, 0.047655154, -0.6842499, 0
1276, 1694512344, 0.07611837, -0.4316394, -0.08055529, -0.89521325, -0.4427652, -0.2707377, -0.927722, 0
1277, 1694529011, 0.074010715, -0.44154888, -0.079167806, -0.89066947, -0.38596532, -0.36042002, -1.2252188, 0
1278, 1694545678, 0.07199231, -0.45206505, -0.077231415, -0.88571566, -0.6346341, -0.18319842, -1.3076544, 0
1280, 1694579012, 0.07017947, -0.472829, -0.07705339, -0.8749704, -0.5339062, 0.036218934, -1.0528145, 0
1281, 1694595679, 0.07000863, -0.48399317, -0.07438248, -0.86909103, -0.62637764, -0.0064710355, -1.7053499, 0
1282, 1694612346, 0.0704961, -0.49447262, -0.07329279, -0.86322516, -0.41371262, 0.6448971, -1.6434593, 0
1284, 1694645680, 0.0735211, -0.5133735, -0.07639967, -0.85159147, 0.4657601, 1.2809012, -1.4394941, 0
1285, 1694662347, 0.07584898, -0.5229914, -0.07451183, -0.84568167, 0.10763428, 0.43098515, -1.1473951, 0
1287, 1694695681, 0.0761088, -0.54120344, -0.06922544, -0.83457583, -0.1568079, 0.120982535, -3.486034, 0
1288, 1694712348, 0.076101616, -0.5492243, -0.06635326, -0.8295549, 0.630451, 0.04598564, -2.9571223, 0
1289, 1694729015, 0.07855872, -0.55496037, -0.06824991, -0.8253436, 0.6278497, 1.9070691, -0.8123865, 0
1291, 1694762349, 0.080445945, -0.56648016, -0.06728507, -0.8173762, 1.4768744, -0.99432, -1.1065903, 0
1292, 1694779016, 0.077779934, -0.57263815, -0.06116341, -0.81381655, 2.0450032, -1.7789952, -1.5677071, 0
1293, 1694795683, 0.07847954, -0.577286, -0.06010498, -0.81053793, 1.0719486, 0.1297905, 0.12284756, 0
1295, 1694829017, 0.07963214, -0.58677423, -0.062042095, -0.80343527, 1.1787868, -0.8143737, -0.549139, 0
1299, 1694895685, 0.08445859, -0.60083616, -0.068170525, -0.791971, 0.667512, 1.8785822, 0.4063425, 0
1300, 1694912352, 0.08725688, -0.60384893, -0.07315349, -0.78892577, 0.32340035, 1.0147206, 0.29315948, 0
1301, 1694929019, 0.09066048, -0.6059551, -0.07874154, -0.7863851, 0.043026105, 0.3102067, 0.18928432, 0
1303, 1694962353, 0.09777232, -0.6097677, -0.08701368, -0.7817002, 1.2212155, -0.31043357, 0.10590172, 0
1304, 1694979020, 0.102510795, -0.6116221, -0.093127936, -0.77893513, -0.2778092, 1.2866126, 1.2467489, 0
1305, 1694995687, 0.10616195, -0.61327493, -0.09805606, -0.7765379, 0.09779773, 0.02917956, 1.0491905, 0
1307, 1695029021, 0.107451275, -0.6162143, -0.09661037, -0.77421135, 1.6358894, -2.3850958, 0.50836563, 0
1308, 1695045688, 0.107571885, -0.6170243, -0.09605982, -0.77361786, 1.1642584, -1.0021008, 0.7611971, 0
1309, 1695062355, 0.10795584, -0.61808306, -0.09720756, -0.77257496, 1.0882677, -0.25310522, 0.40370846, 0
1311, 1695095689, 0.10448246, -0.622949, -0.09396516, -0.76953954, 0.8319589, -1.1200492, 0.40706348, 0
1315, 1695162357, 0.09562904, -0.6256287, -0.09033418, -0.76895124, 0.031891793, -0.22658065, 0.3691826, 0
1316, 1695179024, 0.09377901, -0.6252545, -0.08924477, -0.76961046, 0.7108934, -0.4377808, -0.43766308, 0
1318, 1695212358, 0.09345092, -0.62327576, -0.09189033, -0.77094287, 0.30551344, 0.87807447, -0.5724249, 0
1319, 1695229025, 0.093573526, -0.62084967, -0.09421552, -0.77260315, 0.93957996, 0.6077623, -0.34843826, 0
1320, 1695245692, 0.09532145, -0.6171316, -0.09907586, -0.77475744, 0.61590755, 1.1081399, -0.09171295, 0
1322, 1695279026, 0.097664505, -0.6063506, -0.10898815, -0.7816168, 1.8843179, 0.21751931, -0.8227329, 0
1324, 1695312360, 0.101, -0.59176904, -0.117582045, -0.79106617, 2.6515708, -0.1312226, -1.9900703, 0
1327, 1695362361, 0.09793706, -0.5680515, -0.11002387, -0.8097056, 2.9723847, 0.950745, -4.8264575, 0
1328, 1695379028, 0.097549215, -0.55990064, -0.10518384, -0.8160482, 1.6511557, 2.306833, -5.008263, 0
1330, 1695412362, 0.09488976, -0.54238176, -0.09065883, -0.8298201, 1.1176227, 1.8700974, -6.561704, 0
1332, 1695445696, 0.104394644, -0.5210781, -0.10032797, -0.84114, -2.4073198, 4.5712457, -8.181107, 0
1334, 1695479030, 0.11233773, -0.49899906, -0.11976168, -0.8509053, -5.157641, -0.039973952, 4.792017, 0
1335, 1695495697, 0.11232075, -0.48946297, -0.12127109, -0.856216, -7.296318, -3.5013392, 5.5834236, 0
1338, 1695545698, 0.10986755, -0.45307866, -0.13934729, -0.8736326, -4.454849, -1.8965495, 8.258383, 0
1339, 1695562365, 0.10654556, -0.44117728, -0.14685859, -0.878889, -1.8942039, -1.077624, 6.203911, 0
1342, 1695612366, 0.10080578, -0.41537607, -0.16580088, -0.8887146, 4.273179, -2.9244628, 3.3679562, 0
1343, 1695629033, 0.099962726, -0.4116007, -0.15952373, -0.8917103, 4.6921453, -3.123926, 5.768544, 0
1345, 1695662367, 0.102017194, -0.40026638, -0.15526496, -0.897371, -0.50301886, 1.3866457, 7.741745, 0
1346, 1695679034, 0.10491681, -0.39593706, -0.1549834, -0.89900464, 0.16354437, 3.939525, 3.6596622, 0
1349, 1695729035, 0.10533261, -0.39379498, -0.14555341, -0.9014696, 1.084603, -1.2661197, 0.5203123, 0
1351, 1695762369, 0.10616326, -0.3932813, -0.1453996, -0.9016211, 0.080080695, -1.6883557, 0.8897171, 0
1353, 1695795703, 0.106603116, -0.39334345, -0.14789708, -0.90113586, 0.54128575, -0.42451236, 0.15555954, 0
1354, 1695812370, 0.10732573, -0.3945125, -0.14849474, -0.90044045, 0.7487369, 0.105477415, 0.144166, 0
1355, 1695829037, 0.108045, -0.39774877, -0.14627606, -0.8992932, 0.72511864, 0.028078048, -0.12979507, 0
1357, 1695862371, 0.10933188, -0.40766078, -0.14168024, -0.8954265, 0.3018956, -0.51784855, -1.3950024, 0
1358, 1695879038, 0.10961443, -0.41436565, -0.13770929, -0.8929303, 0.30690202, -0.13160354, -1.6543388, 0
1359, 1695895705, 0.10928771, -0.42107004, -0.13641801, -0.8900276, 0.38760763, 0.21092984, -1.2822113, 0
1361, 1695929039, 0.10601932, -0.4365762, -0.13370731, -0.8833381, 0.27212274, 0.009092842, -0.8207159, 0
1362, 1695945706, 0.10285741, -0.44565818, -0.1289136, -0.8798826, -0.19863603, -0.35577637, -0.68161297, 0
1363, 1695962373, 0.09909384, -0.45474738, -0.12560722, -0.87613404, -0.49463955, -0.80169976, -0.7767191, 0
1365, 1695995707, 0.09401569, -0.4723545, -0.12283835, -0.86773014, -0.23934425, 0.15320906, -1.8873367, 0
1366, 1696012374, 0.09143631, -0.48062068, -0.123215616, -0.86340237, -0.012368767, 0.8234785, -1.8823838, 0
1368, 1696045708, 0.08839443, -0.49708208, -0.12623227, -0.85391104, 0.35415995, 0.70893294, -2.5203848, 0
1369, 1696062375, 0.0857562, -0.5074419, -0.12220686, -0.84865576, 0.4286123, -0.11808458, -2.2908, 0
1370, 1696079042, 0.08590208, -0.51751703, -0.11677355, -0.84330523, -0.1291999, 0.69341296, -1.4434538, 0
1372, 1696112376, 0.085740656, -0.53709394, -0.11240097, -0.83159333, 0.2700599, 1.5286938, -2.3449068, 0
1373, 1696129043, 0.08503991, -0.54518557, -0.109618634, -0.8267571, 0.45624143, 1.1943692, -1.8841085, 0
1376, 1696179044, 0.07676302, -0.56844753, -0.096342474, -0.8134468, -0.27674094, 0.40724316, -0.9912596, 0
1377, 1696195711, 0.07591075, -0.5731693, -0.09707172, -0.8101198, 0.14017363, 0.5870511, -0.6417208, 0
1380, 1696245712, 0.07540616, -0.5828512, -0.09851167, -0.80305445, 0.8144634, 1.0000901, 0.039232254, 0
1381, 1696262379, 0.075359344, -0.58546823, -0.09657582, -0.80138874, 1.9690825, 0.45047012, 0.030006409, 0
1382, 1696279046, 0.07605106, -0.5880959, -0.09714396, -0.79932785, 0.9486296, 1.8762518, 0.27816582, 0
1385, 1696329047, 0.07963373, -0.5941871, -0.098581985, -0.79428226, 1.2133068, 0.8374978, 0.3914137, 0
1386, 1696345714, 0.08195521, -0.5961876, -0.09916389, -0.7924726, 0.3712268, 0.29351327, 0.7265234, 0
1388, 1696379048, 0.08856967, -0.5987245, -0.1010007, -0.78961116, 0.024570884, 1.1994926, 0.9138136, 0
1389, 1696395715, 0.09147103, -0.5994829, -0.10130637, -0.78866524, 0.4824411, 0.6668482, 0.6677103, 0
1390, 1696412382, 0.094280675, -0.60011715, -0.10163187, -0.78780985, 0.38139698, 0.8165237, 0.82530594, 0
1392, 1696445716, 0.09895442, -0.6020577, -0.10112549, -0.78581846, 0.24516913, -0.1678566, 0.12279701, 0
1393, 1696462383, 0.10089633, -0.6021443, -0.10007929, -0.78563905, 0.5210617, -0.5607265, 0.11730194, 0
1396, 1696512384, 0.10485572, -0.6002395, -0.097388536, -0.78691554, 0.76275194, 0.5942915, 0.23587322, 0
1397, 1696529051, 0.10612629, -0.5995484, -0.09730464, -0.7872822, 0.72340876, 0.57904226, 0.045232773, 0
1399, 1696562385, 0.10762082, -0.59905964, -0.097181365, -0.78746665, 0.98332727, -0.25348634, -0.40644836, 0
1401, 1696595719, 0.108110264, -0.59742224, -0.096681565, -0.788704, 0.78085846, -0.23958102, 0.1043272, 0
1403, 1696629053, 0.10935143, -0.5951609, -0.09734435, -0.7901598, 0.21204618, 0.001613065, 0.19273281, 0
1404, 1696645720, 0.11027861, -0.59281015, -0.09898913, -0.79159236, 0.1495054, -0.042967655, -0.15304756, 0
1405, 1696662387, 0.111872375, -0.5892015, -0.10143182, -0.7937509, -0.49837634, 0.43829864, -0.70020676, 0
1407, 1696695721, 0.11730829, -0.5771669, -0.11250344, -0.80028915, 0.7482802, 0.22480059, -1.6488476, 0
1408, 1696712388, 0.12050846, -0.5692873, -0.11842324, -0.804592, 0.3691388, 0.4577683, -1.8335738, 0
1409, 1696729055, 0.123217426, -0.5603179, -0.122948855, -0.80978256, 1.4147531, 0.12285194, -2.8129764, 0
1412, 1696779056, 0.122611724, -0.5356536, -0.12058394, -0.82674277, 2.6349285, -0.88377666, -4.719838, 0
1413, 1696795723, 0.11970166, -0.52865165, -0.1148547, -0.8324722, 2.2475865, -0.07542444, -5.623002, 0
1415, 1696829057, 0.114381224, -0.5134494, -0.10540871, -0.8439066, 0.5420733, 1.2343203, -7.6267767, 0
1416, 1696845724, 0.11387481, -0.50528306, -0.10522106, -0.8489127, -0.0055518663, 3.3487735, -8.371324, 0
1417, 1696862391, 0.112651765, -0.4981518, -0.10842545, -0.85287815, -1.1540467, 4.6772966, -8.272614, 0
1419, 1696895725, 0.102528304, -0.48846874, -0.1147864, -0.85890216, -5.9399858, -0.021848615, 4.2596197, 0
1420, 1696912392, 0.09828915, -0.48463205, -0.11143166, -0.86200726, -8.253887, -3.4920216, 4.6317396, 0
1421, 1696929059, 0.09923375, -0.47516048, -0.12013922, -0.8659932, -9.864938, -2.4152265, 8.867365, 0
1423, 1696962393, 0.1024697, -0.45039675, -0.1359751, -0.87644523, -5.2196918, 0.4777153, 7.740944, 0
1426, 1697012394, 0.10008933, -0.41628307, -0.15155469, -0.8909122, 1.2630224, -0.78649336, 3.1966486, 0
1430, 1697079062, 0.102794446, -0.3899549, -0.15030003, -0.90265214, 2.4848583, -3.165066, 8.340162, 0
1431, 1697095729, 0.09989634, -0.38655752, -0.1440369, -0.9054557, -1.8103331, -2.801372, 9.103474, 0
1432, 1697112396, 0.099812314, -0.3821729, -0.14290161, -0.9075038, 0.3174416, 1.6419194, 3.5340033, 0
1434, 1697145730, 0.09654045, -0.37966242, -0.1362853, -0.9099261, 0.8943057, 0.7300281, 1.7273788, 0
1435, 1697162397, 0.09186452, -0.38267848, -0.12880069, -0.9102369, 0.6104467, -1.6249552, 0.9185791, 0
1438, 1697212398, 0.07936361, -0.3899647, -0.1176132, -0.90983444, -0.021937748, -0.19583097, -0.11676121, 0
1440, 1697245732, 0.073937796, -0.39708018, -0.1146236, -0.90759283, 0.30421105, 0.95817995, 0.11967087, 0
1442, 1697279066, 0.07247003, -0.40680388, -0.11057638, -0.9038995, -0.08209121, 0.6245368, -0.31774235, 0
1443, 1697295733, 0.07257354, -0.41245103, -0.10816538, -0.9016209, -0.39504057, 0.37686077, -0.074362755, 0
1444, 1697312400, 0.07280832, -0.41794267, -0.107371606, -0.8991647, -0.13787052, -0.16092107, -0.23743248, 0
1446, 1697345734, 0.07176422, -0.4313908, -0.1004143, -0.89368415, 0.27186915, 0.1604013, -0.47113228, 0
1447, 1697362401, 0.0700232, -0.4389582, -0.09698355, -0.8905107, -0.15446071, -0.24320523, -0.43525696, 0
1449, 1697395735, 0.06567406, -0.45333233, -0.0926712, -0.88407665, 0.054869164, 0.08955514, -1.042903, 0
1450, 1697412402, 0.06409877, -0.4603723, -0.092683874, -0.880546, 0.05990393, 0.27092543, -1.1449594, 0
1453, 1697462403, 0.0601438, -0.4845598, -0.08624233, -0.8684177, -0.14063086, 0.41385072, -2.3528748, 0
1454, 1697479070, 0.05813416, -0.49377778, -0.08244319, -0.8637184, -0.41858685, 0.4064639, -2.5127478, 0
1455, 1697495737, 0.05758159, -0.5016472, -0.08135167, -0.8593131, 0.0014654383, 0.63139063, -1.908155, 0
1457, 1697529071, 0.057949223, -0.51646703, -0.08447832, -0.8501587, 1.2865268, 1.0105016, -1.5079927, 0
1461, 1697595739, 0.05385194, -0.5512332, -0.06789504, -0.8298403, 0.5399928, 0.3537915, -1.782795, 0
1463, 1697629073, 0.05231443, -0.56391644, -0.067512624, -0.82140505, 0.28254014, -0.06049514, -1.7140131, 0
1465, 1697662407, 0.051344838, -0.5744262, -0.06545581, -0.8143196, 0.7814849, 1.0314313, -1.0034208, 0
1466, 1697679074, 0.050513044, -0.57903737, -0.06760636, -0.8109231, 0.8495829, 1.7885983, -0.14883614, 0
1467, 1697695741, 0.050194126, -0.58345246, -0.070322804, -0.8075403, 0.49264696, 1.5970267, 0.24874306, 0
1469, 1697729075, 0.052285917, -0.58873475, -0.070897944, -0.80351335, 0.7400294, 0.26979828, 0.0024747849, 0
1470, 1697745742, 0.052256204, -0.5913624, -0.06998825, -0.8016635, 1.2988898, -0.17270564, -0.26353264, 0
1471, 1697762409, 0.054097828, -0.5936996, -0.070261754, -0.7997878, 0.8259606, 0.7213332, 0.93512535, 0
1473, 1697795743, 0.06103501, -0.5966777, -0.078012675, -0.796346, 0.45478272, 1.1067872, 1.5975666, 0
1474, 1697812410, 0.06454222, -0.59769297, -0.07973485, -0.7951366, -0.19219007, 0.48370546, 1.0550709, 0
1476, 1697845744, 0.07182963, -0.5979718, -0.0799059, -0.79428464, 0.68668395, -0.34551597, 0.7858982, 0
1478, 1697879078, 0.07842381, -0.59844714, -0.08106134, -0.79318506, 0.9581058, 0.7188303, 0.44507313, 0
1480, 1697912412, 0.08352615, -0.59820557, -0.08115502, -0.79283667, 1.1901878, 0.07242158, 0.28244495, 0
1482, 1697945746, 0.085700706, -0.5988714, -0.07669191, -0.79254615, 1.7366283, -0.6209962, -0.34409428, 0
1484, 1697979080, 0.08877902, -0.59942734, -0.07802778, -0.79165614, 1.0384138, 0.062231414, -0.73294735, 0
1485, 1697995747, 0.08986476, -0.59962857, -0.079264194, -0.79125845, 1.063341, -0.088689886, -0.6188755, 0
1488, 1698045748, 0.09448722, -0.5967902, -0.086757414, -0.79207927, 1.2200973, -0.060865343, -0.123062134, 0
1489, 1698062415, 0.09630928, -0.59519744, -0.089473054, -0.79275584, 0.54473597, -0.27178544, -0.33583927, 0
1490, 1698079082, 0.09868452, -0.592776, -0.09261231, -0.7939167, 0.55547065, -0.23370115, -0.44854927, 0
1492, 1698112416, 0.10352819, -0.58321923, -0.10133379, -0.7992945, 0.35697335, 0.21298215, -0.39074135, 0
1493, 1698129083, 0.10653421, -0.5751403, -0.10769601, -0.8039083, 1.1210349, -0.045954514, -0.41646957, 0
1496, 1698179084, 0.104085155, -0.55378634, -0.10600619, -0.8192999, 1.3136563, -0.40603107, -3.8484035, 0
1497, 1698195751, 0.10095081, -0.54540074, -0.1007233, -0.82595676, 1.8088945, 0.080931135, -4.2000513, 0
1498, 1698212418, 0.0968122, -0.5365744, -0.092959255, -0.8331126, 0.9377961, 0.10739994, -5.3477077, 0
1500, 1698245752, 0.08985683, -0.5174704, -0.07758938, -0.847427, -0.1972658, 2.0435019, -7.9948277, 0
1501, 1698262419, 0.09009734, -0.5072024, -0.077948734, -0.85355425, -1.0825012, 3.803153, -8.320964, 0
1503, 1698295753, 0.096066855, -0.4869192, -0.110038914, -0.8611474, -3.670187, 2.1097665, -5.073489, 0
1504, 1698312420, 0.095646225, -0.4791199, -0.11447567, -0.86498207, -4.390525, -0.6392291, 4.2616405, 0
1505, 1698329087, 0.0914411, -0.47368762, -0.10169418, -0.87001127, -5.168374, -3.5872397, 6.786766, 0
1507, 1698362421, 0.08589895, -0.4533833, -0.104396656, -0.8810045, -7.0869184, -1.580855, 8.978754, 0
1508, 1698379088, 0.08239797, -0.44004667, -0.11747116, -0.8864383, -5.7299843, -0.15002978, 7.8841915, 0
1511, 1698429089, 0.08098262, -0.40811452, -0.13911656, -0.8986287, 2.1132607, -0.0044777887, 1.7032251, 0
1512, 1698445756, 0.082694426, -0.40174517, -0.14160359, -0.90095145, 4.865836, -1.7375396, 1.7207737, 0
1513, 1698462423, 0.0831956, -0.39791822, -0.13667808, -0.90336114, 4.6083264, -3.3202515, 4.741046, 0
1515, 1698495757, 0.08502821, -0.38731408, -0.13214064, -0.90846, -0.29800457, -0.26098028, 6.683895, 0
1516, 1698512424, 0.08737214, -0.38176572, -0.13292193, -0.9104699, -0.49719635, 2.1912951, 4.5351486, 0
1521, 1698595759, 0.087027326, -0.37473038, -0.123177625, -0.91478586, -0.30711195, -1.6774613, 0.6907568, 0
1524, 1698645760, 0.08638425, -0.3784571, -0.12456771, -0.9131229, 0.36674282, 0.70130366, 0.12832642, 0
1525, 1698662427, 0.08670482, -0.3814474, -0.12439796, -0.91187054, 0.31243855, 0.57754946, 0.30040932, 0
1527, 1698695761, 0.08778366, -0.39055824, -0.1191922, -0.9086, 0.10723542, 0.12820202, -0.1249733, 0
1528, 1698712428, 0.088890016, -0.39501455, -0.11951695, -0.9065211, 0.092009276, 0.042671278, -0.03608322, 0
1530, 1698745762, 0.08988529, -0.40703645, -0.11583878, -0.90156865, 0.09003008, 0.017619433, -0.50912285, 0
1531, 1698762429, 0.0881835, -0.4141773, -0.11063761, -0.8991346, 0.11999556, -0.41453508, -0.17521763, 0
1532, 1698779096, 0.08508836, -0.42050016, -0.105391406, -0.8971259, 0.40098906, -0.34168118, -0.11413002, 0
1534, 1698812430, 0.07656576, -0.4356257, -0.10025571, -0.89124596, 0.09991662, -0.76538354, -1.2648487, 0
1535, 1698829097, 0.07207373, -0.44406095, -0.09784563, -0.8877185, -0.15454054, -0.5297333, -1.1976347, 0
1538, 1698879098, 0.061949782, -0.47048974, -0.096064106, -0.87497187, 0.24407218, 0.950364, -1.708868, 0
1539, 1698895765, 0.05849587, -0.47959918, -0.094160974, -0.8704592, 0.7028749, 0.94272536, -1.536026, 0
1540, 1698912432, 0.055556692, -0.4894701, -0.09157204, -0.86541873, 0.5044234, 0.7583317, -2.0591316, 0
1542, 1698945766, 0.053593826, -0.5092819, -0.08553553, -0.8546612, 0.035631776, 1.0423472, -2.8140507, 0
1544, 1698979100, 0.05248954, -0.5249327, -0.082935825, -0.84546715, 0.7614831, 1.3737667, -1.6013403, 0
1546, 1699012434, 0.052382827, -0.53653234, -0.08057742, -0.83839077, 0.5971456, 0.5007492, -1.1933374, 0
1547, 1699029101, 0.053676587, -0.5409863, -0.08138156, -0.8353637, 0.54860103, 0.99857336, -1.0980864, 0
1548, 1699045768, 0.05550807, -0.5450877, -0.0830224, -0.832411, 1.0507975, 0.98078334, -1.3557978, 0
1550, 1699079102, 0.059766844, -0.551801, -0.086285956, -0.8273459, 0.9759256, 1.6757121, -0.09776783, 0
1551, 1699095769, 0.06263194, -0.5547267, -0.087807566, -0.825014, 1.3956574, 1.5043344, -0.21648502, 0
1552, 1699112436, 0.06448619, -0.5574472, -0.087546274, -0.8230629, 1.727632, 0.3639058, -0.036667824, 0
1554, 1699145770, 0.06689415, -0.5636418, -0.08593266, -0.81881076, 1.160333, -0.5090498, 0.2004919, 0
1555, 1699162437, 0.06781751, -0.5670923, -0.08432742, -0.8165162, 0.6760769, -0.7189417, 0.0194664, 0
1557, 1699195771, 0.06999493, -0.5734487, -0.08127585, -0.81219095, 0.024317374, 0.2190448, 0.44065762, 0
1563, 1699295773, 0.07849111, -0.58412457, -0.07807454, -0.80407983, -0.35464427, -5.434391E-4, -0.09987831, 0
1565, 1699329107, 0.08198529, -0.58374584, -0.08028005, -0.803789, 0.20448215, 0.0071239728, -0.2729473, 0
1566, 1699345774, 0.08400309, -0.58326924, -0.08279915, -0.8036711, 0.19734755, 0.11371445, -0.35485363, 0
1569, 1699395775, 0.09307344, -0.57742816, -0.094968215, -0.8055418, 0.88470465, 0.041170023, -2.0719676, 0
1570, 1699412442, 0.09527534, -0.5732172, -0.09801663, -0.8079232, 0.9025628, 0.17338628, -2.7866673, 0
1571, 1699429109, 0.09728156, -0.5672378, -0.10149594, -0.8114671, 1.2500037, 0.3325747, -2.8312721, 0
1573, 1699462443, 0.10004821, -0.5535867, -0.105346285, -0.82002246, 2.1634772, -0.7738138, -4.245454, 0
1574, 1699479110, 0.09904292, -0.5471708, -0.10115688, -0.82496333, 1.8570504, 0.29635128, -4.4286413, 0
1575, 1699495777, 0.09973172, -0.54022396, -0.09996658, -0.82959104, 1.5062286, 1.2257379, -5.043934, 0
1577, 1699529111, 0.09919444, -0.5276952, -0.09041788, -0.8387642, 1.501449, 2.2719476, -7.0263777, 0
1579, 1699562445, 0.11224556, -0.5123088, -0.11199056, -0.84403884, -2.6641045, 3.2782211, -7.7955685, 0
1581, 1699595779, 0.113308996, -0.5003256, -0.115106635, -0.85064006, -3.439925, -2.850584, 8.739143, 0
1582, 1699612446, 0.110487625, -0.49511456, -0.10825074, -0.85494936, -6.436526, -3.5768867, 6.0707693, 0
1585, 1699662447, 0.105441615, -0.45679983, -0.1375661, -0.87252176, -2.5803363, -1.0820016, 7.905077, 0
1586, 1699679114, 0.10202945, -0.44486055, -0.14397962, -0.87804425, -1.4273713, -0.5145759, 5.574156, 0
1588, 1699712448, 0.0966827, -0.4250999, -0.15674421, -0.8862147, 0.110936075, -3.1682003, 0.5481014, 0
1589, 1699729115, 0.09885756, -0.41354227, -0.16488534, -0.8899582, 4.946785, -2.6549478, 3.524538, 0
1590, 1699745782, 0.103750125, -0.40497527, -0.1672618, -0.8928924, 6.035067, 0.63605165, 4.2547617, 0
1592, 1699779116, 0.10898378, -0.3927828, -0.16139147, -0.8987769, -1.2449006, -0.3130228, 7.49671, 0
1593, 1699795783, 0.11045569, -0.38802713, -0.1604191, -0.9008345, -0.07941471, 0.09035508, 3.7825928, 0
1597, 1699862451, 0.103425294, -0.38620326, -0.1470687, -0.90472305, 0.97958183, -1.7487774, 0.061066628, 0
1598, 1699879118, 0.099163756, -0.3881391, -0.14376706, -0.90490246, 0.35391012, -1.8339833, 1.2466297, 0
1600, 1699912452, 0.09131291, -0.3943386, -0.1357391, -0.904288, -0.017127693, -0.23879479, 0.81026363, 0
1602, 1699945786, 0.084713295, -0.40225467, -0.12526596, -0.9029541, 0.3152977, 0.5130446, 0.32083607, 0
1604, 1699979120, 0.078361794, -0.4110703, -0.11548105, -0.9008592, 0.2953607, 0.63359785, -0.6018534, 0
1608, 1700045788, 0.060658768, -0.43527442, -0.09104691, -0.8936274, -0.16045383, -0.508693, -1.5696478, 0
1609, 1700062455, 0.05649994, -0.4419308, -0.08641893, -0.8910888, -0.2181555, 0.2198867, -1.0964365, 0
1611, 1700095789, 0.04960789, -0.4551127, -0.083694875, -0.88510406, -0.53169084, 0.34647676, -1.079421, 0
1612, 1700112456, 0.047760967, -0.46260768, -0.080667436, -0.88159424, -0.65294015, 0.62177753, -1.4423304, 0
1615, 1700162457, 0.04734875, -0.484257, -0.07520375, -0.87040246, -0.031639297, 1.9433967, -1.1664133, 0
1616, 1700179124, 0.04688009, -0.49172115, -0.071384564, -0.86655617, 0.17712966, 0.77015513, -1.7634354, 0
1617, 1700195791, 0.047127314, -0.4985854, -0.068465225, -0.8628481, 0.030422753, 1.4167265, -1.8305583, 0
1620, 1700245792, 0.054863118, -0.514631, -0.075867556, -0.8522861, 0.48350507, 0.6842583, -1.4298191, 0
1621, 1700262459, 0.057387717, -0.51887155, -0.07404461, -0.8497053, 1.3419851, 0.19384192, -1.1332865, 0
1624, 1700312460, 0.0663857, -0.5308317, -0.07059083, -0.8419206, 1.1506909, -0.4630352, -0.41679573, 0
1625, 1700329127, 0.0693609, -0.5347384, -0.06977277, -0.83927244, 1.052429, 0.31700712, -0.95234776, 0
1627, 1700362461, 0.07255634, -0.54241407, -0.06819713, -0.8341909, 1.5340883, -0.17117877, -1.363162, 0
1628, 1700379128, 0.075072825, -0.5459588, -0.06902535, -0.83158356, 1.1018053, 1.0189112, -0.5426016, 0
1629, 1700395795, 0.077525325, -0.5481718, -0.07206116, -0.8296428, 1.0564872, 0.7793572, -0.10299492, 0
1632, 1700445796, 0.08057112, -0.5562399, -0.06754941, -0.82434535, 0.7852492, -0.7858767, 0.21110535, 0
1633, 1700462463, 0.082299046, -0.5586566, -0.06675738, -0.8226031, 0.6142293, -0.34833378, 0.1333313, 0
1635, 1700495797, 0.08675842, -0.56328446, -0.06859529, -0.81882894, 0.41699505, 0.1855955, 0.39352512, 0
1636, 1700512464, 0.0884776, -0.5656349, -0.0684569, -0.8170344, -0.18772073, 0.14193028, 0.3006239, 0
1638, 1700545798, 0.09030069, -0.5692954, -0.064323306, -0.81462497, -0.024004858, -0.011143406, 0.5726023, 0
1639, 1700562465, 0.092139065, -0.5702065, -0.06448941, -0.8137681, -0.24460247, 0.18056798, 0.83006287, 0
1640, 1700579132, 0.094599366, -0.57016265, -0.06612904, -0.81338495, -0.35522872, -0.52380234, 0.6805754, 0
1642, 1700612466, 0.09815283, -0.5707717, -0.062949345, -0.81278884, 0.21261774, -0.36654818, -0.5276718, 0
1646, 1700679134, 0.10872697, -0.5694662, -0.0721103, -0.8115968, 0.6212193, 0.20809059, 0.19075584, 0
1647, 1700695801, 0.110928655, -0.5692383, -0.07329775, -0.8113523, 1.1322948, -0.7939359, 0.031991005, 0
1650, 1700745802, 0.11582811, -0.5695386, -0.07700423, -0.81011295, 0.9827286, -0.38361412, -0.15480042, 0
1651, 1700762469, 0.11776843, -0.56941336, -0.07902753, -0.8097261, 0.44856784, -0.4090862, -0.61737347, 0
1652, 1700779136, 0.11917192, -0.5689368, -0.08031787, -0.8097286, 0.6070706, -0.42024133, -1.2172747, 0
1654, 1700812470, 0.1207723, -0.5658415, -0.086748056, -0.81099623, 0.589098, -0.44696942, -1.8858404, 0
1655, 1700829137, 0.1192927, -0.5641651, -0.08744614, -0.812307, 1.3379483, -0.9041215, -2.539657, 0
1656, 1700845804, 0.117218, -0.56230843, -0.08899286, -0.8137272, 0.5825294, -0.35775015, -2.4785266, 0
1658, 1700879138, 0.111393824, -0.5545325, -0.090317406, -0.8197137, 1.3731725, 0.043930717, -3.2852287, 0
1659, 1700895805, 0.10929775, -0.54807633, -0.09015056, -0.8243433, 1.449517, 0.6399345, -3.8535962, 0
1660, 1700912472, 0.107158974, -0.5415653, -0.08692522, -0.82925904, 1.7369682, 0.5730577, -5.163128, 0
1662, 1700945806, 0.1063322, -0.5275644, -0.08652184, -0.8383829, -1.0774926, 1.4375606, -7.2802105, 0
1665, 1700995807, 0.114269465, -0.50387794, -0.09850292, -0.85049945, -0.7471119, 0.623836, -3.357966, 0
1666, 1701012474, 0.10903321, -0.501039, -0.09074086, -0.85372156, -4.545287, -1.5325927, -0.9691944, 0
1667, 1701029141, 0.103062764, -0.4937831, -0.097179554, -0.85797155, -6.4049783, -1.0492058, 1.4146252, 0
1669, 1701062475, 0.09172858, -0.47423917, -0.10319409, -0.8695038, -7.6976066, -2.9483705, 8.969828, 0
1670, 1701079142, 0.0881253, -0.461587, -0.11015381, -0.8758083, -6.992233, -0.26445964, 7.881109, 0
1671, 1701095809, 0.0865839, -0.44894534, -0.11932496, -0.8813147, -6.2920914, 2.0963502, 8.190424, 0
1673, 1701129143, 0.08164969, -0.4319345, -0.12807205, -0.88902545, 1.1485075, 1.4818345, 2.690936, 0
1674, 1701145810, 0.07816942, -0.426194, -0.12578538, -0.89242864, 5.0485644, -5.1802998, 2.1082134, 0
1677, 1701195811, 0.07776192, -0.40628263, -0.11132487, -0.90360224, 1.4889464, 0.0073718065, 9.705002, 0
1678, 1701212478, 0.07941775, -0.40103972, -0.107620955, -0.90624523, 0.6004391, 2.094118, 6.2005634, 0
1681, 1701262479, 0.07499789, -0.39632535, -0.09003802, -0.9106027, 0.98773116, -1.3844217, 0.51008415, 0
1682, 1701279146, 0.07138203, -0.39760125, -0.08391791, -0.9109216, -0.5363617, -2.4161367, 1.4371166, 0
1683, 1701295813, 0.06920787, -0.39906695, -0.08022013, -0.9107816, -0.75859314, -2.3831303, 1.4640875, 0
1686, 1701345814, 0.06764547, -0.4053013, -0.08224008, -0.9079614, 0.41280216, 0.3864839, 0.56592655, 0
1687, 1701362481, 0.06872985, -0.4084248, -0.08159104, -0.9065378, 0.16767618, 0.015805928, 0.34835815, 0
1689, 1701395815, 0.07109934, -0.41687733, -0.076569736, -0.9029386, -0.23575552, 0.25040027, -0.16407776, 0
1690, 1701412482, 0.07241489, -0.4212141, -0.07749428, -0.9007397, 0.26211038, -0.41820604, -0.49627972, 0
1692, 1701445816, 0.07190095, -0.43337274, -0.07039715, -0.895581, -0.04664439, -0.45978558, -1.8086939, 0
1693, 1701462483, 0.070173934, -0.43997547, -0.067486815, -0.89271796, -0.14530714, -0.55266094, -2.034875, 0
1694, 1701479150, 0.06865437, -0.44639125, -0.067338996, -0.88965714, 0.15237968, -1.0200195, -1.984632, 0
1696, 1701512484, 0.06482251, -0.4604201, -0.06317464, -0.88307595, 0.3092339, -0.57837754, -2.145893, 0
1697, 1701529151, 0.06303962, -0.4679827, -0.062372424, -0.8792784, 0.28517294, -0.31062666, -2.576589, 0
1698, 1701545818, 0.06181722, -0.47583115, -0.062560916, -0.8751297, 0.27284354, 0.1252185, -2.821525, 0
1700, 1701579152, 0.060618013, -0.49073035, -0.06302552, -0.86691374, 0.11262683, 0.90276116, -1.8420863, 0
1701, 1701595819, 0.06128309, -0.4979638, -0.06364804, -0.8626864, 0.3825365, 1.3936409, -1.5375271, 0
1702, 1701612486, 0.061928973, -0.5047664, -0.063239425, -0.8587078, 0.50242835, 1.6131994, -1.9795384, 0
1705, 1701662487, 0.06647144, -0.52515304, -0.06331877, -0.8460435, 0.12244283, 1.6409818, -1.2109632, 0
1706, 1701679154, 0.06838228, -0.5299218, -0.064075306, -0.84285444, 0.013986344, 1.3127657, -0.9758215, 0
1708, 1701712488, 0.07397668, -0.53869146, -0.06363887, -0.8368344, -0.036429744, 0.30425298, 0.03165531, 0
1710, 1701745822, 0.08187631, -0.54632974, -0.067514986, -0.8308215, 0.6733923, 0.97231823, 1.3097515, 0
1714, 1701812490, 0.081994474, -0.56174093, -0.051220663, -0.8216466, 0.21105129, -0.7990171, -0.68242264, 0
1716, 1701845824, 0.08676134, -0.56538963, -0.058166116, -0.8181847, 0.042750616, 0.9633629, 1.0389814, 0
1717, 1701862491, 0.08814776, -0.56844854, -0.057072937, -0.8159911, 0.22484161, 0.47387362, 0.2540779, 0
1719, 1701895825, 0.08579895, -0.57338583, -0.048483193, -0.8133384, 0.40080047, -0.7157692, -1.8318939, 0
1720, 1701912492, 0.08671661, -0.5742384, -0.05130905, -0.8124658, 0.7979802, 0.32714596, -1.3837004, 0
1721, 1701929159, 0.09002086, -0.5730974, -0.05790995, -0.8124682, 0.8075171, 0.90961885, 0.2242136, 0
1724, 1701979160, 0.09524307, -0.57800364, -0.06040959, -0.8082042, 0.62656194, -1.0350684, -0.25774384, 0
1725, 1701995827, 0.0960327, -0.580685, -0.059590302, -0.806247, 1.0013434, -1.1175054, -0.7439709, 0
1727, 1702029161, 0.09967852, -0.58195376, -0.0631125, -0.80462015, 0.4930502, -0.32012162, 0.04654026, 0
1729, 1702062495, 0.10235438, -0.5852529, -0.065562546, -0.80168986, 0.4030565, 0.1866892, 0.6022568, 0
1731, 1702095829, 0.10376661, -0.5886069, -0.0657194, -0.79903555, 0.3931255, -0.38440457, -0.67777634, 0
1732, 1702112496, 0.10410829, -0.5900522, -0.06529264, -0.7979594, 0.4354631, -0.6533313, -1.1812229, 0
1733, 1702129163, 0.10426292, -0.5921914, -0.06524296, -0.79635704, 0.9108202, 0.27803072, -1.0518112, 0
1735, 1702162497, 0.105334625, -0.5939516, -0.07359877, -0.79417384, 0.5691443, 1.5809214, 0.59978104, 0
1736, 1702179164, 0.10528071, -0.5945658, -0.07792872, -0.7933077, 0.8759339, 0.24623579, 0.82685566, 0
1739, 1702229165, 0.102531716, -0.5946022, -0.07983598, -0.7934509, 0.59923464, -1.0186406, -0.09682274, 0
1740, 1702245832, 0.10120703, -0.59293157, -0.08218585, -0.7946306, 0.5267273, -0.011673663, 0.5628662, 0
1743, 1702295833, 0.0964002, -0.59038186, -0.07958777, -0.7973862, 0.17751034, 0.10069664, 0.36716175, 0
1746, 1702345834, 0.09352276, -0.589205, -0.07920182, -0.7986367, 0.45773268, 0.9042694, 0.16802883, 0
1748, 1702379168, 0.091942936, -0.5875591, -0.07875858, -0.8000753, 0.3021711, -0.09840015, 0.507905, 0
1750, 1702412502, 0.09070909, -0.5866395, -0.07619447, -0.80113864, 0.58442825, -0.8458857, -0.19121647, 0
1751, 1702429169, 0.090178356, -0.5863858, -0.07431168, -0.801561, 0.6934548, -0.50076056, -0.5039997, 0
1756, 1702512504, 0.08912916, -0.5834583, -0.07406678, -0.803834, 1.4174414, -0.695745, -0.22551155, 0
1758, 1702545838, 0.08985477, -0.5829367, -0.075679205, -0.8039815, 0.61363345, -0.51767933, -0.6494427, 0
1760, 1702579172, 0.09099709, -0.58230144, -0.077133425, -0.8041751, -0.45556054, 2.1259418, 0.54561996, 0
1762, 1702612506, 0.089365914, -0.5825779, -0.073659584, -0.8044835, 1.6074774, 0.4362581, 0.07315159, 0
1763, 1702629173, 0.09035304, -0.58155006, -0.07890594, -0.8046194, 0.2999436, 1.5650232, 0.41429234, 0
1764, 1702645840, 0.08930139, -0.581703, -0.07693728, -0.80481684, 1.6977062, -1.2393059, -0.7107563, 0
1766, 1702679174, 0.08986989, -0.58065486, -0.07811333, -0.80539703, 0.6654389, 0.83175504, 0.63422203, 0
1768, 1702712508, 0.09054047, -0.5799926, -0.07905263, -0.8057073, 1.348069, 1.2367209, 0.54006577, 0
1770, 1702745842, 0.08977963, -0.58002853, -0.07663417, -0.80600023, 2.9501965, -0.061158523, -0.06834221, 0
1771, 1702762509, 0.092001416, -0.57892054, -0.08340529, -0.80587405, 0.85612476, 1.7043794, 0.7203169, 0
1773, 1702795843, 0.09178704, -0.5792568, -0.08029953, -0.80597234, 2.3632846, -0.28844485, -0.20069599, 0
1774, 1702812510, 0.092641205, -0.57920545, -0.08299538, -0.80563825, 1.1645659, 1.5244417, -0.2568617, 0
1775, 1702829177, 0.09285019, -0.57917064, -0.08293496, -0.8056455, 2.5376477, 0.031459685, -0.78431416, 0
1777, 1702862511, 0.09546979, -0.578709, -0.086066276, -0.8053427, 1.8665445, 1.6063867, -0.17138958, 0
1778, 1702879178, 0.09669755, -0.57857496, -0.087502316, -0.80513763, 2.6692944, 0.46800217, -0.53677845, 0
1779, 1702895845, 0.09751743, -0.5790198, -0.08743743, -0.804726, 3.5502706, 0.1575632, -0.44894314, 0
1781, 1702929179, 0.099873826, -0.5800961, -0.09194427, -0.80315787, 2.9263074, -0.37906104, -0.7179613, 0
1782, 1702945846, 0.10019552, -0.5812379, -0.09029215, -0.80247957, 3.5087016, -0.6590225, -0.33285904, 0
1783, 1702962513, 0.10102642, -0.58205706, -0.09263286, -0.80151415, 1.8256567, 1.3136824, 0.4043169, 0
1785, 1702995847, 0.10099031, -0.58436996, -0.09322894, -0.79976475, 3.1346009, -0.7378752, -0.07688904, 0
1786, 1703012514, 0.100742474, -0.5855227, -0.09305282, -0.79897296, 2.598162, 1.5418693, 0.37810802, 0
1789, 1703062515, 0.1002552, -0.5884411, -0.09219611, -0.7969871, 2.4410954, 0.376073, 0.27811337, 0
1790, 1703079182, 0.100685686, -0.58901405, -0.09481018, -0.79620254, 1.7492161, 1.7086767, 0.41469097, 0
1793, 1703129183, 0.10148755, -0.5937664, -0.09380179, -0.7926826, 2.9687016, 0.8607107, 0.10975933, 0
1794, 1703145850, 0.101720154, -0.59554124, -0.094388016, -0.79125035, 2.9171634, 0.9687858, 0.15927315, 0
1795, 1703162517, 0.10237451, -0.5973827, -0.09571861, -0.7896163, 2.904544, 0.20073467, 0.048431396, 0
1798, 1703212518, 0.10073929, -0.6056759, -0.08884611, -0.78429425, 2.8756592, 0.6508763, -0.019687653, 0
1800, 1703245852, 0.09982082, -0.61125773, -0.08541988, -0.7804523, 3.63546, 0.70901245, -0.45471668, 0
1801, 1703262519, 0.09945774, -0.61443424, -0.0861542, -0.7779195, 3.220744, 1.8499614, -0.39558792, 0
1802, 1703279186, 0.10012323, -0.616231, -0.089306906, -0.7760551, 2.7889087, 1.8293713, -0.24273396, 0
1804, 1703312520, 0.10128838, -0.62212354, -0.08906647, -0.77121526, 3.5498471, -0.014555136, -0.07042694, 0
1806, 1703345854, 0.10208071, -0.6311246, -0.09060332, -0.7635805, 3.2807076, 1.3982879, -0.13285446, 0
1808, 1703379188, 0.104650855, -0.63382965, -0.09166679, -0.76086, 3.6470044, 0.49386156, 0.054286957, 0
1809, 1703395855, 0.1060691, -0.63626856, -0.091600254, -0.75863296, 3.5874524, 0.48067293, -0.24099255, 0
1810, 1703412522, 0.10667227, -0.6392995, -0.091653004, -0.75598925, 3.605878, 0.8997011, -0.41570663, 0
1812, 1703445856, 0.10870981, -0.64132774, -0.09557573, -0.75349116, 2.9169612, 1.3184881, -0.20199394, 0
1814, 1703479190, 0.110884845, -0.64182675, -0.09893797, -0.7523143, 3.078726, 0.36832413, 0.31280422, 0
1816, 1703512524, 0.111047626, -0.64488655, -0.104253955, -0.7489484, 3.3194156, 0.9912802, 0.33563805, 0
1817, 1703529191, 0.111516245, -0.6449769, -0.10716268, -0.74839026, 2.5935774, 1.060435, 0.35104942, 0
1818, 1703545858, 0.11202696, -0.64382625, -0.109747656, -0.74892986, 2.4525352, 0.04165379, 0.49857235, 0
1820, 1703579192, 0.11142258, -0.64442545, -0.111790836, -0.74820197, 3.1625223, 0.26407364, 0.42622852, 0
1822, 1703612526, 0.11045061, -0.64503694, -0.116072685, -0.74716663, 2.4820569, 1.4635303, 0.09808254, 0
1824, 1703645860, 0.108912535, -0.6429726, -0.11938508, -0.7486482, 2.1497278, -0.79651964, 0.3452072, 0
1825, 1703662527, 0.10850716, -0.6434199, -0.119266115, -0.7483418, 2.2732265, -0.4038053, -0.10508442, 0
1827, 1703695861, 0.10803873, -0.6459636, -0.121002614, -0.7459353, 2.9724746, 2.0835605, -0.3285694, 0
1828, 1703712528, 0.1085857, -0.6450906, -0.1231313, -0.74626297, 2.361517, 1.982262, -0.102537155, 0
1831, 1703762529, 0.10868566, -0.6428763, -0.12773588, -0.74738455, 2.4428887, -0.8952256, -0.28235722, 0
1832, 1703779196, 0.10866776, -0.64431137, -0.12819666, -0.7460715, 2.5754013, 0.100427665, -0.4537487, 0
1833, 1703795863, 0.108710274, -0.645627, -0.12825541, -0.7449168, 2.7598882, 1.2758305, -0.33592892, 0
1836, 1703845864, 0.10855873, -0.64711565, -0.13201414, -0.7429881, 3.053942, 0.9859198, -0.16707802, 0
1839, 1703895865, 0.107579075, -0.64503074, -0.13588172, -0.7442451, 2.1160917, 0.32982287, -0.5032816, 0
1841, 1703929199, 0.10718011, -0.642578, -0.13606152, -0.7463885, 1.9765626, 0.35372213, 0.6313305, 0
1844, 1703979200, 0.10297676, -0.6428902, -0.13671848, -0.7465913, 3.0380046, 0.8846416, 0.007860184, 0
1845, 1703995867, 0.10086493, -0.64287496, -0.13627079, -0.74697447, 2.4798236, 0.70645696, -0.45908833, 0
1847, 1704029201, 0.09695771, -0.6411917, -0.1356754, -0.74904406, 2.540336, 0.41019416, -0.24591637, 0
1851, 1704095869, 0.09245673, -0.6359939, -0.14866552, -0.7515748, 1.9261186, 1.1263802, -0.40123844, 0
1855, 1704162537, 0.08488788, -0.64039594, -0.16937536, -0.74431276, 1.7570007, 0.61946267, 0.2224102, 0
1856, 1704179204, 0.08360329, -0.64171344, -0.1723749, -0.7426331, 2.5359547, 0.37278998, 1.259655, 0
1858, 1704212538, 0.07791511, -0.6495893, -0.17180544, -0.7365111, 3.0244722, -0.40619218, 1.5184765, 0
1860, 1704245872, 0.07106667, -0.65639186, -0.17006266, -0.73156047, 2.402469, 0.4246718, 0.34794807, 0
1862, 1704279206, 0.0640151, -0.6623475, -0.1638096, -0.728263, 1.81712, 0.6545204, -0.42327595, 0
1864, 1704312540, 0.061344154, -0.6656815, -0.16085105, -0.7261093, 2.2246902, 0.833162, -0.74797153, 0
1866, 1704345874, 0.062407766, -0.6686193, -0.15990469, -0.72352374, 2.2792537, 0.8450143, -1.0169115, 0
1867, 1704362541, 0.06398859, -0.67021453, -0.16076063, -0.72171783, 2.6032662, 0.96873534, -0.8614054, 0
1868, 1704379208, 0.06602864, -0.67205083, -0.16175592, -0.71960104, 2.7591646, 1.0197105, -0.7113247, 0
1870, 1704412542, 0.070358545, -0.67571175, -0.16241126, -0.71560365, 2.533267, 0.40065804, -0.40597534, 0
1871, 1704429209, 0.072384864, -0.6769747, -0.16200326, -0.71429914, 2.1419642, -0.036815032, -0.2505932, 0
1872, 1704445876, 0.07416565, -0.6778526, -0.16218117, -0.7132428, 1.631562, -0.20634386, -0.061618805, 0
1874, 1704479210, 0.07726572, -0.67806333, -0.16469172, -0.71213716, 0.86429155, -0.5191937, 0.24449253, 0
1875, 1704495877, 0.07843119, -0.6788003, -0.16572557, -0.7110671, 0.7702366, -0.5377841, 0.33372116, 0
1876, 1704512544, 0.07928419, -0.68012613, -0.16608173, -0.7096211, 0.4627333, -0.31737962, 0.13369274, 0
1878, 1704545878, 0.079967916, -0.682375, -0.16500072, -0.7076348, 0.68166965, -0.005827346, 0.40995312, 0
1879, 1704562545, 0.07984291, -0.68375427, -0.1641146, -0.70652264, 0.59688354, 0.2641301, 0.39922428, 0
1880, 1704579212, 0.079431996, -0.6848535, -0.16375303, -0.7055875, 0.3436981, 0.3445694, 0.400074, 0
1882, 1704612546, 0.07796921, -0.68594503, -0.165851, -0.704199, 0.42489645, -0.17829345, 0.152771, 0
1885, 1704662547, 0.076536685, -0.69087785, -0.16612282, -0.6994539, -1.925634E-4, -0.4005802, 0.46134377, 0
1886, 1704679214, 0.07610894, -0.69335264, -0.16358107, -0.69764864, -0.033143077, -0.27394313, 0.3685665, 0
1887, 1704695881, 0.0756163, -0.69577175, -0.1602084, -0.6960744, -0.21694572, -0.27067018, 0.19785023, 0
1889, 1704729215, 0.07413334, -0.69890046, -0.15153094, -0.6950421, -0.32344794, -0.5217774, 0.118878365, 0
1890, 1704745882, 0.0731587, -0.70006037, -0.14630139, -0.69509834, -0.117060706, -0.6561818, 0.20072651, 0
1891, 1704762549, 0.07210122, -0.7011618, -0.1412126, -0.6951511, -0.05045782, -0.5109155, 0.13845348, 0
1893, 1704795883, 0.07070552, -0.7019963, -0.13265195, -0.69613785, -0.19518371, 0.51351976, -0.025403976, 0
1894, 1704812550, 0.070433274, -0.70225537, -0.12996328, -0.6964113, -0.3284284, 0.8334398, -0.32866, 0
1895, 1704829217, 0.07002817, -0.7024653, -0.12967432, -0.6962944, -0.6418246, 0.67682236, -0.42562294, 0
1897, 1704862551, 0.070130736, -0.7034052, -0.13093999, -0.6950973, -0.6656182, 0.90905946, -0.607955, 0
1899, 1704895885, 0.071692556, -0.7042631, -0.13323796, -0.693631, -0.15348679, 0.27135858, -0.19171333, 0
1901, 1704929219, 0.07213499, -0.7080547, -0.13241561, -0.6898723, -0.08661677, -0.11511186, 0.075042725, 0
1902, 1704945886, 0.07130391, -0.709939, -0.1319553, -0.6881082, 0.03232098, -0.1586935, 0.23784351, 0
1903, 1704962553, 0.069888756, -0.7124003, -0.13243756, -0.6856125, 0.19403844, -0.05335805, 0.22724915, 0
1905, 1704995887, 0.06567192, -0.7164305, -0.1347004, -0.6813756, -0.45015335, -0.29342544, 0.012284279, 0
1906, 1705012554, 0.06350579, -0.7175852, -0.1365667, -0.6799931, -0.5941127, -0.031559918, 0.08437061, 0
1908, 1705045888, 0.05990108, -0.7190839, -0.13879873, -0.67828286, -0.7296119, 0.33191043, 0.17372799, 0
1909, 1705062555, 0.058986478, -0.71908385, -0.1393519, -0.67824966, -0.65702444, 0.27497837, 0.13409424, 0
1910, 1705079222, 0.058615454, -0.7191698, -0.14045191, -0.6779638, -0.3016409, 0.46972558, 0.10728359, 0
1912, 1705112556, 0.058951475, -0.72024405, -0.14259796, -0.6763443, -0.19805855, 0.5011045, 0.03545761, 0
1914, 1705145890, 0.058021642, -0.7268045, -0.13915056, -0.67009574, -0.2557282, 0.17626642, 0.13445187, 0
1916, 1705179224, 0.057847, -0.7315809, -0.13640165, -0.66546255, -0.477987, -0.079563715, 0.16132832, 0
1917, 1705195891, 0.058050945, -0.73280114, -0.13571376, -0.66424155, -0.010174555, -0.45736343, 0.20428562, 0
1918, 1705212558, 0.058189224, -0.73413205, -0.13436317, -0.6630334, -0.09954468, -0.36276942, 0.13855934, 0
1920, 1705245892, 0.058100253, -0.7361705, -0.13072549, -0.6615064, -0.20040525, -0.19825606, 0.07795143, 0
1921, 1705262559, 0.057503276, -0.73807234, -0.1265201, -0.660256, -0.22184147, -0.20154451, 0.17618084, 0
1924, 1705312560, 0.055462435, -0.74385256, -0.11670869, -0.6557353, -0.2682043, -0.22842288, 0.06873417, 0
1925, 1705329227, 0.05461219, -0.74579835, -0.11375223, -0.65411407, -0.3027775, -0.31043452, -0.11818886, 0
1926, 1705345894, 0.0538841, -0.7474108, -0.11116542, -0.65277755, -0.38423917, -0.41191643, -0.18240833, 0
1929, 1705395895, 0.052413642, -0.7493842, -0.108381435, -0.6511007, -0.08408555, -0.12381152, -0.16109943, 0
1932, 1705445896, 0.04954318, -0.7513543, -0.10670067, -0.6493303, -0.2045027, -0.09732888, -0.03252697, 0
1933, 1705462563, 0.048588112, -0.75234383, -0.10583633, -0.64839745, -0.11058759, 0.017107556, -0.1331091, 0
1935, 1705495897, 0.046884388, -0.7537185, -0.1054955, -0.64698046, -0.31953123, -0.07299765, 0.14736176, 0
1936, 1705512564, 0.046494216, -0.75383097, -0.10605253, -0.64678663, -0.13268214, 0.12304845, 0.20734692, 0
1937, 1705529231, 0.046237748, -0.75405264, -0.10615073, -0.6465304, -0.083407275, 0.25776532, 0.13894463, 0
1939, 1705562565, 0.04605236, -0.7543695, -0.10570921, -0.6462462, -0.24638803, 0.045416113, 0.1864605, 0
1940, 1705579232, 0.04644606, -0.7541797, -0.10565621, -0.6464481, -0.16984028, 0.09298478, 0.15796185, 0
1941, 1705595899, 0.046930872, -0.75422007, -0.10550256, -0.6463913, -0.05357239, 0.24638063, 0.07012367, 0
1943, 1705629233, 0.04762826, -0.7545567, -0.104178935, -0.646162, -0.18612884, -0.18175578, 0.0016403198, 0
1944, 1705645900, 0.047944427, -0.7551625, -0.10204464, -0.64577127, -0.42016572, 0.095448345, 0.03627205, 0
1945, 1705662567, 0.048052695, -0.75588024, -0.10078166, -0.64512146, -0.62574476, 0.06893053, 0.0503397, 0
1947, 1705695901, 0.048058335, -0.75623614, -0.10068388, -0.644719, -0.43255913, 0.015412364, -0.29906845, 0
1948, 1705712568, 0.04807944, -0.7563175, -0.10131447, -0.64452326, -0.36576083, 0.15674129, -0.15367603, 0
1949, 1705729235, 0.048165165, -0.7563996, -0.10209, -0.64429796, -0.26354757, 0.19693576, -0.047804832, 0
1951, 1705762569, 0.04823998, -0.75685847, -0.10492321, -0.6432979, -0.06180261, 0.049123775, -0.088308334, 0
1952, 1705779236, 0.048359185, -0.75692576, -0.10678837, -0.6429026, -0.066756055, -0.007958961, -0.08202648, 0
1953, 1705795903, 0.048778042, -0.75662315, -0.109145865, -0.6428314, -0.07903223, 0.23972647, 0.02821827, 0
1955, 1705829237, 0.050198548, -0.7551952, -0.11401939, -0.6435546, 0.07161389, -0.00512789, 0.15533352, 0
1956, 1705845904, 0.051027298, -0.7543187, -0.1162194, -0.6441236, 0.096794195, -0.27322513, 0.14226818, 0
1959, 1705895905, 0.05443386, -0.7515755, -0.121772856, -0.6460225, -0.09311837, 0.058720425, 0.01813507, 0
1960, 1705912572, 0.056147784, -0.74994904, -0.12385148, -0.6473694, -0.4047312, 0.035586685, 0.197299, 0
1962, 1705945906, 0.06033981, -0.74604625, -0.1290676, -0.6504755, 0.45705777, 0.15357782, -0.06341076, 0
1963, 1705962573, 0.06206108, -0.7447834, -0.13068612, -0.65143675, 0.055364277, 0.32682627, -0.1696291, 0
1964, 1705979240, 0.063691914, -0.7437129, -0.13186258, -0.6522648, 0.014590849, 0.20372121, -0.09823227, 0
1966, 1706012574, 0.066056296, -0.7441106, -0.13101345, -0.65174705, -0.44307265, -0.049799915, -0.043813705, 0
1967, 1706029241, 0.067192286, -0.7440935, -0.13179186, -0.6514935, -0.33051106, -0.10855654, -0.11542988, 0
1968, 1706045908, 0.06814326, -0.74381024, -0.13324213, -0.6514231, -0.071754016, -0.14446834, -0.13073063, 0
1970, 1706079242, 0.06950143, -0.7443673, -0.1358571, -0.6501019, -0.0735285, -0.278998, 0.046728134, 0
1971, 1706095909, 0.07005861, -0.7445871, -0.13736168, -0.64947385, -0.26053274, -0.26615214, 0.08389759, 0
1974, 1706145910, 0.069339976, -0.7461608, -0.13933948, -0.6473201, -0.15390038, -0.32051584, 0.16306782, 0
1975, 1706162577, 0.06867271, -0.7468068, -0.14012916, -0.64647514, -0.16399305, -0.11582806, -0.056220055, 0
1976, 1706179244, 0.06787696, -0.7472863, -0.14086753, -0.6458445, -0.13729729, -0.0972678, -0.15320969, 0
1978, 1706212578, 0.06618983, -0.74744546, -0.14239325, -0.6455007, -0.12886766, -0.15084334, -0.023322105, 0
1979, 1706229245, 0.065538965, -0.7476177, -0.14248681, -0.64534694, 0.004586648, -0.14407888, 0.034588814, 0
