sep=,
DeviceTag:,Xsens_DOT_1,,,,,,,,,,,,,,,,,
FirmwareVersion:,3.0.0,,,,,,,,,,,,,,,,,
AppVersion:,2023.6.1,,,,,,,,,,,,,,,,,
SyncStatus:,Synced,,,,,,,,,,,,,,,,,
OutputRate:,60Hz,,,,,,,,,,,,,,,,,
FilterProfile:,General,,,,,,,,,,,,,,,,,
Measurement Mode:,Sensor fusion Mode - Extended (Quaternion),,,,,,,,,,,,,,,,,
StartTime:,2025-05-05 11:34:40.246 +0200,,,,,,,,,,,,,,,,,
 2025,,,,,,,,,,,,,,,,,,,

PacketCounter,SampleTimeFine,Quat_W,Quat_X,Quat_Y,Quat_Z,FreeAcc_X,FreeAcc_Y,FreeAcc_Z,Status
1, 1673261919, -0.86944544, -0.19997004, -0.10325344, 0.4398585, -0.009206499, 0.11510072, 0.34667778, 0
2, 1673278586, -0.8694694, -0.19995572, -0.10324983, 0.4398188, 0.020474346, 0.11532772, 0.35680962, 0
3, 1673295253, -0.86948717, -0.19996093, -0.10324402, 0.4397822, 0.015018394, 0.13757426, 0.33874702, 0
4, 1673311920, -0.86948204, -0.19997293, -0.10323945, 0.43978804, 0.015834998, 0.10310431, 0.3736496, 0
5, 1673328587, -0.8694725, -0.19997798, -0.10321704, 0.43981004, 0.013313885, 0.12694636, 0.38143158, 0
6, 1673345254, -0.8694291, -0.19996911, -0.10318988, 0.4399059, 0.0055420035, 0.12753884, 0.35324383, 0
7, 1673361921, -0.8694, -0.19995584, -0.103181094, 0.4399718, 0.021848839, 0.121549726, 0.34244537, 0
8, 1673378588, -0.86940515, -0.19995503, -0.10317632, 0.43996295, 0.026153699, 0.11767145, 0.3691473, 0
9, 1673395255, -0.8694072, -0.19996686, -0.10315739, 0.439958, 0.0038733678, 0.11953585, 0.3675375, 0
10, 1673411922, -0.86939234, -0.1999694, -0.10313879, 0.4399905, 0.0075631198, 0.11611792, 0.3596115, 0
11, 1673428589, -0.8693893, -0.19997354, -0.10312055, 0.43999892, 0.013972018, 0.12011337, 0.3657837, 0
12, 1673445256, -0.86938465, -0.1999693, -0.1031128, 0.4400119, 0.021412319, 0.13571201, 0.374547, 0
13, 1673461923, -0.8693907, -0.19997928, -0.10309556, 0.4399994, 0.0026362236, 0.11134808, 0.35699654, 0
14, 1673478590, -0.86939263, -0.199993, -0.103078976, 0.43999308, 0.0010455936, 0.13191676, 0.33907986, 0
15, 1673495257, -0.8693971, -0.19999255, -0.10307067, 0.43998665, 0.0092345495, 0.10826069, 0.34064102, 0
16, 1673511924, -0.8693981, -0.19999158, -0.10306298, 0.4399871, 0.0167143, 0.11974525, 0.3660326, 0
17, 1673528591, -0.86939573, -0.20000133, -0.10304773, 0.43999052, 0.011559866, 0.1256217, 0.35412788, 0
18, 1673545258, -0.86938226, -0.20002337, -0.103021316, 0.44001353, 0.007517523, 0.12863562, 0.3519249, 0
19, 1673561925, -0.86940503, -0.20002155, -0.103014156, 0.43997103, -9.2042633E-4, 0.12385786, 0.3601036, 0
20, 1673578592, -0.8693989, -0.20002696, -0.1029838, 0.43998796, 0.011929221, 0.10579664, 0.36328793, 0
21, 1673595259, -0.86939883, -0.20003264, -0.102968425, 0.43998927, 0.00870717, 0.116219625, 0.376997, 0
22, 1673611926, -0.869393, -0.20004077, -0.10294649, 0.44000185, 0.02036203, 0.13633494, 0.36100388, 0
23, 1673628593, -0.8694236, -0.20004897, -0.10294975, 0.43993706, 0.008902992, 0.1267402, 0.35835838, 0
24, 1673645260, -0.86941946, -0.20006229, -0.102927744, 0.43994454, 0.017720219, 0.09524664, 0.37226963, 0
25, 1673661927, -0.8694391, -0.20007645, -0.10291809, 0.43990156, 0.026625982, 0.13492818, 0.35617256, 0
26, 1673678594, -0.8694552, -0.20008844, -0.10290582, 0.439867, 0.020255862, 0.12278445, 0.36492538, 0
27, 1673695261, -0.86945486, -0.20009053, -0.1028756, 0.43987405, 0.01899279, 0.09932972, 0.37389088, 0
28, 1673711928, -0.8694999, -0.20006686, -0.10285317, 0.43980107, 5.9487973E-4, 0.12356885, 0.34132957, 0
29, 1673728595, -0.86950606, -0.20004895, -0.10282239, 0.439804, -0.013387979, 0.12405171, 0.35954, 0
30, 1673745262, -0.8694937, -0.20003071, -0.10280974, 0.43984005, 0.01747145, 0.112801984, 0.35058594, 0
31, 1673761929, -0.86949944, -0.20003052, -0.10278976, 0.43983293, 0.006401076, 0.12396249, 0.35469627, 0
32, 1673778596, -0.8694949, -0.20004223, -0.10278004, 0.4398393, 0.006572175, 0.12969325, 0.35577774, 0
33, 1673795263, -0.86949563, -0.20005113, -0.102797136, 0.43982995, 0.007446893, 0.10808524, 0.3402033, 0
34, 1673811930, -0.8694958, -0.20006196, -0.102815874, 0.43981993, 4.149518E-4, 0.12776554, 0.34937096, 0
35, 1673828597, -0.869482, -0.20008597, -0.1028454, 0.43982968, 0.02183878, 0.13243729, 0.3492136, 0
36, 1673845264, -0.8694469, -0.20010825, -0.10286077, 0.4398851, 0.022053353, 0.12605171, 0.37428093, 0
37, 1673861931, -0.86941373, -0.20012787, -0.102858394, 0.4399425, 0.013142226, 0.12533905, 0.34238625, 0
38, 1673878598, -0.86936885, -0.20015968, -0.10285394, 0.44001758, 0.014644457, 0.12782426, 0.3366661, 0
39, 1673895265, -0.86936074, -0.20018034, -0.102881454, 0.4400178, 0.01305785, 0.12726562, 0.33043766, 0
40, 1673911932, -0.8693404, -0.20019902, -0.102898784, 0.4400453, 0.021877225, 0.10128368, 0.36065865, 0
41, 1673928599, -0.8693447, -0.20020486, -0.102903344, 0.44003302, 0.002143601, 0.112201884, 0.37941647, 0
42, 1673945266, -0.869337, -0.20019917, -0.10291735, 0.4400477, 0.011036399, 0.13398819, 0.34808922, 0
43, 1673961933, -0.8693377, -0.20019743, -0.10293163, 0.44004384, 0.01168671, 0.14239244, 0.3427391, 0
45, 1673995267, -0.86927676, -0.20020047, -0.10296048, 0.4401562, 0.0014016498, 0.1326641, 0.35056305, 0
46, 1674011934, -0.86924946, -0.20020415, -0.1029936, 0.44020063, 0.0011895763, 0.12924038, 0.34007263, 0
47, 1674028601, -0.8692336, -0.20019813, -0.103037566, 0.4402245, -0.0050054607, 0.11959668, 0.34427452, 0
49, 1674061935, -0.8691994, -0.20025837, -0.10314132, 0.4402402, 0.012936036, 0.12493695, 0.34917545, 0
50, 1674078602, -0.86915493, -0.20033349, -0.10319708, 0.4402807, 0.039187185, 0.10805974, 0.35190964, 0
51, 1674095269, -0.86911625, -0.20043032, -0.10328373, 0.44029272, 0.006036191, 0.13759309, 0.35352993, 0
53, 1674128603, -0.8690423, -0.20063704, -0.10344392, 0.44030702, 0.017233072, 0.13552591, 0.34090233, 0
54, 1674145270, -0.86900115, -0.20075125, -0.103516005, 0.440319, 0.0033981793, 0.10661093, 0.38173008, 0
55, 1674161937, -0.86894345, -0.20084885, -0.10355968, 0.44037822, -0.021493006, 0.10341801, 0.3268051, 0
57, 1674195271, -0.86882395, -0.20102994, -0.103694014, 0.44049987, 0.016208265, 0.12517, 0.34438324, 0
58, 1674211938, -0.8687617, -0.20112365, -0.10374378, 0.44056776, -0.007844299, 0.10982811, 0.36089706, 0
59, 1674228605, -0.86869484, -0.20122996, -0.103811964, 0.4406354, 0.028512318, 0.13556142, 0.34077358, 0
61, 1674261939, -0.8685965, -0.20145789, -0.10388599, 0.4407075, -0.022400133, 0.0967719, 0.3472376, 0
63, 1674295273, -0.8685268, -0.20157416, -0.103895575, 0.44078928, 0.002709983, 0.12526965, 0.36789513, 0
65, 1674328607, -0.8684877, -0.20164707, -0.10391227, 0.44082904, 0.0053907973, 0.12078777, 0.35354996, 0
66, 1674345274, -0.86846983, -0.20169418, -0.103886664, 0.44084898, 0.031234259, 0.11667209, 0.3731451, 0
68, 1674378608, -0.8683986, -0.20181963, -0.10378082, 0.44095656, 0.0091307275, 0.1131819, 0.364439, 0
69, 1674395275, -0.86839813, -0.2018586, -0.10376721, 0.44094312, -0.020464847, 0.13486007, 0.3500023, 0
70, 1674411942, -0.8683352, -0.20189255, -0.103755586, 0.44105408, -0.013383823, 0.12083072, 0.32237148, 0
72, 1674445276, -0.8683143, -0.20193942, -0.103789546, 0.4410659, -0.006309212, 0.114083424, 0.36653137, 0
73, 1674461943, -0.86829114, -0.20195681, -0.1038041, 0.4411, -0.0019689256, 0.12648033, 0.3556757, 0
74, 1674478610, -0.8682422, -0.20200433, -0.10382238, 0.44117054, 0.030911954, 0.115224965, 0.39144802, 0
76, 1674511944, -0.86818326, -0.20207855, -0.103849664, 0.44124585, 0.019948978, 0.12421448, 0.35649967, 0
78, 1674545278, -0.8681561, -0.2021074, -0.10382334, 0.44129226, 0.033841316, 0.10860195, 0.36250114, 0
80, 1674578612, -0.868145, -0.20214793, -0.103750214, 0.44131267, -0.010781706, 0.1297045, 0.32788086, 0
81, 1674595279, -0.86812484, -0.20215406, -0.10374266, 0.44135156, -0.017855668, 0.120149516, 0.3364029, 0
82, 1674611946, -0.86810654, -0.20214196, -0.10375382, 0.4413904, -0.0305854, 0.12757625, 0.3340931, 0
84, 1674645280, -0.86804605, -0.20221938, -0.10376572, 0.44147152, -0.025248023, 0.12247434, 0.33198166, 0
85, 1674661947, -0.8680114, -0.2022261, -0.103772804, 0.44153464, -0.012488116, 0.10544934, 0.37363148, 0
86, 1674678614, -0.86799693, -0.20219307, -0.10382519, 0.44156596, -0.025521267, 0.14215259, 0.35529995, 0
88, 1674711948, -0.86792594, -0.20209071, -0.103965975, 0.44171917, 0.011009578, 0.13607647, 0.37660503, 0
89, 1674728615, -0.8678663, -0.20207158, -0.10403539, 0.44182882, 0.015620985, 0.14435564, 0.36281586, 0
90, 1674745282, -0.8678035, -0.20206231, -0.10416889, 0.44192487, -0.017723236, 0.13982445, 0.33344555, 0
93, 1674795283, -0.86764395, -0.20210598, -0.10445324, 0.44215095, 0.010304953, 0.11095091, 0.35191727, 0
95, 1674828617, -0.86755514, -0.20218699, -0.10455352, 0.44226462, 0.023529768, 0.09722332, 0.3728819, 0
96, 1674845284, -0.8675427, -0.20220944, -0.104544155, 0.4422811, 0.025004506, 0.08590636, 0.35080338, 0
97, 1674861951, -0.86755514, -0.2022153, -0.104513064, 0.44226122, 0.02706876, 0.12239223, 0.3643732, 0
99, 1674895285, -0.86756146, -0.20225497, -0.10445759, 0.44224387, 0.021717971, 0.118681386, 0.35760117, 0
100, 1674911952, -0.8675527, -0.20229404, -0.10441371, 0.44225344, -0.008377042, 0.10635203, 0.35795498, 0
101, 1674928619, -0.8675693, -0.20230643, -0.10437858, 0.44222334, -0.026151352, 0.14227183, 0.34004784, 0
103, 1674961953, -0.8675226, -0.20237854, -0.10431061, 0.44229814, 0.024036136, 0.10382106, 0.39199066, 0
104, 1674978620, -0.8675028, -0.20241757, -0.104244724, 0.44233498, 0.0012188161, 0.10892252, 0.348382, 0
105, 1674995287, -0.8675064, -0.20243664, -0.104179434, 0.44233432, 0.0013169383, 0.11441749, 0.3506632, 0
108, 1675045288, -0.86754364, -0.20255229, -0.104039796, 0.44224107, -0.048373457, 0.11598037, 0.35178185, 0
109, 1675061955, -0.86752325, -0.20256627, -0.10397535, 0.44229004, -0.019736528, 0.15657896, 0.32371616, 0
111, 1675095289, -0.86746216, -0.20260078, -0.10397636, 0.44239384, -0.0017033922, 0.12438897, 0.3347025, 0
112, 1675111956, -0.8674235, -0.20259476, -0.104009144, 0.44246486, 0.0106833605, 0.106011674, 0.35862446, 0
113, 1675128623, -0.8674479, -0.20255229, -0.10405827, 0.44242465, -0.0037493182, 0.12330651, 0.32802963, 0
115, 1675161957, -0.867432, -0.20243782, -0.10414755, 0.4424873, -0.009193647, 0.09718456, 0.3456564, 0
116, 1675178624, -0.86744833, -0.2023496, -0.104143515, 0.44249642, 0.023870178, 0.09749906, 0.3518362, 0
117, 1675195291, -0.8674536, -0.20226067, -0.10411907, 0.44253287, 0.0037362427, 0.11563725, 0.34662914, 0
121, 1675261959, -0.8674501, -0.20204026, -0.104002506, 0.44266757, 0.008988014, 0.16714571, 0.32809448, 0
124, 1675311960, -0.8671591, -0.20223325, -0.10437013, 0.44306305, -0.039283853, 0.14941664, 0.3234682, 0
126, 1675345294, -0.8669504, -0.20239663, -0.10470996, 0.4433166, 0.012375689, 0.10899749, 0.34015274, 0
127, 1675361961, -0.8668733, -0.20252192, -0.104876876, 0.44337058, 0.024699634, 0.11391512, 0.36143875, 0
128, 1675378628, -0.86678624, -0.2026718, -0.10504592, 0.44343245, -0.025901798, 0.10288128, 0.32727337, 0
130, 1675411962, -0.8666829, -0.20278609, -0.10525272, 0.44353297, 0.008946329, 0.07599729, 0.35811234, 0
132, 1675445296, -0.8666767, -0.20288807, -0.10520268, 0.44351035, 0.04067064, 0.07922856, 0.36823368, 0
134, 1675478630, -0.8667458, -0.20302263, -0.10510807, 0.44333586, -0.029526286, 0.14422974, 0.3594036, 0
135, 1675495297, -0.8667474, -0.20303507, -0.10509877, 0.44332942, -0.029510193, 0.15375067, 0.353796, 0
136, 1675511964, -0.86674094, -0.20301317, -0.10513168, 0.4433445, 0.0119769415, 0.1477388, 0.35131645, 0
138, 1675545298, -0.86665756, -0.20308691, -0.10524509, 0.4434467, 0.0055310517, 0.13152157, 0.3657503, 0
142, 1675611966, -0.8664181, -0.20329942, -0.10565517, 0.44371966, 0.030956252, 0.13484386, 0.34149933, 0
143, 1675628633, -0.8663703, -0.20337474, -0.10573508, 0.4437594, 0.08090543, 0.107429735, 0.35930157, 0
144, 1675645300, -0.8663194, -0.20345052, -0.10579704, 0.4438093, 0.01297381, 0.081433766, 0.37566662, 0
146, 1675678634, -0.8662892, -0.20349656, -0.10579602, 0.4438473, 0.02634715, 0.10268572, 0.35174847, 0
147, 1675695301, -0.86627746, -0.20352077, -0.10574527, 0.44387105, -0.0034708208, 0.11312557, 0.33791542, 0
150, 1675745302, -0.8661525, -0.2036173, -0.10566752, 0.4440895, -0.02285677, 0.15838869, 0.3389597, 0
151, 1675761969, -0.86610377, -0.20363386, -0.105708696, 0.44416696, -0.023153484, 0.11943733, 0.31908607, 0
153, 1675795303, -0.8660542, -0.20368862, -0.10575693, 0.44422737, -0.013150943, 0.1485321, 0.35540676, 0
154, 1675811970, -0.8660095, -0.20373227, -0.10581073, 0.4442814, -0.03764271, 0.14166321, 0.33813953, 0
155, 1675828637, -0.86591804, -0.20381564, -0.1058996, 0.4444008, -0.010526789, 0.16039148, 0.36196613, 0
158, 1675878638, -0.86571115, -0.20365436, -0.10620612, 0.4448041, -0.084610045, 0.15608813, 0.3481884, 0
159, 1675895305, -0.86564755, -0.2034693, -0.10637083, 0.4449729, -0.017147914, 0.14612347, 0.36422825, 0
161, 1675928639, -0.865567, -0.20298919, -0.10676933, 0.4452534, -0.054591473, 0.1724402, 0.3633232, 0
162, 1675945306, -0.8655319, -0.20236845, -0.10715595, 0.4455113, -0.07903362, 0.17463392, 0.36423206, 0
163, 1675961973, -0.8654805, -0.20187844, -0.10749977, 0.44575092, 0.0077220374, 0.08609881, 0.3714428, 0
165, 1675995307, -0.8653548, -0.20115861, -0.1079826, 0.44620332, 0.021105323, 0.09634173, 0.38521957, 0
166, 1676011974, -0.8653426, -0.20069394, -0.10819441, 0.4463847, 0.016870528, 0.10285405, 0.33346844, 0
167, 1676028641, -0.8653165, -0.20035669, -0.10828493, 0.44656494, 0.1338038, 0.081402354, 0.34724808, 0
169, 1676061975, -0.865306, -0.20017946, -0.10835819, 0.446647, 0.12531634, 0.12249337, 0.3194971, 0
173, 1676128643, -0.8650651, -0.2018305, -0.10819793, 0.44640976, 0.013918823, 0.12514745, 0.35329723, 0
176, 1676178644, -0.8647057, -0.20427454, -0.10796876, 0.44604942, -0.016483521, 0.1191907, 0.36136913, 0
177, 1676195311, -0.8646418, -0.20463802, -0.10795675, 0.4460097, -0.08582529, 0.18122226, 0.35018253, 0
178, 1676211978, -0.8645854, -0.20462179, -0.108033486, 0.4461078, -0.08444588, 0.13515283, 0.36135864, 0
180, 1676245312, -0.8644819, -0.204626, -0.108097866, 0.44629088, 0.018317334, 0.11459358, 0.3780489, 0
182, 1676278646, -0.86442226, -0.2046251, -0.10821427, 0.4463784, -0.026072564, 0.13972437, 0.3495283, 0
184, 1676311980, -0.8643806, -0.20434892, -0.10835329, 0.44655204, -0.052663676, 0.13748838, 0.3409071, 0
185, 1676328647, -0.86437577, -0.20401904, -0.10846877, 0.44668418, -0.0024018702, 0.0966552, 0.34771633, 0
186, 1676345314, -0.8643764, -0.2037848, -0.10851795, 0.44677764, 0.061067875, 0.088678725, 0.38250828, 0
188, 1676378648, -0.86439586, -0.20328635, -0.10868787, 0.446926, -0.07704391, 0.13751207, 0.3467369, 0
189, 1676395315, -0.8644072, -0.2029774, -0.108794294, 0.44701868, -0.039169975, 0.13329336, 0.34719086, 0
192, 1676445316, -0.86434454, -0.20228076, -0.10917936, 0.44736147, 0.053608242, 0.11719051, 0.3344679, 0
193, 1676461983, -0.8643454, -0.20213288, -0.109262675, 0.44740632, 0.042119227, 0.03942958, 0.34047127, 0
194, 1676478650, -0.8643582, -0.20207238, -0.10928059, 0.44740477, 0.15278272, 0.14431003, 0.34049892, 0
196, 1676511984, -0.86424446, -0.2024025, -0.10936248, 0.44745517, -0.04979388, 0.15819193, 0.2955761, 0
197, 1676528651, -0.8641541, -0.2025452, -0.10947086, 0.44753867, -0.1305594, 0.18442555, 0.3309822, 0
198, 1676545318, -0.8640276, -0.20261827, -0.10963979, 0.4477083, -0.0016675184, 0.15823488, 0.32295418, 0
200, 1676578652, -0.8637823, -0.2030525, -0.110075794, 0.44787794, -0.0068090986, 0.19154163, 0.32526875, 0
201, 1676595319, -0.8636246, -0.20344277, -0.11035838, 0.44793522, -0.05523117, 0.14448108, 0.356205, 0
203, 1676628653, -0.8633014, -0.2040989, -0.11093489, 0.44811764, -0.12013631, 0.17887872, 0.331172, 0
204, 1676645320, -0.86310863, -0.20421396, -0.11137915, 0.4483261, -0.072844885, 0.19798586, 0.36758327, 0
207, 1676695321, -0.86257386, -0.20367113, -0.1131551, 0.44915682, 0.06951711, 0.044567645, 0.39779282, 0
208, 1676711988, -0.8624648, -0.20356607, -0.11353023, 0.44931927, 0.044207063, 0.051794264, 0.39486885, 0
209, 1676728655, -0.8623992, -0.20351227, -0.11376479, 0.4494102, 0.035596337, 0.047762148, 0.3425207, 0
211, 1676761989, -0.862254, -0.20395353, -0.11386986, 0.44946226, 0.042774234, 0.06489647, 0.3327589, 0
212, 1676778656, -0.86219037, -0.20435745, -0.1138097, 0.4494158, 0.0138535565, 0.12120186, 0.34400368, 0
213, 1676795323, -0.86211646, -0.20485258, -0.1137212, 0.44935468, 0.046864968, 0.10929205, 0.36123562, 0
215, 1676828657, -0.8619276, -0.20638375, -0.11340969, 0.44909495, 0.049967103, 0.123036146, 0.3633175, 0
216, 1676845324, -0.8618427, -0.20716827, -0.11325523, 0.44893575, -0.015210168, 0.17587477, 0.36234665, 0
217, 1676861991, -0.86178035, -0.20754823, -0.113204, 0.4488926, -0.097507976, 0.15921761, 0.35715103, 0
220, 1676911992, -0.8616624, -0.20798531, -0.11298444, 0.44897217, 0.009993488, 0.13298309, 0.3557701, 0
221, 1676928659, -0.8616523, -0.20823771, -0.11289042, 0.44889832, 0.038284976, 0.12763341, 0.34065056, 0
223, 1676961993, -0.8616053, -0.20922175, -0.112626344, 0.44859737, 4.9731632E-5, 0.13957638, 0.35663414, 0
224, 1676978660, -0.8615756, -0.20971347, -0.11251547, 0.44845244, -0.06781595, 0.14858954, 0.33215714, 0
225, 1676995327, -0.8615225, -0.21004306, -0.112482086, 0.4484088, -0.0800106, 0.15317298, 0.36513805, 0
227, 1677028661, -0.8614783, -0.21035877, -0.11240427, 0.44836485, 0.04520572, 0.105715245, 0.35565758, 0
228, 1677045328, -0.8614889, -0.21051481, -0.112321794, 0.44829226, 0.04506781, 0.0998178, 0.3459549, 0
229, 1677061995, -0.86149096, -0.2107235, -0.11223132, 0.44821253, 0.018613823, 0.119613305, 0.35598755, 0
231, 1677095329, -0.86154795, -0.21103188, -0.11198477, 0.44801974, -0.045292664, 0.11196477, 0.37591076, 0
232, 1677111996, -0.86158156, -0.21096481, -0.11188277, 0.44801226, -0.08646565, 0.16725172, 0.33418274, 0
235, 1677161997, -0.86163974, -0.21068576, -0.111774154, 0.44805872, -0.05808409, 0.14191411, 0.3140211, 0
236, 1677178664, -0.8616611, -0.21038291, -0.11179619, 0.4481548, -0.052219667, 0.13178113, 0.33946514, 0
238, 1677211998, -0.8617213, -0.2099615, -0.1117115, 0.44825757, 0.036625877, 0.13551526, 0.34907913, 0
239, 1677228665, -0.86175954, -0.20984407, -0.11169937, 0.44824177, -0.014421391, 0.15506734, 0.3557682, 0
240, 1677245332, -0.8617776, -0.20973529, -0.111676276, 0.44826394, -0.029077247, 0.12828699, 0.34874535, 0
242, 1677278666, -0.86179364, -0.2095804, -0.11171236, 0.44829652, 0.00851238, 0.15912853, 0.35641956, 0
243, 1677295333, -0.8617915, -0.20936994, -0.11179685, 0.44837815, -0.07128152, 0.1375042, 0.34585667, 0
244, 1677312000, -0.86178625, -0.20912375, -0.11189342, 0.44847918, 0.05795579, 0.108558714, 0.33438683, 0
246, 1677345334, -0.86179614, -0.20893475, -0.11201478, 0.44851777, -0.0064435434, 0.13782454, 0.34579659, 0
247, 1677362001, -0.8617989, -0.2089553, -0.11206247, 0.44849062, -0.002294584, 0.10281689, 0.35298252, 0
250, 1677412002, -0.86182046, -0.20916362, -0.1120182, 0.44836345, 0.0035319517, 0.13580355, 0.34675598, 0
251, 1677428669, -0.8618395, -0.20926118, -0.11194212, 0.44830024, 0.019717978, 0.13215053, 0.34297085, 0
252, 1677445336, -0.86185825, -0.20935729, -0.11184611, 0.4482433, -0.03182243, 0.11243173, 0.35936928, 0
254, 1677478670, -0.8619116, -0.20938714, -0.11169478, 0.44816434, -0.036745083, 0.14801691, 0.35378456, 0
255, 1677495337, -0.86194456, -0.20933694, -0.11163786, 0.4481389, 0.006609837, 0.12668699, 0.3768053, 0
257, 1677528671, -0.86198974, -0.20929176, -0.11154615, 0.4480958, 0.009139109, 0.15545712, 0.3619938, 0
258, 1677545338, -0.86200285, -0.20929684, -0.11149903, 0.4480803, 0.0022288712, 0.11434297, 0.36075115, 0
259, 1677562005, -0.86202633, -0.20931529, -0.11143908, 0.44804105, -0.01850732, 0.12661266, 0.37269974, 0
261, 1677595339, -0.8620703, -0.20933925, -0.111261785, 0.44798923, 0.015347405, 0.14421201, 0.33503342, 0
262, 1677612006, -0.86208427, -0.20936546, -0.11117251, 0.44797236, 0.02944506, 0.13033107, 0.34146976, 0
265, 1677662007, -0.8621578, -0.20927109, -0.110973775, 0.4479244, -0.06064119, 0.18847437, 0.3778181, 0
266, 1677678674, -0.8621945, -0.20917167, -0.11094921, 0.44790635, -0.016023643, 0.11833241, 0.35530376, 0
267, 1677695341, -0.86222994, -0.20909366, -0.11087567, 0.4478926, 0.056156065, 0.106078565, 0.34636497, 0
269, 1677728675, -0.86234474, -0.20902413, -0.110739306, 0.44773778, -0.026544398, 0.16503088, 0.360404, 0
270, 1677745342, -0.86236525, -0.20898086, -0.11069919, 0.44772837, -0.022914212, 0.11129861, 0.3714838, 0
271, 1677762009, -0.862399, -0.20895286, -0.11063594, 0.447692, 0.012859482, 0.117911175, 0.36756325, 0
273, 1677795343, -0.8624332, -0.20893766, -0.110555425, 0.4476533, -0.056388296, 0.16876793, 0.3166275, 0
274, 1677812010, -0.8624408, -0.20890263, -0.11057968, 0.4476487, -0.04479613, 0.1350099, 0.35362816, 0
275, 1677828677, -0.8624095, -0.20888485, -0.110581085, 0.44771737, 0.016256656, 0.13315271, 0.35810566, 0
277, 1677862011, -0.862386, -0.20890233, -0.11055632, 0.4477606, -0.04280329, 0.1592225, 0.34135246, 0
278, 1677878678, -0.8623572, -0.20889278, -0.11055575, 0.44782034, -0.04422662, 0.1206645, 0.33785343, 0
279, 1677895345, -0.86235654, -0.20880473, -0.11055901, 0.44786185, -0.048677992, 0.12504342, 0.36384678, 0
281, 1677928679, -0.86236775, -0.2085438, -0.11040265, 0.44800055, 0.08652399, 0.21283792, 0.2844696, 0
282, 1677945346, -0.8623315, -0.2086269, -0.11042089, 0.4480271, 0.084592834, 0.18906358, 0.3810358, 0
284, 1677978680, -0.862259, -0.20845638, -0.1106483, 0.44819027, -0.23942573, 0.2017786, 0.31318092, 0
285, 1677995347, -0.86219966, -0.20806065, -0.1107937, 0.44845217, 0.0167704, 0.13543876, 0.33481598, 0
286, 1678012014, -0.86210227, -0.2077967, -0.110926494, 0.44872877, 0.054262448, 0.21063547, 0.28207588, 0
288, 1678045348, -0.86194503, -0.20733128, -0.11149879, 0.4491039, -0.05579185, 0.15914129, 0.37265396, 0
289, 1678062015, -0.86184573, -0.20715399, -0.111833386, 0.4492935, -0.014897027, 0.13008709, 0.3884039, 0
292, 1678112016, -0.8615631, -0.20588627, -0.11325664, 0.4500609, -0.072240725, 0.1157713, 0.34143543, 0
294, 1678145350, -0.8614415, -0.20478429, -0.114161745, 0.4505676, -0.09255716, 0.10809405, 0.3539915, 0
296, 1678178684, -0.8613411, -0.20391205, -0.11495693, 0.45095253, 0.14429069, 0.0740111, 0.3659525, 0
297, 1678195351, -0.8613149, -0.20372875, -0.115230486, 0.45101583, 0.051208608, 0.092427954, 0.32902527, 0
298, 1678212018, -0.86127055, -0.20364079, -0.11548064, 0.45107654, -0.0068099927, 0.13634609, 0.32296658, 0
300, 1678245352, -0.8611605, -0.20377609, -0.11582126, 0.45113778, -0.053875897, 0.11595983, 0.3403368, 0
301, 1678262019, -0.8611003, -0.20389374, -0.115883425, 0.45118356, -0.022195954, 0.088466495, 0.3351097, 0
302, 1678278686, -0.8610409, -0.20401086, -0.11587233, 0.45124686, -0.034427144, 0.12107856, 0.34640408, 0
304, 1678312020, -0.86092925, -0.20436874, -0.115764365, 0.4513256, 0.10678466, 0.12575188, 0.32410336, 0
305, 1678328687, -0.8608845, -0.20463294, -0.11576405, 0.45129135, -0.023501828, 0.1894794, 0.349823, 0
308, 1678378688, -0.86058307, -0.20503357, -0.11607693, 0.4516039, -0.025503835, 0.15431647, 0.34651375, 0
309, 1678395355, -0.8604887, -0.2050917, -0.11618814, 0.4517287, 0.015253195, 0.14210808, 0.34613228, 0
311, 1678428689, -0.8603375, -0.20537579, -0.11635255, 0.45184538, 0.021862697, 0.1085418, 0.34289265, 0
312, 1678445356, -0.86027706, -0.20565087, -0.11634891, 0.45183656, -0.0025404482, 0.10630107, 0.34813404, 0
315, 1678495357, -0.8601217, -0.20669639, -0.1160706, 0.45172632, 0.043594748, 0.09962862, 0.33780384, 0
316, 1678512024, -0.8600675, -0.207379, -0.11587006, 0.45156825, 0.04704702, 0.09832352, 0.34914875, 0
317, 1678528691, -0.8600033, -0.20819567, -0.11558983, 0.45138645, 0.0055893883, 0.11365951, 0.34597874, 0
319, 1678562025, -0.86000407, -0.20913436, -0.115130626, 0.451068, -0.02562006, 0.12682767, 0.35008812, 0
320, 1678578692, -0.86002207, -0.20952205, -0.11490588, 0.45091116, -0.023642195, 0.12568764, 0.33001423, 0
321, 1678595359, -0.8600424, -0.20986168, -0.11471334, 0.45076382, -0.06957076, 0.15548794, 0.355402, 0
324, 1678645360, -0.8600699, -0.21044724, -0.11429978, 0.450543, 0.01704968, 0.13884312, 0.3668213, 0
325, 1678662027, -0.8600669, -0.21063076, -0.11419136, 0.4504906, -0.005470144, 0.14450696, 0.35937214, 0
327, 1678695361, -0.86009383, -0.21086174, -0.11404499, 0.45036834, -0.019716414, 0.1301783, 0.3473587, 0
328, 1678712028, -0.8601189, -0.21090885, -0.113960855, 0.45031953, -0.021145554, 0.13658972, 0.36079693, 0
329, 1678728695, -0.8601444, -0.21092106, -0.11388142, 0.45028502, -0.010884411, 0.13919975, 0.36287975, 0
331, 1678762029, -0.860237, -0.210884, -0.113755755, 0.45015746, -0.026454657, 0.122590385, 0.34817123, 0
332, 1678778696, -0.8602999, -0.21087961, -0.11367369, 0.45006025, -0.016110478, 0.14253502, 0.34955025, 0
333, 1678795363, -0.8602834, -0.2108993, -0.11357807, 0.4501064, -0.014168374, 0.14093307, 0.36958694, 0
335, 1678828697, -0.8603498, -0.21093716, -0.11349575, 0.44998276, -0.0213209, 0.14623353, 0.34796047, 0
336, 1678845364, -0.8603445, -0.21098728, -0.1134146, 0.4499898, -0.0074354936, 0.119521834, 0.34286785, 0
339, 1678895365, -0.8605106, -0.2107618, -0.11307408, 0.44986352, -0.02252899, 0.12463105, 0.33162594, 0
340, 1678912032, -0.8605996, -0.21058905, -0.11291673, 0.44981387, -0.0071059237, 0.11703408, 0.36377907, 0
342, 1678945366, -0.8607865, -0.21035016, -0.11261904, 0.44964266, -0.022568662, 0.12769109, 0.3866148, 0
343, 1678962033, -0.8608867, -0.21020605, -0.11242701, 0.4495663, -0.018618517, 0.12375252, 0.35974884, 0
344, 1678978700, -0.8609697, -0.21005212, -0.112235405, 0.44952723, -0.036666296, 0.1469174, 0.34533596, 0
346, 1679012034, -0.86113805, -0.20964152, -0.1118569, 0.4494908, -0.011150503, 0.13852896, 0.34831047, 0
348, 1679045368, -0.86126673, -0.20932111, -0.11144945, 0.4494945, -0.05235601, 0.15117845, 0.3634529, 0
350, 1679078702, -0.8613621, -0.20909345, -0.1112338, 0.4494711, -0.020603871, 0.13991602, 0.3674717, 0
352, 1679112036, -0.8615349, -0.20905846, -0.11119369, 0.44916624, 0.025478577, 0.19593322, 0.32631302, 0
354, 1679145370, -0.861567, -0.20927417, -0.1111974, 0.44900298, -0.00611375, 0.105069116, 0.3578949, 0
355, 1679162037, -0.8616227, -0.20934887, -0.111156516, 0.4488714, -0.03119034, 0.13777918, 0.3285904, 0
356, 1679178704, -0.8616557, -0.20942709, -0.11112646, 0.44877905, -0.024720198, 0.17143299, 0.34893608, 0
358, 1679212038, -0.8616324, -0.2097324, -0.11101398, 0.44870934, -0.009689264, 0.16466206, 0.33100414, 0
359, 1679228705, -0.8616611, -0.20975724, -0.111015104, 0.4486423, -0.06874085, 0.18111147, 0.33408737, 0
360, 1679245372, -0.8616998, -0.20972109, -0.1110007, 0.44858807, -0.022935223, 0.12802124, 0.32662392, 0
362, 1679278706, -0.8617985, -0.20970269, -0.11092792, 0.4484251, -0.06646504, 0.16156152, 0.36946678, 0
363, 1679295373, -0.8618951, -0.2093252, -0.11097636, 0.44840407, -0.14204048, 0.15126212, 0.3453741, 0
365, 1679328707, -0.86204773, -0.20864145, -0.1108823, 0.44845223, -0.02387096, 0.09731748, 0.31288242, 0
366, 1679345374, -0.8621453, -0.2082742, -0.110710345, 0.44847813, -0.06413827, 0.10755888, 0.3369789, 0
369, 1679395375, -0.86262774, -0.20700121, -0.10989252, 0.4483409, -4.008705E-4, 0.1728249, 0.36637688, 0
373, 1679462043, -0.86324394, -0.20620154, -0.10948692, 0.4476219, 0.021525191, 0.04573281, 0.4509735, 0
374, 1679478710, -0.8634397, -0.20589787, -0.10931398, 0.44742674, -0.04057945, 0.09629886, 0.39964104, 0
375, 1679495377, -0.86369634, -0.20546156, -0.10906176, 0.44719326, -0.013006554, 0.0550735, 0.3888464, 0
377, 1679528711, -0.86420155, -0.20446089, -0.10821109, 0.44688267, 0.2938832, 0.34289604, 0.32074165, 0
378, 1679545378, -0.8643472, -0.2043708, -0.10805208, 0.44668034, 0.06314375, 0.15474945, 0.28959465, 0
379, 1679562045, -0.8644891, -0.20421226, -0.10786647, 0.44652307, -0.17652528, 0.22777827, 0.2264986, 0
381, 1679595379, -0.8644902, -0.20404239, -0.107690334, 0.44664097, 0.03419089, 0.2574542, 0.27601528, 0
382, 1679612046, -0.86441743, -0.20422919, -0.107702635, 0.44669342, 0.008440907, 0.24181035, 0.2895136, 0
383, 1679628713, -0.86431855, -0.20454666, -0.10785702, 0.4467024, -0.02260923, 0.17500488, 0.36240768, 0
386, 1679678714, -0.86405575, -0.20469387, -0.108348995, 0.44702435, -0.08137313, 0.117205486, 0.35621166, 0
387, 1679695381, -0.8639505, -0.20454374, -0.10847373, 0.44726604, -0.016373778, 0.0900039, 0.38408852, 0
389, 1679728715, -0.86388844, -0.20425428, -0.10853647, 0.44750267, -0.028452976, 0.054185074, 0.44487858, 0
390, 1679745382, -0.86386317, -0.20407996, -0.10843374, 0.44765592, -0.07106796, 0.14474842, 0.33372688, 0
392, 1679778716, -0.8638674, -0.20378688, -0.10821579, 0.4478342, -0.006504562, 0.11697866, 0.3672676, 0
393, 1679795383, -0.8638996, -0.20358756, -0.10806092, 0.44790024, -0.057798773, 0.11312847, 0.3822775, 0
394, 1679812050, -0.8639648, -0.20327266, -0.107800856, 0.44798, -0.07429448, 0.068780735, 0.35220337, 0
396, 1679845384, -0.86427766, -0.20199664, -0.10704499, 0.44813508, -0.112540446, 0.08686577, 0.37236404, 0
397, 1679862051, -0.8645209, -0.20110309, -0.10655898, 0.4481836, -0.058191486, 0.087131724, 0.40501785, 0
398, 1679878718, -0.8648157, -0.2001878, -0.10592597, 0.4481745, 0.0047821715, -0.014745932, 0.5394869, 0
401, 1679928719, -0.8658628, -0.19690509, -0.10382582, 0.44809827, 0.030694475, 0.13195482, 0.33232498, 0
402, 1679945386, -0.86620677, -0.19572817, -0.10321307, 0.4480908, -0.12792283, 0.2772876, 0.23230553, 0
404, 1679978720, -0.86663127, -0.1939869, -0.10246233, 0.44819933, 0.030310256, 0.16805936, 0.3379326, 0
405, 1679995387, -0.86678535, -0.19330613, -0.10223053, 0.44824868, -0.07437282, 0.22856528, 0.22976303, 0
406, 1680012054, -0.8669015, -0.1926435, -0.102110386, 0.44833654, -0.14319302, 0.13231733, 0.3971777, 0
408, 1680045388, -0.8671659, -0.19156711, -0.10122554, 0.44848698, 0.0015659317, 0.02600553, 0.4432888, 0
410, 1680078722, -0.8674959, -0.191371, -0.09917787, 0.44839004, -0.112286985, -0.0104722595, 0.7297249, 0
412, 1680112056, -0.8683243, -0.19201683, -0.09562266, 0.44728148, -0.71563035, 0.26802087, 0.417902, 0
413, 1680128723, -0.8690064, -0.1922255, -0.09364689, 0.44628394, -0.52516985, 0.13901159, 0.60926056, 0
414, 1680145390, -0.87000436, -0.19284399, -0.09123264, 0.44456953, -1.1467038, -0.07050532, 1.0407352, 0
417, 1680195391, -0.87569046, -0.19139266, -0.08340166, 0.4354781, 0.17199345, -0.00761299, 0.16850662, 0
418, 1680212058, -0.87739635, -0.18938611, -0.08153394, 0.4332699, 1.0268778, -0.13939352, 0.65160465, 0
420, 1680245392, -0.8803216, -0.18622223, -0.07705095, 0.42951173, -0.18629637, 0.3231919, 0.1999054, 0
421, 1680262059, -0.88190114, -0.1846576, -0.07542156, 0.42722982, -1.0771911, 0.20048319, -0.012184143, 0
423, 1680295393, -0.8851196, -0.18119255, -0.073006734, 0.42245054, 0.8084016, 0.06836452, 0.16881561, 0
424, 1680312060, -0.88639677, -0.1802608, -0.07200733, 0.42033765, 0.2135274, 0.48161408, -0.03470707, 0
425, 1680328727, -0.88741136, -0.17996784, -0.071173385, 0.41846016, 0.8327332, 0.2517747, -0.30673122, 0
427, 1680362061, -0.88946503, -0.17983449, -0.0708456, 0.41419113, -0.99070877, 0.32470697, -0.10805416, 0
428, 1680378728, -0.8908297, -0.17901558, -0.07201327, 0.41140234, -0.8047369, 0.38043168, -0.16168308, 0
429, 1680395395, -0.8919118, -0.17753428, -0.07399385, 0.40934297, 1.1669837, 0.6278171, -0.3687868, 0
431, 1680428729, -0.8936006, -0.1734503, -0.080621056, 0.40614656, -0.3997765, 0.38458654, -0.38540745, 0
432, 1680445396, -0.8944323, -0.1710077, -0.08541839, 0.4043674, 0.29705486, 0.7226174, -1.1494789, 0
433, 1680462063, -0.89509344, -0.16981827, -0.09265925, 0.40180305, -1.0396512, 1.5041132, -2.7715878, 0
435, 1680495397, -0.89609414, -0.16834441, -0.10671226, 0.39667347, 1.605368, 1.9087163, -2.3309822, 0
436, 1680512064, -0.8955014, -0.16805285, -0.11507637, 0.39579663, 1.5882237, 1.4873666, 0.31831455, 0
437, 1680528731, -0.89484507, -0.17115863, -0.1249719, 0.39293903, 0.38532662, 1.3034974, 1.2160501, 0
439, 1680562065, -0.89536834, -0.18495977, -0.16050452, 0.37202927, -1.3053347, 2.9200282, 1.5680971, 0
440, 1680578732, -0.8899824, -0.1960724, -0.1894623, 0.36558565, -2.9800649, 3.4638515, 1.8162146, 0
441, 1680595399, -0.8798421, -0.20583284, -0.22462076, 0.36485383, -3.5877535, 0.79618, 0.90481186, 0
444, 1680645400, -0.84403133, -0.21387994, -0.3270157, 0.36740893, 0.77356035, -4.3753967, -1.349041, 0
445, 1680662067, -0.8354467, -0.21260521, -0.3466457, 0.36976564, -0.06337721, -3.9606555, -1.0835047, 0
447, 1680695401, -0.82507753, -0.2086411, -0.36254185, 0.37992275, 0.93058276, -2.0243502, 0.7081518, 0
448, 1680712068, -0.82254696, -0.20770316, -0.3623073, 0.3860973, 0.31753302, -0.7115507, 0.83901596, 0
450, 1680745402, -0.81551945, -0.20591016, -0.3637185, 0.40037492, -0.8249865, 3.0740798, 1.391036, 0
451, 1680762069, -0.8079957, -0.20582715, -0.37544155, 0.40482563, -0.6259932, 5.1191206, 1.1851625, 0
452, 1680778736, -0.79656374, -0.20709282, -0.39885792, 0.40444177, -0.93792427, 5.999717, 1.6756754, 0
454, 1680812070, -0.75291806, -0.20826367, -0.48588145, 0.3920738, -1.0577509, 8.726247, 5.4854727, 0
455, 1680828737, -0.71748626, -0.21492854, -0.5386151, 0.38597256, 0.60394853, 3.659019, 6.0904818, 0
456, 1680845404, -0.67364156, -0.238823, -0.58181506, 0.38823193, -2.7408159, 18.281221, 12.71804, 0
459, 1680895405, -0.6095146, -0.26365757, -0.63350785, 0.39712268, -12.976136, 21.891647, 12.660315, 0
460, 1680912072, -0.6167736, -0.25662792, -0.6305364, 0.39524466, 4.435275, -7.256328, -12.069677, 0
462, 1680945406, -0.61144716, -0.23941945, -0.63987076, 0.39929676, -6.928084, 9.474211, -5.8154197, 0
463, 1680962073, -0.61092484, -0.23415029, -0.64431125, 0.39606756, -5.0042033, 5.401023, -9.84488, 0
464, 1680978740, -0.6100333, -0.23332822, -0.6489528, 0.39030737, -5.0026746, 7.746057, -9.00039, 0
466, 1681012074, -0.6140369, -0.23654069, -0.65309477, 0.37488198, -2.2916296, 8.904664, -8.989807, 0
467, 1681028741, -0.6182195, -0.24001835, -0.6507598, 0.36982393, -0.3904121, 8.423832, -9.212134, 0
468, 1681045408, -0.62254894, -0.24426693, -0.64572084, 0.3686096, 0.6907382, 8.259227, -8.976229, 0
470, 1681078742, -0.6360195, -0.24856278, -0.626876, 0.37521225, 0.18288389, 9.796871, -6.9070787, 0
471, 1681095409, -0.6463509, -0.2466016, -0.6138705, 0.3803201, -0.34968513, 8.381176, -7.599951, 0
474, 1681145410, -0.6875129, -0.22975414, -0.56646514, 0.3920694, -2.189354, 8.998765, -5.4027457, 0
475, 1681162077, -0.7045325, -0.22430901, -0.5450599, 0.39533684, -2.0377712, 8.567091, -4.775691, 0
477, 1681195411, -0.74247515, -0.21211173, -0.49041745, 0.4040942, -2.0656781, 8.195458, -1.4749212, 0
478, 1681212078, -0.76126444, -0.2062607, -0.4580022, 0.4101571, -2.0354538, 6.2967668, -1.5182381, 0
479, 1681228745, -0.7787645, -0.20161289, -0.42349565, 0.41664308, -3.6865277, 6.3951025, 1.0797539, 0
481, 1681262079, -0.81203604, -0.19951126, -0.3433608, 0.42773625, -3.0063984, 4.2811623, 4.0644836, 0
482, 1681278746, -0.8266435, -0.2046196, -0.29997182, 0.42996514, -2.2220724, 2.90174, 6.72517, 0
483, 1681295413, -0.8408381, -0.21142289, -0.25571334, 0.42774332, -0.20467886, 1.2339703, 8.759638, 0
485, 1681328747, -0.86712813, -0.22560456, -0.17333797, 0.4089099, 3.29196, -5.9252696, 11.976181, 0
486, 1681345414, -0.8788255, -0.22742212, -0.1376403, 0.39631042, 4.140848, -10.710304, 11.159464, 0
489, 1681395415, -0.90197253, -0.22181912, -0.058075506, 0.36596614, 5.4671054, -15.718124, 3.394248, 0
490, 1681412082, -0.90690714, -0.21955447, -0.03702008, 0.35778022, 6.308858, -17.404348, 1.805604, 0
491, 1681428749, -0.9103056, -0.21515004, -0.02122515, 0.3530803, 6.6532435, -15.682229, -5.4620667, 0
493, 1681462083, -0.91250813, -0.21217813, -0.008160144, 0.34972078, 2.3808088, -14.225748, -5.5290065, 0
494, 1681478750, -0.9135655, -0.21344343, -0.009583995, 0.3461358, 1.1873969, -13.18656, -5.9439, 0
495, 1681495417, -0.91432613, -0.21719585, -0.015941001, 0.341528, 2.1859732, -12.0391035, -6.5762677, 0
497, 1681528751, -0.9122539, -0.23446207, -0.03733666, 0.3338986, 4.622558, -13.785114, -2.3094382, 0
498, 1681545418, -0.9093149, -0.2425406, -0.049194243, 0.33460802, 5.3780804, -14.60423, -4.2220645, 0
500, 1681578752, -0.89636004, -0.2570558, -0.08306152, 0.35160178, 3.8628922, -18.641176, -4.8063617, 0
501, 1681595419, -0.8862325, -0.264338, -0.10674248, 0.3652197, 0.76494515, -19.851477, -4.147808, 0
502, 1681612086, -0.8749816, -0.27076808, -0.13505183, 0.37804097, -1.0549952, -21.018593, 1.2001343, 0
504, 1681645420, -0.85201013, -0.27604938, -0.19419889, 0.40028036, 2.9240987, -23.299261, -0.35203648, 0
505, 1681662087, -0.83489615, -0.27873802, -0.23127836, 0.41451877, 4.957749, -24.288755, 2.5308695, 0
508, 1681712088, -0.79275274, -0.2570621, -0.31013808, 0.4575353, -9.553755, 29.163914, -1.1300926, 0
509, 1681728755, -0.79674494, -0.2535238, -0.30764633, 0.4542455, -1.40754, 41.69421, -7.8515553, 0
510, 1681745422, -0.80101657, -0.25241202, -0.29772502, 0.45396292, -1.7596697, -4.1328173, 9.293949, 0
512, 1681778756, -0.7966869, -0.24461359, -0.28822652, 0.4716372, 0.8952722, 2.0107052, 1.023346, 0
513, 1681795423, -0.79256725, -0.24231589, -0.28932744, 0.4790321, 2.3845315, 0.103651114, 1.2695312, 0
514, 1681812090, -0.78874844, -0.2432521, -0.293536, 0.4822893, 0.9605069, 2.8057828, 1.0777988, 0
517, 1681862091, -0.7531381, -0.25096628, -0.3762137, 0.4778328, -0.9610869, 7.4308796, 2.2892714, 0
518, 1681878758, -0.7235476, -0.25352538, -0.43630344, 0.4710681, 0.1382745, 8.37848, 2.366763, 0
520, 1681912092, -0.62937075, -0.28422225, -0.5619936, 0.455341, 0.75567764, 19.060469, 16.68468, 0
522, 1681945426, -0.5205326, -0.3268821, -0.636945, 0.46535698, -11.763047, 52.638634, 21.838842, 0
524, 1681978760, -0.53106546, -0.33608735, -0.66726065, 0.3998, -2.0479636, 0.8125838, -4.063343, 0
525, 1681995427, -0.5226928, -0.34803402, -0.67441165, 0.38845262, 11.720648, 3.1200464, -3.0765443, 0
526, 1682012094, -0.51210576, -0.35015416, -0.6804821, 0.39005858, 6.249505, 18.536411, -1.3366394, 0
528, 1682045428, -0.50305796, -0.32824826, -0.6870948, 0.4088383, 3.1337736, 11.74634, -6.277358, 0
529, 1682062095, -0.49893397, -0.31392562, -0.68638504, 0.42597345, -0.40977034, 11.576454, -7.288519, 0
531, 1682095429, -0.49739903, -0.2838071, -0.67833555, 0.4604027, -3.3830287, 10.146879, -9.49851, 0
535, 1682162097, -0.52527714, -0.23820832, -0.6469966, 0.4987966, -2.1727498, 10.536003, -9.093512, 0
536, 1682178764, -0.54161733, -0.2301384, -0.6319624, 0.5043537, -1.174479, 9.6422615, -7.3213997, 0
537, 1682195431, -0.56126946, -0.22161753, -0.6130105, 0.5100415, -1.7194811, 10.208927, -5.4912634, 0
539, 1682228765, -0.60895586, -0.20163238, -0.5663804, 0.51748675, -2.1986701, 7.48642, -4.790965, 0
540, 1682245432, -0.6336569, -0.19416103, -0.5390127, 0.5199114, -2.462948, 6.9708495, -2.519824, 0
541, 1682262099, -0.6590615, -0.18832909, -0.5086862, 0.5210282, -4.5701194, 6.4537864, -0.5165806, 0
543, 1682295433, -0.7118741, -0.1752931, -0.44870323, 0.5111116, -7.1933713, 3.013848, 0.6815462, 0
544, 1682312100, -0.736641, -0.17238854, -0.4197125, 0.5015432, -5.0450783, 1.3374354, 1.1501255, 0
545, 1682328767, -0.7582767, -0.17610636, -0.38712856, 0.49416226, -2.7812433, -0.29075012, 5.9533663, 0
547, 1682362101, -0.79678196, -0.18189377, -0.31762218, 0.48086524, -4.0515366, -3.4385865, 5.5198402, 0
549, 1682395435, -0.82975185, -0.18665785, -0.2541396, 0.4605928, -0.07782363, -2.847158, 5.557909, 0
551, 1682428769, -0.8568784, -0.19433731, -0.1955038, 0.43569785, 3.4873893, -5.678643, 4.211281, 0
552, 1682445436, -0.8676775, -0.19644347, -0.17115536, 0.42345437, 3.1750488, -7.132335, 5.2890406, 0
554, 1682478770, -0.8844967, -0.19273768, -0.12972124, 0.40466338, 3.6186419, -7.6631517, 2.66471, 0
555, 1682495437, -0.8899226, -0.19243132, -0.11172413, 0.39823088, 3.064451, -7.090286, 1.2336636, 0
556, 1682512104, -0.8936951, -0.19460815, -0.09674522, 0.39260575, 2.8548036, -7.076959, 0.7507038, 0
558, 1682545438, -0.89900535, -0.20243743, -0.06996888, 0.38206637, 2.422951, -8.877254, 3.0597677, 0
559, 1682562105, -0.90147823, -0.20517111, -0.056200333, 0.3770221, 2.358723, -9.168778, 1.2872133, 0
560, 1682578772, -0.903624, -0.20665312, -0.04473786, 0.37258384, 1.5181633, -8.902221, -1.4431877, 0
562, 1682612106, -0.9062649, -0.21176371, -0.031548347, 0.3645638, 1.7307472, -8.445435, -2.9065886, 0
564, 1682645440, -0.9086026, -0.22275905, -0.028123945, 0.35226545, 1.2854651, -9.472367, -1.4963465, 0
566, 1682678774, -0.91402715, -0.23083645, -0.030245986, 0.33228907, 2.440362, -9.356087, -3.4032001, 0
567, 1682695441, -0.9165938, -0.23343194, -0.036092315, 0.32268378, 3.3803194, -9.722346, -4.2190776, 0
568, 1682712108, -0.9182379, -0.23574132, -0.044938557, 0.3151312, 3.7279117, -10.582974, -3.929223, 0
570, 1682745442, -0.9182917, -0.24350381, -0.06757003, 0.30486482, 3.7234905, -11.555283, -2.559702, 0
571, 1682762109, -0.9170971, -0.24741216, -0.08106611, 0.30201063, 3.044337, -12.223514, -1.9003625, 0
572, 1682778776, -0.9149356, -0.25153682, -0.09568493, 0.30087957, 3.3987005, -13.174178, -2.0030208, 0
574, 1682812110, -0.9063339, -0.2608117, -0.12962437, 0.30626085, 0.80056584, -15.034895, -4.215024, 0
575, 1682828777, -0.8989128, -0.26770872, -0.15349069, 0.31111178, -0.46422645, -16.425371, -1.4967833, 0
576, 1682845444, -0.88976216, -0.27875665, -0.17597795, 0.31577176, -0.6263258, -17.79685, 4.609333, 0
578, 1682878778, -0.86702955, -0.30104056, -0.22125372, 0.32976213, 4.9657755, -19.118511, 6.910181, 0
579, 1682895445, -0.85277164, -0.30180946, -0.24550931, 0.34853855, 11.427247, -19.15526, 1.9522905, 0
582, 1682945446, -0.8125365, -0.25709713, -0.32130438, 0.4129297, -4.4419813, 24.02963, -7.8841963, 0
583, 1682962113, -0.8168559, -0.23727247, -0.32785547, 0.4111216, 2.9506128, -3.0419831, 8.499691, 0
585, 1682995447, -0.8161616, -0.22258627, -0.32680115, 0.42142475, 1.1419188, 3.099413, 2.2775507, 0
586, 1683012114, -0.8089975, -0.22170065, -0.33587745, 0.42850935, 1.4895343, 5.0175295, 1.3096018, 0
587, 1683028781, -0.7988974, -0.2241463, -0.3550967, 0.43068534, 0.5437127, 4.5118017, 1.3574219, 0
589, 1683062115, -0.7653209, -0.23336685, -0.42587006, 0.42251688, -2.0247984, 7.1296744, 2.544057, 0
590, 1683078782, -0.7331201, -0.23520412, -0.48554474, 0.4141524, -1.6811317, 8.505356, 4.461211, 0
593, 1683128783, -0.5401734, -0.3131023, -0.64766365, 0.43677634, -10.305412, 29.93286, 23.99918, 0
594, 1683145450, -0.49762148, -0.32535926, -0.6681521, 0.44738013, -48.076427, 48.777893, 15.072992, 0
595, 1683162117, -0.49796587, -0.3369184, -0.68206173, 0.41637692, -18.71154, 27.432718, 7.0096245, 0
597, 1683195451, -0.44312328, -0.38457674, -0.7024331, 0.40297943, -6.5482655, 27.461103, -0.3972788, 0
598, 1683212118, -0.42072418, -0.40559846, -0.70713794, 0.39811942, 6.743696, 20.40774, -4.287166, 0
599, 1683228785, -0.3966595, -0.41754615, -0.71620286, 0.39424893, 10.186011, 21.811003, -7.418417, 0
601, 1683262119, -0.36757433, -0.41893715, -0.7314717, 0.39292744, 5.781729, 22.27711, -25.111044, 0
602, 1683278786, -0.37064284, -0.41214895, -0.73322356, 0.39395735, 7.1714034, 20.076956, -24.752453, 0
603, 1683295453, -0.38378173, -0.40407836, -0.7263479, 0.4023841, 5.499358, 17.189037, -21.430084, 0
605, 1683328787, -0.4466407, -0.3759188, -0.69155127, 0.4254596, -1.6194291, 24.65609, -11.238167, 0
608, 1683378788, -0.5872017, -0.30710036, -0.57801735, 0.47627902, 0.25498894, 6.308952, 1.3717155, 0
609, 1683395455, -0.62027574, -0.2852443, -0.5337588, 0.4990564, 0.75046283, -0.044496737, -1.2383404, 0
610, 1683412122, -0.64301467, -0.26393163, -0.49400073, 0.5223961, -1.3804942, 3.5806162, 3.5301714, 0
612, 1683445456, -0.6831001, -0.22260186, -0.41245335, 0.56014884, -10.312584, 2.2697773, 3.7315235, 0
613, 1683462123, -0.7051998, -0.21233547, -0.37577295, 0.5625509, -11.653743, 1.4402266, 2.9391603, 0
614, 1683478790, -0.73034465, -0.2105262, -0.34413382, 0.5512798, -10.372555, -0.8598976, 1.6001568, 0
616, 1683512124, -0.78042156, -0.22739671, -0.28772795, 0.5064659, 1.8227242, -2.5475545, 9.1654, 0
617, 1683528791, -0.8018569, -0.23403098, -0.25982702, 0.48456877, 2.5908794, -4.2610064, 9.002399, 0
618, 1683545458, -0.81987405, -0.23137942, -0.2347555, 0.4682116, 4.639973, -5.5250425, 8.208866, 0
620, 1683578792, -0.84523356, -0.21765088, -0.18363526, 0.45227018, 0.3413691, -6.3988285, 3.0159826, 0
622, 1683612126, -0.8643274, -0.20698908, -0.1416376, 0.43599856, 1.4497817, -5.0122857, 3.0062494, 0
624, 1683645460, -0.880614, -0.20325673, -0.1018779, 0.41579914, 3.0806696, -8.610619, 1.2922716, 0
625, 1683662127, -0.8868759, -0.19844815, -0.08626431, 0.4082766, 4.3465247, -9.0830345, -0.10233021, 0
626, 1683678794, -0.89211035, -0.19270182, -0.07329062, 0.4021143, 3.6039853, -8.081664, -0.33978462, 0
628, 1683712128, -0.90263504, -0.1756209, -0.058333855, 0.388673, 3.2096465, -6.609768, 0.20715046, 0
629, 1683728795, -0.9076052, -0.16662528, -0.053933963, 0.3816309, 2.8499475, -6.3733487, 0.83058167, 0
630, 1683745462, -0.9120227, -0.16004281, -0.048325256, 0.37460354, 3.0985415, -6.795545, 2.3663979, 0
632, 1683778796, -0.91851366, -0.15309548, -0.032089897, 0.3632172, 3.0879862, -5.9736714, -1.220396, 0
633, 1683795463, -0.91965115, -0.15099332, -0.02679132, 0.3616454, 2.6892846, -6.043779, -1.551405, 0
634, 1683812130, -0.91941226, -0.15008768, -0.023365937, 0.36286497, 1.4221857, -6.53018, -0.82001495, 0
637, 1683862131, -0.91611373, -0.15441528, -0.009253919, 0.3699571, -0.8972714, -6.425044, 0.18380451, 0
639, 1683895465, -0.9145023, -0.15928565, -0.0052744523, 0.37195152, -1.7514515, -5.72896, -2.3305378, 0
640, 1683912132, -0.91434383, -0.16542612, -0.0051947124, 0.369655, -1.1169025, -5.841941, -2.281045, 0
641, 1683928799, -0.91507244, -0.17321089, -0.0052522346, 0.36424592, -1.3668677, -5.9522505, -1.3455153, 0
643, 1683962133, -0.91867226, -0.18361534, -0.010665115, 0.3496791, 0.9181669, -6.5131683, -1.1246309, 0
644, 1683978800, -0.92044246, -0.18730651, -0.01378838, 0.3428905, 1.8880122, -6.5829954, -0.8160095, 0
645, 1683995467, -0.9216546, -0.19072402, -0.017268348, 0.33755156, 2.1564777, -5.5665936, -2.5562496, 0
647, 1684028801, -0.922642, -0.20003697, -0.028987639, 0.32854104, 1.2363707, -5.6738496, -2.7917871, 0
648, 1684045468, -0.9228194, -0.20457596, -0.037856825, 0.32431805, 1.0890334, -6.2227, -2.7717724, 0
649, 1684062135, -0.92265147, -0.20874976, -0.04879698, 0.32065362, 0.09365975, -7.64541, -1.4485617, 0
651, 1684095469, -0.9234249, -0.21887493, -0.068737425, 0.30776268, -1.9221069, -11.101275, -2.6118522, 0
652, 1684112136, -0.9240036, -0.22454952, -0.08282557, 0.29832363, -0.91878986, -13.377055, -5.3009186, 0
653, 1684128803, -0.9236828, -0.23026022, -0.102266915, 0.28877997, 0.47879985, -15.666256, -5.545663, 0
655, 1684162137, -0.91619146, -0.24893634, -0.15120646, 0.27535924, 4.000447, -19.672235, -0.55986404, 0
656, 1684178804, -0.9082298, -0.2580972, -0.17839137, 0.27702564, 5.770196, -20.379292, 1.1476765, 0
657, 1684195471, -0.89617527, -0.2663921, -0.20721257, 0.28815016, 6.743505, -21.693811, 3.4680223, 0
659, 1684228805, -0.8595395, -0.26978415, -0.2759658, 0.33513194, 7.775603, -17.961315, 3.2037191, 0
660, 1684245472, -0.842638, -0.25379035, -0.3150893, 0.35543287, -14.341961, 0.4670842, 16.429697, 0
662, 1684278806, -0.82868516, -0.23300833, -0.35340244, 0.36627418, 2.8328981, 1.0112721, -0.11352825, 0
664, 1684312140, -0.8193914, -0.23588997, -0.37358057, 0.36531278, 0.7400782, 0.64939094, 2.1527681, 0
666, 1684345474, -0.7987736, -0.2503386, -0.4108426, 0.3613335, -1.0676787, 5.674533, 2.1065092, 0
667, 1684362141, -0.7788416, -0.25419638, -0.45081928, 0.35442072, -1.4957112, 9.255857, 2.8871307, 0
668, 1684378808, -0.7476128, -0.25531828, -0.5067681, 0.3451609, -0.24900058, 8.667734, 5.8720465, 0
670, 1684412142, -0.6360529, -0.28451923, -0.63504267, 0.33356923, -8.871312, 29.760653, 19.745935, 0
671, 1684428809, -0.5488249, -0.3199494, -0.6905715, 0.34582794, -13.267071, 15.375982, 25.634892, 0
672, 1684445476, -0.4614882, -0.35578912, -0.7244861, 0.36827278, -29.38989, 32.088837, 32.42921, 0
674, 1684478810, -0.4338464, -0.36176425, -0.74546075, 0.35391295, 2.516608, -8.292923, -0.30591393, 0
675, 1684495477, -0.37935913, -0.38268363, -0.75372076, 0.3763072, -6.1327405, 17.472775, 0.110479355, 0
676, 1684512144, -0.33769837, -0.39698812, -0.7596965, 0.38895202, -9.460074, 42.156616, -10.030036, 0
679, 1684562145, -0.2872224, -0.40947652, -0.7545524, 0.4249061, 8.048744, 26.168934, -19.62857, 0
680, 1684578812, -0.29689118, -0.39518785, -0.7484399, 0.44224676, 4.6364675, 24.272863, -19.607681, 0
682, 1684612146, -0.35235557, -0.34737062, -0.7334813, 0.4660972, 0.98074657, 12.140513, -16.506126, 0
683, 1684628813, -0.3877542, -0.3204335, -0.7225324, 0.4743187, -0.035215136, 11.024592, -15.236027, 0
684, 1684645480, -0.42801386, -0.2925623, -0.708008, 0.4795814, -0.8091952, 10.298503, -14.000441, 0
686, 1684678814, -0.5099171, -0.24704301, -0.6612998, 0.49162903, 2.0562418, 4.321727, -9.939074, 0
687, 1684695481, -0.5454401, -0.23234247, -0.6283975, 0.5036774, 1.2938595, 6.348612, -6.963602, 0
689, 1684728815, -0.6088665, -0.21024811, -0.5477922, 0.5339134, 2.3558295, 7.381594, 0.1787138, 0
690, 1684745482, -0.6376066, -0.19839697, -0.50181204, 0.5498575, -1.1693505, 7.150308, 4.530452, 0
691, 1684762149, -0.664027, -0.18859874, -0.45294935, 0.5642676, -2.614883, 2.7638159, 6.7460365, 0
694, 1684812150, -0.74150753, -0.18989296, -0.31400418, 0.56175697, -4.0378623, -5.9711795, 14.116732, 0
695, 1684828817, -0.76879203, -0.19033316, -0.27458912, 0.5453394, -3.0844753, -6.885655, 11.851543, 0
697, 1684862151, -0.8201467, -0.18799199, -0.20544499, 0.49987292, -1.9127752, -5.6234937, 8.4086075, 0
698, 1684878818, -0.8438775, -0.18378189, -0.1749813, 0.4727987, -1.137151, -5.4350533, 7.0846043, 0
699, 1684895485, -0.8656793, -0.1778644, -0.14709803, 0.44428366, -0.45927754, -5.4703665, 6.370672, 0
701, 1684928819, -0.9012917, -0.16420898, -0.100856625, 0.3880708, 1.1016191, -6.5238037, 4.491145, 0
702, 1684945486, -0.9144253, -0.15639734, -0.08351626, 0.36394167, 3.203492, -6.8896294, 2.1508913, 0
703, 1684962153, -0.923386, -0.14923169, -0.07109466, 0.34654891, 6.463941, -7.3509836, 0.2015934, 0
705, 1684995487, -0.9307712, -0.13663208, -0.051962394, 0.33519968, 8.027691, -7.9806194, -0.017009735, 0
706, 1685012154, -0.9304631, -0.13436456, -0.044343587, 0.338054, 6.3748026, -8.546881, -1.3637724, 0
709, 1685062155, -0.9262717, -0.14392488, -0.022942647, 0.34762388, 0.6267244, -10.5333805, -1.0802889, 0
710, 1685078822, -0.9268713, -0.14300907, -0.018299203, 0.34667754, -0.9790386, -10.448085, -1.3197145, 0
711, 1685095489, -0.92828524, -0.13729835, -0.0171265, 0.34526044, -0.51097804, -8.782702, -2.2466645, 0
713, 1685128823, -0.9309667, -0.12688413, -0.021933176, 0.34173474, -0.7445401, -5.9552207, -2.2066045, 0
714, 1685145490, -0.9317472, -0.12672052, -0.024628466, 0.3394769, -0.70291626, -5.477158, -1.1356297, 0
716, 1685178824, -0.9328402, -0.13205719, -0.027350586, 0.33419183, -1.0453564, -5.4640703, -0.5056515, 0
717, 1685195491, -0.93342245, -0.13406296, -0.028463481, 0.33166504, -0.9637483, -5.4142857, -0.41130066, 0
718, 1685212158, -0.9339557, -0.13591509, -0.028723422, 0.32937962, -0.33939987, -5.11269, -0.90920734, 0
720, 1685245492, -0.9344622, -0.14353439, -0.028550962, 0.32469276, 0.010687887, -5.4163237, -1.8562784, 0
721, 1685262159, -0.9347404, -0.1480343, -0.028223978, 0.32188797, 0.7143874, -5.9622293, -2.033617, 0
722, 1685278826, -0.93501055, -0.15299326, -0.028082345, 0.318782, 1.0593979, -5.9313855, -2.8849287, 0
724, 1685312160, -0.9349588, -0.16223869, -0.03376679, 0.31377164, 1.8612349, -5.723416, -3.9346395, 0
725, 1685328827, -0.9345405, -0.1680695, -0.039150782, 0.3113134, 1.1329833, -6.4409785, -2.9163485, 0
726, 1685345494, -0.93429387, -0.17257844, -0.046430144, 0.30857456, 0.114277646, -6.9237747, -2.9430861, 0
728, 1685378828, -0.93523204, -0.17929895, -0.06653446, 0.298041, 0.19414145, -9.526687, -3.0596442, 0
729, 1685395495, -0.9361594, -0.18629044, -0.07545394, 0.28856617, 0.7437246, -12.382614, -2.6614947, 0
732, 1685445496, -0.93035805, -0.22331314, -0.115591824, 0.26695675, 5.8253355, -22.246902, -5.4990664, 0
733, 1685462163, -0.9212954, -0.23796692, -0.13908514, 0.27441597, 5.435441, -25.671276, 0.6398363, 0
734, 1685478830, -0.9084574, -0.2523975, -0.16561025, 0.2891992, 3.8419297, -25.478127, 1.0119333, 0
737, 1685528831, -0.8565564, -0.25523338, -0.2864003, 0.34525946, 6.443181, -10.80055, 35.916348, 0
738, 1685545498, -0.8469735, -0.24869244, -0.30444378, 0.35800043, 4.112879, 2.3831146, 2.6629066, 0
740, 1685578832, -0.830896, -0.24178141, -0.35185367, 0.3569521, 1.4438087, 1.1395134, -0.10634899, 0
741, 1685595499, -0.81960744, -0.2446413, -0.3766442, 0.3558029, 0.123781025, 0.9660221, 0.5564041, 0
742, 1685612166, -0.80445564, -0.2502916, -0.4072864, 0.35268313, 0.50325394, 3.2525005, 1.0796146, 0
744, 1685645500, -0.7575074, -0.25991186, -0.4952592, 0.33676258, 0.90283144, 5.9662814, 1.9875593, 0
745, 1685662167, -0.7224512, -0.26476356, -0.55200255, 0.32143402, 1.2409385, 9.358753, 6.932846, 0
747, 1685695501, -0.6108149, -0.29707107, -0.6725206, 0.29399356, -15.003788, 35.47597, 22.955242, 0
748, 1685712168, -0.52777535, -0.32636657, -0.72410095, 0.30112818, -18.87539, 35.329834, 34.774998, 0
749, 1685728835, -0.46114492, -0.35348767, -0.75104403, 0.31366676, -40.440712, 35.55735, 22.900684, 0
752, 1685778836, -0.3603261, -0.43106055, -0.7410593, 0.3677571, -12.228202, 36.573288, 1.017355, 0
753, 1685795503, -0.33128986, -0.44091582, -0.75148624, 0.36217523, -3.374806, 35.218273, -8.243488, 0
755, 1685828837, -0.27688313, -0.4532593, -0.7610284, 0.37254483, 7.4964004, 26.674257, -15.514591, 0
756, 1685845504, -0.26475176, -0.45091426, -0.76115626, 0.38377893, 5.5142508, 27.199833, -20.42308, 0
757, 1685862171, -0.26878834, -0.44121933, -0.76162827, 0.39123258, 5.686242, 21.632513, -20.096703, 0
759, 1685895505, -0.3110698, -0.40590417, -0.7586919, 0.40364143, 2.9151735, 13.917257, -17.357437, 0
760, 1685912172, -0.34192806, -0.38221478, -0.75561273, 0.40756434, 1.1281489, 9.874118, -15.853252, 0
761, 1685928839, -0.3744507, -0.3567326, -0.75050545, 0.41150016, 0.2966407, 8.682105, -14.664827, 0
763, 1685962173, -0.44763452, -0.30561918, -0.72512305, 0.42482817, -0.3316046, 7.3165584, -12.271953, 0
764, 1685978840, -0.48519748, -0.28358442, -0.70227045, 0.43708345, -0.054383162, 8.125509, -9.737558, 0
767, 1686028841, -0.58311963, -0.23952515, -0.5937846, 0.5000812, -1.2020757, 3.0378282, -3.734058, 0
768, 1686045508, -0.60962677, -0.23589532, -0.5501046, 0.5197652, -1.6782546, 4.572074, -1.3675394, 0
770, 1686078842, -0.66222763, -0.23967175, -0.45767033, 0.5427817, -0.74289227, 3.06423, 5.0077934, 0
771, 1686095509, -0.68921053, -0.24649504, -0.41089165, 0.5435617, -0.09157281, 1.8985364, 9.300882, 0
772, 1686112176, -0.7173032, -0.25192466, -0.36798674, 0.53540474, -0.21730645, -0.2816719, 12.067221, 0
774, 1686145510, -0.7757442, -0.25249973, -0.29154873, 0.49952608, 1.1719539, -4.02856, 12.400486, 0
775, 1686162177, -0.80201113, -0.24950376, -0.2560814, 0.47855067, 2.128219, -4.611834, 11.578426, 0
776, 1686178844, -0.82476753, -0.2444284, -0.22264555, 0.4588077, 2.390452, -4.774463, 10.102917, 0
778, 1686212178, -0.8585439, -0.22863069, -0.16319846, 0.42902088, 3.6303434, -6.977408, 7.737404, 0
779, 1686228845, -0.86980426, -0.21770658, -0.13805409, 0.4207706, 2.1758587, -7.168917, 4.1130705, 0
782, 1686278846, -0.88479686, -0.186315, -0.096187875, 0.4162107, 1.3999267, -8.929726, 2.1246767, 0
783, 1686295513, -0.8873898, -0.1805691, -0.084419355, 0.4157761, 0.49714008, -8.903964, 0.31451225, 0
784, 1686312180, -0.88953406, -0.17565045, -0.07581764, 0.41495797, 0.6755289, -8.575734, -2.1843634, 0
786, 1686345514, -0.89276206, -0.17127043, -0.06567806, 0.41157153, -0.7765659, -8.580233, -1.547843, 0
787, 1686362181, -0.89485, -0.17017424, -0.06423274, 0.40770176, -1.4408752, -7.1789064, -2.226994, 0
788, 1686378848, -0.8977572, -0.16826096, -0.06668109, 0.4016669, -1.8113921, -5.6577287, -1.7263079, 0
790, 1686412182, -0.906276, -0.16032396, -0.07546393, 0.3838323, -0.2360156, -4.2340293, 2.229578, 0
791, 1686428849, -0.9108728, -0.15580457, -0.07745917, 0.37429646, 1.2534692, -3.7747486, 1.5579777, 0
792, 1686445516, -0.9144275, -0.15329142, -0.077264786, 0.36662838, 2.1347258, -4.428818, 1.3341036, 0
794, 1686478850, -0.91760176, -0.15174246, -0.07391612, 0.359972, 1.0793017, -3.7937686, -0.38736343, 0
795, 1686495517, -0.9176569, -0.1513626, -0.07252598, 0.36027405, 0.369273, -3.5898771, -0.14231491, 0
797, 1686528851, -0.9173324, -0.15183425, -0.063260384, 0.36264023, -0.68238217, -3.5048227, 0.24471283, 0
798, 1686545518, -0.9173846, -0.15317865, -0.056735776, 0.36302245, -0.97493815, -3.4746525, -1.3801975, 0
799, 1686562185, -0.9175149, -0.15452154, -0.051871393, 0.36285135, -1.0668014, -3.5216117, -2.4988937, 0
801, 1686595519, -0.9181893, -0.15819466, -0.04896989, 0.3599543, -0.8084801, -4.0249987, -1.5325794, 0
802, 1686612186, -0.91895866, -0.16016762, -0.04856293, 0.35716274, -0.6655479, -4.964087, 0.19913578, 0
803, 1686628853, -0.91996264, -0.16279247, -0.047455776, 0.35352147, 0.12797312, -4.0107646, -1.5947018, 0
805, 1686662187, -0.9219978, -0.16992016, -0.048870355, 0.3445594, 0.38731354, -4.3403077, -1.4785967, 0
806, 1686678854, -0.9231433, -0.17233233, -0.051451266, 0.33988687, 1.1924936, -4.3405213, -2.1165886, 0
809, 1686728855, -0.9249627, -0.1855584, -0.05834753, 0.32660344, 2.0254252, -4.795226, -1.9601259, 0
810, 1686745522, -0.9253165, -0.19312558, -0.05907899, 0.3210356, 1.8427515, -4.956959, -1.7331429, 0
811, 1686762189, -0.9259774, -0.19894378, -0.06062299, 0.31523705, 1.4286005, -5.5502276, -1.8903489, 0
813, 1686795523, -0.9272088, -0.2108716, -0.06668948, 0.302377, 1.1485124, -8.309232, -1.6194706, 0
814, 1686812190, -0.9279295, -0.2189055, -0.06844024, 0.2939478, -0.46048185, -9.409791, -1.9697127, 0
815, 1686828857, -0.9284351, -0.2254945, -0.07415366, 0.28587434, 0.53175825, -10.332054, -5.745374, 0
817, 1686862191, -0.9214694, -0.25151968, -0.096287146, 0.280041, 1.8494691, -18.275238, -4.734461, 0
818, 1686878858, -0.91283804, -0.26474273, -0.11847847, 0.2875121, 4.364318, -22.814262, -5.220082, 0
819, 1686895525, -0.8993403, -0.27625063, -0.14835636, 0.30483648, 5.639213, -25.466028, -1.9558344, 0
821, 1686928859, -0.86622083, -0.24880572, -0.2238132, 0.3711159, 5.321873, -53.33752, 34.68974, 0
823, 1686962193, -0.84144914, -0.23880067, -0.27730563, 0.39761966, 13.493055, -10.000137, 6.4137306, 0
825, 1686995527, -0.8204076, -0.26069725, -0.3293349, 0.3880323, -1.6454275, 2.2857223, 0.6794596, 0
826, 1687012194, -0.80154765, -0.2724087, -0.36438107, 0.38807666, -2.553665, 3.0412524, 1.3413334, 0
828, 1687045528, -0.7425833, -0.28731167, -0.46844497, 0.38294065, 1.8736316, 5.7734637, 1.4776564, 0
829, 1687062195, -0.70111555, -0.29607126, -0.5326244, 0.37034082, 2.171259, 10.336215, 7.08457, 0
830, 1687078862, -0.6462905, -0.31352368, -0.60046685, 0.35144442, 1.8559774, 15.891621, 16.582573, 0
832, 1687112196, -0.493711, -0.36039594, -0.71713185, 0.3348856, -22.405205, 54.656307, 36.9591, 0
833, 1687128863, -0.45150977, -0.34177056, -0.76659715, 0.30285805, -56.375496, 56.84564, 22.918377, 0
834, 1687145530, -0.45776096, -0.34796846, -0.756817, 0.31090704, -7.1419783, -9.963602, 8.576643, 0
836, 1687178864, -0.34658527, -0.39445922, -0.7614168, 0.38024625, -25.609524, 42.220947, -3.3404822, 0
838, 1687212198, -0.2682996, -0.41504657, -0.7793711, 0.3852203, 16.816198, 32.422783, -10.011383, 0
840, 1687245532, -0.214047, -0.406345, -0.77625334, 0.43192652, 4.3250813, 24.472277, -28.513397, 0
841, 1687262199, -0.21563308, -0.39418763, -0.7762676, 0.4422548, 4.8708878, 22.18251, -26.827637, 0
842, 1687278866, -0.23495376, -0.3820462, -0.77333, 0.44817466, 3.2968788, 16.819715, -23.921154, 0
844, 1687312200, -0.30845875, -0.35617334, -0.76142293, 0.44529915, 2.620094, 10.699961, -17.401545, 0
845, 1687328867, -0.35366142, -0.34083247, -0.7499813, 0.44311097, 3.6657422, 8.510609, -14.090449, 0
846, 1687345534, -0.40202212, -0.3238218, -0.7318522, 0.4449408, 4.7519855, 9.169678, -11.308627, 0
848, 1687378868, -0.49320307, -0.28761905, -0.6756837, 0.46641165, 6.728214, 2.900217, -7.712859, 0
849, 1687395535, -0.5308155, -0.26794583, -0.6407795, 0.4856993, 5.0142565, 5.30489, -4.873323, 0
850, 1687412202, -0.56640923, -0.24867009, -0.60139614, 0.5056962, 3.0261154, 5.727083, -4.111517, 0
853, 1687462203, -0.6586181, -0.20055754, -0.4666652, 0.55523384, -4.3835793, 6.1285386, 5.006687, 0
855, 1687495537, -0.71604073, -0.19509758, -0.36615792, 0.56143844, -3.3544023, 1.2690272, 11.252611, 0
856, 1687512204, -0.7431275, -0.19397801, -0.3179123, 0.5559926, -2.3248253, -0.43072063, 13.861408, 0
857, 1687528871, -0.76877135, -0.19181678, -0.27088287, 0.54670084, -3.4760234, -2.4990566, 12.531637, 0
859, 1687562205, -0.81623477, -0.18929365, -0.18980303, 0.5118261, -6.7281356, -4.6908135, 14.509411, 0
860, 1687578872, -0.8395938, -0.1894702, -0.15236735, 0.48582897, -5.3166766, -7.5167785, 15.156506, 0
861, 1687595539, -0.86124796, -0.18719105, -0.11956219, 0.45714146, -3.4139032, -10.033868, 10.071827, 0
863, 1687628873, -0.8955364, -0.17044786, -0.07757597, 0.40374008, -0.5440594, -9.848956, 2.6896305, 0
864, 1687645540, -0.907681, -0.15703034, -0.06966025, 0.38297054, 4.4263015, -9.329847, -0.6988888, 0
865, 1687662207, -0.91576713, -0.1474613, -0.0657258, 0.36792392, 6.2546577, -9.061278, -1.7110844, 0
867, 1687695541, -0.9218221, -0.14414933, -0.053053483, 0.35596728, 7.4571905, -9.9658375, 0.6114912, 0
868, 1687712208, -0.92212176, -0.14443569, -0.042615972, 0.35647705, 4.9954185, -10.245254, 1.1869612, 0
869, 1687728875, -0.9218717, -0.1402956, -0.03385228, 0.3597025, 4.1713924, -9.363758, -1.1314306, 0
871, 1687762209, -0.9199445, -0.1324184, -0.024014052, 0.36831072, 0.06547902, -8.106181, -1.4992962, 0
872, 1687778876, -0.91975653, -0.12946303, -0.021107864, 0.37000522, -1.5384411, -7.1509323, -1.1150475, 0
873, 1687795543, -0.92091537, -0.12683643, -0.018837439, 0.36815012, -2.3634179, -6.3830967, -1.0198288, 0
875, 1687828877, -0.92622876, -0.12328314, -0.015439179, 0.355985, -0.06056642, -6.442148, -1.1686764, 0
876, 1687845544, -0.9289327, -0.12171318, -0.014591642, 0.34945562, 1.0283952, -6.3132906, -1.5326757, 0
878, 1687878878, -0.93240094, -0.11876089, -0.0142206885, 0.3411513, 1.465067, -6.3281693, -0.7882204, 0
880, 1687912212, -0.93386614, -0.117776915, -0.012704071, 0.33752522, 1.6212494, -4.803981, -1.9292331, 0
882, 1687945546, -0.93476737, -0.118038855, -0.013172973, 0.3349111, 1.6036363, -4.364548, -2.4167352, 0
883, 1687962213, -0.9351001, -0.11959511, -0.014233507, 0.33338305, 1.3854821, -4.0963054, -2.6898956, 0
884, 1687978880, -0.9353782, -0.120422885, -0.01693222, 0.3321769, 0.27706248, -4.2216544, -1.732872, 0
886, 1688012214, -0.9367572, -0.11952268, -0.024544043, 0.32811573, -0.15646733, -3.5634239, -0.45631695, 0
887, 1688028881, -0.93793476, -0.12129594, -0.026661122, 0.3239091, 0.26386362, -2.8490405, -1.1133537, 0
888, 1688045548, -0.9392537, -0.12383708, -0.029429097, 0.31884614, 0.43811914, -2.3602684, -2.0059676, 0
890, 1688078882, -0.9411149, -0.13040811, -0.038552113, 0.30963263, 1.0875747, -3.3542094, -1.7467556, 0
891, 1688095549, -0.94101155, -0.13708502, -0.04402747, 0.3063148, 1.0740806, -3.6489534, -2.9168673, 0
892, 1688112216, -0.93991137, -0.14784394, -0.049840886, 0.3037876, 0.7068872, -5.8344135, -1.964067, 0
895, 1688162217, -0.93583053, -0.1837205, -0.05891741, 0.2950576, 0.10694525, -12.196538, -4.0669823, 0
896, 1688178884, -0.93441546, -0.19395961, -0.06390415, 0.29193467, 0.5739399, -14.757744, -3.7455907, 0
898, 1688212218, -0.9286753, -0.21362737, -0.08342786, 0.29159537, 1.0160627, -18.061216, -2.8150978, 0
899, 1688228885, -0.9234926, -0.22523996, -0.09821813, 0.29469275, -1.7041023, -19.131697, -1.4987888, 0
900, 1688245552, -0.9158438, -0.23808476, -0.12116058, 0.29987997, -0.7585251, -19.303385, -5.383276, 0
902, 1688278886, -0.88647926, -0.26048723, -0.19588418, 0.32862186, 7.408894, -32.842003, 8.276367, 0
903, 1688295553, -0.86667585, -0.24126904, -0.22814676, 0.37238863, 12.961812, -56.08721, 30.63784, 0
905, 1688328887, -0.83441496, -0.23065215, -0.29329064, 0.4057017, 15.025689, -9.77893, 6.5373535, 0
906, 1688345554, -0.82404923, -0.2398698, -0.3200732, 0.4012735, 2.124593, 3.9966383, -0.5329323, 0
907, 1688362221, -0.81165767, -0.25557637, -0.35007048, 0.39166987, -0.17984366, 2.4122074, 1.7782412, 0
910, 1688412222, -0.72442424, -0.2833484, -0.5055946, 0.37330848, 0.2728807, 12.934453, 10.444311, 0
911, 1688428889, -0.6698149, -0.29245567, -0.57920694, 0.3611081, -1.5110933, 18.439346, 16.302757, 0
913, 1688462223, -0.50838834, -0.34480315, -0.7009668, 0.36243615, -31.267302, 41.50535, 35.07241, 0
914, 1688478890, -0.45720404, -0.3594727, -0.741245, 0.33520418, -54.024193, 52.98858, 27.1628, 0
915, 1688495557, -0.45804462, -0.37657088, -0.73800325, 0.32218426, -5.5000887, 0.8874392, 7.369982, 0
917, 1688528891, -0.34552962, -0.4201738, -0.75881773, 0.35821924, -8.073766, 43.64643, 2.0590754, 0
918, 1688545558, -0.30931538, -0.4242432, -0.76885223, 0.36506197, 3.5881305, 36.790104, -7.465531, 0
919, 1688562225, -0.2718733, -0.4245465, -0.7728968, 0.38540617, 8.842398, 27.558022, -11.179599, 0
921, 1688595559, -0.21598263, -0.4079642, -0.767625, 0.44466886, 3.643674, 26.893217, -22.015842, 0
922, 1688612226, -0.2136487, -0.38878852, -0.7653777, 0.4663222, 2.1716707, 21.326212, -22.223572, 0
925, 1688662227, -0.27328795, -0.32605886, -0.7587333, 0.49334088, 1.4016086, 10.056744, -18.10653, 0
926, 1688678894, -0.30395508, -0.3085598, -0.7524036, 0.49633962, 2.2428544, 4.916993, -16.43822, 0
927, 1688695561, -0.3351956, -0.29335797, -0.743469, 0.4988998, 2.9029126, 4.3658705, -15.120299, 0
929, 1688728895, -0.40524685, -0.2732318, -0.71201324, 0.50420094, 3.3235722, 6.468624, -12.821883, 0
930, 1688745562, -0.44415054, -0.26650822, -0.68887025, 0.50717217, 4.4836397, 5.8520026, -10.504892, 0
931, 1688762229, -0.4821834, -0.2614054, -0.66042066, 0.5129065, 5.7899475, 5.105385, -8.03647, 0
933, 1688795563, -0.55521166, -0.24772109, -0.5889635, 0.5325022, 3.813307, 8.49993, -1.959393, 0
934, 1688812230, -0.5912549, -0.23766746, -0.5464864, 0.5434579, 2.6666427, 8.824919, 0.91767406, 0
936, 1688845564, -0.6555217, -0.2196652, -0.45367634, 0.5623865, -3.0298934, 6.7890077, 6.9721966, 0
937, 1688862231, -0.6857352, -0.21349362, -0.40610927, 0.5650884, -4.6830506, 5.425352, 8.802649, 0
938, 1688878898, -0.7145933, -0.21192393, -0.35897392, 0.5618224, -6.5681806, 2.9049559, 11.910303, 0
940, 1688912232, -0.7736335, -0.2053628, -0.270877, 0.53479433, -8.011832, -2.4523456, 18.18707, 0
941, 1688928899, -0.8025756, -0.19956198, -0.2290788, 0.5134516, -7.653546, -6.678939, 14.069887, 0
942, 1688945566, -0.8287, -0.19334649, -0.19172284, 0.48905838, -6.666735, -9.383497, 10.009781, 0
944, 1688978900, -0.8696344, -0.17717578, -0.13777032, 0.4398021, -2.3641603, -9.433718, 5.849063, 0
945, 1688995567, -0.88505495, -0.16758558, -0.11969912, 0.41752476, 1.6859376, -9.556951, 5.518546, 0
946, 1689012234, -0.898119, -0.15752903, -0.10478355, 0.39705077, 2.5446415, -8.657301, 4.6589327, 0
948, 1689045568, -0.9113989, -0.15138306, -0.08097762, 0.37408528, 7.0445023, -10.411515, -2.9631362, 0
949, 1689062235, -0.91172934, -0.1587498, -0.07042862, 0.37235773, 4.093261, -11.805351, 0.89483166, 0
952, 1689112236, -0.9099556, -0.16445339, -0.04595595, 0.37800303, 2.8647456, -10.092622, -3.862924, 0
953, 1689128903, -0.9082205, -0.16704896, -0.042219967, 0.38145724, 1.1684738, -8.499752, -3.9510336, 0
954, 1689145570, -0.9070498, -0.16680066, -0.04240998, 0.38431984, -1.2806556, -6.823674, -0.897274, 0
956, 1689178904, -0.9095688, -0.15699396, -0.049501717, 0.38164032, -1.4767398, -4.0804825, 0.14192486, 0
957, 1689195571, -0.9126421, -0.15557985, -0.051017977, 0.3746183, -1.1269568, -3.9009292, 1.0353222, 0
959, 1689228905, -0.92044413, -0.1539617, -0.051205188, 0.3556942, 1.2045082, -3.921053, 0.98201084, 0
960, 1689245572, -0.92398655, -0.15238367, -0.050288223, 0.34721926, 2.3512719, -3.7590034, 0.92388916, 0
961, 1689262239, -0.9266125, -0.14968888, -0.0489978, 0.34153166, 2.6249375, -3.5772097, 0.6852503, 0
963, 1689295573, -0.92828697, -0.14537518, -0.044827357, 0.3394142, 1.5040233, -3.3783476, 0.37125874, 0
964, 1689312240, -0.92803675, -0.14466724, -0.041316055, 0.34084317, 0.17994827, -3.8040922, 0.9280033, 0
967, 1689362241, -0.9276402, -0.1468578, -0.02606308, 0.34248975, -0.11116557, -3.318806, -1.7972136, 0
968, 1689378908, -0.928293, -0.1471841, -0.0217949, 0.34087595, -0.37642488, -3.598287, -0.97039413, 0
969, 1689395575, -0.92933214, -0.14550054, -0.019360438, 0.3389081, -0.15162767, -3.6675775, -1.2767458, 0
971, 1689428909, -0.9310045, -0.14525712, -0.016845547, 0.33452812, 0.3025525, -5.1291237, -0.76531124, 0
972, 1689445576, -0.93189836, -0.14771146, -0.01515666, 0.33102745, 0.2849329, -4.589032, -2.5267124, 0
973, 1689462243, -0.9328389, -0.15101019, -0.016391922, 0.3268041, 0.60903174, -4.118861, -3.7991333, 0
975, 1689495577, -0.93460006, -0.1592456, -0.02824134, 0.31690398, 1.4624981, -4.965057, -2.7792435, 0
976, 1689512244, -0.9350742, -0.16608277, -0.035280045, 0.3112398, 2.2638779, -6.225965, -1.3302593, 0
977, 1689528911, -0.93531954, -0.17500587, -0.04052539, 0.30490977, 1.8246967, -6.993499, -1.4891682, 0
979, 1689562245, -0.93563366, -0.1905159, -0.05516875, 0.29208195, 1.1600412, -10.349338, -2.6397529, 0
981, 1689595579, -0.935512, -0.2031817, -0.073049836, 0.2797506, 3.424148, -13.241315, -5.326624, 0
983, 1689628913, -0.92938185, -0.2246763, -0.09742829, 0.2762967, 3.527365, -16.17971, -2.346212, 0
984, 1689645580, -0.923262, -0.23508163, -0.11483394, 0.2814237, 3.5883775, -17.687138, -5.2522144, 0
986, 1689678914, -0.8988409, -0.25695965, -0.16909957, 0.31228873, 3.2347143, -20.327187, -3.1319928, 0
987, 1689695581, -0.88032055, -0.26099673, -0.20670018, 0.33801427, 1.6873362, -29.028547, 4.8235426, 0
988, 1689712248, -0.8641488, -0.2336131, -0.23824012, 0.37679625, 6.880955, -60.264973, 23.648788, 0
990, 1689745582, -0.83098125, -0.22225055, -0.29600734, 0.41535124, 10.903041, -6.3037653, 7.110983, 0
991, 1689762249, -0.81544745, -0.22805965, -0.33058977, 0.41690135, 2.2444634, 6.1127224, -1.0714226, 0
992, 1689778916, -0.7974659, -0.24006146, -0.37064695, 0.41121963, 2.3583925, 1.8535838, 1.8845005, 0
994, 1689812250, -0.7383244, -0.26503846, -0.47754, 0.39578938, -0.985326, 6.8975296, 4.1068974, 0
996, 1689845584, -0.6350238, -0.29784536, -0.60531616, 0.37641376, -6.276106, 25.744001, 19.44358, 0
998, 1689878918, -0.47306, -0.35017377, -0.70303726, 0.39924097, -39.49821, 50.315006, 35.308426, 0
999, 1689895585, -0.45542783, -0.35264003, -0.71970546, 0.3877069, -52.93449, 59.655216, 13.646038, 0
1000, 1689912252, -0.44468814, -0.3669526, -0.722021, 0.382552, -11.803559, -23.98101, -3.281032, 0
1002, 1689945586, -0.34081638, -0.431754, -0.7368544, 0.3931163, -4.7805424, 50.00278, -10.891039, 0
1003, 1689962253, -0.31107432, -0.4531955, -0.7337532, 0.3993931, 20.233341, 30.770407, -10.382051, 0
1004, 1689978920, -0.27977088, -0.46657804, -0.7223423, 0.42698583, 15.111822, 26.546831, -19.28456, 0
1006, 1690012254, -0.26278687, -0.4576764, -0.71063954, 0.46532673, 9.889479, 22.977762, -23.811722, 0
1007, 1690028921, -0.27929968, -0.44386238, -0.7012354, 0.48302054, 8.62725, 18.839151, -19.792545, 0
1008, 1690045588, -0.30681852, -0.4254073, -0.68937373, 0.4997168, 4.9679937, 19.75246, -17.074, 0
1010, 1690078922, -0.39756483, -0.37282792, -0.6549691, 0.5234683, 3.1645448, 13.629037, -10.038506, 0
1011, 1690095589, -0.44765, -0.34457332, -0.6268035, 0.53671056, 3.97597, 7.382114, -6.776675, 0
1013, 1690128923, -0.5274371, -0.29979938, -0.5626374, 0.5616331, 4.95656, 1.5186764, -5.2066417, 0
1014, 1690145590, -0.55852604, -0.28529674, -0.5284564, 0.5722327, 5.063359, 6.867566, -2.1226144, 0
1015, 1690162257, -0.5884671, -0.26835155, -0.49154338, 0.5832162, 3.7382178, 7.575371, 4.825632, 0
1017, 1690195591, -0.6425932, -0.22431165, -0.41206944, 0.6058209, -6.069433, 4.6162424, 2.8888245, 0
1018, 1690212258, -0.6697843, -0.21183583, -0.37320408, 0.606049, -8.916121, 5.8957496, 3.4284782, 0
1019, 1690228925, -0.7013707, -0.2063984, -0.33584508, 0.5939268, -10.452072, 6.5424485, 6.690943, 0
1021, 1690262259, -0.76642334, -0.20626955, -0.2606607, 0.5496963, -1.7002805, -1.8183697, 9.358637, 0
1023, 1690295593, -0.81267464, -0.2027545, -0.19191766, 0.5115469, -3.4058297, -4.286693, 15.098146, 0
1025, 1690328927, -0.8465295, -0.18762827, -0.12757242, 0.48163342, -6.9760137, -8.378471, 7.2794456, 0
1026, 1690345594, -0.8602978, -0.18120101, -0.10136188, 0.46566236, -6.8772645, -8.913312, 5.069084, 0
1027, 1690362261, -0.8732846, -0.17582291, -0.08005446, 0.4473405, -6.446837, -8.067444, 3.5491447, 0
1029, 1690395595, -0.89815533, -0.16751876, -0.058612067, 0.4023444, 0.9788858, -7.0661063, -1.9560828, 0
1030, 1690412262, -0.9087596, -0.1644554, -0.055632774, 0.37957528, 1.7099836, -10.632743, 5.7272673, 0
1031, 1690428929, -0.91793096, -0.15607725, -0.049378466, 0.3614781, 6.544184, -10.747822, 2.755724, 0
1033, 1690462263, -0.92525995, -0.1525875, -0.030888336, 0.34600437, 6.7080135, -8.958396, -1.8146396, 0
1034, 1690478930, -0.9258988, -0.15124384, -0.023664232, 0.34545437, 5.123417, -8.4936695, -2.3528733, 0
1035, 1690495597, -0.9256779, -0.1496563, -0.018483564, 0.34704998, 3.7150986, -8.260523, -3.1172638, 0
1038, 1690545598, -0.92474586, -0.1488348, -0.013048649, 0.35012156, -0.75885946, -7.524664, -1.6475906, 0
1039, 1690562265, -0.9264742, -0.14682274, -0.013368018, 0.34636968, -1.4249278, -6.9647512, -1.3990498, 0
1041, 1690595599, -0.93192494, -0.14378569, -0.015414428, 0.3326649, 0.12718022, -5.7590613, -2.3795662, 0
1042, 1690612266, -0.93467075, -0.14318228, -0.016339645, 0.32509154, 0.37989146, -6.20724, -0.92185783, 0
1044, 1690645600, -0.93896407, -0.14021927, -0.01720583, 0.3137693, 1.3194798, -5.8531322, -1.1218576, 0
1045, 1690662267, -0.93986833, -0.14041583, -0.016816027, 0.3109824, 2.2500756, -5.344733, -1.5368338, 0
1046, 1690678934, -0.93977094, -0.14423469, -0.015590109, 0.30959004, 2.9698293, -4.690873, -1.8426404, 0
1048, 1690712268, -0.93829805, -0.15054317, -0.01617122, 0.311021, 2.2793584, -5.1963577, 0.6431742, 0
1049, 1690728935, -0.93751305, -0.15151154, -0.016282585, 0.31290627, 2.0547242, -4.4076395, 0.19551182, 0
1050, 1690745602, -0.9367625, -0.15263243, -0.017077811, 0.31456247, 0.75087243, -2.8169453, -0.95407677, 0
1053, 1690795603, -0.93666685, -0.15636668, -0.02442082, 0.3125224, 1.9113145, -2.3618577, -1.3345871, 0
1054, 1690812270, -0.9369904, -0.15786476, -0.027997121, 0.31049293, 2.451385, -3.4180322, -1.1610603, 0
1056, 1690845604, -0.93720436, -0.16096945, -0.035529297, 0.30746773, 2.1374872, -4.8764997, -0.93275356, 0
1057, 1690862271, -0.9370185, -0.16390707, -0.039143473, 0.30604, 2.0536945, -5.07629, -2.1443696, 0
1058, 1690878938, -0.9364889, -0.1687379, -0.043427765, 0.3044537, 1.7597659, -5.986442, -2.3891492, 0
1060, 1690912272, -0.93485665, -0.18013723, -0.05424066, 0.301187, 0.6898182, -8.532191, -1.2270594, 0
1061, 1690928939, -0.93421316, -0.18538067, -0.059991606, 0.29890278, -0.077252336, -9.605387, -2.143033, 0
1062, 1690945606, -0.93378055, -0.19089474, -0.06689233, 0.29529724, -0.6206195, -11.255643, -1.7094898, 0
1064, 1690978940, -0.93380666, -0.20296058, -0.08229162, 0.2830235, -0.4962981, -13.729761, -5.1455717, 0
1065, 1690995607, -0.931936, -0.21367672, -0.09552107, 0.27708387, 2.174835, -16.55047, -3.2898722, 0
1068, 1691045608, -0.9041977, -0.25417072, -0.17332488, 0.29638502, 13.323072, -17.377825, -3.8513117, 0
1069, 1691062275, -0.88555044, -0.25322285, -0.21168119, 0.32700384, 12.285542, -30.92191, -1.5393238, 0
1072, 1691112276, -0.8524616, -0.23028105, -0.28453436, 0.37333912, 10.408035, -5.7386646, 5.244176, 0
1073, 1691128943, -0.84089947, -0.23975298, -0.3137684, 0.3701592, -0.06712407, 4.09124, 0.11104393, 0
1075, 1691162277, -0.8006048, -0.26457828, -0.4009204, 0.35826653, -2.6800325, 8.964796, 3.5444584, 0
1077, 1691195611, -0.71351266, -0.26883933, -0.54630846, 0.34674802, -1.4387264, 17.555548, 18.686726, 0
1079, 1691228945, -0.5392027, -0.33462083, -0.67931044, 0.36863098, -21.5922, 21.142172, 38.202915, 0
1080, 1691245612, -0.46714532, -0.35443443, -0.7275361, 0.3562369, -56.9085, 63.70952, 42.959286, 0
1081, 1691262279, -0.47107267, -0.3590963, -0.7374976, 0.32449904, -22.741522, 12.511713, 6.8498707, 0
1083, 1691295613, -0.3454767, -0.40819895, -0.7728524, 0.34173173, -18.385378, 50.640865, 4.673748, 0
1084, 1691312280, -0.30093256, -0.42171776, -0.785655, 0.33823365, 0.8844676, 43.731953, -9.495415, 0
1085, 1691328947, -0.25417045, -0.4340515, -0.7889023, 0.35311738, 13.949478, 32.713924, -14.620877, 0
1087, 1691362281, -0.19357757, -0.4267615, -0.7797662, 0.41524565, 9.137045, 28.897045, -26.884985, 0
1088, 1691378948, -0.19139771, -0.40619826, -0.77575195, 0.44344196, 6.371636, 19.728771, -23.913048, 0
1089, 1691395615, -0.1986976, -0.3805828, -0.7741993, 0.46513802, 3.1465046, 15.628387, -22.729448, 0
1091, 1691428949, -0.2450409, -0.32395887, -0.77886164, 0.4779562, -0.9681914, 11.297206, -21.98861, 0
1092, 1691445616, -0.27755183, -0.2969698, -0.7819829, 0.47258732, 0.9069292, 6.3267, -18.941162, 0
1094, 1691478950, -0.35168207, -0.26234782, -0.7696452, 0.46389815, 0.5400767, 5.507143, -16.446213, 0
1095, 1691495617, -0.3934546, -0.25305068, -0.7552461, 0.45915568, 0.9371544, 5.2251606, -14.292181, 0
1098, 1691545618, -0.52354074, -0.23573922, -0.6683651, 0.4729504, 2.9818017, 8.081342, -5.436783, 0
1099, 1691562285, -0.56528604, -0.2249965, -0.6287542, 0.4843124, 1.7313745, 7.0195503, -4.028827, 0
1100, 1691578952, -0.60356736, -0.2151596, -0.5845412, 0.49778137, 1.2519984, 8.493936, -1.119564, 0
1102, 1691612286, -0.67233074, -0.20369254, -0.4816578, 0.5239738, -2.3031843, 8.489999, 6.792158, 0
1103, 1691628953, -0.7030438, -0.20088585, -0.42713857, 0.53196687, -4.358874, 7.895872, 11.3009205, 0
1104, 1691645620, -0.73329943, -0.20008007, -0.3706231, 0.53379786, -5.6349096, 5.4980817, 15.389364, 0
1106, 1691678954, -0.7844754, -0.20306644, -0.25952297, 0.525426, -3.5444305, -4.4669127, 21.187025, 0
1107, 1691695621, -0.8055364, -0.20295852, -0.2057867, 0.51733243, -4.2621202, -7.338919, 20.751305, 0
1108, 1691712288, -0.8256949, -0.20179619, -0.15489963, 0.5035615, -4.581526, -8.694934, 17.64417, 0
1110, 1691745622, -0.86510146, -0.19688761, -0.07186398, 0.45577648, -0.5288976, -11.223698, 10.5774555, 0
1112, 1691778956, -0.8994673, -0.16849503, -0.030665364, 0.40210634, 4.2016573, -12.575984, 1.4828911, 0
1114, 1691812290, -0.91437525, -0.15323865, -0.009350266, 0.3747136, 8.933855, -16.842535, 2.5997963, 0
1115, 1691828957, -0.91555834, -0.15572067, 0.006473176, 0.37084222, 6.794165, -15.487951, -2.1152139, 0
1116, 1691845624, -0.9143772, -0.15890892, 0.01767255, 0.37203747, 4.7676888, -13.530482, -7.3319693, 0
1118, 1691878958, -0.91090405, -0.15774623, 0.024720863, 0.3805531, 0.30504656, -13.712749, -3.2847052, 0
1119, 1691895625, -0.9108551, -0.15210368, 0.023616258, 0.3830293, -0.39257982, -8.756511, -5.389024, 0
1120, 1691912292, -0.91203356, -0.1452152, 0.016569134, 0.38326836, -2.4689627, -6.0315065, -3.8293195, 0
1122, 1691945626, -0.9174522, -0.13046929, -0.0011038594, 0.37592518, -0.45899877, -4.1606455, -0.3295374, 0
1123, 1691962293, -0.92074573, -0.12939885, -0.004225243, 0.36814028, 0.28205347, -4.4277678, -0.08819008, 0
1125, 1691995627, -0.92558527, -0.12701249, -0.00848892, 0.35658056, 1.2521236, -3.2490928, -1.8260255, 0
1127, 1692028961, -0.9260123, -0.122163564, -0.012752302, 0.35703868, -0.7357427, -3.7957752, -0.95520306, 0
1129, 1692062295, -0.9249917, -0.124089316, -0.013227325, 0.35899723, -2.218288, -3.7830985, -1.3989401, 0
1130, 1692078962, -0.9250157, -0.12645821, -0.014052074, 0.3580768, -2.3351073, -3.5212233, -1.3013744, 0
1131, 1692095629, -0.92538416, -0.12909788, -0.01541147, 0.35612118, -1.4312899, -3.557773, -1.4739676, 0
1133, 1692128963, -0.92596626, -0.14054517, -0.017872173, 0.35010868, 0.77293414, -3.5241072, -1.047061, 0
1134, 1692145630, -0.92643344, -0.14607756, -0.019677319, 0.34649265, 1.081949, -3.6262197, 0.43822384, 0
1135, 1692162297, -0.92711496, -0.14871827, -0.022478774, 0.34336218, 1.5839901, -3.8337827, 0.786499, 0
1137, 1692195631, -0.9279872, -0.15166827, -0.029350895, 0.33917072, 1.4388885, -2.3699741, -0.3802576, 0
1138, 1692212298, -0.92862475, -0.15351018, -0.033074357, 0.33624217, 1.2291486, -2.1598952, 0.4245262, 0
1139, 1692228965, -0.9299494, -0.15438627, -0.036520742, 0.33179384, 1.0953134, -1.998042, 0.72466373, 0
1142, 1692278966, -0.934713, -0.15450951, -0.050271228, 0.31618538, 1.2985978, -1.6060095, 1.025917, 0
1143, 1692295633, -0.93576324, -0.15608053, -0.053546797, 0.31173813, 0.95493037, -1.9410303, 1.669817, 0
1145, 1692328967, -0.9376019, -0.16259351, -0.05877814, 0.30178314, -1.4946882, -1.4872547, -2.0808473, 0
1146, 1692345634, -0.93851304, -0.16955052, -0.061691046, 0.29445213, -1.0708619, -2.5405872, -2.39953, 0
1147, 1692362301, -0.9391875, -0.17864627, -0.06475407, 0.2861487, -0.18080232, -4.0912375, -2.2312417, 0
1149, 1692395635, -0.9401026, -0.19380222, -0.071573704, 0.2712689, 0.9137867, -7.509533, -0.8292494, 0
1150, 1692412302, -0.9399922, -0.19817345, -0.07601688, 0.2672555, 2.0111108, -8.7729845, -3.018189, 0
1152, 1692445636, -0.9372549, -0.20630209, -0.08770378, 0.26713806, 1.8411218, -11.544906, -1.3632879, 0
1153, 1692462303, -0.9339912, -0.21229352, -0.09321288, 0.27196488, 3.6211598, -10.903902, -4.3181214, 0
1154, 1692478970, -0.9274095, -0.22164994, -0.102768175, 0.2833431, 4.030663, -11.588469, -8.770425, 0
1157, 1692528971, -0.8879689, -0.21847332, -0.18228471, 0.36140707, 16.419792, -115.93571, 37.713604, 1024
1158, 1692545638, -0.8732389, -0.21436161, -0.2179531, 0.37955385, 16.245943, 5.754622, 10.455282, 0
1160, 1692578972, -0.8402049, -0.23028775, -0.30642235, 0.38365427, 7.513524, -2.9572637, -0.70806026, 0
1161, 1692595639, -0.8251037, -0.24309397, -0.34360608, 0.37696952, 0.77238053, -3.0832427, 2.5485802, 0
1162, 1692612306, -0.80775344, -0.2561653, -0.3807984, 0.37009203, -2.3775182, 4.0717726, 2.5995798, 0
1164, 1692645640, -0.7458975, -0.2638067, -0.49777627, 0.35542077, -0.24383385, 13.214382, 9.723534, 0
1166, 1692678974, -0.610438, -0.3001718, -0.6430784, 0.35181624, -15.036509, 29.637453, 30.056015, 0
1168, 1692712308, -0.4525714, -0.34812742, -0.73435324, 0.36711547, -44.7785, 54.65072, 42.266197, 0
1169, 1692728975, -0.4333456, -0.3488613, -0.7452537, 0.36764944, -17.777052, -10.652212, 7.866951, 0
1172, 1692778976, -0.24608622, -0.42490107, -0.807173, 0.3277715, 12.812867, 42.950172, -8.843603, 0
1173, 1692795643, -0.19129267, -0.44786087, -0.8042156, 0.3407739, 22.702932, 34.109715, -21.568531, 0
1175, 1692828977, -0.13234612, -0.44678038, -0.7977333, 0.38282546, 11.748243, 22.51045, -34.848515, 0
1176, 1692845644, -0.13511454, -0.43672004, -0.789791, 0.40903774, 8.769558, 15.819035, -28.727175, 0
1177, 1692862311, -0.15209779, -0.4237597, -0.78095925, 0.43296468, 4.711076, 14.880379, -25.630886, 0
1179, 1692895645, -0.23727809, -0.38565743, -0.76634496, 0.4557904, 3.3758264, 12.967116, -17.97763, 0
1180, 1692912312, -0.28843093, -0.36298037, -0.753847, 0.46564975, 5.7858195, 4.2372093, -12.384637, 0
1181, 1692928979, -0.335656, -0.34322923, -0.73464024, 0.47947297, 4.7547374, 4.3186893, -11.379879, 0
1183, 1692962313, -0.42607087, -0.30837333, -0.68438804, 0.5050191, 7.8903346, -0.88745666, -7.803028, 0
1184, 1692978980, -0.46355855, -0.29447526, -0.6549921, 0.51908076, 6.9247155, 6.496378, -5.9146376, 0
1187, 1693028981, -0.57818973, -0.23526669, -0.5485843, 0.55629426, -2.4183605, 9.570446, 1.3279333, 0
1188, 1693045648, -0.6145654, -0.21777286, -0.5083564, 0.5626012, -5.944145, 8.496019, 1.7736521, 0
1189, 1693062315, -0.6509024, -0.20842648, -0.4671811, 0.560971, -7.285505, 7.0431657, 3.7771454, 0
1191, 1693095649, -0.7165904, -0.20124087, -0.38714772, 0.5442229, -5.654694, 4.405743, 14.82239, 0
1192, 1693112316, -0.74626267, -0.19441915, -0.34474802, 0.5352606, -6.0451283, 1.1282268, 16.817366, 0
1193, 1693128983, -0.7728969, -0.18633874, -0.30242103, 0.52584386, -7.8998356, -3.7810378, 14.58057, 0
1195, 1693162317, -0.8198868, -0.17351495, -0.22322679, 0.49790522, -8.10678, -7.1366773, 10.098089, 0
1196, 1693178984, -0.8391886, -0.17668526, -0.18290971, 0.4807816, -4.4915123, -9.942393, 8.934757, 0
1197, 1693195651, -0.8544781, -0.18009926, -0.14710644, 0.46459985, -1.495654, -11.496674, 5.6661167, 0
1199, 1693228985, -0.8734542, -0.17760308, -0.09131897, 0.44413662, -0.1726584, -9.147917, 4.387849, 0
1202, 1693278986, -0.89864016, -0.16308959, -0.04112059, 0.4052392, 0.1433335, -8.4540415, 3.2297068, 0
1203, 1693295653, -0.9078163, -0.15640028, -0.031151723, 0.38794327, 3.246608, -9.430656, -1.0937166, 0
1204, 1693312320, -0.91421884, -0.15549065, -0.022404835, 0.37361303, 4.6077094, -10.009077, -2.162931, 0
1206, 1693345654, -0.9215621, -0.14944223, -0.011216816, 0.35822728, 5.6680284, -9.949705, -2.289568, 0
1207, 1693362321, -0.92182314, -0.14690652, -0.007156849, 0.35870755, 6.148254, -9.063525, -3.676517, 0
1208, 1693378988, -0.91988146, -0.14557278, -0.0033600442, 0.36424875, 2.7985055, -9.611791, 0.0044898987, 0
1210, 1693412322, -0.91516185, -0.13493672, 8.3047897E-4, 0.37991077, -2.0942783, -5.558512, -1.7329206, 0
1211, 1693428989, -0.9141595, -0.1343088, 0.0031825341, 0.3825249, -4.1235375, -4.7884703, -1.4044027, 0
1212, 1693445656, -0.9151665, -0.13499443, 0.00506334, 0.37984613, -4.470106, -4.6362424, -0.77547836, 0
1214, 1693478990, -0.9211684, -0.1359625, 0.0038510375, 0.36470544, -0.98299056, -4.964115, -1.1961956, 0
1216, 1693512324, -0.9264337, -0.14132589, 0.0012533143, 0.3490098, 0.2468001, -6.382872, 0.76938534, 0
1218, 1693545658, -0.92792356, -0.15156952, 0.0013405494, 0.34065306, 2.7903311, -4.4240675, -3.78646, 0
1219, 1693562325, -0.92741627, -0.15941676, 0.0010744333, 0.33844653, 3.9018853, -4.4417934, -2.7736907, 0
1220, 1693578992, -0.92675215, -0.16508694, -3.676638E-4, 0.3375479, 3.0021627, -4.1647615, -1.522687, 0
1222, 1693612326, -0.926435, -0.167059, -0.009514205, 0.33731428, 1.5007741, -3.4833655, 0.9213114, 0
1223, 1693628993, -0.92740476, -0.16678166, -0.012305699, 0.33468592, 0.96382093, -2.9618921, 1.0757971, 0
1224, 1693645660, -0.9291488, -0.16632232, -0.014987867, 0.32993433, 0.7754925, -1.4940408, -1.1624403, 0
1226, 1693678994, -0.9333923, -0.16532083, -0.023919698, 0.3177067, 0.7545588, -1.2620876, 1.0113878, 0
1227, 1693695661, -0.93555415, -0.16435848, -0.02775852, 0.31147435, 0.5474307, -1.3085787, 1.6076803, 0
1228, 1693712328, -0.9372391, -0.16523339, -0.030430775, 0.30564162, 0.95610106, -1.3621591, 2.0013618, 0
1230, 1693745662, -0.9390036, -0.16905259, -0.03151361, 0.29793, 0.10408361, -2.614902, 2.4456205, 0
1231, 1693762329, -0.93950564, -0.17085572, -0.029676292, 0.29549727, -0.802515, -1.713159, 0.32702446, 0
1233, 1693795663, -0.9403729, -0.17937502, -0.026560713, 0.28788888, 0.5133692, 0.46434513, -2.579029, 0
1234, 1693812330, -0.9412962, -0.18290155, -0.02607121, 0.28264934, 1.9679145, 0.24057263, -1.3018904, 0
1235, 1693828997, -0.942168, -0.18584487, -0.025556337, 0.277831, 3.6662388, 0.1915494, -2.245637, 0
1237, 1693862331, -0.94313765, -0.18915486, -0.021263715, 0.2726199, 3.139406, -1.1165638, -3.3550081, 0
1238, 1693878998, -0.9434604, -0.18957436, -0.019947324, 0.2713082, 2.8725743, -2.0623975, -5.257909, 0
1239, 1693895665, -0.94326097, -0.1912687, -0.019558236, 0.27084073, 4.069522, -6.833979, -3.5385342, 0
1241, 1693928999, -0.93847597, -0.20366009, -0.018917173, 0.27837, 6.9278493, -18.972567, -10.032144, 0
1243, 1693962333, -0.9224374, -0.22676633, -0.042336103, 0.30976778, 5.744593, -32.125988, -12.5195055, 0
1245, 1693995667, -0.89844203, -0.20814256, -0.13866058, 0.3609903, 14.6592045, -99.58695, 61.0853, 0
1246, 1694012334, -0.892714, -0.19963863, -0.15594976, 0.3727573, 7.3368425, 27.309923, -1.337101, 0
1247, 1694029001, -0.87958854, -0.20528941, -0.19075361, 0.3845196, -2.3088295, -1.8885331, 6.003685, 0
1249, 1694062335, -0.85080457, -0.22604632, -0.2654487, 0.39323503, 1.2517728, 0.60334563, 2.4670286, 0
1250, 1694079002, -0.83130616, -0.24073982, -0.3153323, 0.38936096, -1.0734744, 4.0380754, 1.5525932, 0
1251, 1694095669, -0.80538845, -0.25435075, -0.37315086, 0.38402572, -1.0664027, 8.39266, 6.3086567, 0
1253, 1694129003, -0.72053176, -0.27484053, -0.5154616, 0.37370825, -0.7892931, 13.803648, 11.3769245, 0
1254, 1694145670, -0.65507686, -0.3048861, -0.58200896, 0.37315735, -3.5362155, 27.00946, 16.160904, 0
1255, 1694162337, -0.5641742, -0.33595845, -0.6560906, 0.37208432, -14.181992, 22.404152, 30.020462, 0
1260, 1694245672, -0.36097896, -0.39192146, -0.7679678, 0.3554984, -13.079575, 38.644638, -1.1228094, 0
1261, 1694262339, -0.33162317, -0.38785395, -0.7828692, 0.3560524, -1.5136316, 25.002531, -6.8648605, 0
1262, 1694279006, -0.2977797, -0.3874132, -0.7922124, 0.36564988, 3.341051, 23.604988, -10.477981, 0
1264, 1694312340, -0.2441146, -0.3821429, -0.7894591, 0.41375253, 3.6819937, 23.603962, -17.545853, 0
1265, 1694329007, -0.23306951, -0.3679936, -0.7861967, 0.43842456, 1.6913545, 18.918516, -19.134441, 0
1266, 1694345674, -0.23092794, -0.34670848, -0.7866707, 0.45571572, -0.38343135, 15.762282, -20.212345, 0
1268, 1694379008, -0.2534772, -0.2974061, -0.79338145, 0.46680498, -1.2539113, 9.273685, -19.711226, 0
1269, 1694395675, -0.2705893, -0.2750167, -0.79599273, 0.4664815, -0.5500651, 4.6471863, -18.045107, 0
1270, 1694412342, -0.2883355, -0.2557834, -0.7956364, 0.4673993, -0.36328033, 5.938816, -17.49966, 0
1272, 1694445676, -0.33909813, -0.2291024, -0.7799463, 0.4735719, -1.5824594, 4.2451634, -16.939384, 0
1274, 1694479010, -0.40559584, -0.217347, -0.7469839, 0.47992656, 0.084925756, 6.836258, -12.7845335, 0
1276, 1694512344, -0.4809656, -0.21437654, -0.68809074, 0.49930745, 2.3151472, 7.6732016, -6.3541355, 0
1277, 1694529011, -0.5188309, -0.21120758, -0.64958954, 0.5141025, 2.752749, 7.4243464, -3.8755298, 0
1278, 1694545678, -0.55431193, -0.20671739, -0.60847086, 0.528991, 3.5079947, 5.400502, -3.1315503, 0
1280, 1694579012, -0.61721796, -0.19027574, -0.522223, 0.5569401, 0.8024343, 8.023225, 4.149641, 0
1281, 1694595679, -0.6450008, -0.18252173, -0.47566307, 0.56961983, -2.4262617, 7.0587444, 4.8547335, 0
1283, 1694629013, -0.69685245, -0.17978153, -0.3868358, 0.57662416, -8.756095, 8.80963, 12.830124, 0
1284, 1694645680, -0.7274977, -0.18052107, -0.34174794, 0.5669477, -9.263926, 6.439517, 15.893599, 0
1285, 1694662347, -0.75947785, -0.18106501, -0.2956323, 0.55052024, -7.2383714, 2.3777354, 16.223257, 0
1287, 1694695681, -0.8164911, -0.18177566, -0.20288551, 0.5091163, -4.2021914, -4.732707, 15.23592, 0
1289, 1694729015, -0.8591435, -0.17690684, -0.12032451, 0.4649305, -3.2018735, -7.231126, 9.855095, 0
1291, 1694762349, -0.891241, -0.16682231, -0.06505474, 0.41676083, 0.12372492, -10.268475, 3.0790205, 0
1292, 1694779016, -0.9018696, -0.16236058, -0.051537365, 0.39708474, 5.8110747, -10.301391, -2.170897, 0
1293, 1694795683, -0.9072691, -0.16413897, -0.04429814, 0.38473472, 6.704907, -12.149842, 1.6891308, 0
1295, 1694829017, -0.91183877, -0.15922882, -0.020785186, 0.37792388, 7.04102, -13.727912, 2.3505125, 0
1296, 1694845684, -0.910668, -0.15984854, -0.006149128, 0.3809939, 5.207094, -11.044214, -3.792047, 0
1297, 1694862351, -0.9078455, -0.1614843, 0.0040592253, 0.38702083, 2.3005073, -10.192792, -3.8573852, 0
1299, 1694895685, -0.9036179, -0.15577075, 0.011602506, 0.39892045, -1.4226927, -7.903545, -1.7417612, 0
1300, 1694912352, -0.9033309, -0.14950733, 0.009623986, 0.40200776, -2.1114092, -5.989795, -1.667203, 0
1301, 1694929019, -0.9043759, -0.14401212, 0.0066775978, 0.40172395, -2.8191917, -5.8880596, -0.15192795, 0
1303, 1694962353, -0.9107373, -0.1399475, 0.0072181784, 0.3885644, -2.1397715, -4.7169704, -0.68928814, 0
1304, 1694979020, -0.9155079, -0.1390981, 0.008373227, 0.37747714, -1.4044665, -5.140778, -0.13793564, 0
1305, 1694995687, -0.9203253, -0.13650051, 0.009527825, 0.36652458, 0.07464651, -5.942388, 0.32195377, 0
1307, 1695029021, -0.92687654, -0.1313214, 0.014695458, 0.35142666, 1.913294, -6.232574, -1.5587025, 0
1308, 1695045688, -0.9283917, -0.13217539, 0.018498093, 0.34689865, 1.9305813, -5.859395, -2.318647, 0
1310, 1695079022, -0.92997426, -0.13468337, 0.02381172, 0.34132564, 1.6855477, -4.918827, -1.3448181, 0
1311, 1695095689, -0.9304767, -0.13485187, 0.024737567, 0.33982095, 2.238279, -3.9765198, -1.6701365, 0
1312, 1695112356, -0.9306352, -0.13688806, 0.026234888, 0.3384577, 2.9435892, -4.4465375, -0.47902298, 0
1314, 1695145690, -0.9306619, -0.1448243, 0.032627825, 0.33450204, 3.309601, -4.5657105, -1.4099445, 0
1316, 1695179024, -0.9310906, -0.14913736, 0.03369787, 0.3312928, 2.4906714, -4.5617914, -4.2669353, 0
1318, 1695212358, -0.9328854, -0.14857331, 0.02153065, 0.32748938, 1.6299952, -5.9992294, -2.384879, 0
1319, 1695229025, -0.9343804, -0.14829828, 0.014182486, 0.32373136, 1.3860925, -5.949033, -2.2066727, 0
1320, 1695245692, -0.9360637, -0.14841759, 0.005145833, 0.31904954, 0.46085522, -5.662792, -3.003768, 0
1322, 1695279026, -0.9391138, -0.15282074, -0.018400177, 0.30730236, -0.83029616, -6.5099916, -2.7613358, 0
1323, 1695295693, -0.9399227, -0.15781242, -0.03133482, 0.3011987, -0.75552547, -8.13216, -2.0937457, 0
1324, 1695312360, -0.94027877, -0.1649618, -0.04218598, 0.29486626, -1.1539025, -10.91866, -0.6773081, 0
1326, 1695345694, -0.93975854, -0.1850204, -0.056722578, 0.28189692, 0.97299796, -14.696649, -3.241116, 0
1327, 1695362361, -0.93754447, -0.19838887, -0.065547585, 0.2782408, 1.0260316, -16.526556, -5.597885, 0
1328, 1695379028, -0.9337065, -0.21096084, -0.07886322, 0.27844286, 1.1764214, -20.229773, -3.6436543, 0
1331, 1695429029, -0.90076655, -0.263906, -0.17151093, 0.29936504, 1.0601496, -21.420025, -3.945809, 0
1332, 1695445696, -0.8778906, -0.27247983, -0.23429364, 0.31659356, 25.309338, -47.65101, 13.527716, 0
1334, 1695479030, -0.86097884, -0.22884265, -0.2808389, 0.3571246, 3.5013347, 13.485836, 3.0635443, 0
1335, 1695495697, -0.84950083, -0.23403238, -0.312831, 0.35464898, 9.263379, 3.3946762, 0.11574745, 0
1336, 1695512364, -0.8330095, -0.2489776, -0.3523753, 0.3464087, -0.2282284, 3.8991666, 2.045535, 0
1338, 1695545698, -0.77392817, -0.27158415, -0.464759, 0.33367413, -1.610574, 9.343818, 4.8383474, 0
1339, 1695562365, -0.72736883, -0.2774289, -0.5357375, 0.32713175, -0.54452586, 14.462048, 14.778826, 0
1341, 1695595699, -0.5910139, -0.30836254, -0.67545605, 0.31533545, -11.1285515, 14.103266, 17.513512, 0
1342, 1695612366, -0.50675523, -0.3322565, -0.7335627, 0.30781892, -39.013325, 19.868437, 38.380672, 0
1343, 1695629033, -0.46979702, -0.34125286, -0.76861805, 0.26856244, -46.906715, 72.413376, 27.491974, 0
1346, 1695679034, -0.36744964, -0.38591963, -0.7994156, 0.27756745, -11.836538, 39.415905, 0.95006275, 0
1347, 1695695701, -0.32971153, -0.3952543, -0.8049009, 0.2953996, 0.88437283, 34.91259, -9.263213, 0
1349, 1695729035, -0.26184946, -0.399674, -0.79622275, 0.37119672, 5.3001113, 27.158083, -16.239199, 0
1350, 1695745702, -0.24237806, -0.38797414, -0.7859845, 0.41595572, 2.5246959, 24.256435, -18.985146, 0
1351, 1695762369, -0.23621002, -0.36691982, -0.7776059, 0.45273155, 0.79088026, 18.726856, -19.78517, 0
1353, 1695795703, -0.25402483, -0.3130176, -0.7711185, 0.49287888, -2.0357792, 13.84616, -21.199512, 0
1354, 1695812370, -0.27355906, -0.28742608, -0.7718938, 0.49678323, -0.988403, 7.200955, -20.26437, 0
1355, 1695829037, -0.2927838, -0.2674029, -0.77228236, 0.49640238, 0.7056723, 2.909445, -18.700474, 0
1357, 1695862371, -0.33662328, -0.25179178, -0.7621531, 0.4924129, 0.98920846, 6.5819573, -17.396168, 0
1358, 1695879038, -0.36830544, -0.25273126, -0.74970186, 0.48835167, 1.6137054, 8.61397, -14.892868, 0
1361, 1695929039, -0.48502183, -0.26623672, -0.6741636, 0.48932335, 5.8033648, 7.8028336, -6.875474, 0
1362, 1695945706, -0.5250452, -0.2614305, -0.6408043, 0.4953924, 5.520711, 7.843334, -3.8795767, 0
1364, 1695979040, -0.596994, -0.23928913, -0.5649921, 0.5168992, 2.6695578, 9.3136425, 0.8768616, 0
1365, 1695995707, -0.629327, -0.22577673, -0.52183855, 0.5298292, 0.13810931, 7.777943, 4.9434805, 0
1366, 1696012374, -0.65720767, -0.21283382, -0.4771978, 0.5432532, -4.5375204, 4.564169, 6.6317596, 0
1368, 1696045708, -0.7085129, -0.19904181, -0.39232892, 0.55184424, -11.3244095, 4.4295278, 11.419985, 0
1369, 1696062375, -0.73775786, -0.20073846, -0.34960538, 0.5415307, -10.863666, 1.0276365, 11.659668, 0
1370, 1696079042, -0.76698244, -0.2060036, -0.30749822, 0.5242206, -4.854169, -3.084825, 11.54516, 0
1372, 1696112376, -0.81186056, -0.2214962, -0.22194642, 0.49256852, 1.9875497, -6.48529, 11.171324, 0
1373, 1696129043, -0.82783794, -0.22446306, -0.1832535, 0.48039648, 2.0592835, -5.799488, 10.5415535, 0
1374, 1696145710, -0.8416141, -0.22495474, -0.14884433, 0.46796212, 2.8752768, -6.3873143, 8.759155, 0
1376, 1696179044, -0.8655379, -0.2149224, -0.09357289, 0.44267225, 3.5722485, -9.297491, 6.4293003, 0
1377, 1696195711, -0.8749089, -0.20510173, -0.07337093, 0.43260393, 4.099391, -9.567116, 3.7250729, 0
1378, 1696212378, -0.8823519, -0.19718279, -0.057027213, 0.42353758, 3.9387007, -8.622703, 1.2715454, 0
1380, 1696245712, -0.8913455, -0.19002402, -0.036442757, 0.41003436, 4.4361467, -9.391145, -0.36855793, 0
1381, 1696262379, -0.8930094, -0.18880713, -0.030565646, 0.40744802, 4.5511165, -9.910737, 0.30233288, 0
1382, 1696279046, -0.89341915, -0.18826874, -0.023806203, 0.40724957, 4.189319, -10.528064, 2.3551512, 0
1384, 1696312380, -0.8934917, -0.18097043, -0.00864739, 0.41098619, 2.0088851, -8.150428, -0.90071774, 0
1385, 1696329047, -0.8933665, -0.17520791, -0.0056053773, 0.4137983, 0.28950214, -6.7543635, -1.4358559, 0
1388, 1696379048, -0.8961389, -0.15500729, -0.010382231, 0.41576684, -2.6843073, -4.749905, -0.5464306, 0
1389, 1696395715, -0.8989765, -0.15122233, -0.0117063895, 0.4109722, -3.0740175, -4.50342, 0.6440363, 0
1391, 1696429049, -0.9074189, -0.14509115, -0.012207326, 0.39427492, -1.2519995, -3.8674889, -0.5090904, 0
1392, 1696445716, -0.9112158, -0.1434333, -0.0119474195, 0.38604647, -0.19876717, -3.9218223, -1.0564203, 0
1393, 1696462383, -0.9139757, -0.14270951, -0.011639196, 0.37974834, -0.21958488, -3.7506788, -1.3731976, 0
1395, 1696495717, -0.9171237, -0.14370893, -0.011324424, 0.3717064, -1.1005359, -3.7994926, -0.39743996, 0
1396, 1696512384, -0.9184414, -0.14599146, -0.009057887, 0.3676027, -1.2580631, -3.7808807, -0.77744484, 0
1397, 1696529051, -0.91958046, -0.1499682, -0.006503973, 0.36318192, -1.0389272, -3.4829483, -2.2428036, 0
1399, 1696562385, -0.9210887, -0.15942523, -0.0031103827, 0.3552908, -0.012634517, -4.361854, -1.4041243, 0
1400, 1696579052, -0.92153835, -0.16327393, -0.0019833185, 0.35237318, 0.63559204, -4.1992426, -2.026823, 0
1403, 1696629053, -0.9218199, -0.17400596, -9.294823E-4, 0.34645522, 0.80418676, -5.3924313, -2.110897, 0
1404, 1696645720, -0.9219763, -0.17776988, -0.0020592064, 0.34411535, 0.4574267, -5.383293, -2.911405, 0
1405, 1696662387, -0.92242384, -0.18031126, -0.005658757, 0.34154373, 0.49338344, -5.488584, -2.7978463, 0
1407, 1696695721, -0.9249069, -0.18055181, -0.016440347, 0.33427534, 0.81096995, -5.7650976, -1.9999328, 0
1408, 1696712388, -0.92658335, -0.18190005, -0.020950098, 0.32860148, 0.73141754, -6.0416274, -2.3918395, 0
1409, 1696729055, -0.92842126, -0.18428297, -0.024743281, 0.3217504, 0.7355789, -6.9233828, -2.1399002, 0
1411, 1696762389, -0.93154913, -0.19577621, -0.030937146, 0.30494758, 1.8775122, -9.7797785, -3.2661839, 0
1412, 1696779056, -0.93253016, -0.20422824, -0.03470986, 0.29586446, 1.2022858, -11.5716715, -4.1166444, 0
1413, 1696795723, -0.93293905, -0.21180296, -0.0415309, 0.2882731, 3.4570177, -13.0609455, -5.4802814, 0
1415, 1696829057, -0.92474014, -0.23512612, -0.07452139, 0.28996557, 6.1640997, -18.02688, -8.454687, 0
1417, 1696862391, -0.90076697, -0.25263774, -0.14488846, 0.32227704, 2.3520446, -52.450554, 2.7263384, 0
1419, 1696895725, -0.88357747, -0.21072882, -0.17914444, 0.37796003, 6.1632366, 26.162323, 1.2108107, 0
1420, 1696912392, -0.87022185, -0.21710782, -0.21206209, 0.3881621, 9.375017, -4.513168, 6.921177, 0
1422, 1696945726, -0.83094585, -0.26749313, -0.3077569, 0.37858194, 1.6230272, 5.71624, 1.8263836, 0
1423, 1696962393, -0.7999093, -0.2896973, -0.37059298, 0.3727517, -0.89557326, 5.7992344, 1.8698082, 0
1424, 1696979060, -0.76188374, -0.30029646, -0.44269776, 0.3652889, -0.4344828, 7.2213254, 7.16148, 0
1426, 1697012394, -0.65327847, -0.3379878, -0.5863887, 0.33941412, -2.3031151, 25.185713, 15.98497, 0
1427, 1697029061, -0.5775673, -0.35729614, -0.65869164, 0.32394874, -9.04098, 28.346258, 21.653965, 0
1428, 1697045728, -0.5021583, -0.3673382, -0.72009957, 0.307276, -26.987125, 25.629671, 37.27337, 0
1430, 1697079062, -0.49194986, -0.3527338, -0.75532347, 0.25122273, 2.2942715, -9.447279, 4.228609, 0
1432, 1697112396, -0.3962406, -0.39050788, -0.77391124, 0.3026889, -16.88038, 33.862007, 3.696331, 0
1434, 1697145730, -0.33004045, -0.39133626, -0.79355145, 0.3290406, 3.7016735, 24.84423, -9.927141, 0
1435, 1697162397, -0.29278648, -0.39222056, -0.79262066, 0.3636671, 2.4699244, 24.955454, -13.4559, 0
1436, 1697179064, -0.26131007, -0.3865881, -0.7884018, 0.40093803, -0.5188737, 23.15737, -17.610292, 0
1438, 1697212398, -0.2360172, -0.35777014, -0.7835157, 0.4499574, -2.3548605, 19.743925, -22.848528, 0
1439, 1697229065, -0.24679145, -0.34166706, -0.7815139, 0.4600604, -0.075591184, 15.587958, -21.623371, 0
1440, 1697245732, -0.26680154, -0.32706502, -0.7766288, 0.46771267, 2.3020327, 9.915258, -18.084404, 0
1442, 1697279066, -0.3091889, -0.30443424, -0.75383365, 0.49347633, 4.0335402, 4.1552587, -14.686607, 0
1443, 1697295733, -0.3332096, -0.29517388, -0.7377676, 0.5075476, 3.1391428, 6.0147643, -14.984388, 0
1444, 1697312400, -0.3628055, -0.28723234, -0.719492, 0.51794106, 3.659995, 6.752677, -14.295261, 0
1446, 1697345734, -0.43188554, -0.27762163, -0.673637, 0.5316732, 5.9353004, 3.5724473, -10.6475315, 0
1447, 1697362401, -0.46570998, -0.27518713, -0.645844, 0.5388264, 5.6424665, 5.012388, -8.154061, 0
1449, 1697395735, -0.5343884, -0.26754975, -0.5795436, 0.5541097, 5.600914, 7.142442, -2.5475268, 0
1450, 1697412402, -0.56554186, -0.25943324, -0.5441642, 0.5628537, 4.593186, 7.433214, 0.9854822, 0
1451, 1697429069, -0.5950073, -0.24610648, -0.5071734, 0.5729181, 1.1067775, 8.158183, 5.027565, 0
1453, 1697462403, -0.64795816, -0.2228348, -0.42669815, 0.5903267, -6.2587085, 5.9012685, 6.037879, 0
1454, 1697479070, -0.67387223, -0.21987793, -0.38683444, 0.58989084, -7.4437823, 2.9349208, 7.3991203, 0
1455, 1697495737, -0.7002598, -0.22162122, -0.3481891, 0.5825346, -7.48305, 1.6805874, 10.93499, 0
1457, 1697529071, -0.752117, -0.22953251, -0.2709695, 0.5552229, -2.2077796, -2.310789, 14.605265, 0
1459, 1697562405, -0.7957895, -0.22846594, -0.19700018, 0.52514327, -0.38189334, -8.259922, 9.735031, 0
1461, 1697595739, -0.82774067, -0.2207305, -0.13559166, 0.49779564, -1.0822762, -7.083653, 5.785101, 0
1462, 1697612406, -0.84236425, -0.2170971, -0.11060404, 0.4807496, -0.08913339, -7.0514693, 4.7668667, 0
1463, 1697629073, -0.85668385, -0.21197355, -0.09054679, 0.4615445, 0.9235958, -7.8709254, 4.0391283, 0
1465, 1697662407, -0.88079995, -0.19591574, -0.06504674, 0.42619196, 3.1588917, -7.757616, 0.8532686, 0
1466, 1697679074, -0.8893224, -0.18729575, -0.05737199, 0.41327533, 5.42666, -7.751795, -0.020011902, 0
1467, 1697695741, -0.89445424, -0.18116768, -0.051612306, 0.40562072, 6.320136, -7.617446, -0.052802086, 0
1469, 1697729075, -0.89649594, -0.17455883, -0.039288573, 0.4053923, 4.156861, -9.236213, 3.170106, 0
1470, 1697745742, -0.8955548, -0.17163445, -0.028831568, 0.40957808, 2.009275, -8.795916, 2.186678, 0
1472, 1697779076, -0.8937464, -0.16228583, -0.014114849, 0.41802344, -1.4377142, -6.1833115, -1.8263679, 0
1474, 1697812410, -0.8954014, -0.1492261, -0.01363425, 0.41936162, -3.4648554, -6.2292953, 0.2737341, 0
1476, 1697845744, -0.9025678, -0.1418678, -0.011134338, 0.40642717, -3.3731003, -5.308026, -0.08941364, 0
1477, 1697862411, -0.9077656, -0.1391876, -0.010115948, 0.39566165, -1.619247, -4.577463, -2.1718454, 0
1478, 1697879078, -0.91258, -0.13745299, -0.010998417, 0.3850267, 0.034079913, -4.8379855, -2.5063772, 0
1480, 1697912412, -0.9185303, -0.13750768, -0.014396992, 0.3704706, 0.7847393, -5.92324, -1.1795759, 0
1481, 1697929079, -0.9197531, -0.13949727, -0.014921483, 0.3666526, 0.54292226, -5.700273, -1.077858, 0
1482, 1697945746, -0.92050934, -0.14199317, -0.01447979, 0.36380374, -0.4252462, -4.791777, -1.1296911, 0
1484, 1697979080, -0.92170894, -0.14587356, -0.014487978, 0.35920167, 0.3521247, -3.6039972, -2.0144606, 0
1485, 1697995747, -0.9219286, -0.14939614, -0.014916617, 0.35716632, 0.65919805, -3.9273145, -2.1374583, 0
1486, 1698012414, -0.92189693, -0.15328643, -0.015752066, 0.35556066, 0.6231445, -4.596185, -1.7119551, 0
1489, 1698062415, -0.9234983, -0.15861145, -0.021340523, 0.34871176, -0.8287234, -3.6073294, -1.5169868, 0
1490, 1698079082, -0.9248363, -0.1605172, -0.024108414, 0.3440829, -0.32114458, -3.8025432, -1.4112196, 0
1492, 1698112416, -0.9286866, -0.16655229, -0.030704688, 0.3300317, -0.41461587, -4.194542, -1.671525, 0
1493, 1698129083, -0.9311882, -0.16766377, -0.03570823, 0.32181445, -0.06331675, -5.8837256, -0.79159355, 0
1494, 1698145750, -0.9336511, -0.16808686, -0.04045371, 0.31379613, 0.67534024, -7.91049, -1.6507587, 0
1496, 1698179084, -0.9371022, -0.17681593, -0.0450416, 0.29767257, 2.4536254, -14.80531, -2.9905715, 0
1497, 1698195751, -0.93819666, -0.18543041, -0.045286678, 0.28881437, 2.7686942, -17.992304, -6.0950637, 0
1499, 1698229085, -0.9327947, -0.20957898, -0.06868871, 0.2851574, 8.530561, -26.650072, -8.79155, 0
1500, 1698245752, -0.92385054, -0.22507024, -0.09425345, 0.2949949, 6.913695, -27.867718, -9.24704, 0
1501, 1698262419, -0.9092183, -0.24464558, -0.12989989, 0.31090003, 9.573229, -28.110313, -6.503523, 0
1504, 1698312420, -0.8728961, -0.23372401, -0.2178126, 0.36884335, 1.0592793, 23.016336, 15.134356, 0
1505, 1698329087, -0.8604351, -0.2418527, -0.24775645, 0.37394854, 11.120659, -2.4034092, 6.8813496, 0
1507, 1698362421, -0.817063, -0.28554818, -0.34539315, 0.36281684, 1.593105, 6.828078, 0.73711777, 0
1508, 1698379088, -0.7832695, -0.3004627, -0.41199934, 0.3557101, -1.378504, 8.46694, 7.0169926, 0
1509, 1698395755, -0.7387554, -0.31353056, -0.48580682, 0.34640014, 0.5033851, 11.411414, 14.314381, 0
1511, 1698429089, -0.6133497, -0.3440666, -0.6323401, 0.3250054, -9.12342, 19.067305, 17.111862, 0
1512, 1698445756, -0.53368175, -0.36278474, -0.69443446, 0.3184241, -26.395962, 7.8251476, 31.516571, 0
1513, 1698462423, -0.47548753, -0.38154358, -0.7334217, 0.30081737, -35.47525, 66.535225, 39.517475, 0
1515, 1698495757, -0.4403721, -0.40287966, -0.7497024, 0.28595278, 7.9868894, -7.5689263, 3.0828896, 0
1516, 1698512424, -0.38338405, -0.4216002, -0.76227677, 0.30702806, -8.243191, 24.666456, 4.1792517, 0
1517, 1698529091, -0.34260172, -0.4291438, -0.7738048, 0.3158294, -6.5574822, 35.29006, -5.093374, 0
1519, 1698562425, -0.27784213, -0.43374085, -0.782554, 0.34977704, 6.153368, 25.18528, -14.282182, 0
1520, 1698579092, -0.25115094, -0.42978522, -0.77713645, 0.38513532, 4.807135, 24.013561, -17.285225, 0
1521, 1698595759, -0.23563106, -0.41616008, -0.77136064, 0.419945, 1.9343053, 20.28539, -19.137527, 0
1523, 1698629093, -0.23685224, -0.36786914, -0.7699052, 0.4646304, -0.86852443, 16.726341, -20.750925, 0
1524, 1698645760, -0.25599232, -0.34066564, -0.77010834, 0.47477356, -1.4629636, 14.783765, -20.499104, 0
1525, 1698662427, -0.28231946, -0.31444496, -0.7690785, 0.47958356, -0.5501734, 8.594787, -18.080498, 0
1527, 1698695761, -0.3320655, -0.27362394, -0.7556348, 0.49390367, 0.9253016, 6.706599, -15.856361, 0
1528, 1698712428, -0.36215362, -0.2593401, -0.74138117, 0.5019997, -0.6915135, 7.946839, -16.371021, 0
1531, 1698762429, -0.47164774, -0.2433467, -0.6761987, 0.51102674, 2.253899, 5.692839, -10.056986, 0
1532, 1698779096, -0.5072035, -0.2445477, -0.64747936, 0.5135889, 3.9115746, 6.423071, -6.6896415, 0
1534, 1698812430, -0.57302964, -0.23954763, -0.58002454, 0.52715063, 6.447026, 10.934201, 2.6543636, 0
1535, 1698829097, -0.6027542, -0.22683837, -0.54058844, 0.5413483, 2.563246, 8.2106695, 6.2474213, 0
1536, 1698845764, -0.6289358, -0.21169795, -0.4993659, 0.55706334, -2.5536919, 5.2351694, 6.041341, 0
1538, 1698879098, -0.67861867, -0.20014408, -0.41862714, 0.5694141, -7.8572054, 3.585999, 6.838825, 0
1539, 1698895765, -0.70635164, -0.20618999, -0.37847358, 0.56158084, -7.2626686, 3.1054077, 12.355972, 0
1540, 1698912432, -0.73598325, -0.21289974, -0.33787212, 0.54672396, -4.6684318, -1.6405194, 14.329056, 0
1542, 1698945766, -0.7894268, -0.21808282, -0.26222312, 0.5104375, 0.09230683, -8.45848, 10.957722, 0
1543, 1698962433, -0.81085485, -0.21649155, -0.22861081, 0.4934014, 0.12796475, -8.156041, 8.158096, 0
1546, 1699012434, -0.86292243, -0.20577969, -0.14455737, 0.438389, 0.89759004, -5.6548753, 5.0761156, 0
1547, 1699029101, -0.87696147, -0.20032726, -0.123180114, 0.4191617, 1.7805612, -5.99937, 4.2741117, 0
1548, 1699045768, -0.8889445, -0.19266751, -0.105999455, 0.40184963, 1.0817716, -6.2093453, 3.1098366, 0
1550, 1699079102, -0.90651333, -0.17423911, -0.08243289, 0.3756875, 2.5111594, -7.346686, 3.4402523, 0
1551, 1699095769, -0.9125061, -0.1655347, -0.07057903, 0.36743912, 2.6048627, -8.210852, 4.757513, 0
1552, 1699112436, -0.91661537, -0.15918633, -0.05753936, 0.36225355, 3.88373, -7.627476, 0.83571434, 0
1554, 1699145770, -0.91900873, -0.15541023, -0.038410045, 0.36035737, 1.4521242, -7.324701, -0.8520098, 0
1555, 1699162437, -0.91941714, -0.15315486, -0.03314164, 0.3608038, -0.03406438, -8.722279, 1.7356586, 0
1557, 1699195771, -0.9222618, -0.14842793, -0.021313876, 0.35638523, 0.03533751, -8.358444, 0.3697729, 0
1558, 1699212438, -0.9246031, -0.14717564, -0.014819223, 0.35112822, 0.03289541, -7.693369, -0.535717, 0
1561, 1699262439, -0.9317758, -0.14068498, -0.009181112, 0.3346334, 1.083496, -6.6271133, -2.878108, 0
1562, 1699279106, -0.9333065, -0.1406277, -0.009937521, 0.33034298, 1.0582695, -7.14776, -2.1205225, 0
1563, 1699295773, -0.9345989, -0.14059156, -0.009948548, 0.32668337, 1.1663322, -7.60901, -1.553359, 0
1565, 1699329107, -0.9363708, -0.14163445, -0.009161249, 0.32113513, 1.8529828, -6.638023, -3.7613363, 0
1566, 1699345774, -0.9367646, -0.14221728, -0.010738365, 0.31967673, 1.8303018, -7.3223753, -4.1617875, 0
1567, 1699362441, -0.93689287, -0.14319411, -0.013984889, 0.31873733, 1.5030346, -7.803708, -4.9211936, 0
1569, 1699395775, -0.93705755, -0.14986634, -0.021709561, 0.31472844, 1.0315715, -10.028555, -4.0214386, 0
1570, 1699412442, -0.9374435, -0.15540312, -0.025659587, 0.31056923, 0.71673894, -9.941698, -5.963237, 0
1571, 1699429109, -0.9377578, -0.16211022, -0.031548392, 0.3056101, 1.2612967, -11.271318, -5.2679024, 0
1573, 1699462443, -0.93711734, -0.17642117, -0.045113675, 0.29784828, 2.5816305, -13.279186, -6.308078, 0
1575, 1699495777, -0.930426, -0.1968822, -0.06541404, 0.30220515, 3.5629816, -17.507355, -5.211601, 0
1577, 1699529111, -0.9139737, -0.2249004, -0.102318905, 0.32197046, 3.704914, -20.215902, -10.407994, 0
1578, 1699545778, -0.9017324, -0.239379, -0.13416791, 0.33412176, 4.1619434, -19.758919, -10.25098, 0
1580, 1699579112, -0.8883046, -0.21372153, -0.17604798, 0.36647975, 19.36978, -35.22598, -11.891812, 1024
1581, 1699595779, -0.8809575, -0.21512225, -0.19557917, 0.3734265, -12.282838, 17.941252, -1.6453733, 0
1582, 1699612446, -0.868187, -0.22766113, -0.23067728, 0.37586173, 4.819736, 3.9302278, 0.6494703, 0
1584, 1699645780, -0.8276687, -0.2617362, -0.331975, 0.3692065, -0.9279467, 4.619523, 1.3331909, 0
1585, 1699662447, -0.79748064, -0.27133313, -0.39885408, 0.3624646, -0.0940623, 8.766531, 4.730628, 0
1586, 1699679114, -0.756157, -0.27696714, -0.47591, 0.35367763, 0.17467627, 11.723154, 13.090155, 0
1588, 1699712448, -0.62953967, -0.30981293, -0.62808794, 0.3365465, -8.555119, 16.916872, 16.557808, 0
1589, 1699729115, -0.54198605, -0.3365562, -0.6926461, 0.3365779, -23.801765, 15.392855, 29.600376, 0
1590, 1699745782, -0.47517416, -0.35907745, -0.73491, 0.32441092, -43.353916, 63.300835, 46.03823, 0
1592, 1699779116, -0.43769908, -0.37650055, -0.7598593, 0.29890248, 8.039595, -7.936999, 4.7655745, 0
1593, 1699795783, -0.37736532, -0.40080076, -0.7736517, 0.3138142, -10.344874, 34.483513, 4.3849335, 0
1594, 1699812450, -0.33770347, -0.41292882, -0.78488255, 0.31538525, -1.5009915, 40.171703, -7.21199, 0
1596, 1699845784, -0.2741704, -0.42214262, -0.7934108, 0.3423269, 8.918609, 25.42893, -16.079868, 0
1597, 1699862451, -0.24948725, -0.41763163, -0.7906946, 0.3717583, 5.7861314, 23.31699, -19.33591, 0
1598, 1699879118, -0.23630002, -0.40420097, -0.78702617, 0.40179077, 3.1652265, 21.08025, -20.10862, 0
1600, 1699912452, -0.25103736, -0.3556756, -0.7835467, 0.44338688, -2.236482, 15.013721, -20.404232, 0
1602, 1699945786, -0.3051578, -0.29831135, -0.7835011, 0.45174918, -1.6945595, 6.4634037, -17.296783, 0
1604, 1699979120, -0.35927516, -0.2597262, -0.76732385, 0.46340036, 0.9876895, 3.1593425, -14.684114, 0
1605, 1699995787, -0.38852012, -0.25143147, -0.7493025, 0.4737534, -0.53665715, 6.693033, -14.97963, 0
1607, 1700029121, -0.45998442, -0.246697, -0.69836915, 0.48979345, 3.610558, 4.999387, -9.802279, 0
1608, 1700045788, -0.49551004, -0.24758674, -0.66402936, 0.50229234, 6.1213813, 4.5060415, -6.388774, 0
1609, 1700062455, -0.52868736, -0.24591455, -0.62489086, 0.5192198, 5.3908834, 5.301348, -3.064454, 0
1611, 1700095789, -0.5889982, -0.2331489, -0.54258317, 0.55171394, 2.339981, 6.47476, -0.13110828, 0
1612, 1700112456, -0.6165205, -0.22920287, -0.4977889, 0.56536454, 0.81235737, 5.4898324, 4.643339, 0
1613, 1700129123, -0.6420821, -0.22594088, -0.4537046, 0.57523525, -3.3266342, 3.3906283, 6.027113, 0
1615, 1700162457, -0.6965172, -0.22494087, -0.37591222, 0.56834644, -6.514203, 5.1316824, 11.694767, 0
1617, 1700195791, -0.7590964, -0.22987904, -0.2995785, 0.5303236, 0.20742404, -3.7333896, 11.61195, 0
1619, 1700229125, -0.80537, -0.22399643, -0.23360145, 0.4966861, -0.7937267, -7.89385, 12.901251, 0
1620, 1700245792, -0.82372457, -0.21492735, -0.2056531, 0.48275548, -1.6996359, -8.020296, 8.293247, 0
1621, 1700262459, -0.83996546, -0.20510173, -0.18161999, 0.46847376, -3.0114372, -7.3838625, 6.5889225, 0
1623, 1700295793, -0.8696029, -0.19067249, -0.13915724, 0.43374187, -2.5248513, -7.3234587, 4.2522144, 0
1624, 1700312460, -0.8835906, -0.18491454, -0.12274709, 0.41239482, -0.8765141, -7.8923283, 2.246585, 0
1625, 1700329127, -0.89633036, -0.17762992, -0.111690424, 0.39067498, 0.92077595, -8.24891, 0.49416637, 0
1627, 1700362461, -0.91392076, -0.16229649, -0.102843635, 0.35762253, 5.0096235, -8.009316, -0.35657215, 0
1628, 1700379128, -0.9187499, -0.15639047, -0.09937131, 0.34875193, 5.2191253, -7.651456, 1.2102318, 0
1629, 1700395795, -0.9215957, -0.15114269, -0.09478899, 0.34481084, 4.1100235, -7.5515738, 2.3717108, 0
1632, 1700445796, -0.92300284, -0.14312191, -0.07402844, 0.3495191, -0.22877534, -6.219173, -0.75170803, 0
1633, 1700462463, -0.9228126, -0.14258058, -0.06867728, 0.35133058, -1.0632222, -5.953171, -0.99598026, 0
1635, 1700495797, -0.9238962, -0.13889828, -0.062400497, 0.35112846, -0.85606074, -5.557203, -0.35029697, 0
1636, 1700512464, -0.924916, -0.138493, -0.059535995, 0.34909514, -0.5274963, -5.139389, -0.3726921, 0
1638, 1700545798, -0.92797804, -0.13739535, -0.05270309, 0.34243798, -0.119279645, -3.753035, -0.73196507, 0
1639, 1700562465, -0.929446, -0.13700265, -0.050609224, 0.33891168, 0.40688595, -3.3938065, -1.2086191, 0
1640, 1700579132, -0.93045557, -0.13755022, -0.04930805, 0.33609995, 0.6173374, -3.8235588, -0.44704342, 0
1642, 1700612466, -0.9312645, -0.14051883, -0.04589709, 0.3331013, 1.1486222, -3.589282, -1.3623953, 0
1643, 1700629133, -0.93118477, -0.14331318, -0.043522894, 0.33245128, 0.37402138, -3.4134219, -1.1213531, 0
1644, 1700645800, -0.931152, -0.14473867, -0.041562356, 0.3321763, -0.22236533, -2.5624561, -1.2721663, 0
1647, 1700695801, -0.93090177, -0.14577164, -0.039334275, 0.3326971, -1.3003159, -2.4661381, -0.44762993, 0
1648, 1700712468, -0.9310652, -0.1461096, -0.038334385, 0.33220804, -1.7892449, -2.687858, 0.300272, 0
1650, 1700745802, -0.9327388, -0.14689809, -0.0338922, 0.32761663, -2.864794, -1.1305512, -0.4006281, 0
1651, 1700762469, -0.9342052, -0.14731525, -0.031747237, 0.32343927, -2.398712, -0.85369426, -0.5351925, 0
1652, 1700779136, -0.93588984, -0.14883767, -0.029355235, 0.31805313, -1.8036082, -0.8897417, -1.5406017, 0
1654, 1700812470, -0.9396233, -0.15477198, -0.025175523, 0.30427268, -0.59615326, -2.9727728, -2.0349321, 0
1655, 1700829137, -0.94135225, -0.16037464, -0.022545468, 0.2961242, 0.52126336, -4.496677, -3.0173793, 0
1656, 1700845804, -0.94249666, -0.16930479, -0.019560114, 0.28760272, 2.3142724, -6.6039624, -5.4216695, 0
1658, 1700879138, -0.9399559, -0.19771796, -0.023750093, 0.27728805, 5.77658, -15.515338, -10.606817, 0
1659, 1700895805, -0.93619716, -0.21289378, -0.032630686, 0.27786377, 6.8336773, -23.259333, -9.635196, 0
1661, 1700929139, -0.92226744, -0.24526598, -0.07205206, 0.29006535, 8.245251, -32.790028, -11.288534, 0
1662, 1700945806, -0.90973693, -0.26471415, -0.104925916, 0.30225477, 8.589583, -34.24256, -6.7670946, 0
1663, 1700962473, -0.89300805, -0.28284556, -0.14825848, 0.31720105, 8.386052, -34.837856, -1.7656193, 0
1665, 1700995807, -0.872339, -0.2410279, -0.21840689, 0.36508983, 6.5267444, 20.44387, -11.676308, 0
1666, 1701012474, -0.856222, -0.2322616, -0.26286793, 0.3793429, -1.2752044, -1.9390568, 1.4194307, 0
1667, 1701029141, -0.8407146, -0.23524186, -0.3038868, 0.38154322, 8.158226, 3.4832118, -2.201106, 0
1669, 1701062475, -0.8005964, -0.25056714, -0.39490664, 0.37466294, -0.3443139, 4.091104, 1.5566883, 0
1670, 1701079142, -0.77059436, -0.25984234, -0.4508217, 0.36808705, 0.44887257, 3.6680067, 1.5639172, 0
1671, 1701095809, -0.7331505, -0.26847377, -0.51160395, 0.3587975, 1.3677696, 8.911671, 7.094883, 0
1674, 1701145810, -0.54880255, -0.3244781, -0.6979459, 0.32628712, -18.049564, 35.87574, 36.252975, 0
1675, 1701162477, -0.47807312, -0.33493793, -0.7487567, 0.31414664, -53.315685, 37.67726, 41.52919, 0
1677, 1701195811, -0.43726102, -0.36972722, -0.75914556, 0.30961996, 7.358363, -22.023342, 13.208187, 0
1678, 1701212478, -0.37032726, -0.39807606, -0.7677247, 0.33919603, -22.115395, 35.6822, 11.044283, 0
1679, 1701229145, -0.32699984, -0.4119536, -0.77810425, 0.34348392, -3.759823, 38.123398, -1.0883722, 0
1681, 1701262479, -0.2391124, -0.42687094, -0.7862208, 0.3775251, 8.078191, 30.959415, -13.988035, 0
1682, 1701279146, -0.20583287, -0.42452362, -0.78259295, 0.40623, 7.034749, 27.194302, -21.496513, 0
1683, 1701295813, -0.18981396, -0.41386974, -0.7788385, 0.43145698, 5.1463137, 21.827806, -23.428919, 0
1685, 1701329147, -0.19998, -0.3783209, -0.7753912, 0.464448, 2.6846192, 14.6759615, -21.255987, 0
1686, 1701345814, -0.22438057, -0.35747933, -0.773983, 0.47209564, 2.1076021, 14.44078, -19.975914, 0
1689, 1701395815, -0.31763792, -0.300613, -0.7550432, 0.48857936, 3.5418828, 2.1381676, -14.381563, 0
1690, 1701412482, -0.34740514, -0.28708777, -0.7435623, 0.4940319, 2.5859175, 4.173583, -14.775337, 0
1692, 1701445816, -0.41633546, -0.2664207, -0.71411675, 0.4957662, 3.724845, 5.0022163, -11.496315, 0
1693, 1701462483, -0.45381594, -0.2606438, -0.6906897, 0.49912512, 5.1397905, 5.040032, -8.521573, 0
1694, 1701479150, -0.49015525, -0.25493857, -0.6622194, 0.50624275, 5.9187355, 3.4721484, -6.3092136, 0
1696, 1701512484, -0.552728, -0.23483416, -0.59520245, 0.53398544, 3.2473457, 5.8339615, -0.231493, 0
1697, 1701529151, -0.5811584, -0.21867582, -0.5565582, 0.5520334, -0.92010313, 4.872711, 2.1315298, 0
