sep=,
DeviceTag:,Xsens_DOT_5,,,,,,,,,,,,,,,,,
FirmwareVersion:,3.0.0,,,,,,,,,,,,,,,,,
AppVersion:,2023.6.1,,,,,,,,,,,,,,,,,
SyncStatus:,Synced,,,,,,,,,,,,,,,,,
OutputRate:,60Hz,,,,,,,,,,,,,,,,,
FilterProfile:,General,,,,,,,,,,,,,,,,,
Measurement Mode:,Sensor fusion Mode - Extended (Quaternion),,,,,,,,,,,,,,,,,
StartTime:,2025-05-05 11:34:40.245 +0200,,,,,,,,,,,,,,,,,
 2025,,,,,,,,,,,,,,,,,,,

PacketCounter,SampleTimeFine,Quat_W,Quat_X,Quat_Y,Quat_Z,FreeAcc_X,FreeAcc_Y,FreeAcc_Z,Status
1, 1673261919, -0.39348006, 0.27538168, 0.02176511, -0.8768497, 0.01595105, 0.06279608, -0.16729736, 0
2, 1673278586, -0.39340767, 0.27539122, 0.021757264, -0.8768794, -0.042431757, 0.01414837, -0.11090088, 0
3, 1673295253, -0.39336604, 0.27539244, 0.021768888, -0.87689745, -0.081106715, 0.011461297, -0.09835625, 0
4, 1673311920, -0.39337593, 0.27538687, 0.02176591, -0.8768947, -0.090448394, 0.04585536, -0.1034317, 0
5, 1673328587, -0.3934039, 0.2753732, 0.021729823, -0.8768874, -0.024810033, 0.044658225, -0.12443161, 0
6, 1673345254, -0.3934073, 0.27535826, 0.021715093, -0.87689084, -0.007146481, 0.034630984, -0.13721848, 0
7, 1673361921, -0.39344797, 0.27534437, 0.02171474, -0.8768769, -0.0508566, 0.028493768, -0.13227367, 0
8, 1673378588, -0.3934536, 0.27535224, 0.021722762, -0.87687176, -0.048823293, 0.07766282, -0.10661125, 0
9, 1673395255, -0.3934551, 0.2753596, 0.021674655, -0.8768701, -0.028743476, 0.07020285, -0.08850384, 0
10, 1673411922, -0.39343953, 0.27537212, 0.021627609, -0.8768743, -0.08117781, 0.031348474, -0.13624668, 0
11, 1673428589, -0.39343858, 0.27537984, 0.021620685, -0.8768725, -0.114051454, 0.040902536, -0.16262054, 0
12, 1673445256, -0.39343253, 0.2753635, 0.021584004, -0.8768812, -0.04200635, 0.09991912, -0.102500916, 0
13, 1673461923, -0.3934401, 0.27532122, 0.021546524, -0.87689203, 0.027372846, 0.0574131, -0.1265707, 0
14, 1673478590, -0.3934714, 0.2752799, 0.021507522, -0.8768919, -0.059641514, 0.025559153, -0.12955856, 0
15, 1673495257, -0.39348185, 0.27525043, 0.021482743, -0.87689704, -0.10275317, 0.024548763, -0.112706184, 0
16, 1673511924, -0.3934898, 0.27523103, 0.021452477, -0.8769004, -0.071975864, 0.0429916, -0.102828026, 0
17, 1673528591, -0.39354354, 0.27523124, 0.021357879, -0.87687844, -0.034545317, 0.08279311, -0.10705185, 0
18, 1673545258, -0.3935313, 0.27521563, 0.021282222, -0.8768907, -0.07503239, 0.022807263, -0.08357906, 0
19, 1673561925, -0.39351255, 0.27517596, 0.021205503, -0.8769134, -0.061120618, 0.019843927, -0.15138626, 0
20, 1673578592, -0.39348903, 0.27510306, 0.02114774, -0.8769481, -0.009145965, 0.050237667, -0.11332893, 0
21, 1673595259, -0.39355585, 0.2750127, 0.021103647, -0.87694764, -0.024745947, 0.029819086, -0.13338947, 0
22, 1673611926, -0.3935612, 0.2749416, 0.021074498, -0.8769682, -0.08949289, 0.0038290005, -0.13727283, 0
23, 1673628593, -0.39352754, 0.2748933, 0.02098647, -0.8770006, -0.02673824, -0.0020860464, -0.052428246, 0
24, 1673645260, -0.39345947, 0.27484462, 0.020861331, -0.8770494, 0.036449775, -0.021679528, -0.109773636, 0
25, 1673661927, -0.39344552, 0.27478936, 0.020712301, -0.8770765, 0.006251395, 0.0023203997, -0.1891098, 0
26, 1673678594, -0.39344075, 0.27472168, 0.020606931, -0.87710226, -0.015638761, -0.032359872, -0.1739111, 0
27, 1673695261, -0.3934309, 0.27463982, 0.020489862, -0.87713504, 0.041848406, -0.062069546, -0.10268688, 0
28, 1673711928, -0.39340338, 0.27453434, 0.020320298, -0.8771844, 0.028548315, -0.03628733, -0.0946455, 0
29, 1673728595, -0.39338416, 0.27449438, 0.020127727, -0.87720996, 0.036102496, 0.03567468, -0.15803146, 0
30, 1673745262, -0.39330605, 0.27445373, 0.01991892, -0.8772625, -0.0036639257, 0.07084891, -0.13667488, 0
31, 1673761929, -0.39325765, 0.27438444, 0.019740228, -0.87731, -0.07427412, 0.024415772, -0.107504845, 0
32, 1673778596, -0.3932744, 0.2743171, 0.01958068, -0.877327, -0.084474154, -0.0029419893, -0.11395645, 0
33, 1673795263, -0.39329514, 0.27424532, 0.019485671, -0.8773422, -0.14499573, -0.022742555, -0.10501099, 0
34, 1673811930, -0.3933064, 0.2742035, 0.019432224, -0.87735134, -0.11300041, 0.03501621, -0.106292725, 0
35, 1673828597, -0.39329392, 0.27420396, 0.019415729, -0.8773572, -0.061280582, 0.026140176, -0.10687351, 0
36, 1673845264, -0.39333564, 0.2742115, 0.01944157, -0.8773356, -0.08522853, 0.005194888, -0.12303352, 0
37, 1673861931, -0.39338845, 0.27423963, 0.019523539, -0.87730134, -0.10011178, 0.024160186, -0.17140388, 0
38, 1673878598, -0.3933829, 0.27428022, 0.019610593, -0.8772892, -0.07411307, 0.02506329, -0.101732254, 0
39, 1673895265, -0.39335284, 0.27432352, 0.019689374, -0.87728727, -0.024522156, -0.0043411804, -0.09108257, 0
41, 1673928599, -0.3933672, 0.2745091, 0.019784747, -0.87722075, -0.075340964, 0.043039206, -0.1616211, 0
43, 1673961933, -0.39326456, 0.27466103, 0.019809587, -0.8772186, 0.007689921, 0.015622103, -0.14063549, 0
45, 1673995267, -0.3931299, 0.27477524, 0.019713063, -0.8772453, -0.08153008, 0.030583724, -0.119802475, 0
46, 1674011934, -0.39301676, 0.2748673, 0.019609848, -0.87726957, -0.025894253, 0.0938865, -0.12937069, 0
47, 1674028601, -0.3929118, 0.27494413, 0.019512827, -0.8772946, -0.01592426, 0.023002611, -0.15560913, 0
50, 1674078602, -0.39263794, 0.27494183, 0.019239644, -0.877424, -0.103053555, 0.0041418066, -0.11815071, 0
51, 1674095269, -0.39264977, 0.27497715, 0.019193808, -0.8774086, -0.17429, -0.008207619, -0.17010117, 0
53, 1674128603, -0.39278418, 0.2751072, 0.019093325, -0.87730986, 0.07027002, 0.06138135, -0.093649864, 0
54, 1674145270, -0.39275244, 0.2750771, 0.019024542, -0.87733495, 0.14662847, 0.07992466, -0.10311127, 0
55, 1674161937, -0.3927343, 0.27498847, 0.018929232, -0.8773731, 0.08892564, 0.07670495, -0.14194584, 0
57, 1674195271, -0.39256048, 0.27476922, 0.018570721, -0.87752724, -0.035267126, 0.03871647, -0.070646286, 0
59, 1674228605, -0.39226952, 0.27465856, 0.017958887, -0.87770456, 0.03633891, 0.009073174, -0.12045956, 0
61, 1674261939, -0.39179367, 0.2744707, 0.01719153, -0.87799126, 0.016812958, 0.061473776, -0.124723434, 0
62, 1674278606, -0.3916526, 0.2743786, 0.016821438, -0.8780901, -0.09727059, 0.013667147, -0.14877129, 0
65, 1674328607, -0.3910924, 0.27427384, 0.016009737, -0.87838775, -0.13218105, 0.08247382, -0.134408, 0
66, 1674345274, -0.3909715, 0.27429563, 0.01583297, -0.87843794, -0.088232286, 0.12667228, -0.11552811, 0
68, 1674378608, -0.39075968, 0.2743819, 0.015763626, -0.8785065, -0.17748307, 0.14717199, -0.1587305, 0
69, 1674395275, -0.3907742, 0.27444202, 0.015839372, -0.8784799, -0.16873087, 0.17759043, -0.13311958, 0
70, 1674411942, -0.3907628, 0.274472, 0.015989214, -0.87847286, -0.17758805, 0.12720446, -0.06646919, 0
72, 1674445276, -0.39105392, 0.27453575, 0.016577575, -0.8783126, -0.17202996, 0.058037598, -0.19013786, 0
73, 1674461943, -0.39124855, 0.27454606, 0.016876545, -0.87821704, -0.0761073, 0.079970144, -0.12107372, 0
74, 1674478610, -0.3914999, 0.27452645, 0.017174894, -0.8781052, -0.027323175, 0.04765531, -0.10513973, 0
76, 1674511944, -0.391759, 0.27456918, 0.017668223, -0.87796646, -0.031615887, 0.0604778, -0.14434052, 0
77, 1674528611, -0.39184415, 0.2746287, 0.017799005, -0.8779072, 0.044444498, 0.036464687, -0.1310339, 0
80, 1674578612, -0.391888, 0.27476114, 0.017816175, -0.8778459, -0.024608674, 0.011258907, -0.105864525, 0
81, 1674595279, -0.39189535, 0.27476928, 0.01771511, -0.877842, -0.0011521027, 0.05277845, -0.16190529, 0
82, 1674611946, -0.3918982, 0.27477047, 0.01763627, -0.87784207, -0.013894489, 0.004872359, -0.19192219, 0
84, 1674645280, -0.39187065, 0.27458647, 0.017375039, -0.8779171, 0.052817877, -0.067270026, -0.040495872, 0
86, 1674678614, -0.39190644, 0.2744085, 0.017341768, -0.8779574, -0.119547985, -0.08761965, -0.15244484, 0
88, 1674711948, -0.39208525, 0.27436924, 0.017599339, -0.8778848, 0.0012233737, -0.07753385, -0.11277771, 0
90, 1674745282, -0.3922557, 0.27455178, 0.017914908, -0.87774533, 0.04222122, 0.010140895, -0.13603878, 0
96, 1674845284, -0.3923879, 0.2749797, 0.018416364, -0.8775416, -0.030197453, 0.050248284, -0.17533207, 0
100, 1674911952, -0.3923107, 0.2748775, 0.017960371, -0.8776177, -0.10742854, 0.032494985, -0.1177845, 0
101, 1674928619, -0.39230868, 0.27482408, 0.017814597, -0.8776382, -0.15282695, 0.030996889, -0.16578865, 0
103, 1674961953, -0.39225867, 0.2747244, 0.017598227, -0.87769616, -0.11120046, 0.07340154, -0.024699211, 0
104, 1674978620, -0.39223674, 0.2747235, 0.017524062, -0.8777077, -0.12709944, 0.02847678, -0.11059952, 0
105, 1674995287, -0.3922116, 0.27476534, 0.017516535, -0.877706, -0.14257008, 0.12160926, -0.18336964, 0
109, 1675061955, -0.392169, 0.27507442, 0.017960785, -0.8776194, -0.09300233, -0.0021771279, -0.19584846, 0
111, 1675095289, -0.39229774, 0.2750748, 0.018460196, -0.87755126, 0.013680344, 0.055414226, -0.08897877, 0
112, 1675111956, -0.39236283, 0.27507612, 0.018716384, -0.8775164, -0.102582715, -0.07206974, -0.1424942, 0
115, 1675161957, -0.3925478, 0.27539188, 0.019495493, -0.87731767, 0.01526777, -0.014961957, -0.23814869, 0
116, 1675178624, -0.39256683, 0.2755746, 0.01975632, -0.87724596, 0.01521295, -0.1298836, -0.15531826, 0
119, 1675228625, -0.39264354, 0.27600113, 0.02034683, -0.877064, 0.038550746, 0.09557347, -0.15857983, 0
122, 1675278626, -0.3922423, 0.27706686, 0.020371798, -0.8769069, -0.07555448, -0.028168444, -0.024805069, 0
124, 1675311960, -0.39217567, 0.2774376, 0.020591803, -0.87681437, -0.18323709, 0.023004288, -0.2744503, 0
126, 1675345294, -0.39254004, 0.27770463, 0.021357901, -0.87654847, -0.0077464036, 0.08708467, -0.04478836, 0
127, 1675361961, -0.39268956, 0.27788, 0.021707505, -0.8764172, 0.09618313, 0.17674612, -0.084833145, 0
128, 1675378628, -0.39277136, 0.278126, 0.02197722, -0.8762959, 0.05223603, 0.18877044, -0.16758251, 0
130, 1675411962, -0.39267674, 0.27832842, 0.022174306, -0.8762689, -0.06719649, 0.002811346, -0.18898773, 0
131, 1675428629, -0.39264882, 0.27824995, 0.022254676, -0.8763043, -0.12152243, 0.059092242, -0.21711445, 0
134, 1675478630, -0.39266676, 0.27791607, 0.022184538, -0.87640405, -0.016473519, 0.10289754, -0.098926544, 0
136, 1675511964, -0.3925539, 0.2778625, 0.021959953, -0.87647724, -0.03727628, 0.021397678, -0.14428902, 0
139, 1675561965, -0.3928081, 0.27785218, 0.022354167, -0.8763567, -0.12576295, -0.05342809, -0.15579033, 0
140, 1675578632, -0.39291194, 0.27792123, 0.022715723, -0.87627894, -0.06602399, -0.052239224, -0.15878391, 0
142, 1675611966, -0.3932038, 0.27817792, 0.023672923, -0.87604123, -0.1003649, -0.070428595, -0.15656471, 0
143, 1675628633, -0.3932686, 0.27841017, 0.024084229, -0.87592715, -0.014223324, -0.024258867, -0.07619381, 0
144, 1675645300, -0.39328894, 0.27863094, 0.024413995, -0.87583876, 0.058388148, -0.0042592627, -0.040587425, 0
146, 1675678634, -0.39329776, 0.2791179, 0.024979718, -0.87566364, -0.05787833, -0.0071115117, -0.14361763, 0
147, 1675695301, -0.39323306, 0.27932602, 0.025136169, -0.8756218, 0.06302865, 0.036491618, -0.041992188, 0
149, 1675728635, -0.3931767, 0.27962586, 0.025244992, -0.8755485, -0.033363417, 0.063481815, -0.26429367, 0
151, 1675761969, -0.3932969, 0.27985942, 0.025438756, -0.87541413, -0.14230524, 0.030069422, -0.046696663, 0
154, 1675811970, -0.39333242, 0.28018317, 0.025709933, -0.8752866, -0.058131356, 0.13918364, -0.2308569, 0
155, 1675828637, -0.39335838, 0.2803468, 0.02589641, -0.8752171, -0.080431804, 0.11216293, -0.042152405, 0
157, 1675861971, -0.39340314, 0.280607, 0.026184589, -0.875105, -0.19037446, 0.08627187, -0.17376518, 0
158, 1675878638, -0.39341643, 0.28078648, 0.026359867, -0.87503624, -0.08150735, 0.20371184, -0.24651241, 0
159, 1675895305, -0.39347678, 0.28093165, 0.026556358, -0.8749566, 0.009280328, 0.15786585, -0.10153866, 0
161, 1675928639, -0.39369082, 0.2809548, 0.026944617, -0.874841, -0.06538138, 0.13489845, -0.13328171, 0
162, 1675945306, -0.39376077, 0.28086442, 0.027003238, -0.8748366, 0.089626476, 0.13118546, -0.061221123, 0
163, 1675961973, -0.39377525, 0.28072006, 0.026911136, -0.8748792, 0.024232507, 0.12419218, -0.13238907, 0
165, 1675995307, -0.39375636, 0.2804038, 0.026526425, -0.87500095, -0.018441098, 0.07113523, -0.15777874, 0
166, 1676011974, -0.3937543, 0.28018075, 0.026278853, -0.87508076, 0.055018105, 0.06448885, -0.0459013, 0
169, 1676061975, -0.3933955, 0.27937698, 0.024947666, -0.87553793, -0.08486102, 0.09485152, -0.22244644, 0
170, 1676078642, -0.39320007, 0.27922454, 0.024538208, -0.875686, -0.09113332, 0.042008813, -0.004463196, 0
173, 1676128643, -0.3927655, 0.2789545, 0.023754887, -0.8759886, -0.23175968, 0.020221328, -0.23721504, 0
174, 1676145310, -0.39272785, 0.27902713, 0.023929797, -0.8759776, -0.128629, 0.042331677, -0.0777359, 0
176, 1676178644, -0.39288425, 0.27939215, 0.024527589, -0.8757745, -0.17623228, -0.002078447, -0.09940052, 0
177, 1676195311, -0.39290956, 0.2796023, 0.024838954, -0.8756874, -0.019846344, 0.04051653, -0.1527834, 0
178, 1676211978, -0.393033, 0.2797991, 0.02525063, -0.8755574, 0.031638954, 0.054508664, -0.25228596, 0
180, 1676245312, -0.39333904, 0.28008714, 0.0260652, -0.8753039, -0.13569535, -0.114336826, -0.057720184, 0
185, 1676328647, -0.39363256, 0.28054008, 0.027216144, -0.8749919, 0.024181273, -0.027367374, -0.14893818, 0
186, 1676345314, -0.3936717, 0.28053734, 0.027266607, -0.8749734, 0.14655262, 0.016511908, -0.074611664, 0
189, 1676395315, -0.3939043, 0.28033015, 0.027192727, -0.8749375, -0.015082515, -0.030111106, -0.057361603, 0
190, 1676411982, -0.39406776, 0.28015694, 0.027151778, -0.8749207, -0.0338011, -0.02549467, -0.10819435, 0
192, 1676445316, -0.39428696, 0.27989003, 0.026973728, -0.87491286, 0.027459335, 0.07166876, -0.09439659, 0
194, 1676478650, -0.39438766, 0.27933985, 0.026622, -0.8750539, -0.0824138, -0.08733456, -0.2361021, 0
196, 1676511984, -0.39441246, 0.27902967, 0.025913896, -0.87516314, 0.08365967, 0.119989686, 0.12872982, 0
198, 1676545318, -0.39361858, 0.2793303, 0.024304647, -0.8754706, -0.0145961605, 0.41718525, -0.30540085, 0
200, 1676578652, -0.39245147, 0.2794393, 0.022561008, -0.8760064, -0.5674819, 6.4237625E-4, -0.016144753, 0
201, 1676595319, -0.39230603, 0.27939788, 0.022112843, -0.87609625, -0.6181802, 0.11227313, -0.20434284, 0
204, 1676645320, -0.39213744, 0.27958426, 0.021755988, -0.87612116, -0.050455783, 0.40484953, -0.16541672, 0
207, 1676695321, -0.39160022, 0.28010437, 0.02191378, -0.87619144, -0.1524459, 0.09191613, -0.08054066, 0
208, 1676711988, -0.39171112, 0.28011307, 0.02215736, -0.87613297, -0.01863732, 0.16920556, -0.23828125, 0
209, 1676728655, -0.3918978, 0.28001723, 0.022462934, -0.8760722, 0.066292085, 0.14586936, -0.19620323, 0
211, 1676761989, -0.39228266, 0.2796023, 0.02306316, -0.87601686, -0.009470398, -0.12407786, -0.07485199, 0
213, 1676795323, -0.39263666, 0.27914116, 0.023149606, -0.87600315, 0.216569, -0.0160717, -0.20754528, 0
215, 1676828657, -0.3928871, 0.27852556, 0.022836879, -0.87609506, 0.06983862, -0.25379348, -0.0852108, 0
216, 1676845324, -0.3929702, 0.27822155, 0.02255255, -0.8761617, -0.016552137, -0.30223924, -0.02158165, 0
217, 1676861991, -0.39304954, 0.27799827, 0.02225114, -0.8762047, 0.008726536, -0.20468803, -0.14028645, 0
219, 1676895325, -0.3930518, 0.2777346, 0.021426827, -0.87630785, 0.11640785, -0.17953633, -0.061246872, 0
221, 1676928659, -0.39307475, 0.27732518, 0.02070072, -0.87644464, -0.12861039, -0.18594065, -0.1781683, 0
223, 1676961993, -0.39332968, 0.2768714, 0.020385921, -0.8764812, -0.063530095, -0.120185375, -0.05272293, 0
224, 1676978660, -0.39344987, 0.27673942, 0.020334974, -0.8764699, -0.16795485, -0.12133803, -0.13764286, 0
225, 1676995327, -0.39346167, 0.27672082, 0.020296272, -0.87647134, -0.12742513, -0.097630456, -0.06474781, 0
230, 1677078662, -0.39336553, 0.277402, 0.021082466, -0.87628084, -0.13193667, -0.053660877, -0.11354256, 0
231, 1677095329, -0.39346978, 0.27756003, 0.021503214, -0.87617373, -0.06255812, -0.021239318, -0.1941557, 0
232, 1677111996, -0.39358371, 0.27774566, 0.021845266, -0.8760553, 0.012022426, -0.014274096, -0.19548988, 0
234, 1677145330, -0.39368546, 0.27795509, 0.022344152, -0.8759305, 0.061280638, -0.04596913, -0.12415981, 0
235, 1677161997, -0.3937295, 0.27804008, 0.022574943, -0.8758778, -0.08350448, -0.019762792, -0.23077488, 0
236, 1677178664, -0.39372393, 0.27810118, 0.022811674, -0.8758548, -0.09882966, -0.044388555, -0.12115955, 0
239, 1677228665, -0.39400777, 0.27807492, 0.023547404, -0.8757159, 0.028583486, -0.077749096, -0.20821095, 0
240, 1677245332, -0.39418474, 0.27801386, 0.023829415, -0.87564826, -0.022243572, -0.05692439, -0.11369133, 0
243, 1677295333, -0.39456317, 0.27809837, 0.024502255, -0.87543225, 0.0018170031, 0.008389447, -0.15657139, 0
244, 1677312000, -0.39458025, 0.27814555, 0.024618387, -0.87540627, 0.070897035, 0.08964669, -0.11408615, 0
246, 1677345334, -0.39465594, 0.27800635, 0.024691038, -0.8754143, -0.08937045, -0.006888781, -0.162076, 0
247, 1677362001, -0.39466995, 0.27796462, 0.02467616, -0.87542176, -0.13588372, 0.045519084, -0.09113026, 0
248, 1677378668, -0.3946623, 0.27791208, 0.024599843, -0.87544394, -0.015041042, 0.06665301, -0.074456215, 0
250, 1677412002, -0.39457202, 0.2778707, 0.02447227, -0.87550133, -0.13271023, 0.11582676, -0.12384415, 0
251, 1677428669, -0.39444974, 0.27785644, 0.024365284, -0.875564, -0.102041766, 0.1583235, -0.084952354, 0
252, 1677445336, -0.39431217, 0.2778096, 0.024245594, -0.8756442, -0.10329827, 0.074027605, -0.032500267, 0
254, 1677478670, -0.39428824, 0.27776933, 0.02430882, -0.87566584, -0.25203237, 0.10639161, -0.2240467, 0
255, 1677495337, -0.39432904, 0.2777598, 0.024506787, -0.8756451, -0.13690872, 0.114181705, -0.04065895, 0
258, 1677545338, -0.39431846, 0.27795744, 0.025187563, -0.87556773, -0.11174298, 0.16861013, -0.11459255, 0
259, 1677562005, -0.39420938, 0.27805653, 0.025383871, -0.8755798, 0.049448367, 0.16645378, -0.050013542, 0
261, 1677595339, -0.39425227, 0.27819654, 0.025948705, -0.87549955, -0.21410753, 0.058160752, -0.2281704, 0
262, 1677612006, -0.39434713, 0.27822047, 0.02623403, -0.87544054, -0.09384119, 0.07428129, -0.06568432, 0
265, 1677662007, -0.39464432, 0.27830043, 0.027046192, -0.8752565, -0.07393876, 0.08394968, -0.20303059, 0
266, 1677678674, -0.39466172, 0.2783389, 0.027179193, -0.87523234, 0.039919212, 0.0788024, -0.07014084, 0
267, 1677695341, -0.39467856, 0.27831787, 0.027295437, -0.8752278, 0.016116815, 0.0073768217, -0.08273029, 0
270, 1677745342, -0.39500007, 0.27821937, 0.027516816, -0.87510705, 0.018348612, 0.09772053, -0.118434906, 0
273, 1677795343, -0.3951611, 0.27806073, 0.027390238, -0.8750887, -0.109896705, 0.0035711783, -0.20884132, 0
274, 1677812010, -0.39522228, 0.27803198, 0.027408995, -0.87506974, -0.038852517, 0.05820266, -0.16585541, 0
275, 1677828677, -0.39531723, 0.2779911, 0.027427353, -0.8750392, 0.0010638938, 0.04537257, -0.014738083, 0
277, 1677862011, -0.39535192, 0.27796096, 0.027377382, -0.87503475, -0.15366107, 0.0614921, -0.14668274, 0
278, 1677878678, -0.39532292, 0.2780067, 0.027369853, -0.87503356, -0.069533005, 0.055570796, -0.13948536, 0
280, 1677912012, -0.3954991, 0.27804664, 0.027601052, -0.87493384, -0.1195017, -0.07655766, -0.1860094, 0
281, 1677928679, -0.3957512, 0.2778994, 0.027941532, -0.87485594, -0.21579406, -0.21017437, -0.16841412, 0
282, 1677945346, -0.39587983, 0.2779389, 0.028080847, -0.87478083, 0.008784806, -0.01919775, 0.1370964, 0
284, 1677978680, -0.3954634, 0.27870044, 0.027537068, -0.8747442, 0.16259715, 0.41349795, -0.13891792, 0
288, 1678045348, -0.39388856, 0.2797323, 0.026314516, -0.87516284, -0.622799, 0.054473795, -0.18509388, 0
289, 1678062015, -0.39406347, 0.27974924, 0.026503488, -0.8750729, -0.3573989, 0.2955224, -0.1396246, 0
290, 1678078682, -0.39411873, 0.27978745, 0.026650209, -0.8750315, 0.21100633, 0.47854078, 0.004357338, 0
292, 1678112016, -0.3937657, 0.28010705, 0.026620809, -0.87508905, -0.167858, 0.31022447, -0.22828579, 0
294, 1678145350, -0.39347354, 0.27987272, 0.026331909, -0.875304, -0.21175031, -0.008963317, -0.0034952164, 0
296, 1678178684, -0.39394453, 0.2793345, 0.026547963, -0.8752575, 0.0053792302, 0.32899788, -0.109461784, 0
297, 1678195351, -0.39401567, 0.27896142, 0.026371276, -0.8753499, 0.28177074, 0.2912746, -0.02865982, 0
298, 1678212018, -0.39404136, 0.27859926, 0.026136676, -0.8754607, 0.21902037, 0.286916, -0.22706795, 0
300, 1678245352, -0.39416, 0.27776888, 0.025412941, -0.8756925, -0.29564226, -0.12851514, -0.051817894, 0
302, 1678278686, -0.3945745, 0.27701315, 0.025046876, -0.8757556, -0.039703522, 0.0076131867, -0.10974407, 0
305, 1678328687, -0.39509147, 0.27633476, 0.024558276, -0.8757508, 0.016266802, -0.041908454, 0.05793476, 0
308, 1678378688, -0.39531732, 0.27571657, 0.024167836, -0.8758546, -0.20779859, -0.1039171, -0.16473675, 0
309, 1678395355, -0.39548346, 0.27557075, 0.0242385, -0.8758236, -0.07189798, -0.07813443, -0.21599865, 0
311, 1678428689, -0.39564824, 0.2754221, 0.024345167, -0.8757928, 0.08802299, -0.103204645, 0.059056282, 0
312, 1678445356, -0.39560536, 0.27542332, 0.024269216, -0.87581396, -0.06700387, -0.1271648, -0.119914055, 0
313, 1678462023, -0.39551318, 0.2754661, 0.02417418, -0.8758448, -0.15612142, -0.11318316, -0.28679276, 0
315, 1678495357, -0.39546877, 0.27550673, 0.024104849, -0.875854, -0.012218022, -0.17472365, -0.040268898, 0
317, 1678528691, -0.39545813, 0.27539408, 0.023959642, -0.87589806, 0.081367575, -0.0058399467, -0.2043066, 0
319, 1678562025, -0.39539465, 0.27533817, 0.023714216, -0.875951, -0.030033017, -0.0874319, -0.0662384, 0
320, 1678578692, -0.395361, 0.2752123, 0.023572685, -0.8760097, -0.12963875, -0.22851093, -0.017166138, 0
323, 1678628693, -0.39552322, 0.27490363, 0.023476668, -0.8760359, 0.13328186, -0.07950501, -0.02347374, 0
324, 1678645360, -0.39557084, 0.27478424, 0.023418654, -0.8760535, 0.08062016, -0.17325361, -0.017113686, 0
325, 1678662027, -0.39557567, 0.27471253, 0.023335345, -0.87607604, 0.027515378, -0.1140828, -0.18956566, 0
327, 1678695361, -0.39564127, 0.27459943, 0.023200072, -0.8760854, 0.008841376, -0.07778899, -0.13231468, 0
328, 1678712028, -0.39567822, 0.2745245, 0.023159679, -0.8760932, -0.049562585, -0.15320438, -0.114730835, 0
329, 1678728695, -0.39575765, 0.27440098, 0.02311813, -0.87609714, 0.0045513595, -0.08401148, -0.13523006, 0
332, 1678778696, -0.39584172, 0.27403954, 0.02275848, -0.87618166, -0.045443993, -0.10016409, -0.07696915, 0
333, 1678795363, -0.39582393, 0.27393243, 0.02261196, -0.8762271, -0.19100417, -0.09520445, -0.21604443, 0
335, 1678828697, -0.39596653, 0.27373543, 0.022362532, -0.87623066, 0.015930932, 0.12074393, -0.0806427, 0
336, 1678845364, -0.39597958, 0.273622, 0.022174448, -0.8762649, 0.010215974, 0.10111771, 0.016456604, 0
338, 1678878698, -0.39578018, 0.27349865, 0.021647284, -0.8764067, -0.15469168, 0.17120008, -0.14338017, 0
339, 1678895365, -0.39567882, 0.2734007, 0.021402378, -0.876489, -0.21866432, 0.09524088, -0.086901665, 0
340, 1678912032, -0.39562035, 0.27332613, 0.02124306, -0.87654257, -0.26368442, 0.10218163, -0.18226528, 0
342, 1678945366, -0.395678, 0.2731871, 0.021171793, -0.87656164, -0.19019727, 0.19281636, -0.028279305, 0
343, 1678962033, -0.39569864, 0.27312785, 0.021213416, -0.8765697, -0.29703525, 0.17457, -0.023611069, 0
344, 1678978700, -0.395732, 0.2731292, 0.02125191, -0.8765534, -0.30180553, 0.20030136, -0.21270943, 0
347, 1679028701, -0.39620394, 0.27290654, 0.021578923, -0.8764014, -0.1485341, 0.13889195, -0.19402885, 0
348, 1679045368, -0.39654025, 0.27283874, 0.021762434, -0.87626606, -0.14732762, 0.09025308, -0.13935184, 0
350, 1679078702, -0.3973512, 0.27269083, 0.022223681, -0.87593293, -0.19994414, 0.07176856, -0.18504047, 0
352, 1679112036, -0.39807734, 0.27255464, 0.022731185, -0.87563264, 0.017620748, 0.037431043, -0.1082201, 0
354, 1679145370, -0.3988061, 0.27226484, 0.023203038, -0.8753787, 0.053523373, -0.02001011, -0.113591194, 0
355, 1679162037, -0.3991299, 0.2720745, 0.023319121, -0.87528723, 0.08658592, -0.04905081, -0.15981483, 0
356, 1679178704, -0.39938033, 0.27188718, 0.023386706, -0.87522954, 0.104936555, -0.11619053, -0.11928558, 0
358, 1679212038, -0.39972878, 0.27146107, 0.02334816, -0.8752037, 0.053524874, -0.20147882, -0.08448124, 0
359, 1679228705, -0.3998595, 0.2712404, 0.023295585, -0.8752138, 0.062421687, -0.14634332, -0.1272955, 0
362, 1679278706, -0.4000897, 0.27052096, 0.022949584, -0.8753403, -0.017005714, -0.0043141353, -0.27404308, 0
363, 1679295373, -0.39999503, 0.27002242, 0.022745281, -0.87554276, 0.07103199, 0.009333678, 0.4622898, 0
365, 1679328707, -0.40026534, 0.2686956, 0.023375481, -0.875811, 0.220025, -0.24264152, 0.67062664, 0
366, 1679345374, -0.40094286, 0.26839158, 0.024841834, -0.8755538, 0.28005227, -0.093288384, 0.61249924, 0
369, 1679395375, -0.4051343, 0.27147055, 0.033181105, -0.8723932, 2.0446024, 1.6531208, -0.7563124, 0
370, 1679412042, -0.41089112, 0.27376592, 0.036196608, -0.8688562, -0.091953374, 0.1581258, -0.52692604, 0
371, 1679428709, -0.41429955, 0.2742387, 0.03936196, -0.8669489, -2.9937196, -2.0555341, 0.79500103, 0
373, 1679462043, -0.41654664, 0.2709501, 0.0445128, -0.8666569, -0.18972558, 0.27606162, -1.2894583, 0
374, 1679478710, -0.41703513, 0.27032754, 0.045218546, -0.8665799, 0.3465168, 0.9477394, -2.5572572, 0
377, 1679528711, -0.4156363, 0.27220443, 0.037139118, -0.8670483, 0.2918197, -0.3232403, 1.2994995, 0
378, 1679545378, -0.415307, 0.27240917, 0.035128616, -0.86722565, 0.8706097, -0.3245236, 1.8076763, 0
379, 1679562045, -0.415353, 0.27228394, 0.03401865, -0.86728704, 0.7254495, 0.18531884, -0.03224945, 0
381, 1679595379, -0.41438505, 0.27220124, 0.03115487, -0.8678833, -0.7597545, 0.59661674, -0.25683975, 0
382, 1679612046, -0.4139986, 0.2720697, 0.030185122, -0.8681432, -0.11191047, 0.30303407, 0.55725193, 0
385, 1679662047, -0.41308925, 0.27253884, 0.027859762, -0.8685071, -0.2308858, 0.6353293, 0.27262306, 0
386, 1679678714, -0.4124503, 0.27287227, 0.027445823, -0.8687193, -0.47593334, 0.45280975, -0.25796986, 0
388, 1679712048, -0.41184258, 0.2733332, 0.02712218, -0.86887264, -0.8097418, 0.021948079, -0.18507767, 0
389, 1679728715, -0.4117563, 0.27351743, 0.027391504, -0.86884725, 0.03186466, 0.26139897, 0.09796524, 0
392, 1679778716, -0.41140553, 0.27410197, 0.028246954, -0.8688018, -0.29532248, 0.26745817, -0.20637894, 0
393, 1679795383, -0.41127032, 0.2742709, 0.028496131, -0.8688044, -0.10713235, 0.102269135, -0.21004963, 0
394, 1679812050, -0.41138196, 0.2743974, 0.02887492, -0.868699, -0.010250052, 0.017082872, -0.1560049, 0
396, 1679845384, -0.41161084, 0.27456343, 0.029342916, -0.8685224, 0.2543593, -0.0802682, -0.09824276, 0
397, 1679862051, -0.41159773, 0.27462995, 0.029473048, -0.8685032, 0.3764485, -0.021829393, -0.0809412, 0
398, 1679878718, -0.4116346, 0.27474368, 0.029659225, -0.8684434, 0.079338744, -0.12818614, -0.24559975, 0
401, 1679928719, -0.4118389, 0.27470604, 0.02951947, -0.8683631, 0.12365946, 0.2484911, 0.029687881, 0
402, 1679945386, -0.4118419, 0.27472615, 0.029560527, -0.86835396, 0.036777046, 0.35617572, -0.054365158, 0
404, 1679978720, -0.4117161, 0.27498764, 0.029497202, -0.868333, -0.49962455, 0.34130752, -0.16923046, 0
406, 1680012054, -0.41161194, 0.2756623, 0.029715117, -0.8681611, -0.37051427, 0.2470063, 0.17675114, 0
408, 1680045388, -0.41136622, 0.27649438, 0.030333016, -0.86799157, -0.13351454, 0.6890809, -0.2550478, 0
409, 1680062055, -0.4112108, 0.2771077, 0.030825093, -0.8678523, -0.10896761, 0.75388813, 0.12522602, 0
410, 1680078722, -0.41114166, 0.2776731, 0.031476848, -0.8676809, -0.4181423, 0.6507826, 0.1854763, 0
412, 1680112056, -0.4107699, 0.27882192, 0.03272547, -0.8674423, -0.68038607, 1.2326066, -0.36804008, 0
413, 1680128723, -0.41077095, 0.27936494, 0.033486605, -0.86723816, -0.7088735, 1.3059947, -0.3233347, 0
414, 1680145390, -0.41089198, 0.27982605, 0.03443385, -0.8669949, -0.5600953, 1.2155734, -0.18743038, 0
416, 1680178724, -0.41110504, 0.28044125, 0.036463566, -0.8666121, -0.6436313, 1.5259612, -0.16219711, 0
417, 1680195391, -0.41118193, 0.28063118, 0.037272796, -0.86647975, -0.67302847, 1.6863202, -0.30686092, 0
419, 1680228725, -0.4113684, 0.28092822, 0.039046213, -0.86621684, -0.9186295, 1.5623388, 0.114403725, 0
421, 1680262059, -0.41144264, 0.28151563, 0.040318064, -0.8659326, -0.7764272, 2.1653457, 0.014861107, 0
423, 1680295393, -0.4110208, 0.2825729, 0.04109755, -0.8657518, -1.3737681, 2.3200366, -0.337018, 0
424, 1680312060, -0.41079754, 0.283172, 0.04145413, -0.865645, -1.2498327, 2.5593584, -0.40787697, 0
425, 1680328727, -0.4108174, 0.28380632, 0.041904137, -0.8654063, -1.4071699, 2.8511019, -0.26065445, 0
427, 1680362061, -0.41093385, 0.28524292, 0.042680774, -0.8648405, -1.5591987, 2.9845223, -0.3458748, 0
428, 1680378728, -0.41087615, 0.28599307, 0.04308495, -0.8646, -1.5782349, 2.8200722, 0.089390755, 0
431, 1680428729, -0.41205332, 0.2865112, 0.044989582, -0.8637709, -1.5460808, 3.372735, -0.08392811, 0
432, 1680445396, -0.41279748, 0.28581598, 0.04570645, -0.8636082, -1.8368381, 3.9084728, -0.819335, 0
436, 1680512064, -0.41217995, 0.28552532, 0.045544077, -0.86400783, -1.3209474, 2.822952, -0.16261482, 0
437, 1680528731, -0.41146022, 0.2855879, 0.044839464, -0.8643669, -1.9189658, 3.1061175, 0.06634045, 0
439, 1680562065, -0.4088294, 0.28699952, 0.042045783, -0.86528766, -1.3010148, 3.0739307, 0.67422867, 0
440, 1680578732, -0.40661564, 0.2884856, 0.039640386, -0.86594987, -1.4875909, 3.7896252, 0.008243561, 0
441, 1680595399, -0.40284723, 0.29064482, 0.036925618, -0.8671084, -1.7900109, 4.108677, -0.014092445, 0
443, 1680628733, -0.3876915, 0.2950581, 0.0345537, -0.8726069, -1.0548462, 4.6452627, -0.764101, 0
444, 1680645400, -0.38058287, 0.29955962, 0.03424549, -0.8742133, -2.77982, 3.969737, 0.29721355, 0
446, 1680678734, -0.37547377, 0.31044137, 0.032663528, -0.87268513, -4.8332653, 3.110125, -0.9124546, 0
448, 1680712068, -0.3797213, 0.31830773, 0.03183703, -0.8680316, -3.241894, 2.9705327, -2.5220175, 0
451, 1680762069, -0.39035028, 0.29361078, 0.05194772, -0.8710463, -4.792289, 2.8727958, -6.525466, 0
452, 1680778736, -0.3916201, 0.29227322, 0.055624478, -0.8706991, -1.0513096, 1.409185, 8.267576, 0
454, 1680812070, -0.39011672, 0.29315653, 0.060216118, -0.8707714, 4.146393, -4.784479, -1.3899164, 0
455, 1680828737, -0.3900046, 0.29417852, 0.06290486, -0.8702869, 2.527576, -3.9609206, -3.065546, 0
456, 1680845404, -0.3894441, 0.29309702, 0.0650125, -0.8707477, 0.005940667, -2.3185458, -0.20300198, 0
458, 1680878738, -0.38567233, 0.29016954, 0.06378057, -0.8734937, 1.8349532, -4.0395565, 1.0992508, 0
459, 1680895405, -0.38367683, 0.28900495, 0.0619054, -0.87489235, 2.3228302, -3.9605548, 0.21357727, 0
460, 1680912072, -0.3812979, 0.28756326, 0.05988847, -0.8765462, -0.26124257, -1.4282737, -1.066534, 0
462, 1680945406, -0.37545124, 0.2835434, 0.056661032, -0.880585, 0.74740046, -0.8806621, 0.4489832, 0
466, 1681012074, -0.36700535, 0.27913827, 0.05266559, -0.88578564, 0.12730448, 0.52694744, -1.2319756, 0
467, 1681028741, -0.36553353, 0.27826276, 0.05209751, -0.8867026, 0.4294327, 0.1382222, 0.42380142, 0
469, 1681062075, -0.36334717, 0.27646938, 0.051529557, -0.8881943, 0.054721393, 0.54399943, -0.6246643, 0
470, 1681078742, -0.36232093, 0.2757065, 0.051133763, -0.8888732, 1.3755287, 1.2875817, -0.5103092, 0
471, 1681095409, -0.36214307, 0.27495006, 0.051062003, -0.889184, 0.3893983, 2.3906276, -1.2633572, 0
473, 1681128743, -0.36292192, 0.27272564, 0.050678723, -0.88957345, -0.14514387, 0.68168324, 0.36570835, 0
474, 1681145410, -0.36343992, 0.27168134, 0.050510198, -0.889691, 0.38630515, 1.0608876, -0.12716293, 0
475, 1681162077, -0.36425936, 0.27156773, 0.050528903, -0.8893895, 0.8412602, 1.0829875, -1.0689106, 0
477, 1681195411, -0.36731562, 0.27128243, 0.051137563, -0.888184, -0.47786054, 1.4539099, 9.651184E-4, 0
478, 1681212078, -0.36899164, 0.27105278, 0.051490717, -0.8875387, 0.22744848, 1.7839706, 0.24379253, 0
482, 1681278746, -0.37793243, 0.27036172, 0.053303644, -0.88387275, 0.7238143, 1.6195508, -0.1866951, 0
483, 1681295413, -0.38001564, 0.2700804, 0.05390306, -0.8830287, 0.93817776, 0.40427095, 1.140871, 0
485, 1681328747, -0.3839759, 0.27038732, 0.05461688, -0.88117594, -0.49389005, 0.5821862, -0.76801014, 0
486, 1681345414, -0.38576525, 0.27055997, 0.054746635, -0.8803329, 1.2320918, 0.7058328, 0.48466396, 0
487, 1681362081, -0.38744044, 0.2713928, 0.05516392, -0.87931436, 0.39683345, 1.3092717, -0.45395374, 0
489, 1681395415, -0.39102167, 0.27172613, 0.05567431, -0.8775922, 0.602859, -0.25438055, 0.8681507, 0
490, 1681412082, -0.39248335, 0.27220014, 0.055809237, -0.87678385, 0.91358316, -0.05932682, 0.63187885, 0
491, 1681428749, -0.3941912, 0.2724444, 0.05613652, -0.8759206, -0.8200003, 2.5633938, -0.76063347, 0
493, 1681462083, -0.3972612, 0.27332732, 0.05680473, -0.8742139, 0.45299584, 1.6455299, -0.16374683, 0
495, 1681495417, -0.40113312, 0.27382722, 0.058000654, -0.8722084, -0.41794732, 0.6434416, 0.42106247, 0
497, 1681528751, -0.40454474, 0.27623564, 0.06043912, -0.8697041, -0.81215227, 3.0003352, -1.4733534, 0
498, 1681545418, -0.40620887, 0.27759132, 0.06155859, -0.86841744, -1.2943294, 2.3922403, -0.74207497, 0
500, 1681578752, -0.4091338, 0.27993646, 0.063220754, -0.86616915, -0.12896153, 2.8622305, -0.40435314, 0
501, 1681595419, -0.410482, 0.28105044, 0.06330407, -0.86516386, -1.8834634, 2.8745973, 0.2283392, 0
502, 1681612086, -0.41127622, 0.2829126, 0.06355947, -0.86416054, -1.5226266, 2.168449, 1.3086843, 0
504, 1681645420, -0.41023764, 0.29001695, 0.063570924, -0.8622962, -2.1227643, 4.27336, -1.980783, 0
505, 1681662087, -0.40959322, 0.29315248, 0.06266699, -0.8616081, -3.1683285, 4.255458, -0.8302822, 0
506, 1681678754, -0.40899533, 0.2952982, 0.06120139, -0.8612648, -3.109585, 4.1020913, 1.0911198, 0
508, 1681712088, -0.40648657, 0.30201533, 0.05870693, -0.86029625, -2.6482923, 4.6899247, 0.91618633, 0
512, 1681778756, -0.40124738, 0.3189627, 0.042714167, -0.85757756, -2.1757429, 6.0219584, -0.99346447, 0
513, 1681795423, -0.40532565, 0.31920892, 0.036130916, -0.8558693, -3.9376345, 2.6546066, -2.836103, 0
514, 1681812090, -0.40783823, 0.31703034, 0.036367018, -0.85547525, -2.107342, 0.1812309, -2.5874734, 0
516, 1681845424, -0.41905567, 0.30193138, 0.060204536, -0.85416967, -2.279398, -2.7783623, -3.558022, 0
517, 1681862091, -0.42299563, 0.30016607, 0.06667158, -0.85236776, 0.0763946, 0.18786062, 4.571759, 0
518, 1681878758, -0.4243813, 0.3008994, 0.07190685, -0.8509936, -0.3841443, -3.3501055, 9.413412, 0
520, 1681912092, -0.4237344, 0.30995408, 0.080879346, -0.8472526, 2.0037622, -5.5431566, -5.2774777, 0
521, 1681928759, -0.42399886, 0.3102276, 0.08591839, -0.84652376, 0.269585, -2.1872616, -2.127613, 0
522, 1681945426, -0.4230879, 0.30998257, 0.088612184, -0.8467917, -0.15876281, -3.2718663, 2.0622082, 0
525, 1681995427, -0.41555637, 0.30831987, 0.08745085, -0.8512373, -0.70618606, -2.5714755, -1.0255966, 0
528, 1682045428, -0.40704665, 0.3049349, 0.08717343, -0.8565798, -0.11845038, -1.7476931, 2.2531776, 0
529, 1682062095, -0.40444627, 0.3048535, 0.08840054, -0.8577143, 0.15489711, -0.7794127, 0.97962856, 0
531, 1682095429, -0.39862165, 0.3044834, 0.08908739, -0.8604969, 0.074911706, -0.6430964, -1.2619009, 0
532, 1682112096, -0.39577535, 0.30332547, 0.0891197, -0.86221457, -0.20943524, 0.07971623, -1.0571213, 0
533, 1682128763, -0.3931359, 0.30094483, 0.088658355, -0.8643014, 0.81884855, -0.6348663, 0.21464825, 0
535, 1682162097, -0.38766873, 0.29510593, 0.08503566, -0.8691347, -0.009674675, -0.9545082, -0.23217773, 0
536, 1682178764, -0.38470933, 0.29244766, 0.082111746, -0.87162584, 0.24426949, -1.1351324, -0.10382366, 0
537, 1682195431, -0.38214105, 0.2900254, 0.07926722, -0.87382543, -1.1574993, 0.3261115, -0.5886507, 0
540, 1682245432, -0.37679267, 0.285008, 0.07417001, -0.8782354, 0.5522176, 0.6904608, 0.14738941, 0
541, 1682262099, -0.3761961, 0.28411785, 0.07380843, -0.87880975, 0.81956893, 0.43532133, 0.31564617, 0
544, 1682312100, -0.37714112, 0.28287444, 0.072811045, -0.87888914, 1.6229712, 1.327703, 0.40641403, 0
545, 1682328767, -0.3783018, 0.2826702, 0.07244575, -0.878486, 0.36592248, 1.4691514, -0.9901581, 0
547, 1682362101, -0.38065395, 0.2826129, 0.070920154, -0.87761235, 0.21623029, 0.29130605, 0.06932163, 0
548, 1682378768, -0.38195252, 0.28187066, 0.07055183, -0.8773166, 0.665524, 1.0314702, 0.75034237, 0
550, 1682412102, -0.38407475, 0.28217506, 0.07026651, -0.8763144, 0.006830095, -0.025206786, -0.48586464, 0
551, 1682428769, -0.38535488, 0.28201842, 0.07024592, -0.87580454, 0.1785331, -0.20311303, -0.0730896, 0
552, 1682445436, -0.3868418, 0.28203586, 0.070355944, -0.8751342, 0.27778426, 1.9037305, -0.8185024, 0
555, 1682495437, -0.39103076, 0.2828036, 0.071322694, -0.87294376, 0.13991503, 0.85810465, -0.13680458, 0
556, 1682512104, -0.39223915, 0.28325734, 0.07167018, -0.8722259, -0.64050204, 1.018036, -1.296936, 0
558, 1682545438, -0.39496404, 0.2832, 0.07177933, -0.8710049, 1.166208, 0.23277935, 0.7740841, 0
560, 1682578772, -0.39679867, 0.2832302, 0.07208689, -0.8701354, 0.122312464, 0.30624953, 0.6295471, 0
562, 1682612106, -0.3983202, 0.283671, 0.07229116, -0.86927927, -0.040265888, 0.5182725, -0.81688595, 0
563, 1682628773, -0.399455, 0.28418002, 0.07265303, -0.8685619, -0.11335205, 0.19350635, 0.22365856, 0
564, 1682645440, -0.4002321, 0.28485164, 0.0734841, -0.8679141, -0.3198711, 0.9519086, -0.6857462, 0
566, 1682678774, -0.40256712, 0.28568056, 0.07707245, -0.86624897, -0.37465608, 2.5327628, -0.80199623, 0
567, 1682695441, -0.4038263, 0.28695253, 0.07911891, -0.865057, -0.4097001, 0.5366213, -0.066812515, 0
570, 1682745442, -0.40611863, 0.28938416, 0.08283774, -0.8628229, -0.79047227, 3.2062774, 0.23331165, 0
571, 1682762109, -0.40613484, 0.29096314, 0.08382846, -0.86218816, -1.1803354, 3.4219832, -2.2617755, 0
572, 1682778776, -0.4061217, 0.29162255, 0.08433286, -0.8619224, -0.48987392, 0.75315255, 0.4431286, 0
574, 1682812110, -0.40556455, 0.29196227, 0.08430962, -0.86207193, -1.5056338, 1.1341833, 2.243373, 0
575, 1682828777, -0.40465423, 0.2933054, 0.08447161, -0.8620279, -2.854337, 4.642265, 0.3437462, 0
576, 1682845444, -0.4022991, 0.2969156, 0.083997875, -0.8619406, -2.0638292, 5.944393, -3.4426641, 0
578, 1682878778, -0.39919472, 0.29975381, 0.080919996, -0.86269575, -3.1769946, 4.703018, -1.3377056, 0
579, 1682895445, -0.39801505, 0.3001813, 0.07910408, -0.8632605, -3.4748619, 3.5602298, 1.715725, 0
581, 1682928779, -0.39463136, 0.30441925, 0.07585959, -0.86362094, -3.4437735, 7.8055353, -0.61246777, 0
582, 1682945446, -0.39160976, 0.30955395, 0.07500925, -0.86324537, -3.3006005, 5.5646696, -1.7191229, 0
585, 1682995447, -0.38386968, 0.3271227, 0.0659454, -0.8609801, -2.1760468, 2.9635406, 2.0632496, 0
586, 1683012114, -0.3862148, 0.32692137, 0.06272802, -0.8602478, -2.1380363, 4.53838, -0.3477869, 0
587, 1683028781, -0.38806313, 0.32528317, 0.061873745, -0.8600989, 0.45046967, 3.730331, -8.063443, 0
591, 1683095449, -0.4041426, 0.3002969, 0.08197513, -0.8600995, 0.448203, -6.9118724, 13.968565, 0
593, 1683128783, -0.40382487, 0.30570972, 0.08290319, -0.8582511, 4.5413556, -10.334827, -6.031842, 0
594, 1683145450, -0.4041887, 0.3031866, 0.08370923, -0.8588964, 0.55004406, -0.6149103, -0.98729897, 0
595, 1683162117, -0.4042028, 0.29918832, 0.08423275, -0.86023945, -0.5894249, 0.31610835, 9.977293, 0
597, 1683195451, -0.40062553, 0.29906997, 0.0796323, -0.86238956, 5.651475, -12.379561, -3.872684, 0
599, 1683228785, -0.39919394, 0.2952141, 0.075563625, -0.86474496, 0.8068165, 0.51474327, 0.9295349, 0
601, 1683262119, -0.39833835, 0.29412937, 0.0727938, -0.86574614, 1.3072232, -0.2235048, -0.73269653, 0
602, 1683278786, -0.3986502, 0.2941554, 0.07167248, -0.86568713, 1.1893631, -2.0212843, 0.2090416, 0
603, 1683295453, -0.39905563, 0.29349154, 0.07053521, -0.86581904, 0.6724186, -0.7412256, 0.5866709, 0
605, 1683328787, -0.3998037, 0.29188436, 0.067195356, -0.86628276, 1.5963904, 0.45232943, 0.03202057, 0
609, 1683395455, -0.40230584, 0.28878787, 0.06200462, -0.8665493, 1.2617943, -1.985576, 1.6930666, 0
610, 1683412122, -0.40301433, 0.28846592, 0.06183341, -0.86633956, 0.22919711, 0.25973257, 0.15701294, 0
612, 1683445456, -0.40470338, 0.2874625, 0.06256232, -0.86583316, -0.55658585, 1.2578249, -2.6666045, 0
614, 1683478790, -0.40662295, 0.28634772, 0.06271114, -0.86529243, 2.3536508, -3.4344957, 4.2746477, 0
616, 1683512124, -0.40635422, 0.28844053, 0.06191535, -0.8647806, 0.93977195, -2.5666087, -0.8300228, 0
617, 1683528791, -0.40626174, 0.2893023, 0.061928432, -0.8645353, -0.56539917, 1.0911628, -3.6835737, 0
618, 1683545458, -0.40673319, 0.28962776, 0.062117733, -0.86419106, -0.36156857, 2.765481, -3.5541787, 0
620, 1683578792, -0.40836853, 0.2904625, 0.062896505, -0.8630826, 1.9669001, -1.5460311, 2.577815, 0
621, 1683595459, -0.4090365, 0.29152378, 0.063454375, -0.8623672, 0.3709374, -1.2138767, 1.1089764, 0
622, 1683612126, -0.4094797, 0.29331014, 0.06393288, -0.8615156, -0.72241044, 0.052707598, -0.9097786, 0
625, 1683662127, -0.41223148, 0.2999729, 0.066338524, -0.85771865, 0.401717, 1.4173204, -0.31762123, 0
626, 1683678794, -0.41328633, 0.30191022, 0.06741419, -0.85644656, 0.45881283, 1.8039589, -0.124593735, 0
629, 1683728795, -0.41624844, 0.30368492, 0.07034612, -0.8541455, -1.2526736, 3.3876092, -0.49885654, 0
631, 1683762129, -0.41723022, 0.30448538, 0.07156791, -0.85327977, -0.8996264, 0.10528667, 1.2624092, 0
632, 1683778796, -0.41768083, 0.3041633, 0.07243073, -0.8531014, -1.0821203, 1.37367, 1.3304367, 0
633, 1683795463, -0.41798198, 0.30444926, 0.072824456, -0.85281837, -1.5581009, 2.1520154, -2.1607504, 0
635, 1683828797, -0.41812, 0.3053596, 0.072996795, -0.8524103, -0.14629827, -0.18791327, 3.1906643, 0
636, 1683845464, -0.41877007, 0.30379438, 0.07395172, -0.85256815, 0.1516612, 3.3153825, 0.97520924, 0
637, 1683862131, -0.41891783, 0.3038499, 0.074787445, -0.85240304, -1.0468972, 2.1491156, -1.2406712, 0
639, 1683895465, -0.4187203, 0.30431637, 0.075273484, -0.8522907, -0.21126662, -1.631724, 0.98706913, 0
641, 1683928799, -0.41885078, 0.3043885, 0.075897336, -0.85214543, 0.32045907, 1.1916964, -0.7785177, 0
644, 1683978800, -0.4191929, 0.30328596, 0.076909214, -0.8522797, -0.084317274, 0.5096452, -0.29222488, 0
645, 1683995467, -0.4194384, 0.3035755, 0.077591516, -0.8519939, -0.65427995, 0.52207714, -1.0442858, 0
647, 1684028801, -0.4199137, 0.3047389, 0.08143877, -0.85098475, 0.018045403, -0.11091797, 0.77258396, 0
648, 1684045468, -0.4205684, 0.30568787, 0.0852184, -0.8499504, -0.3757992, 0.95063233, 0.2768135, 0
649, 1684062135, -0.42063794, 0.3071828, 0.08795479, -0.8490978, -1.4566032, 0.863425, -0.98047733, 0
651, 1684095469, -0.41974506, 0.30981618, 0.09243865, -0.848106, -1.0216619, 2.596594, 0.83106995, 0
652, 1684112136, -0.41890118, 0.31216776, 0.095034756, -0.8473737, -1.3227159, 3.6616786, 0.18623543, 0
653, 1684128803, -0.41744477, 0.31489167, 0.09754385, -0.8467994, -1.983454, 3.2155416, -0.16724682, 0
655, 1684162137, -0.4128574, 0.31819814, 0.099068455, -0.8476349, -3.1935337, 2.3621016, 1.2948465, 0
656, 1684178804, -0.41072717, 0.3183166, 0.09966977, -0.8485544, -3.1721253, 3.9178214, -0.46501827, 0
659, 1684228805, -0.40173712, 0.32288226, 0.098205335, -0.8512995, -3.4644687, 4.5641847, -1.108757, 0
660, 1684245472, -0.3984783, 0.32473826, 0.09764029, -0.85218966, -4.037662, 4.012142, -0.3582554, 0
662, 1684278806, -0.3919417, 0.32625332, 0.09485134, -0.85495305, -3.8219647, 4.769307, -1.1535091, 0
663, 1684295473, -0.3890359, 0.32572132, 0.09419081, -0.85655445, -3.4599757, 4.6261435, -0.1380806, 0
664, 1684312140, -0.38779393, 0.3258009, 0.095356, -0.8569584, -1.9961855, 2.1551147, -4.2500033, 0
666, 1684345474, -0.39099345, 0.3165675, 0.103952646, -0.8579649, -2.6042564, 2.9507945, -2.1859627, 0
667, 1684362141, -0.39219475, 0.3134207, 0.1074856, -0.8581365, -0.46482798, -0.28327182, -1.2662497, 0
668, 1684378808, -0.3929429, 0.3114602, 0.11064319, -0.8581068, -0.5343086, -2.8166857, 3.3526335, 0
671, 1684428809, -0.39200243, 0.30624673, 0.11228799, -0.8601973, 3.8878806, -6.558937, 0.9941397, 0
674, 1684478810, -0.3882848, 0.29834172, 0.10504555, -0.8655596, 3.3460965, -6.9302726, -1.0623789, 0
675, 1684495477, -0.38739428, 0.2946172, 0.09983827, -0.8678476, 2.6127322, -4.3948536, -2.2636342, 0
676, 1684512144, -0.38612905, 0.291561, 0.09453051, -0.8700352, 4.5129237, -5.764968, 1.2628174, 0
678, 1684545478, -0.38364714, 0.2875998, 0.08601591, -0.87332886, 4.569072, -4.545483, -0.075969696, 0
679, 1684562145, -0.3830485, 0.2866899, 0.08240184, -0.87423867, 2.1506047, -4.0304217, -1.684516, 0
680, 1684578812, -0.3829712, 0.2857106, 0.078634374, -0.8749398, 0.11168828, -1.2336894, -1.0011845, 0
682, 1684612146, -0.38369712, 0.28356582, 0.07183057, -0.8759042, 3.03914, -0.44889805, -0.5911732, 0
683, 1684628813, -0.3846651, 0.28300405, 0.06916835, -0.8758756, 2.9994721, -2.338506, 0.6533499, 0
684, 1684645480, -0.38604164, 0.28249478, 0.066782884, -0.8756194, 1.4159174, -1.0649592, 0.7723131, 0
689, 1684728815, -0.3987654, 0.28538302, 0.06132639, -0.8693575, 1.09934, -0.2531851, -0.21258926, 0
690, 1684745482, -0.4017578, 0.28601584, 0.061307095, -0.86777174, 0.6447011, -0.25190324, 1.6967621, 0
691, 1684762149, -0.40436277, 0.28654104, 0.0607442, -0.8664272, -0.11938678, 1.3132678, -0.82638645, 0
694, 1684812150, -0.41008753, 0.2883457, 0.06023589, -0.8631671, -1.0497558, 1.3546981, 0.23148727, 0
695, 1684828817, -0.41072664, 0.2895769, 0.06043778, -0.86243653, 0.103842385, 0.13177429, 0.17863274, 0
697, 1684862151, -0.4114683, 0.29171798, 0.061396495, -0.861293, 0.61908084, -2.4709544, 0.21802521, 0
698, 1684878818, -0.4122758, 0.2920154, 0.06276328, -0.86070746, -1.1272292, 1.3420341, 0.4676733, 0
699, 1684895485, -0.41292706, 0.2923253, 0.063805334, -0.86021316, -0.68459225, 0.33313355, 0.065629005, 0
701, 1684928819, -0.41407138, 0.29477686, 0.06586669, -0.85866976, -0.49599525, 0.88354456, -1.2708044, 0
703, 1684962153, -0.41533336, 0.29757395, 0.06840644, -0.85689497, -0.100184485, 1.0951469, -0.012259483, 0
706, 1685012154, -0.41660988, 0.30333403, 0.07619774, -0.8535919, -1.2030336, 2.1460848, -1.0344744, 0
707, 1685028821, -0.4161313, 0.30454683, 0.07719715, -0.8533038, -1.3672599, 1.8406537, -0.84677315, 0
709, 1685062155, -0.41547987, 0.30428183, 0.078527436, -0.8535943, -0.7181689, 2.3107333, -0.2516899, 0
710, 1685078822, -0.41476378, 0.30426785, 0.079064354, -0.8538981, -1.653607, 0.32878813, 0.821949, 0
711, 1685095489, -0.41385084, 0.3038587, 0.079690844, -0.8544282, -2.1957467, 1.8374187, -0.12910938, 0
713, 1685128823, -0.41228968, 0.30381593, 0.08069602, -0.8551034, -1.323476, 1.5199847, 0.2660179, 0
714, 1685145490, -0.41169268, 0.30341485, 0.08108869, -0.8554962, -1.1309813, 1.7445854, -0.06749916, 0
716, 1685178824, -0.41058373, 0.3028082, 0.082109936, -0.85614663, -0.014499118, 0.20120737, 0.4634161, 0
718, 1685212158, -0.410071, 0.30330393, 0.083171725, -0.8561142, -0.12785137, 0.16326347, 0.049090385, 0
720, 1685245492, -0.40918443, 0.3062327, 0.086012945, -0.85521466, 0.2778674, -0.37288743, -0.4421463, 0
722, 1685278826, -0.40954152, 0.30667228, 0.08911659, -0.85456824, -1.4029843, 1.2233764, -1.8024406, 0
724, 1685312160, -0.40925518, 0.30883804, 0.094925046, -0.853299, -0.5227594, 1.0778315, 0.8348379, 0
725, 1685328827, -0.40892738, 0.3109047, 0.09880354, -0.85226476, -1.3121239, 0.4353316, -0.30514717, 0
726, 1685345494, -0.40826818, 0.31336215, 0.1024935, -0.85124445, -1.5903902, -0.7198825, -0.75000286, 0
728, 1685378828, -0.40566012, 0.31515792, 0.10425995, -0.8516137, -0.7683125, 2.026388, 0.58063793, 0
729, 1685395495, -0.4038455, 0.3148773, 0.103663325, -0.85265225, -0.5197823, 2.7162426, -1.5294886, 0
730, 1685412162, -0.40182984, 0.31318387, 0.10254639, -0.8543615, -2.718228, 0.621904, 1.6148853, 0
733, 1685462163, -0.39116734, 0.3103761, 0.09589553, -0.8610805, -4.6055202, 3.4813762, -0.5032797, 0
734, 1685478830, -0.38638586, 0.31040612, 0.093846194, -0.8634509, -4.709133, 4.7660813, -2.619041, 0
736, 1685512164, -0.37757355, 0.30784187, 0.09015151, -0.8686455, -4.554971, 2.571878, 0.090519905, 0
737, 1685528831, -0.37426051, 0.30535072, 0.088977545, -0.8710763, -6.127636, 3.6518736, 1.203126, 0
738, 1685545498, -0.370359, 0.30552897, 0.08676064, -0.8729031, -3.1447077, 2.5936813, 2.9397125, 0
740, 1685578832, -0.36216262, 0.31172526, 0.0844589, -0.8743758, -3.1268737, 6.2998357, -3.4491873, 0
741, 1685595499, -0.35956264, 0.31347325, 0.084190875, -0.8748496, -1.770619, 3.9311829, -2.73002, 0
743, 1685628833, -0.3654063, 0.30386052, 0.09431737, -0.87478685, -2.368207, 2.422283, -3.8858423, 0
744, 1685645500, -0.37012964, 0.300466, 0.09773691, -0.87359756, 0.48614818, 2.552084, 2.2556114, 0
745, 1685662167, -0.3727444, 0.29988858, 0.099497765, -0.8724846, 2.2569337, -1.4666415, 3.1805, 0
748, 1685712168, -0.37758264, 0.2953215, 0.0977923, -0.8721547, 1.1592474, 3.9538884, 1.0569801, 0
749, 1685728835, -0.37782392, 0.29342127, 0.09662344, -0.8728216, 3.8315682, -6.414036, 3.2996874, 0
752, 1685778836, -0.37944716, 0.28698072, 0.08917647, -0.8750485, 3.3652277, -6.409925, 0.62963104, 0
753, 1685795503, -0.38013768, 0.28397772, 0.08581356, -0.87606436, 2.5186982, -1.6290516, 0.30277252, 0
755, 1685828837, -0.38241625, 0.28213757, 0.0800573, -0.8762122, 3.6722503, -4.143574, -1.4559126, 0
756, 1685845504, -0.3834046, 0.28142706, 0.076661214, -0.87631255, 4.0607595, -4.6692095, 1.5970821, 0
757, 1685862171, -0.38424104, 0.28056857, 0.07266985, -0.87656134, 3.964919, -2.4494495, 0.7919388, 0
759, 1685895505, -0.38708246, 0.27972287, 0.06603385, -0.87610644, 3.1367402, -1.6642878, -1.6093903, 0
760, 1685912172, -0.38928995, 0.27876893, 0.06321612, -0.8756402, 1.9052663, 1.3107082, -2.679768, 0
763, 1685962173, -0.39749023, 0.27685863, 0.05529255, -0.8730947, 4.3413873, -3.992271, 2.9088726, 0
764, 1685978840, -0.40068686, 0.27772692, 0.054051965, -0.8714339, 1.609665, -2.5525408, 0.8923664, 0
765, 1685995507, -0.40356764, 0.27939516, 0.053575177, -0.8695987, 0.6659441, -0.97817785, -0.57856274, 0
768, 1686045508, -0.41321737, 0.28599346, 0.05500729, -0.862806, 0.95442873, -0.44197363, -0.5433235, 0
770, 1686078842, -0.41801435, 0.28929785, 0.055530943, -0.8593532, 0.604414, -1.9563789, -0.08669186, 0
771, 1686095509, -0.41975838, 0.28982496, 0.055952653, -0.8582976, 0.043962065, 0.22368361, 1.1883955, 0
772, 1686112176, -0.42120755, 0.2905751, 0.057036743, -0.8572619, -1.4072957, 1.9941931, -0.22240257, 0
774, 1686145510, -0.42246732, 0.29333678, 0.05888848, -0.85557467, 0.0139179425, -1.5089935, 1.1213179, 0
775, 1686162177, -0.42289305, 0.2935375, 0.059980102, -0.8552194, 0.13949396, 0.81903034, -0.11176872, 0
778, 1686212178, -0.42268974, 0.29572976, 0.06258588, -0.8543775, -1.8749813, 1.6960633, -0.8553581, 0
779, 1686228845, -0.42223248, 0.29655975, 0.06358275, -0.8542423, -0.38192934, -0.23231098, 1.2913456, 0
780, 1686245512, -0.4213492, 0.29811278, 0.06470901, -0.8540535, -2.3627295, 1.4096738, -1.7330666, 0
782, 1686278846, -0.41930705, 0.30066782, 0.06714953, -0.8539742, -1.966478, 3.0917468, -0.68878555, 0
784, 1686312180, -0.41730848, 0.30130628, 0.06947249, -0.8545422, -0.6612101, 0.9459854, 1.0264235, 0
786, 1686345514, -0.4143648, 0.30058944, 0.070573665, -0.8561354, -1.0572201, 0.5141046, -0.7174349, 0
787, 1686362181, -0.41304168, 0.3004153, 0.071239576, -0.85678047, -2.4969954, 1.3790033, -0.40194416, 0
788, 1686378848, -0.41203815, 0.29988593, 0.07193342, -0.8573911, -2.3637958, 1.8908072, -0.06448555, 0
790, 1686412182, -0.40991536, 0.29919028, 0.07379335, -0.85849273, -0.429149, 0.75717175, 0.59111786, 0
792, 1686445516, -0.4082174, 0.29827848, 0.075399175, -0.8594792, -0.88363457, 1.9019473, -0.5427551, 0
794, 1686478850, -0.40671164, 0.29770455, 0.07612494, -0.8603275, -0.7587832, 1.5198964, -0.7894707, 0
795, 1686495517, -0.4059777, 0.2970216, 0.07607724, -0.86091435, 0.1798202, 0.38907427, -0.43311787, 0
798, 1686545518, -0.40478072, 0.2945792, 0.07598441, -0.8623241, -0.31261578, -0.09868924, -0.72699547, 0
799, 1686562185, -0.40447837, 0.29436174, 0.07605021, -0.86253446, -0.12197968, -0.6627298, 0.080527306, 0
802, 1686612186, -0.40376413, 0.29399538, 0.07739979, -0.86287403, 0.68875563, -0.27988315, 0.07980251, 0
803, 1686628853, -0.40377605, 0.2938038, 0.07814137, -0.86286676, -1.1555355, 1.9353828, -0.09520531, 0
805, 1686662187, -0.40334323, 0.29417604, 0.079620376, -0.86280704, 0.8070974, -1.8925524, 2.6755447, 0
807, 1686695521, -0.40234742, 0.29354277, 0.081325114, -0.8633285, -1.0724696, 0.17204317, -0.70496273, 0
809, 1686728855, -0.40095043, 0.2930416, 0.08233123, -0.864053, -0.17171173, 0.45244196, 1.4999084, 0
810, 1686745522, -0.39993614, 0.2928061, 0.08255691, -0.86458135, -1.616815, 2.932455, -0.67103577, 0
811, 1686762189, -0.39914006, 0.29200244, 0.08319639, -0.86515945, -1.2111738, 0.8072645, 0.6529522, 0
813, 1686795523, -0.39711756, 0.2914929, 0.08543807, -0.8660431, -1.3366122, 0.96354455, 0.07317066, 0
814, 1686812190, -0.3959934, 0.29062214, 0.085947126, -0.86679983, -0.45358294, 3.123066, -0.58269024, 0
815, 1686828857, -0.39444607, 0.28943068, 0.08501409, -0.867995, -1.956454, 4.153541, -3.944591, 0
817, 1686862191, -0.39158785, 0.28628683, 0.08211102, -0.8706074, -3.1388378, 0.8989693, 0.8312206, 0
818, 1686878858, -0.39030215, 0.28462112, 0.080449164, -0.87188524, -3.8843431, 2.127757, 3.0780401, 0
819, 1686895525, -0.38792336, 0.28592455, 0.07860797, -0.87268776, -1.563105, 2.1497517, 1.1216602, 0
822, 1686945526, -0.38159752, 0.29453033, 0.07484214, -0.8729461, -2.5741217, 5.0847616, -1.6387968, 0
824, 1686978860, -0.38419345, 0.29829165, 0.07883379, -0.8701743, -0.8687178, 2.9484024, 0.5676098, 0
825, 1686995527, -0.38667914, 0.30032888, 0.08305654, -0.86797696, 0.29988807, 3.268723, 0.86038876, 0
826, 1687012194, -0.38866746, 0.30261463, 0.08674524, -0.86593187, 1.0574616, 1.8486503, -0.15951061, 0
828, 1687045528, -0.39473528, 0.3045606, 0.093223624, -0.8618219, 0.78107405, -0.49459606, -1.1883059, 0
829, 1687062195, -0.39742708, 0.30361336, 0.094967365, -0.860728, 1.0000696, 0.5867376, -1.1190548, 0
832, 1687112196, -0.3963922, 0.3014191, 0.09249892, -0.8622439, 2.2689643, -6.9936914, -2.021863, 0
833, 1687128863, -0.39579156, 0.2983216, 0.091250345, -0.8637288, 0.6178949, -3.4985454, -0.010857582, 0
834, 1687145530, -0.39524597, 0.2948875, 0.08928984, -0.8653612, 0.44557974, -2.7866251, 1.6676712, 0
837, 1687195531, -0.3945611, 0.290787, 0.08466339, -0.86752355, 3.1749814, -4.8456674, 0.385046, 0
838, 1687212198, -0.394854, 0.29134324, 0.08466155, -0.86720395, 1.7455434, -0.5803679, -2.6179528, 0
840, 1687245532, -0.39732987, 0.2936954, 0.08500389, -0.8652439, 2.4177427, -1.8879147, -0.817647, 0
841, 1687262199, -0.39890012, 0.2937571, 0.083948046, -0.86460334, 1.7307318, -1.513561, 1.711731, 0
842, 1687278866, -0.4001408, 0.29326844, 0.081682935, -0.86441284, 2.6454492, -0.81925714, -0.3004408, 0
844, 1687312200, -0.40284917, 0.2911209, 0.07740107, -0.864275, 1.4940848, -1.4153153, -0.08599377, 0
845, 1687328867, -0.40442812, 0.28964794, 0.075631484, -0.8641889, 0.076235324, -0.5037542, 1.1539898, 0
848, 1687378868, -0.4098349, 0.2901719, 0.07157394, -0.86180836, 2.5610003, -2.6775634, -2.3262877, 0
849, 1687395535, -0.41164833, 0.29103264, 0.07001871, -0.860781, 1.4565613, -1.952773, -0.3884077, 0
852, 1687445536, -0.41563916, 0.29214644, 0.06894059, -0.85857, 0.43437588, -2.063274, -1.7106447, 0
853, 1687462203, -0.41710517, 0.29229122, 0.06920551, -0.85778815, -1.016129, 0.12845725, -1.6094713, 0
855, 1687495537, -0.41826388, 0.29291323, 0.0696646, -0.85697424, -0.12635869, -1.522489, 1.4169397, 0
856, 1687512204, -0.41812783, 0.292862, 0.06925472, -0.85709125, -0.07876415, -0.4036321, 0.66482925, 0
857, 1687528871, -0.41762248, 0.29362577, 0.06909287, -0.8570895, 0.87837017, -2.476644, 0.47677135, 0
859, 1687562205, -0.41609225, 0.29339385, 0.068690866, -0.85794514, 1.1553953, -1.6678728, 1.1693726, 0
860, 1687578872, -0.41554376, 0.2932198, 0.0690528, -0.8582412, 0.14465529, 2.4001157, 0.0785532, 0
861, 1687595539, -0.41515806, 0.29356366, 0.06931555, -0.85828906, 0.1026467, -1.3799094, 0.92975235, 0
864, 1687645540, -0.4140513, 0.295492, 0.07000661, -0.858106, -0.9688286, 4.1752515, -3.2625852, 0
867, 1687695541, -0.41515288, 0.29603517, 0.07173828, -0.857243, 0.8376715, 1.2207805, 1.5931215, 0
868, 1687712208, -0.4154933, 0.29636478, 0.07240629, -0.8569079, -0.43971542, -0.16801211, 1.6089239, 0
869, 1687728875, -0.41583392, 0.29627275, 0.07330103, -0.85669845, -2.1564965, 2.1226928, 0.42533302, 0
871, 1687762209, -0.41610587, 0.29822248, 0.074327484, -0.855801, -0.8198221, 2.2515166, -0.78611374, 0
872, 1687778876, -0.41625544, 0.29895374, 0.07446764, -0.8554608, -0.5120276, 2.4548323, -1.7821531, 0
873, 1687795543, -0.41651708, 0.29922146, 0.07470557, -0.85521924, 0.51850164, 0.670271, 0.49489975, 0
875, 1687828877, -0.41764906, 0.2984478, 0.0758485, -0.85483676, -1.1998627, 1.7380607, 0.5014343, 0
876, 1687845544, -0.4182471, 0.29794672, 0.07621428, -0.85468674, -0.8193994, 0.44901764, 1.3146648, 0
878, 1687878878, -0.41864184, 0.2981105, 0.076506995, -0.85441005, -0.39042738, -1.0547552, 0.08296108, 0
882, 1687945546, -0.41773108, 0.30014202, 0.078836225, -0.85393286, 0.7338473, -1.7014976, 1.7963896, 0
883, 1687962213, -0.41747084, 0.29946914, 0.079674765, -0.85421836, 0.0637576, 1.7267715, -0.012787819, 0
884, 1687978880, -0.41699243, 0.29946756, 0.08030929, -0.854393, -0.60823333, -0.36066622, -2.0631433, 0
886, 1688012214, -0.41555545, 0.29910648, 0.081629045, -0.85509425, -0.98397565, 0.7684063, -0.25779724, 0
887, 1688028881, -0.4147945, 0.29950142, 0.082600564, -0.85523236, -0.81111497, 1.1361018, -0.7067032, 0
888, 1688045548, -0.41428286, 0.29979804, 0.08351824, -0.8552872, -1.0810488, 1.2341772, -0.20104313, 0
890, 1688078882, -0.412646, 0.2998855, 0.08469116, -0.85593235, -0.5912234, 0.22811195, 0.4445858, 0
891, 1688095549, -0.41186333, 0.29946083, 0.08545211, -0.8563823, -1.7519023, 1.1735698, 0.06085968, 0
892, 1688112216, -0.4107517, 0.30002204, 0.08693544, -0.8565704, -2.1748066, 1.6872879, 0.15316391, 0
894, 1688145550, -0.40758547, 0.3035184, 0.09085507, -0.85644424, -1.2718246, 1.1839824, 1.7247171, 0
896, 1688178884, -0.40269157, 0.30786064, 0.0941998, -0.85684794, -1.9766515, 1.8894686, -0.45824242, 0
898, 1688212218, -0.39879286, 0.30673414, 0.09865434, -0.8585724, -3.246637, 3.0426424, 1.14575, 0
899, 1688228885, -0.3963726, 0.30596194, 0.099945135, -0.8598186, -4.1257277, 3.8663933, 1.8130703, 0
901, 1688262219, -0.39079344, 0.30882442, 0.10081434, -0.86124635, -3.3416018, 3.6357794, -0.42254448, 0
902, 1688278886, -0.3886149, 0.31043974, 0.101593204, -0.86155975, -3.1462426, 5.9359865, -2.5941796, 0
905, 1688328887, -0.38571018, 0.31170785, 0.10279964, -0.86226386, -2.068177, 2.7023678, -2.8543062, 0
906, 1688345554, -0.38649744, 0.311668, 0.10479969, -0.86168474, -0.40158015, -0.21332166, 0.36360073, 0
907, 1688362221, -0.38833943, 0.31063548, 0.10868941, -0.8607471, -1.8630337, 3.7283833, 0.26987553, 0
909, 1688395555, -0.39127046, 0.30839664, 0.11025185, -0.8600257, -1.011648, -2.1428206, 0.8549881, 0
913, 1688462223, -0.39429122, 0.29724264, 0.104831845, -0.86324507, 3.7996068, -3.6167452, 0.3757906, 0
914, 1688478890, -0.3945053, 0.2950052, 0.102366015, -0.8642103, 3.5496938, -4.3460774, 0.85220623, 0
915, 1688495557, -0.394702, 0.29350278, 0.1006296, -0.86483574, 1.5525904, -5.673963, 0.42556953, 0
917, 1688528891, -0.39652407, 0.29055595, 0.09772658, -0.86533004, 3.1786764, -5.338673, -1.3176384, 0
918, 1688545558, -0.39745688, 0.29011065, 0.09619473, -0.8652233, 4.6283975, -6.0175605, -1.1445503, 0
919, 1688562225, -0.3982685, 0.2906672, 0.09498408, -0.86479676, 2.9680436, -3.3691556, -0.37505722, 0
921, 1688595559, -0.39970165, 0.29194453, 0.09369183, -0.86384577, 3.0714617, -4.32585, -0.5246353, 0
922, 1688612226, -0.4002092, 0.29228407, 0.09216094, -0.86366075, 2.289942, -4.639559, 0.6431074, 0
923, 1688628893, -0.40054697, 0.29221871, 0.08968, -0.8637874, 1.4830213, -2.6244426, 0.122356415, 0
926, 1688678894, -0.401151, 0.28867304, 0.08126417, -0.8655302, 2.344673, -2.0954757, 0.6097956, 0
929, 1688728895, -0.40320057, 0.285263, 0.076702744, -0.8661245, 0.35465214, 0.15320729, 0.35505676, 0
930, 1688745562, -0.40382177, 0.28602412, 0.07567411, -0.86567456, 2.0238867, -1.0653468, 0.7077713, 0
932, 1688778896, -0.40564066, 0.28883263, 0.0762438, -0.8638397, -0.0712244, -1.7871174, -1.0335464, 0
933, 1688795563, -0.40656942, 0.2895076, 0.07675047, -0.86313194, -0.24219534, -0.28522623, 0.4359722, 0
934, 1688812230, -0.40742314, 0.28994197, 0.07704713, -0.862557, -0.0361193, 0.44241512, -0.3890772, 0
936, 1688845564, -0.40767732, 0.2901741, 0.075443156, -0.8625006, 0.089728855, -0.4841142, -0.17531776, 0
937, 1688862231, -0.40752888, 0.28968996, 0.074949026, -0.86277664, 1.016375, -0.66682845, 1.9503651, 0
938, 1688878898, -0.40731746, 0.28975612, 0.07469836, -0.86287594, -0.85295224, 0.24314164, 0.17483616, 0
941, 1688928899, -0.40601933, 0.2896734, 0.073603384, -0.86360925, 0.99980295, -0.9156311, 0.106536865, 0
942, 1688945566, -0.40628955, 0.2888093, 0.07392997, -0.86374366, -0.7921353, 1.803126, 0.6550636, 0
945, 1688995567, -0.4056597, 0.29161498, 0.07608253, -0.8629097, -0.45292643, 1.1116699, -1.315732, 0
946, 1689012234, -0.40579993, 0.29219592, 0.077112004, -0.8625558, 0.30956954, -0.21267359, 0.844924, 0
948, 1689045568, -0.4055063, 0.29190448, 0.0778496, -0.8627263, 0.86605483, 0.17529038, 0.15181828, 0
949, 1689062235, -0.40521973, 0.2920615, 0.07806941, -0.86278796, -1.1336316, 1.9180212, -0.6826048, 0
950, 1689078902, -0.40501043, 0.29179862, 0.07826576, -0.86295736, -1.2922024, 1.2500718, -0.19693375, 0
952, 1689112236, -0.40465537, 0.2918549, 0.078995876, -0.86303836, -1.2471455, 2.4734354, -1.3645124, 0
953, 1689128903, -0.40465492, 0.29178897, 0.07952796, -0.86301184, -0.110705994, -0.006407893, 1.6630888, 0
956, 1689178904, -0.4048763, 0.29266793, 0.08186657, -0.86239153, -1.3907505, 1.7709177, -0.2556696, 0
957, 1689195571, -0.40474564, 0.2935378, 0.08275744, -0.8620722, 0.4832825, 1.0685587, 0.10554695, 0
959, 1689228905, -0.40430775, 0.29658106, 0.0851671, -0.86100066, -0.757743, -0.4866331, 1.0122786, 0
961, 1689262239, -0.4032867, 0.3008414, 0.08945617, -0.8595654, -0.359266, 0.2641522, 0.05727768, 0
963, 1689295573, -0.40201217, 0.3011277, 0.09028968, -0.859975, -0.46887386, 0.60972315, 0.69244576, 0
964, 1689312240, -0.40096575, 0.30116424, 0.090197206, -0.86046016, -0.26470143, 0.7856574, -1.6075249, 0
965, 1689328907, -0.39968804, 0.3021801, 0.08934075, -0.8607878, -0.8309272, -0.87494195, -2.4173865, 0
967, 1689362241, -0.39831668, 0.30009583, 0.0888665, -0.86220056, -0.94277734, 1.5774027, 1.3190098, 0
968, 1689378908, -0.39831418, 0.29778597, 0.08877273, -0.86301196, -1.7724607, 3.3629446, -0.16930485, 0
971, 1689428909, -0.3971385, 0.29530737, 0.08741893, -0.86454225, 0.05741422, -0.4327299, -0.16798401, 0
972, 1689445576, -0.3970824, 0.29425082, 0.087220244, -0.86494815, 0.2635687, 0.96173465, 0.76462936, 0
973, 1689462243, -0.39694592, 0.29359317, 0.08738297, -0.8652179, -1.0266935, 2.8158565, -1.6645956, 0
975, 1689495577, -0.3967896, 0.29249033, 0.08755274, -0.8656458, -0.72479516, 0.92820066, 0.19849491, 0
976, 1689512244, -0.39708292, 0.2920596, 0.088916235, -0.86551774, 0.32244256, 0.06522287, 1.6400061, 0
977, 1689528911, -0.396808, 0.29371113, 0.09108871, -0.8648589, -0.7455809, -0.882717, 0.33659172, 0
979, 1689562245, -0.39459115, 0.29870042, 0.09539098, -0.8636998, -3.2647495, 5.086417, -4.739257, 0
980, 1689578912, -0.39260212, 0.3022612, 0.095660076, -0.86333764, -0.5767176, 3.116569, -2.0907898, 0
982, 1689612246, -0.39107305, 0.300659, 0.09628334, -0.8645209, -1.6118603, 2.2550764, 1.1164465, 0
983, 1689628913, -0.38921896, 0.30102855, 0.0961004, -0.865249, -1.6846281, 0.67900807, 1.2798109, 0
986, 1689678914, -0.38469532, 0.30427015, 0.096711256, -0.86606973, -1.7563704, 2.1010525, -2.2685223, 0
987, 1689695581, -0.38260612, 0.30567968, 0.09528982, -0.8666561, -0.70050323, 0.36974207, 0.96944904, 0
988, 1689712248, -0.38185862, 0.3046004, 0.09457297, -0.86744404, -2.8966038, 4.4999623, 1.9674959, 0
991, 1689762249, -0.3812705, 0.30884385, 0.096527904, -0.86598575, -1.4294809, 1.0130167, -3.1322384, 0
992, 1689778916, -0.3832179, 0.30948433, 0.099897526, -0.8645142, -1.8383789, 0.2556197, 0.7487459, 0
994, 1689812250, -0.38637802, 0.30893943, 0.10348194, -0.86287934, 2.9229057, -3.3507, 2.731886, 0
995, 1689828917, -0.38769063, 0.307787, 0.10391989, -0.8626498, 2.6387012, -1.6621817, -0.6617031, 0
996, 1689845584, -0.38828468, 0.3049599, 0.10257412, -0.8635472, 2.9322634, -2.1847584, -0.09843063, 0
998, 1689878918, -0.388187, 0.29687962, 0.097441666, -0.8669944, 2.3256915, -3.1241577, 0.39461136, 0
1000, 1689912252, -0.38942346, 0.28490353, 0.09080569, -0.8711684, 3.107379, -5.1152124, 3.5476751, 0
1002, 1689945586, -0.39172748, 0.27766088, 0.08287999, -0.8732617, 4.566008, -8.638416, 1.1419725, 0
1003, 1689962253, -0.3931099, 0.2766786, 0.080263086, -0.87319654, 1.7073241, -3.4807265, -2.2675505, 0
1004, 1689978920, -0.3943679, 0.27707922, 0.07905624, -0.8726121, 2.8125865, -4.02085, -1.2112389, 0
1007, 1690028921, -0.40036887, 0.2860983, 0.08251095, -0.86662865, 2.6370525, -2.624921, -0.41003132, 0
1008, 1690045588, -0.40236828, 0.28884116, 0.08238574, -0.86480284, 2.2929385, -1.6014036, -0.6228142, 0
1010, 1690078922, -0.40572205, 0.29010028, 0.08144059, -0.86290187, 1.6565617, 0.96370137, 0.82983017, 0
1011, 1690095589, -0.40703434, 0.29018933, 0.08067972, -0.86232525, -0.25256842, -0.3734991, -1.5014524, 0
1013, 1690128923, -0.40850937, 0.28962296, 0.080039725, -0.8618777, -0.16322078, -0.62455285, -0.18989086, 0
1015, 1690162257, -0.40905577, 0.29072738, 0.08127975, -0.8611304, 0.9867812, -3.06671, 0.44688988, 0
1017, 1690195591, -0.40865117, 0.2905107, 0.083350345, -0.86119765, -0.6309547, -0.12043772, 0.11828327, 0
1018, 1690212258, -0.40817642, 0.29033935, 0.08422708, -0.86139524, -0.71716577, 0.18841472, -1.6193962, 0
1019, 1690228925, -0.4075597, 0.28984264, 0.08428708, -0.86184853, -0.07542003, -3.4680405, -1.259841, 0
1021, 1690262259, -0.40557295, 0.28796628, 0.08269769, -0.86356694, 0.8822348, -3.24259, 1.1884279, 0
1023, 1690295593, -0.40285483, 0.28657117, 0.07899234, -0.8656477, 0.9497652, -1.046765, -0.28862953, 0
1025, 1690328927, -0.39956003, 0.28646538, 0.077036574, -0.86738425, 1.2669157, -1.9853114, 2.3882504, 0
1026, 1690345594, -0.3981379, 0.28687546, 0.07661324, -0.86794, -0.7110321, 0.7332316, -1.083435, 0
1027, 1690362261, -0.3967895, 0.2883093, 0.07584281, -0.8681501, 0.02765375, -2.3954291, -0.06247425, 0
1030, 1690412262, -0.3948419, 0.29092866, 0.07559588, -0.8681857, -0.5372353, 2.0613987, -2.2132297, 0
1031, 1690428929, -0.39436817, 0.29290628, 0.07560804, -0.8677349, -0.5518081, 0.44034618, -0.5252838, 0
1033, 1690462263, -0.39427233, 0.29431358, 0.07680758, -0.8671966, -0.77572167, 3.9555132, -0.66485214, 0
1034, 1690478930, -0.39442816, 0.29511324, 0.077273645, -0.8668126, -0.9938669, 1.9388006, -0.0056324005, 0
1035, 1690495597, -0.39451063, 0.29539943, 0.07768861, -0.8666405, -1.9780734, 2.750713, -0.7672796, 0
1037, 1690528931, -0.394393, 0.29519793, 0.07812512, -0.8667234, -0.9177518, 3.2141972, -0.9243717, 0
1040, 1690578932, -0.39465746, 0.293816, 0.078694165, -0.86702114, -0.63937104, 0.6627727, 0.63148403, 0
1041, 1690595599, -0.39498952, 0.29303443, 0.07901161, -0.8671057, -0.90194976, 2.1062274, -0.6443472, 0
1042, 1690612266, -0.3954141, 0.29277566, 0.07926954, -0.86697584, 0.15875603, 0.6442425, 0.6013527, 0
1045, 1690662267, -0.3966643, 0.29180112, 0.07990318, -0.8666752, 0.5144543, 0.6218814, 0.59641266, 0
1046, 1690678934, -0.39718544, 0.29190043, 0.08016202, -0.86637914, 0.070599504, 0.5414673, -0.30278778, 0
1048, 1690712268, -0.3981426, 0.292809, 0.081376806, -0.86551946, 0.029237563, 1.0115615, -0.46447754, 0
1049, 1690728935, -0.3985594, 0.2946278, 0.08323936, -0.8645327, 0.29193446, -0.99343956, 0.96452236, 0
1050, 1690745602, -0.39883244, 0.29584953, 0.0838517, -0.8639302, -0.9342591, 0.96208, -0.46308422, 0
1052, 1690778936, -0.3991232, 0.2970039, 0.083921686, -0.863393, 0.22597402, 0.41008157, -1.2621136, 0
1053, 1690795603, -0.3993255, 0.29720724, 0.08428556, -0.8631939, 0.04905235, 0.20066558, 1.3031511, 0
1054, 1690812270, -0.39959615, 0.29704058, 0.084962115, -0.86305964, -0.82675606, 1.5099949, -0.3882723, 0
1056, 1690845604, -0.39942813, 0.29869324, 0.08701396, -0.8623625, -0.8960846, -0.904435, -0.030510902, 0
1057, 1690862271, -0.39962313, 0.2995516, 0.0894101, -0.861729, -0.15586752, 0.6559474, 1.0477238, 0
1060, 1690912272, -0.3986082, 0.30455363, 0.09742131, -0.8595746, -1.1669965, 0.28489977, 0.55081654, 0
1061, 1690928939, -0.39728415, 0.30652493, 0.09914267, -0.85929, -0.79577136, 0.5721336, 1.4915686, 0
1063, 1690962273, -0.39423686, 0.3102421, 0.102381244, -0.8589797, -1.1998763, 2.2289016, 0.06822777, 0
1064, 1690978940, -0.39210144, 0.31113338, 0.10280205, -0.8595842, -2.3204138, 3.7186623, -2.4169407, 0
1065, 1690995607, -0.38996664, 0.31087565, 0.10239999, -0.8606959, -3.4266648, 2.9715219, -1.7146091, 0
1067, 1691028941, -0.38500598, 0.31127486, 0.099929854, -0.8630719, -2.9579442, 3.503373, 1.3663187, 0
1069, 1691062275, -0.3744666, 0.3145994, 0.09399217, -0.86716104, -1.302081, 5.4533925, -0.41930866, 0
1071, 1691095609, -0.36337286, 0.31802836, 0.09062479, -0.87097985, -1.7049251, 1.9434427, -1.7288561, 0
1072, 1691112276, -0.3612203, 0.31683204, 0.091660514, -0.8722021, -1.4632155, 0.08098947, -0.020666122, 0
1075, 1691162277, -0.37218308, 0.3090459, 0.10744566, -0.8685775, -0.58900106, 4.581129, -1.2253265, 0
1076, 1691178944, -0.37447193, 0.31152904, 0.111081675, -0.8662459, 2.1311681, -2.9134784, 3.1887045, 0
1077, 1691195611, -0.37754402, 0.31400374, 0.115253896, -0.86346954, 2.4993863, -2.398884, 0.5766964, 0
1079, 1691228945, -0.3815022, 0.31473714, 0.11955551, -0.8608737, 3.884238, -2.6898174, 2.2376184, 0
1080, 1691245612, -0.38248104, 0.31355715, 0.11992115, -0.8608193, 2.904009, -2.623502, 1.3631334, 0
1081, 1691262279, -0.38252878, 0.31229165, 0.11888171, -0.8614022, 3.761221, -8.717339, 3.4696026, 0
1083, 1691295613, -0.38147888, 0.30819297, 0.11464344, -0.8639148, 0.29411617, -6.787812, -0.4764099, 0
1085, 1691328947, -0.3796072, 0.30512565, 0.11100596, -0.8662997, 1.8863106, -4.4177322, -0.47071838, 0
1087, 1691362281, -0.37657732, 0.30187643, 0.10630312, -0.86934495, 1.5369718, -3.0239587, -0.028589249, 0
1089, 1691395615, -0.37457564, 0.2954885, 0.098030984, -0.8733672, 1.3859998, 0.86652195, -3.1051517, 0
1091, 1691428949, -0.3742167, 0.28870365, 0.09040977, -0.8766066, 1.8243514, -0.229429, -1.3299742, 0
1092, 1691445616, -0.3749639, 0.2863677, 0.08723306, -0.8773749, 3.273926, -3.4259083, 1.6806889, 0
1094, 1691478950, -0.3775525, 0.28399402, 0.08257143, -0.8774875, 1.7010771, 0.3606353, 0.4320507, 0
1095, 1691495617, -0.37879544, 0.28458783, 0.08103802, -0.87690204, 1.5216122, -0.16601497, -2.8243012, 0
1096, 1691512284, -0.38042444, 0.28558752, 0.08020206, -0.87594837, 1.5454503, -0.5504372, -1.2668724, 0
1098, 1691545618, -0.3847238, 0.28771856, 0.07998896, -0.8733889, 2.390319, -1.1874561, 0.23706913, 0
1099, 1691562285, -0.38673866, 0.28923687, 0.08032666, -0.8719654, 1.8952513, -2.3977072, 2.0312986, 0
1102, 1691612286, -0.3913384, 0.29249808, 0.07925226, -0.8689183, 0.16148943, 0.71821696, -0.9792738, 0
1104, 1691645620, -0.39302355, 0.2924786, 0.07739861, -0.8683312, -0.2511162, 0.4074053, -0.40146637, 0
1106, 1691678954, -0.3932964, 0.29215217, 0.07641389, -0.8684046, -0.37944692, 0.3031828, -0.024198532, 0
1107, 1691695621, -0.39321953, 0.29189524, 0.07612027, -0.8685518, -0.5785845, 0.34911695, -0.02309513, 0
1108, 1691712288, -0.39322364, 0.29136276, 0.07618445, -0.8687231, -1.0932262, 0.60730165, -0.029743195, 0
1110, 1691745622, -0.3936047, 0.292037, 0.077837296, -0.8681774, -0.97427285, 0.95027804, -0.9570589, 0
1111, 1691762289, -0.39387682, 0.29320735, 0.07943181, -0.8675148, -0.8054988, 0.5373586, -0.55122375, 0
1112, 1691778956, -0.39418173, 0.29477397, 0.081222326, -0.86667925, -0.24112862, 0.98316735, -1.3834543, 0
1114, 1691812290, -0.3948965, 0.29671606, 0.08468068, -0.8653589, 0.40420008, 0.8569915, 0.7331581, 0
1115, 1691828957, -0.39510146, 0.2971014, 0.08613454, -0.86498964, -0.93690366, 2.0975726, -1.1632795, 0
1119, 1691895625, -0.3935722, 0.29838565, 0.09038928, -0.86481065, -1.6423163, 3.9518194, 1.1779528, 0
1121, 1691928959, -0.39079955, 0.2998665, 0.09274964, -0.8653059, -2.0268097, -1.5403327, -0.13412476, 0
1122, 1691945626, -0.3894636, 0.2994343, 0.09339754, -0.86598784, -0.09705184, -1.80956, 0.9419117, 0
1123, 1691962293, -0.3879124, 0.2999058, 0.093559265, -0.8665033, 0.04717146, -0.38891098, -1.417655, 0
1125, 1691995627, -0.38579664, 0.29814982, 0.093929164, -0.86801255, -0.93874156, 2.4747984, -1.036025, 0
1126, 1692012294, -0.38444343, 0.29864374, 0.09371816, -0.8684657, -0.19123016, 0.29268748, -1.0726566, 0
1127, 1692028961, -0.38342315, 0.29812422, 0.09338384, -0.8691311, -0.7396641, -0.5246859, -0.20839977, 0
1129, 1692062295, -0.38229212, 0.2964638, 0.09254234, -0.8702865, 0.55021095, 1.2684808, -0.015008926, 0
1130, 1692078962, -0.3818888, 0.29633665, 0.09219557, -0.87054366, -1.0515567, 1.3124346, -1.4604883, 0
1131, 1692095629, -0.38163176, 0.29592386, 0.091853045, -0.87083286, -0.26098633, -0.26531345, -0.7485056, 0
1134, 1692145630, -0.38300443, 0.29537842, 0.09221382, -0.87037724, -0.07085849, 0.50903827, -0.09468174, 0
1135, 1692162297, -0.3833357, 0.29757762, 0.09371762, -0.86932105, 0.05884082, -0.7919611, 0.32259178, 0
1137, 1692195631, -0.3845101, 0.30277246, 0.097808674, -0.86655354, 0.23879309, 0.7797356, -0.4941578, 0
1138, 1692212298, -0.38487068, 0.30427867, 0.097919695, -0.86585313, 1.1556964, -0.5088403, -0.86391544, 0
1139, 1692228965, -0.3855786, 0.30447817, 0.09810804, -0.8654466, 0.7840798, 1.0636861, 0.3731537, 0
1141, 1692262299, -0.38726047, 0.30386078, 0.099235035, -0.8647838, 0.22526546, 0.9478346, 0.5004158, 0
1142, 1692278966, -0.38823557, 0.30322605, 0.1001926, -0.8644589, -0.62255955, 0.52430856, 0.77477455, 0
1143, 1692295633, -0.3887072, 0.30368227, 0.101116516, -0.86397916, -0.3346367, -1.1318507, 0.3284855, 0
1145, 1692328967, -0.38886297, 0.30610946, 0.10191578, -0.862958, -0.105729565, -0.23274282, -0.34045792, 0
1149, 1692395635, -0.3872988, 0.29741308, 0.09774424, -0.8671746, -1.21928, -0.22933234, 2.105568, 0
1150, 1692412302, -0.38487467, 0.29698417, 0.09534542, -0.8686667, -2.5179079, -0.7411119, 0.29863548, 0
1152, 1692445636, -0.37899175, 0.29492378, 0.09032402, -0.87248373, -3.7230692, 5.2368655, -5.5503416, 0
1153, 1692462303, -0.376222, 0.2932111, 0.08815763, -0.8744788, -2.0716891, 0.80499536, -1.8781681, 0
1154, 1692478970, -0.37416938, 0.29063052, 0.08726574, -0.87630856, -3.0389814, 0.7956642, 2.6869354, 0
1156, 1692512304, -0.36817983, 0.29352483, 0.085044995, -0.87809724, -1.3876756, 1.7367444, 1.6017017, 0
1157, 1692528971, -0.3656804, 0.29855624, 0.08508602, -0.8774412, -3.359421, 6.461705, -3.7890148, 0
1158, 1692545638, -0.36292005, 0.3052644, 0.08566132, -0.8762224, -2.2626815, 6.3955164, -3.462057, 0
1160, 1692578972, -0.36557683, 0.3127941, 0.08948612, -0.8720701, 0.7468488, 1.3933041, -2.4308872, 0
1161, 1692595639, -0.37002593, 0.31317165, 0.09312581, -0.8696738, 2.095064, 0.13642259, -0.504385, 0
1165, 1692662307, -0.3863543, 0.31300652, 0.112693414, -0.8602664, -0.20413752, -0.81025124, 1.8417463, 0
1166, 1692678974, -0.3883628, 0.3140569, 0.11515671, -0.8586515, 1.3066454, -3.1660116, 2.6106234, 0
1168, 1692712308, -0.3917402, 0.3124792, 0.11820477, -0.8572775, 4.911453, -2.2071579, -1.5430536, 0
1169, 1692728975, -0.39299467, 0.31126347, 0.11874035, -0.85707164, 4.483797, -6.996871, 3.5171976, 0
1170, 1692745642, -0.39421725, 0.3110387, 0.11913661, -0.8565367, 2.1558936, -6.0542426, 3.6009197, 0
1172, 1692778976, -0.3972416, 0.3134172, 0.11996553, -0.8541532, 1.6289072, -7.191028, -2.1809058, 0
1173, 1692795643, -0.39880177, 0.31455365, 0.120550245, -0.8529254, 2.3336232, -0.89121765, 0.026503563, 0
1175, 1692828977, -0.40007755, 0.31944627, 0.121719286, -0.8503395, 1.8743165, -5.560206, -0.06655216, 0
1176, 1692845644, -0.39980012, 0.32038563, 0.1206358, -0.85027105, 0.9122282, -4.7063136, 0.0022802353, 0
1179, 1692895645, -0.3956397, 0.31569856, 0.11459035, -0.85479444, -0.09516799, -1.4569882, 0.022317886, 0
1181, 1692928979, -0.39267212, 0.3120371, 0.112133056, -0.8578277, -1.70017, -1.4651597, -0.20534325, 0
1183, 1692962313, -0.38974392, 0.30990434, 0.110052384, -0.8602025, -0.64292765, -0.7563218, -0.5775871, 0
1184, 1692978980, -0.3878983, 0.30807438, 0.10829655, -0.86191523, -0.7540395, -0.70580125, -1.3151016, 0
1185, 1692995647, -0.38591433, 0.3054925, 0.10585736, -0.8640251, -0.24782635, -1.4453063, -0.11581802, 0
1187, 1693028981, -0.38301495, 0.30082253, 0.1024319, -0.8673602, 0.023065504, -1.4416449, 0.6500406, 0
1188, 1693045648, -0.38156363, 0.29950207, 0.101096354, -0.8686127, 1.0920055, -1.5831524, 0.52098083, 0
1189, 1693062315, -0.38026595, 0.29783997, 0.10010755, -0.86986685, 1.5477978, -0.39537507, 0.07342529, 0
1191, 1693095649, -0.37845564, 0.29644462, 0.09861375, -0.8713025, 0.7915987, -0.5100379, 0.73357296, 0
1193, 1693128983, -0.37744793, 0.29652277, 0.09666164, -0.87193155, 2.0697224, -1.66129, -0.4671831, 0
1195, 1693162317, -0.37801632, 0.29762897, 0.09636679, -0.8713408, 0.4507119, 0.16927922, 0.10424805, 0
1197, 1693195651, -0.3782596, 0.30107462, 0.09794713, -0.8698742, -0.5963475, 1.0703434, 0.65141296, 0
1199, 1693228985, -0.3785689, 0.30347815, 0.0992942, -0.8687509, -0.6790822, 1.2190344, -0.9864483, 0
1200, 1693245652, -0.37823722, 0.30442783, 0.09922523, -0.8685709, -0.32693616, -1.0273789, -0.52608204, 0
1202, 1693278986, -0.377188, 0.30421633, 0.09883183, -0.869146, -1.3928076, 2.1666832, -1.6116581, 0
1203, 1693295653, -0.37617695, 0.3043061, 0.09841438, -0.8695999, -1.2563902, 0.41652367, 0.24805832, 0
1204, 1693312320, -0.37511745, 0.30319315, 0.098070644, -0.8704846, -1.8551587, 1.1193619, -0.95990086, 0
1206, 1693345654, -0.3716209, 0.30296272, 0.095734514, -0.8723228, -1.0007553, -2.6349943, 0.38220787, 0
1208, 1693378988, -0.37025806, 0.29880482, 0.09618643, -0.8742847, -3.863261, 6.9316463, -5.804492, 0
1210, 1693412322, -0.3678128, 0.29838103, 0.09562901, -0.87552184, -1.3701589, 1.669261, -0.5781908, 0
1211, 1693428989, -0.36714426, 0.29778677, 0.09526128, -0.8760446, 1.193458, 0.53006774, 0.29486942, 0
1212, 1693445656, -0.36668035, 0.29716542, 0.09477352, -0.8765027, 0.82045984, 0.7623829, 1.314805, 0
1214, 1693478990, -0.36666772, 0.29229692, 0.094653405, -0.8781565, 0.63252103, 0.2794046, 9.68314, 0
1215, 1693495657, -0.3665101, 0.2910968, 0.094331376, -0.87865543, -3.8588881, 8.753253, -8.653116, 0
1216, 1693512324, -0.36620057, 0.2920083, 0.09350802, -0.8785701, 1.6045438, -5.4736023, 0.21316433, 0
1218, 1693545658, -0.36669308, 0.29239178, 0.09164257, -0.87843364, 3.345213, -1.9438944, 3.244915, 0
1219, 1693562325, -0.36820942, 0.29057005, 0.0921705, -0.8783487, -0.5953793, 5.963491, -2.1484027, 0
1220, 1693578992, -0.36918166, 0.2902888, 0.0923781, -0.8780115, -1.6568458, 5.204538, -3.5927873, 0
1223, 1693628993, -0.3710263, 0.2901822, 0.09214411, -0.8772937, 0.54228646, -0.78041, 0.2250452, 0
1224, 1693645660, -0.37222725, 0.28958067, 0.092288174, -0.8769683, -3.7762103, 3.7421978, -2.3589945, 0
1227, 1693695661, -0.3731377, 0.28805336, 0.090159416, -0.8773058, 1.982998, -2.6102853, 2.6245203, 0
1229, 1693728995, -0.37274626, 0.28647518, 0.086839885, -0.87832326, -0.4062852, -0.5703037, -0.09474659, 0
1230, 1693745662, -0.3719409, 0.28761262, 0.08471249, -0.87850076, -0.6421032, 0.24448395, -3.0831265, 0
1231, 1693762329, -0.37227136, 0.2869895, 0.08273258, -0.8787531, -1.4689611, 5.0018706, -2.9811492, 0
1233, 1693795663, -0.37382045, 0.2826246, 0.07844226, -0.879903, 2.6524098, 0.7999747, 0.547122, 0
1234, 1693812330, -0.37535226, 0.27929464, 0.07683129, -0.88045615, 1.012365, 0.031985488, 0.03881836, 0
1235, 1693828997, -0.37687284, 0.27708974, 0.075507544, -0.8806176, -0.5558867, 0.13203223, -1.0094671, 0
1238, 1693878998, -0.38116762, 0.2745755, 0.07406987, -0.87967825, 0.013109705, 2.100821, -0.8343487, 0
1239, 1693895665, -0.38273308, 0.27581775, 0.07614714, -0.87843174, 2.046324, 0.64358836, 0.8834543, 0
1241, 1693928999, -0.38470477, 0.2818753, 0.08278024, -0.87504095, 1.774659, 0.01735729, -1.9269729, 0
1243, 1693962333, -0.38682842, 0.28737548, 0.088566065, -0.871743, -1.4713398, 2.3367207, 1.2798729, 0
1245, 1693995667, -0.38791305, 0.29193208, 0.089482866, -0.86965084, -1.5760982, 5.0905066, 1.678071, 0
1246, 1694012334, -0.38772464, 0.29598886, 0.09040274, -0.8682675, -1.3162441, 4.2470026, -0.08869743, 0
1247, 1694029001, -0.3872504, 0.300152, 0.091358334, -0.8669487, -1.5415568, 2.510309, -5.2358227, 0
1249, 1694062335, -0.38864464, 0.30253297, 0.090092696, -0.8656287, -1.0576651, 1.6304739, 5.249445, 0
1250, 1694079002, -0.391931, 0.29939184, 0.09292859, -0.8649391, -3.2382972, 7.845947, 6.132804, 0
1253, 1694129003, -0.39442495, 0.3012955, 0.09554866, -0.86285627, -0.71075547, 0.27911896, -2.1804152, 0
1254, 1694145670, -0.39521116, 0.30016986, 0.09580741, -0.86286014, 0.78559124, -2.2517219, 1.6025457, 0
1256, 1694179004, -0.3944779, 0.29676437, 0.09481113, -0.8644822, 3.9830854, -6.306815, 2.9757023, 0
1257, 1694195671, -0.39388138, 0.29431567, 0.093963325, -0.8656832, 2.3707561, -5.2304125, 4.4855785, 0
1260, 1694245672, -0.3933488, 0.2879851, 0.088478595, -0.8686275, 0.24981369, 0.2546776, -6.3752947, 0
1261, 1694262339, -0.39414036, 0.2858432, 0.08762568, -0.8690625, 3.265616, -3.377623, 1.757659, 0
1262, 1694279006, -0.3944242, 0.28563955, 0.08703997, -0.8690593, 2.597113, -3.9422219, 2.9881477, 0
1264, 1694312340, -0.3949903, 0.28905225, 0.08694608, -0.8676822, 0.8418715, -0.61888707, -2.2827287, 0
1265, 1694329007, -0.39562988, 0.29099345, 0.08677242, -0.86675894, 2.949424, -2.1698258, -2.0903502, 0
1268, 1694379008, -0.39908668, 0.29441968, 0.08619985, -0.8640701, 1.7676628, -0.36515602, 2.4759283, 0
1269, 1694395675, -0.40044302, 0.2947213, 0.08627699, -0.8633316, 0.15058358, -0.30106962, 2.0772305, 0
1270, 1694412342, -0.40106636, 0.29557487, 0.08560212, -0.86281765, 0.8638427, -2.117627, -0.75157356, 0
1272, 1694445676, -0.40249106, 0.29665223, 0.08486454, -0.8618567, -0.04287233, -0.15369801, -0.8470135, 0
1273, 1694462343, -0.40334478, 0.2964788, 0.085150674, -0.8614891, -0.5911237, -0.6061729, -0.6321945, 0
1276, 1694512344, -0.40432853, 0.29839143, 0.08768093, -0.86011255, -0.37925497, -1.1873304, -0.080519676, 0
1277, 1694529011, -0.40410003, 0.29912135, 0.0882538, -0.85990787, -0.98903364, -2.8300521, -1.2374067, 0
1278, 1694545678, -0.40353006, 0.29899016, 0.08851655, -0.8601941, -0.75746685, -0.99961364, -0.54404926, 0
1280, 1694579012, -0.40183088, 0.29896173, 0.088495314, -0.861001, 0.013532871, -1.6977972, -1.2533875, 0
1283, 1694629013, -0.39890495, 0.2979887, 0.08888475, -0.8626573, 0.42419794, -0.5494444, 2.9120235, 0
1284, 1694645680, -0.3979691, 0.2979377, 0.08937753, -0.86305606, -0.028409867, 0.2105168, 0.004237175, 0
1285, 1694662347, -0.39684868, 0.2992463, 0.090070836, -0.8630474, -0.16264817, -1.9277612, -0.6547222, 0
1287, 1694695681, -0.39529738, 0.3022467, 0.09199545, -0.8625106, -0.22366154, 0.054030567, -4.827321, 0
1288, 1694712348, -0.39540553, 0.30307797, 0.093906745, -0.86196315, 2.1336286, -2.1758156, 5.8090086, 0
1289, 1694729015, -0.39649275, 0.30062392, 0.09668968, -0.86201537, -1.2457265, 7.276694, 0.44153214, 0
1291, 1694762349, -0.39506832, 0.3072061, 0.09922654, -0.86005825, -1.1058408, -6.0061994, 1.1604156, 0
1292, 1694779016, -0.39454454, 0.30744547, 0.10057531, -0.86005664, -0.65614766, 0.5801131, 1.4272022, 0
1293, 1694795683, -0.3939648, 0.3086875, 0.10143587, -0.85977626, 0.73192734, 2.8358133, -0.2803383, 0
1295, 1694829017, -0.39172253, 0.31031352, 0.10310686, -0.8600165, -2.750812, 0.8147392, -1.1004963, 0
1297, 1694862351, -0.38886842, 0.3083971, 0.10360462, -0.86193943, -0.62850523, -0.003818272, 1.3518391, 0
1299, 1694895685, -0.38565436, 0.3063067, 0.10401925, -0.86407614, -2.6518815, 1.3335739, -0.5092001, 0
1300, 1694912352, -0.3835676, 0.3055845, 0.104169145, -0.86524194, -2.2196288, 0.35002264, 0.17737865, 0
1301, 1694929019, -0.38177988, 0.30448383, 0.10438029, -0.86639434, -2.7629364, 2.645286, -2.2546582, 0
1303, 1694962353, -0.37842324, 0.30303767, 0.103646204, -0.86845964, 1.9516466, -2.8771956, 4.166605, 0
1305, 1694995687, -0.37659124, 0.30141973, 0.1043729, -0.869731, -1.8063852, 2.221178, -3.2665887, 0
1307, 1695029021, -0.37562484, 0.30069473, 0.104444176, -0.8703913, 1.1876938, -0.65805155, 1.8600216, 0
1308, 1695045688, -0.37612364, 0.2997527, 0.1047926, -0.8704587, 1.8088094, 0.80158275, 1.7505207, 0
1310, 1695079022, -0.3765169, 0.30007026, 0.10479601, -0.870179, 0.67846054, -1.3970188, 0.9213028, 0
1312, 1695112356, -0.37737516, 0.30092633, 0.10580196, -0.8693894, 0.22107808, -0.025485395, -0.73868465, 0
1314, 1695145690, -0.37838298, 0.30369046, 0.11022144, -0.86743903, 0.052138504, -1.057741, 1.0692492, 0
1315, 1695162357, -0.37795073, 0.30694285, 0.113215424, -0.866096, -0.58510464, -0.5863652, -1.9458604, 0
1316, 1695179024, -0.3779791, 0.30869207, 0.11635784, -0.865045, -0.823957, -1.4293224, 1.0791397, 0
1318, 1695212358, -0.37768024, 0.31054077, 0.121176586, -0.8638513, -0.7465665, 0.6367667, -0.72401714, 0
1319, 1695229025, -0.37676495, 0.30923778, 0.12111852, -0.864726, -0.83830416, -0.07878061, 0.69727993, 0
1322, 1695279026, -0.37282076, 0.3052556, 0.118985824, -0.86813986, -2.184052, -0.13269775, 0.913023, 0
1323, 1695295693, -0.37081057, 0.30459988, 0.11790956, -0.8693771, -2.6161668, 1.967821, -0.29846096, 0
1324, 1695312360, -0.36862332, 0.30364618, 0.116091385, -0.8708841, -3.0797644, 3.0442379, -0.09870911, 0
1327, 1695362361, -0.36130276, 0.30171254, 0.10966027, -0.87544566, -1.9082454, 3.5072215, -0.138484, 0
1328, 1695379028, -0.35932693, 0.30028176, 0.10891538, -0.87684286, -3.2010622, 4.0957494, -0.5709171, 0
1330, 1695412362, -0.35537073, 0.30032372, 0.10847673, -0.8784935, -2.1407764, 1.9690901, 1.3647356, 0
1331, 1695429029, -0.35362792, 0.30103597, 0.10826281, -0.87897927, -2.912843, 3.3501856, 0.51810837, 0
1332, 1695445696, -0.35178387, 0.3010435, 0.10667582, -0.8799103, -2.8034751, 4.0702467, -0.8071232, 0
1334, 1695479030, -0.3494147, 0.30194244, 0.103385426, -0.88093835, -2.917963, 5.1809897, -3.937098, 0
1335, 1695495697, -0.3505947, 0.30224562, 0.10460751, -0.8802209, -0.612413, 0.8552916, -2.789361, 0
1338, 1695545698, -0.36113462, 0.29962853, 0.118692316, -0.87505263, 3.0932293, -6.725192, 2.103488, 0
1339, 1695562365, -0.3656429, 0.2982985, 0.12314346, -0.8730175, 1.030065, 0.78981155, -1.6114302, 0
1342, 1695612366, -0.3727175, 0.29935065, 0.12338661, -0.8696249, 4.8930697, -5.7402196, 0.4611826, 0
1343, 1695629033, -0.37360296, 0.2995253, 0.12063676, -0.86957055, 5.34241, -7.593266, -1.4944677, 0
1345, 1695662367, -0.37501287, 0.29475853, 0.1142514, -0.8714528, 1.1867462, -2.876378, 4.2486334, 0
1346, 1695679034, -0.3747604, 0.2942864, 0.111305244, -0.8721021, 0.7950235, -6.0430617, -1.1948824, 0
1347, 1695695701, -0.37464467, 0.29381686, 0.10903099, -0.87259734, 1.9137678, -8.007745, -2.6158957, 0
1349, 1695729035, -0.37416643, 0.2931127, 0.10636884, -0.8733675, 2.1731198, -3.3941936, 2.088831, 0
1350, 1695745702, -0.37365976, 0.2930958, 0.10468909, -0.873793, 2.3225951, -1.8726144, -1.2452812, 0
1351, 1695762369, -0.372879, 0.2923787, 0.10180908, -0.87470645, 2.774351, -2.798777, -0.81134033, 0
1354, 1695812370, -0.37110448, 0.2853118, 0.088808864, -0.87919986, 2.0083873, -0.82062244, -0.85947704, 0
1357, 1695862371, -0.37225825, 0.2818232, 0.08168219, -0.8805274, 0.42630318, 1.1060474, -3.8104453, 0
1358, 1695879038, -0.37368497, 0.28023493, 0.08032754, -0.8805545, 1.2091392, 0.4507522, -0.053865433, 0
1359, 1695895705, -0.3751493, 0.28008834, 0.07918999, -0.8800814, 3.2445846, -0.36323905, 2.6910458, 0
1361, 1695929039, -0.37853855, 0.28191826, 0.07789776, -0.87815905, 2.0029445, -0.90159404, 0.58778954, 0
1362, 1695945706, -0.38025677, 0.28258657, 0.07748814, -0.8772375, 1.023878, 1.7897881, -1.7375002, 0
1364, 1695979040, -0.3849915, 0.2834114, 0.07677568, -0.8749661, 1.7363197, 0.16682291, -1.5719204, 0
1365, 1695995707, -0.38753703, 0.28433216, 0.076426044, -0.8735732, 2.8682098, -2.8033907, 0.4936037, 0
1366, 1696012374, -0.39031032, 0.28438565, 0.07685921, -0.87228215, 2.173007, -1.2157879, 3.3227587, 0
1368, 1696045708, -0.3946999, 0.28680184, 0.077878326, -0.86942077, 0.098142385, 0.9377356, -1.9522476, 0
1369, 1696062375, -0.3969437, 0.2882115, 0.078500524, -0.8678756, 0.5836359, -0.34884113, -0.5243006, 0
1372, 1696112376, -0.40257514, 0.29313928, 0.08116876, -0.86337394, 1.3579395, -1.5552156, 0.8217735, 0
1373, 1696129043, -0.40391034, 0.2956256, 0.08242915, -0.86178195, -0.29738712, 0.2538049, -1.2349939, 0
1374, 1696145710, -0.40495664, 0.2980831, 0.08397682, -0.8602936, -0.95466673, 0.9167126, -0.4996376, 0
1376, 1696179044, -0.40692997, 0.30360636, 0.087864995, -0.85703635, -0.63332415, 1.3690175, -0.5378027, 0
1377, 1696195711, -0.4073357, 0.30602667, 0.08907014, -0.8558578, -0.19267331, -0.20763505, -0.016326904, 0
1378, 1696212378, -0.4075493, 0.30720136, 0.09040777, -0.8551947, -0.78308815, 0.25554973, 1.0350571, 0
1380, 1696245712, -0.4071987, 0.30891067, 0.092789486, -0.85449064, -1.9536397, 0.5365623, -1.1589117, 0
1381, 1696262379, -0.40680137, 0.3085137, 0.09408109, -0.854682, -2.0177824, 0.3535453, 1.4394245, 0
1384, 1696312380, -0.4034656, 0.30926114, 0.097694255, -0.85558724, -1.906091, 0.14869088, -0.10616493, 0
1386, 1696345714, -0.4000204, 0.30961773, 0.09983423, -0.85682815, -1.4368483, -0.77009267, 0.71053505, 0
1388, 1696379048, -0.39640576, 0.30784744, 0.10075873, -0.8590349, -0.8747888, 0.2439445, -0.39313507, 0
1389, 1696395715, -0.394497, 0.30669072, 0.1008263, -0.86031824, -0.9844188, -1.6329659, 1.0481281, 0
1391, 1696429049, -0.39047042, 0.30420595, 0.10046311, -0.86307555, -0.18838717, -0.47107044, -0.058122635, 0
1392, 1696445716, -0.38888142, 0.30362263, 0.10066461, -0.86397445, -1.8517177, 0.8579374, -0.9673605, 0
1393, 1696462383, -0.38744217, 0.3027142, 0.10066477, -0.8649393, -1.121062, 0.5649025, -0.7140665, 0
1395, 1696495717, -0.3851326, 0.3008715, 0.10046781, -0.8666349, 0.02272593, 1.175428, 0.069122314, 0
1396, 1696512384, -0.38456458, 0.29992262, 0.10036031, -0.8672284, -0.11399736, 0.7816061, -0.16520596, 0
1397, 1696529051, -0.38386735, 0.2996562, 0.10018104, -0.86765003, -0.32758987, -0.62219054, 0.4208727, 0
1401, 1696595719, -0.3827268, 0.2984498, 0.10045494, -0.8685376, 0.20016465, 0.5458561, 0.17762184, 0
1403, 1696629053, -0.38242716, 0.2963268, 0.10020416, -0.86942494, -0.6469499, 1.8232177, -1.0165863, 0
1404, 1696645720, -0.38222376, 0.29591328, 0.099787004, -0.86970323, 0.46697623, -1.2912401, 1.0372171, 0
1405, 1696662387, -0.38236383, 0.29460096, 0.09933785, -0.8701384, -0.96831626, 1.6600841, -0.80645657, 0
1407, 1696695721, -0.38141233, 0.29357475, 0.097820446, -0.8710744, 0.09140241, 0.30109766, 0.58353806, 0
1408, 1696712388, -0.38107064, 0.29309446, 0.097046286, -0.871472, -1.4802552, 1.8805192, 0.010583878, 0
1409, 1696729055, -0.38052434, 0.29297373, 0.095539756, -0.8719177, -0.1959979, -0.7893031, 0.6880894, 0
1411, 1696762389, -0.37968388, 0.2917506, 0.09401275, -0.8728598, -2.547769, 4.4011235, -1.569417, 0
1412, 1696779056, -0.37916073, 0.29197264, 0.093917675, -0.8730231, -0.47482264, 2.5369413, -0.35376167, 0
1413, 1696795723, -0.37879592, 0.29187027, 0.09449547, -0.8731534, -2.0378773, 2.3650553, -1.1296501, 0
1418, 1696879058, -0.37497464, 0.3007906, 0.093063034, -0.87192845, -1.2745788, 1.5274205, -5.6612844, 0
1419, 1696895725, -0.37425205, 0.30354112, 0.09243871, -0.87135184, -0.37201938, -0.2994198, -3.0538058, 0
1420, 1696912392, -0.37661973, 0.30110723, 0.094910145, -0.8709103, -0.23201337, 1.3189164, 3.928051, 0
1422, 1696945726, -0.37943128, 0.30331412, 0.09909155, -0.8684551, -0.11562339, -2.1857371, -0.496212, 0
1423, 1696962393, -0.3805225, 0.30495787, 0.09991614, -0.86730665, 1.2747899, -3.5301347, -0.6589813, 0
1424, 1696979060, -0.38208255, 0.30541605, 0.100886546, -0.8663467, -0.37205353, -1.4431351, -1.0919867, 0
1426, 1697012394, -0.38593733, 0.30245805, 0.10168737, -0.8655817, 1.0353818, -1.26, 0.6198282, 0
1427, 1697029061, -0.38692755, 0.29967794, 0.10107514, -0.86617815, 2.89068, -1.0777127, 1.6367455, 0
1428, 1697045728, -0.387088, 0.2981799, 0.09946912, -0.86680925, 3.9061563, -2.9624476, 1.2463799, 0
1431, 1697095729, -0.3879116, 0.2902996, 0.09268668, -0.86986244, 3.1658077, -5.300068, -1.8957186, 0
1434, 1697145730, -0.3911727, 0.2872693, 0.08878727, -0.8698148, 2.4007316, -4.7569394, -0.31187344, 0
1435, 1697162397, -0.39245793, 0.289129, 0.088108286, -0.86868805, 2.220201, -3.7607493, -3.575779, 0
1436, 1697179064, -0.39464688, 0.28960702, 0.087765455, -0.8675711, 2.734581, -1.2489059, -0.83061314, 0
1438, 1697212398, -0.39764825, 0.29158577, 0.086799964, -0.8656328, 3.8367126, -3.8539813, -1.6617517, 0
1439, 1697229065, -0.3984158, 0.29148045, 0.08467997, -0.8655253, 1.9876151, -4.066664, 1.05058, 0
1440, 1697245732, -0.39925545, 0.28910068, 0.08257753, -0.86613953, -1.5631003, 0.52704847, 2.8525076, 0
1442, 1697279066, -0.39843738, 0.28770214, 0.07653782, -0.8675355, 1.6664999, -3.778879, -0.70455265, 0
1443, 1697295733, -0.39780816, 0.2849833, 0.07388972, -0.86895, -0.24776453, 1.4799405, -0.63613987, 0
1446, 1697345734, -0.3974392, 0.28087792, 0.06913589, -0.87084484, 0.6532612, -0.21199667, 0.11451912, 0
1447, 1697362401, -0.39812368, 0.28040123, 0.068129465, -0.8707652, 0.13616334, -0.21121271, 0.16052532, 0
1449, 1697395735, -0.3992279, 0.28049278, 0.06616915, -0.870381, 2.0995872, -0.4140496, 1.08739, 0
1450, 1697412402, -0.4002239, 0.2811205, 0.06603329, -0.86973125, 0.96803886, 1.0938444, 1.0000086, 0
1451, 1697429069, -0.40139985, 0.28077433, 0.06620631, -0.8692878, -0.68272614, 1.3094053, 0.033722878, 0
1453, 1697462403, -0.40333056, 0.28300995, 0.06635916, -0.86765605, 1.4812095, -1.5687214, -2.3460436, 0
1454, 1697479070, -0.4048739, 0.28495774, 0.06667082, -0.8662747, 2.3367004, -2.4328368, 0.14056683, 0
1455, 1697495737, -0.40706092, 0.28561965, 0.06784021, -0.86494, 1.5039829, -0.75739586, 3.6563473, 0
1457, 1697529071, -0.41012463, 0.28827134, 0.070681006, -0.8623818, 0.5222426, 2.5892968, -0.8978958, 0
1458, 1697545738, -0.41169277, 0.29127786, 0.07207192, -0.8605072, 0.4332089, 1.2214228, -2.2013464, 0
1461, 1697595739, -0.41608092, 0.2974557, 0.075978234, -0.85593504, 1.7376055, 0.7560648, 1.877387, 0
1463, 1697629073, -0.41792998, 0.3000567, 0.078668125, -0.8538809, -1.8028922, 1.901481, -1.9296174, 0
1465, 1697662407, -0.4189343, 0.3014909, 0.080458686, -0.8527158, 0.1544909, -1.2367897, 1.8583384, 0
1466, 1697679074, -0.41912282, 0.3020822, 0.08145179, -0.8523196, -0.2404661, -1.0356363, 1.1191998, 0
1467, 1697695741, -0.41898054, 0.30301982, 0.08254935, -0.8519512, -2.1310167, -0.110231005, -0.3054123, 0
1469, 1697729075, -0.41795623, 0.30464664, 0.08507853, -0.8516251, -1.3913356, 1.7132723, -1.6484842, 0
1470, 1697745742, -0.4171464, 0.3051556, 0.085899495, -0.8517576, 0.079122834, -0.47003567, 0.71506786, 0
1472, 1697779076, -0.4150616, 0.30456692, 0.08747716, -0.85282546, -1.323022, -1.2166674, 1.0557537, 0
1473, 1697795743, -0.41358286, 0.3043544, 0.08790976, -0.85357505, -2.2285824, -0.1386167, 0.29257393, 0
1476, 1697845744, -0.40917006, 0.3030086, 0.08808773, -0.85615826, -0.08286363, -0.3140299, 0.9315033, 0
1477, 1697862411, -0.40748215, 0.30282477, 0.088136, -0.8570229, 0.1311415, -0.69714296, 0.4049511, 0
1480, 1697912412, -0.403944, 0.30077624, 0.08947915, -0.85927707, -0.22231415, -0.9143231, -0.716033, 0
1481, 1697929079, -0.4028907, 0.30107284, 0.089626364, -0.8596522, -0.723781, -0.50558406, -0.017990112, 0
1482, 1697945746, -0.40223548, 0.30025128, 0.089936845, -0.86021394, 0.3874525, 0.94786423, 0.20040417, 0
1484, 1697979080, -0.4012655, 0.3007488, 0.09094866, -0.86038667, -1.663714, 2.1492383, -1.1010313, 0
1485, 1697995747, -0.4006115, 0.30110937, 0.09167783, -0.86048794, -0.9664184, 0.07846523, -0.7062216, 0
1486, 1698012414, -0.40017113, 0.3017871, 0.093386985, -0.8602716, 0.5247126, -0.78065485, 1.418045, 0
1488, 1698045748, -0.3995632, 0.3019434, 0.09560461, -0.8602558, -0.75496733, 0.9104284, -0.41952324, 0
1490, 1698079082, -0.39862904, 0.3019862, 0.09678501, -0.8605421, 0.29408908, 0.9601005, -0.80460453, 0
1492, 1698112416, -0.39852163, 0.3004016, 0.09634724, -0.8611954, -0.8385682, 1.5829619, 1.5432138, 0
1493, 1698129083, -0.39781904, 0.30023235, 0.09608345, -0.8616084, -0.38307968, 0.8954432, 0.8478327, 0
1496, 1698179084, -0.3953836, 0.30314276, 0.09718948, -0.8615862, -1.7435923, 2.7317102, -0.5764637, 0
1497, 1698195751, -0.39429122, 0.30492285, 0.0980847, -0.86135745, -1.4756724, 2.4540775, 0.5663643, 0
1499, 1698229085, -0.39162844, 0.3093636, 0.100104764, -0.86075604, -2.38683, 3.4125814, -0.78862476, 0
1500, 1698245752, -0.39108542, 0.3098119, 0.100916736, -0.86074686, -3.6035295, 4.7378597, -2.8492322, 0
1501, 1698262419, -0.38975728, 0.311449, 0.10082625, -0.8607691, -1.1997008, 2.3750932, -0.173872, 0
1503, 1698295753, -0.3882786, 0.3109573, 0.10112735, -0.8615795, -1.5171332, 3.2051618, -2.510775, 0
1505, 1698329087, -0.38699314, 0.3106545, 0.10288011, -0.8620594, -2.90201, 2.312352, 1.046792, 0
1507, 1698362421, -0.38733324, 0.30883086, 0.107028216, -0.8620569, 0.05752807, -2.4286916, -1.4840994, 0
1508, 1698379088, -0.38834572, 0.30701807, 0.10882585, -0.8620237, -0.7039847, -2.6823175, -1.8276439, 0
1509, 1698395755, -0.3893389, 0.30362868, 0.10923769, -0.8627239, -0.024249675, -1.5744077, -0.8245783, 0
1512, 1698445756, -0.3893592, 0.29817584, 0.108068526, -0.86476165, 1.1575505, -4.1153765, -0.8148756, 0
1513, 1698462423, -0.38921925, 0.29694396, 0.10656729, -0.8654345, 3.070906, -6.0167003, 1.6192122, 0
1515, 1698495757, -0.38933748, 0.29313734, 0.10218689, -0.86720556, 2.5394616, -2.8296592, -1.0205755, 0
1516, 1698512424, -0.38928166, 0.29065573, 0.09865467, -0.8684739, 2.2703216, -4.8650923, -1.3341732, 0
1517, 1698529091, -0.3894718, 0.28731582, 0.09589754, -0.8698079, 1.2192706, -3.895223, 1.8185177, 0
1520, 1698579092, -0.38944647, 0.28490406, 0.08939686, -0.87130374, 3.4124537, -4.407008, -1.59202, 0
1521, 1698595759, -0.3896143, 0.28403705, 0.08769338, -0.8716847, 1.4635217, -0.80049264, -1.3879986, 0
1523, 1698629093, -0.38921466, 0.28262568, 0.08305673, -0.87277544, 2.4611678, -3.6867175, 1.2539768, 0
1524, 1698645760, -0.38891667, 0.28146982, 0.07976027, -0.873589, 0.6936442, -1.885982, -0.10881138, 0
1526, 1698679094, -0.38899085, 0.2783399, 0.07324221, -0.8751281, 1.8171533, -1.3154268, -1.3890924, 0
1527, 1698695761, -0.3893568, 0.27633974, 0.0704687, -0.87582684, 1.4622456, -0.31938973, -0.2098198, 0
1528, 1698712428, -0.39006305, 0.27495518, 0.06820639, -0.8761273, 2.0422885, 0.41813093, 0.543046, 0
1530, 1698745762, -0.39287063, 0.27392563, 0.06505444, -0.8754348, 3.0515583, -1.668904, -0.85664463, 0
1531, 1698762429, -0.39502728, 0.27408236, 0.064179674, -0.87447935, 3.2159853, -1.088857, 1.1713715, 0
1532, 1698779096, -0.39751095, 0.27536225, 0.0639946, -0.87296396, 2.0275753, 0.62110674, 0.67781353, 0
1535, 1698829097, -0.40653712, 0.28005415, 0.06517642, -0.8672082, 1.6372507, 0.8481775, 0.31032944, 0
1536, 1698845764, -0.40980914, 0.28161997, 0.06578199, -0.8651128, 1.5043465, 1.3045397, -0.8291817, 0
1538, 1698879098, -0.41575804, 0.28541183, 0.067239925, -0.86090934, 0.48205563, -0.5124269, 0.3349619, 0
1539, 1698895765, -0.41805178, 0.2874114, 0.067982316, -0.85907304, 0.8809223, -0.2562338, 0.8431215, 0
1542, 1698945766, -0.42232257, 0.2928418, 0.07027006, -0.85495627, -0.4157367, 0.44597948, -0.058148384, 0
1543, 1698962433, -0.42282265, 0.2941177, 0.07050907, -0.85425127, -0.8642844, 1.1488372, -0.2554674, 0
1544, 1698979100, -0.42322144, 0.29431653, 0.07100169, -0.8539443, -0.26848805, -0.67606056, 0.9961395, 0
1546, 1699012434, -0.42265797, 0.29551017, 0.0717763, -0.8537463, -1.7232779, -0.09080158, 0.30461407, 0
1547, 1699029101, -0.42224917, 0.29523975, 0.072152175, -0.8540104, -1.793221, 2.7853527, -1.8031683, 0
1550, 1699079102, -0.4209924, 0.29513162, 0.07395079, -0.8545143, -1.2709247, 0.5488423, 0.25241756, 0
1551, 1699095769, -0.42050815, 0.29595393, 0.07489512, -0.85438615, -1.0634055, -0.6182043, -1.1568289, 0
1553, 1699129103, -0.42007247, 0.29688346, 0.07666221, -0.85412115, -0.6321246, 2.9278958, -0.5340347, 0
1554, 1699145770, -0.41995957, 0.2980064, 0.07759147, -0.8537015, 0.42404643, 1.9556279, -1.0038118, 0
1555, 1699162437, -0.4196731, 0.2989532, 0.07851031, -0.8534275, -0.0890921, 0.5665929, -0.009362221, 0
1558, 1699212438, -0.41898283, 0.29919887, 0.08072638, -0.8534738, -0.89221233, 1.8864509, 0.71589756, 0
1559, 1699229105, -0.418595, 0.29894376, 0.08133054, -0.8536961, -1.1221594, 1.7441655, -0.9989357, 0
1561, 1699262439, -0.4174403, 0.29893756, 0.082373105, -0.85416365, -0.2576772, -0.21312205, -0.08438873, 0
1562, 1699279106, -0.41693503, 0.2997846, 0.08282857, -0.8540695, 0.017069321, -0.7337871, 0.23417854, 0
1565, 1699329107, -0.41643614, 0.3001349, 0.08589261, -0.85388714, -1.13283, 1.3149238, -0.21715546, 0
1566, 1699345774, -0.41639426, 0.30105624, 0.08803643, -0.8533647, -0.8416232, 1.5101813, -0.63856983, 0
1567, 1699362441, -0.41600835, 0.30280802, 0.08996886, -0.8527313, 0.0011310314, -0.7876194, 0.19944954, 0
1569, 1699395775, -0.41392627, 0.30595827, 0.09102028, -0.8525085, 0.6125748, -2.7482395, 1.3909206, 0
1570, 1699412442, -0.4126909, 0.30622172, 0.09120002, -0.8529934, -1.301639, 1.9232447, 1.8531656, 0
1571, 1699429109, -0.41150188, 0.305537, 0.09176848, -0.8537522, -3.1923141, 4.881024, -0.121935844, 0
1574, 1699479110, -0.40466762, 0.308529, 0.092312336, -0.8558814, -2.78507, 2.5190809, 1.8454161, 0
1576, 1699512444, -0.3985589, 0.31145033, 0.09209698, -0.85771114, -2.5409136, 1.3302515, 1.1734447, 0
1577, 1699529111, -0.39588106, 0.31086463, 0.09170161, -0.85920477, -3.6653304, 4.722817, -1.6031933, 0
1580, 1699579112, -0.38526505, 0.31253648, 0.08734162, -0.86386585, -3.4040868, 5.08645, -1.4098606, 0
1581, 1699595779, -0.38071597, 0.3140466, 0.08745907, -0.86532176, -4.625828, 6.40239, -4.1234865, 0
1582, 1699612446, -0.37667185, 0.31425267, 0.08890263, -0.8668682, -0.5322688, 1.948724, -3.3548818, 0
1584, 1699645780, -0.3802869, 0.30887103, 0.097420014, -0.8663087, -0.36361542, 0.31772244, 2.0215006, 0
1585, 1699662447, -0.38099012, 0.30703738, 0.09914262, -0.86645603, 1.7993611, -2.4411485, 4.5556746, 0
1586, 1699679114, -0.38245827, 0.3045012, 0.100233555, -0.8665787, -1.2199466, -0.52916896, 0.36025143, 0
1588, 1699712448, -0.38281837, 0.30030218, 0.09859125, -0.86807203, 2.4749424, -2.7944512, -2.820321, 0
1590, 1699745782, -0.3836617, 0.291392, 0.09617062, -0.8710031, 2.5808718, -3.7216425, 3.0600462, 0
1592, 1699779116, -0.38399196, 0.28641242, 0.09200002, -0.87295747, 4.7380533, -6.618942, 3.403101, 0
1594, 1699812450, -0.3861038, 0.28472528, 0.08878258, -0.87291116, 2.643932, -5.520254, -2.8798199, 0
1596, 1699845784, -0.38887006, 0.28488111, 0.08622377, -0.87188816, 5.2746243, -4.122902, 1.2458372, 0
1597, 1699862451, -0.3901264, 0.2865438, 0.0850535, -0.8708966, 4.145491, -5.065719, 1.088027, 0
1598, 1699879118, -0.3913958, 0.2866068, 0.08247524, -0.87055403, 3.3797038, -3.403264, 0.7757883, 0
1600, 1699912452, -0.39361712, 0.2863528, 0.07776626, -0.87006944, 1.5539134, -0.07821193, -2.373036, 0
1601, 1699929119, -0.39477277, 0.2860368, 0.07513792, -0.8698807, 1.829864, -1.822456, -1.145772, 0
1602, 1699945786, -0.39633504, 0.28521523, 0.07288937, -0.86963135, 2.0125334, -1.6533102, 1.7783813, 0
1604, 1699979120, -0.3996066, 0.28531912, 0.07071275, -0.86827874, 0.9774866, -0.8094163, -1.3728323, 0
1605, 1699995787, -0.40151036, 0.28657207, 0.07042512, -0.86701035, 0.9623697, -0.31485918, -3.1791716, 0
1607, 1700029121, -0.40682632, 0.28880355, 0.070977144, -0.86374044, 1.0836104, 2.26397, -0.66210365, 0
1609, 1700062455, -0.41125467, 0.29352835, 0.072114736, -0.8599483, 0.758611, -0.24509883, 0.69629383, 0
1611, 1700095789, -0.41505125, 0.29685146, 0.073999204, -0.8568176, -0.22799776, -1.0836797, -1.6561165, 0
1612, 1700112456, -0.41638827, 0.29819924, 0.07427192, -0.8556766, -0.8209083, 0.4277254, -1.6065559, 0
1613, 1700129123, -0.41745675, 0.29844576, 0.07476004, -0.85502726, 0.77935576, -1.7365148, 1.136013, 0
1615, 1700162457, -0.41861367, 0.2998149, 0.076439425, -0.8538334, -1.168103, 0.5020118, -1.0766344, 0
1616, 1700179124, -0.41836038, 0.30098367, 0.07653019, -0.85353804, -0.49174225, -3.1177926, -0.51351357, 0
1617, 1700195791, -0.4182614, 0.30032068, 0.07713037, -0.8537661, -0.7721928, 0.79782087, -0.08131027, 0
1620, 1700245792, -0.41585636, 0.30303085, 0.079490684, -0.8537669, -2.4115314, 2.3809893, -1.9717131, 0
1621, 1700262459, -0.41463062, 0.30334902, 0.079977825, -0.85420436, 1.4634843, -3.6839092, 0.9816427, 0
1624, 1700312460, -0.4117656, 0.30366662, 0.08255076, -0.855232, -0.6348187, 1.4782194, -0.05774784, 0
1625, 1700329127, -0.41087857, 0.3042791, 0.08353043, -0.85534585, -0.7198884, 2.1372619, -1.433876, 0
1627, 1700362461, -0.4094164, 0.30629227, 0.08557196, -0.8551266, -0.8196046, -0.26468438, 1.0215006, 0
1628, 1700379128, -0.4089034, 0.30654198, 0.087097265, -0.8551285, -0.22368391, 1.7624464, 1.2114744, 0
1629, 1700395795, -0.4081735, 0.30718037, 0.08853139, -0.855101, -0.6630011, 2.7373652, 0.8613405, 0
1631, 1700429129, -0.40660965, 0.3088056, 0.091164574, -0.854984, -1.7169352, 0.36213702, -0.507988, 0
1632, 1700445796, -0.40599516, 0.30890152, 0.09231589, -0.8551177, -0.59375143, 0.27967897, -0.44761086, 0
1634, 1700479130, -0.40468612, 0.3092714, 0.09447314, -0.85536885, -0.5846671, 1.4831054, 0.39924622, 0
1636, 1700512464, -0.40284786, 0.30966038, 0.09687062, -0.85582757, -1.7383522, 0.39738524, -0.9387474, 0
1639, 1700562465, -0.400646, 0.3138537, 0.104545735, -0.8544295, -0.9487421, 0.4960793, 0.7856922, 0
1640, 1700579132, -0.3993852, 0.31739157, 0.108355895, -0.8532372, -1.914042, -0.32545564, -2.7099938, 0
1642, 1700612466, -0.39716533, 0.31883213, 0.11189088, -0.85328007, -0.77227885, 0.7707254, -1.3829889, 0
1643, 1700629133, -0.39580467, 0.3191504, 0.112658165, -0.8536923, 1.4683514, -1.9685094, 1.8318796, 0
1644, 1700645800, -0.3945854, 0.31763843, 0.11383281, -0.85466427, -1.6859634, 0.3087693, 1.0821772, 0
1646, 1700679134, -0.39060092, 0.31601188, 0.11514406, -0.8569188, -2.3267574, -1.8965691, -0.8744774, 0
1647, 1700695801, -0.38830703, 0.3149501, 0.114644855, -0.85841787, -1.1137239, -1.9173409, 0.54164505, 0
1648, 1700712468, -0.3860637, 0.31379703, 0.11387113, -0.8599537, -0.29349628, -0.5660676, -0.35509586, 0
1650, 1700745802, -0.38247108, 0.30792567, 0.11304682, -0.86378163, -1.3961284, 1.572482, -0.9195852, 0
1654, 1700812470, -0.3749222, 0.29909754, 0.109227434, -0.8706574, -1.8874091, 2.573172, -2.1159878, 0
1655, 1700829137, -0.3735043, 0.29623264, 0.108098015, -0.8723854, -0.4415713, 1.7435673, -0.40211868, 0
1656, 1700845804, -0.3719327, 0.2940844, 0.107046366, -0.87391216, 0.124901414, 2.9637294, -2.8071942, 0
1658, 1700879138, -0.36965182, 0.29133973, 0.10382263, -0.87618506, -0.44839656, 0.51981556, 2.4357672, 0
1659, 1700895805, -0.36808625, 0.29212034, 0.10211472, -0.87678474, -2.0584145, 3.032061, 0.5414963, 0
1661, 1700929139, -0.36450714, 0.2991249, 0.10080967, -0.8760691, -2.2526927, 4.2285566, -3.0276866, 0
1662, 1700945806, -0.36430436, 0.3008058, 0.10072293, -0.8755877, -1.6725279, 4.6448307, -2.5957913, 0
1663, 1700962473, -0.36492354, 0.2993598, 0.10033877, -0.8758696, -0.94553727, 4.2328, 3.3453054, 0
1665, 1700995807, -0.3632311, 0.30365792, 0.09859657, -0.87529105, -1.9592906, 3.3828785, 1.308939, 0
1666, 1701012474, -0.3611392, 0.30822456, 0.09692181, -0.8747472, -3.9296112, 4.448632, -6.2007284, 0
1670, 1701079142, -0.3616594, 0.30384982, 0.09469806, -0.8763053, 1.2762444, -4.583364, -0.1762991, 0
1671, 1701095809, -0.3627313, 0.29986164, 0.09592131, -0.8771025, -0.8842743, -3.2300315, -1.4222422, 0
1673, 1701129143, -0.36455163, 0.29264665, 0.09689743, -0.87867606, 0.46006453, -2.1861458, 1.011138, 0
1674, 1701145810, -0.3650538, 0.2911365, 0.09688869, -0.87897027, 2.756905, -4.845129, 2.8582983, 0
1675, 1701162477, -0.3654726, 0.28995216, 0.097017646, -0.8791733, 4.328051, -3.6400049, -1.0570564, 0
1677, 1701195811, -0.36739486, 0.2872969, 0.09603994, -0.8793511, 3.0445673, -3.8165092, 2.5210314, 0
1678, 1701212478, -0.3682973, 0.28706476, 0.09470625, -0.87919414, 3.190791, -5.6452727, -0.9081125, 0
1679, 1701229145, -0.3699119, 0.28758517, 0.09406279, -0.87841487, 3.583781, -6.4060326, 0.8177824, 0
1681, 1701262479, -0.37205344, 0.2903959, 0.091941595, -0.87680906, 2.9240606, -3.4561644, -0.71672535, 0
1683, 1701295813, -0.37386078, 0.29140908, 0.08957025, -0.8759489, 0.30852455, 0.04227496, -2.9628844, 0
1685, 1701329147, -0.37464482, 0.288369, 0.08333867, -0.87723434, 0.18334834, -2.0310738, 2.3544302, 0
1686, 1701345814, -0.3748349, 0.2866725, 0.080573484, -0.8779672, 1.696314, -1.6494707, 2.5030613, 0
1688, 1701379148, -0.3753181, 0.2855125, 0.07670216, -0.87848544, 0.6958004, -2.624546, -0.7704029, 0
1689, 1701395815, -0.3763704, 0.28338814, 0.07643996, -0.87874585, -0.28143814, 2.4007995, 1.6480303, 0
1690, 1701412482, -0.3773019, 0.28373078, 0.07602824, -0.8782712, 1.8809328, 0.5081133, -0.5140238, 0
1692, 1701445816, -0.38028458, 0.28718168, 0.07702668, -0.8757728, 1.9319807, -0.14821915, -0.92457676, 0
1693, 1701462483, -0.38239884, 0.2880141, 0.07837568, -0.8744581, 0.74458635, 1.2355088, 0.4079771, 0
1694, 1701479150, -0.38450786, 0.29008272, 0.08007119, -0.8726941, 0.79872555, 1.7850821, 0.37903786, 0
1696, 1701512484, -0.38864654, 0.29223523, 0.08343393, -0.869823, 0.6879312, 0.37685648, -1.0255766, 0
1700, 1701579152, -0.39292204, 0.29546463, 0.08725281, -0.8664299, -0.4799915, 0.69738436, 0.1762209, 0
1701, 1701595819, -0.39317566, 0.29484528, 0.08834361, -0.8664152, -2.622451, 2.0830603, 0.43969345, 0
1702, 1701612486, -0.39275274, 0.29523227, 0.088805795, -0.8664279, -2.0061336, 0.5863773, -2.044022, 0
1704, 1701645820, -0.3907712, 0.29676455, 0.08902008, -0.86677843, -0.18337095, -0.2732229, 1.1302519, 0
1705, 1701662487, -0.38998023, 0.29675832, 0.0900053, -0.86703515, -0.6998402, 0.70665705, 0.12607384, 0
1706, 1701679154, -0.38897067, 0.29659075, 0.090866506, -0.8674559, -2.2816217, 1.4358395, -0.32412434, 0
1708, 1701712488, -0.38628507, 0.295532, 0.09216501, -0.8688792, -0.12922578, -1.24338, 0.29590988, 0
1709, 1701729155, -0.385095, 0.29492772, 0.0924431, -0.8695829, 0.49046242, -1.8884324, 2.9195824, 0
1710, 1701745822, -0.38379526, 0.29541984, 0.09280176, -0.8699522, 0.38294783, -2.2152762, 0.8514519, 0
1713, 1701795823, -0.3805162, 0.29644445, 0.09425076, -0.87088794, -0.071924515, 0.5580922, -0.52018166, 0
1716, 1701845824, -0.37859356, 0.29603997, 0.09593842, -0.8716788, -1.151624, -1.2414856, -0.8720856, 0
1717, 1701862491, -0.37769142, 0.29654226, 0.0962227, -0.87186795, -0.6910518, -1.0648776, -2.2599444, 0
1719, 1701895825, -0.37731552, 0.2970859, 0.09750628, -0.8717031, -0.58548564, 0.86974686, 2.4404507, 0
1720, 1701912492, -0.37683353, 0.29625985, 0.09827864, -0.8721057, 0.54103947, 0.29371434, 0.9710064, 0
1721, 1701929159, -0.3761466, 0.29638085, 0.09913266, -0.87226456, 0.21069005, -0.9364878, 1.4040585, 0
1723, 1701962493, -0.37539664, 0.29697162, 0.10089369, -0.87218493, -1.0616109, -1.9337626, -0.89601517, 0
1724, 1701979160, -0.37486297, 0.29766923, 0.10159714, -0.87209475, -1.0512847, 0.41166827, -0.5114708, 0
1725, 1701995827, -0.37443507, 0.29745293, 0.10234867, -0.87226444, 1.0489413, 0.56883085, 0.57493687, 0
1728, 1702045828, -0.3716048, 0.297054, 0.102342844, -0.8736107, -0.4589596, -1.5126048, -0.12869263, 0
1729, 1702062495, -0.37016568, 0.29655346, 0.101869054, -0.87444663, -0.9958575, -1.0769945, 0.07794762, 0
1732, 1702112496, -0.36687356, 0.29456708, 0.100750916, -0.87663215, -1.1548516, 1.6052529, -1.7418251, 0
1733, 1702129163, -0.36626068, 0.29305804, 0.1004103, -0.8774329, 0.42513713, -0.08447471, 1.6796837, 0
1735, 1702162497, -0.3648204, 0.2917847, 0.099920265, -0.87851274, 0.71132386, -1.2612119, 2.5558624, 0
1736, 1702179164, -0.3643329, 0.2920155, 0.099578165, -0.8786771, -1.4096769, 0.44745952, -2.447235, 0
1737, 1702195831, -0.36400035, 0.29260293, 0.09920173, -0.8786621, -0.7698241, -0.26451698, -0.45198727, 0
1739, 1702229165, -0.36383334, 0.29219633, 0.098183475, -0.8789808, 1.7529606, -0.0022988308, 1.0583286, 0
1740, 1702245832, -0.36386034, 0.29216418, 0.097698234, -0.87903446, 0.7212195, 1.269657, 0.043219566, 0
1743, 1702295833, -0.3642166, 0.29076272, 0.0962222, -0.8795144, -0.43527487, 1.1758318, -1.2223911, 0
1744, 1702312500, -0.36435768, 0.29094124, 0.09573216, -0.87945026, 0.6855927, -0.6024196, 0.17282963, 0
1746, 1702345834, -0.3652285, 0.29079652, 0.09586455, -0.8791225, 0.5965023, -0.06292683, 0.37626743, 0
1748, 1702379168, -0.36667785, 0.29123613, 0.09739611, -0.8782048, -0.8037231, 0.66425437, -0.6932926, 0
1750, 1702412502, -0.36797366, 0.29178107, 0.097572386, -0.8774621, 0.24462174, 1.3577163, -1.5695953, 0
1751, 1702429169, -0.3686552, 0.29178658, 0.09785076, -0.877143, 1.86318, -2.7101607, 1.1877527, 0
1752, 1702445836, -0.36914963, 0.29124838, 0.0975696, -0.8771454, 1.4792795, -1.7532003, -0.55270195, 0
1754, 1702479170, -0.36958432, 0.2905428, 0.098021746, -0.8771457, 2.720027, -7.092731, 0.34705544, 0
1755, 1702495837, -0.36968812, 0.2910533, 0.09781817, -0.87695545, -1.61774, 1.2989196, -2.6308837, 0
1758, 1702545838, -0.36971873, 0.29162836, 0.09752895, -0.8767837, -3.2969255, 6.5964746, -2.7925177, 0
1759, 1702562505, -0.37007836, 0.2893805, 0.09847151, -0.8772714, 2.4456458, -3.143989, 4.4789352, 0
1760, 1702579172, -0.36943436, 0.2912067, 0.09800935, -0.87699014, 3.1393514, -7.754616, -3.3036609, 0
1762, 1702612506, -0.36914405, 0.29081553, 0.09853334, -0.8771835, 4.526318, -9.373633, 3.6531868, 0
1763, 1702629173, -0.36830992, 0.2926671, 0.09807104, -0.8769702, 1.9259783, -6.4101267, -1.7662363, 0
1764, 1702645840, -0.3680842, 0.2933165, 0.09814753, -0.8768395, -4.453254, 8.208211, -3.0088558, 0
1766, 1702679174, -0.3671909, 0.29359, 0.09845435, -0.877088, -0.60261834, 1.6893194, -2.2723699, 0
1767, 1702695841, -0.3669696, 0.29317063, 0.09900095, -0.8772593, -0.7187515, 1.4846299, 2.2558594, 0
1769, 1702729175, -0.3658897, 0.2941442, 0.09875141, -0.8774125, -4.5659256, 8.241589, -2.833219, 0
1770, 1702745842, -0.3655931, 0.29275283, 0.09945511, -0.877922, 3.2919185, -6.946363, 5.990364, 0
1773, 1702795843, -0.36319253, 0.2935007, 0.09844692, -0.87878186, 5.6116524, -10.150435, 2.509327, 0
1774, 1702812510, -0.3625589, 0.29394644, 0.09817727, -0.8789246, -0.42197272, 0.6467614, -1.9645767, 0
1775, 1702829177, -0.3621236, 0.29337105, 0.09784135, -0.8793335, 0.09326103, -1.7904457, -0.57232094, 0
1778, 1702879178, -0.3613726, 0.29091936, 0.09770846, -0.8804711, -1.1090226, 0.76516217, -1.6987534, 0
1779, 1702895845, -0.36132452, 0.2899291, 0.09784105, -0.88080287, 1.9130975, -2.4748127, 2.0034733, 0
1781, 1702929179, -0.36134, 0.29009846, 0.097800605, -0.8807453, -2.8904567, 4.965276, -2.938991, 0
1782, 1702945846, -0.36155677, 0.28909048, 0.09827667, -0.88093466, 2.6666634, -2.9544768, 2.8921766, 0
1783, 1702962513, -0.3616655, 0.28890944, 0.09818237, -0.88096, 3.8083827, -5.9771776, -0.1123724, 0
1785, 1702995847, -0.3618673, 0.28905705, 0.09768076, -0.8808844, 1.6985644, -1.9414796, 2.022027, 0
1787, 1703029181, -0.36182594, 0.28913778, 0.09701982, -0.8809478, 1.8685611, -6.0305605, -2.2138786, 0
1789, 1703062515, -0.36217576, 0.28754273, 0.0964807, -0.8813854, 1.7632213, -1.0696368, 1.3052874, 0
1790, 1703079182, -0.36262977, 0.28776786, 0.09648041, -0.88112515, 4.430687, -7.295932, 0.8267107, 0
1791, 1703095849, -0.36294377, 0.28790596, 0.0961749, -0.8809842, 0.67849094, -3.5912294, -1.2568331, 0
1794, 1703145850, -0.36395413, 0.2874328, 0.09573816, -0.88076943, 3.4039302, -5.2275453, 0.7417984, 0
1796, 1703179184, -0.36393425, 0.28833166, 0.095368624, -0.88052374, 1.2361531, -1.668449, -0.32725525, 0
1797, 1703195851, -0.3642802, 0.2887575, 0.095391676, -0.88023865, 2.2788558, -3.2028859, 0.27585983, 0
1798, 1703212518, -0.36437553, 0.2900675, 0.09513879, -0.8797958, 3.1612465, -5.8529344, -1.23633, 0
1800, 1703245852, -0.36486715, 0.29116172, 0.09493885, -0.87925196, 0.76438963, 1.2209138, 0.65113926, 0
1802, 1703279186, -0.36538202, 0.29238278, 0.095134996, -0.8786117, 1.6242541, -4.6747456, -0.8672018, 0
1804, 1703312520, -0.36587867, 0.29342762, 0.09498554, -0.8780726, 1.1230481, -1.205933, -0.5703869, 0
1805, 1703329187, -0.36660352, 0.29327923, 0.095186085, -0.877798, 0.50997525, 0.46038666, 0.6365013, 0
1806, 1703345854, -0.3670764, 0.29307172, 0.09545286, -0.87764084, 2.7263393, -5.5618715, 1.127573, 0
1808, 1703379188, -0.36708164, 0.2937086, 0.09554333, -0.8774158, -0.16391832, -1.0910498, -1.6822615, 0
1810, 1703412522, -0.36756656, 0.29309618, 0.09577908, -0.877392, 0.33708724, 0.9085123, 0.7069664, 0
1812, 1703445856, -0.36734566, 0.2924853, 0.09574882, -0.8776915, 0.0792083, -2.0642245, -0.16755104, 0
1813, 1703462523, -0.36714694, 0.29200804, 0.09567503, -0.87794167, -0.49533466, -1.3049431, -1.4782648, 0
1814, 1703479190, -0.3670777, 0.2912069, 0.09548027, -0.8782578, -1.6845073, 1.9203893, -1.4101543, 0
1817, 1703529191, -0.36586848, 0.28941956, 0.09570132, -0.8793285, 1.368105, -4.341298, 0.3223133, 0
1818, 1703545858, -0.36522835, 0.2892372, 0.09553668, -0.87967235, -0.050763562, -2.3377864, -1.8817444, 0
1820, 1703579192, -0.3640517, 0.28775492, 0.095283784, -0.8806733, 1.6113052, -1.4254557, 1.3940248, 0
1821, 1703595859, -0.36384064, 0.28684714, 0.09542646, -0.88104093, 2.0127416, -3.2393203, 2.0410624, 0
1824, 1703645860, -0.3623802, 0.2856787, 0.09503826, -0.88206404, 0.31012836, -2.1198394, -2.3511667, 0
1825, 1703662527, -0.36196133, 0.2856389, 0.09467178, -0.8822881, 0.7502, -0.5597397, -1.1291866, 0
1828, 1703712528, -0.36153698, 0.28258157, 0.09440783, -0.8834742, 2.0863032, -4.530801, 1.0087566, 0
1829, 1703729195, -0.36082986, 0.28217083, 0.094205305, -0.883916, 0.9443272, -4.446308, -1.4596167, 0
1832, 1703779196, -0.35888302, 0.2815222, 0.09226517, -0.8851193, 1.9148775, -1.052332, -0.33202648, 0
1833, 1703795863, -0.35850906, 0.28078258, 0.09164057, -0.8855707, 1.6896306, -0.9233322, -0.07637119, 0
1835, 1703829197, -0.3579348, 0.27831578, 0.09056165, -0.88669175, 0.41477445, -1.5136625, 0.29466534, 0
1836, 1703845864, -0.35760942, 0.27755654, 0.09013322, -0.8871047, 0.30514428, -2.9349697, -0.20827389, 0
1837, 1703862531, -0.35721874, 0.27710578, 0.08964834, -0.88745207, 0.74683356, -2.5513701, 0.3906622, 0
1839, 1703895865, -0.35649705, 0.27721387, 0.08880796, -0.8877929, 2.0907693, -2.3915572, -0.7578316, 0
1840, 1703912532, -0.35637316, 0.276817, 0.08847177, -0.8880001, 2.347293, -2.6749687, -0.16847324, 0
1841, 1703929199, -0.3561873, 0.27653438, 0.08784409, -0.88822496, 1.6215774, -1.582873, -1.3308887, 0
1843, 1703962533, -0.35619807, 0.27534184, 0.08659068, -0.8887141, 1.3060199, -2.166809, -0.16948986, 0
1844, 1703979200, -0.35621363, 0.274806, 0.08589797, -0.88894075, 0.81674135, -2.3760917, 0.382226, 0
1847, 1704029201, -0.3560188, 0.27365348, 0.0834714, -0.88960534, 2.2419302, -3.2458744, 0.4156723, 0
1848, 1704045868, -0.3559362, 0.27328333, 0.08258783, -0.8898347, 1.9120528, -2.7319057, -0.17213249, 0
1850, 1704079202, -0.35582697, 0.27236155, 0.08099643, -0.8903072, 1.607281, -2.7871828, -0.24747753, 0
1851, 1704095869, -0.35579318, 0.27234805, 0.080544665, -0.8903657, 1.1617045, -3.1809547, -0.68744564, 0
1852, 1704112536, -0.35577422, 0.2722953, 0.07995764, -0.8904422, 1.4412705, -3.8955173, -0.28980827, 0
1854, 1704145870, -0.3556671, 0.2722629, 0.079009384, -0.8905796, 1.6548395, -2.634215, 0.6719732, 0
