sep=,
DeviceTag:,Xsens_DOT_4,,,,,,,,,,,,,,,,,
FirmwareVersion:,3.0.0,,,,,,,,,,,,,,,,,
AppVersion:,2023.6.1,,,,,,,,,,,,,,,,,
SyncStatus:,Synced,,,,,,,,,,,,,,,,,
OutputRate:,60Hz,,,,,,,,,,,,,,,,,
FilterProfile:,General,,,,,,,,,,,,,,,,,
Measurement Mode:,Sensor fusion Mode - Extended (Quaternion),,,,,,,,,,,,,,,,,
StartTime:,2025-05-05 11:34:40.245 +0200,,,,,,,,,,,,,,,,,
 2025,,,,,,,,,,,,,,,,,,,

PacketCounter,SampleTimeFine,Quat_W,Quat_X,Quat_Y,Quat_Z,FreeAcc_X,FreeAcc_Y,FreeAcc_Z,Status
1, 1673261919, 0.6066953, 0.44104722, -0.4941658, 0.43953788, -0.059077602, -0.12037156, 0.05512619, 0
2, 1673278586, 0.6067259, 0.44102445, -0.49416432, 0.4395202, -0.0957049, -0.114676006, 0.09812069, 0
3, 1673295253, 0.6066653, 0.44111174, -0.49406385, 0.43962896, -0.107387245, -0.07903463, 0.095659256, 0
4, 1673311920, 0.6066901, 0.44111398, -0.49403396, 0.43962613, -0.09014478, -0.072759055, 0.082268715, 0
5, 1673328587, 0.60672253, 0.44110054, -0.49401897, 0.43961164, -0.053433232, -0.12289793, 0.062600136, 0
6, 1673345254, 0.6067304, 0.4411147, -0.49397492, 0.43963614, -0.07355588, -0.15406145, 0.043470383, 0
7, 1673361921, 0.606762, 0.44112867, -0.49393624, 0.439622, -0.1028287, -0.11830921, 0.059473038, 0
8, 1673378588, 0.6067948, 0.44112992, -0.49390244, 0.43961334, -0.052750845, -0.11733246, 0.076171875, 0
9, 1673395255, 0.60682714, 0.44112784, -0.49387625, 0.43960038, -0.0677461, -0.091781124, 0.07526207, 0
10, 1673411922, 0.60687333, 0.44111735, -0.493864, 0.4395609, -0.093898684, -0.10386826, 0.04592228, 0
11, 1673428589, 0.6069117, 0.44113278, -0.49383777, 0.4395219, -0.11963374, -0.08100825, 0.04902363, 0
12, 1673445256, 0.60697156, 0.4411296, -0.49382192, 0.43946016, -0.03644808, -0.10844891, 0.091207504, 0
13, 1673461923, 0.60702604, 0.44111833, -0.49380305, 0.43941733, -0.020059394, -0.14816204, 0.04859829, 0
14, 1673478590, 0.60706663, 0.441126, -0.4937598, 0.439402, -0.122606464, -0.086521864, 0.046567917, 0
15, 1673495257, 0.6071398, 0.44111198, -0.49374527, 0.43933147, -0.11018988, -0.073574655, 0.072553635, 0
16, 1673511924, 0.60719794, 0.44112062, -0.4937103, 0.4392817, -0.048919387, -0.124123, 0.08885956, 0
17, 1673528591, 0.6072672, 0.4411043, -0.4936992, 0.43921492, -0.0597772, -0.101779304, 0.09045124, 0
18, 1673545258, 0.6073145, 0.44112507, -0.4936624, 0.4391699, -0.11954233, -0.105760746, 0.056495667, 0
19, 1673561925, 0.607385, 0.44113326, -0.49362546, 0.43910575, -0.0861705, -0.098224334, 0.046219826, 0
20, 1673578592, 0.60742855, 0.4411613, -0.49357808, 0.43907052, -0.0025248025, -0.12077612, 0.06953907, 0
21, 1673595259, 0.60752344, 0.44111863, -0.49358633, 0.4389729, -0.08318258, -0.14536679, 0.042921066, 0
22, 1673611926, 0.6075666, 0.4411572, -0.49353364, 0.4389338, -0.12746385, -0.1177464, 0.095134735, 0
23, 1673628593, 0.6076271, 0.44120583, -0.49347353, 0.4388688, -0.076856494, -0.17302294, 0.1500206, 0
24, 1673645260, 0.6077008, 0.44126156, -0.49339986, 0.43879348, -0.005158593, -0.17800866, 0.03414154, 0
25, 1673661927, 0.6077816, 0.4413271, -0.49332586, 0.43869895, -0.04802422, -0.18199028, 0.0061073303, 0
26, 1673678594, 0.6078722, 0.44141412, -0.4932272, 0.43859658, -0.08976906, -0.20461918, 0.05719185, 0
27, 1673695261, 0.6080011, 0.4414968, -0.49312156, 0.43845353, -0.07436008, -0.22230263, 0.10597229, 0
28, 1673711928, 0.6081424, 0.4415872, -0.4930066, 0.43829572, -0.013248283, -0.20539522, 0.06332874, 0
29, 1673728595, 0.6082678, 0.4416919, -0.49287176, 0.43816787, -0.04274216, -0.15509318, 0.046069145, 0
30, 1673745262, 0.60838485, 0.4417859, -0.49277452, 0.4380202, -0.09038283, -0.08969866, 0.07624817, 0
31, 1673761929, 0.60848236, 0.44187132, -0.4926653, 0.43792117, -0.11618427, -0.09534683, 0.074790955, 0
32, 1673778596, 0.60857666, 0.44192407, -0.49260402, 0.43780574, -0.12168202, -0.05594574, 0.078858376, 0
33, 1673795263, 0.60866445, 0.4419563, -0.49255124, 0.43771058, -0.16547245, -0.056600187, 0.0790472, 0
34, 1673811930, 0.60873824, 0.44197217, -0.49249995, 0.43764976, -0.11688029, -0.052072708, 0.081531525, 0
35, 1673828597, 0.6088051, 0.4419601, -0.49248216, 0.4375888, -0.08830773, -0.07874607, 0.062491417, 0
36, 1673845264, 0.60888404, 0.44191715, -0.4924856, 0.43751854, -0.12685925, -0.051104896, 0.053625107, 0
37, 1673861931, 0.60892844, 0.44190633, -0.49247792, 0.4374763, -0.13439006, -0.084338225, 0.07125664, 0
38, 1673878598, 0.608988, 0.44186684, -0.4924765, 0.43743497, -0.091758326, -0.075104825, 0.12458801, 0
39, 1673895265, 0.60904217, 0.44183072, -0.49246883, 0.4374046, -0.096250266, -0.1169735, 0.08777428, 0
40, 1673911932, 0.6090412, 0.44186127, -0.49242565, 0.4374238, -0.15878807, -0.14009814, 0.0417881, 0
41, 1673928599, 0.6090753, 0.44185752, -0.49240297, 0.43740565, -0.091543086, -0.10667759, 0.07030964, 0
42, 1673945266, 0.6091023, 0.44184452, -0.49240905, 0.43737426, -0.03222051, -0.12432841, 0.08308411, 0
43, 1673961933, 0.609124, 0.4418215, -0.492402, 0.43737528, -0.13382168, -0.13325506, 0.0632, 0
44, 1673978600, 0.6091132, 0.44183937, -0.49235722, 0.4374226, -0.13725618, -0.11205062, 0.10391331, 0
45, 1673995267, 0.6091361, 0.44180682, -0.49236685, 0.4374127, -0.07958648, -0.114673994, 0.051995277, 0
46, 1674011934, 0.60912395, 0.44180563, -0.4923483, 0.4374517, -0.041738585, -0.08801068, 0.04590702, 0
47, 1674028601, 0.609133, 0.44177386, -0.49235767, 0.43746063, -0.043581225, -0.11168071, 0.02993679, 0
48, 1674045268, 0.6091067, 0.44180086, -0.4923255, 0.43750626, -0.100031435, -0.08453014, 0.06737137, 0
49, 1674061935, 0.60911965, 0.44181636, -0.49229366, 0.43750855, -0.028969787, -0.12641044, 0.11933994, 0
50, 1674078602, 0.6091472, 0.4418367, -0.4922519, 0.43749663, -0.08029837, -0.1293541, 0.03419113, 0
51, 1674095269, 0.6091854, 0.44186777, -0.49221689, 0.43745148, -0.13839811, -0.09317696, 0.015748024, 0
52, 1674111936, 0.60921144, 0.44192517, -0.4921668, 0.43741333, -0.073640145, -0.09061506, 0.07872105, 0
53, 1674128603, 0.6092855, 0.44195688, -0.49211904, 0.43733206, 0.03463646, -0.10398694, 0.08815479, 0
54, 1674145270, 0.60934675, 0.44199213, -0.49206805, 0.43726838, 0.06835876, -0.14337552, 0.055867195, 0
55, 1674161937, 0.6094289, 0.44202262, -0.49202633, 0.4371703, -0.020043524, -0.1373999, 0.041150093, 0
56, 1674178604, 0.6095079, 0.44208547, -0.49195966, 0.43707132, -0.060398564, -0.124380045, 0.089390755, 0
57, 1674195271, 0.6096261, 0.44213155, -0.49190283, 0.4369238, -0.041030496, -0.1629975, 0.10682392, 0
58, 1674211938, 0.6097551, 0.442201, -0.491824, 0.43676233, -0.019005753, -0.18736465, 0.09305382, 0
59, 1674228605, 0.609917, 0.44229463, -0.49171898, 0.4365598, -0.023935555, -0.16315372, 0.05915928, 0
60, 1674245272, 0.61005616, 0.4424701, -0.49154705, 0.4363812, 0.019031681, -0.13720655, 0.07416153, 0
61, 1674261939, 0.6102199, 0.44262752, -0.4913859, 0.43617383, 0.03723301, -0.11273703, 0.05727768, 0
62, 1674278606, 0.61039907, 0.44277623, -0.491231, 0.4359466, -0.123798184, -0.10360813, 0.039177895, 0
63, 1674295273, 0.61056364, 0.44292423, -0.49107987, 0.43573618, -0.19190286, -0.0021452773, 0.093990326, 0
64, 1674311940, 0.6107144, 0.44308555, -0.49090487, 0.43555802, -0.118307196, -0.0070529515, 0.08934307, 0
65, 1674328607, 0.61085415, 0.44321573, -0.49077353, 0.4353774, -0.07443451, 9.6870516E-4, 0.038677216, 0
66, 1674345274, 0.6109739, 0.44331586, -0.49066558, 0.43522918, -0.07779369, 0.042443324, 0.10500145, 0
67, 1674361941, 0.61109406, 0.44336638, -0.49059373, 0.43509015, -0.06782232, 0.04116572, 0.040911674, 0
68, 1674378608, 0.6112035, 0.44334817, -0.49057442, 0.43497658, -0.084253654, 0.08011509, 0.029726028, 0
69, 1674395275, 0.6111888, 0.44339195, -0.49050674, 0.43502882, -0.14102192, 0.10551823, 0.06403828, 0
70, 1674411942, 0.6111521, 0.44341317, -0.49047574, 0.43509364, -0.15719911, 0.09506296, 0.11172104, 0
71, 1674428609, 0.61111844, 0.44335213, -0.4904969, 0.4351793, -0.17339063, 0.044551495, 0.032039642, 0
72, 1674445276, 0.6110708, 0.44324878, -0.49055457, 0.4352865, -0.1602333, 0.021181876, 0.03959465, 0
73, 1674461943, 0.6109927, 0.44310966, -0.49065644, 0.435423, -0.069553435, -0.032229226, 0.109674454, 0
74, 1674478610, 0.6109197, 0.44292724, -0.49079427, 0.43555573, -0.1041709, -0.0956578, 0.055423737, 0
75, 1674495277, 0.610811, 0.44277573, -0.4909117, 0.4357297, -0.12336283, -0.1219366, 0.05255413, 0
76, 1674511944, 0.6106774, 0.44265258, -0.4910137, 0.43592712, -0.043327987, -0.15098256, 0.075372696, 0
77, 1674528611, 0.6105566, 0.44250962, -0.49111605, 0.43612623, -0.0050987774, -0.1856512, 0.0707674, 0
78, 1674545278, 0.61047006, 0.44235137, -0.49124584, 0.43626165, -0.06340325, -0.117555074, 0.056199074, 0
79, 1674561945, 0.6104104, 0.442222, -0.49133635, 0.43637446, -0.09305001, -0.12690842, 0.109926224, 0
80, 1674578612, 0.61034036, 0.44214377, -0.49138477, 0.43649703, -0.027007071, -0.14334892, 0.04481125, 0
81, 1674595279, 0.61029536, 0.442067, -0.4914276, 0.4365896, 0.027838092, -0.13965984, 0.0047883987, 0
82, 1674611946, 0.61023384, 0.44204596, -0.4914427, 0.43667984, -0.01849078, -0.13205704, 0.008892059, 0
83, 1674628613, 0.6102471, 0.44200385, -0.49147028, 0.43667284, -0.030593112, -0.15042488, 0.117489815, 0
84, 1674645280, 0.6103202, 0.44195706, -0.49149653, 0.43658844, 0.05267016, -0.20680581, 0.11191368, 0
85, 1674661947, 0.61038, 0.4419813, -0.49145576, 0.43652606, -0.05268424, -0.18786956, -0.0059318542, 0
86, 1674678614, 0.61042017, 0.44207942, -0.4913544, 0.4364848, -0.108657695, -0.1548357, 0.04576683, 0
87, 1674695281, 0.61050355, 0.44213817, -0.49129575, 0.43637478, -0.041575607, -0.17658989, 0.10766697, 0
88, 1674711948, 0.6106073, 0.44217762, -0.49123877, 0.43625376, -0.04412861, -0.22094345, 0.090789795, 0
89, 1674728615, 0.61065364, 0.4422443, -0.49117985, 0.43618765, -0.037601136, -0.20162322, 0.0365963, 0
90, 1674745282, 0.61075854, 0.44222364, -0.4912049, 0.4360334, -0.06566252, -0.19695157, 0.13586903, 0
91, 1674761949, 0.61084044, 0.44224274, -0.49116933, 0.43593937, -0.034530517, -0.14678878, 0.15784168, 0
92, 1674778616, 0.61089027, 0.44230393, -0.49109155, 0.435895, -0.05468781, -0.1264737, 0.04932785, 0
93, 1674795283, 0.61091614, 0.44235447, -0.49102163, 0.43588614, -0.07712828, -0.076404326, 0.024747849, 0
94, 1674811950, 0.61097866, 0.4423208, -0.49102685, 0.43582708, -0.06870274, -0.045094185, 0.112662315, 0
95, 1674828617, 0.6110178, 0.44229403, -0.4910295, 0.4357963, -0.059970316, -0.09796796, 0.067173004, 0
96, 1674845284, 0.6110504, 0.44226557, -0.49104083, 0.4357668, -0.079242274, -0.077960424, 0.026212692, 0
97, 1674861951, 0.611082, 0.4422428, -0.4910322, 0.43575528, -0.05055103, -0.05062278, 0.047234535, 0
98, 1674878618, 0.61110836, 0.44221526, -0.49103254, 0.4357458, -0.035518892, -0.046367317, 0.07758427, 0
99, 1674895285, 0.61114323, 0.44218042, -0.49104533, 0.43571776, -0.05853453, -0.022325592, 0.12000847, 0
100, 1674911952, 0.61116046, 0.44216678, -0.49103436, 0.43571973, -0.097260095, -0.07511891, -0.008765221, 0
101, 1674928619, 0.6112128, 0.44213292, -0.4910459, 0.4356677, -0.12920927, 0.022183884, 0.03862381, 0
102, 1674945286, 0.6112218, 0.44212648, -0.4910445, 0.43566322, -0.080407895, -0.008896486, 0.13146019, 0
103, 1674961953, 0.6112362, 0.44208595, -0.4910654, 0.4356605, -0.08471499, -0.0050006555, 0.13474274, 0
104, 1674978620, 0.6112427, 0.4420369, -0.49107262, 0.4356931, -0.11925422, 0.008645928, 0.024781227, 0
105, 1674995287, 0.6112105, 0.44198203, -0.4911069, 0.43575537, -0.09224648, 0.058945507, -0.009684563, 0
106, 1675011954, 0.61113507, 0.44190848, -0.49116698, 0.43586826, -0.06514799, 0.04495516, 0.1065073, 0
107, 1675028621, 0.6110628, 0.4418156, -0.49123654, 0.435985, -0.118363746, -0.021789383, 0.09556961, 0
108, 1675045288, 0.6110208, 0.44174337, -0.49127454, 0.43607426, -0.1285727, -0.055828173, -3.4236908E-4, 0
109, 1675061955, 0.6109787, 0.44170365, -0.49129432, 0.43615136, -0.014447877, -0.055350523, 0.020069122, 0
110, 1675078622, 0.6109346, 0.44165966, -0.49131557, 0.43623367, 0.055828843, -0.06346561, 0.10707188, 0
111, 1675095289, 0.6109148, 0.44155544, -0.4913929, 0.43627983, -0.06484996, -0.12097002, 0.0611763, 0
112, 1675111956, 0.61083, 0.44153094, -0.4913983, 0.43641716, -0.18844691, -0.14443697, 0.06411648, 0
113, 1675128623, 0.6108094, 0.44142896, -0.4914666, 0.4364723, -0.14591642, -0.1346688, 0.13123798, 0
114, 1675145290, 0.6107393, 0.44132465, -0.49152488, 0.43661022, -0.047263827, -0.1860095, 0.05831051, 0
115, 1675161957, 0.610643, 0.44118378, -0.49163708, 0.43676093, -0.07116876, -0.23024383, -0.024499893, 0
116, 1675178624, 0.6105151, 0.44104204, -0.49177158, 0.4369314, -0.18213221, -0.20474078, 0.12718773, 0
117, 1675195291, 0.6104193, 0.44085366, -0.49191865, 0.43708998, -0.2518591, -0.19968535, 0.15211773, 0
118, 1675211958, 0.61027765, 0.4406728, -0.49205437, 0.43731722, -0.17451802, -0.18206851, 0.08421421, 0
119, 1675228625, 0.6100849, 0.44042912, -0.49225837, 0.43760195, -0.0027054008, -0.14597139, 0.096364975, 0
120, 1675245292, 0.6098413, 0.4401336, -0.4925116, 0.43795395, -0.055482622, -0.11426161, 0.100562096, 0
121, 1675261959, 0.6096008, 0.43981314, -0.49276602, 0.43832433, -0.16033098, -0.023054244, 0.17682266, 0
122, 1675278626, 0.6093584, 0.4395361, -0.49297017, 0.43870953, -0.09116602, 0.0029369602, 0.12979126, 0
123, 1675295293, 0.60914725, 0.4392565, -0.49316576, 0.43906277, 0.028654361, 0.0023073242, -0.06783867, 0
124, 1675311960, 0.6089484, 0.43901178, -0.49334678, 0.43937966, 5.363989E-4, 0.0099949, -0.102599144, 0
125, 1675328627, 0.6087788, 0.43879607, -0.49351382, 0.43964255, -0.013242025, -0.019330071, 0.06980133, 0
126, 1675345294, 0.6086375, 0.43860266, -0.49366832, 0.4398575, 0.09065015, -0.08254691, 0.12041092, 0
127, 1675361961, 0.6084884, 0.43847156, -0.49375537, 0.4400969, 0.13999733, -0.10659623, 0.083844185, 0
128, 1675378628, 0.608389, 0.43830475, -0.49386185, 0.44028106, 0.07123067, -0.07999037, 3.1852722E-4, 0
129, 1675395295, 0.60829186, 0.43814647, -0.49397466, 0.44044638, 0.014480958, -0.0039693667, 0.040267944, 0
130, 1675411962, 0.60823214, 0.43800667, -0.49407884, 0.4405509, -0.06563659, -0.03309199, -0.032239914, 0
131, 1675428629, 0.6081645, 0.43792024, -0.49414918, 0.44065124, -0.04188834, -0.015128475, 0.034352303, 0
132, 1675445296, 0.60811657, 0.43780118, -0.4942481, 0.44072482, 0.10398426, -0.05278236, 0.11553478, 0
133, 1675461963, 0.60802907, 0.43770763, -0.49432677, 0.44085023, -0.0217344, -0.09131577, 0.075499535, 0
134, 1675478630, 0.6079657, 0.43761775, -0.49440205, 0.44094238, -0.07564505, -0.06551477, 0.1280098, 0
135, 1675495297, 0.6079165, 0.43755513, -0.4944482, 0.44102058, 0.0195585, -0.096704446, 0.04522991, 0
136, 1675511964, 0.6078768, 0.43749475, -0.494471, 0.44110966, 0.014873224, -0.03534891, 0.038176537, 0
137, 1675528631, 0.60790336, 0.43739852, -0.49454823, 0.44108188, -0.07589405, 0.031148765, 0.0863657, 0
138, 1675545298, 0.6079326, 0.43736374, -0.49454743, 0.44107676, -0.106045276, -0.06074523, 0.10607052, 0
139, 1675561965, 0.60793835, 0.43739516, -0.49449328, 0.4410986, -0.076559894, -0.098359555, 0.0058517456, 0
140, 1675578632, 0.60796183, 0.4374155, -0.49445742, 0.44108617, -0.059413992, -0.12415474, 0.04679203, 0
141, 1675595299, 0.60797495, 0.4374483, -0.4944117, 0.44108674, -0.12507159, -0.16431935, 0.0712595, 0
142, 1675611966, 0.607989, 0.43747953, -0.49437723, 0.44107506, -0.20375575, -0.15449774, 0.08997536, 0
143, 1675628633, 0.6080045, 0.43748108, -0.49434915, 0.44108355, -0.10934477, -0.14278656, 0.15051079, 0
144, 1675645300, 0.60798126, 0.43741888, -0.49438903, 0.44113284, -0.06635541, -0.15810993, 0.10706043, 0
145, 1675661967, 0.60792524, 0.4373124, -0.4944747, 0.44121927, -0.19872917, -0.16195212, 0.0043058395, 0
146, 1675678634, 0.607822, 0.43720368, -0.49456325, 0.44137028, -0.16252007, -0.09630503, 0.123306274, 0
147, 1675695301, 0.6077005, 0.4370414, -0.4946801, 0.44156727, -0.035524257, -0.1095618, 0.15568638, 0
148, 1675711968, 0.60756737, 0.43679616, -0.49484956, 0.441803, -0.02810005, -0.1042308, -0.003686905, 0
149, 1675728635, 0.6073644, 0.4365799, -0.4950149, 0.44211057, -0.11089466, -0.018622205, -0.03325081, 0
150, 1675745302, 0.60716563, 0.43634868, -0.49520138, 0.44240314, -0.14972976, 0.007771322, 0.07386875, 0
151, 1675761969, 0.60699517, 0.43606025, -0.49542588, 0.4426699, -0.09979563, 0.011684587, 0.18245506, 0
152, 1675778636, 0.6067956, 0.43579495, -0.49562097, 0.44298625, -0.03666261, -0.03912013, 0.09504223, 0
153, 1675795303, 0.606604, 0.43551645, -0.49584135, 0.44327593, 0.015819352, 0.0028596248, -0.071372986, 0
154, 1675811970, 0.6063855, 0.43523502, -0.49609193, 0.44357088, 0.040910248, 0.032285776, 0.021998405, 0
155, 1675828637, 0.6061621, 0.43495828, -0.49631062, 0.4439031, -0.035907134, 0.04652668, 0.14516354, 0
156, 1675845304, 0.6059189, 0.43473637, -0.49646378, 0.44428048, -0.10259289, 0.067572884, 0.11071205, 0
157, 1675861971, 0.60571873, 0.4345034, -0.49663964, 0.44458482, -0.032148093, 0.025363132, -0.060980797, 0
158, 1675878638, 0.6055498, 0.4342612, -0.49682412, 0.44484547, 0.094256304, 0.028187666, -0.00493145, 0
159, 1675895305, 0.60537815, 0.4340448, -0.4970122, 0.44508016, 0.12370258, -0.008153305, 0.05927372, 0
160, 1675911972, 0.6052548, 0.43387243, -0.49714634, 0.44526616, 0.03423861, -0.010552047, 0.014497757, 0
161, 1675928639, 0.6051477, 0.43378484, -0.49721935, 0.44541547, 0.052789923, -0.0064600306, 0.06604576, 0
162, 1675945306, 0.6050829, 0.4337075, -0.497267, 0.4455257, 0.10349298, -0.02754976, 0.11026573, 0
163, 1675961973, 0.6050455, 0.433622, -0.49732423, 0.44559577, 0.0882342, -0.05542965, 0.024349213, 0
164, 1675978640, 0.60501903, 0.4335536, -0.49737594, 0.4456405, 0.0028321326, -0.06054631, -0.032009125, 0
165, 1675995307, 0.60498726, 0.43355054, -0.4973965, 0.44566366, 0.055821467, -0.056862812, 0.07794666, 0
166, 1676011974, 0.6050268, 0.4335362, -0.4974093, 0.44560975, 0.058058385, -0.12199292, 0.18159294, 0
167, 1676028641, 0.6050925, 0.43355954, -0.49736732, 0.44554463, 0.100703314, -0.07185561, 0.14646912, 0
168, 1676045308, 0.6051793, 0.4336196, -0.49729374, 0.44545048, 0.060985286, -0.07807509, -0.057886124, 0
169, 1676061975, 0.6052837, 0.43367687, -0.49725172, 0.44529977, 0.03689126, -0.03957185, 0.007552147, 0
170, 1676078642, 0.60538274, 0.43375483, -0.49717999, 0.44516927, 0.05827877, -0.01905135, 0.22254276, 0
171, 1676095309, 0.6055125, 0.43383193, -0.49706593, 0.44504508, -0.089639425, 0.011924639, 0.20307732, 0
172, 1676111976, 0.6056959, 0.43392223, -0.49693674, 0.44485176, -0.14679593, -0.0029213144, -0.074175835, 0
173, 1676128643, 0.60581595, 0.43407303, -0.4967965, 0.44469768, -0.026123524, 0.016394675, -0.024724007, 0
174, 1676145310, 0.605938, 0.4341578, -0.49670482, 0.4445511, -0.007566577, 0.022810586, 0.12407398, 0
175, 1676161977, 0.60606563, 0.434207, -0.49663708, 0.4444045, -0.18371134, -0.027814623, 0.10433483, 0
176, 1676178644, 0.6061895, 0.43429616, -0.49652386, 0.44427487, -0.15204625, -0.013683463, 0.06770611, 0
177, 1676195311, 0.6063185, 0.43434766, -0.4964476, 0.44413388, 0.04656043, -0.05933822, 0.016173363, 0
178, 1676211978, 0.6064021, 0.4343784, -0.49640188, 0.44404063, -0.0326054, -0.07089585, -0.032731056, 0
179, 1676228645, 0.60650563, 0.43435258, -0.4964123, 0.44391292, -0.21324633, -0.056217533, 0.1312666, 0
180, 1676245312, 0.60655683, 0.43439618, -0.49635357, 0.44386598, -0.19743547, -0.14776263, 0.09918785, 0
181, 1676261979, 0.6065954, 0.43442264, -0.4963068, 0.44383967, -0.069303095, -0.14355098, 0.036909103, 0
182, 1676278646, 0.60661775, 0.43438157, -0.4963296, 0.44382393, -0.049120773, -0.14169402, 0.1122036, 0
183, 1676295313, 0.6065684, 0.43432492, -0.49636105, 0.4439114, -0.1695605, -0.1561475, 0.040023804, 0
184, 1676311980, 0.60651195, 0.43424517, -0.49641374, 0.44400778, -0.20257762, -0.16087233, 0.016392708, 0
185, 1676328647, 0.60647756, 0.43411222, -0.4965149, 0.44407168, -0.024631128, -0.1577322, 0.1480627, 0
186, 1676345314, 0.60636777, 0.43400338, -0.49659413, 0.4442393, 0.054808345, -0.18246481, 0.0975523, 0
187, 1676361981, 0.60628796, 0.43384132, -0.49671808, 0.4443681, -0.06251054, -0.12751056, 0.008442879, 0
188, 1676378648, 0.6061911, 0.4337204, -0.49681857, 0.44450578, -0.09585219, -0.051940836, 0.07360649, 0
189, 1676395315, 0.60608023, 0.43363047, -0.49689284, 0.4446617, 0.028252931, -0.09629162, 0.11195278, 0
190, 1676411982, 0.60603684, 0.43346384, -0.4970149, 0.44474697, -7.194882E-4, -0.1353067, 0.056714058, 0
191, 1676428649, 0.6059927, 0.4333534, -0.49708906, 0.4448319, -0.058073808, -0.09183365, 0.053121567, 0
192, 1676445316, 0.6059292, 0.43330193, -0.4971303, 0.44492215, 0.08270784, -0.10689306, 0.11592293, 0
193, 1676461983, 0.6058908, 0.43322617, -0.49717036, 0.44500372, 0.11791739, -0.12100902, 0.04298401, 0
194, 1676478650, 0.6058726, 0.43314767, -0.497224, 0.445045, -0.12239838, -0.22252727, -0.03575611, 0
195, 1676495317, 0.605862, 0.4331129, -0.497259, 0.4450541, -0.12716144, -0.16188373, 0.1933155, 0
196, 1676511984, 0.6058834, 0.43304953, -0.49728185, 0.44506082, 0.08802879, -0.17216845, 0.31459332, 0
197, 1676528651, 0.6058593, 0.43296453, -0.49728835, 0.4451692, 0.11266819, -0.009421071, 0.07085705, 0
198, 1676545318, 0.6058267, 0.4328308, -0.49735755, 0.44526637, -0.025337249, 0.24447922, -0.11576939, 0
199, 1676561985, 0.6058068, 0.43265846, -0.49748275, 0.44532096, -0.044399284, 0.44967386, 0.07756233, 0
200, 1676578652, 0.60577315, 0.4325228, -0.49757266, 0.44539806, -0.13792291, 0.40720618, -0.029496193, 0
201, 1676595319, 0.605778, 0.43243447, -0.4976251, 0.44541875, -0.12360356, 0.34844598, -0.08684635, 0
202, 1676611986, 0.605846, 0.43236965, -0.49766484, 0.44534457, 0.2432373, 0.24723417, 0.08157635, 0
203, 1676628653, 0.6058865, 0.43235615, -0.4976619, 0.44530588, 0.3191289, 0.12647995, 0.013069153, 0
204, 1676645320, 0.605932, 0.432404, -0.49758783, 0.4452804, 0.10667692, 0.1828707, -0.022242546, 0
205, 1676661987, 0.6060141, 0.4325266, -0.4974813, 0.44516885, -0.056606445, 0.2465462, 0.017971992, 0
206, 1676678654, 0.6061887, 0.43267494, -0.49732393, 0.4449626, 0.009878155, 0.20990258, 0.12189388, 0
207, 1676695321, 0.60637987, 0.4329021, -0.49711373, 0.4447163, 0.14979547, 0.11509353, -0.029611588, 0
208, 1676711988, 0.6065673, 0.43318117, -0.49688572, 0.4444434, 0.1293275, 0.029531425, -0.090826035, 0
209, 1676728655, 0.6067783, 0.43347016, -0.49666733, 0.4441174, 0.121625245, -0.01622324, 0.039711, 0
210, 1676745322, 0.6070024, 0.43374455, -0.49643344, 0.4438049, -0.0070630093, -0.19385926, 0.097008705, 0
211, 1676761989, 0.6072516, 0.43402895, -0.4961849, 0.44346386, -0.13955423, -0.24367976, 0.14189053, 0
212, 1676778656, 0.6074726, 0.43434054, -0.49591643, 0.44315627, -0.079666056, -0.2555303, 0.121471405, 0
213, 1676795323, 0.6076813, 0.434575, -0.49572846, 0.44285038, 0.028086191, -0.31746617, 0.05756855, 0
214, 1676811990, 0.6078425, 0.43474334, -0.49559483, 0.44261324, -0.024365595, -0.32805467, 0.114253044, 0
215, 1676828657, 0.60797274, 0.4348866, -0.49547583, 0.44242695, -0.24183498, -0.33373234, 0.19125748, 0
216, 1676845324, 0.60812235, 0.43499404, -0.4953706, 0.44223362, -0.21302193, -0.3324992, 0.1994152, 0
217, 1676861991, 0.60824424, 0.43507567, -0.4952805, 0.44208637, -0.068381555, -0.35348865, 0.050477028, 0
218, 1676878658, 0.60833323, 0.43509647, -0.49524918, 0.44197875, -0.004734228, -0.2612015, 0.13110352, 0
219, 1676895325, 0.6084117, 0.43507877, -0.49523693, 0.44190168, -0.10057167, -0.20756531, 0.12248325, 0
220, 1676911992, 0.608496, 0.43508282, -0.49521267, 0.4418088, -0.24556787, -0.18784922, -4.9591064E-4, 0
221, 1676928659, 0.60860753, 0.43508804, -0.4951889, 0.44167674, -0.080319606, -0.11850031, 0.05571556, 0
222, 1676945326, 0.6086794, 0.4350989, -0.49516198, 0.44159716, 0.0038184954, -0.12049807, 0.15458393, 0
223, 1676961993, 0.60871583, 0.43510064, -0.49514163, 0.44156805, -0.18810794, -0.13891368, 0.08262634, 0
224, 1676978660, 0.6087881, 0.43504664, -0.4951661, 0.44149432, -0.26552558, -0.14518596, 0.12156963, 0
225, 1676995327, 0.60879284, 0.43501624, -0.49517825, 0.44150403, -0.10521515, -0.13973092, 0.19156742, 0
226, 1677011994, 0.6087891, 0.43492827, -0.49521482, 0.4415549, -0.034144286, -0.15495996, 0.08816433, 0
227, 1677028661, 0.6087775, 0.43481225, -0.49528357, 0.44160807, -0.099441364, -0.10565681, 0.006457329, 0
228, 1677045328, 0.60874295, 0.43473095, -0.49533078, 0.44168255, -0.11802423, -0.022685, 0.049498558, 0
229, 1677061995, 0.6087118, 0.43466473, -0.49535558, 0.44176283, -0.10190358, -0.07105991, 0.05957985, 0
230, 1677078662, 0.6086647, 0.4346209, -0.49537385, 0.44185048, -0.051328856, -0.07981871, 0.06277943, 0
231, 1677095329, 0.6085939, 0.434591, -0.49539396, 0.44195476, -0.06507982, -0.13589051, 0.02958107, 0
232, 1677111996, 0.60851395, 0.43457335, -0.49540973, 0.44206455, -0.059882697, -0.15435492, 0.049016, 0
233, 1677128663, 0.6084663, 0.43451545, -0.49545017, 0.44214165, -0.0097476235, -0.13915694, 0.13875198, 0
234, 1677145330, 0.60840005, 0.43445653, -0.4954942, 0.44224158, -0.0385875, -0.14742802, 0.0376997, 0
235, 1677161997, 0.60836196, 0.43434304, -0.49559098, 0.44229704, -0.13705367, -0.096358895, -0.0121154785, 0
236, 1677178664, 0.60828394, 0.43427935, -0.4956496, 0.4424009, -0.09280662, -0.085899144, 0.13363361, 0
237, 1677195331, 0.60823596, 0.43419313, -0.49571347, 0.44247997, 0.015082431, -0.15456212, 0.11170387, 0
238, 1677211998, 0.60816944, 0.43413803, -0.49574855, 0.44258612, 0.053645793, -0.21025617, -0.015199661, 0
239, 1677228665, 0.60811156, 0.43407512, -0.4958004, 0.44266936, 0.0014863611, -0.15155765, 0.017542839, 0
240, 1677245332, 0.6080385, 0.4340345, -0.49583584, 0.44276974, -0.07149643, -0.13549466, 0.14140034, 0
241, 1677261999, 0.60797846, 0.43399912, -0.4958736, 0.44284478, -0.03280343, -0.16215262, 0.14462757, 0
242, 1677278666, 0.60795486, 0.4339241, -0.49592865, 0.44288915, -0.009293445, -0.1687771, 0.08629799, 0
243, 1677295333, 0.60790974, 0.43386674, -0.4959815, 0.44294786, 0.035470165, -0.115121245, 0.019590378, 0
244, 1677312000, 0.6078442, 0.43383753, -0.4959937, 0.44305292, 0.06538626, -0.0906392, 0.12568092, 0
245, 1677328667, 0.6078301, 0.4337593, -0.4960353, 0.44310206, 0.034133334, -0.06849152, 0.08854866, 0
246, 1677345334, 0.60780567, 0.4337368, -0.49603432, 0.4431587, -0.06413905, -0.02401602, -0.0075387955, 0
247, 1677362001, 0.6078106, 0.43372813, -0.49602655, 0.44316903, -0.031123731, -0.010467112, 0.1543951, 0
248, 1677378668, 0.6078134, 0.43372738, -0.49600652, 0.4431883, 0.015388837, -0.030917585, 0.08812904, 0
249, 1677395335, 0.60783017, 0.43370935, -0.49600002, 0.4431904, -0.04506379, 0.056079175, 0.024952888, 0
250, 1677412002, 0.60779935, 0.43373856, -0.49596313, 0.4432454, -0.038477756, 0.099950075, 0.06816292, 0
251, 1677428669, 0.607811, 0.43369123, -0.49599484, 0.4432403, 0.020538606, 0.101065405, 0.13388824, 0
252, 1677445336, 0.6077911, 0.43365633, -0.496002, 0.4432936, 0.00728317, 0.10558774, 0.06911087, 0
253, 1677462003, 0.6078029, 0.43360415, -0.49602917, 0.44329804, -0.107607186, 0.12645827, -0.10272026, 0
254, 1677478670, 0.6077607, 0.43360186, -0.49604344, 0.4433422, -0.0392301, 0.11686442, -2.48909E-4, 0
255, 1677495337, 0.6077284, 0.43358067, -0.49607244, 0.44337484, 0.017945856, 0.08483099, 0.1713562, 0
256, 1677512004, 0.6076879, 0.43356892, -0.4960781, 0.44343555, -0.04082218, 0.043018866, 0.106446266, 0
257, 1677528671, 0.60768604, 0.43355227, -0.49607757, 0.44345492, -0.063182645, 0.08311754, 0.0018463135, 0
258, 1677545338, 0.6076756, 0.4335715, -0.49605662, 0.44347402, 0.073164284, 0.087629594, 0.110756874, 0
259, 1677562005, 0.60765713, 0.4335849, -0.49603194, 0.44351354, 0.15941882, 0.03140849, 0.072096825, 0
260, 1677578672, 0.6076585, 0.43359023, -0.49600467, 0.44353697, -0.021652594, 0.02330212, -0.08590412, 0
261, 1677595339, 0.6076559, 0.43364075, -0.49596396, 0.44353673, -0.102189355, 0.09612849, 0.0013694763, 0
262, 1677612006, 0.6076813, 0.4336822, -0.49592036, 0.44351017, 0.07380867, 0.023863807, 0.15492725, 0
263, 1677628673, 0.60772437, 0.43369016, -0.49589264, 0.44347426, 0.110864885, -0.049850542, 0.07986736, 0
264, 1677645340, 0.60776246, 0.4336975, -0.49586654, 0.44344404, -0.02287007, -0.06287308, -7.343292E-5, 0
265, 1677662007, 0.60776424, 0.43374744, -0.4958251, 0.44343904, 0.016411886, -0.02962843, 0.037952423, 0
266, 1677678674, 0.60779357, 0.43375194, -0.4958154, 0.44340536, 0.07469915, -0.0655103, 0.1683197, 0
267, 1677695341, 0.60780746, 0.43376946, -0.49577534, 0.443414, 0.026721198, -0.11164182, 0.037880898, 0
268, 1677712008, 0.60784733, 0.43379256, -0.49573588, 0.44338098, -0.01015397, -0.043531608, -0.0192976, 0
269, 1677728675, 0.6078966, 0.43381593, -0.49570364, 0.44332656, 0.08164079, -0.034943346, 0.030370712, 0
270, 1677745342, 0.6079364, 0.43382704, -0.49569556, 0.44327006, 0.05933956, -0.04766995, 0.097084045, 0
271, 1677762009, 0.6080087, 0.43380657, -0.49570414, 0.44318134, -0.03480119, -0.08147517, 0.1773262, 0
272, 1677778676, 0.60806626, 0.43384618, -0.49565384, 0.44311973, -0.09692639, -0.08621632, 0.01923275, 0
273, 1677795343, 0.6081413, 0.43389553, -0.49560463, 0.4430235, 0.035436522, -0.02216646, -0.018650055, 0
274, 1677812010, 0.6082142, 0.43393835, -0.49556372, 0.44292748, 0.057153605, -0.035787553, 0.07356548, 0
275, 1677828677, 0.6083008, 0.43397018, -0.49551088, 0.44283667, -0.019563641, -0.022952992, 0.1916666, 0
276, 1677845344, 0.60837555, 0.43402874, -0.49544832, 0.4427463, -0.09293199, -0.01012089, 0.07589245, 0
277, 1677862011, 0.6084505, 0.4340981, -0.4953725, 0.44266033, -0.029758291, 0.008938506, 0.06867409, 0
278, 1677878678, 0.6085194, 0.434143, -0.49531367, 0.44258732, 0.04139415, 0.025532108, 0.023918152, 0
279, 1677895345, 0.60859054, 0.43415615, -0.4952966, 0.4424958, -0.092264585, 0.032898203, -0.060918808, 0
280, 1677912012, 0.60863537, 0.43420017, -0.49526134, 0.44243014, -0.14037418, 0.0069601936, 0.0022745132, 0
281, 1677928679, 0.60869837, 0.4342371, -0.49522915, 0.44234326, -0.19673431, -0.20812252, 0.14962101, 0
282, 1677945346, 0.60875547, 0.43426573, -0.4951828, 0.4422885, -0.018666908, -0.22013836, 0.38628578, 0
283, 1677962013, 0.60880554, 0.43419662, -0.49519634, 0.44227228, 0.105106965, -0.21188983, 0.10593891, 0
284, 1677978680, 0.60876733, 0.43406785, -0.49524924, 0.4423921, 0.12677096, 0.20172894, 0.062319756, 0
285, 1677995347, 0.6086311, 0.43393585, -0.4953511, 0.44259498, -0.19099936, 0.43045676, -0.16645718, 0
286, 1678012014, 0.60848045, 0.43377855, -0.4954746, 0.4428182, -0.12579934, 0.57763904, -0.022287369, 0
287, 1678028681, 0.6083652, 0.43356308, -0.49564186, 0.4430003, 0.03386691, 0.50103045, 0.027841568, 0
288, 1678045348, 0.60828066, 0.43340248, -0.49577528, 0.44312423, -0.19586709, 0.3409433, -0.17103004, 0
289, 1678062015, 0.6082441, 0.4333595, -0.4958179, 0.44316846, 0.12856667, 0.26104167, 0.10651016, 0
290, 1678078682, 0.60821384, 0.43337676, -0.49580568, 0.44320673, 0.5682893, 0.02216265, 0.11163044, 0
291, 1678095349, 0.6082132, 0.43338796, -0.49577123, 0.44323516, 0.3685675, 0.06234134, -0.047060966, 0
292, 1678112016, 0.6082534, 0.43349177, -0.4956799, 0.44318086, -0.026724104, 0.26327345, -0.09678364, 0
293, 1678128683, 0.6083755, 0.4336745, -0.49553192, 0.443, 0.01085066, 0.27777898, 0.011321068, 0
294, 1678145350, 0.6085336, 0.43387923, -0.49534482, 0.44279125, 0.2636141, 0.17868565, 0.05486965, 0
295, 1678162017, 0.60874414, 0.43409422, -0.49515304, 0.44250613, 0.012565005, 0.11181012, -0.007540703, 0
296, 1678178684, 0.60897046, 0.43434763, -0.49493855, 0.4421858, 0.14653733, 0.09330347, 0.1548624, 0
297, 1678195351, 0.6091755, 0.43459186, -0.49471897, 0.44190884, 0.3622906, -0.07384756, 0.108774185, 0
298, 1678212018, 0.6093466, 0.43479747, -0.49453625, 0.44167507, 0.20315482, -0.07159159, -0.06805611, 0
299, 1678228685, 0.60956043, 0.4349353, -0.4944273, 0.44136617, -0.05884627, 0.05343368, 0.08587074, 0
300, 1678245352, 0.6097846, 0.43512094, -0.4942679, 0.4410523, -0.13852215, 0.02582558, 0.077251434, 0
301, 1678262019, 0.6100233, 0.4353393, -0.49407867, 0.44071856, -0.031748228, -0.005423765, 0.09694195, 0
302, 1678278686, 0.6102705, 0.43551952, -0.49392426, 0.44037098, 0.13525999, -0.0957297, 0.01497364, 0
303, 1678295353, 0.6105083, 0.43568635, -0.4937921, 0.44002467, 0.038859293, -0.07849328, 0.0040302277, 0
304, 1678312020, 0.6107223, 0.4358941, -0.4936272, 0.4397067, -0.022534575, -0.056263573, 0.17976093, 0
305, 1678328687, 0.61093795, 0.43609035, -0.49344182, 0.4394206, -0.07991393, -0.07147497, 0.20733261, 0
306, 1678345354, 0.6111742, 0.4362799, -0.493246, 0.43912354, -0.23281512, 0.024990536, 0.094799995, 0
307, 1678362021, 0.6114157, 0.4364655, -0.49307838, 0.4387912, -0.21944413, 0.033508167, 0.061686516, 0
308, 1678378688, 0.61162853, 0.43664947, -0.49291286, 0.4384973, -0.080132075, -0.043192986, 0.0062093735, 0
309, 1678395355, 0.611822, 0.43679908, -0.4927858, 0.43822113, -0.051790632, -0.17570376, 0.014439583, 0
310, 1678412022, 0.6119715, 0.4369445, -0.49265516, 0.43801403, -0.07784511, -0.21003996, 0.23724174, 0
311, 1678428689, 0.61210334, 0.4370691, -0.4925136, 0.43786487, -0.13624611, -0.2451821, 0.25249195, 0
312, 1678445356, 0.6121953, 0.43720296, -0.49236313, 0.43777204, -0.19964021, -0.17485821, 0.036089897, 0
313, 1678462023, 0.6122697, 0.43731257, -0.49227986, 0.43765193, -0.15341347, -0.10307747, -0.025514603, 0
314, 1678478690, 0.61233604, 0.43735236, -0.49225938, 0.43754232, -0.09219194, -0.114476405, 0.12675571, 0
315, 1678495357, 0.6123842, 0.43739605, -0.49220902, 0.437488, -0.11506425, -0.15520024, 0.14581871, 0
316, 1678512024, 0.6124269, 0.43745008, -0.49214658, 0.43744454, -0.06318488, -0.17685217, 0.067442894, 0
317, 1678528691, 0.6124327, 0.43751132, -0.4920857, 0.43744338, 0.07466808, -0.2040508, 0.045054436, 0
318, 1678545358, 0.61243206, 0.4374943, -0.4921013, 0.43744367, 0.014048013, -0.16248296, 0.030555725, 0
319, 1678562025, 0.61242694, 0.4374742, -0.4921166, 0.4374538, -0.16423151, -0.10145275, 0.22218323, 0
320, 1678578692, 0.6124114, 0.43750963, -0.49206746, 0.4374957, -0.1713647, -0.16467093, 0.097857475, 0
321, 1678595359, 0.6123715, 0.43758297, -0.4920004, 0.4375533, -8.5985434E-4, -0.19909059, -0.052303314, 0
322, 1678612026, 0.61238205, 0.43759435, -0.49199137, 0.4375373, 0.10137206, -0.22238779, 0.074769974, 0
323, 1678628693, 0.6124082, 0.43758354, -0.491989, 0.4375142, -0.010940973, -0.240941, 0.23156643, 0
324, 1678645360, 0.61245334, 0.43760282, -0.4919358, 0.43749163, -0.026457675, -0.25986174, 0.11799431, 0
325, 1678662027, 0.6125326, 0.4376177, -0.4918976, 0.43740872, 0.03991405, -0.24197423, 0.019739151, 0
326, 1678678694, 0.61258596, 0.43765438, -0.49185753, 0.43734238, 0.08991993, -0.15068662, 0.03629875, 0
327, 1678695361, 0.61267483, 0.43765303, -0.4918558, 0.43722117, -0.03407835, -0.19480316, 0.08765125, 0
328, 1678712028, 0.61276567, 0.43771493, -0.491799, 0.43709576, -0.06352551, -0.16764387, 0.096354485, 0
329, 1678728695, 0.6128892, 0.4378088, -0.49170792, 0.43693113, 0.07557934, -0.18462484, 0.028224945, 0
330, 1678745362, 0.6130282, 0.43788415, -0.49162775, 0.43675077, 0.18527146, -0.16247, 0.08076191, 0
331, 1678762029, 0.61315346, 0.43797252, -0.4915344, 0.43659127, 0.1046823, -0.13159773, 0.16016865, 0
332, 1678778696, 0.61330754, 0.43810904, -0.4913927, 0.43639746, -0.12815584, -0.12173343, 0.03767109, 0
333, 1678795363, 0.6135242, 0.4382523, -0.4912626, 0.43609524, -0.05569563, -0.043981537, -0.008286476, 0
334, 1678812030, 0.6137409, 0.43841043, -0.49112982, 0.43578082, 0.042079665, -0.029087305, 0.046063423, 0
335, 1678828697, 0.61395615, 0.43856096, -0.4909983, 0.43547428, 0.039783143, 8.517568E-4, 0.18344879, 0
336, 1678845364, 0.61413306, 0.4387532, -0.4908151, 0.43523768, -0.0011278464, -0.03179338, 0.15474701, 0
337, 1678862031, 0.61432445, 0.43893304, -0.49065012, 0.43497232, 8.390676E-4, 0.01641345, -0.018556595, 0
338, 1678878698, 0.6145227, 0.43910787, -0.49047577, 0.4347122, 0.047746167, 0.11617354, 0.06579304, 0
339, 1678895365, 0.6147152, 0.43927497, -0.49032682, 0.43443912, 0.007626262, 0.14686477, 0.0091257095, 0
340, 1678912032, 0.61487037, 0.43950143, -0.49012116, 0.43422273, -0.076257706, 0.19513531, -0.032155037, 0
341, 1678928699, 0.6150175, 0.43968382, -0.48996142, 0.43400982, -0.04335615, 0.18107767, 0.026183128, 0
342, 1678945366, 0.61513734, 0.43979517, -0.48984382, 0.4338601, -0.09918499, 0.22947651, 0.20028687, 0
343, 1678962033, 0.61525375, 0.43981302, -0.48981148, 0.43371332, -0.16903012, 0.2104171, 0.083390236, 0
344, 1678978700, 0.6152954, 0.43983698, -0.48979098, 0.4336528, -0.093031906, 0.20005214, -0.037869453, 0
345, 1678995367, 0.61530983, 0.43982324, -0.48979786, 0.4336387, 0.041702155, 0.20236349, 0.07351589, 0
346, 1679012034, 0.6153023, 0.43980354, -0.48980665, 0.4336595, 0.0011986999, 0.1518176, 0.012969971, 0
347, 1679028701, 0.6152705, 0.43980962, -0.48978758, 0.43372002, 0.013197993, 0.13262051, -0.01485157, 0
348, 1679045368, 0.61524945, 0.43979117, -0.48979512, 0.43375996, 0.028141944, 0.09123408, 0.061019897, 0
349, 1679062035, 0.6152255, 0.4397517, -0.48983008, 0.43379438, -0.063658945, 0.04229178, 0.026846886, 0
350, 1679078702, 0.61516404, 0.43976095, -0.48983207, 0.4338699, -0.10897821, 0.043338493, 0.050554276, 0
351, 1679095369, 0.61509085, 0.43977335, -0.48982978, 0.43396378, 0.0071289456, -0.039825093, 0.0969944, 0
352, 1679112036, 0.6150549, 0.43973494, -0.48984283, 0.4340389, 0.0800391, -0.05695423, 0.0811615, 0
353, 1679128703, 0.6150038, 0.43968403, -0.48988435, 0.43411604, 0.039037433, -0.105508395, 0.0877285, 0
354, 1679145370, 0.6149223, 0.43965498, -0.48991194, 0.4342298, 0.005620904, -0.18520887, 0.095202446, 0
355, 1679162037, 0.61485606, 0.43961194, -0.48995325, 0.43432054, 0.043676443, -0.23568077, 0.09154701, 0
356, 1679178704, 0.6148095, 0.43953344, -0.49001044, 0.43440133, 0.009783162, -0.27796316, 0.14476013, 0
357, 1679195371, 0.61480886, 0.43943, -0.49008128, 0.4344269, -0.06678232, -0.26380944, 0.1692028, 0
358, 1679212038, 0.61477506, 0.43942323, -0.49006638, 0.4344984, -0.032830253, -0.25592256, 0.09165478, 0
359, 1679228705, 0.6147966, 0.4393837, -0.49008134, 0.43449116, 0.057508767, -0.21253042, 0.09449959, 0
360, 1679245372, 0.61479867, 0.43934792, -0.49008775, 0.4345172, 0.05873501, -0.13669008, 0.14068985, 0
361, 1679262039, 0.6148228, 0.43926194, -0.49013335, 0.4345185, -0.014819356, -0.09654597, 0.08987141, 0
362, 1679278706, 0.61482733, 0.43920583, -0.49014276, 0.43455818, -0.06055614, -0.045558423, 0.11901569, 0
363, 1679295373, 0.61482763, 0.43914866, -0.49015868, 0.43459752, 0.12049561, 0.14796089, 0.22338104, 0
364, 1679312040, 0.61483586, 0.4390373, -0.4901859, 0.43466777, -0.025029652, -0.03696122, 0.25669098, 0
365, 1679328707, 0.6148689, 0.4389481, -0.49016854, 0.43473065, 0.2335004, 0.023462156, 0.13392544, 0
366, 1679345374, 0.6149367, 0.4389149, -0.49010688, 0.4347378, 0.15476775, -0.073330134, 0.14987469, 0
367, 1679362041, 0.6150508, 0.43891346, -0.49000353, 0.43469432, 0.31223062, -0.08771207, 0.06864071, 0
368, 1679378708, 0.6151913, 0.4389721, -0.48987207, 0.43458468, 0.1918595, -0.18038255, -0.36351776, 0
369, 1679395375, 0.6154155, 0.43916717, -0.48966473, 0.43430373, -0.32981595, 0.09464723, -0.32543468, 0
370, 1679412042, 0.61567104, 0.43943018, -0.48945627, 0.43391013, 0.82644516, -0.033191226, -0.24276543, 0
371, 1679428709, 0.6159641, 0.43964037, -0.48929974, 0.4334577, -0.14672977, 0.20649624, 0.067064285, 0
372, 1679445376, 0.6163467, 0.43993926, -0.48901242, 0.43293455, -0.37111673, 0.0440379, 0.16278362, 0
373, 1679462043, 0.6167304, 0.4402677, -0.48871937, 0.43238476, 0.4007346, -0.3749126, 0.015493393, 0
374, 1679478710, 0.6170079, 0.44051337, -0.48851407, 0.43197045, 0.3081019, -0.59084845, -0.0048952103, 0
375, 1679495377, 0.6172498, 0.4406113, -0.48844352, 0.43160462, -0.3961298, -0.32253724, 0.36989307, 0
376, 1679512044, 0.61751705, 0.44071436, -0.48835048, 0.4312222, -0.99807566, -0.57141376, -0.105047226, 0
377, 1679528711, 0.61776173, 0.44092938, -0.4881959, 0.43082666, -0.5532415, -0.29090726, 0.114681244, 0
378, 1679545378, 0.61794764, 0.4409623, -0.4881522, 0.43057567, 0.97105026, -0.21485429, 1.2191906, 0
379, 1679562045, 0.61813784, 0.44077355, -0.488145, 0.4305043, -0.14078142, -0.08106279, -0.5434437, 0
380, 1679578712, 0.6181668, 0.4408023, -0.4881062, 0.43047696, -0.5303129, 0.76348585, -0.4252844, 0
381, 1679595379, 0.6181798, 0.44087318, -0.488105, 0.43038708, -0.18179247, 0.6392459, -0.001821518, 0
382, 1679612046, 0.61824065, 0.4407761, -0.48813558, 0.43036437, 0.21151322, 0.76418006, 0.4348631, 0
383, 1679628713, 0.6182637, 0.44064853, -0.48820993, 0.43037778, -0.14206707, 0.763379, 0.058984756, 0
384, 1679645380, 0.61820984, 0.4405982, -0.48826995, 0.43043858, 0.017892212, 0.69472253, 0.08925724, 0
385, 1679662047, 0.61809194, 0.4406637, -0.4882226, 0.4305946, 0.11822321, 0.6477377, 0.06601429, 0
386, 1679678714, 0.6180028, 0.44063926, -0.48824233, 0.4307249, 0.29200178, 0.54363513, -0.23769283, 0
387, 1679695381, 0.61792254, 0.44063243, -0.48828942, 0.43079373, -0.24013002, 0.6444904, -0.2009697, 0
388, 1679712048, 0.6178886, 0.4407177, -0.48826, 0.43078843, 0.058732722, 0.3558836, -0.1177454, 0
389, 1679728715, 0.61784816, 0.44078383, -0.48823455, 0.43080768, 0.3645807, 0.17716666, 0.21077347, 0
390, 1679745382, 0.61781, 0.4407495, -0.48824134, 0.43088987, 0.2105302, 0.032495655, 0.14069653, 0
391, 1679762049, 0.6177713, 0.4406553, -0.48829487, 0.430981, -0.006807534, 0.22425927, 0.06315422, 0
392, 1679778716, 0.6176891, 0.44061005, -0.48835468, 0.43107772, -0.07828653, 0.24633072, -0.07495117, 0
393, 1679795383, 0.6176183, 0.44049165, -0.48848155, 0.43115604, 0.14215603, 0.07648457, -0.051273346, 0
394, 1679812050, 0.61752844, 0.44031784, -0.48865837, 0.43126222, 0.09538527, -0.080066584, 0.13269424, 0
395, 1679828717, 0.61745375, 0.4401378, -0.4888251, 0.43136382, -0.028614128, -0.23857951, 0.123477936, 0
396, 1679845384, 0.6173941, 0.4400091, -0.48891625, 0.43147725, 0.091647685, -0.26931077, 0.1383152, 0
397, 1679862051, 0.61732674, 0.43987438, -0.48900902, 0.43160594, 0.28557253, -0.29277277, 0.07297611, 0
398, 1679878718, 0.61724323, 0.43974724, -0.4890906, 0.43176222, -0.03288345, -0.22451675, 0.009239197, 0
399, 1679895385, 0.61725897, 0.43964028, -0.48915908, 0.43177113, -0.18021582, -0.01239804, 0.103383064, 0
400, 1679912052, 0.6173211, 0.4396366, -0.48913443, 0.4317142, 0.0053846505, -0.030435983, 0.016346931, 0
401, 1679928719, 0.6174303, 0.43969092, -0.48904458, 0.4316043, 0.37552792, 0.102622844, 0.14567757, 0
402, 1679945386, 0.6175245, 0.4397591, -0.48893893, 0.43151966, 0.17684345, 0.20992002, 0.023417473, 0
403, 1679962053, 0.6175805, 0.43982083, -0.48884287, 0.4314856, -0.119003214, 0.3957679, -0.009758949, 0
404, 1679978720, 0.6175916, 0.4397914, -0.4888648, 0.4314746, -0.09829273, 0.39350796, 0.028281212, 0
405, 1679995387, 0.61752146, 0.43963918, -0.48899066, 0.4315877, -0.15775143, 0.44347653, 0.19882393, 0
406, 1680012054, 0.6174053, 0.43940336, -0.48914948, 0.43181416, -0.18652514, 0.40306827, 0.29988003, 0
407, 1680028721, 0.6172684, 0.43912098, -0.48932943, 0.43209314, 0.14027695, 0.40301466, -0.0084991455, 0
408, 1680045388, 0.6170855, 0.4387757, -0.4895926, 0.43240696, 0.39310297, 0.5265143, -0.089733124, 0
409, 1680062055, 0.61688393, 0.43834332, -0.48992014, 0.43276206, 0.3851488, 0.6817469, 0.24398327, 0
410, 1680078722, 0.61668706, 0.4379222, -0.49020034, 0.43315148, -0.016708601, 0.87538, 0.09757042, 0
411, 1680095389, 0.61651367, 0.43753478, -0.49043483, 0.433524, 0.0986166, 1.0131484, -0.14810562, 0
412, 1680112056, 0.6163491, 0.43717575, -0.49068132, 0.43384114, 0.5320882, 1.2746365, -0.35143375, 0
413, 1680128723, 0.61620516, 0.43683904, -0.49097794, 0.43404916, 0.5448052, 1.3535252, -0.3452301, 0
414, 1680145390, 0.61610115, 0.43656257, -0.491211, 0.43421125, 0.37796733, 1.3114699, -0.19278431, 0
415, 1680162057, 0.6159951, 0.4363383, -0.49139047, 0.4343842, 0.4277839, 1.3644366, -0.16131783, 0
416, 1680178724, 0.6159457, 0.43609983, -0.4915736, 0.43448633, 0.4414743, 1.5460776, -0.15043926, 0
417, 1680195391, 0.61591536, 0.43591484, -0.49173948, 0.43452722, 0.48751462, 1.6317829, -0.4096079, 0
418, 1680212058, 0.61587226, 0.43583053, -0.49183384, 0.43456605, 0.42102018, 1.6878961, -0.16611767, 0
419, 1680228725, 0.6158041, 0.43583512, -0.49182647, 0.43466634, 0.5122716, 1.7564882, 0.051918983, 0
420, 1680245392, 0.6158084, 0.4357106, -0.49191892, 0.43468034, 0.6273535, 1.8699955, -0.013588905, 0
421, 1680262059, 0.6158499, 0.4354611, -0.49206063, 0.43471134, 0.508199, 2.12513, 0.0125284195, 0
422, 1680278726, 0.61582863, 0.43530038, -0.49213648, 0.43481663, 0.44086066, 2.4394403, -0.25269794, 0
423, 1680295393, 0.61579657, 0.43519983, -0.4921807, 0.43491262, 0.4434423, 2.5125477, -0.59003067, 0
424, 1680312060, 0.61572766, 0.43502846, -0.49228764, 0.43506068, 0.7829185, 2.8019557, -0.48582172, 0
425, 1680328727, 0.6156178, 0.43470678, -0.49253964, 0.43525267, 0.75261015, 3.191313, -0.33582878, 0
426, 1680345394, 0.61548644, 0.43434995, -0.49280685, 0.43549183, 0.5931386, 3.0979884, -0.40472603, 0
427, 1680362061, 0.61536825, 0.4340003, -0.4929896, 0.43580055, 0.59722215, 3.0693297, -0.5105114, 0
428, 1680378728, 0.6152511, 0.4336379, -0.4931661, 0.43612692, 0.9773401, 3.5658212, -0.38930607, 0
429, 1680395395, 0.61511266, 0.4332252, -0.49341446, 0.4364513, 0.6752456, 3.5093384, -1.7862816, 0
430, 1680412062, 0.6148872, 0.43286508, -0.4937774, 0.43671602, 1.1122913, 3.8462002, -0.7123356, 0
431, 1680428729, 0.61462677, 0.43255523, -0.49417388, 0.4369406, 1.0563926, 3.8367116, -0.41978073, 0
432, 1680445396, 0.6143901, 0.4323246, -0.49453428, 0.4370939, 0.52683055, 3.1118367, -1.1463652, 0
433, 1680462063, 0.6142537, 0.4321703, -0.4947573, 0.43718594, 0.879707, 3.387779, 0.49316406, 0
434, 1680478730, 0.61416787, 0.43214157, -0.4948721, 0.43720508, 0.89932984, 3.2897089, -0.28770256, 0
435, 1680495397, 0.6141216, 0.43211964, -0.49487042, 0.43729353, 0.71480364, 2.820608, -0.8326559, 0
436, 1680512064, 0.6141242, 0.4321088, -0.49476558, 0.43741924, 0.6806598, 3.4021788, 0.073210716, 0
437, 1680528731, 0.6141074, 0.4321654, -0.4946575, 0.43750927, 0.48395026, 3.5235927, -0.54353046, 0
438, 1680545398, 0.6140466, 0.43219212, -0.4945554, 0.43768337, 0.26394734, 3.06864, 0.33367252, 0
439, 1680562065, 0.6139738, 0.43220592, -0.494381, 0.4379687, 0.46395904, 3.2990808, 0.20171547, 0
440, 1680578732, 0.6138371, 0.43212664, -0.49419358, 0.4384499, 0.5076171, 3.0739222, -0.004108429, 0
441, 1680595399, 0.6135783, 0.43199432, -0.4941438, 0.43899825, 0.2990514, 4.0778384, -0.8476143, 0
442, 1680612066, 0.61312044, 0.43185577, -0.49427047, 0.4396314, 0.12515004, 4.553283, -1.066371, 0
443, 1680628733, 0.6124583, 0.43157896, -0.49461386, 0.4404392, 1.1556108, 4.4057736, -1.3548937, 0
444, 1680645400, 0.61167586, 0.43109375, -0.4949428, 0.44163063, 0.26750678, 4.6986694, 0.24214077, 0
445, 1680662067, 0.61083907, 0.4306532, -0.49514866, 0.4429858, -0.99995005, 5.469949, -0.2276392, 0
446, 1680678734, 0.60986847, 0.43042636, -0.4953808, 0.44428203, -0.37893605, 5.6865873, -1.4093637, 0
447, 1680695401, 0.6087674, 0.4303267, -0.4956262, 0.44561306, -0.1923426, 5.619014, -1.2077951, 0
448, 1680712068, 0.6075521, 0.43042147, -0.49581653, 0.44696635, -0.44489282, 5.602453, -3.0742993, 0
449, 1680728735, 0.60619694, 0.4307265, -0.49604622, 0.448256, 0.75713974, 6.4713283, -1.3275356, 0
450, 1680745402, 0.6045572, 0.4312015, -0.4964039, 0.44961566, 1.8900893, 4.4699025, -5.4038014, 0
451, 1680762069, 0.6025448, 0.43197125, -0.4969645, 0.45095682, -1.9455793, -1.7576797, -4.1653433, 0
452, 1680778736, 0.60107946, 0.43316326, -0.49658346, 0.4521871, -3.5082567, 1.8839298, 12.29879, 0
453, 1680795403, 0.5997721, 0.43429777, -0.4962111, 0.4532423, -0.03468787, -5.0402813, 4.6070843, 0
454, 1680812070, 0.59907144, 0.43447724, -0.49558097, 0.45468393, 0.7291082, -5.7662334, -2.689416, 0
455, 1680828737, 0.59821296, 0.434969, -0.49468777, 0.45631403, -2.574672, -1.6602352, -1.5084457, 0
456, 1680845404, 0.5970665, 0.4367374, -0.49332199, 0.45760322, -2.9369326, -1.8368692, 0.76659775, 0
457, 1680862071, 0.5959742, 0.43882304, -0.49171352, 0.45876148, -0.7013354, -4.0962267, 2.8284569, 0
458, 1680878738, 0.59530395, 0.4404018, -0.48998702, 0.45996457, -0.20816208, -4.4926496, 1.7298346, 0
459, 1680895405, 0.5948268, 0.44183555, -0.48810148, 0.46120998, -1.4774929, -2.2130663, -0.7593212, 0
460, 1680912072, 0.5942779, 0.44383955, -0.48591584, 0.46230003, -1.4214507, -1.6152465, 0.18823433, 0
461, 1680928739, 0.59365904, 0.4461424, -0.48356545, 0.46334174, 0.08401517, -0.9267703, 1.5205469, 0
462, 1680945406, 0.59312665, 0.44810334, -0.4815537, 0.4642257, 0.616799, -1.681461, 0.4053774, 0
463, 1680962073, 0.5927706, 0.44940147, -0.47990865, 0.46512812, 0.15482676, -1.8126161, 0.14841938, 0
464, 1680978740, 0.59237903, 0.4505921, -0.47832608, 0.46610424, -0.24371293, -0.3739289, 0.18270493, 0
465, 1680995407, 0.59185225, 0.45199388, -0.47681004, 0.46696895, 0.30000356, -0.43010598, -1.0632467, 0
466, 1681012074, 0.59137493, 0.45322952, -0.47552726, 0.46768323, 1.5052285, -0.110060684, 0.035099983, 0
467, 1681028741, 0.59100354, 0.45415577, -0.47459108, 0.46820492, 1.2747371, 0.13949265, -0.050078392, 0
468, 1681045408, 0.59077936, 0.45514286, -0.47369164, 0.4684402, 0.37648836, -0.14782767, 0.3995819, 0
469, 1681062075, 0.590764, 0.45624942, -0.4726405, 0.46844476, 1.576972, 0.1969386, -0.3057623, 0
470, 1681078742, 0.59076583, 0.4572012, -0.47185907, 0.4683025, 2.7978325, 0.72865224, -1.3108845, 0
471, 1681095409, 0.5907695, 0.45782772, -0.47155914, 0.46798757, 1.8918885, 0.8381443, -0.23098946, 0
472, 1681112076, 0.59086955, 0.4582749, -0.47143507, 0.46754825, 0.4221902, 0.70870966, 0.40425873, 0
473, 1681128743, 0.59102196, 0.45864144, -0.47133905, 0.46709287, 0.738884, 0.47379428, -0.07074165, 0
474, 1681145410, 0.591215, 0.45863524, -0.47149175, 0.4667004, 2.1611576, 0.0030813497, -0.29981136, 0
475, 1681162077, 0.5914448, 0.45805776, -0.47198617, 0.46647644, 1.779999, 0.18166687, -0.99278736, 0
476, 1681178744, 0.59172374, 0.45713088, -0.47279334, 0.46621466, 0.7277394, 1.0733354, -0.019706726, 0
477, 1681195411, 0.59197, 0.45621416, -0.4737507, 0.46582794, 1.4542316, 1.267963, 0.5160732, 0
478, 1681212078, 0.5920793, 0.45528522, -0.47487915, 0.46544856, 1.7992612, 1.2485119, -0.030633926, 0
479, 1681228745, 0.5922283, 0.45400062, -0.47642335, 0.46493545, 1.5381773, 0.8297391, 0.05124855, 0
480, 1681245412, 0.59255975, 0.45239162, -0.47811022, 0.4643496, 0.92487806, -0.03061837, -0.28578186, 0
481, 1681262079, 0.59298205, 0.4508298, -0.4795779, 0.4638157, 1.4817964, 0.3535584, -0.4882431, 0
482, 1681278746, 0.5933203, 0.44936955, -0.480962, 0.46336657, 1.3681065, 0.28300205, 0.82206917, 0
483, 1681295413, 0.59379375, 0.44772485, -0.48240438, 0.4628525, 1.381551, 0.47963622, 0.7339525, 0
484, 1681312080, 0.5942988, 0.44619423, -0.48392162, 0.46209806, 0.40162086, 0.13221562, -0.061653137, 0
485, 1681328747, 0.59496236, 0.4447939, -0.48514232, 0.46131355, 0.6354104, 0.17184526, 0.3201418, 0
486, 1681345414, 0.59556174, 0.44344532, -0.48645103, 0.4604596, 1.6183015, 0.9145361, -0.6925316, 0
487, 1681362081, 0.59611064, 0.44206786, -0.48788807, 0.4595524, 0.9882775, 0.52819556, -0.18701172, 0
488, 1681378748, 0.59677505, 0.44080544, -0.48906788, 0.458648, 0.4830705, 0.7702125, -0.04920578, 0
489, 1681395415, 0.59754467, 0.43956622, -0.49010065, 0.45773196, 0.5137025, -0.046474602, 0.21878624, 0
490, 1681412082, 0.5984824, 0.43818912, -0.49093577, 0.4569315, 1.0628585, 0.59952366, 0.42367744, 0
491, 1681428749, 0.59929115, 0.43686253, -0.49195898, 0.4560403, 0.83858955, 1.551258, -0.4220438, 0
492, 1681445416, 0.6001076, 0.43559775, -0.492998, 0.45505342, 1.1843507, 1.2614843, -0.5970354, 0
493, 1681462083, 0.60089433, 0.43435928, -0.49406487, 0.45404106, 1.6044073, 0.9849827, 0.051038742, 0
494, 1681478750, 0.6017041, 0.43296877, -0.4952122, 0.45304537, 0.5154904, 0.39966017, 0.20354748, 0
495, 1681495417, 0.60265803, 0.4314563, -0.49629885, 0.45203012, 0.9704155, 1.349605, 1.0627346, 0
496, 1681512084, 0.60350084, 0.4299961, -0.4974519, 0.45102862, 1.2919317, 1.4503472, -1.1199055, 0
497, 1681528751, 0.60431844, 0.42860132, -0.4985341, 0.45006567, 0.3063477, 1.4649076, -0.9518461, 0
498, 1681545418, 0.6050968, 0.42721698, -0.49969852, 0.44904366, 1.1977164, 2.4122913, -0.1669569, 0
499, 1681562085, 0.6059021, 0.42587188, -0.5008285, 0.44797516, 1.3441801, 2.3182406, -0.15620041, 0
500, 1681578752, 0.60674655, 0.42466542, -0.5018348, 0.44685006, 0.5655904, 2.4059, -0.69180965, 0
501, 1681595419, 0.6076057, 0.4235235, -0.5026846, 0.44581002, 0.23593692, 2.2215958, 1.1541243, 0
502, 1681612086, 0.6084812, 0.4225722, -0.50321126, 0.44492358, 0.0692128, 2.8062022, 0.63622284, 0
503, 1681628753, 0.6092604, 0.4216897, -0.50366956, 0.44417542, 0.3817342, 3.6136513, -0.77563477, 0
504, 1681645420, 0.6097447, 0.4207188, -0.5043526, 0.44365603, 0.7918807, 4.580262, -2.1432571, 0
505, 1681662087, 0.6099866, 0.41971013, -0.50512725, 0.44339767, -0.33830652, 5.2627625, -0.0039520264, 0
506, 1681678754, 0.61004215, 0.4186354, -0.50589556, 0.443461, -0.36318532, 5.5928097, 0.6311598, 0
507, 1681695421, 0.6098851, 0.41733035, -0.50667685, 0.44401476, -0.113134995, 5.049853, -0.8706436, 0
508, 1681712088, 0.6093202, 0.41579077, -0.5077824, 0.4449709, 0.99160004, 6.916373, 1.3673496, 0
509, 1681728755, 0.6084985, 0.41406062, -0.5090424, 0.4462673, 0.11201043, 5.590029, -3.8507543, 0
510, 1681745422, 0.60751307, 0.4122589, -0.51015687, 0.4480019, 0.14938655, 5.505923, -1.2540798, 0
511, 1681762089, 0.6063711, 0.4102517, -0.51119673, 0.45020074, 1.2891603, 5.3283114, -0.94795704, 0
512, 1681778756, 0.6048852, 0.4083439, -0.51244116, 0.4525134, 0.9320944, 6.086386, -0.95893097, 0
513, 1681795423, 0.6030729, 0.4068505, -0.51394224, 0.45457032, -0.004061901, 5.6816106, -2.5622807, 0
514, 1681812090, 0.6011865, 0.4057122, -0.51557416, 0.45623535, 0.9297496, 3.9396572, -2.5214877, 0
515, 1681828757, 0.5991438, 0.4048058, -0.5173078, 0.45776275, 2.4184, 0.89267546, -3.1462173, 0
516, 1681845424, 0.5970645, 0.4041694, -0.5188916, 0.4592469, -4.1687255, -3.9137208, -3.889186, 0
517, 1681862091, 0.5957282, 0.40373233, -0.51977956, 0.4603614, -2.8633807, -2.4370584, 11.069019, 0
518, 1681878758, 0.5942392, 0.40293595, -0.52104795, 0.4615482, -0.009802831, -5.166796, 6.73221, 0
519, 1681895425, 0.5931781, 0.40189216, -0.52168286, 0.46310326, -2.307762, -6.686994, -3.4671469, 0
520, 1681912092, 0.59214, 0.40153992, -0.5217763, 0.4646297, -2.3723722, -2.6231172, -4.251229, 0
521, 1681928759, 0.5907938, 0.40235698, -0.52178264, 0.4656281, -2.8794491, -2.0115008, 0.7024927, 0
522, 1681945426, 0.5895566, 0.40366715, -0.52131313, 0.46658736, -3.3165076, -4.1919312, 3.69318, 0
523, 1681962093, 0.5885745, 0.40502945, -0.5203065, 0.46776855, -2.9369168, -4.5210433, 3.63511, 0
524, 1681978760, 0.5875379, 0.40628883, -0.5190097, 0.46941775, -2.8958325, -2.6307435, 0.2760105, 0
525, 1681995427, 0.58627605, 0.4077943, -0.51759744, 0.4712454, -3.0467727, -1.0809743, -1.28619, 0
526, 1682012094, 0.5849445, 0.4094163, -0.51614994, 0.47307804, -2.4754238, -0.086863615, -1.0161295, 0
527, 1682028761, 0.58352464, 0.41108146, -0.514891, 0.4747563, -1.3442742, -0.53287816, 1.611268, 0
528, 1682045428, 0.5820914, 0.4125763, -0.5137061, 0.4764991, -0.079609506, -1.3775315, 2.381134, 0
529, 1682062095, 0.5808102, 0.41403788, -0.5125192, 0.47807026, -0.19695246, -1.0503829, 0.87474823, 0
530, 1682078762, 0.57989496, 0.41587815, -0.5109344, 0.479279, -0.14404516, -1.1721253, -1.3997746, 0
531, 1682095429, 0.5793865, 0.4182007, -0.5089171, 0.4800188, 0.06345332, -0.44221255, -1.5553007, 0
532, 1682112096, 0.5791579, 0.42101887, -0.50664634, 0.4802331, 0.47097242, -0.35366926, 0.054614067, 0
533, 1682128763, 0.5791446, 0.42430633, -0.50408167, 0.4800547, 0.16884594, -0.17810652, 0.5928068, 0
534, 1682145430, 0.5792526, 0.42799065, -0.5013009, 0.47956568, -0.44379252, -0.5611933, 0.51946354, 0
535, 1682162097, 0.5795723, 0.4316757, -0.4982917, 0.47901207, -0.3742892, -1.5664309, 0.3765297, 0
536, 1682178764, 0.57996744, 0.43490955, -0.49538425, 0.47862414, -0.3685646, -0.21303043, 0.10523605, 0
537, 1682195431, 0.5802017, 0.43775964, -0.49292967, 0.47827587, -0.31341413, 0.95640945, -0.23325062, 0
538, 1682212098, 0.5801958, 0.44028136, -0.49089885, 0.47805715, 0.34204477, 1.2906829, -0.19719505, 0
539, 1682228765, 0.5801166, 0.44229507, -0.489302, 0.47793147, 1.1363742, 0.27492875, -0.04185486, 0
540, 1682245432, 0.5801345, 0.4434613, -0.48818097, 0.47797534, 2.0020921, -0.33775645, 0.33979225, 0
541, 1682262099, 0.5802459, 0.44385993, -0.48751503, 0.47814983, 1.5530939, 0.33339795, 0.24565315, 0
542, 1682278766, 0.580484, 0.4439955, -0.48712158, 0.47813615, 1.5010048, 0.10226612, -0.45847225, 0
543, 1682295433, 0.580773, 0.44412303, -0.4868506, 0.47794265, 2.2776008, 0.12254858, 0.42854595, 0
544, 1682312100, 0.58106077, 0.44411144, -0.4868406, 0.47761363, 2.3031228, 0.46316758, 0.28134918, 0
545, 1682328767, 0.5814363, 0.44391173, -0.4871046, 0.47707292, 1.0545143, -0.19112079, -1.4396772, 0
546, 1682345434, 0.5820232, 0.4436898, -0.48730895, 0.47635433, 0.53886724, -0.10478508, -0.08006859, 0
547, 1682362101, 0.5827347, 0.4435192, -0.48745415, 0.47549406, 1.3895302, 0.31717628, 1.0807419, 0
548, 1682378768, 0.5833618, 0.44330582, -0.48770568, 0.47466567, 1.2657313, 0.5509277, -0.08903694, 0
549, 1682395435, 0.58392555, 0.44289067, -0.48816264, 0.47388956, 0.7281158, 0.08734551, -1.0027466, 0
550, 1682412102, 0.5845004, 0.4422675, -0.48869437, 0.47321406, 0.020792963, -0.10285194, 0.20636654, 0
551, 1682428769, 0.58513063, 0.44145188, -0.48927507, 0.4725964, 0.80389494, 0.28538045, 0.040270805, 0
552, 1682445436, 0.5856258, 0.44052795, -0.49008253, 0.47200835, 1.426607, 0.64558524, -1.056694, 0
553, 1682462103, 0.58606076, 0.4395248, -0.49096313, 0.47148833, 1.0359321, -0.1324873, -0.27625465, 0
554, 1682478770, 0.5865509, 0.43842828, -0.49178532, 0.47104254, 1.1640503, 0.60666424, 1.3312159, 0
555, 1682495437, 0.5869611, 0.43744817, -0.49271578, 0.47047007, 0.18546659, 0.52738684, -0.84891987, 0
556, 1682512104, 0.58748275, 0.43663844, -0.49352175, 0.46972606, 0.36111, 0.8064119, -1.3089561, 0
557, 1682528771, 0.5880062, 0.43584546, -0.49432433, 0.468963, 1.580587, 0.089274205, 0.7339468, 0
558, 1682545438, 0.5886143, 0.43486002, -0.49504685, 0.46835217, 0.832455, -0.06842738, 0.9387598, 0
559, 1682562105, 0.58927655, 0.43407705, -0.49557996, 0.46768126, 0.25278893, 0.2762289, 0.7016983, 0
560, 1682578772, 0.5899624, 0.433615, -0.49581924, 0.4669912, 0.40931726, 0.28960106, 0.6817093, 0
561, 1682595439, 0.5906315, 0.43311566, -0.4961955, 0.46620852, 0.7471229, 0.342623, -0.6561136, 0
562, 1682612106, 0.5913376, 0.4321917, -0.4968876, 0.46543315, 0.63759977, 0.16331086, -0.32710743, 0
563, 1682628773, 0.5919692, 0.4312734, -0.4974454, 0.4648859, 0.035957422, 1.1977425, -0.82206345, 0
564, 1682645440, 0.59247917, 0.4305006, -0.49792257, 0.46444172, 0.2868706, 0.42863727, 0.46555424, 0
565, 1682662107, 0.5929742, 0.4295332, -0.49854982, 0.4640326, 1.67579, 1.3586327, 0.2151537, 0
566, 1682678774, 0.5933023, 0.4285152, -0.49950457, 0.46352723, 0.784642, 1.0643057, -0.5771427, 0
567, 1682695441, 0.59375, 0.42751965, -0.5002477, 0.46307167, -0.44888622, 0.6472466, -0.5043497, 0
568, 1682712108, 0.5943332, 0.42667288, -0.50059986, 0.46272358, -0.18062618, 0.75075966, 0.9525013, 0
569, 1682728775, 0.594974, 0.42595506, -0.5007591, 0.462389, 1.027852, 1.1073822, 2.0748606, 0
570, 1682745442, 0.59547645, 0.4254138, -0.50095147, 0.462032, 0.8394161, 2.4688249, -0.9022808, 0
571, 1682762109, 0.595698, 0.42520323, -0.50133955, 0.46151906, 0.3153432, 2.5886343, -1.8066072, 0
572, 1682778776, 0.59597886, 0.42510808, -0.50142014, 0.4611566, -0.6418753, 2.2657363, -0.3320427, 0
573, 1682795443, 0.5963085, 0.42515445, -0.50120366, 0.4609229, -0.70544934, 1.9731185, 1.0881433, 0
574, 1682812110, 0.5967101, 0.42512634, -0.5008449, 0.46081918, 0.054738324, 3.1336424, 2.2565928, 0
575, 1682828777, 0.5970504, 0.42517143, -0.50055635, 0.46065012, 0.009296463, 4.037303, -1.4383335, 0
576, 1682845444, 0.5970558, 0.4253004, -0.50060624, 0.4604699, 1.178912, 4.797769, -2.6278124, 0
577, 1682862111, 0.5968446, 0.42519757, -0.5007487, 0.46068367, 0.96544933, 5.5702996, -2.6394982, 0
578, 1682878778, 0.59644943, 0.42506123, -0.50095844, 0.46109313, -0.32246226, 5.421676, -0.9321041, 0
579, 1682895445, 0.5961831, 0.42476615, -0.5010158, 0.46164665, 0.2607301, 5.454402, 1.6108513, 0
580, 1682912112, 0.59594965, 0.42425972, -0.5012446, 0.46216533, 1.7904955, 6.2391357, 0.72532845, 0
581, 1682928779, 0.595416, 0.42358273, -0.50190896, 0.4627526, 1.9905603, 6.2339497, -2.3928394, 0
582, 1682945446, 0.5948079, 0.4227161, -0.5025925, 0.46358448, 0.66078776, 6.000276, -2.3255877, 0
583, 1682962113, 0.59411156, 0.42168796, -0.5033519, 0.46458894, 1.6708041, 5.0416365, -3.9372673, 0
584, 1682978780, 0.593497, 0.4201454, -0.5041292, 0.46592715, 1.6211444, 5.0928087, -0.41204453, 0
585, 1682995447, 0.59284705, 0.41854978, -0.5050211, 0.46722302, 1.5170171, 6.881713, 2.812603, 0
586, 1683012114, 0.59203506, 0.41720635, -0.50622165, 0.46815395, 1.6194977, 5.1805353, -3.8551908, 0
587, 1683028781, 0.5911537, 0.41636708, -0.50736827, 0.46877313, 1.4143926, 2.3594368, -7.3117166, 0
588, 1683045448, 0.5902881, 0.41546777, -0.50859934, 0.46932772, 4.1411867, 3.061139, -0.667737, 0
589, 1683062115, 0.58886087, 0.41510904, -0.51032346, 0.46956638, -2.5923083, -3.2908325, -6.399334, 0
590, 1683078782, 0.5881872, 0.41546652, -0.51102334, 0.46933317, -3.957798, -2.4076037, 13.1654, 0
591, 1683095449, 0.5878531, 0.41554844, -0.51137805, 0.4692929, -1.0206947, -7.0201397, 7.9942856, 0
592, 1683112116, 0.58843946, 0.41479087, -0.51088786, 0.46976188, -2.4610841, -11.069985, -4.416569, 0
593, 1683128783, 0.5891953, 0.4142679, -0.5096181, 0.47065416, -2.5515094, -4.7629066, -4.5108523, 0
594, 1683145450, 0.588663, 0.41554883, -0.50908524, 0.47076792, -0.7754232, 0.51281697, 8.825186, 0
595, 1683162117, 0.587107, 0.41757014, -0.50964874, 0.47031248, -1.9923637, -4.0110626, 7.3529644, 0
596, 1683178784, 0.58634865, 0.41878963, -0.5094771, 0.47036007, -2.701423, -11.415432, -3.3610687, 0
597, 1683195451, 0.586606, 0.4188805, -0.50851136, 0.47100285, -2.224166, -7.7473426, -1.2320509, 0
598, 1683212118, 0.5865932, 0.41897354, -0.50794125, 0.47155097, -0.5801328, -1.6091498, 0.79986095, 0
599, 1683228785, 0.58615613, 0.41912547, -0.50780666, 0.4721043, 0.8638286, -1.765565, 0.66938114, 0
600, 1683245452, 0.5855944, 0.4188366, -0.5081827, 0.47265267, 1.8507953, -0.96263754, 0.94223213, 0
601, 1683262119, 0.5849873, 0.418346, -0.50905234, 0.47290325, 1.2210698, -1.5453697, -1.3900614, 0
602, 1683278786, 0.5847041, 0.41792375, -0.50972253, 0.47290468, 0.48084766, -2.0397768, 1.4219913, 0
603, 1683295453, 0.5849021, 0.41782275, -0.50985533, 0.4726059, 0.72054875, -1.5073807, -0.37799072, 0
604, 1683312120, 0.5855187, 0.41783616, -0.50960255, 0.47210297, 1.919711, -2.1617322, -0.2245493, 0
605, 1683328787, 0.5862454, 0.4178352, -0.50940955, 0.47140962, 1.4844943, 0.60170305, -0.6054926, 0
606, 1683345454, 0.5868101, 0.4182626, -0.50937474, 0.47036466, -0.09821025, -0.25452715, -0.9011822, 0
607, 1683362121, 0.58769995, 0.4187766, -0.50891656, 0.4692912, -0.5672497, -0.80190974, -0.5310087, 0
608, 1683378788, 0.5887011, 0.4192375, -0.50837624, 0.46820897, 0.5279787, -1.4686813, 1.7152052, 0
609, 1683395455, 0.58977216, 0.41937023, -0.507836, 0.4673277, 0.05502447, -1.521848, 1.6384497, 0
610, 1683412122, 0.59059644, 0.41958192, -0.5075998, 0.46635225, 0.007470697, 0.24141836, 0.75855446, 0
611, 1683428789, 0.5910268, 0.42004028, -0.50766, 0.4653279, 0.2583396, 0.5340921, -2.6513915, 0
612, 1683445456, 0.5912138, 0.42050362, -0.5080479, 0.46424714, 0.20095067, 0.011093842, -1.1286325, 0
613, 1683462123, 0.5913593, 0.42075908, -0.5086016, 0.4632232, 0.07379593, -1.7026196, 1.330287, 0
614, 1683478790, 0.5918362, 0.4206567, -0.50867516, 0.4626256, -0.24143781, -3.517409, 4.8952236, 0
615, 1683495457, 0.5926404, 0.42028388, -0.50826615, 0.4623846, -0.78535163, -3.5287442, 3.1748257, 0
616, 1683512124, 0.5934396, 0.41986135, -0.50776094, 0.46229863, -0.6580684, -1.274044, -1.1704226, 0
617, 1683528791, 0.5939181, 0.41955706, -0.50775826, 0.46196315, 0.43222332, 1.669961, -4.521199, 0
618, 1683545458, 0.5940065, 0.41928333, -0.5083582, 0.46143782, 1.4610012, 0.34341726, -1.9055333, 0
619, 1683562125, 0.5940646, 0.41861004, -0.5090652, 0.4611947, 1.3035067, -0.9138805, 1.6555128, 0
620, 1683578792, 0.59421307, 0.4176093, -0.50966614, 0.46124712, -0.027501928, -1.8469237, 1.9058123, 0
621, 1683595459, 0.5945864, 0.416291, -0.51003647, 0.46154842, -0.5170957, -1.1028249, 0.94503975, 0
622, 1683612126, 0.59493464, 0.4149048, -0.51057875, 0.46174806, 0.3020514, 0.011320484, -1.0898991, 0
623, 1683628793, 0.59524107, 0.4134734, -0.5113402, 0.46179438, 1.0687398, 1.163044, -1.0076084, 0
624, 1683645460, 0.5953497, 0.41206726, -0.5124376, 0.46169493, 1.1898535, 1.4497659, -0.7997942, 0
625, 1683662127, 0.5954316, 0.41065028, -0.5135654, 0.46159872, 1.2017623, 1.2729112, -0.45184612, 0
626, 1683678794, 0.5955084, 0.4093903, -0.51453537, 0.4615385, 1.1843352, 1.4640883, 0.17577744, 0
627, 1683695461, 0.5956283, 0.40825364, -0.515316, 0.46151972, 0.82813895, 1.572039, 0.22551155, 0
628, 1683712128, 0.59564716, 0.40748367, -0.51612514, 0.46127135, 0.91407347, 3.0452228, -0.6181288, 0
629, 1683728795, 0.59555346, 0.4070503, -0.51693845, 0.4608645, 0.89917856, 3.150258, -0.66490555, 0
630, 1683745462, 0.5954536, 0.4068702, -0.51756454, 0.4604497, -0.058567323, 2.3278913, -1.5281534, 0
631, 1683762129, 0.5955405, 0.40673205, -0.5177673, 0.46023127, -0.28706172, 1.9498723, 2.5546064, 0
632, 1683778796, 0.59568435, 0.40653202, -0.51792127, 0.46004826, 0.089367636, 2.033499, -1.2182007, 0
633, 1683795463, 0.5959234, 0.40628996, -0.51787233, 0.46000755, -0.64843756, 0.5930435, -2.827486, 0
634, 1683812130, 0.5962911, 0.40603417, -0.51752925, 0.460143, -1.0126375, 1.0244361, 1.2969074, 0
635, 1683828797, 0.5965133, 0.40585, -0.5172745, 0.46030423, 0.93783534, 2.1480432, 3.8061867, 0
636, 1683845464, 0.59634405, 0.40576074, -0.5173688, 0.46049625, 1.7072341, 1.8868003, -0.41230392, 0
637, 1683862131, 0.5959163, 0.40584412, -0.5177945, 0.4604978, -0.82809156, 1.0475392, -1.4333305, 0
638, 1683878798, 0.5956664, 0.40601903, -0.5178565, 0.46059713, -1.9768597, -0.11929959, -0.13037014, 0
639, 1683895465, 0.5955617, 0.40603417, -0.51784277, 0.46073464, 0.1533947, 0.03576073, 1.2450495, 0
640, 1683912132, 0.5954672, 0.40572074, -0.5178938, 0.46107528, 1.243832, 0.041335814, -1.2650852, 0
641, 1683928799, 0.5952733, 0.40540093, -0.5180245, 0.4614601, 0.29954872, 0.4347175, 0.4611616, 0
642, 1683945466, 0.5950602, 0.40527537, -0.5180627, 0.46180242, 0.14008741, 1.349048, 0.4837942, 0
643, 1683962133, 0.59477526, 0.40522683, -0.5182266, 0.46202803, 0.5197398, 0.8447498, -0.3038864, 0
644, 1683978800, 0.59452647, 0.40493387, -0.5185074, 0.46229005, 0.77614045, 0.34902644, -0.9980402, 0
645, 1683995467, 0.5943086, 0.40462917, -0.5187306, 0.46258655, -0.5614431, 0.34903425, -0.4096117, 0
646, 1684012134, 0.5943182, 0.40421405, -0.5187907, 0.46286967, -0.08473024, 0.09353523, 0.12576199, 0
647, 1684028801, 0.5943488, 0.4036979, -0.5188893, 0.46317035, 1.0606675, 0.2998623, 0.80055237, 0
648, 1684045468, 0.59431446, 0.40318814, -0.51899457, 0.46354017, -0.66562986, 0.5970197, -0.05263424, 0
649, 1684062135, 0.59431094, 0.40293372, -0.518997, 0.46376312, -1.582169, 1.1865766, -0.4774065, 0
650, 1684078802, 0.5943308, 0.40315443, -0.518775, 0.46379435, 0.11086153, 2.2970462, 1.0259705, 0
651, 1684095469, 0.5943152, 0.40350798, -0.51857126, 0.4637347, 1.5010288, 2.3645444, 0.4169836, 0
652, 1684112136, 0.59413034, 0.4039339, -0.518457, 0.4637283, 0.19386373, 3.3284686, -0.1358223, 0
653, 1684128803, 0.59374917, 0.4045948, -0.51813805, 0.46399668, -1.5952379, 4.3433647, -1.1023169, 0
654, 1684145470, 0.5932968, 0.40544212, -0.5175204, 0.46452484, -1.4028603, 3.975431, -0.8544092, 0
655, 1684162137, 0.5927634, 0.40614396, -0.51673234, 0.4654691, 0.060440138, 5.140993, 1.5629473, 0
656, 1684178804, 0.5920635, 0.40679342, -0.5161634, 0.46642306, -0.7098471, 5.112439, -2.2179499, 0
657, 1684195471, 0.59119517, 0.40741745, -0.51564646, 0.46755022, -0.68268275, 5.229543, 0.035746574, 0
658, 1684212138, 0.5900387, 0.40798977, -0.5152491, 0.46894807, -0.47225487, 5.915575, -0.9556494, 0
659, 1684228805, 0.58868265, 0.4083892, -0.51495814, 0.4706213, -0.3677748, 5.615642, -2.397654, 0
660, 1684245472, 0.58719045, 0.40859747, -0.5148044, 0.47246927, 0.21354227, 6.0536857, 0.512414, 0
661, 1684262139, 0.58569324, 0.40858376, -0.5146731, 0.47447807, -0.13197915, 5.3142867, -1.7930555, 0
662, 1684278806, 0.58394134, 0.4086528, -0.5149056, 0.4763222, 0.31981865, 6.371818, -0.09258175, 0
663, 1684295473, 0.58192325, 0.4087401, -0.51548004, 0.47809255, 1.41354, 5.1380177, -2.4734616, 0
664, 1684312140, 0.5800398, 0.40882602, -0.515919, 0.479831, -0.11780049, 2.689638, -3.6588507, 0
665, 1684328807, 0.5783765, 0.4092623, -0.5161824, 0.4811817, 1.1689563, 4.3143883, -0.4972086, 0
666, 1684345474, 0.5765492, 0.4103146, -0.5165054, 0.48213094, -0.8805682, 0.97506446, -2.2868772, 0
667, 1684362141, 0.5753087, 0.41141307, -0.51647586, 0.48270798, -1.4499313, -1.5842563, -0.40803432, 0
668, 1684378808, 0.5743049, 0.412819, -0.51613617, 0.48306608, -1.4810715, -1.5117636, 4.14637, 0
669, 1684395475, 0.57339203, 0.41453502, -0.51572526, 0.48311996, -1.5138853, -5.3965387, 1.0302534, 0
670, 1684412142, 0.5727826, 0.41558012, -0.5152205, 0.48348343, -1.4588168, -7.42168, 0.77241516, 0
671, 1684428809, 0.5722573, 0.416349, -0.5146152, 0.4840881, -1.4712819, -7.499993, 3.375, 0
672, 1684445476, 0.5716566, 0.4172496, -0.5138602, 0.4848237, -1.0126045, -7.48792, 3.8145885, 0
673, 1684462143, 0.5711768, 0.41821575, -0.5130773, 0.48538586, -0.9973765, -8.25624, 0.45675373, 0
674, 1684478810, 0.5712373, 0.41911787, -0.51218396, 0.48547983, -0.4733401, -7.2839727, 0.5502157, 0
675, 1684495477, 0.5716702, 0.42026588, -0.51127726, 0.4849336, 0.019171154, -6.3573937, -1.3659325, 0
676, 1684512144, 0.5725093, 0.42164963, -0.5101827, 0.48389414, 1.0039684, -5.7309966, 3.4511795, 0
677, 1684528811, 0.57353544, 0.42332512, -0.5088782, 0.48258793, 1.759967, -5.151286, 1.8820972, 0
678, 1684545478, 0.5748878, 0.42472386, -0.50748587, 0.481214, 0.93807495, -6.2945914, 0.40864277, 0
679, 1684562145, 0.5766714, 0.42581424, -0.50611323, 0.4795589, -0.009853122, -3.2664022, -1.851841, 0
680, 1684578812, 0.5784741, 0.42722654, -0.50478864, 0.4775236, 0.34889477, -1.6982094, 1.5869579, 0
681, 1684595479, 0.5802191, 0.42864922, -0.50368565, 0.47529107, 1.7203406, -1.4062083, 0.08160019, 0
682, 1684612146, 0.5819271, 0.42956522, -0.5030569, 0.47303644, 2.6897576, -2.9811869, 0.15568829, 0
683, 1684628813, 0.58377135, 0.42985994, -0.5023923, 0.47119913, 1.1523871, -2.8726678, 0.950881, 0
684, 1684645480, 0.5855626, 0.42969286, -0.50213015, 0.469405, 0.45027825, -1.1183287, 1.3662243, 0
685, 1684662147, 0.58714586, 0.42909893, -0.5023905, 0.46768892, 1.3220798, -1.2457607, 0.07344341, 0
686, 1684678814, 0.58845675, 0.42810708, -0.5031003, 0.46618477, 2.3700418, -1.3373816, -0.8728752, 0
687, 1684695481, 0.5895307, 0.42654997, -0.5043657, 0.46488607, 1.8242968, -1.12992, -0.26094437, 0
688, 1684712148, 0.59053683, 0.42447835, -0.50594294, 0.46379003, 0.8311995, -0.85362726, -0.3322401, 0
689, 1684728815, 0.59142154, 0.42237085, -0.50759286, 0.46278283, 0.6644493, -0.69151866, 1.2770405, 0
690, 1684745482, 0.5922212, 0.42046887, -0.5091366, 0.46179533, 0.857665, 0.36720765, 1.2990971, 0
691, 1684762149, 0.5929153, 0.41877657, -0.51059383, 0.46083263, 0.3919702, -0.7904128, -1.8064451, 0
692, 1684778816, 0.593666, 0.4170777, -0.51184285, 0.46002078, -0.7253677, -0.37188464, -0.06676769, 0
693, 1684795483, 0.5942924, 0.41591415, -0.51288253, 0.45910648, -0.7298639, 1.7665939, 1.1526937, 0
694, 1684812150, 0.594747, 0.41523877, -0.5136877, 0.458228, -0.054582085, 0.5352552, -0.39546967, 0
695, 1684828817, 0.5950646, 0.41475135, -0.51427984, 0.4575924, -0.23731242, 0.32841942, -0.15895271, 0
696, 1684845484, 0.5953407, 0.41420433, -0.51476926, 0.4571783, -0.9884652, -0.59596354, -1.3411274, 0
697, 1684862151, 0.59570944, 0.4134663, -0.5150167, 0.4570873, -0.6842762, -0.135475, 1.1043653, 0
698, 1684878818, 0.5958445, 0.41283926, -0.5154167, 0.45702696, -0.50103045, 1.4028118, 0.5883026, 0
699, 1684895485, 0.5958269, 0.41223603, -0.5159169, 0.45703003, 0.06948303, 0.23771855, -0.027988434, 0
700, 1684912152, 0.595712, 0.41148454, -0.5164687, 0.45723388, 0.08821699, 0.62111235, -0.39259434, 0
701, 1684928819, 0.5955429, 0.41057348, -0.5171657, 0.45748565, -0.38034976, -0.33969432, -0.5956631, 0
702, 1684945486, 0.5955093, 0.4095515, -0.51762855, 0.4579215, 0.6903502, 0.86258143, -0.8294039, 0
703, 1684962153, 0.5953496, 0.40852657, -0.5182441, 0.45834827, 0.9125437, 0.92822987, 0.107993126, 0
704, 1684978820, 0.5952371, 0.40731916, -0.518852, 0.4588809, 0.55365413, 1.3254901, 0.2260685, 0
705, 1684995487, 0.59491926, 0.40645817, -0.5195216, 0.45929888, 0.21275036, 2.1303449, -0.182333, 0
706, 1685012154, 0.5945933, 0.40603733, -0.5199798, 0.4595748, -0.65218264, 2.061177, -1.8789892, 0
707, 1685028821, 0.5942851, 0.4060796, -0.520217, 0.45966727, -0.21793899, 1.7137809, 0.20103168, 0
708, 1685045488, 0.59402955, 0.4060323, -0.52028686, 0.45996025, 0.9603411, 1.5731876, 0.65442467, 0
709, 1685062155, 0.59365386, 0.40592906, -0.52027285, 0.46055195, -0.4450085, 1.6053878, -0.5554638, 0
710, 1685078822, 0.59326196, 0.40603212, -0.5199325, 0.46134964, -1.331973, 2.3657892, 1.1041088, 0
711, 1685095489, 0.5927779, 0.40633228, -0.5195569, 0.46213034, -0.6479196, 2.272942, -1.0066357, 0
712, 1685112156, 0.59229547, 0.4064678, -0.51941115, 0.46279287, 0.5049893, 1.9281354, 0.33773994, 0
713, 1685128823, 0.5917803, 0.40658647, -0.51937693, 0.4633856, 0.12032798, 2.3228464, 0.17821121, 0
714, 1685145490, 0.59124786, 0.40690467, -0.5193352, 0.46383268, 0.07998456, 1.201904, 0.040143013, 0
715, 1685162157, 0.5908413, 0.40716094, -0.5191933, 0.46428442, 0.87689584, 0.9426748, 0.050512314, 0
716, 1685178824, 0.5904778, 0.4072566, -0.5191893, 0.4646673, 0.48184296, 0.16027354, 0.48674202, 0
717, 1685195491, 0.5903631, 0.40709016, -0.519071, 0.4650909, 0.11405218, -0.45058692, -0.53132915, 0
718, 1685212158, 0.5901558, 0.4070649, -0.51896095, 0.46549878, 0.37749618, 0.6288709, 0.6632166, 0
719, 1685228825, 0.58996534, 0.4070519, -0.5187857, 0.46594664, 0.18299587, 0.16755593, -2.686604, 0
720, 1685245492, 0.58970875, 0.40691933, -0.51880693, 0.46636316, -0.04853449, 0.51009995, 1.6708555, 0
721, 1685262159, 0.5893929, 0.406675, -0.51899874, 0.46676213, -0.25094715, 1.0602666, -0.6265135, 0
722, 1685278826, 0.5890444, 0.4065551, -0.5191553, 0.4671322, -0.35045668, -0.33003253, -0.22424221, 0
723, 1685295493, 0.58875155, 0.406491, -0.5190543, 0.467669, 0.011999517, 0.97501224, 1.8729067, 0
724, 1685312160, 0.58838224, 0.40638626, -0.519084, 0.46819174, -0.06974476, -0.07945483, -0.096982956, 0
725, 1685328827, 0.5880459, 0.40635845, -0.5190905, 0.46863112, -1.0059433, 0.66170007, -0.033254623, 0
726, 1685345494, 0.58791685, 0.40673697, -0.51858306, 0.46902612, -2.1631644, 0.7126194, -1.5457802, 0
727, 1685362161, 0.58795005, 0.40763068, -0.51768273, 0.4692032, -0.91396725, 1.3222378, 1.9302645, 0
728, 1685378828, 0.5879459, 0.40880343, -0.5165192, 0.46947053, 0.8552895, 2.4583514, -1.0536499, 0
729, 1685395495, 0.58773524, 0.41039285, -0.5152801, 0.46970925, -0.9374422, 2.4661167, -0.21958923, 0
730, 1685412162, 0.5875501, 0.4124388, -0.5135474, 0.47004604, -2.6865835, 3.6782706, 0.63529587, 0
731, 1685428829, 0.58730173, 0.41497204, -0.51133674, 0.47053665, -3.5009594, 2.7498417, 0.32853413, 0
732, 1685445496, 0.5871217, 0.41743255, -0.50895584, 0.47116596, -2.2024338, 4.0733213, 0.83137417, 0
733, 1685462163, 0.58663297, 0.42007056, -0.50668126, 0.4718812, -1.891933, 5.3043113, -1.4491196, 0
734, 1685478830, 0.5857692, 0.42295557, -0.50459933, 0.47260734, -1.0676383, 5.4271493, -3.2592883, 0
735, 1685495497, 0.58461064, 0.42581502, -0.50268143, 0.47351688, -0.8235438, 5.94326, -1.831656, 0
736, 1685512164, 0.5832619, 0.42869198, -0.5008992, 0.47447228, -1.6855816, 6.1416755, -0.05077648, 0
737, 1685528831, 0.58211684, 0.4311274, -0.49917924, 0.4754834, -1.0657679, 4.0904765, 1.2401972, 0
738, 1685545498, 0.5812458, 0.43274474, -0.49758485, 0.4767492, 0.9149548, 4.7997055, 1.6502571, 0
739, 1685562165, 0.58025926, 0.43363032, -0.4964104, 0.47836766, 1.0707414, 5.098792, -1.742548, 0
740, 1685578832, 0.57891273, 0.43405715, -0.49606344, 0.4799694, 1.8714086, 5.4081545, -3.446539, 0
741, 1685595499, 0.5773136, 0.4341197, -0.49639103, 0.48149797, 2.70984, 6.982497, -2.0963974, 0
742, 1685612166, 0.57551116, 0.4339341, -0.4975458, 0.4826295, 3.1343315, 5.417983, -4.1796465, 0
743, 1685628833, 0.57350326, 0.433496, -0.49942675, 0.4834699, 0.891375, 0.1675385, -3.0907712, 0
744, 1685645500, 0.57200444, 0.4326987, -0.5014045, 0.4839124, 0.77295476, -0.8240898, 4.9393396, 0
745, 1685662167, 0.57119244, 0.4313581, -0.5030917, 0.4843173, 1.6697825, -5.865065, -1.6928682, 0
746, 1685678834, 0.5713732, 0.42965084, -0.50376964, 0.48491657, 0.8662204, -6.862243, 0.82413864, 0
747, 1685695501, 0.5714141, 0.42877302, -0.50430036, 0.48509374, 1.6500285, 0.23744653, 3.9476147, 0
748, 1685712168, 0.570607, 0.4287436, -0.5055293, 0.48479053, 1.9352914, -3.0368564, 2.176777, 0
749, 1685728835, 0.57027686, 0.4288608, -0.5062007, 0.4843746, -0.7811407, -6.9159245, 1.8991642, 0
750, 1685745502, 0.5707924, 0.42925236, -0.50601804, 0.48361102, -0.9733055, -7.776638, 1.4705372, 0
751, 1685762169, 0.57216245, 0.429717, -0.5050409, 0.48259965, -1.6475732, -8.96197, -0.30220318, 0
752, 1685778836, 0.5738158, 0.43063417, -0.5036376, 0.48128363, -0.0093128905, -4.764059, 2.7629194, 0
753, 1685795503, 0.5752448, 0.4316921, -0.5027812, 0.4795225, 2.4233794, -5.6209135, 0.9502201, 0
754, 1685812170, 0.57668257, 0.43206638, -0.5025247, 0.4777238, 1.669972, -6.285959, -0.6440706, 0
755, 1685828837, 0.57828426, 0.43221566, -0.5024138, 0.47576532, -0.036805432, -6.090358, 1.232276, 0
756, 1685845504, 0.58009166, 0.43258545, -0.5020314, 0.4736277, 1.1992239, -5.5807447, 2.5991697, 0
757, 1685862171, 0.5821382, 0.43296763, -0.50154585, 0.47127587, 2.4185166, -5.083596, 0.06411457, 0
758, 1685878838, 0.58447516, 0.43300304, -0.5011509, 0.46876428, 2.1528976, -5.2744226, -1.3399229, 0
759, 1685895505, 0.5868663, 0.4327683, -0.5010591, 0.46608415, 1.9108187, -1.6478304, -0.13537025, 0
760, 1685912172, 0.588843, 0.4327927, -0.50148314, 0.463103, 1.6516304, -1.5362723, -2.5329237, 0
761, 1685928839, 0.5906628, 0.43249598, -0.5023471, 0.4601164, 2.753581, -1.7219478, 0.837965, 0
762, 1685945506, 0.59232, 0.43150732, -0.50362504, 0.45751, 2.7121758, -4.018309, 1.8308611, 0
763, 1685962173, 0.5941228, 0.42963892, -0.5049297, 0.45548835, 0.7386321, -3.8614519, 2.8532143, 0
764, 1685978840, 0.59598124, 0.42745003, -0.50621563, 0.45368907, -0.015407419, -2.344806, 0.41711426, 0
765, 1685995507, 0.59762806, 0.42539737, -0.50755703, 0.45195007, 0.28494886, -1.6605551, 0.21016407, 0
766, 1686012174, 0.59905267, 0.4233086, -0.5091868, 0.45018864, 1.5606316, 0.08091772, -0.79076195, 0
767, 1686028841, 0.60005945, 0.42106634, -0.51132613, 0.4485226, 0.8850545, -0.44476217, -0.41200733, 0
768, 1686045508, 0.6009585, 0.4187282, -0.5132939, 0.44725832, -0.37897494, -1.2899183, 0.09653282, 0
769, 1686062175, 0.6016878, 0.41655034, -0.51488876, 0.44647783, -1.2056128, -0.6506006, -0.653553, 0
770, 1686078842, 0.6023368, 0.41449034, -0.51612335, 0.44609398, -1.0819497, -0.94569516, 0.88226986, 0
771, 1686095509, 0.60271144, 0.412747, -0.5172702, 0.44587624, 0.14203198, 1.3732216, 1.89359, 0
772, 1686112176, 0.6027462, 0.4114302, -0.5184388, 0.4456889, -0.9737747, 0.904746, -1.506733, 0
773, 1686128843, 0.6028424, 0.41033956, -0.5192743, 0.44559196, -2.0899746, 0.25879067, 0.25874805, 0
774, 1686145510, 0.6029163, 0.40943506, -0.5199009, 0.4455932, -0.5965369, 0.22581714, 1.9843655, 0
775, 1686162177, 0.6028857, 0.40859067, -0.5203401, 0.4458967, -0.22599037, -0.2963613, -2.0558343, 0
776, 1686178844, 0.6028269, 0.4077385, -0.5206675, 0.4463739, -1.2268986, 0.144711, -0.040576935, 0
777, 1686195511, 0.6027092, 0.40711498, -0.52078223, 0.44696766, -1.1916851, 1.1784401, -0.21410942, 0
778, 1686212178, 0.6024528, 0.40692648, -0.5206823, 0.4476008, -0.67489, 0.76498497, 0.39093018, 0
779, 1686228845, 0.6022356, 0.40669993, -0.520486, 0.44832674, -0.351625, 1.3639009, -0.004240036, 0
780, 1686245512, 0.60202026, 0.40677598, -0.5201658, 0.44891822, -1.4340528, 1.1654651, -1.9625187, 0
781, 1686262179, 0.6018425, 0.40715456, -0.51951045, 0.44957182, -0.7893123, 1.6900558, 0.41615295, 0
782, 1686278846, 0.60148644, 0.4074787, -0.5190667, 0.4502666, 0.14518932, 2.6389606, -0.98716354, 0
783, 1686295513, 0.60094756, 0.40774536, -0.5188863, 0.45095217, 0.05154771, 1.9154537, 0.54828167, 0
784, 1686312180, 0.600395, 0.40827084, -0.5183878, 0.45178536, -0.662941, 2.697762, 0.21549988, 0
785, 1686328847, 0.59962296, 0.40905255, -0.5179006, 0.45266157, -0.38868278, 1.80998, -0.45363617, 0
786, 1686345514, 0.5989047, 0.4096517, -0.51731044, 0.45374438, -0.44866738, 2.101292, -0.5190525, 0
787, 1686362181, 0.5982076, 0.4102488, -0.5168943, 0.45459783, -0.8650416, 2.7595778, -0.7724695, 0
788, 1686378848, 0.5975072, 0.41092858, -0.5164915, 0.45536193, 0.33697438, 2.3829787, 0.6430607, 0
789, 1686395515, 0.5967208, 0.41164094, -0.51612675, 0.45616257, 0.64393324, 2.3335721, -0.09825611, 0
790, 1686412182, 0.59602004, 0.41228068, -0.5156661, 0.457021, 0.08978828, 1.1233777, -0.008052826, 0
791, 1686428849, 0.5954678, 0.4126992, -0.5152333, 0.45785055, 0.38145816, 1.0908617, 0.904129, 0
792, 1686445516, 0.5949106, 0.41292495, -0.5150744, 0.45854968, 0.73594457, 0.9624553, -0.663311, 0
793, 1686462183, 0.59443015, 0.41330147, -0.5147969, 0.45914486, 0.0554558, 1.1244787, -0.4270544, 0
794, 1686478850, 0.5939797, 0.41398227, -0.5144111, 0.4595468, 0.16941991, 0.50572866, -1.0112171, 0
795, 1686495517, 0.593602, 0.4144375, -0.5141116, 0.45995942, 1.0296624, 0.12569413, 0.97298336, 0
796, 1686512184, 0.59327984, 0.4147224, -0.5139324, 0.46031865, 0.3131403, 1.1032037, -0.06717777, 0
797, 1686528851, 0.59308404, 0.41516578, -0.5136585, 0.4604766, -0.39532647, -0.13744885, -1.1848783, 0
798, 1686545518, 0.5930235, 0.41547155, -0.5132806, 0.46070033, 0.27106422, 0.04142902, 0.06547642, 0
799, 1686562185, 0.5930265, 0.41553822, -0.51299626, 0.46095288, -0.21099108, -0.36171168, 0.19512272, 0
800, 1686578852, 0.59310883, 0.41547012, -0.5126617, 0.46128044, 0.4683723, 0.3857219, 1.8671904, 0
801, 1686595519, 0.59304994, 0.41561094, -0.51242673, 0.46148998, 0.6349346, 0.93474257, -0.90940094, 0
802, 1686612186, 0.5929441, 0.4158931, -0.5122335, 0.4615866, 0.42473227, 0.47110474, 0.36955833, 0
803, 1686628853, 0.5928385, 0.41619325, -0.5121616, 0.46153152, -0.14405678, 1.1506326, -0.76360893, 0
804, 1686645520, 0.5928772, 0.41645277, -0.5120098, 0.46141618, -0.33743304, -0.29530287, 0.9204855, 0
805, 1686662187, 0.5929464, 0.41673285, -0.5116362, 0.46148884, 0.015663564, 1.9147736, 0.8629198, 0
806, 1686678854, 0.5928738, 0.4173283, -0.5112417, 0.46148112, -0.29186007, 0.5790485, -0.7020626, 0
807, 1686695521, 0.5929191, 0.4179462, -0.5106704, 0.46149635, -0.8815877, 0.51567936, -1.3973694, 0
808, 1686712188, 0.5930466, 0.4185343, -0.5100198, 0.46151882, -0.8834352, 0.9900994, 2.2508097, 0
809, 1686728855, 0.5931614, 0.4191172, -0.50933886, 0.46159434, -0.107765205, 1.8001854, -0.614192, 0
810, 1686745522, 0.592974, 0.41988885, -0.5088117, 0.46171516, 0.2654422, 2.3144574, 0.47022247, 0
811, 1686762189, 0.5928286, 0.4206978, -0.50818914, 0.46185115, -0.29023382, 2.0071766, -0.6311245, 0
812, 1686778856, 0.59283483, 0.4215336, -0.50746816, 0.461874, -0.07944209, 1.8028649, -0.12819576, 0
813, 1686795523, 0.59297836, 0.42251056, -0.50650126, 0.4618583, 0.3477182, 1.9910693, 0.84625053, 0
814, 1686812190, 0.59299564, 0.42385808, -0.5055329, 0.46166214, -0.08537815, 2.9894407, -2.7475982, 0
815, 1686828857, 0.5928283, 0.4254516, -0.5046884, 0.4613351, 0.37304157, 2.34224, -2.534842, 0
816, 1686845524, 0.5926936, 0.42698738, -0.50368136, 0.46119007, -0.7465167, 2.2359352, -1.374341, 0
817, 1686862191, 0.59266347, 0.42844558, -0.50258017, 0.46107793, -1.6329271, 2.758898, 3.0484533, 0
818, 1686878858, 0.59269154, 0.4294994, -0.50159293, 0.46113634, -0.15728472, 2.614405, 2.3589182, 0
819, 1686895525, 0.5927007, 0.42993763, -0.50078064, 0.4615987, 0.32501242, 2.1028717, -0.5450506, 0
820, 1686912192, 0.5925379, 0.42951894, -0.5003148, 0.46270135, 0.76529706, 2.99485, -2.2263384, 0
821, 1686928859, 0.5917211, 0.42849422, -0.5007828, 0.46418822, 1.6989452, 5.1616335, -2.554068, 0
822, 1686945526, 0.5903523, 0.4266367, -0.5024184, 0.46587157, 2.2991493, 5.371741, -2.1093183, 0
823, 1686962193, 0.5886392, 0.42395684, -0.5050415, 0.467646, 2.9159048, 4.7084255, -1.6772213, 0
824, 1686978860, 0.5868808, 0.42077598, -0.5079303, 0.46959627, 2.5686605, 2.483288, 0.15464878, 0
825, 1686995527, 0.5852696, 0.4174445, -0.51080525, 0.47145814, 2.5060556, 1.5745616, 1.979785, 0
826, 1687012194, 0.58392, 0.41457996, -0.5133064, 0.47294015, 1.7706363, 0.45419207, -3.8705301, 0
827, 1687028861, 0.58297944, 0.41251612, -0.51508963, 0.47396573, 0.27119452, -0.41369566, -1.1275377, 0
828, 1687045528, 0.5822966, 0.41120318, -0.51659197, 0.47431055, -0.18719277, 0.54023683, -2.2201967, 0
829, 1687062195, 0.5814365, 0.41072387, -0.51789427, 0.4743608, -1.7234501, -2.1734235, 2.1119032, 0
830, 1687078862, 0.5807187, 0.41074687, -0.5184961, 0.47456262, -2.2568927, -2.5565395, 5.4053736, 0
831, 1687095529, 0.58005357, 0.41129884, -0.518443, 0.47495595, -2.3927295, -4.7418776, 1.8995991, 0
832, 1687112196, 0.57982576, 0.4120703, -0.5176188, 0.47546422, -2.1220179, -5.14781, -1.0900698, 0
833, 1687128863, 0.57950497, 0.41347635, -0.5168859, 0.475432, -1.5329678, -1.6212742, 1.1529655, 0
834, 1687145530, 0.5791447, 0.41500562, -0.5165847, 0.4748657, -0.39008778, -4.9646106, 2.7208881, 0
835, 1687162197, 0.5792793, 0.41586486, -0.51599824, 0.47458717, -0.38579232, -7.107974, 3.1001148, 0
836, 1687178864, 0.5798904, 0.41618893, -0.5152448, 0.47437528, -0.25747845, -7.031031, 1.5122461, 0
837, 1687195531, 0.5804724, 0.41633537, -0.5146795, 0.4741486, 1.0939198, -4.0625973, 0.800972, 0
838, 1687212198, 0.5807704, 0.41627577, -0.51478624, 0.47371984, 1.3081723, -3.873164, -2.438126, 0
839, 1687228865, 0.581196, 0.41564158, -0.5153829, 0.47310555, 1.3242716, -3.5610602, -0.63648796, 0
840, 1687245532, 0.58171487, 0.4149738, -0.51622546, 0.47213447, 0.63541, -2.5938125, 0.9131508, 0
841, 1687262199, 0.58243483, 0.41467613, -0.5168154, 0.4708613, 0.5766429, -2.9090033, 1.9973459, 0
842, 1687278866, 0.58333546, 0.4145817, -0.5170962, 0.4695194, 1.7862892, -2.8274949, -0.610836, 0
843, 1687295533, 0.58435947, 0.41425237, -0.5173232, 0.46828502, 1.4638152, -2.5280824, -0.4937687, 0
844, 1687312200, 0.5853146, 0.41388232, -0.5176488, 0.46705806, -0.2564344, -0.41697526, 0.26812458, 0
845, 1687328867, 0.5861437, 0.41365388, -0.51815057, 0.4656621, -0.15653908, -0.75218123, 2.40376, 0
846, 1687345534, 0.5868677, 0.41319436, -0.5188183, 0.46441296, 1.5000974, -1.7114865, -0.7735796, 0
847, 1687362201, 0.5877187, 0.41202646, -0.5195602, 0.4635443, 1.1087325, -3.8957803, -3.878088, 0
848, 1687378868, 0.5889321, 0.41024834, -0.5200209, 0.4630645, -0.024914095, -3.1769187, -2.096056, 0
849, 1687395535, 0.5901979, 0.40865532, -0.5202998, 0.46254778, -0.1960003, -1.464671, 4.319852, 0
850, 1687412202, 0.59100205, 0.4077757, -0.5206392, 0.4619151, 1.1570877, 2.3311872, 4.265109, 0
851, 1687428869, 0.5912925, 0.4071521, -0.5215229, 0.46109596, 0.66021794, -0.76749086, -0.66224, 0
852, 1687445536, 0.5916976, 0.4063611, -0.5223673, 0.4603175, -0.98371404, -0.8391825, -1.3388433, 0
853, 1687462203, 0.5920596, 0.4058206, -0.5231599, 0.45942786, -0.8805856, 0.19443683, -1.1143227, 0
854, 1687478870, 0.5924047, 0.40568927, -0.5235064, 0.45870352, -1.3403411, -1.427045, 0.53040504, 0
855, 1687495537, 0.59282196, 0.40583128, -0.5233959, 0.45816463, -0.8624073, -0.41829333, 1.9362783, 0
856, 1687512204, 0.5932717, 0.4059841, -0.52309304, 0.4577929, -0.830951, -1.7771195, 0.79704285, 0
857, 1687528871, 0.5937629, 0.40617004, -0.5223901, 0.45779398, -1.3052266, -0.5444871, -1.8772779, 0
858, 1687545538, 0.5941628, 0.40649816, -0.5217474, 0.457717, -1.2785728, -0.78597635, 0.40246105, 0
859, 1687562205, 0.5944714, 0.40680337, -0.5210417, 0.45784873, 0.9879961, 0.37934127, 0.8329191, 0
860, 1687578872, 0.5943816, 0.40686777, -0.5209379, 0.4580262, 0.58917075, -0.16047224, 0.44823837, 0
861, 1687595539, 0.5944564, 0.40662625, -0.5207544, 0.45835212, -1.2458977, -0.75806093, 1.2275047, 0
862, 1687612206, 0.5946111, 0.40653, -0.52036643, 0.4586774, -0.4420912, 0.7652136, 0.71954155, 0
863, 1687628873, 0.59460765, 0.40638292, -0.52038467, 0.45879146, 1.4877976, 1.0780413, -1.489336, 0
864, 1687645540, 0.5942493, 0.40626717, -0.5209245, 0.45874578, 1.5326102, 3.5989347, -3.0652246, 0
865, 1687662207, 0.5936748, 0.40631863, -0.5218314, 0.45841318, 1.3297896, 2.2807379, -2.3234224, 0
866, 1687678874, 0.59333533, 0.40617195, -0.5224661, 0.45825958, 1.8723041, 1.0056975, 0.7640734, 0
867, 1687695541, 0.59314287, 0.40570208, -0.5228231, 0.4585176, 1.037496, 0.38374245, 1.0137291, 0
868, 1687712208, 0.5933118, 0.40494508, -0.5229493, 0.45882422, -0.4352964, 1.5030679, 1.9541388, 0
869, 1687728875, 0.5934756, 0.40454814, -0.52293676, 0.4589767, 0.49578783, 2.7877557, -1.4016218, 0
870, 1687745542, 0.59353274, 0.40432376, -0.52315354, 0.4588537, 0.9496147, 2.4051526, -0.83137894, 0
871, 1687762209, 0.59359527, 0.40406054, -0.5234042, 0.45871884, 0.7571114, 2.3415678, -1.8682656, 0
872, 1687778876, 0.5936595, 0.40372622, -0.52367014, 0.4586264, 0.69184077, 1.3372282, -0.7626591, 0
873, 1687795543, 0.59374017, 0.40324283, -0.52383435, 0.45875978, 1.2201704, 2.146807, 0.56740665, 0
874, 1687812210, 0.5936837, 0.4028099, -0.5242422, 0.45874715, 1.0462083, 2.414484, 0.040478706, 0
875, 1687828877, 0.5935282, 0.4026859, -0.5246096, 0.45863715, 0.08170069, 1.8439598, 1.3073511, 0
876, 1687845544, 0.59347856, 0.40268952, -0.5249051, 0.45836028, -0.31963223, 0.7884026, 0.23152637, 0
877, 1687862211, 0.59355146, 0.40269378, -0.5249916, 0.45816284, -0.45728874, -0.7235204, 1.3129272, 0
878, 1687878878, 0.5937228, 0.40274686, -0.52468085, 0.4582504, -1.0216144, -0.6638491, -0.086081505, 0
879, 1687895545, 0.59387463, 0.40265393, -0.52436805, 0.4584932, -0.12164603, -0.055404615, 0.40896034, 0
880, 1687912212, 0.5938807, 0.40244254, -0.52429754, 0.45875135, -1.1249067, -0.44203812, -2.357833, 0
881, 1687928879, 0.59388787, 0.4025025, -0.5240578, 0.45896348, -2.0091414, 0.09579944, 1.1845865, 0
882, 1687945546, 0.5936983, 0.40275282, -0.5237314, 0.45936152, 0.036749583, 0.39282256, 1.5328865, 0
883, 1687962213, 0.5931543, 0.40288866, -0.5237922, 0.4598756, 0.66478723, -0.029768126, -0.96166897, 0
884, 1687978880, 0.592622, 0.40291944, -0.52370584, 0.46063268, -1.8192918, -0.8668722, -0.9188652, 0
885, 1687995547, 0.59213704, 0.40301424, -0.5234051, 0.46151447, -1.537975, 0.42086953, 1.8009634, 0
886, 1688012214, 0.5915979, 0.40298238, -0.5232393, 0.4624208, 0.15721364, 1.0495987, -0.7264557, 0
887, 1688028881, 0.59083706, 0.4029514, -0.5233595, 0.4632836, 0.33350524, 1.3736242, -0.8218765, 0
888, 1688045548, 0.59016055, 0.40291438, -0.5234948, 0.4640248, -0.37229794, 1.4357654, 0.15275097, 0
889, 1688062215, 0.58969605, 0.4029962, -0.52318645, 0.46489093, -0.18093374, 0.2615895, -0.012901306, 0
890, 1688078882, 0.5893257, 0.4031529, -0.52268136, 0.46579206, -0.13211448, 1.1930623, 0.6508684, 0
891, 1688095549, 0.58902067, 0.40341142, -0.5222138, 0.4664778, -0.111437075, 2.3290746, 0.24414062, 0
892, 1688112216, 0.5886554, 0.40408802, -0.521746, 0.4668766, -0.52721924, 2.1744208, -1.4588928, 0
893, 1688128883, 0.5884265, 0.4050608, -0.52102387, 0.46712872, -0.6427437, 1.5959439, 1.4296942, 0
894, 1688145550, 0.58829814, 0.40632734, -0.5199593, 0.46737653, -0.090674214, 3.1439228, -0.21517563, 0
895, 1688162217, 0.58824164, 0.4078559, -0.5186868, 0.46753052, -0.4305691, 2.4382777, -2.8902583, 0
896, 1688178884, 0.58832824, 0.40942392, -0.5172075, 0.46768945, 0.21627828, 4.404566, 0.26742363, 0
897, 1688195551, 0.5882192, 0.41127378, -0.5156854, 0.46788445, -0.1700757, 4.5331073, -2.0193195, 0
898, 1688212218, 0.5880899, 0.41331455, -0.51402897, 0.46807125, -1.124569, 5.3741627, 2.6556664, 0
899, 1688228885, 0.58795846, 0.41541216, -0.51240116, 0.4681643, -0.42897925, 4.748408, 0.61530113, 0
900, 1688245552, 0.58795017, 0.41704172, -0.5110043, 0.46825287, 0.794983, 3.8311217, 0.45617962, 0
901, 1688262219, 0.5879037, 0.41846132, -0.50987303, 0.4682776, 1.3548621, 6.0801296, -1.0740805, 0
902, 1688278886, 0.5875261, 0.4200279, -0.50912285, 0.46816528, 0.2064209, 5.5861673, -4.574709, 0
903, 1688295553, 0.58689123, 0.42118245, -0.50892264, 0.46814215, 1.7597609, 5.346923, -0.7136431, 0
904, 1688312220, 0.58602965, 0.4218628, -0.5090921, 0.4684244, 1.209852, 4.58513, -3.0505562, 0
905, 1688328887, 0.5853188, 0.42195445, -0.5093179, 0.46898484, 0.27086464, 0.8098333, -1.2516394, 0
906, 1688345554, 0.5846819, 0.42163095, -0.50972587, 0.4696263, 1.4004419, 3.4623272, 0.8568096, 0
907, 1688362221, 0.583582, 0.42152545, -0.510508, 0.47023937, 0.292562, 2.1318219, -1.4298687, 0
908, 1688378888, 0.58243215, 0.42158216, -0.5113435, 0.4707062, -1.1371322, -0.42542952, -3.4175887, 0
909, 1688395555, 0.58127886, 0.42181322, -0.5121336, 0.47106546, -0.8912349, 0.5387719, 1.5287876, 0
910, 1688412222, 0.58024704, 0.42233542, -0.5128478, 0.47109255, -1.6650229, -3.1784594, 1.9654102, 0
911, 1688428889, 0.57965285, 0.4223649, -0.513147, 0.47147223, -0.9594924, -6.248967, 2.5283165, 0
912, 1688445556, 0.57936585, 0.42193788, -0.51310605, 0.47225097, -0.8778534, -5.2656474, 3.4226046, 0
913, 1688462223, 0.5788388, 0.42153534, -0.51316, 0.4731973, 0.101807915, -5.774427, 1.2969265, 0
914, 1688478890, 0.5782766, 0.4210348, -0.51334506, 0.4741286, -0.36006463, -5.412826, 0.6370745, 0
915, 1688495557, 0.5779355, 0.42074892, -0.5136099, 0.4745114, -0.8017727, -5.9772425, 2.4254875, 0
916, 1688512224, 0.57811004, 0.42048186, -0.5136712, 0.47446895, -0.26874214, -7.2029963, 1.2524672, 0
917, 1688528891, 0.5785986, 0.4202263, -0.5137299, 0.47403625, 0.6782474, -7.851297, 1.0067921, 0
918, 1688545558, 0.57937, 0.42001086, -0.5135829, 0.47344378, 0.42773628, -7.141031, -0.66520596, 0
919, 1688562225, 0.58016634, 0.4199628, -0.51351756, 0.47258133, 0.25746343, -4.5556493, 1.6103287, 0
920, 1688578892, 0.580855, 0.42014167, -0.5136045, 0.4714806, -0.21270521, -4.6332197, 0.6298189, 0
921, 1688595559, 0.581599, 0.4202419, -0.5135627, 0.4705188, -0.8894707, -5.380775, 0.8585453, 0
922, 1688612226, 0.582421, 0.42030907, -0.5134207, 0.46959588, -0.78750587, -4.280775, 1.9300346, 0
923, 1688628893, 0.5832007, 0.42033845, -0.5133093, 0.46872327, -0.21797386, -2.924263, 1.1271238, 0
924, 1688645560, 0.58381444, 0.42056224, -0.51326054, 0.46781078, -0.64392966, -1.7353727, -2.7397919, 0
925, 1688662227, 0.58439505, 0.42089653, -0.5131378, 0.466919, -0.33886555, -2.3075871, -2.0661721, 0
926, 1688678894, 0.5848307, 0.4210058, -0.5133141, 0.46608037, 1.2684834, -0.805855, 1.0789042, 0
927, 1688695561, 0.585142, 0.42073247, -0.51381445, 0.46538463, 0.5248359, -2.960179, -0.08005047, 0
928, 1688712228, 0.58571255, 0.42003152, -0.5141986, 0.4648756, -0.32618675, -2.386691, 1.9934855, 0
929, 1688728895, 0.58627635, 0.41923058, -0.51472366, 0.4643063, 1.2312187, -1.2045028, -0.269619, 0
930, 1688745562, 0.5865877, 0.41837475, -0.51542187, 0.46391046, 1.3105286, -1.3418555, 2.0239534, 0
931, 1688762229, 0.58691853, 0.41746405, -0.51608825, 0.46357143, -0.2176122, -0.2839531, -1.969028, 0
932, 1688778896, 0.5873171, 0.41677713, -0.51658416, 0.46313214, -0.69849104, -1.6567464, 0.30270958, 0
933, 1688795563, 0.58783317, 0.41620064, -0.5168711, 0.46267557, 0.3144541, 0.9799812, 1.0818338, 0
934, 1688812230, 0.58818936, 0.41587216, -0.51724076, 0.46210477, -0.469978, -0.87235093, -1.1626854, 0
935, 1688828897, 0.5888239, 0.4156978, -0.51698565, 0.46173865, -1.0160923, -0.9449049, -0.71957016, 0
936, 1688845564, 0.5893388, 0.41596273, -0.51644754, 0.46144554, 0.03972071, -0.46952248, 1.6232758, 0
937, 1688862231, 0.5898569, 0.41607958, -0.5158941, 0.461297, 0.031192128, -0.33234632, 1.151392, 0
938, 1688878898, 0.59021, 0.4162042, -0.51548296, 0.46119285, -0.9467383, 0.49712634, 1.1167746, 0
939, 1688895565, 0.59061825, 0.4164102, -0.51490027, 0.46113494, -1.0947953, -0.14861645, -0.8001518, 0
940, 1688912232, 0.5908953, 0.4165936, -0.51435584, 0.46122217, 0.1998512, -0.21507847, -1.289463, 0
941, 1688928899, 0.59101, 0.41646564, -0.5141337, 0.46143827, 0.3331027, 0.14017436, 1.835825, 0
942, 1688945566, 0.59102285, 0.4160888, -0.51416093, 0.4617313, 0.49412054, 1.0766094, -0.81020737, 0
943, 1688962233, 0.59081715, 0.4158203, -0.5143477, 0.46202847, -0.2894989, -0.6837753, -0.29492188, 0
944, 1688978900, 0.59072727, 0.4155263, -0.5143418, 0.4624142, 0.17914337, 1.0213335, -0.76946926, 0
945, 1688995567, 0.5904674, 0.41529402, -0.5146378, 0.46262515, 0.49492204, 0.22689672, -0.2274847, 0
946, 1689012234, 0.5903836, 0.41491115, -0.51487, 0.4628174, 0.15692152, 0.7083016, -0.034529686, 0
947, 1689028901, 0.5902527, 0.41486388, -0.5149952, 0.4628874, 0.44079438, 1.3253505, 0.95516396, 0
948, 1689045568, 0.59007907, 0.4149049, -0.5150428, 0.4630192, 0.4382443, 0.6741365, -1.1791973, 0
949, 1689062235, 0.5899157, 0.41494036, -0.5151814, 0.46304142, 0.16740182, 1.9753306, -0.03945446, 0
950, 1689078902, 0.58968174, 0.41513065, -0.51528126, 0.46305776, 0.2746476, 1.0469269, 0.16912937, 0
951, 1689095569, 0.5894422, 0.41521442, -0.5153951, 0.4631607, 0.54063827, 1.8200638, -0.7737322, 0
952, 1689112236, 0.5891008, 0.41523954, -0.5157113, 0.4632206, 0.42305148, 0.8450171, -0.2648859, 0
953, 1689128903, 0.58877367, 0.4151241, -0.51600397, 0.46341404, 0.6806459, 2.3129222, 1.8757734, 0
954, 1689145570, 0.58847624, 0.4148916, -0.51644933, 0.463504, 0.49629936, 0.76113045, -3.195212, 0
955, 1689162237, 0.58819973, 0.41459298, -0.51685077, 0.46367463, -0.045519978, 0.9242936, 2.3133593, 0
956, 1689178904, 0.58798486, 0.41433933, -0.51719624, 0.463789, 0.8286783, 1.7704237, -1.0945301, 0
957, 1689195571, 0.5876982, 0.41409576, -0.51765543, 0.46385738, 1.2913638, 0.75286645, -0.4379263, 0
958, 1689212238, 0.5875564, 0.41378108, -0.5178655, 0.46408337, -0.5878366, 0.6075263, -0.8824253, 0
959, 1689228905, 0.5874716, 0.41360492, -0.5178766, 0.46433517, -0.43297052, 0.6794141, 1.66261, 0
960, 1689245572, 0.58739513, 0.4135586, -0.51772016, 0.4646475, 0.15348098, 0.79047704, -0.82270813, 0
961, 1689262239, 0.58731186, 0.41363204, -0.5175887, 0.46483386, -0.8014488, 0.8177257, 0.6024132, 0
962, 1689278906, 0.58722794, 0.41406786, -0.5171877, 0.4649979, -1.5917904, 0.87389857, 2.071683, 0
963, 1689295573, 0.58707994, 0.41482982, -0.5165773, 0.46518415, 0.10888344, 0.6943551, 0.2938223, 0
964, 1689312240, 0.5869721, 0.41552812, -0.5159868, 0.46535233, -0.20275038, -0.12178171, -3.8842106, 0
965, 1689328907, 0.58709663, 0.41608992, -0.5150846, 0.46569273, -1.3257039, -0.56988966, -0.3706398, 0
966, 1689345574, 0.5874214, 0.41641006, -0.5140084, 0.46618578, -0.479942, 0.8049475, 1.6119909, 0
967, 1689362241, 0.58738005, 0.41699794, -0.51331913, 0.46647203, 0.7447892, 2.562854, 2.0337496, 0
968, 1689378908, 0.58713454, 0.4177477, -0.5129656, 0.4664989, 0.64294463, 1.8437868, -1.4525547, 0
969, 1689395575, 0.58684677, 0.4185937, -0.5126696, 0.46642792, -0.26367158, 0.07638611, 0.13654423, 0
970, 1689412242, 0.58688235, 0.41913918, -0.5120263, 0.4666001, -0.66467565, -1.1943135, 0.28726482, 0
971, 1689428909, 0.5871276, 0.4193079, -0.51150584, 0.4667107, 0.73562676, -0.50398237, 0.5271187, 0
972, 1689445576, 0.5872291, 0.41948283, -0.51111376, 0.46685547, 1.4046962, 1.848837, 0.61224556, 0
973, 1689462243, 0.5871117, 0.419932, -0.5110558, 0.4666625, 0.390051, 1.8088706, -2.2591424, 0
974, 1689478910, 0.5870767, 0.420373, -0.5109818, 0.4663904, 0.21798325, 0.9423118, -0.13492012, 0
975, 1689495577, 0.58701086, 0.42075706, -0.51095206, 0.46615985, 0.7511662, 0.86219317, 1.3922224, 0
976, 1689512244, 0.5870542, 0.42081288, -0.51096576, 0.4660398, 0.1572664, -0.023660857, -0.802989, 0
977, 1689528911, 0.5872982, 0.42084485, -0.5105252, 0.46618629, -1.1841505, -0.7288563, 2.6721287, 0
978, 1689545578, 0.5875544, 0.42119947, -0.5097787, 0.46635988, -0.8407469, 2.0511212, 0.72801113, 0
979, 1689562245, 0.5876949, 0.4216884, -0.50931454, 0.46624824, 0.24478312, 2.3129492, -4.114119, 0
980, 1689578912, 0.58750004, 0.42227793, -0.50923514, 0.46604705, 1.6376693, 4.997461, -1.6740046, 0
981, 1689595579, 0.5871991, 0.42288858, -0.50908923, 0.466032, 0.4703606, 3.6729245, -0.26378918, 0
982, 1689612246, 0.5870536, 0.42346755, -0.50848967, 0.466344, -0.6581784, 2.1495879, 0.73939514, 0
983, 1689628913, 0.58709633, 0.4240298, -0.5075023, 0.46685454, -0.62038994, 3.1173334, 2.0060787, 0
984, 1689645580, 0.5870479, 0.42446533, -0.5069683, 0.46709988, 1.0685047, 5.300844, -0.69694614, 0
985, 1689662247, 0.5867176, 0.42486608, -0.5068972, 0.46722758, 0.5642713, 3.9883463, -4.081688, 0
986, 1689678914, 0.58655715, 0.4250814, -0.5064507, 0.46771702, -0.5440299, 2.5295045, -2.1458483, 0
987, 1689695581, 0.5865042, 0.4251218, -0.50572515, 0.46853128, 0.41537872, 4.0199656, 2.837222, 0
988, 1689712248, 0.58610487, 0.42488772, -0.50558823, 0.4693901, 1.8795998, 4.807512, 1.1075287, 0
989, 1689728915, 0.5852937, 0.4245954, -0.50614876, 0.47006226, 0.5629776, 4.1370654, -2.9152951, 0
990, 1689745582, 0.58419454, 0.42423308, -0.5071293, 0.4706995, 0.78518754, 2.8945146, -5.542616, 0
991, 1689762249, 0.58288115, 0.42384955, -0.5084936, 0.47120106, 0.5053999, 3.6566968, -1.5556726, 0
992, 1689778916, 0.5817817, 0.42356113, -0.50976557, 0.47144502, -0.6969892, 0.92754835, 0.0024290085, 0
993, 1689795583, 0.5808279, 0.42348856, -0.5107058, 0.4716686, -0.16258913, -1.6785039, 4.0434484, 0
994, 1689812250, 0.58024836, 0.42300203, -0.51133883, 0.4721323, -0.08629675, -2.554315, 1.1327848, 0
995, 1689828917, 0.5798214, 0.42254728, -0.5118099, 0.4725533, -0.5624053, -3.4906402, -1.03932, 0
996, 1689845584, 0.5792823, 0.42233634, -0.5120494, 0.4731435, 0.20117953, -3.620124, 1.9145517, 0
997, 1689862251, 0.5786951, 0.42236185, -0.51212853, 0.47375295, -0.92150635, -2.8202837, 2.5423384, 0
998, 1689878918, 0.57794064, 0.42261127, -0.51228863, 0.47427824, -1.052278, -4.172663, -0.7781553, 0
999, 1689895585, 0.57742006, 0.42272282, -0.51239353, 0.4746994, -0.8991616, -5.8410897, 0.50133705, 0
1000, 1689912252, 0.57703286, 0.42277998, -0.51262087, 0.47487393, 0.25202918, -5.1891413, 4.205924, 0
1001, 1689928919, 0.5769937, 0.42252985, -0.5129038, 0.47483853, 0.38224292, -8.644645, 2.7796688, 0
1002, 1689945586, 0.5775073, 0.42165837, -0.51306033, 0.4748197, 0.120666154, -7.207357, 0.3974476, 0
1003, 1689962253, 0.5780556, 0.4207124, -0.5133939, 0.47463098, 0.79793656, -5.3278303, -0.28094482, 0
1004, 1689978920, 0.5785827, 0.41953853, -0.5140658, 0.47430047, 1.1143851, -4.5312943, -1.1579952, 0
1005, 1689995587, 0.57905227, 0.41819227, -0.51511836, 0.47377425, 2.014234, -3.9731636, 0.41027737, 0
1006, 1690012254, 0.5796462, 0.4165142, -0.5164943, 0.47302744, 1.7332557, -3.3610098, 1.7144337, 0
1007, 1690028921, 0.5804913, 0.41474938, -0.5178795, 0.4720264, 0.18353565, -3.4170094, -1.1185665, 0
1008, 1690045588, 0.58161706, 0.41352218, -0.5186428, 0.47087768, 0.5388455, -1.7181728, 0.6361084, 0
1009, 1690062255, 0.5825577, 0.41291314, -0.51920474, 0.46962854, 1.7041326, -0.7019062, 1.029829, 0
1010, 1690078922, 0.583172, 0.41261777, -0.51991045, 0.46834317, 0.22093697, -0.49053583, -0.3402977, 0
1011, 1690095589, 0.58386105, 0.4124018, -0.5204433, 0.4670811, -1.2496035, -0.9188952, -0.09633446, 0
1012, 1690112256, 0.58452284, 0.412511, -0.52065176, 0.46592325, -1.461745, -0.6576888, -2.2264647, 0
1013, 1690128923, 0.5850287, 0.41265112, -0.5207839, 0.4650158, -0.5239484, -0.8060633, 1.8689299, 0
1014, 1690145590, 0.58547425, 0.41261327, -0.5208852, 0.4643749, -0.40438947, -1.55971, 0.7546072, 0
1015, 1690162257, 0.586045, 0.4125352, -0.52052635, 0.46412668, -1.8313433, -3.13907, -0.094890594, 0
1016, 1690178924, 0.5867247, 0.41274413, -0.5197709, 0.46392858, -1.5253241, -1.0666054, 1.6640635, 0
1017, 1690195591, 0.5870516, 0.41346854, -0.5191828, 0.4635286, -0.03965254, 0.39768142, -0.71265507, 0
1018, 1690212258, 0.58705544, 0.41444588, -0.51884604, 0.4630273, -0.8961595, -1.5753658, -1.4319563, 0
1019, 1690228925, 0.5871725, 0.41560337, -0.51812303, 0.462651, -2.5922415, -2.767, 0.84003067, 0
1020, 1690245592, 0.5874743, 0.41686785, -0.5169767, 0.46241263, -2.0854044, -3.1793957, 0.8200245, 0
1021, 1690262259, 0.58790725, 0.41792452, -0.51577973, 0.4622451, -0.9253749, -2.9066484, 2.192111, 0
1022, 1690278926, 0.5882858, 0.4189935, -0.5145704, 0.46214357, -1.003882, -1.1988672, 0.66320896, 0
1023, 1690295593, 0.5885045, 0.42019427, -0.5134229, 0.46205145, -0.494891, -1.2065749, -1.4759111, 0
1024, 1690312260, 0.5885832, 0.4213324, -0.5123155, 0.4621438, -0.0904253, -1.3126826, 0.35116386, 0
1025, 1690328927, 0.58859473, 0.4221327, -0.51135504, 0.4624624, 0.54234993, 0.14924452, 2.015812, 0
1026, 1690345594, 0.5887467, 0.42248464, -0.5106746, 0.46269932, -0.5830217, -1.6680807, -2.3710537, 0
1027, 1690362261, 0.58901185, 0.42264557, -0.5098515, 0.4631223, -0.63919854, -0.13367952, 1.9265928, 0
1028, 1690378928, 0.58919555, 0.4227988, -0.50923306, 0.46342936, 0.5971591, 1.5015209, -0.037373543, 0
1029, 1690395595, 0.5891888, 0.42283145, -0.509139, 0.46351132, 2.1742382, 1.3867568, -0.65383434, 0
1030, 1690412262, 0.5892029, 0.4225718, -0.5091795, 0.46368584, 0.529128, 0.5737629, -2.4362855, 0
1031, 1690428929, 0.5891914, 0.42234164, -0.50926775, 0.46381325, 0.33607024, 1.2928469, 1.9293852, 0
1032, 1690445596, 0.58936185, 0.42198536, -0.5092265, 0.46396586, 1.7678534, 2.2379377, -0.5203743, 0
1033, 1690462263, 0.58939385, 0.42165628, -0.5094552, 0.46397346, 1.672083, 1.9588484, -0.620656, 0
1034, 1690478930, 0.5894427, 0.42134836, -0.5095841, 0.46404943, 0.061393645, 2.9174514, 0.31064796, 0
1035, 1690495597, 0.58944, 0.42129317, -0.50973266, 0.46393988, 0.016755983, 2.8359213, -1.667758, 0
1036, 1690512264, 0.58940744, 0.42136654, -0.509857, 0.46377787, 1.3591805, 2.3994033, 0.35708618, 0
1037, 1690528931, 0.5892828, 0.42140758, -0.51006585, 0.46366933, 0.88319826, 2.4937632, -1.2357264, 0
1038, 1690545598, 0.58909756, 0.42132336, -0.5104007, 0.46361294, 0.2614147, 2.3239045, -0.71929073, 0
1039, 1690562265, 0.5889797, 0.4213134, -0.5105557, 0.4636012, 0.17532513, 2.0280738, -0.7347069, 0
1040, 1690578932, 0.58893096, 0.42130816, -0.5106074, 0.46361062, 0.52126884, 1.2540706, 0.13924694, 0
1041, 1690595599, 0.5889627, 0.42106003, -0.5108301, 0.46355054, 0.9448172, 1.0019902, -0.078154564, 0
1042, 1690612266, 0.58897585, 0.4207846, -0.51107025, 0.46351913, 0.78475356, 1.0102656, 0.28914833, 0
1043, 1690628933, 0.58900106, 0.42058605, -0.5112937, 0.46342087, 0.7606528, 0.58252954, -0.058558464, 0
1044, 1690645600, 0.5890656, 0.42032507, -0.51156914, 0.4632715, 1.1625637, -0.23723628, 0.14796925, 0
1045, 1690662267, 0.5891901, 0.41990662, -0.5118943, 0.46313354, 1.1581867, 0.8556087, 0.7754793, 0
1046, 1690678934, 0.5893447, 0.4195422, -0.512366, 0.46274555, 0.49441043, -0.12896071, -0.18101978, 0
1047, 1690695601, 0.58964854, 0.41929087, -0.51251364, 0.46242255, 0.28634626, 0.08363162, 0.7852173, 0
1048, 1690712268, 0.58982646, 0.4190663, -0.51277775, 0.4621064, 1.0213536, -0.037069846, 1.0100174, 0
1049, 1690728935, 0.5900307, 0.41867253, -0.51299775, 0.46195844, -0.5719216, -0.30351898, -0.8519869, 0
1050, 1690745602, 0.5902337, 0.4184611, -0.5131458, 0.4617261, -0.69040585, 0.7491857, 1.821456, 0
1051, 1690762269, 0.5904282, 0.4181638, -0.51326996, 0.46160862, 0.12987399, 0.14603387, -2.0340614, 0
1052, 1690778936, 0.59051585, 0.41788262, -0.5133175, 0.46169809, 0.2098932, 0.20000699, 0.32805634, 0
1053, 1690795603, 0.5904856, 0.4174671, -0.51345396, 0.46196127, 0.11085863, 1.0112276, 1.3799591, 0
1054, 1690812270, 0.59029883, 0.4170275, -0.5138264, 0.46218276, 0.6446402, 1.5513333, -0.8609657, 0
1055, 1690828937, 0.58996564, 0.41682032, -0.5141819, 0.4623997, -0.9600521, 0.8827081, -2.1150284, 0
1056, 1690845604, 0.5897416, 0.41671973, -0.5143523, 0.4625867, -0.10615781, 0.8501963, 1.7954159, 0
1057, 1690862271, 0.5894652, 0.4165359, -0.5144912, 0.46294987, 0.7822332, 0.8793364, -0.14957619, 0
1058, 1690878938, 0.58910155, 0.41631877, -0.5148676, 0.46318975, -0.87060195, 1.2802395, 0.8733349, 0
1059, 1690895605, 0.5888124, 0.4164486, -0.5148441, 0.46346647, -1.8392036, 1.5992149, -0.091329575, 0
1060, 1690912272, 0.5885941, 0.41703695, -0.51433015, 0.4637854, -1.0530876, 0.5490551, 0.4449072, 0
1061, 1690928939, 0.5885301, 0.41746277, -0.51364386, 0.46424365, 0.046461415, 2.088139, 1.079917, 0
1062, 1690945606, 0.588299, 0.41790247, -0.51317626, 0.46465796, -0.20632906, 2.5451274, -1.1682806, 0
1063, 1690962273, 0.58797055, 0.418495, -0.51256526, 0.4652146, -0.55901396, 4.2603045, -0.9377861, 0
1064, 1690978940, 0.5872988, 0.41949764, -0.51198983, 0.46579355, -0.95966953, 4.164094, -2.7850642, 0
1065, 1690995607, 0.58661515, 0.4203859, -0.51136446, 0.46654052, -0.49245158, 2.6431713, -0.6209879, 0
1066, 1691012274, 0.58600265, 0.42117247, -0.51058376, 0.46745488, -0.19096544, 4.238028, 1.6854315, 0
1067, 1691028941, 0.5855643, 0.42187974, -0.5096456, 0.46838924, -1.1208956, 3.2764254, -0.4009962, 0
1068, 1691045608, 0.58522964, 0.4224791, -0.50862324, 0.46937752, 0.27497438, 4.504074, 1.1790667, 0
1069, 1691062275, 0.58452344, 0.42302024, -0.50797695, 0.4704688, 1.6663595, 5.616214, -2.9825454, 0
1070, 1691078942, 0.58341354, 0.42303216, -0.5080892, 0.4717128, 1.964125, 4.0646844, -2.4240623, 0
1071, 1691095609, 0.58222055, 0.4224472, -0.50862646, 0.47312972, 1.2823416, 3.8259876, -0.4013548, 0
1072, 1691112276, 0.5810308, 0.42154896, -0.5094263, 0.47453108, 1.3302962, 4.3056917, -1.0831556, 0
1073, 1691128943, 0.5797758, 0.4205314, -0.5106347, 0.47566897, 1.9879276, 0.967564, -5.530063, 0
1074, 1691145610, 0.57860744, 0.41926998, -0.5121744, 0.47654852, 0.6547137, 0.88992333, -0.4256382, 0
1075, 1691162277, 0.57751906, 0.4179251, -0.514176, 0.4768945, 0.92884296, -1.7665113, 1.2642937, 0
1076, 1691178944, 0.57669675, 0.41624275, -0.51606715, 0.47731817, 1.5215111, -2.6557772, 2.02384, 0
1077, 1691195611, 0.57614267, 0.41450435, -0.51752263, 0.477924, -1.4870307, -3.7383888, -0.1258192, 0
1078, 1691212278, 0.5756842, 0.41309136, -0.5186687, 0.47845694, -0.53407615, -4.3059134, 0.46294785, 0
1079, 1691228945, 0.5750711, 0.4120232, -0.5196849, 0.4790124, 0.25660002, -3.2533574, 2.7433872, 0
1080, 1691245612, 0.57421726, 0.41160637, -0.5206019, 0.47939888, -1.414272, -6.2259865, 2.6991873, 0
1081, 1691262279, 0.57393557, 0.41158974, -0.5204205, 0.4799472, -3.1352265, -7.49325, 3.2277298, 0
1082, 1691278946, 0.5740115, 0.41226268, -0.51956815, 0.48020217, -3.0416198, -6.0605617, 1.2853947, 0
1083, 1691295613, 0.5743474, 0.4134401, -0.5184325, 0.48001596, -3.1588664, -5.2629867, 0.13468933, 0
1084, 1691312280, 0.57466096, 0.41500935, -0.51738954, 0.4794115, -1.2458075, -3.7690372, 0.624815, 0
1085, 1691328947, 0.57497334, 0.4168321, -0.51621085, 0.47872543, -1.1701261, -5.4133825, 1.6235876, 0
1086, 1691345614, 0.57560164, 0.41867745, -0.51466924, 0.47801948, -1.0538691, -4.3325696, 1.5173817, 0
1087, 1691362281, 0.5764831, 0.42051, -0.513063, 0.47707435, 0.42561516, -4.706425, 1.1154089, 0
1088, 1691378948, 0.5775685, 0.4221761, -0.5114142, 0.47605944, 0.7900888, -2.6045873, -1.6219797, 0
1089, 1691395615, 0.5784562, 0.42393482, -0.51019627, 0.47472358, 1.4059213, -1.4126095, -1.7889585, 0
1090, 1691412282, 0.5793682, 0.4254278, -0.5093205, 0.4732139, 2.1973374, -1.858762, -0.59236336, 0
1091, 1691428949, 0.5805087, 0.4265611, -0.5085307, 0.47164288, 1.791675, -2.8273582, 0.18084335, 0
1092, 1691445616, 0.58205664, 0.42708865, -0.5078746, 0.46996167, 1.4742076, -2.0298214, 2.7322187, 0
1093, 1691462283, 0.5834355, 0.4272877, -0.507778, 0.4681719, 2.63322, -0.4014568, 1.7223072, 0
1094, 1691478950, 0.58457494, 0.42727858, -0.50793356, 0.46658716, 1.7715089, -1.7030294, -0.22000217, 0
1095, 1691495617, 0.585792, 0.42672387, -0.5083211, 0.46514443, 1.3327688, -1.1931854, -3.1930604, 0
1096, 1691512284, 0.5868573, 0.42582688, -0.50917876, 0.4636832, 1.8329692, -0.7118937, 1.0123978, 0
1097, 1691528951, 0.5878778, 0.42456466, -0.5103737, 0.46223208, 1.9515196, 0.086446315, -0.16903019, 0
1098, 1691545618, 0.5889353, 0.4230978, -0.5115249, 0.46095634, 0.6775822, -2.5482154, 1.3117676, 0
1099, 1691562285, 0.5903626, 0.4216373, -0.5120632, 0.45986968, 0.22792578, -0.27104098, 0.24899578, 0
1100, 1691578952, 0.59155786, 0.42065835, -0.5125921, 0.45863944, 0.72747993, -1.0032235, -0.13410187, 0
1101, 1691595619, 0.59279674, 0.4197123, -0.5128595, 0.4576067, -0.1507919, -0.27820948, -2.18461, 0
1102, 1691612286, 0.5936988, 0.41901857, -0.5132529, 0.45663092, -0.255387, 0.297709, 1.8773565, 0
1103, 1691628953, 0.59457135, 0.41859332, -0.51333076, 0.45579746, -0.8771131, -0.15859295, -0.72425747, 0
1104, 1691645620, 0.5952083, 0.41854677, -0.5132927, 0.45505103, -0.4711794, -0.23852162, 0.56818295, 0
1105, 1691662287, 0.59577787, 0.41849583, -0.5130855, 0.45458612, -0.3640644, -0.21403556, 0.9024296, 0
1106, 1691678954, 0.5960875, 0.41851205, -0.5130396, 0.45421702, -0.54837805, 1.1032116, -1.0283651, 0
1107, 1691695621, 0.5961715, 0.41858774, -0.51306623, 0.4540067, -0.7652196, 0.8410971, 1.1204729, 0
1108, 1691712288, 0.59617704, 0.4184592, -0.51313084, 0.45404482, -0.0635197, 0.8760293, -0.32456684, 0
1109, 1691728955, 0.59596133, 0.41798398, -0.51353127, 0.45431304, -0.21678925, 0.52409655, 0.36902237, 0
1110, 1691745622, 0.5956361, 0.41718772, -0.5141309, 0.45479292, -0.43638268, 0.91941875, -0.2839985, 0
1111, 1691762289, 0.59510136, 0.41622853, -0.5150297, 0.45535457, 0.0804251, 0.6514122, -1.1589336, 0
1112, 1691778956, 0.594456, 0.4151421, -0.5159552, 0.45614076, 0.3466762, 0.06946336, -0.5872221, 0
1113, 1691795623, 0.593745, 0.4140263, -0.51687545, 0.4570383, 0.18540646, 0.7546437, 1.7525873, 0
1114, 1691812290, 0.5929791, 0.41309288, -0.5177731, 0.4578605, 0.5243708, 1.397111, -0.52878857, 0
1115, 1691828957, 0.5920508, 0.41252482, -0.51858306, 0.45865646, -0.17156988, 0.87776625, -1.5039349, 0
1116, 1691845624, 0.5913833, 0.41195613, -0.5190711, 0.45947596, -0.95224255, 0.20023118, -1.6136608, 0
1117, 1691862291, 0.59099656, 0.41147953, -0.5191369, 0.46032575, -0.8057398, -0.35102308, 0.8598528, 0
1118, 1691878958, 0.59061295, 0.41116625, -0.51906496, 0.4611781, 0.27819324, 1.8363622, 2.4589682, 0
1119, 1691895625, 0.5897129, 0.4113414, -0.5192873, 0.461923, 0.047627706, 3.0157688, 0.7277098, 0
1120, 1691912292, 0.5887265, 0.4119569, -0.51939744, 0.4625085, -2.0631614, 1.0892613, -2.2598748, 0
1121, 1691928959, 0.5880242, 0.412911, -0.5189671, 0.46303406, -2.126383, -0.22571255, 1.6748648, 0
1122, 1691945626, 0.5876114, 0.41364396, -0.51821554, 0.4637448, -0.31011015, -0.50399196, -0.66034317, 0
1123, 1691962293, 0.5872817, 0.41410473, -0.51747227, 0.46458042, -0.44516316, -0.47700793, -0.31367016, 0
1124, 1691978960, 0.58690834, 0.4146913, -0.5166986, 0.46538946, 0.13929282, 2.1085312, 2.1182985, 0
1125, 1691995627, 0.58650225, 0.41534716, -0.5160608, 0.46602404, 1.1137416, 0.60937935, -1.9129629, 0
1126, 1692012294, 0.58616763, 0.41600806, -0.51537675, 0.46661198, -0.37249976, 0.12899156, -1.2798338, 0
1127, 1692028961, 0.5860724, 0.41668263, -0.51465124, 0.46693045, 0.100596696, 0.708486, 1.5034952, 0
1128, 1692045628, 0.58613056, 0.41711655, -0.5140513, 0.46713087, 2.0172205, -0.19111732, -0.055059433, 0
1129, 1692062295, 0.58627623, 0.41740355, -0.51358694, 0.46720234, 1.1150016, 0.40115055, -1.0274839, 0
1130, 1692078962, 0.58645636, 0.41790056, -0.5131377, 0.46702564, -0.11213642, 0.7705359, 0.059096336, 0
1131, 1692095629, 0.5867583, 0.41832575, -0.5128029, 0.46663314, 1.2152091, 0.61967695, -0.93573093, 0
1132, 1692112296, 0.5870128, 0.41862664, -0.51265347, 0.46620733, 1.6153655, 0.32160655, 1.1974897, 0
1133, 1692128963, 0.5873157, 0.41867974, -0.51265156, 0.46578017, 1.1852988, -0.12988137, 1.8233509, 0
1134, 1692145630, 0.58771133, 0.4185205, -0.5127398, 0.46532685, 0.99249387, 0.41124642, 0.07637882, 0
1135, 1692162297, 0.5879486, 0.41851208, -0.512949, 0.46480393, 0.033782866, 0.7684874, -0.93439484, 0
1136, 1692178964, 0.5882791, 0.4183173, -0.5132779, 0.4641975, 0.1864563, 0.4496008, -0.6854172, 0
1137, 1692195631, 0.58855784, 0.4179896, -0.51367587, 0.46369892, 0.46031645, 0.1401462, -0.59384346, 0
1138, 1692212298, 0.5889758, 0.4174365, -0.51386726, 0.46345425, 0.61581665, -0.5254571, -0.739151, 0
1139, 1692228965, 0.58924544, 0.41675425, -0.51416993, 0.46339005, 1.0842891, 0.86636883, 1.2744646, 0
1140, 1692245632, 0.5892975, 0.41616148, -0.5146756, 0.46329492, 0.9422662, 1.3011233, -0.5554886, 0
1141, 1692262299, 0.5891462, 0.41571507, -0.51537627, 0.46310914, 0.324729, 0.9276644, 0.78368664, 0
1142, 1692278966, 0.5889961, 0.41542286, -0.5159002, 0.46297875, -0.6662854, -0.13490728, 0.79666424, 0
1143, 1692295633, 0.5890966, 0.41527057, -0.51605254, 0.46281785, -0.7725758, -0.75362146, 0.0735302, 0
1144, 1692312300, 0.58945405, 0.41521946, -0.5157638, 0.46273053, -0.82308805, -1.0840205, -1.3502178, 0
1145, 1692328967, 0.58976996, 0.41531804, -0.51545125, 0.46258786, -0.37313253, 1.3547064, 0.5421171, 0
1146, 1692345634, 0.5900832, 0.4157687, -0.5149489, 0.4623432, -0.8503472, 1.3925289, -1.9059734, 0
1147, 1692362301, 0.5903473, 0.41699636, -0.5139508, 0.46201068, -1.4221224, 1.7027373, 1.9826317, 0
1148, 1692378968, 0.59070385, 0.418717, -0.5124791, 0.46163338, -0.9535778, 0.7078217, 1.251235, 0
1149, 1692395635, 0.5912382, 0.42055398, -0.5106899, 0.46126223, -1.507455, 0.3866926, 1.2990055, 0
1150, 1692412302, 0.5918821, 0.42267412, -0.50848854, 0.46093047, -2.213015, 0.92824996, 2.6013536, 0
1151, 1692428969, 0.5923705, 0.4250013, -0.5063103, 0.46056092, -0.7487994, 3.1775317, -2.248694, 0
1152, 1692445636, 0.5923531, 0.4275231, -0.50471634, 0.45999837, 0.13375495, 3.4399996, -5.154444, 0
1153, 1692462303, 0.59220165, 0.43006954, -0.5031382, 0.45954826, -0.86193323, 3.8014905, 0.22483921, 0
1154, 1692478970, 0.59222275, 0.43223152, -0.5015428, 0.45923638, -0.8760163, 2.6282911, 1.5666094, 0
1155, 1692495637, 0.5923314, 0.43365398, -0.50000936, 0.4594274, -0.05601949, 1.5179615, 3.1718607, 0
1156, 1692512304, 0.592565, 0.43387452, -0.4989687, 0.46004885, 1.4715909, 3.8619297, -0.6704674, 0
1157, 1692528971, 0.59220123, 0.43333566, -0.4991282, 0.4608514, 1.9334143, 4.312003, -5.8121047, 0
1158, 1692545638, 0.591019, 0.43252334, -0.50033355, 0.46182424, 2.3186743, 6.440393, -0.54900265, 0
1159, 1692562305, 0.5894466, 0.43053252, -0.5026346, 0.4631935, 3.4531763, 3.3974202, -2.2996235, 0
1160, 1692578972, 0.5878441, 0.42713413, -0.50573593, 0.4649969, 2.6959286, 0.8153758, -0.8333912, 0
1161, 1692595639, 0.58650476, 0.42316082, -0.50890285, 0.46686214, 2.1462677, 0.58746713, -0.07893944, 0
1162, 1692612306, 0.58498675, 0.41929558, -0.5124318, 0.46839148, 3.9364526, 0.6778351, -2.6547294, 0
1163, 1692628973, 0.5831497, 0.41584894, -0.5160406, 0.46979076, 1.7569412, -0.88316673, -2.4030213, 0
1164, 1692645640, 0.58142716, 0.4127188, -0.5194345, 0.47094446, 0.12048287, -0.17697264, 2.889718, 0
1165, 1692662307, 0.5798038, 0.4101451, -0.5224955, 0.4718071, -1.6541601, -1.9661306, 1.735012, 0
1166, 1692678974, 0.5786639, 0.40779778, -0.5248195, 0.4726613, -1.5798448, -4.0132866, 2.3719683, 0
1167, 1692695641, 0.57771194, 0.4055032, -0.5267222, 0.4736823, 0.6702858, -5.565168, 0.21765327, 0
