sep=,
DeviceTag:,Xsens_DOT_1,,,,,,,,,,,,,,,,,
FirmwareVersion:,3.0.0,,,,,,,,,,,,,,,,,
AppVersion:,2023.6.1,,,,,,,,,,,,,,,,,
SyncStatus:,Synced,,,,,,,,,,,,,,,,,
OutputRate:,60Hz,,,,,,,,,,,,,,,,,
FilterProfile:,General,,,,,,,,,,,,,,,,,
Measurement Mode:,Sensor fusion Mode - Extended (Quaternion),,,,,,,,,,,,,,,,,
StartTime:,2025-05-05 12:06:40.090 +0200,,,,,,,,,,,,,,,,,
 2025,,,,,,,,,,,,,,,,,,,

PacketCounter,SampleTimeFine,Quat_W,Quat_X,Quat_Y,Quat_Z,FreeAcc_X,FreeAcc_Y,FreeAcc_Z,Status
1, 3593083648, 0.8909083, -0.0060286894, 0.397873, 0.21913883, -0.12508006, -0.029454663, 0.2272358, 0
2, 3593100315, 0.8908609, -0.006275043, 0.39807487, 0.21895756, -0.12047675, -0.07619822, 0.27475166, 0
3, 3593116982, 0.8908022, -0.0065037087, 0.39830357, 0.21877414, -0.1714098, -0.039074745, 0.2922926, 0
4, 3593133649, 0.8907137, -0.0067081377, 0.39857998, 0.21862452, -0.25199354, 0.019252429, 0.22264099, 0
5, 3593150316, 0.89061075, -0.006881401, 0.398884, 0.21848409, -0.23430854, -0.017263567, 0.23932457, 0
6, 3593166983, 0.89052767, -0.007007152, 0.39912507, 0.21837881, -0.18722874, -0.082515776, 0.23478031, 0
7, 3593183650, 0.8904668, -0.007094577, 0.39929286, 0.21831737, -0.16615285, -0.07718676, 0.22131729, 0
8, 3593200317, 0.8904308, -0.007149823, 0.39939228, 0.21828055, -0.15057118, -0.07849257, 0.23467636, 0
9, 3593216984, 0.89040256, -0.0071774647, 0.3994703, 0.21825233, -0.14804758, -0.060499746, 0.23678684, 0
10, 3593233651, 0.89036673, -0.007207282, 0.3995636, 0.21822691, -0.1337877, -0.05125599, 0.20390987, 0
11, 3593250318, 0.8903513, -0.007245466, 0.39961085, 0.21820173, -0.11174801, -0.0018328901, 0.23831272, 0
12, 3593266985, 0.89037323, -0.0073019415, 0.3995669, 0.218191, -0.071952455, -0.024057608, 0.23731804, 0
13, 3593283652, 0.8904149, -0.0073385835, 0.39946, 0.21821518, -0.09179375, -0.02635366, 0.18559456, 0
14, 3593300319, 0.89047104, -0.0073622838, 0.3993427, 0.21820012, -0.09075982, -0.0061326646, 0.2772913, 0
15, 3593316986, 0.89052546, -0.0074190423, 0.39925167, 0.21814264, -0.05337587, 0.0071840417, 0.32806396, 0
16, 3593333653, 0.890534, -0.0075032935, 0.39926156, 0.21808723, -0.06144242, 0.013711751, 0.23792171, 0
17, 3593350320, 0.8905043, -0.0076075047, 0.39934605, 0.21805018, -0.048777405, 0.05965963, 0.18239594, 0
18, 3593366987, 0.89049685, -0.007712811, 0.39937738, 0.21801896, -0.041931614, 0.051682286, 0.24015331, 0
19, 3593383654, 0.89054203, -0.0078001022, 0.39930236, 0.21796851, -0.054210786, -0.0154032, 0.20193958, 0
20, 3593400321, 0.89059675, -0.007892378, 0.39920226, 0.2179249, -0.036867995, -0.060511664, 0.2437439, 0
21, 3593416988, 0.8906437, -0.007988855, 0.39911222, 0.21789442, -0.062115703, -0.010184675, 0.2548008, 0
22, 3593433655, 0.8906698, -0.008103646, 0.39907253, 0.21785706, -0.10132707, 0.035299458, 0.24794579, 0
23, 3593450322, 0.890676, -0.0082209855, 0.39908034, 0.21781191, -0.07136025, 0.034912445, 0.28450108, 0
24, 3593466989, 0.8906645, -0.008334324, 0.3991113, 0.21779864, -0.012220515, 0.020294487, 0.24470139, 0
25, 3593483656, 0.8906363, -0.008433685, 0.39918292, 0.21777873, -0.04048861, 0.010167241, 0.23413944, 0
26, 3593500323, 0.8906088, -0.008537918, 0.399273, 0.21772222, -0.052849397, 0.03625693, 0.22828293, 0
27, 3593516990, 0.8905912, -0.008643918, 0.39935675, 0.21763629, -0.05083347, 0.08136298, 0.24088097, 0
28, 3593533657, 0.890557, -0.008745335, 0.39944854, 0.21760407, -0.046832707, 0.06355604, 0.24294281, 0
29, 3593550324, 0.8905164, -0.0088713765, 0.39955282, 0.21757326, -0.028713526, 0.06976781, 0.21987724, 0
30, 3593566991, 0.89045876, -0.00898885, 0.39970583, 0.21752304, -0.019126866, 0.0062301722, 0.27288055, 0
31, 3593583658, 0.8903855, -0.009104572, 0.39990005, 0.2174612, -0.007288248, 0.0055555543, 0.27559185, 0
32, 3593600325, 0.89031047, -0.009275489, 0.4001149, 0.21736628, -0.0041960576, 0.00957014, 0.2293539, 0
33, 3593616992, 0.89024925, -0.009443283, 0.400287, 0.21729325, -0.024188956, 0.030439839, 0.21150398, 0
34, 3593633659, 0.89024526, -0.009587668, 0.4003279, 0.21722764, -0.03754017, 0.06499388, 0.16726589, 0
35, 3593650326, 0.8902835, -0.009697184, 0.40025613, 0.21719831, -0.03812729, 0.03050048, 0.20891476, 0
36, 3593666993, 0.89036065, -0.009782217, 0.40006763, 0.21722554, -0.028059851, -0.024796402, 0.23333073, 0
37, 3593683660, 0.8904577, -0.009882584, 0.3998533, 0.2172174, -0.06277858, -0.033131268, 0.24783516, 0
38, 3593700327, 0.8905346, -0.009998731, 0.3997006, 0.2171783, -0.09535651, -0.02460527, 0.29929066, 0
39, 3593716994, 0.8905735, -0.010157734, 0.39960155, 0.21719351, -0.12469775, 0.030162543, 0.29855633, 0
40, 3593733661, 0.8905973, -0.010289609, 0.3995504, 0.21718419, -0.10184834, 0.0045370474, 0.24568272, 0
41, 3593750328, 0.89061636, -0.010419741, 0.399501, 0.21719025, -0.118417405, 0.004828788, 0.22113132, 0
42, 3593766995, 0.8906505, -0.010542586, 0.39942074, 0.21719176, -0.061168622, -0.01804863, 0.20673656, 0
43, 3593783662, 0.8907159, -0.010656901, 0.39927807, 0.21718022, -0.067763686, -0.012592818, 0.2476387, 0
44, 3593800329, 0.89077955, -0.010788232, 0.39914587, 0.21715607, -0.06870807, -0.01617346, 0.25849247, 0
45, 3593816996, 0.8907745, -0.010951132, 0.39912823, 0.2172009, -0.111066036, -0.028808795, 0.27594852, 0
46, 3593833663, 0.89073884, -0.011127993, 0.3992176, 0.21717377, -0.09077205, -0.02069459, 0.28957462, 0
47, 3593850330, 0.89068514, -0.011404447, 0.39931524, 0.21719988, -0.07365034, -0.008271838, 0.23834705, 0
48, 3593866997, 0.8906618, -0.011677448, 0.39937487, 0.21717222, -0.038022723, -0.055181913, 0.20702076, 0
49, 3593883664, 0.8906796, -0.011974849, 0.39934838, 0.2171321, 0.002892366, -0.07628014, 0.1970272, 0
50, 3593900331, 0.8907533, -0.012272336, 0.39922473, 0.21704006, -0.0043009585, -0.08611088, 0.22187233, 0
51, 3593916998, 0.8908602, -0.01266256, 0.3989882, 0.21701348, -0.043079842, -0.05856408, 0.26102924, 0
53, 3593950332, 0.89124227, -0.013465017, 0.39829847, 0.21666317, -0.101116545, -0.00714536, 0.22234249, 0
55, 3593983666, 0.8916728, -0.014291592, 0.3974155, 0.21646023, -0.13236487, 0.009985916, 0.21242905, 0
57, 3594017000, 0.8922235, -0.015143953, 0.3963156, 0.21615008, -0.07705246, -0.112221986, 0.29354477, 0
58, 3594033667, 0.8925967, -0.015466254, 0.39574456, 0.21563144, -0.08632475, -0.10741841, 0.26120853, 0
60, 3594067001, 0.8932081, -0.016249027, 0.39457354, 0.21518815, -0.12323205, 0.035204772, 0.20359135, 0
61, 3594083668, 0.8934658, -0.016605377, 0.39397344, 0.21518981, -0.15148726, 0.05827209, 0.22865677, 0
62, 3594100335, 0.8937651, -0.016924608, 0.3932996, 0.2151547, -0.118301705, 0.031927526, 0.23808956, 0
64, 3594133669, 0.8945175, -0.017449684, 0.39156136, 0.2151569, -0.026190858, -0.11316032, 0.24980545, 0
65, 3594150336, 0.89498055, -0.017710228, 0.39049694, 0.21514465, -0.051026557, -0.103959285, 0.2651701, 0
66, 3594167003, 0.89545107, -0.017931525, 0.3894396, 0.21508518, -0.09008597, 0.040830843, 0.24902725, 0
68, 3594200337, 0.89623564, -0.018196754, 0.3877193, 0.2149023, -0.123125814, 0.13751751, 0.2456665, 0
70, 3594233671, 0.8969788, -0.018522337, 0.38602096, 0.2148315, -0.03113483, -0.004989801, 0.22086334, 0
72, 3594267005, 0.89757806, -0.018647186, 0.38460833, 0.2148521, 0.0014106845, 0.17428936, 0.25697613, 0
73, 3594283672, 0.8978998, -0.01864564, 0.38387063, 0.21482623, -0.020273667, 0.19896695, 0.23678398, 0
74, 3594300339, 0.8982195, -0.018587396, 0.38311917, 0.21483636, 0.010165279, 0.16524959, 0.16457844, 0
76, 3594333673, 0.898781, -0.018209107, 0.38169885, 0.21504867, 0.014075662, 0.15674588, 0.3014984, 0
77, 3594350340, 0.89907277, -0.01802563, 0.3809775, 0.2151232, -0.05504982, 0.20416827, 0.24860668, 0
78, 3594367007, 0.89932126, -0.01780817, 0.38037902, 0.21516201, 0.10685581, 0.14467768, 0.20801353, 0
80, 3594400341, 0.8995773, -0.017176736, 0.37965265, 0.21542601, 0.05174415, 0.17626403, 0.22762012, 0
81, 3594417008, 0.8996982, -0.016838074, 0.37931395, 0.21554436, 0.012201502, 0.23285988, 0.23991108, 0
82, 3594433675, 0.89981246, -0.0164155, 0.37899444, 0.21566181, 0.08666342, 0.1564307, 0.27481174, 0
85, 3594483676, 0.9001024, -0.014890417, 0.3779662, 0.21636622, 0.014667102, 0.12331278, 0.26382732, 0
86, 3594500343, 0.90023017, -0.014341783, 0.37758043, 0.21654525, 0.045694962, 0.07282337, 0.2816391, 0
88, 3594533677, 0.90042484, -0.013321474, 0.37691128, 0.21696596, -0.03177625, -0.012025667, 0.2695961, 0
89, 3594550344, 0.9004724, -0.0129456, 0.37673807, 0.21709213, -0.056423414, 0.003346869, 0.33139038, 0
91, 3594583678, 0.900501, -0.01244941, 0.37665778, 0.21714167, -0.08118951, -0.08071216, 0.26713657, 0
92, 3594600345, 0.90045005, -0.0122625865, 0.37678957, 0.21713506, -0.066335574, -0.073397085, 0.2436533, 0
93, 3594617012, 0.90041494, -0.012084376, 0.37689647, 0.21710515, -0.122437544, -0.010349879, 0.22401428, 0
95, 3594650346, 0.9003378, -0.011685647, 0.3771248, 0.21705051, -0.1307213, -0.06964002, 0.24265385, 0
96, 3594667013, 0.9002837, -0.011446796, 0.3772583, 0.21705544, -0.11569749, -0.09407895, 0.25892735, 0
97, 3594683680, 0.9002185, -0.011167735, 0.3774061, 0.21708417, -0.1502107, -0.051608693, 0.26202202, 0
99, 3594717014, 0.8999954, -0.010562513, 0.37790087, 0.21717867, -0.13376854, -0.065279625, 0.2500944, 0
100, 3594733681, 0.89984035, -0.010218304, 0.37823465, 0.21725656, -0.13643403, -0.069517896, 0.24217033, 0
101, 3594750348, 0.8996789, -0.009853594, 0.37858185, 0.21733703, -0.14705335, -0.053560827, 0.28092766, 0
103, 3594783682, 0.8994146, -0.009134911, 0.37915337, 0.21746594, -0.12108035, -0.031728238, 0.1869793, 0
104, 3594800349, 0.89930135, -0.008717742, 0.3793535, 0.21760222, -0.079644874, -0.056864854, 0.22011662, 0
105, 3594817016, 0.8992231, -0.008323282, 0.37946448, 0.21774769, -0.07467081, -0.05203418, 0.3148842, 0
107, 3594850350, 0.89912057, -0.0076419488, 0.37959468, 0.21796921, -0.08442886, -0.069883086, 0.20502281, 0
108, 3594867017, 0.8990836, -0.0072563216, 0.37960932, 0.21810877, -0.100179985, -0.03184255, 0.22288227, 0
109, 3594883684, 0.89908564, -0.006855525, 0.3795164, 0.21827574, -0.08236881, -0.020447385, 0.27819538, 0
112, 3594933685, 0.8993592, -0.0055977926, 0.3785767, 0.21881486, -0.073974214, -0.07939133, 0.25270557, 0
113, 3594950352, 0.8995213, -0.005176604, 0.37807688, 0.21902324, -0.0777248, -0.08568185, 0.3678217, 0
115, 3594983686, 0.8997219, -0.0045322776, 0.37743995, 0.21931224, -0.19816871, 0.015414865, 0.17615318, 0
116, 3595000353, 0.89967847, -0.004130706, 0.37746838, 0.2194492, -0.14568934, 0.0067321695, 0.28926754, 0
118, 3595033687, 0.8996595, -0.003456615, 0.3773539, 0.21973495, -0.050759006, -0.006624952, 0.21990204, 0
119, 3595050354, 0.8997119, -0.0031132624, 0.37711647, 0.21993347, -0.018835545, -0.07300089, 0.24479485, 0
120, 3595067021, 0.899779, -0.0027436912, 0.3768601, 0.22010292, -0.04977859, -0.10286826, 0.31874275, 0
122, 3595100355, 0.9000259, -0.0023134276, 0.3761114, 0.22037902, -0.12817734, 0.013927553, 0.2120266, 0
123, 3595117022, 0.90012324, -0.0021301284, 0.37582052, 0.22047995, -0.0782846, 0.072712675, 0.26619148, 0
124, 3595133689, 0.90020925, -0.0019044802, 0.3755334, 0.22062019, -0.07822497, 0.095872946, 0.19342709, 0
127, 3595183690, 0.9005261, -0.0010875985, 0.37440872, 0.22124308, -0.055021074, 0.019967726, 0.2659397, 0
128, 3595200357, 0.90068156, -7.8323483E-4, 0.3739554, 0.22137824, -0.075936146, 0.03912822, 0.24641895, 0
130, 3595233691, 0.90099937, -3.521964E-4, 0.37298083, 0.22173005, -0.014209207, 0.036511958, 0.24438477, 0
131, 3595250358, 0.90112257, -1.0591E-4, 0.3725893, 0.2218875, -0.026310341, 0.020704914, 0.24475574, 0
132, 3595267025, 0.90123785, 1.1269748E-4, 0.37222993, 0.22202255, 0.058913056, 0.013185001, 0.274127, 0
134, 3595300359, 0.9016115, 7.482916E-4, 0.3711973, 0.22223261, 0.15089169, 0.074804366, 0.15744781, 0
135, 3595317026, 0.9019189, 0.0011433661, 0.37035415, 0.22239017, 0.13827637, 0.10672598, 0.19767666, 0
136, 3595333693, 0.90228426, 0.0015777871, 0.3693886, 0.22251129, 0.21066225, 0.07874029, 0.2627535, 0
138, 3595367027, 0.9030749, 0.002427958, 0.36729178, 0.2227682, 0.14431176, 0.057772443, 0.3048315, 0
139, 3595383694, 0.90334797, 0.0027858242, 0.36654183, 0.2228915, 0.067321725, 0.17115834, 0.41690445, 0
142, 3595433695, 0.90353274, 0.0031040087, 0.36606255, 0.22292575, 0.2011457, 0.123458415, 0.29985046, 0
143, 3595450362, 0.90361804, 0.0031658113, 0.36588535, 0.22287004, 0.22177373, 0.16662869, 0.17313766, 0
145, 3595483696, 0.9040255, 0.0034195334, 0.364884, 0.22285603, 0.21638295, 0.12521136, 0.26632404, 0
146, 3595500363, 0.90420777, 0.0036323667, 0.36444247, 0.22283536, 0.106686726, 0.1564389, 0.36475468, 0
147, 3595517030, 0.90436834, 0.0037356466, 0.36406094, 0.22280556, 0.056732066, 0.20970942, 0.30873394, 0
149, 3595550364, 0.90447557, 0.0038019046, 0.36383563, 0.22273763, 0.09491398, 0.1523952, 0.27359962, 0
150, 3595567031, 0.9044434, 0.0038190484, 0.3639658, 0.22265524, 0.16024849, 0.1437256, 0.24429321, 0
151, 3595583698, 0.9043953, 0.003858149, 0.3641452, 0.2225568, 0.20658414, 0.14382033, 0.23619461, 0
153, 3595617032, 0.9042586, 0.0039091483, 0.3645811, 0.22239701, 0.1480962, 0.16332248, 0.2901554, 0
154, 3595633699, 0.9042103, 0.003876485, 0.36475813, 0.2223038, 0.130014, 0.17176172, 0.17539406, 0
157, 3595683700, 0.9039786, 0.003686525, 0.36550504, 0.22202252, 0.15150577, 0.09381265, 0.3518057, 0
158, 3595700367, 0.9039233, 0.0035644025, 0.36575636, 0.22183591, 0.08528748, 0.07674309, 0.29095078, 0
159, 3595717034, 0.90386003, 0.0033998042, 0.3660492, 0.22161306, 0.04787166, 0.06140613, 0.28196716, 0
161, 3595750368, 0.90374297, 0.0029762536, 0.36662802, 0.22113869, -0.013412, 0.1256711, 0.19141197, 0
162, 3595767035, 0.90359217, 0.002767302, 0.36712784, 0.22092858, 0.013785256, 0.099729136, 0.2736292, 0
163, 3595783702, 0.90343446, 0.0024830848, 0.3676717, 0.22067264, 0.08144713, 0.028620373, 0.29261208, 0
165, 3595817036, 0.90320593, 0.0018400028, 0.3686208, 0.22002994, 0.114675336, -0.11696156, 0.2198677, 0
166, 3595833703, 0.9031287, 0.0015094653, 0.36901882, 0.21968207, 0.07823813, 0.08317811, 0.25315, 0
168, 3595867037, 0.90291166, 7.086396E-4, 0.36998078, 0.21895921, -0.09333996, 0.11615271, 0.28860283, 0
169, 3595883704, 0.9026908, 2.4406612E-4, 0.37072384, 0.2186134, 0.024406997, -0.09426848, 0.30271912, 0
170, 3595900371, 0.9024528, -2.213791E-4, 0.37153122, 0.21822545, 0.075820595, -0.24583592, 0.3190956, 0
172, 3595933705, 0.90231955, -0.0011218041, 0.3724684, 0.21717341, 0.10424669, -0.024519498, 0.12031937, 0
173, 3595950372, 0.9024038, -0.0014891624, 0.37260237, 0.2165903, 0.13605385, 0.081995435, 0.1709814, 0
174, 3595967039, 0.9025017, -0.0017714798, 0.37264174, 0.2161122, 0.089576714, 0.17536779, 0.17277241, 0
176, 3596000373, 0.90251905, -0.0023368374, 0.3730679, 0.2152974, 0.019479955, 0.13526297, 0.4260769, 0
177, 3596017040, 0.90247804, -0.0026354715, 0.37341473, 0.214864, 0.03346183, -0.048728045, 0.35776138, 0
178, 3596033707, 0.9024526, -0.0029347688, 0.37372127, 0.21443404, 0.16562837, -0.08005154, 0.1766882, 0
180, 3596067041, 0.9026596, -0.003561899, 0.3737044, 0.21358092, 0.11330699, 0.19522144, 0.23134613, 0
181, 3596083708, 0.9028591, -0.0038794428, 0.3733955, 0.21327215, 0.012944739, 0.17704311, 0.26221275, 0
184, 3596133709, 0.9036321, -0.0047134534, 0.37191024, 0.21257558, -0.100644104, 0.11102193, 0.23212337, 0
185, 3596150376, 0.9038439, -0.004996352, 0.37160254, 0.21220669, -0.15460216, 0.17653745, 0.28461933, 0
186, 3596167043, 0.9039355, -0.005322002, 0.37154803, 0.21190368, -0.21480218, 0.096193716, 0.36772633, 0
188, 3596200377, 0.9039567, -0.0059828684, 0.37165457, 0.2116083, -0.4349209, -0.10286801, 0.24571323, 0
189, 3596217044, 0.90404695, -0.006178692, 0.3714385, 0.21159635, -0.40611064, -0.41221333, 0.21830082, 0
190, 3596233711, 0.9041759, -0.0063421577, 0.3711581, 0.2115329, -0.2599259, -0.43254158, 0.25981808, 0
192, 3596267045, 0.90469956, -0.006745916, 0.37017217, 0.21100803, -0.33865896, 0.10078006, 0.32876492, 0
193, 3596283712, 0.904939, -0.0069624186, 0.36971587, 0.21077451, -0.23738928, 0.064196326, 0.2477684, 0
195, 3596317046, 0.9052092, -0.007173065, 0.3692415, 0.21043897, -0.14521347, -0.14187519, 0.20189857, 0
196, 3596333713, 0.9053263, -0.007326558, 0.369078, 0.21021633, -0.1633598, -0.1419445, 0.28396893, 0
199, 3596383714, 0.9059006, -0.007622339, 0.36798003, 0.20965591, -0.3471382, -0.13114405, 0.24377441, 0
200, 3596400381, 0.90607655, -0.0075344816, 0.36756864, 0.20962018, -0.2725857, -0.16715674, 0.3437214, 0
201, 3596417048, 0.906153, -0.007407997, 0.3673923, 0.20960297, -0.36728868, -0.12681597, 0.38404083, 0
203, 3596450382, 0.90605927, -0.0072245263, 0.3676986, 0.20947792, -0.3919096, -0.06068254, 0.32798576, 0
204, 3596467049, 0.9059368, -0.0071492568, 0.3680681, 0.2093617, -0.19076686, -0.20106328, 0.29099274, 0
205, 3596483716, 0.9058735, -0.0070093907, 0.36837745, 0.20909579, -0.047258306, -0.1872861, 0.22132874, 0
207, 3596517050, 0.90585905, -0.0066538863, 0.3686063, 0.20876615, -0.1317316, 0.09545463, 0.2615223, 0
208, 3596533717, 0.90580577, -0.0064098276, 0.36877215, 0.20871206, -0.16161515, 0.17001238, 0.24425697, 0
209, 3596550384, 0.90558714, -0.0062140264, 0.36924168, 0.20883633, -0.17201573, 0.06294246, 0.32260227, 0
211, 3596583718, 0.90503514, -0.0062044114, 0.37066364, 0.20871067, -0.025909385, -0.19397698, 0.2829008, 0
213, 3596617052, 0.9048111, -0.0067260712, 0.3715003, 0.20817786, -0.011691565, -0.10925043, 0.22584248, 0
215, 3596650386, 0.90501, -0.007100623, 0.37137762, 0.20751892, -0.13874824, 0.0944452, 0.16502953, 0
216, 3596667053, 0.9051212, -0.006975442, 0.37133858, 0.20710759, -0.13253434, 0.053614948, 0.08880234, 0
217, 3596683720, 0.9051483, -0.006916791, 0.37128434, 0.20708783, -0.064308226, -0.07352524, 0.25286865, 0
219, 3596717054, 0.90533894, -0.0071146972, 0.37077796, 0.20715538, -0.031097392, -0.1741614, 0.25113583, 0
220, 3596733721, 0.90549964, -0.0072410107, 0.37044093, 0.20705132, -0.009355056, -0.1880591, 0.28313446, 0
221, 3596750388, 0.90568686, -0.0072804578, 0.37008685, 0.20686436, -0.026885865, -0.093090355, 0.31995773, 0
223, 3596783722, 0.9058853, -0.0071532167, 0.369668, 0.20674863, -0.2261373, 0.16020808, 0.21999359, 0
224, 3596800389, 0.90592283, -0.0070607774, 0.36958402, 0.20673713, -0.1397454, 0.105053775, 0.2412014, 0
226, 3596833723, 0.9059891, -0.0068129003, 0.3693295, 0.20691027, 0.07663353, -0.15918197, 0.2724619, 0
228, 3596867057, 0.9063348, -0.0065790974, 0.36846584, 0.20694332, 0.04298525, 0.04471712, 0.2151556, 0
230, 3596900391, 0.9068181, -0.0062366575, 0.36721468, 0.20706123, -0.0088174725, 0.20883662, 0.2730999, 0
231, 3596917058, 0.9070403, -0.006032001, 0.36662138, 0.20714511, 0.057686307, 0.12755264, 0.24153423, 0
232, 3596933725, 0.90722257, -0.005818151, 0.36609188, 0.20728937, 0.10453112, 0.029358141, 0.22051525, 0
234, 3596967059, 0.9076051, -0.0054040924, 0.36491796, 0.20769563, 0.038741153, 0.13132799, 0.33930397, 0
235, 3596983726, 0.90783364, -0.005125072, 0.3643255, 0.20774424, 0.038155757, 0.18756525, 0.26602554, 0
236, 3597000393, 0.9080457, -0.004764393, 0.3638215, 0.2077092, 0.06252239, 0.1821983, 0.18648052, 0
238, 3597033727, 0.90835625, -0.0039883703, 0.36291918, 0.20794588, 0.09452439, 0.18876508, 0.31481552, 0
239, 3597050394, 0.9084623, -0.0036447123, 0.362468, 0.20827526, 0.06442641, 0.1809045, 0.26687622, 0
240, 3597067061, 0.90859157, -0.0031605586, 0.36212152, 0.20832284, 0.08928778, 0.1420578, 0.28177643, 0
242, 3597100395, 0.90869606, -0.0022439733, 0.3616499, 0.20869753, 0.08100668, 0.09994861, 0.22986507, 0
243, 3597117062, 0.90880466, -0.0016915798, 0.36137417, 0.20870773, -0.0048219184, 0.1490825, 0.1914854, 0
244, 3597133729, 0.90891004, -0.0012876168, 0.36096144, 0.20896512, -0.014910399, 0.14657211, 0.22551727, 0
246, 3597167063, 0.90923226, -3.6256015E-4, 0.35991722, 0.20936823, 0.011974564, -0.070623085, 0.19476986, 0
247, 3597183730, 0.9093255, 7.376075E-6, 0.35958928, 0.20952669, -0.012047197, -0.03927599, 0.27000237, 0
248, 3597200397, 0.90939295, 2.4179369E-4, 0.35935965, 0.2096281, -0.14643213, 0.01069293, 0.317317, 0
250, 3597233731, 0.9093905, 3.104508E-4, 0.35930085, 0.20973913, -0.09228942, -0.17226358, 0.35115242, 0
251, 3597250398, 0.90935767, 2.0553172E-4, 0.3594109, 0.20969327, -0.10911517, -0.20320283, 0.29795456, 0
253, 3597283732, 0.9094177, -1.16728246E-4, 0.35940745, 0.20943855, -0.09011503, -0.18345754, 0.20467663, 0
255, 3597317066, 0.90986085, -5.354807E-4, 0.35826522, 0.2094698, -0.18856026, -0.14212541, 0.18122005, 0
257, 3597350400, 0.9104554, -0.0010580122, 0.3567134, 0.20953271, -0.16979067, -0.08568436, 0.40261078, 0
258, 3597367067, 0.9106908, -0.001344651, 0.35610703, 0.20953955, -0.21345308, -0.20708081, 0.104169846, 0
259, 3597383734, 0.9108006, -0.0016564503, 0.3557989, 0.20958425, -0.09063468, -0.2046724, 0.29775047, 0
261, 3597417068, 0.911235, -0.0022557527, 0.35486352, 0.20927586, -0.2887159, 0.25597918, 0.23513031, 0
262, 3597433735, 0.9112399, -0.0025866777, 0.35487035, 0.20923892, -0.16894664, -0.11404201, 0.10805035, 0
263, 3597450402, 0.91111505, -0.0029413626, 0.35519472, 0.2092273, 6.5440754E-4, -0.09704565, 0.42530918, 0
265, 3597483736, 0.91091603, -0.0038154908, 0.3560338, 0.20865291, 0.041412327, 0.15293913, 0.2621832, 0
266, 3597500403, 0.9108193, -0.004187748, 0.35643095, 0.2083901, 0.062176183, 0.020121362, 0.099033356, 0
267, 3597517070, 0.91078025, -0.004572276, 0.35662606, 0.20821917, 0.029593116, 0.047626156, 0.26815987, 0
270, 3597567071, 0.9113277, -0.005893469, 0.3556625, 0.20743677, -0.3266497, -0.1755613, 0.37470055, 0
271, 3597583738, 0.9113165, -0.006616708, 0.35600972, 0.2068679, -0.027246745, 0.18315345, 0.9391928, 0
273, 3597617072, 0.9104163, -0.008553304, 0.35901538, 0.2055629, -0.2081937, 0.06843298, 0.32613182, 0
274, 3597633739, 0.9097613, -0.009538982, 0.3609758, 0.20498453, -0.12869945, -0.052531745, 0.32991123, 0
276, 3597667073, 0.90831226, -0.011590023, 0.36517087, 0.20387098, -0.37995872, -0.5813053, -0.023109436, 0
277, 3597683740, 0.9077533, -0.01268534, 0.36667657, 0.20359273, -0.20662875, -0.4015265, 0.30176353, 0
278, 3597700407, 0.9076664, -0.01358014, 0.3670944, 0.20316939, -0.26671097, -0.30573466, 0.44512177, 0
280, 3597733741, 0.9081901, -0.014981199, 0.36603218, 0.20264646, -0.98327476, -0.50944257, -0.067666054, 0
281, 3597750408, 0.90840864, -0.015393335, 0.36542636, 0.20272946, -0.8763843, -0.4884082, 0.19865322, 0
282, 3597767075, 0.90871525, -0.015774533, 0.3646191, 0.20277911, -0.8574711, 0.011579438, 0.503808, 0
285, 3597817076, 0.90895224, -0.01692845, 0.3639838, 0.20276543, 0.11038207, -0.33149174, 0.3543949, 0
286, 3597833743, 0.9090092, -0.017306007, 0.36388284, 0.20265895, -0.09394296, 0.069773726, 0.21152115, 0
288, 3597867077, 0.9094895, -0.017953213, 0.36272997, 0.20251477, -0.24522565, 0.22738323, 0.20846176, 0
289, 3597883744, 0.90970427, -0.018035151, 0.3620905, 0.20268717, -0.1563136, -0.010173869, 0.18301105, 0
290, 3597900411, 0.90982145, -0.017956387, 0.3616391, 0.20297398, 0.1319334, -0.037948757, 0.22698212, 0
292, 3597933745, 0.9101407, -0.017879479, 0.3606882, 0.20324191, 0.38706595, 0.5492657, 0.3153534, 0
293, 3597950412, 0.9102823, -0.01771545, 0.36018446, 0.20351444, 0.4016739, 0.60094494, 0.24222946, 0
294, 3597967079, 0.91043454, -0.017449647, 0.3596121, 0.20386823, 0.3667686, 0.4118423, 0.2614727, 0
296, 3598000413, 0.91074854, -0.016875051, 0.35855916, 0.20436853, 0.29440814, 0.05624225, 0.1133194, 0
297, 3598017080, 0.9109175, -0.016649049, 0.35802054, 0.20457831, 0.35441267, 0.07085295, 0.20518112, 0
300, 3598067081, 0.91171044, -0.016060676, 0.35570177, 0.20513692, 0.38081026, 0.17647368, 0.2766657, 0
301, 3598083748, 0.9119435, -0.015867606, 0.35502276, 0.20529242, 0.31731322, 0.042860188, 0.21028519, 0
303, 3598117082, 0.9123098, -0.015490647, 0.3539538, 0.20553939, 0.23280133, 0.3051408, 0.319355, 0
304, 3598133749, 0.91244406, -0.015351299, 0.35355625, 0.20563796, 0.16519591, 0.2604628, 0.3212185, 0
305, 3598150416, 0.91250604, -0.015196625, 0.35337043, 0.20569396, 0.24034281, 0.08669079, 0.23926926, 0
307, 3598183750, 0.9125894, -0.014943164, 0.35303843, 0.2059122, 0.22733884, 0.14419472, 0.22777748, 0
308, 3598200417, 0.91262525, -0.014845435, 0.3528872, 0.2060196, 0.1132235, 0.19558392, 0.31641293, 0
309, 3598217084, 0.9126531, -0.014716461, 0.3527937, 0.20606594, 0.06897399, 0.13327087, 0.34563732, 0
311, 3598250418, 0.9126667, -0.01442625, 0.35267082, 0.20623665, 0.070947945, -0.027021313, 0.1845913, 0
312, 3598267085, 0.9126825, -0.0142780915, 0.3525865, 0.20632099, 0.04125328, 0.038964156, 0.25355244, 0
313, 3598283752, 0.9127282, -0.014146157, 0.35243934, 0.20637932, -0.010498926, 0.08691034, 0.28441334, 0
315, 3598317086, 0.9127766, -0.013873227, 0.3523424, 0.20634952, -0.049838193, 0.006176159, 0.31907654, 0
316, 3598333753, 0.91272885, -0.013760164, 0.35246575, 0.20635757, -0.06468294, 0.031568445, 0.32142735, 0
317, 3598350420, 0.9126663, -0.013646722, 0.3526702, 0.20629232, -0.1229925, 0.04627118, 0.2865734, 0
319, 3598383754, 0.9125162, -0.013491981, 0.35308254, 0.20626117, -0.08290041, -0.013987524, 0.29118443, 0
320, 3598400421, 0.91244113, -0.013402738, 0.3532685, 0.20628099, -0.029744657, -0.07449551, 0.22876263, 0
321, 3598417088, 0.91238844, -0.0132862665, 0.35343942, 0.20622855, 0.06381151, -0.06763949, 0.22951221, 0
323, 3598450422, 0.91235876, -0.013150815, 0.35352072, 0.20622858, 0.09309681, 0.024757545, 0.30668163, 0
324, 3598467089, 0.91238064, -0.01315172, 0.35345423, 0.20624615, 0.05372723, 0.100360796, 0.28149223, 0
327, 3598517090, 0.9123879, -0.013149451, 0.35355246, 0.2060455, 0.024582151, 0.026462823, 0.27832222, 0
328, 3598533757, 0.9123495, -0.013217118, 0.35362414, 0.20608807, -0.006136276, 0.017740691, 0.2671566, 0
329, 3598550424, 0.91236484, -0.013242748, 0.3536022, 0.20605637, 0.01832327, -0.0068952767, 0.26716518, 0
331, 3598583758, 0.9124287, -0.013335809, 0.3534385, 0.20604841, -0.035332657, -0.01877182, 0.27907944, 0
332, 3598600425, 0.91242087, -0.013398368, 0.35343567, 0.20608322, -0.025566531, 0.043389056, 0.27527046, 0
334, 3598633759, 0.91241497, -0.013499975, 0.3534282, 0.20611614, -0.0011389575, 0.05290956, 0.26284504, 0
335, 3598650426, 0.91248626, -0.0134689845, 0.35331, 0.20600533, 0.0038981026, 0.017392885, 0.21422005, 0
336, 3598667093, 0.9125529, -0.013453007, 0.35312173, 0.20603406, 0.039212644, 0.03596531, 0.23849583, 0
338, 3598700427, 0.912699, -0.013462078, 0.35273778, 0.20604408, 0.011649497, 0.06478525, 0.28816986, 0
339, 3598717094, 0.9127041, -0.013509743, 0.35273644, 0.20602083, 0.009239888, 0.07110948, 0.3331871, 0
342, 3598767095, 0.91256875, -0.013656173, 0.35318363, 0.20584446, 0.038531475, -0.001996774, 0.23278713, 0
343, 3598783762, 0.9125173, -0.013702337, 0.35328123, 0.20590164, 0.061960563, -0.0177564, 0.21442509, 0
344, 3598800429, 0.9125343, -0.013720214, 0.3532749, 0.20583609, 0.052436817, 0.027240278, 0.26952076, 0
346, 3598833763, 0.912556, -0.013853893, 0.3533679, 0.20557112, 0.036254093, 0.025363224, 0.34288692, 0
347, 3598850430, 0.9125591, -0.013938524, 0.35348466, 0.20535049, 0.2771276, 0.06643798, 0.17160225, 0
348, 3598867097, 0.9128023, -0.014047936, 0.3529425, 0.20519474, 0.044227697, -0.18159762, -0.19812107, 0
351, 3598917098, 0.9126301, -0.014360219, 0.35395056, 0.20420091, -0.5128876, 0.41556367, 0.35418892, 0
352, 3598933765, 0.9121086, -0.014567617, 0.35538098, 0.20403117, -0.37124592, -0.08395544, 0.33537865, 0
354, 3598967099, 0.9105876, -0.015007351, 0.3596133, 0.203376, -0.4153733, -0.2154336, 0.34316826, 0
355, 3598983766, 0.90986806, -0.015379004, 0.36172652, 0.20282042, -0.35271484, -0.17121084, 0.3658476, 0
358, 3599033767, 0.90868324, -0.016000457, 0.3649673, 0.20227787, -0.31145266, -0.3969494, 0.22014904, 0
359, 3599050434, 0.9086162, -0.016082037, 0.3651473, 0.2022476, -0.33517402, -0.38902482, 0.30878353, 0
361, 3599083768, 0.9085094, -0.016143993, 0.3654017, 0.20226336, -0.44542864, -0.11262769, 0.3024397, 0
362, 3599100435, 0.90842396, -0.016168486, 0.36558235, 0.20231879, -0.31447485, -0.110961795, 0.25456905, 0
363, 3599117102, 0.90837353, -0.01615433, 0.3656369, 0.20244747, -0.13332307, -0.20913501, 0.16585636, 0
365, 3599150436, 0.9085593, -0.016106617, 0.36495018, 0.20285632, 0.049879905, -0.15328442, 0.24503517, 0
366, 3599167103, 0.90877455, -0.01614961, 0.36431015, 0.20303962, 0.051499635, -0.030666787, 0.34410286, 0
367, 3599183770, 0.90901923, -0.016233724, 0.36364064, 0.2031375, 0.08066597, 0.020186007, 0.31211948, 0
369, 3599217104, 0.90937865, -0.016454332, 0.36256182, 0.20343892, 0.12624115, 0.15466331, 0.25400448, 0
370, 3599233771, 0.90957224, -0.016552627, 0.36198473, 0.2035933, 0.11613614, 0.24511106, 0.19531631, 0
373, 3599283772, 0.9101302, -0.016791724, 0.3602446, 0.20416561, 0.11375085, 0.040688235, 0.22728539, 0
374, 3599300439, 0.9102436, -0.016943958, 0.35991257, 0.2042333, 0.09432449, 0.097723015, 0.2799034, 0
375, 3599317106, 0.91030437, -0.017152559, 0.35973853, 0.20425168, 0.07336342, 0.15882824, 0.2973566, 0
377, 3599350440, 0.91031533, -0.017582126, 0.35976875, 0.20411332, 0.10258699, 0.17146438, 0.27599812, 0
378, 3599367107, 0.9103356, -0.017801348, 0.35972878, 0.204074, 0.12959397, 0.18281117, 0.29099846, 0
379, 3599383774, 0.9103611, -0.018033262, 0.35959673, 0.20417269, 0.1629248, 0.09246002, 0.25018024, 0
381, 3599417108, 0.91048723, -0.018372372, 0.35934797, 0.2040177, 0.1760505, 0.13431966, 0.26882648, 0
382, 3599433775, 0.91051227, -0.018560525, 0.3593286, 0.20392337, 0.06777554, 0.2133797, 0.28089046, 0
384, 3599467109, 0.9104612, -0.018823031, 0.35958907, 0.20366764, 0.098678105, 0.19401966, 0.28860664, 0
385, 3599483776, 0.91040206, -0.018877301, 0.3598034, 0.2035481, 0.103533715, 0.15833549, 0.2521267, 0
386, 3599500443, 0.9103414, -0.018933538, 0.35999542, 0.20347498, 0.15257786, 0.12157463, 0.23859406, 0
388, 3599533777, 0.91024154, -0.018997617, 0.36035162, 0.20328492, 0.09938149, 0.0711126, 0.27804375, 0
389, 3599550444, 0.91016227, -0.019032177, 0.36062756, 0.20314747, 0.08291621, 0.10545389, 0.24572945, 0
390, 3599567111, 0.9100408, -0.01905432, 0.36098036, 0.2030633, 0.046520244, 0.111946546, 0.25199795, 0
392, 3599600445, 0.90976954, -0.019081637, 0.36175925, 0.20289014, 0.025015425, 0.12947303, 0.30436325, 0
394, 3599633779, 0.9095573, -0.019030318, 0.36238876, 0.20272298, 0.050307043, -6.0984114E-4, 0.17220592, 0
396, 3599667113, 0.9094824, -0.01889807, 0.3626797, 0.2025508, -0.052523736, 0.0553801, 0.28517532, 0
397, 3599683780, 0.9094706, -0.018792994, 0.36278176, 0.20243078, -0.06842707, 0.053942744, 0.29614258, 0
398, 3599700447, 0.9094009, -0.018684357, 0.3629761, 0.20240577, -0.07754766, 0.018374909, 0.27110767, 0
401, 3599750448, 0.909069, -0.01831327, 0.36387345, 0.20231926, -0.106165834, -0.039388653, 0.21727943, 0
402, 3599767115, 0.9089699, -0.018212076, 0.36412922, 0.20231351, -0.0763254, -0.051150527, 0.20008564, 0
404, 3599800449, 0.9089689, -0.0179682, 0.36415932, 0.20228565, -0.044664454, -0.065371275, 0.28135395, 0
405, 3599817116, 0.9090289, -0.017824814, 0.36406285, 0.20220199, -0.087125525, -0.06394729, 0.29248238, 0
406, 3599833783, 0.9090548, -0.017716035, 0.36400887, 0.2021923, -0.106532596, -0.026839457, 0.31828594, 0
408, 3599867117, 0.9090546, -0.017557207, 0.36395553, 0.20230322, -0.07169326, -0.048208434, 0.21638584, 0
409, 3599883784, 0.9091264, -0.017438114, 0.36376256, 0.20233802, -0.028732114, -0.054631267, 0.22555065, 0
411, 3599917118, 0.9094378, -0.01719167, 0.36296389, 0.20239405, -0.089225575, -0.042944774, 0.28482437, 0
412, 3599933785, 0.90954125, -0.017075192, 0.3626623, 0.20247947, -0.116559274, 0.009889464, 0.3109808, 0
413, 3599950452, 0.9095963, -0.016961835, 0.36247763, 0.20257232, -0.11802567, 0.053377856, 0.27422047, 0
416, 3600000453, 0.9096295, -0.016658325, 0.36226773, 0.202824, -0.08034166, -0.028915096, 0.25879765, 0
417, 3600017120, 0.9097095, -0.016510975, 0.36209074, 0.20279351, -0.046469685, -0.049963437, 0.2847004, 0
419, 3600050454, 0.90986377, -0.016290545, 0.36164406, 0.20291609, -0.08765586, -0.016035637, 0.24170303, 0
420, 3600067121, 0.9099304, -0.01615142, 0.3614449, 0.20298293, -0.073356636, 0.026340952, 0.25379753, 0
421, 3600083788, 0.9099909, -0.016037047, 0.36125177, 0.20306471, -0.044186223, 0.057188835, 0.28059578, 0
423, 3600117122, 0.91013205, -0.015820913, 0.36083624, 0.20318818, -0.0016447253, -0.021035273, 0.29401588, 0
424, 3600133789, 0.91021115, -0.015719157, 0.36060193, 0.20325816, -0.03248202, -0.019254705, 0.28338623, 0
425, 3600150456, 0.91027373, -0.015683208, 0.36036593, 0.2033984, -0.048236124, -0.016647609, 0.26054668, 0
427, 3600183790, 0.9104391, -0.015503924, 0.35990885, 0.2034811, -0.07948797, -0.003796982, 0.26069736, 0
428, 3600200457, 0.91049343, -0.015473761, 0.35969374, 0.20362061, -0.077823766, -0.009888772, 0.24910831, 0
431, 3600250458, 0.91087854, -0.015191745, 0.35869208, 0.20368649, 0.5785138, 0.063288, -0.010193825, 0
432, 3600267125, 0.9112812, -0.015041161, 0.35768658, 0.20366502, -0.596308, -0.03322485, 0.012002945, 0
433, 3600283792, 0.91135603, -0.015083741, 0.35754636, 0.20357302, -0.0708938, -0.04098133, 0.81838226, 0
435, 3600317126, 0.91113496, -0.015226323, 0.35843247, 0.20299304, -0.38891432, 0.17694014, 0.27001858, 0
436, 3600333793, 0.9108287, -0.015184302, 0.35936484, 0.20272258, -0.22023997, -0.048152417, 0.33657455, 0
438, 3600367127, 0.9103075, -0.015157811, 0.36082995, 0.20246261, -0.1068356, -0.06124989, 0.07579136, 0
439, 3600383794, 0.91023886, -0.015042577, 0.36107513, 0.20234233, -0.04170859, -0.13838847, 0.22833157, 0
440, 3600400461, 0.9102979, -0.015018508, 0.3609717, 0.2022632, -0.14756557, -0.23127022, 0.25283813, 0
442, 3600433795, 0.9104769, -0.015226245, 0.3606191, 0.20207113, -0.35366556, -0.2908796, 0.30726814, 0
443, 3600450462, 0.9105359, -0.01538045, 0.36051592, 0.2019774, -0.39681178, -0.10850304, 0.28869343, 0
446, 3600500463, 0.91095436, -0.015648577, 0.3593226, 0.2021966, -0.093399286, -0.117506616, 0.28747082, 0
447, 3600517130, 0.91114837, -0.01564075, 0.3587814, 0.20228346, -0.033894744, -0.20560914, 0.20315456, 0
448, 3600533797, 0.911325, -0.015679225, 0.35829327, 0.20235029, 0.04407544, -0.30086285, 0.28473282, 0
450, 3600567131, 0.91173077, -0.015999332, 0.35730776, 0.20224011, 0.13123813, -0.039889876, 0.32528877, 0
451, 3600583798, 0.91189563, -0.016277399, 0.35689533, 0.2022027, 0.0601429, 0.022536427, 0.3284111, 0
452, 3600600465, 0.91201895, -0.016570821, 0.3565504, 0.20223156, -0.037357323, -0.06579177, 0.24541569, 0
454, 3600633799, 0.91229373, -0.017161388, 0.3558339, 0.20220414, 0.0034547367, -0.038155332, 0.26592922, 0
455, 3600650466, 0.9124532, -0.017453432, 0.35541072, 0.20220424, -0.061945386, -0.006911265, 0.11971474, 0
456, 3600667133, 0.9125742, -0.017772924, 0.35503867, 0.20228441, -0.057988852, -0.116271205, 0.19964123, 0
458, 3600700467, 0.9129369, -0.01847636, 0.35412985, 0.20217688, -0.24284291, -0.041146886, 0.48097038, 0
459, 3600717134, 0.91303533, -0.018954221, 0.35391784, 0.20205995, -0.44618887, -0.013824095, 0.44085407, 0
460, 3600733801, 0.91304564, -0.01943516, 0.3539684, 0.20187901, -0.44108087, -0.04913166, 0.3690815, 0
462, 3600767135, 0.9129631, -0.020197298, 0.35411173, 0.20192628, -0.49234053, -0.16939858, 0.23457146, 0
463, 3600783802, 0.9130055, -0.02045608, 0.35388976, 0.20209806, -0.6370432, -0.27720475, 0.24441814, 0
464, 3600800469, 0.91311383, -0.020640276, 0.3535288, 0.20222095, -0.7665183, -0.4503104, 0.2531824, 0
466, 3600833803, 0.91336554, -0.020847503, 0.35274616, 0.20242915, -0.83779186, -0.18748152, 0.32890224, 0
467, 3600850470, 0.91348475, -0.021104418, 0.35234007, 0.202572, -0.73988074, 0.027198635, 0.42557812, 0
469, 3600883804, 0.9138925, -0.02107926, 0.3508763, 0.20327502, -0.62616134, -0.45597506, 0.166708, 0
470, 3600900471, 0.9141649, -0.020825062, 0.34982356, 0.20389022, -0.7483184, -0.54698896, 0.2946396, 0
473, 3600950472, 0.9149036, -0.020207565, 0.3471863, 0.20514324, -1.15877, -0.29446167, 0.4242487, 0
474, 3600967139, 0.91483545, -0.01982857, 0.34698975, 0.2058151, -1.2909869, -0.38729307, 0.25850487, 0
475, 3600983806, 0.9146636, -0.019350875, 0.34706593, 0.20649451, -1.1385273, -0.47848916, 0.16625118, 0
477, 3601017140, 0.91441613, -0.018255018, 0.3468079, 0.20811763, -1.24734, -0.9359184, 0.2878046, 0
478, 3601033807, 0.9142857, -0.017654639, 0.34669116, 0.20893577, -1.3928822, -0.9698697, 0.29008293, 0
479, 3601050474, 0.91412866, -0.017157774, 0.34668967, 0.2096655, -1.3704139, -0.74195063, 0.45235634, 0
481, 3601083808, 0.91391885, -0.016693406, 0.34649494, 0.2109355, -1.3512704, -0.7352525, 0.0766716, 0
482, 3601100475, 0.9136272, -0.016515449, 0.34672007, 0.2118409, -1.6125985, -1.0087188, -0.016418457, 0
483, 3601117142, 0.9132657, -0.016013801, 0.3470132, 0.21295495, -1.7014617, -1.0318303, 0.09983158, 0
485, 3601150476, 0.91292953, -0.015367851, 0.34675086, 0.21486339, -1.4488769, -0.893232, 0.7237091, 0
487, 3601183810, 0.9121456, -0.014841691, 0.3473666, 0.21722165, -1.8550943, -1.2210629, 0.48122883, 0
489, 3601217144, 0.91091096, -0.014557943, 0.34898522, 0.21981233, -2.2432952, -1.0524281, 0.09237766, 0
490, 3601233811, 0.9101182, -0.01405447, 0.34983072, 0.22177558, -1.8141168, -1.115595, 0.987648, 0
492, 3601267145, 0.90740776, -0.0126961805, 0.35011837, 0.23226237, -1.344502, -0.9708878, 1.4822779, 0
493, 3601283812, 0.90485394, -0.011987891, 0.34970126, 0.24265921, -0.86969227, -0.039556723, 0.5487757, 0
494, 3601300479, 0.9018815, -0.009605706, 0.34970146, 0.25358436, 0.3184952, 1.7160537, -0.10687828, 0
496, 3601333813, 0.89775676, -0.005808398, 0.35349882, 0.26290035, 2.805874, 1.6243199, -0.4169588, 0
497, 3601350480, 0.8981526, -0.008993972, 0.3549598, 0.2594678, 1.167544, 1.2639599, -0.317523, 0
498, 3601367147, 0.8993592, -0.013043631, 0.35643506, 0.25301307, -0.31935593, 0.01920711, -1.112894, 0
500, 3601400481, 0.90050197, -0.02442205, 0.36041477, 0.24223892, -2.8652828, -3.4580033, -3.489286, 0
502, 3601433815, 0.89881825, -0.04109057, 0.3558971, 0.2526922, -10.585009, -2.1118832, 1.9167271, 0
504, 3601467149, 0.9006508, -0.045461953, 0.3487491, 0.2553708, -3.1172674, -2.2575498, 1.9234324, 0
505, 3601483816, 0.9009073, -0.047280066, 0.34782994, 0.25538927, -3.4845116, -3.0400374, 0.2632227, 0
506, 3601500483, 0.90041906, -0.0484566, 0.34894684, 0.25536704, -2.9767601, -1.807751, 1.0361824, 0
508, 3601533817, 0.9003516, -0.04967176, 0.34955326, 0.25454098, -3.9423242, -0.78310066, -1.4987621, 0
509, 3601550484, 0.89948887, -0.048732765, 0.35010982, 0.25699586, -2.9626105, -1.1947718, 0.5412035, 0
510, 3601567151, 0.89847976, -0.047049984, 0.34994894, 0.26102626, -3.5930283, -1.7557617, 1.5126381, 0
512, 3601600485, 0.8962321, -0.04569517, 0.35226265, 0.26583767, -3.606383, -2.6126063, 0.0010128021, 0
513, 3601617152, 0.8946203, -0.044754565, 0.3550261, 0.26774403, -3.2261744, -2.1148622, -0.35527802, 0
514, 3601633819, 0.8930266, -0.043755606, 0.3577728, 0.26956725, -2.8279154, -0.4309694, -0.92540455, 0
517, 3601683820, 0.89441586, -0.033345178, 0.3478097, 0.2793124, -2.9693696, -1.2179357, -2.934908, 0
519, 3601717154, 0.8990506, -0.021394167, 0.33163142, 0.28521895, -3.5240507, -0.7341601, 0.6849098, 0
520, 3601733821, 0.9016454, -0.015749298, 0.32304043, 0.2872476, -3.455154, -1.4731832, 0.7270498, 0
521, 3601750488, 0.9046267, -0.010823213, 0.31362477, 0.28853354, -2.5839422, -0.94606483, 1.3101654, 0
523, 3601783822, 0.9120541, -0.0045647286, 0.291187, 0.28883478, -0.1851766, -0.59861773, 1.0840588, 0
524, 3601800489, 0.9153114, -0.0027281456, 0.28086612, 0.28877452, -1.0355976, -1.2705989, 1.83321, 0
525, 3601817156, 0.91642237, -0.0012369342, 0.27697864, 0.28901583, 1.5272307, -0.71044475, 3.58294, 0
527, 3601850490, 0.9168985, 9.4710663E-4, 0.27457073, 0.2898035, 0.94348437, 2.318142, 0.9446621, 0
528, 3601867157, 0.9168001, 0.0014836565, 0.2740699, 0.29058492, 1.2760195, 1.0949613, -0.40711784, 0
529, 3601883824, 0.91679317, 0.0019911826, 0.2730694, 0.29154462, 1.9297917, -0.9441521, -0.5754986, 0
531, 3601917158, 0.9171909, 0.0019496717, 0.2708475, 0.29236543, 2.8161418, 0.7123101, -0.09401417, 0
532, 3601933825, 0.91758555, 0.0012684725, 0.26930404, 0.29255646, 3.702061, 2.2784925, 1.0498209, 0
533, 3601950492, 0.9178659, 3.8373843E-4, 0.26785553, 0.29300904, 2.7107072, 1.0165472, -0.5787506, 0
535, 3601983826, 0.9181126, -0.0015825331, 0.26570216, 0.29419023, 2.5655663, -0.1487209, -0.12395096, 0
536, 3602000493, 0.91808224, -0.0024760105, 0.26500973, 0.29490253, 2.2710786, 0.604183, 0.5236473, 0
537, 3602017160, 0.91805637, -0.0035457015, 0.26426065, 0.29564342, 1.0364189, 0.66722083, 0.002292633, 0
539, 3602050494, 0.9180166, -0.0060406104, 0.2624842, 0.2973043, 1.2233875, -0.32298478, 0.1218214, 0
540, 3602067161, 0.9178283, -0.0071195774, 0.26185185, 0.29841757, 1.3426542, -0.22996855, 0.24917412, 0
541, 3602083828, 0.9174922, -0.007927638, 0.2614654, 0.29976636, 0.5688529, -0.40640703, 0.57423115, 0
544, 3602133829, 0.91604203, -0.009438038, 0.2614472, 0.3041416, 0.2226784, -0.553038, 0.28110886, 0
546, 3602167163, 0.9148369, -0.009937178, 0.26201853, 0.3072454, 0.13024478, -0.30931646, 0.4478798, 0
547, 3602183830, 0.91413575, -0.009767618, 0.26252323, 0.30890262, 0.25240055, -0.30800724, 0.36263847, 0
548, 3602200497, 0.91320974, -0.0091430135, 0.26374894, 0.31061214, -0.37055767, 0.036998563, -0.28851795, 0
550, 3602233831, 0.9105191, -0.006108675, 0.26824838, 0.31470534, -1.2137887, 0.6152585, -0.022478104, 0
551, 3602250498, 0.9092202, -0.004531443, 0.2707462, 0.3163436, -0.60582626, 0.59394026, 0.191679, 0
552, 3602267165, 0.90798956, -0.0028947033, 0.27323347, 0.31775564, 0.17530495, -0.5237673, 0.3992157, 0
554, 3602300499, 0.9059631, 1.3341755E-4, 0.2776224, 0.319743, -0.47426492, 0.6180596, 0.05105114, 0
555, 3602317166, 0.9051824, 0.0013985597, 0.27956706, 0.32025614, -0.8032863, 0.85567725, -0.15923691, 0
556, 3602333833, 0.90451956, 0.002515845, 0.28133544, 0.32057333, -0.23053432, 0.9989708, 0.81869984, 0
559, 3602383834, 0.9026926, 0.005353585, 0.28764856, 0.32008523, -0.8788958, 0.5408677, 0.32034492, 0
560, 3602400501, 0.90252185, 0.0060622767, 0.28910345, 0.31924248, -0.2870044, 0.37686986, 0.7793598, 0
562, 3602433835, 0.9027787, 0.0069900304, 0.29044387, 0.31727442, 1.109029, 0.1588746, 1.2036419, 0
563, 3602450502, 0.9031605, 0.0072305724, 0.29084793, 0.31580812, -0.21509244, 0.4208434, 0.10182762, 0
564, 3602467169, 0.9036538, 0.007145021, 0.29145297, 0.31383553, -0.6756695, 1.1978809, 0.43803215, 0
566, 3602500503, 0.9046792, 0.0065935366, 0.29309988, 0.30932707, -0.80295324, 0.82432246, -0.111784935, 0
567, 3602517170, 0.90521806, 0.0064388067, 0.29353613, 0.30733377, -1.1565624, 0.62938535, 0.49101543, 0
568, 3602533837, 0.90583557, 0.0065078735, 0.29353192, 0.30551165, -1.0293773, -0.1329313, 0.0689497, 0
570, 3602567171, 0.9079685, 0.0056740083, 0.2917281, 0.30088955, -1.179827, -0.57906336, 0.41253185, 0
571, 3602583838, 0.9096179, 0.004788637, 0.28968418, 0.29788253, -1.417014, -0.49642718, 0.05924511, 0
574, 3602633839, 0.91616327, -0.0014275722, 0.27898622, 0.2879035, -0.8877624, -0.9121486, 0.75011635, 0
575, 3602650506, 0.918357, -0.004042145, 0.27508974, 0.28461963, -0.90975654, -1.4209937, 0.76560783, 0
577, 3602683840, 0.9222868, -0.0095061585, 0.2682908, 0.2782005, -1.6954685, -0.9623367, 0.42039776, 0
578, 3602700507, 0.9240778, -0.012473896, 0.26526433, 0.2750245, -1.8143108, -1.0450348, 0.49627495, 0
579, 3602717174, 0.92555356, -0.014887799, 0.26272076, 0.2723701, -2.106132, -1.5798874, -0.13962936, 0
581, 3602750508, 0.92762107, -0.019079132, 0.25831318, 0.26927352, -1.1524063, -1.8615956, 0.4567299, 0
582, 3602767175, 0.9282867, -0.020742262, 0.25688955, 0.26821622, -2.3103983, -2.5360222, -0.45219326, 0
583, 3602783842, 0.9288194, -0.022398526, 0.25576693, 0.2673105, -2.3995972, -1.489243, 0.7657223, 0
585, 3602817176, 0.9297406, -0.025376683, 0.25227162, 0.26716334, -2.2573972, -2.9217055, 0.28817272, 0
586, 3602833843, 0.9298963, -0.026608638, 0.25081587, 0.26787144, -2.5005982, -2.3106904, 0.95577526, 0
589, 3602883844, 0.92911977, -0.030415818, 0.24955466, 0.27131635, -3.0581048, -1.8335687, -1.8177018, 0
590, 3602900511, 0.9284203, -0.030989978, 0.24993667, 0.27328724, -3.611561, -0.07240993, -1.6339636, 0
591, 3602917178, 0.92795765, -0.031220583, 0.24876535, 0.27588838, -3.1445146, -1.3472384, -0.039894104, 0
593, 3602950512, 0.92646724, -0.030023288, 0.247625, 0.28198868, -0.50771976, -3.0414114, 3.194601, 0
594, 3602967179, 0.9252934, -0.029560627, 0.24938926, 0.28432745, -1.843021, -1.8395833, 2.3703928, 0
595, 3602983846, 0.92399997, -0.029447962, 0.25240102, 0.28588364, -3.5399415, -0.918366, 0.3925476, 0
597, 3603017180, 0.92199457, -0.027871316, 0.25583965, 0.2894374, -2.3424606, -2.232654, -0.4133482, 0
598, 3603033847, 0.9205486, -0.025452627, 0.2578598, 0.29245427, -1.1078016, -2.21991, 2.2741365, 0
599, 3603050514, 0.9188907, -0.023610992, 0.26120925, 0.29484057, 0.3371442, -0.6551858, 3.1800823, 0
601, 3603083848, 0.9142044, -0.013737194, 0.27789736, 0.29477698, -1.1407394, 2.3010728, -5.110971, 0
602, 3603100515, 0.9125537, -0.01400343, 0.2852731, 0.2928273, 0.9272895, -4.4404235, -3.4866958, 0
604, 3603133849, 0.914017, -0.018127799, 0.27775633, 0.29525313, 0.4903112, 9.1875E-4, -0.6367769, 0
605, 3603150516, 0.9130149, -0.014203727, 0.27799845, 0.29832473, -0.7392707, 0.33135417, 1.2068033, 0
606, 3603167183, 0.91180205, -0.010537632, 0.27988812, 0.30041212, -0.48893788, 2.8481658, 4.965536, 0
608, 3603200517, 0.90869945, -0.0072756484, 0.2900923, 0.3002296, 0.12981845, 3.5350332, -0.70486355, 0
609, 3603217184, 0.9078908, -0.0044948943, 0.2926223, 0.30027515, -0.7831298, 0.12051771, -2.0985045, 0
610, 3603233851, 0.90848404, -5.7106465E-4, 0.29103053, 0.30006075, -0.831728, 0.23061335, -2.2316003, 0
612, 3603267185, 0.91056997, 0.0077363662, 0.2854272, 0.2990195, -1.8727427, 2.0441701, 1.892705, 0
613, 3603283852, 0.91190434, 0.010395575, 0.28253886, 0.29761225, -0.83517283, 0.9312892, 3.355914, 0
616, 3603333853, 0.9148897, 0.014586829, 0.27830517, 0.29221392, 2.145825, 0.49984092, 0.009921074, 0
617, 3603350520, 0.9154917, 0.015087564, 0.27812085, 0.29047346, 1.765044, 1.7100722, 2.006359, 0
618, 3603367187, 0.91592026, 0.015308078, 0.27830493, 0.28893054, 1.2715118, 2.255442, 2.349309, 0
620, 3603400521, 0.91660863, 0.014724996, 0.27956218, 0.28554446, 1.9997867, 1.3515104, -0.4062605, 0
621, 3603417188, 0.9170271, 0.014198054, 0.28011718, 0.28367764, 3.158703, 0.12971115, 0.40620708, 0
622, 3603433855, 0.9176172, 0.013894014, 0.27983463, 0.28205848, 1.4461551, -0.3485867, 0.8499689, 0
624, 3603467189, 0.91869706, 0.013229802, 0.27880916, 0.27958015, 0.8757931, 1.559085, -1.7998648, 0
625, 3603483856, 0.9193241, 0.012855399, 0.27770293, 0.27863553, 0.7172507, -0.23117188, -0.61725044, 0
627, 3603517190, 0.9201216, 0.012877025, 0.27575108, 0.27794003, 1.2701573, 0.09544872, 1.2946835, 0
628, 3603533857, 0.9203405, 0.012802392, 0.27536687, 0.27759925, 0.83893526, 1.4840815, 0.2797985, 0
631, 3603583858, 0.9206517, 0.012332648, 0.27422425, 0.27772018, 1.024209, -1.0366477, -0.39233303, 0
632, 3603600525, 0.92059106, 0.012581654, 0.27381527, 0.27831253, 0.5675905, -1.1371034, 0.36502743, 0
633, 3603617192, 0.9206269, 0.012885623, 0.273328, 0.27865905, 0.6599681, -0.10392852, 1.2137327, 0
635, 3603650526, 0.92030495, 0.013208739, 0.27345195, 0.27958402, 0.020904489, 0.637118, 0.104421616, 0
636, 3603667193, 0.9200594, 0.013232157, 0.2737326, 0.28011572, -0.69607425, -0.32147065, -0.55981827, 0
637, 3603683860, 0.9198351, 0.01336256, 0.27407208, 0.28051412, 0.101430975, -0.55361086, 0.6589756, 0
639, 3603717194, 0.9194648, 0.013776813, 0.27477926, 0.2810157, -0.159884, 0.44803315, 1.0294523, 0
640, 3603733861, 0.9192879, 0.01397749, 0.27522793, 0.28114522, -0.56057876, 0.67390394, 0.20788956, 0
641, 3603750528, 0.9192095, 0.014108527, 0.27547488, 0.28115326, -1.0744817, 0.40091714, -0.04304695, 0
643, 3603783862, 0.91917574, 0.014843956, 0.2756382, 0.28106588, -1.7367452, -0.67938757, -0.48475933, 0
645, 3603817196, 0.9193415, 0.0155850835, 0.27535662, 0.28075963, -0.49759874, 0.7068311, 0.5950823, 0
647, 3603850530, 0.919916, 0.015249405, 0.27509266, 0.2791502, -0.40873456, 0.0585602, 0.67262745, 0
648, 3603867197, 0.920201, 0.015351843, 0.2749929, 0.27830222, -0.23987329, 0.74161065, 0.8282604, 0
649, 3603883864, 0.9204296, 0.015639987, 0.27504537, 0.27747756, -1.7785668, 0.7431421, -0.32697582, 0
651, 3603917198, 0.9209641, 0.016163014, 0.27557075, 0.2751426, -0.58200526, 0.16414756, 0.5535383, 0
652, 3603933865, 0.9213246, 0.016413786, 0.275445, 0.27404484, -0.5569459, 0.13179976, 0.5577011, 0
654, 3603967199, 0.922379, 0.016312115, 0.27461112, 0.27132693, -0.97078764, 0.07595926, 0.04363823, 0
655, 3603983866, 0.9231165, 0.015853982, 0.2738951, 0.26956454, -0.35935023, 0.17068145, 0.21755505, 0
656, 3604000533, 0.9239312, 0.015220601, 0.2729076, 0.2678059, -1.1070492, 0.13690042, -0.06261253, 0
658, 3604033867, 0.9258711, 0.013094183, 0.27014723, 0.26398957, -0.47676748, 0.08844983, 1.8526764, 0
660, 3604067201, 0.92839795, 0.010127414, 0.265801, 0.25962123, -1.0147557, -0.7054959, 0.70852375, 0
662, 3604100535, 0.930898, 0.006602589, 0.2614396, 0.25517315, -0.99110013, -0.70576966, 0.49918747, 0
663, 3604117202, 0.93187284, 0.00502868, 0.25976422, 0.25335544, -0.61617935, -0.6771455, 0.04836464, 0
664, 3604133869, 0.932592, 0.0032183006, 0.25881824, 0.2517014, 0.2183603, -0.3408785, 0.06719875, 0
666, 3604167203, 0.93393457, -8.43741E-5, 0.25611952, 0.2494955, -1.4212123, -2.066912, 0.16178608, 0
667, 3604183870, 0.9345558, -0.0019288473, 0.2551541, 0.24814689, -1.1796235, -1.4570493, -0.56616306, 0
668, 3604200537, 0.9350815, -0.003958173, 0.25440332, 0.24691015, -0.74440444, -1.0067196, -0.4102955, 0
670, 3604233871, 0.9359537, -0.006749641, 0.25178397, 0.24622925, -1.5293871, -1.1099173, 0.81549263, 0
671, 3604250538, 0.93625337, -0.00783693, 0.25075728, 0.24610558, -1.6722497, -1.0551919, -0.15017033, 0
672, 3604267205, 0.93642235, -0.0088978335, 0.2498691, 0.24632925, -0.44002345, -1.3210196, 0.6283045, 0
674, 3604300539, 0.9360269, -0.010480318, 0.24951963, 0.24811813, -0.37260342, -1.0266818, 0.016302109, 0
675, 3604317206, 0.93586206, -0.011251032, 0.24902652, 0.24919917, -1.63235, -1.3579313, 0.714304, 0
676, 3604333873, 0.93557584, -0.011760574, 0.24886866, 0.2504052, -1.4309441, -1.4413302, 0.28287697, 0
678, 3604367207, 0.9343513, -0.011626065, 0.24911466, 0.25470197, -1.846863, -2.327245, 0.3051958, 0
679, 3604383874, 0.9335728, -0.011098526, 0.24986802, 0.25683364, -1.5959276, -1.4769409, -0.13085175, 0
680, 3604400541, 0.9327235, -0.010454576, 0.25126088, 0.2585812, -1.9520814, -1.466706, -0.61903477, 0
682, 3604433875, 0.9311745, -0.010005627, 0.25298816, 0.26246834, -1.1756935, -2.306558, 0.6730156, 0
683, 3604450542, 0.9301422, -0.009565119, 0.25435022, 0.26481828, -0.24035941, -1.8730097, 0.80503845, 0
685, 3604483876, 0.92775375, -0.009241983, 0.26008573, 0.26762238, -2.7444465, -0.8215953, 0.90146446, 0
687, 3604517210, 0.9250964, -0.008228768, 0.26805082, 0.26899183, -4.7683043, -1.2021648, -0.96113014, 0
689, 3604550544, 0.9231444, -0.0061863177, 0.2721332, 0.27164024, -1.5135303, -3.6183965, 2.7486448, 0
690, 3604567211, 0.92159206, -0.005109489, 0.27613539, 0.2728919, -1.5990063, -1.5073339, 5.110548, 0
691, 3604583878, 0.9194154, -0.00455451, 0.28331354, 0.27288562, -2.0517259, 1.7202026, 0.61088467, 0
693, 3604617212, 0.9144521, -0.003770195, 0.30160615, 0.26995507, 1.6098833, -0.6657561, -3.3836994, 0
694, 3604633879, 0.9153994, -0.0013503246, 0.29804248, 0.27072397, 1.5519474, -0.82991666, -4.423872, 0
695, 3604650546, 0.91803217, 0.004150685, 0.2872072, 0.27347842, 3.7289622, -0.53194237, -2.0949373, 0
697, 3604683880, 0.9191256, 0.014316883, 0.27875674, 0.27816683, 3.1181133, 6.012821, 5.027918, 0
698, 3604700547, 0.91939765, 0.01648352, 0.27774718, 0.27815753, 1.8574094, 4.8774567, 4.7583303, 0
699, 3604717214, 0.9194455, 0.017437242, 0.27809116, 0.2775967, 5.50986, 2.64525, -0.06646252, 0
702, 3604767215, 0.9182701, 0.021671914, 0.27969974, 0.27956644, 4.395028, 0.29624206, 0.38640785, 0
703, 3604783882, 0.91763973, 0.022454731, 0.281062, 0.28020692, 5.0603476, 2.8650477, 3.092784, 0
705, 3604817216, 0.91655266, 0.022654515, 0.283557, 0.28123358, 2.147285, 2.9952385, 2.3742514, 0
706, 3604833883, 0.91605145, 0.021926243, 0.28572276, 0.2807314, 1.3694863, 1.0874975, -0.593029, 0
707, 3604850550, 0.9153874, 0.021101337, 0.28828874, 0.28033707, 1.2760345, -0.21504508, -1.617609, 0
709, 3604883884, 0.9137833, 0.020133551, 0.29350713, 0.2802269, 1.1985146, 1.2937862, 1.3492384, 0
710, 3604900551, 0.91238886, 0.019870784, 0.29769647, 0.28036955, 1.8654758, 0.6227342, 0.07200909, 0
712, 3604933885, 0.906683, 0.020384807, 0.31229073, 0.2829553, -1.0153444, 1.2211012, -0.1764288, 0
713, 3604950552, 0.90306073, 0.020091362, 0.3214548, 0.2842946, -0.10455245, 1.8851997, 0.2522564, 0
714, 3604967219, 0.8991512, 0.019491065, 0.33131555, 0.28540498, -0.54198545, 0.7767068, -0.2380104, 0
717, 3605017220, 0.88314646, 0.013352729, 0.36927414, 0.28911817, -1.8179615, -0.24541566, -2.1558557, 0
718, 3605033887, 0.8758799, 0.008812048, 0.38575545, 0.2898761, -1.2453587, 0.45521086, -0.2389946, 0
720, 3605067221, 0.8597995, 0.0014077872, 0.41840824, 0.2928412, -1.5945145, -0.06287869, -0.29962826, 0
721, 3605083888, 0.85047996, -0.0034116507, 0.43636632, 0.29382867, -1.7260139, 0.839927, 0.26089, 0
722, 3605100555, 0.84132415, -0.008059144, 0.45286807, 0.29512376, -0.61335474, 0.8364048, 1.2056522, 0
724, 3605133889, 0.820486, -0.017972358, 0.4864898, 0.29981044, -1.7196764, -0.64732903, -1.2630558, 0
725, 3605150556, 0.80992156, -0.023821838, 0.5009495, 0.30428278, -1.9540042, -0.36999598, 0.15934277, 0
726, 3605167223, 0.79917043, -0.031758465, 0.5128466, 0.31206602, -2.5889435, 0.061162587, -0.11837864, 0
728, 3605200557, 0.77387434, -0.052937437, 0.53488123, 0.33510762, -1.4854969, 0.5042052, 2.765233, 0
729, 3605217224, 0.7614058, -0.06511955, 0.54293936, 0.3483048, -1.2466596, 0.66504943, 1.1597977, 0
732, 3605267225, 0.72613764, -0.0877146, 0.57018316, 0.3741666, -1.5511868, 0.5401036, 0.43474865, 0
733, 3605283892, 0.7175991, -0.09116779, 0.5792436, 0.37589324, -0.15190208, 0.046244048, 0.52724266, 0
735, 3605317226, 0.7126868, -0.09965402, 0.5901946, 0.36591786, -0.6221858, -2.2324815, -1.195858, 0
736, 3605333893, 0.71280354, -0.10419845, 0.5939698, 0.3582353, -3.383527, -1.391078, -2.1503053, 0
737, 3605350560, 0.712261, -0.1071253, 0.598429, 0.35095584, -0.8505665, 2.4241025, 1.8369846, 0
739, 3605383894, 0.7054151, -0.103755146, 0.61269915, 0.34103227, -3.1783855, 4.086891, 0.108875275, 0
740, 3605400561, 0.700218, -0.10368382, 0.62186146, 0.33512947, -1.3509862, 2.684224, 0.3201065, 0
741, 3605417228, 0.69703335, -0.102449186, 0.62777275, 0.33110288, -0.62235594, -1.7629615, -2.214974, 0
743, 3605450562, 0.6902494, -0.098308355, 0.6396339, 0.32378802, 0.27266505, 1.2926059, 2.2632704, 0
744, 3605467229, 0.6869294, -0.09721561, 0.64549047, 0.31952804, -0.44585073, 1.5791526, -0.065304756, 0
745, 3605483896, 0.6805706, -0.095953576, 0.65383434, 0.31653786, -1.7121079, 0.24046808, -0.30139637, 0
747, 3605517230, 0.66662776, -0.095423, 0.6718951, 0.30844408, 0.4861973, 0.5789694, -0.49400902, 0
748, 3605533897, 0.66349435, -0.094767734, 0.6768677, 0.30450517, 2.395543, -0.9846282, -1.0207815, 0
749, 3605550564, 0.659423, -0.09276684, 0.68143004, 0.30378908, 0.40337968, -1.526684, 0.026043892, 0
751, 3605583898, 0.6496225, -0.0867618, 0.69144946, 0.30403855, -0.8202919, 1.3762609, 0.8770132, 0
752, 3605600565, 0.64298403, -0.08411661, 0.69828427, 0.30327186, -0.49686372, -1.4821231, -0.86941624, 0
753, 3605617232, 0.6342162, -0.08241099, 0.70597935, 0.3043856, 0.36720726, -1.5013701, -1.0088968, 0
755, 3605650566, 0.6234935, -0.082894586, 0.71533465, 0.30456483, 1.725094, -0.30913517, -0.78227425, 0
756, 3605667233, 0.6233883, -0.084181726, 0.71538067, 0.3043189, 2.182949, -2.3700237, 2.326066, 0
759, 3605717234, 0.6251594, -0.087725095, 0.7159908, 0.29818842, 1.1272936, 0.8823919, 1.8507318, 0
760, 3605733901, 0.62509024, -0.08812104, 0.71660006, 0.29674965, 0.4031668, -0.82663286, 0.46439743, 0
762, 3605767235, 0.6304039, -0.090037234, 0.71279675, 0.2940817, -0.3744954, 0.56849694, -1.8713584, 0
763, 3605783902, 0.6343417, -0.09133279, 0.7101196, 0.2916814, -0.70282286, -1.6249878, -1.3599691, 0
764, 3605800569, 0.63844866, -0.09307453, 0.70717174, 0.2893224, -0.24397501, -0.83666724, -0.19279957, 0
766, 3605833903, 0.644914, -0.094917834, 0.70202076, 0.28691894, -1.9568658, 1.437385, -0.1200304, 0
767, 3605850570, 0.6463878, -0.093031526, 0.7006958, 0.28745836, -2.1811318, 0.7834503, 0.597003, 0
768, 3605867237, 0.6479646, -0.08581806, 0.69839615, 0.29171723, -1.9598944, -0.30362436, 1.8844194, 0
770, 3605900571, 0.64992183, -0.063365154, 0.69201744, 0.30785948, 0.9872136, 0.5531334, 1.0434513, 0
771, 3605917238, 0.6505877, -0.04676234, 0.68838036, 0.31742832, 0.2527942, 1.6748366, 2.5746527, 0
774, 3605967239, 0.6583999, 0.022849336, 0.666715, 0.3486509, -0.95218444, 0.31065708, 1.9228897, 0
775, 3605983906, 0.66343737, 0.04378102, 0.65377873, 0.3613677, 0.6514921, -1.1486076, 0.77487373, 0
776, 3606000573, 0.6701142, 0.05187104, 0.63817805, 0.3755851, 2.0691497, -0.72524524, 0.25338173, 0
778, 3606033907, 0.7034017, 0.046616986, 0.6027754, 0.37388992, -1.7312592, 8.407652, 3.6061487, 0
779, 3606050574, 0.72959375, 0.037437215, 0.5786913, 0.36261088, 0.27467597, 1.9696538, -0.37259865, 0
780, 3606067241, 0.7545657, 0.022515379, 0.55610305, 0.34778154, 0.8206234, 0.8444246, -3.2136483, 0
782, 3606100575, 0.793626, -2.2485107E-4, 0.5205908, 0.31499547, -0.061752804, -3.1099489, -3.7716246, 0
783, 3606117242, 0.8080197, -0.01074563, 0.50604445, 0.30164003, -0.75306606, -4.6524267, -2.6774316, 0
786, 3606167243, 0.8367413, -0.026079338, 0.46768168, 0.28378952, -1.5548729, -4.4127183, -1.913671, 0
787, 3606183910, 0.8413207, -0.027646981, 0.45794955, 0.2859661, -1.3011556, -3.8810515, -0.59649754, 0
790, 3606233911, 0.85247016, -0.028094575, 0.42365104, 0.30513, 0.9088441, -0.50169134, 1.0973577, 0
791, 3606250578, 0.85719734, -0.028618887, 0.41079295, 0.30938953, 1.4792892, 0.11382392, 0.1477232, 0
793, 3606283912, 0.8667619, -0.027175218, 0.38828775, 0.31192452, 2.7979958, -1.0770898, 0.19552326, 0
794, 3606300579, 0.8712246, -0.025631882, 0.37799406, 0.3122665, 4.80427, -0.83567446, 1.7740192, 0
795, 3606317246, 0.8764432, -0.022132069, 0.36640018, 0.3117491, 7.5071306, 1.0752319, -0.23252392, 0
797, 3606350580, 0.88666046, -0.011407275, 0.35026094, 0.30182695, 13.911394, 1.8199108, -6.8165116, 0
798, 3606367247, 0.88915735, -0.007859264, 0.349361, 0.29557312, 16.24507, 1.8740181, -7.0880985, 0
799, 3606383914, 0.8890014, -0.0032041557, 0.3547721, 0.28962383, 20.163174, 2.914486, -6.827972, 0
801, 3606417248, 0.8806978, 2.926439E-4, 0.38344932, 0.278239, 29.534187, 4.190271, -6.138297, 0
802, 3606433915, 0.86961347, -0.00459525, 0.41148305, 0.27296883, 32.61871, 5.787848, -4.351805, 0
805, 3606483916, 0.8578209, -0.04869734, 0.45864055, 0.22693527, -11.7999525, 0.20098838, -0.523757, 0
806, 3606500583, 0.8500157, -0.056267876, 0.47258124, 0.22594939, 1.191363, 5.9741983, -2.5934305, 0
807, 3606517250, 0.8408615, -0.0610634, 0.48778933, 0.22663593, 1.2500945, -0.3933643, -0.3391323, 0
809, 3606550584, 0.82606804, -0.08205781, 0.5158005, 0.21191311, -2.9104385, -0.6183797, -0.71759796, 0
810, 3606567251, 0.80737936, -0.09563838, 0.5452501, 0.20438512, -5.154085, 0.1464882, -2.037981, 0
811, 3606583918, 0.7726095, -0.11099353, 0.59326226, 0.19716515, -4.6587563, -1.8961469, -1.9454565, 0
813, 3606617252, 0.64504737, -0.16253878, 0.7304085, 0.1551696, -10.8566675, -0.6578957, 5.646923, 0
814, 3606633919, 0.55700034, -0.17586797, 0.80217135, 0.12418312, -20.057718, -4.5314865, 25.203583, 0
815, 3606650586, 0.491985, -0.15606192, 0.85386896, 0.06769408, -20.755148, -12.355999, 60.955257, 0
817, 3606683920, 0.40231222, -0.15084618, 0.9028413, 0.018619362, -21.236065, -12.890078, 33.93426, 0
818, 3606700587, 0.35747376, -0.16661537, 0.91895396, -0.0073781908, -4.867679, 9.271799, 21.143524, 0
820, 3606733921, 0.2640692, -0.17901586, 0.9460288, -0.057699215, -27.648296, -7.1834455, -5.7779884, 0
821, 3606750588, 0.225627, -0.18204007, 0.9532904, -0.085266344, -28.409437, -3.7333639, -12.65556, 0
822, 3606767255, 0.19397408, -0.1865734, 0.95699775, -0.10862106, -21.855543, -4.4470406, -22.577103, 0
824, 3606800589, 0.1410357, -0.20177592, 0.9618118, -0.119968936, -12.174122, 2.0141227, -32.18563, 0
825, 3606817256, 0.13354686, -0.20645475, 0.962308, -0.11655018, -11.731721, 3.8407254, -28.157143, 0
826, 3606833923, 0.14080054, -0.21130851, 0.9607383, -0.11218344, -11.602416, 3.9912343, -22.571198, 0
828, 3606867257, 0.19094972, -0.2252333, 0.9503291, -0.098801605, -7.843051, -1.5404927, -14.57098, 0
829, 3606883924, 0.22080104, -0.23622933, 0.9423442, -0.08665472, -3.8376715, -3.3824143, -13.023615, 0
832, 3606933925, 0.30011666, -0.259012, 0.9172587, -0.03947581, -3.9044802, -4.4721475, -8.550663, 0
833, 3606950592, 0.3277409, -0.25617927, 0.909093, -0.024226952, -2.877622, -4.502408, -7.2874303, 0
834, 3606967259, 0.3543138, -0.25141472, 0.9006956, -0.008857422, -2.877522, -4.632709, -5.874708, 0
836, 3607000593, 0.40878928, -0.24408227, 0.87903994, 0.026133623, -3.9438782, -3.943136, -0.8192339, 0
837, 3607017260, 0.43811074, -0.24016201, 0.8652795, 0.041851126, -1.4497566, -0.15820979, 1.3106356, 0
838, 3607033927, 0.46718922, -0.23262301, 0.8515299, 0.050957114, 0.038692705, 1.1441147, 1.7136269, 0
840, 3607067261, 0.51798064, -0.21194664, 0.8262876, 0.0640492, -0.34082466, -0.6144524, 0.9836674, 0
841, 3607083928, 0.53928715, -0.20172165, 0.8143827, 0.07305801, -1.2917179, 0.12880073, 1.4371424, 0
843, 3607117262, 0.5838223, -0.18023612, 0.7862298, 0.09267257, -1.0960538, 2.8553946, 4.0561247, 0
844, 3607133929, 0.60841584, -0.16762727, 0.7694798, 0.09854563, 0.4171247, 5.14453, 5.4401054, 0
847, 3607183930, 0.67300254, -0.14672151, 0.7181754, 0.099214524, 2.481792, 2.3560646, 2.246685, 0
848, 3607200597, 0.6896076, -0.14130843, 0.7030318, 0.10148282, 1.368817, 1.4745387, 2.705862, 0
849, 3607217264, 0.70531595, -0.13435745, 0.68798554, 0.10598416, 1.1111939, 2.5786386, 3.1634789, 0
851, 3607250598, 0.7368349, -0.119499154, 0.6554062, 0.115395114, 2.8823402, 5.008068, 2.8815975, 0
852, 3607267265, 0.7514264, -0.11452679, 0.63927674, 0.11681771, 2.4547994, 5.4034276, 2.0715313, 0
853, 3607283932, 0.7652845, -0.11131724, 0.6231063, 0.11732713, 1.049064, 2.1221385, 1.2796497, 0
855, 3607317266, 0.78865707, -0.10931888, 0.5914584, 0.12777184, -0.73258215, -0.0069407616, 0.7898474, 0
856, 3607333933, 0.79957885, -0.104801126, 0.57533574, 0.13696119, -0.6203932, 1.1524249, 1.7420864, 0
857, 3607350600, 0.8105644, -0.099643275, 0.5584173, 0.1459647, 0.043685652, 1.8820157, 1.895648, 0
859, 3607383934, 0.8314084, -0.09118138, 0.52466893, 0.1588949, 0.1838017, 1.1607044, 1.5097265, 0
861, 3607417268, 0.8507508, -0.08330819, 0.49120477, 0.16757001, -0.54160655, -1.0735481, 1.792099, 0
863, 3607450602, 0.8663409, -0.07255036, 0.4600739, 0.18055739, -0.36618116, -1.8487499, 0.59130764, 0
864, 3607467269, 0.87226176, -0.066722564, 0.445767, 0.18994269, -0.64969844, -1.7504258, 1.8817005, 0
865, 3607483936, 0.87747574, -0.06058459, 0.43141323, 0.20081675, -0.64087945, -1.3534459, 1.6982174, 0
867, 3607517270, 0.8863424, -0.048772246, 0.4023231, 0.22412871, 0.026437972, -0.3287989, 2.7114449, 0
868, 3607533937, 0.89070034, -0.043545686, 0.38702667, 0.23461904, 0.46106267, 0.35361537, 2.4868345, 0
870, 3607567271, 0.89862245, -0.03168108, 0.3586377, 0.25086293, 1.443189, 0.26510134, 1.8632479, 0
871, 3607583938, 0.9016134, -0.024453983, 0.34687594, 0.25739336, 1.9654258, -0.064048894, 1.5997219, 0
872, 3607600605, 0.903906, -0.01639714, 0.33658478, 0.26358086, 2.9384735, -0.058327634, 2.7553911, 0
874, 3607633939, 0.90923417, -9.191334E-4, 0.31207886, 0.27564183, 3.9578426, 0.8413238, 3.1110783, 0
876, 3607667273, 0.9140279, 0.010123912, 0.28979585, 0.28380972, 4.1652102, 2.1591566, 0.3434782, 0
878, 3607700607, 0.91604996, 0.025415316, 0.27949694, 0.2866481, 4.9231095, 1.9365506, -0.63943005, 0
879, 3607717274, 0.91612476, 0.03613192, 0.27693945, 0.2877393, 6.4232345, 1.3907934, 1.9960108, 0
880, 3607733941, 0.91690546, 0.045001015, 0.27076766, 0.28986767, 7.0601516, 0.8641335, 3.400072, 0
882, 3607767275, 0.9203752, 0.051920604, 0.25365433, 0.2931762, 5.671399, 3.4958518, -2.619371, 0
883, 3607783942, 0.92164373, 0.056131236, 0.24830303, 0.2929966, 5.9776278, 3.242224, -2.7713943, 0
884, 3607800609, 0.92240345, 0.06059658, 0.24496108, 0.2925288, 6.077417, 2.5170515, -3.4399662, 0
886, 3607833943, 0.9212099, 0.07138891, 0.24367478, 0.29491985, 6.6147256, 1.5616795, -4.464487, 0
887, 3607850610, 0.91937494, 0.07489096, 0.24523056, 0.29846624, 7.3896585, 1.0441965, -4.4250307, 0
888, 3607867277, 0.91734296, 0.075601995, 0.24751867, 0.3026216, 8.36796, 1.5658125, -4.2247424, 0
890, 3607900611, 0.91296816, 0.074535966, 0.2562844, 0.30875736, 9.319631, 3.9304566, -7.231607, 0
891, 3607917278, 0.909987, 0.07570949, 0.26483566, 0.31005296, 10.975274, 4.7993293, -7.706368, 0
892, 3607933945, 0.9065445, 0.077172086, 0.27609828, 0.30995208, 13.519061, 5.044157, -7.880028, 0
894, 3607967279, 0.89975, 0.07340947, 0.30952114, 0.29889214, 19.698606, 6.4595666, -11.734471, 0
895, 3607983946, 0.89497393, 0.07328443, 0.3354391, 0.2849752, 24.622753, 6.223248, -8.081062, 0
897, 3608017280, 0.8744622, 0.0845215, 0.40483883, 0.25368622, 35.60541, 3.6815295, -3.848269, 0
898, 3608033947, 0.856714, 0.08730956, 0.44915077, 0.2382456, 39.186672, 5.134669, 2.5553741, 0
899, 3608050614, 0.8500817, 0.023274027, 0.4680582, 0.24045826, 7.1014457, 1.2924899, 37.948284, 0
901, 3608083948, 0.8509112, -0.0108052865, 0.46554118, 0.24327755, -4.2721853, -4.766866, 4.777751, 0
903, 3608117282, 0.8510052, -0.033674404, 0.4708554, 0.23028335, -1.9653571, 0.19689737, -0.34465027, 0
905, 3608150616, 0.81796557, -0.05335096, 0.5260805, 0.22672579, -4.187156, -2.1089866, -1.2592487, 0
906, 3608167283, 0.7820606, -0.067837454, 0.5781123, 0.2228106, -4.7761703, -2.4890769, -1.7861071, 0
907, 3608183950, 0.72718924, -0.08820316, 0.64630735, 0.21396697, -5.7342377, -1.5073745, -0.17335701, 0
909, 3608217284, 0.5654419, -0.12152987, 0.7963638, 0.17717135, -17.521608, -2.3960822, 23.596905, 0
910, 3608233951, 0.49547547, -0.11632456, 0.8507415, 0.13149366, -25.856806, -5.1154733, 53.049835, 0
911, 3608250618, 0.45464942, -0.122084156, 0.8783943, 0.08301775, -14.824062, -42.21062, 47.433876, 0
913, 3608283952, 0.35755348, -0.14486915, 0.91738516, 0.098244846, 3.456876, 21.091963, 17.083529, 0
914, 3608300619, 0.3132962, -0.14105175, 0.937721, 0.052038275, -28.102364, -13.249307, 8.0973625, 0
915, 3608317286, 0.27439475, -0.14572051, 0.9501657, 0.027154787, -31.747023, -6.118824, -6.898759, 0
918, 3608367287, 0.18623671, -0.17140117, 0.9659593, -0.054213487, -14.435524, -8.176044, -33.268032, 0
919, 3608383954, 0.16559564, -0.17799175, 0.9682797, -0.05839891, -13.7929125, -7.5255756, -37.26174, 0
921, 3608417288, 0.17745088, -0.18008848, 0.96653897, -0.044283047, -12.317945, -0.53485453, -22.353111, 0
922, 3608433955, 0.20742111, -0.17770904, 0.9612736, -0.037790302, -11.973059, 0.7899701, -13.020478, 0
923, 3608450622, 0.24566436, -0.17602918, 0.95265347, -0.0345433, -8.744528, 0.13243914, -7.112607, 0
925, 3608483956, 0.30982643, -0.1914838, 0.93111545, -0.021085832, -1.7272369, -1.968602, -6.198388, 0
926, 3608500623, 0.3317371, -0.20347604, 0.921158, -0.00974068, -2.0754895, -1.5027785, -6.2080708, 0
928, 3608533957, 0.37524167, -0.20816319, 0.90327966, 0.0051652193, -4.3516455, -0.16537125, -5.5268335, 0
929, 3608550624, 0.4005746, -0.20043305, 0.8940767, 0.008522615, -5.1663146, -0.5633946, -4.650302, 0
930, 3608567291, 0.42835, -0.18994978, 0.8833737, 0.012864001, -5.7738285, -1.0279144, -2.8827243, 0
934, 3608633959, 0.5290447, -0.17196377, 0.82864857, 0.06293483, -1.8007516, 4.661301, 3.7174425, 0
936, 3608667293, 0.57556415, -0.16614501, 0.7965109, 0.08228821, 0.49242598, 2.6211498, 3.2504454, 0
937, 3608683960, 0.5966801, -0.16642945, 0.7796543, 0.09215255, 0.3861997, 2.6120033, 3.0617304, 0
938, 3608700627, 0.6175786, -0.1653335, 0.762479, 0.09983066, 1.3154944, 3.5998461, 1.407753, 0
940, 3608733961, 0.65939724, -0.15511951, 0.7288222, 0.10015134, 0.54264003, 1.8072634, 2.9304667, 0
941, 3608750628, 0.68034923, -0.14933532, 0.7108977, 0.09760838, 0.30729738, -0.50192606, 2.9124594, 0
942, 3608767295, 0.700033, -0.14524895, 0.692397, 0.097580306, 1.2628496, -2.0369368, 1.8473759, 0
944, 3608800629, 0.7314661, -0.13438167, 0.65957636, 0.109257445, 1.6721315, -0.22525126, 1.3148766, 0
945, 3608817296, 0.74579513, -0.12304108, 0.6441294, 0.1175877, 1.1167152, 2.2919362, 1.8879175, 0
946, 3608833963, 0.76063174, -0.109886386, 0.62764317, 0.12452945, 1.3568851, 3.704675, 2.2771883, 0
949, 3608883964, 0.80341065, -0.08060466, 0.5748652, 0.13282783, 1.195131, 2.461548, 3.020155, 0
950, 3608900631, 0.8170985, -0.07313858, 0.5557909, 0.13481964, 2.3512485, 1.1140203, 2.4397945, 0
952, 3608933965, 0.8397248, -0.05655741, 0.5211272, 0.14201817, 3.1447577, 1.7228383, 1.1325264, 0
953, 3608950632, 0.8491516, -0.04700802, 0.5051197, 0.14719012, 2.1343515, 2.4252543, 1.5202799, 0
955, 3608983966, 0.866418, -0.030542761, 0.47252798, 0.15869342, 0.82836944, 3.0069084, 1.7995234, 0
956, 3609000633, 0.87472975, -0.025410011, 0.45578736, 0.16290851, 1.4237028, 2.8498561, 1.3859472, 0
957, 3609017300, 0.88248163, -0.020429827, 0.43994105, 0.16534762, 2.218336, 2.0026627, 0.78161526, 0
959, 3609050634, 0.8950628, -0.008557677, 0.41202366, 0.17060125, 2.1896048, -0.7665934, 2.4989834, 0
960, 3609067301, 0.9006358, -0.0036649704, 0.39740163, 0.17604767, 1.8365562, -0.6143422, 3.4848108, 0
961, 3609083968, 0.90579265, 6.168336E-5, 0.3825415, 0.18242963, 1.6373162, 0.34736618, 2.1994362, 0
963, 3609117302, 0.91455495, 0.009536266, 0.35616314, 0.19163862, 1.809258, 1.6163747, 1.1294985, 0
964, 3609133969, 0.9183363, 0.016342707, 0.34493995, 0.19361526, 2.1362038, 1.3888048, 1.8187542, 0
965, 3609150636, 0.92212707, 0.023255508, 0.3335092, 0.19491345, 2.440822, 0.6123747, 2.7595606, 0
968, 3609200637, 0.932831, 0.035269003, 0.2971974, 0.20083624, 2.9384794, 0.294244, 1.1832151, 0
969, 3609217304, 0.9354569, 0.03889242, 0.2868268, 0.20302047, 3.1606336, 0.04732154, 0.5282583, 0
971, 3609250638, 0.93854415, 0.04764255, 0.27095777, 0.20862864, 4.368761, -0.23778604, 2.1182184, 0
972, 3609267305, 0.93993133, 0.051503338, 0.26208755, 0.21275684, 3.9293451, -0.22476228, 1.344821, 0
973, 3609283972, 0.94114333, 0.054074522, 0.25322306, 0.21744493, 3.6644204, 0.2643681, 0.3655796, 0
975, 3609317306, 0.9426335, 0.05961167, 0.23860355, 0.22591119, 3.8726325, 1.3364903, -1.5523281, 0
978, 3609367307, 0.9408365, 0.0802396, 0.2306272, 0.23511347, 6.908322, 0.50069094, 0.70188046, 0
979, 3609383974, 0.94073087, 0.08557606, 0.22579533, 0.2383225, 5.768894, 1.1318599, -2.2124267, 0
980, 3609400641, 0.9405956, 0.08786468, 0.22277947, 0.24084796, 5.0727425, 1.855563, -3.523747, 0
982, 3609433975, 0.94001734, 0.08934819, 0.22011541, 0.24497467, 5.40899, 1.5519811, -2.3945503, 0
983, 3609450642, 0.93921226, 0.09121772, 0.21996471, 0.24749571, 5.8589187, 1.5136101, -2.6583776, 0
984, 3609467309, 0.938277, 0.093255356, 0.22028038, 0.24999072, 6.379288, 1.6075838, -2.6057177, 0
986, 3609500643, 0.9370584, 0.0957758, 0.22234678, 0.25177294, 6.6136923, 2.9608002, -4.1798043, 0
987, 3609517310, 0.9367251, 0.09593165, 0.22563261, 0.2500243, 7.1173077, 2.6292188, -3.9056282, 0
988, 3609533977, 0.93645453, 0.09462117, 0.2306336, 0.24695572, 7.700102, 1.8476753, -4.4562736, 0
990, 3609567311, 0.93349206, 0.093817614, 0.24871548, 0.24085325, 9.785349, 1.2018747, -6.3236504, 0
992, 3609600645, 0.9258488, 0.09471961, 0.27805647, 0.23789874, 12.39683, 0.2302509, -7.9513483, 0
994, 3609633979, 0.9107405, 0.09055422, 0.32495534, 0.23840074, 18.019316, 1.3590945, -7.0379505, 0
995, 3609650646, 0.90033615, 0.08725922, 0.3545679, 0.23694134, 22.154564, 1.0319991, -4.6036134, 0
996, 3609667313, 0.8889319, 0.08236971, 0.38574508, 0.23301302, 27.704369, 1.3446261, -1.1344547, 0
998, 3609700647, 0.85840344, 0.06572151, 0.4577407, 0.2222086, 34.869957, 4.178825, 2.6994972, 0
999, 3609717314, 0.84113884, 0.03471175, 0.4918267, 0.22240975, 19.009417, 12.148371, 23.055481, 0
1000, 3609733981, 0.82825655, -0.0046717823, 0.51190317, 0.22804287, -6.9713535, 19.042984, -1.4462881, 0
1002, 3609767315, 0.84122807, -0.025653787, 0.4734835, 0.25994122, 0.73763216, -12.170727, 13.44136, 0
1003, 3609783982, 0.85591763, -0.03352521, 0.44867292, 0.25505412, -6.654814, -7.7108665, 2.1109362, 0
1005, 3609817316, 0.84108305, -0.05139706, 0.4801731, 0.24382435, -8.317329, -1.1262506, -2.469903, 0
1007, 3609850650, 0.7477987, -0.090711415, 0.6170298, 0.2278637, -7.796948, -1.2826443, -0.10040474, 0
1009, 3609883984, 0.56954527, -0.12274589, 0.79214096, 0.18205309, -19.609312, -1.414686, 33.9044, 0
1010, 3609900651, 0.49900043, -0.09984696, 0.8516412, 0.12575956, -28.42143, -6.238682, 63.64374, 0
1011, 3609917318, 0.45426163, -0.103467375, 0.878618, 0.105120376, -2.8402195, -52.859295, 42.96914, 0
1013, 3609950652, 0.3531988, -0.09354899, 0.92535394, 0.10148086, -18.556028, 27.216736, 1.5814266, 0
1015, 3609983986, 0.29634738, -0.10063647, 0.9492175, 0.033402305, -32.294426, -2.9177816, -11.977278, 0
1017, 3610017320, 0.2627426, -0.13861541, 0.95479053, 0.0143544, -23.616394, -3.8358738, -14.767793, 0
1018, 3610033987, 0.25702056, -0.16247275, 0.9525787, 0.014684554, -19.092241, -6.1869407, -17.17359, 0
1019, 3610050654, 0.26105693, -0.18427968, 0.94741976, 0.01910341, -14.277463, -5.1453414, -17.290472, 0
1021, 3610083988, 0.29459497, -0.20972395, 0.9320464, 0.024458043, -8.978985, -5.36914, -15.360576, 0
1023, 3610117322, 0.3478949, -0.21144827, 0.91258657, 0.039027598, -3.0457354, -3.067035, -11.890711, 0
1025, 3610150656, 0.4046577, -0.21495645, 0.88684666, 0.060232885, -6.8790383, 1.727714, -9.246664, 0
1026, 3610167323, 0.44167596, -0.21566282, 0.86833143, 0.06701858, -6.9201, 1.6556202, -7.7305393, 0
1027, 3610183990, 0.48334542, -0.21421169, 0.8458134, 0.07189725, -5.758857, 0.8038691, -6.092885, 0
1029, 3610217324, 0.56722474, -0.19715886, 0.7956297, 0.080230445, -1.8977674, -1.8831726, -4.9773116, 0
1030, 3610233991, 0.60354066, -0.18877946, 0.7693984, 0.09058881, -3.4023476, -3.4712732, -3.0360236, 0
1032, 3610267325, 0.67201567, -0.18121028, 0.7087842, 0.11516039, -2.7394187, 1.5596446, 3.1613607, 0
1033, 3610283992, 0.706192, -0.17254823, 0.6754369, 0.1240328, -0.6518229, -2.577023, 3.5901947, 0
1034, 3610300659, 0.7357847, -0.16446286, 0.64250463, 0.13725823, 2.4745324, -5.4630713, 2.026966, 0
1036, 3610333993, 0.7809851, -0.1378159, 0.58159137, 0.1813823, 4.6106787, -6.37931, 4.353524, 0
1037, 3610350660, 0.7971177, -0.12189479, 0.5522555, 0.21174964, 8.202313, -5.139862, 5.7297697, 0
1038, 3610367327, 0.8087287, -0.10671989, 0.5250886, 0.24275437, 12.588619, -0.27373946, 6.75231, 0
1040, 3610400661, 0.8215145, -0.07838418, 0.48284397, 0.29310504, 14.847346, 1.5077249, 4.7185516, 0
1041, 3610417328, 0.8224702, -0.06498795, 0.46822053, 0.31649327, 12.078478, 1.2513083, 3.8706646, 0
1042, 3610433995, 0.8219202, -0.05116394, 0.45543647, 0.33835787, 8.33145, 3.475235, 2.1882963, 0
1044, 3610467329, 0.822148, -0.02505942, 0.4360596, 0.3652064, 6.4588246, 5.00763, -2.8090906, 0
1045, 3610483996, 0.82142395, -0.0153901875, 0.43274397, 0.37126476, 8.31645, 5.8199186, -5.683224, 0
1046, 3610500663, 0.8179078, -0.0050225332, 0.43774462, 0.37344366, 9.53149, 6.579292, -2.044252, 0
1048, 3610533997, 0.81002, 0.027644575, 0.44643927, 0.37930763, 8.856289, 2.2717593, 3.3671598, 0
1050, 3610567331, 0.80264217, 0.051760927, 0.45331052, 0.38428482, 3.2491565, 6.6620655, -6.1334352, 0
1052, 3610600665, 0.781959, 0.05455132, 0.5026925, 0.36461407, 23.210423, 12.226407, -13.277622, 0
1053, 3610617332, 0.7745378, 0.051175795, 0.52248704, 0.3529284, 9.840333, 10.080632, 19.982645, 0
1056, 3610667333, 0.7842286, 0.042419046, 0.5313561, 0.31768802, 3.3710008, 0.17223652, -15.35846, 0
1057, 3610684000, 0.7792102, 0.04076422, 0.5419319, 0.3123437, -12.352234, 2.0139928, 27.21278, 0
1058, 3610700667, 0.7818062, 0.04158739, 0.53743005, 0.3135242, 1.2441769, 1.1092749, -4.9574323, 0
1060, 3610734001, 0.7796518, 0.033739187, 0.540992, 0.3137058, 1.3140869, 0.7958207, 1.4377098, 0
1061, 3610750668, 0.7802744, 0.029885702, 0.5421637, 0.3105096, -0.6781075, 1.0048541, 0.28109932, 0
1063, 3610784002, 0.77967626, 0.019027807, 0.5490096, 0.30068287, -0.24830851, 0.9044202, -0.8539839, 0
1064, 3610800669, 0.77917415, 0.024767928, 0.5534797, 0.29328024, 1.5717534, 2.9439304, 1.2790251, 0
1067, 3610850670, 0.7864621, 0.04259287, 0.558885, 0.2595949, 1.451827, -1.3103048, -0.7619114, 0
1068, 3610867337, 0.7872188, 0.039237723, 0.56225085, 0.25039926, 0.7831828, 0.43191722, -5.780825, 0
1069, 3610884004, 0.78396994, 0.036028683, 0.5706097, 0.24202628, 1.2836695, 1.9486754, -1.8237538, 0
1071, 3610917338, 0.7755021, 0.029395968, 0.5883832, 0.22719295, 2.390827, 1.7787921, 1.3244, 0
1072, 3610934005, 0.77027434, 0.028074294, 0.59690684, 0.2228685, 2.2198417, 1.2570239, 0.021848679, 0
1073, 3610950672, 0.7640841, 0.024209365, 0.60583127, 0.22053796, 1.5469191, 1.9238693, -0.2657776, 0
1075, 3610984006, 0.75221497, 0.016230874, 0.62145, 0.21860537, 2.3528838, -0.23015524, -2.011076, 0
1076, 3611000673, 0.7433537, 0.015079275, 0.6314985, 0.22019595, -0.46196038, -0.22091363, 0.24390316, 0
1077, 3611017340, 0.73410285, 0.015392803, 0.6413423, 0.22274509, 0.1587217, -0.007268697, 1.9986839, 0
1079, 3611050674, 0.7203205, 0.018856004, 0.65424156, 0.22984657, 0.5756228, -1.0636588, 2.8029404, 0
1083, 3611117342, 0.7317189, 0.017980225, 0.6353327, 0.24636458, -2.4039273, -1.6515778, -1.5406857, 0
1084, 3611134009, 0.7448498, 0.016954713, 0.61856675, 0.2497307, -3.0715785, 0.025818763, -0.34140968, 0
1086, 3611167343, 0.7754204, 0.016890928, 0.5746857, 0.26125288, -1.457715, -1.9423941, 0.49847507, 0
1087, 3611184010, 0.78866893, 0.019119337, 0.5528234, 0.26851612, -1.478806, -1.9715225, -0.7151871, 0
1088, 3611200677, 0.8017783, 0.021709166, 0.53134584, 0.27282006, -0.44790885, 0.34269273, 1.0437832, 0
1090, 3611234011, 0.834797, 0.0199624, 0.4764319, 0.27533114, 0.23344499, -1.2391638, -0.66768265, 0
1091, 3611250678, 0.84932417, 0.01889342, 0.44945493, 0.27633443, -2.6047068, -3.1450436, -4.9950867, 0
1092, 3611267345, 0.8588254, 0.019532666, 0.4300541, 0.27779478, -1.3321681, -1.785561, -0.9186659, 0
1094, 3611300679, 0.87314266, 0.022400893, 0.39748153, 0.2814384, -1.0834907, 1.2789332, -0.27192783, 0
1095, 3611317346, 0.87806016, 0.022819787, 0.38601667, 0.28206345, 2.2498498, 0.75827026, 3.4579983, 0
1098, 3611367347, 0.8943184, 0.014054738, 0.34757733, 0.28154188, 0.10772384, -2.97539, -1.7296934, 0
1099, 3611384014, 0.8982338, 0.010878619, 0.338067, 0.28079754, -0.70075345, -2.9386113, -1.8290305, 0
1100, 3611400681, 0.9016141, 0.008706704, 0.32871526, 0.2811433, 1.4460425, -0.47211188, 1.7333221, 0
1102, 3611434015, 0.90939987, 0.0026213974, 0.30680346, 0.28095502, 2.8136897, 1.5487977, -0.35225296, 0
1103, 3611450682, 0.9136017, -6.3521415E-4, 0.2934694, 0.28157848, 1.892405, -0.44393727, 1.1466684, 0
1104, 3611467349, 0.9177494, -0.0033142269, 0.27897656, 0.28280067, 0.12239554, -1.0537624, -1.8991895, 0
1106, 3611500683, 0.9207632, -0.003033854, 0.2626345, 0.28859684, 1.6565679, -0.31530514, 0.10337925, 0
1107, 3611517350, 0.9212213, -0.001704216, 0.25845602, 0.29090893, 1.6250178, 1.7287974, 0.73630047, 0
1108, 3611534017, 0.9214017, -5.9117377E-4, 0.25575188, 0.2927261, 0.22941595, 1.862246, 0.37864876, 0
1110, 3611567351, 0.92121893, 0.0013012141, 0.25340503, 0.29532835, 0.08812213, -0.5454478, 1.5773525, 0
1111, 3611584018, 0.9212658, 0.0023109838, 0.25191718, 0.2964471, -0.8012495, -0.9401137, 1.0281076, 0
1113, 3611617352, 0.92207766, 0.0034325942, 0.2475879, 0.2975569, -0.3633981, 0.12763216, 1.1145687, 0
1114, 3611634019, 0.92332506, 0.003688477, 0.24324389, 0.29726848, -0.41026524, 0.40825766, 1.4477892, 0
1115, 3611650686, 0.9244162, 0.0047521926, 0.23951967, 0.29688638, -0.6527388, 0.71225953, 0.12549973, 0
1117, 3611684020, 0.9259886, 0.0078048036, 0.23350668, 0.29671192, -0.24954149, -0.0644496, 0.44942856, 0
1118, 3611700687, 0.92642206, 0.009080306, 0.23176461, 0.29668835, -0.5108715, -0.9194707, 1.1258764, 0
1119, 3611717354, 0.9266307, 0.011512965, 0.23056969, 0.29688305, -0.018561522, -0.20541528, 2.135993, 0
1121, 3611750688, 0.92674094, 0.018140811, 0.22905587, 0.29737955, 1.5848672, 1.4764025, 1.8163471, 0
1122, 3611767355, 0.92729044, 0.022795118, 0.2273161, 0.2966801, 1.9761406, 2.5242121, 1.2247467, 0
1125, 3611817356, 0.9407045, 0.038330168, 0.21752425, 0.25761977, -3.9011838, -1.3249894, -5.056986, 0
1126, 3611834023, 0.9470644, 0.05876423, 0.22031553, 0.22617689, -1.5066742, 23.87988, -6.451841, 0
1127, 3611850690, 0.9530501, 0.079032645, 0.22501473, 0.18680738, 7.136609, -9.319144, -2.9655538, 0
1129, 3611884024, 0.947866, 0.066581056, 0.25967628, 0.17252293, 2.4986753, -15.793846, -4.217895, 0
1130, 3611900691, 0.9407834, 0.04912755, 0.28308013, 0.1801601, 2.2857082, 8.26518, 1.5275574, 0
1131, 3611917358, 0.9372634, 0.05657721, 0.29346222, 0.1797089, -2.0365362, 8.250208, -4.32687, 0
1133, 3611950692, 0.9372272, 0.053509448, 0.29483312, 0.17858954, 6.6075196, 3.3698318, -8.2818985, 0
1134, 3611967359, 0.9438509, 0.04784117, 0.2710051, 0.18300799, 7.317414, -2.3516536, 22.234657, 0
1135, 3611984026, 0.95493144, 0.045110878, 0.23124522, 0.18076444, -27.229029, 6.346095, -10.834464, 0
1137, 3612017360, 0.9546005, 0.051514518, 0.23187742, 0.17998913, -4.9290285, 1.6043093, 11.402748, 0
1140, 3612067361, 0.9542815, 0.05367174, 0.23343445, 0.1790342, -0.8373316, -6.485565, 0.70866776, 0
1141, 3612084028, 0.9542357, 0.05439534, 0.23316656, 0.1794093, 0.6892422, -2.7309084, 3.619485, 0
1142, 3612100695, 0.9542505, 0.054390647, 0.23310931, 0.17940597, 2.9972572, 3.1798518, 2.4206696, 0
1144, 3612134029, 0.9549191, 0.051700152, 0.23191264, 0.1781916, 3.117139, -0.13826802, 1.1244345, 0
1145, 3612150696, 0.9552052, 0.050318137, 0.23115912, 0.17803301, 3.6250143, -2.8774972, -0.19698143, 0
1146, 3612167363, 0.9554594, 0.049274337, 0.23025754, 0.17812827, 3.8466187, -1.467725, -0.8149309, 0
1148, 3612200697, 0.955901, 0.046423588, 0.22900838, 0.1781357, 6.9695044, 2.3826082, 2.4703426, 0
1150, 3612234031, 0.9564841, 0.044916697, 0.22641829, 0.17870237, -1.891058, -0.11366234, -3.9164743, 0
1152, 3612267365, 0.95702744, 0.044884104, 0.222445, 0.18077922, 5.942914, -1.4414337, 4.7349396, 0
1153, 3612284032, 0.956708, 0.045276042, 0.22212261, 0.18275754, 5.223226, 2.5902295, 2.9345436, 0
1157, 3612350700, 0.95564777, 0.043815095, 0.22283211, 0.18772933, 0.44778132, -0.6509795, -0.5695276, 0
1158, 3612367367, 0.95495164, 0.044440556, 0.2237788, 0.18998554, -0.2817719, 1.978304, 0.68168354, 0
1160, 3612400701, 0.9532764, 0.047386892, 0.22781038, 0.1928728, 0.85055804, 0.24530323, 0.495759, 0
1161, 3612417368, 0.9521345, 0.049909968, 0.23074971, 0.19437636, 1.0151955, 0.4583107, -0.03221035, 0
1162, 3612434035, 0.9513548, 0.051938877, 0.23243803, 0.1956471, -2.1617367, 0.77291876, -0.028551102, 0
1164, 3612467369, 0.95106584, 0.053367365, 0.2332025, 0.19575852, -0.04695737, 0.22663994, 0.49432182, 0
1165, 3612484036, 0.9511387, 0.054119665, 0.23279472, 0.19568314, -0.018900845, 0.5129121, 0.4853773, 0
1166, 3612500703, 0.9510179, 0.05504156, 0.23318103, 0.19555324, 0.10088727, 1.4185972, -0.069358826, 0
1168, 3612534037, 0.9508924, 0.05704608, 0.23489274, 0.19353034, 1.0393832, 2.5386398, 0.33932877, 0
1169, 3612550704, 0.9512746, 0.0568538, 0.23484516, 0.191758, 0.7339004, 0.7022059, 0.5633974, 0
1172, 3612600705, 0.9532029, 0.053845555, 0.2334466, 0.18462558, 1.972754, 0.64015466, 1.1225471, 0
1173, 3612617372, 0.953827, 0.052920382, 0.23295993, 0.18226945, 0.94560117, 1.0516827, 0.64994335, 0
1175, 3612650706, 0.9549207, 0.051602542, 0.23193254, 0.17818469, -0.58927584, 0.6402835, -0.30211353, 0
1176, 3612667373, 0.9554354, 0.0506791, 0.23162484, 0.17607865, -0.06805277, 0.26782736, -0.64089584, 0
1177, 3612684040, 0.95609415, 0.049877267, 0.23046304, 0.17424676, 0.5256991, -0.6892713, 0.46256638, 0
1179, 3612717374, 0.95734316, 0.04876338, 0.2274659, 0.17162257, -0.6168586, 0.49680695, -0.04246044, 0
1180, 3612734041, 0.9578158, 0.04808762, 0.22690387, 0.16991165, 0.4706522, 1.1884854, -0.16045284, 0
1181, 3612750708, 0.9582907, 0.047426987, 0.22617424, 0.16838658, -0.77377665, -0.2548993, 0.2943058, 0
1183, 3612784042, 0.959139, 0.046340812, 0.22445455, 0.16614495, 0.37012744, -0.6316419, 0.26596165, 0
1184, 3612800709, 0.9594875, 0.04600788, 0.22366925, 0.16528146, 0.8732792, -0.3203405, 0.4258108, 0
1185, 3612817376, 0.95969313, 0.04577722, 0.22324796, 0.16472046, -0.004708969, 0.32693985, 0.13216686, 0
1187, 3612850710, 0.9599203, 0.04537862, 0.22298895, 0.16385579, -0.35752875, -0.08996026, 0.46559715, 0
1188, 3612867377, 0.9599075, 0.045506597, 0.22324985, 0.16354032, -0.72457874, -0.6985592, 0.15663147, 0
1189, 3612884044, 0.9598267, 0.045960438, 0.22372098, 0.16324262, -0.08190903, -0.0037304836, -0.117471695, 0
1191, 3612917378, 0.95952195, 0.048484664, 0.22418426, 0.16366819, -0.13024525, 0.9459343, 0.7139549, 0
1192, 3612934045, 0.9593757, 0.050282054, 0.22414294, 0.1640399, -0.4032683, -0.09395883, 0.7049656, 0
1194, 3612967379, 0.9594855, 0.050915282, 0.2241444, 0.16319783, 0.060056716, -0.43457642, 0.5087948, 0
1195, 3612984046, 0.9595276, 0.05114286, 0.22421345, 0.16278422, -0.6385495, 0.07041805, -0.53568745, 0
1196, 3613000713, 0.9596734, 0.051203642, 0.22391033, 0.16232154, 0.713488, 0.5801595, 1.1855574, 0
1199, 3613050714, 0.9598353, 0.05109347, 0.22494715, 0.1599475, -1.3138721, -0.45925504, 0.26750374, 0
1200, 3613067381, 0.95973355, 0.05162664, 0.22579634, 0.15918891, -1.2618439, 0.48325372, 0.05950737, 0
1202, 3613100715, 0.95941585, 0.05254558, 0.22787164, 0.1578409, -1.854899, 0.1346481, 1.45642, 0
1204, 3613134049, 0.958611, 0.052829035, 0.23315786, 0.15488854, -4.542112, -0.29717654, 0.92394066, 0
1206, 3613167383, 0.9586992, 0.05293985, 0.23480457, 0.1517865, -4.053686, 0.3746743, -0.97235966, 0
1207, 3613184050, 0.95899224, 0.05343306, 0.23368168, 0.15149537, -3.945284, 0.7852628, 0.90341663, 0
1208, 3613200717, 0.95886475, 0.054257315, 0.2344706, 0.15078723, -1.8508091, 1.250884, 5.036289, 0
1210, 3613234051, 0.9570236, 0.05776409, 0.24560878, 0.1432636, -4.050011, 2.600668, -1.6097994, 0
1211, 3613250718, 0.9567662, 0.060777765, 0.24951746, 0.13683727, -4.0408716, -0.6167643, -3.595642, 0
1212, 3613267385, 0.95868033, 0.062820606, 0.2450953, 0.13035662, -2.1535397, -3.005535, -1.6352673, 0
1215, 3613317386, 0.96090096, 0.06855073, 0.2364887, 0.12697335, 1.8248734, 5.155094, 5.1816025, 0
1216, 3613334053, 0.9604993, 0.07117906, 0.23832946, 0.12511146, 1.6126382, 4.875724, 0.64493847, 0
1218, 3613367387, 0.9605803, 0.084674194, 0.24479966, 0.10133054, -0.51457053, -3.2385569, -4.431623, 0
1219, 3613384054, 0.9612702, 0.088431776, 0.24591419, 0.088004336, 2.2103338, -2.7836041, -3.6393356, 0
1221, 3613417388, 0.96166015, 0.092202604, 0.24521264, 0.081598096, 4.736654, 4.980923, 0.9381876, 0
1222, 3613434055, 0.9620585, 0.09505901, 0.24331729, 0.079265036, 2.3558533, 2.172196, 5.6645164, 0
1223, 3613450722, 0.96212965, 0.09715256, 0.24308658, 0.07652279, 1.449947, -0.5001397, 0.2240057, 0
1225, 3613484056, 0.96389174, 0.096553475, 0.23834775, 0.06970855, -2.6087627, 0.90937686, -2.8325171, 0
1226, 3613500723, 0.96596956, 0.09444018, 0.23187086, 0.06556428, -1.3586996, -1.0874666, 0.9756584, 0
1227, 3613517390, 0.9674059, 0.09287876, 0.22753328, 0.061699115, 2.821243, -0.63996893, 4.1379156, 0
1231, 3613584058, 0.96906245, 0.08741263, 0.22548966, 0.050103664, -2.66417, -0.17209403, -4.4662333, 0
1233, 3613617392, 0.970307, 0.08314883, 0.22277935, 0.04515502, 1.8150592, -1.6285135, 1.0239, 0
1234, 3613634059, 0.9708111, 0.08098425, 0.2217227, 0.04342152, 4.6208606, -2.2826402, 1.4227495, 0
1235, 3613650726, 0.97113645, 0.07909993, 0.22117564, 0.042398036, 4.682223, -0.8751008, 1.3031502, 0
1237, 3613684060, 0.97159576, 0.07552694, 0.22057702, 0.041498944, 0.8508482, -0.2679664, -1.7730961, 0
1238, 3613700727, 0.9718333, 0.074005306, 0.2199962, 0.04176329, -0.40658537, -0.91925246, -0.5363245, 0
1239, 3613717394, 0.9719939, 0.07277876, 0.21956989, 0.042416126, 0.49082652, -1.2929747, -0.10097885, 0
1241, 3613750728, 0.9722904, 0.07045554, 0.21870244, 0.0439983, 0.98919076, -0.4760702, 0.8696213, 0
1242, 3613767395, 0.9724156, 0.069319054, 0.21830748, 0.044984758, 1.9869933, -0.89111876, 0.44748306, 0
1243, 3613784062, 0.97237104, 0.06860612, 0.21839294, 0.04659657, 0.6077792, -0.8620119, -0.5378227, 0
1246, 3613834063, 0.97188985, 0.067008585, 0.21970032, 0.05244881, -0.38746065, -0.68952763, -1.7327614, 0
1248, 3613867397, 0.97195816, 0.06570807, 0.21870315, 0.0568123, -1.7445657, -2.3647344, 9.266958, 0
1249, 3613884064, 0.9718037, 0.066291936, 0.21865365, 0.058928467, -2.8059304, -0.04612257, 1.6152258, 0
1250, 3613900731, 0.97150105, 0.06654291, 0.21952273, 0.060385667, 1.9694004, 2.9158225, -3.6914616, 0
1252, 3613934065, 0.9713675, 0.06607062, 0.21918687, 0.06415493, -1.1922458, -1.5625168, 0.8979492, 0
1253, 3613950732, 0.9710508, 0.06647435, 0.2198932, 0.066087246, 1.528799, 0.3422335, 0.8521366, 0
1254, 3613967399, 0.9709194, 0.06637274, 0.22025701, 0.0669037, 1.5818506, 0.91457343, -0.54024124, 0
1256, 3614000733, 0.97105396, 0.06545392, 0.21966913, 0.06778211, -0.4158328, 0.56184006, 0.75970554, 0
1257, 3614017400, 0.97121626, 0.06485477, 0.21902928, 0.06810283, 0.46363354, 1.406746, 1.1436739, 0
1258, 3614034067, 0.9713516, 0.064234056, 0.21863219, 0.068037145, 0.23183008, 1.1413919, 0.05775261, 0
1260, 3614067401, 0.97155136, 0.0631837, 0.21798693, 0.06823764, -0.17914106, -0.5534308, -0.031454086, 0
1261, 3614084068, 0.97163284, 0.0630557, 0.21748838, 0.068785734, -0.21837446, -0.22502309, 0.10134697, 0
1262, 3614100735, 0.9717082, 0.06298659, 0.21712841, 0.06892319, 0.13046743, 0.47936198, 0.57459736, 0
1264, 3614134069, 0.9718882, 0.063471645, 0.21614063, 0.0690425, -1.0713502, 0.74937, -0.19109344, 0
1265, 3614150736, 0.97193533, 0.06368156, 0.21572916, 0.06947189, -0.3933989, 1.0482745, 0.15542889, 0
1266, 3614167403, 0.9720538, 0.063834794, 0.21502842, 0.069845, -0.05564015, -0.3878861, 0.21440601, 0
1268, 3614200737, 0.9721446, 0.06419346, 0.21440129, 0.07017951, 0.048591465, -0.5422567, 0.5099983, 0
1269, 3614217404, 0.97228515, 0.06434256, 0.2136256, 0.07046126, -1.2666827, -0.65790707, 0.72569084, 0
1270, 3614234071, 0.9724855, 0.064434744, 0.21262318, 0.07064303, -2.0713463, 0.33758315, 0.07318592, 0
1273, 3614284072, 0.9731201, 0.06442838, 0.20945565, 0.07136953, 0.5077959, -0.11317889, 1.8920221, 0
1275, 3614317406, 0.9733118, 0.064589605, 0.20850046, 0.071406715, -4.9797177, 0.637426, -2.0957313, 0
1276, 3614334073, 0.9735088, 0.06395637, 0.20790058, 0.071039885, 3.2424905, -0.6820943, 0.5125294, 0
1277, 3614350740, 0.9735887, 0.063171886, 0.20757547, 0.07159377, 2.6235516, -3.064527, 4.4746885, 0
1279, 3614384074, 0.97332084, 0.06248901, 0.20900679, 0.07167127, 0.15827791, 2.532033, 1.3258219, 0
1280, 3614400741, 0.97305554, 0.062008325, 0.21062726, 0.07094328, -3.0905185, 1.7138156, -0.33010197, 0
1281, 3614417408, 0.9728132, 0.061629623, 0.2122039, 0.0698908, -3.4468534, 0.9648339, -2.4859877, 0
1283, 3614450742, 0.9731568, 0.062159877, 0.21032585, 0.070315324, -2.780762, -1.6831087, 1.8466673, 0
1284, 3614467409, 0.9732977, 0.062980615, 0.2093575, 0.0705225, 0.06216313, -0.23157677, 4.8001127, 0
1285, 3614484076, 0.97314715, 0.06322757, 0.21009465, 0.07018698, 1.6808555, 2.2598088, 4.6005993, 0
1288, 3614534077, 0.9697476, 0.06613387, 0.2275135, 0.059434123, -4.020049, 1.453483, -4.1626744, 0
1289, 3614550744, 0.9696008, 0.06618274, 0.22958486, 0.05351621, -1.5573515, -5.2719755, 0.1766386, 0
1291, 3614584078, 0.9701928, 0.06713159, 0.2268554, 0.053244174, -0.63504463, 3.0351624, 1.8927345, 0
1292, 3614600745, 0.9699075, 0.06800847, 0.2279714, 0.052556872, 2.2909381, 3.7701004, 3.7230673, 0
1293, 3614617412, 0.96911544, 0.068623774, 0.23119625, 0.052283898, 0.02418987, 2.1784499, 1.1312475, 0
1295, 3614650746, 0.96531373, 0.072001085, 0.24582867, 0.05130954, -1.0975494, -0.10821381, -1.384512, 0
1296, 3614667413, 0.9638555, 0.07504538, 0.25086516, 0.049966246, 0.65448475, 1.294767, -2.6400342, 0
1297, 3614684080, 0.96383834, 0.07778388, 0.25043276, 0.04824628, 1.2840714, 1.4157225, -1.007227, 0
1299, 3614717414, 0.9668726, 0.082128376, 0.23768678, 0.044678554, -0.15973331, 1.975376, -1.1760874, 0
1300, 3614734081, 0.96716225, 0.085777394, 0.2353457, 0.043941796, -0.5092082, 3.5694814, -0.14162445, 0
1303, 3614784082, 0.9673812, 0.092144534, 0.23278967, 0.03963639, 2.4117033, -3.1073503, 1.2671022, 0
1306, 3614834083, 0.9686134, 0.09084965, 0.2294013, 0.031441733, 3.6247914, 0.5604818, 4.1056805, 0
1307, 3614850750, 0.9691744, 0.089743905, 0.22777182, 0.029086173, 1.9920136, 1.7325956, 3.384838, 0
1308, 3614867417, 0.9691286, 0.08900575, 0.22856241, 0.026571423, 1.5989223, 2.2310958, -2.1752348, 0
1310, 3614900751, 0.9690397, 0.08650665, 0.23045819, 0.021141276, 0.7870349, -0.618373, -1.6093206, 0
1311, 3614917418, 0.9693675, 0.08433374, 0.23013079, 0.018261492, 2.8812733, -1.4879179, 0.2805252, 0
1312, 3614934085, 0.969674, 0.08230847, 0.22974998, 0.015864044, 3.4965124, -1.7449191, 1.372366, 0
1314, 3614967419, 0.9700035, 0.07830916, 0.23001094, 0.0116155, 2.906494, -0.092616364, -1.3890648, 0
1315, 3614984086, 0.9696451, 0.07710704, 0.23196065, 0.010772765, 0.94024354, -0.8302698, -1.785305, 0
1316, 3615000753, 0.9688219, 0.076628745, 0.23551679, 0.011083707, 0.68933505, -1.7189962, 0.6502905, 0
1319, 3615050754, 0.9624086, 0.076878496, 0.26033396, 0.012829229, 1.0613792, 1.1377618, 0.1082592, 0
1320, 3615067421, 0.95964766, 0.076665446, 0.27028775, 0.014915049, -0.3825835, 0.36606368, -0.6343918, 0
1322, 3615100755, 0.95197463, 0.075674385, 0.29609698, 0.020573586, -1.1137896, -1.8780148, 0.61055946, 0
1323, 3615117422, 0.9473335, 0.075410955, 0.31038803, 0.024713099, -0.39409268, -0.10831868, 2.3623953, 0
1324, 3615134089, 0.9422651, 0.07505752, 0.32515493, 0.029261127, -2.0865943, 1.9897103, 0.016804695, 0
1326, 3615167423, 0.928581, 0.07491821, 0.36131638, 0.04067038, -0.948146, 0.94947004, 0.75243473, 0
1327, 3615184090, 0.9203528, 0.076181285, 0.3805713, 0.048903614, -0.30860102, 0.79868805, 1.6938114, 0
1329, 3615217424, 0.8996025, 0.07682059, 0.42508286, 0.06479063, -2.0448642, 0.2847532, -1.38134, 0
1330, 3615234091, 0.8865233, 0.076401636, 0.45057848, 0.07278169, 0.6690728, -0.45568344, 0.68268394, 0
1331, 3615250758, 0.8736133, 0.07566608, 0.47411224, 0.079818144, 2.1204576, -1.4147153, 1.0391417, 0
1333, 3615284092, 0.84623647, 0.0732067, 0.52023846, 0.089193664, -1.0945636, -0.15006289, -1.1284361, 0
1334, 3615300759, 0.8321172, 0.071987286, 0.5421377, 0.09254541, -0.6144476, 1.1456888, 1.1836538, 0
1335, 3615317426, 0.81707025, 0.07168897, 0.564066, 0.09573649, 4.559287, 0.9435565, 2.4425716, 0
1337, 3615350760, 0.7883522, 0.0681521, 0.6028291, 0.102626175, -1.3762549, 1.0170548, -3.2604775, 0
1339, 3615384094, 0.75971705, 0.06580993, 0.6371508, 0.11232513, 0.65348494, 0.90417266, -0.6014347, 0
1341, 3615417428, 0.7382945, 0.06546973, 0.6603162, 0.12122842, -0.40445268, -0.14149432, 1.5267382, 0
1342, 3615434095, 0.7300413, 0.06454276, 0.6693054, 0.122405365, -1.1891279, 0.41325542, 1.6150732, 0
1343, 3615450762, 0.7238197, 0.06317933, 0.67642826, 0.12090199, -1.3623357, 0.30817997, 1.5270891, 0
1345, 3615484096, 0.7195653, 0.059918575, 0.68264496, 0.112741336, -1.0048836, 0.59160376, -0.37187767, 0
1347, 3615517430, 0.7249291, 0.06003546, 0.6784308, 0.10336522, -1.3004515, 0.61994785, -0.7194147, 0
1349, 3615550764, 0.7363763, 0.06636539, 0.66572165, 0.101188235, -1.4419543, 1.9841741, 0.13442516, 0
1350, 3615567431, 0.7416655, 0.07325634, 0.65886927, 0.102645606, -0.7454144, 2.0211887, 1.397728, 0
1351, 3615584098, 0.74651104, 0.08236998, 0.65186787, 0.10528049, -0.9515226, 0.8874684, 2.4126377, 0
1353, 3615617432, 0.75240874, 0.10341969, 0.64030707, 0.115201294, -0.24903388, 0.8077971, 0.4001999, 0
1354, 3615634099, 0.75328875, 0.12290595, 0.6337806, 0.12590255, 0.6916895, 3.6154156, 1.7158918, 0
1356, 3615667433, 0.757526, 0.18416703, 0.6070519, 0.15428571, 3.131033, 7.2224646, 2.6003666, 0
1357, 3615684100, 0.7633236, 0.21290767, 0.58631855, 0.16827756, 3.120159, 3.222852, 0.42879963, 0
1360, 3615734101, 0.79964775, 0.20069328, 0.5400544, 0.16942881, 11.227355, 7.5362077, 0.4121399, 0
1361, 3615750768, 0.81739026, 0.18353699, 0.52544457, 0.14891154, 9.104384, 2.2087872, -4.1788073, 0
1364, 3615800769, 0.8560566, 0.13135386, 0.4947721, 0.07206412, 0.057714928, -4.1288853, -4.731237, 0
1365, 3615817436, 0.86356175, 0.11526808, 0.4881033, 0.0529975, -1.7642964, -4.90822, -4.16582, 0
1366, 3615834103, 0.86984205, 0.10107573, 0.48125303, 0.040409118, -2.840262, -5.0990095, -0.83596134, 0
1368, 3615867437, 0.8831038, 0.07796131, 0.46147054, 0.034258872, -2.918408, -5.564955, -3.3212152, 0
1369, 3615884104, 0.8875964, 0.06946822, 0.4538869, 0.037581995, -2.1084685, -3.7800796, -2.1576076, 0
1370, 3615900771, 0.8916393, 0.06533465, 0.44597727, 0.043519624, -2.063578, -3.334307, 0.5052624, 0
1372, 3615934105, 0.9014119, 0.060091436, 0.42441177, 0.061638236, -1.2755921, -2.3386118, 2.0957127, 0
1373, 3615950772, 0.9065282, 0.05893293, 0.4119814, 0.071303315, 0.015139685, -0.99452144, 0.74322796, 0
1374, 3615967439, 0.91094637, 0.059947856, 0.4005801, 0.078724526, 1.17613, 0.10718748, -0.85861015, 0
1376, 3616000773, 0.9184155, 0.065906584, 0.38102797, 0.08406086, 2.743423, -0.14642926, 1.8433008, 0
1378, 3616034107, 0.92885864, 0.065056704, 0.35578325, 0.080540985, 5.2165675, -1.4316572, -0.44929695, 0
1380, 3616067441, 0.9363691, 0.064126536, 0.3369304, 0.07521855, 7.448659, -2.8049426, -5.0693235, 0
1381, 3616084108, 0.9365024, 0.06836362, 0.33584064, 0.074697755, 8.933387, -5.6350665, -6.0334954, 0
1383, 3616117442, 0.929018, 0.07656448, 0.3528341, 0.08155139, 14.21436, -5.525356, -3.893447, 0
1384, 3616134109, 0.9214359, 0.08062358, 0.37057728, 0.08489375, 17.25172, -5.6192, -3.2630405, 0
1385, 3616150776, 0.9111517, 0.07636515, 0.3976519, 0.07696055, 33.20578, 9.746828, 21.572794, 0
1387, 3616184110, 0.90494055, 0.06911642, 0.41693527, 0.050493427, -8.511358, 0.8181492, 2.332035, 0
1388, 3616200777, 0.9017112, 0.058486313, 0.4257604, 0.04799307, 2.0011494, 1.5773369, -0.33752537, 0
1389, 3616217444, 0.8991496, 0.05494587, 0.43161225, 0.047969118, 2.3756068, 1.8295165, 0.18452072, 0
1391, 3616250778, 0.90089166, 0.045609385, 0.42939472, 0.04486815, 0.07427442, -2.512069, 0.2673397, 0
1393, 3616284112, 0.89797604, 0.03332936, 0.43770874, 0.03191173, -3.8883207, 1.9612511, 0.008097649, 0
1395, 3616317446, 0.8757259, 0.017530352, 0.48203546, 0.022753, -1.046296, -0.06364258, -0.29681015, 0
1396, 3616334113, 0.8602066, 0.00867787, 0.5095603, 0.019918874, -0.4269885, -0.50027966, -0.19079399, 0
1397, 3616350780, 0.84108144, -2.4291873E-4, 0.5406823, 0.017990202, -1.8038832, -0.63502836, -0.5374384, 0
1399, 3616384114, 0.7789076, -0.01751621, 0.6268697, 0.010471806, -3.5951986, 0.65512264, -0.14769077, 0
1400, 3616400781, 0.7298611, -0.02381625, 0.6832331, 0.0026755035, -5.3979497, 2.8468416, 4.1479874, 0
1401, 3616417448, 0.668798, -0.021511607, 0.74312484, -0.009526439, -7.147873, 3.5844388, 9.124186, 0
1403, 3616450782, 0.5299462, 0.049805045, 0.8423696, -0.08466985, -8.056215, -0.37883657, 41.265034, 0
1404, 3616467449, 0.487386, 0.06600638, 0.8617234, -0.12494015, -14.706136, -12.505976, 28.070415, 0
1405, 3616484116, 0.45546678, 0.06854394, 0.8798602, -0.11737418, -25.400755, -2.132252, 21.720078, 0
1407, 3616517450, 0.40145007, 0.041059837, 0.9055839, -0.13095298, -20.491886, -5.539578, -2.5682507, 0
1408, 3616534117, 0.37640676, 0.036035642, 0.9166253, -0.12998646, -17.279928, -1.4832536, -8.58774, 0
1409, 3616550784, 0.35246855, 0.033070594, 0.92649865, -0.12787439, -14.805769, 6.53054, -9.1872015, 0
1411, 3616584118, 0.31114084, 0.023810416, 0.94277704, -0.117791325, -17.22014, 5.457309, -27.587088, 0
1412, 3616600785, 0.30788508, 0.020953387, 0.94576544, -0.10185531, -17.556152, 6.4261713, -26.474138, 0
1414, 3616634119, 0.3445298, 0.012679055, 0.9362807, -0.067793, -11.769164, 3.4022357, -8.8590555, 0
1415, 3616650786, 0.3751672, 0.0077507645, 0.92521626, -0.056952544, -4.898743, 3.1258373, -1.3561287, 0
1416, 3616667453, 0.40151903, 0.005457878, 0.91418266, -0.055693746, 0.6837983, 1.6348758, 0.6887617, 0
1418, 3616700787, 0.42706108, 8.444488E-5, 0.90169036, -0.0682107, -3.649997, -2.9114869, -3.0145984, 0
1420, 3616734121, 0.4524614, -7.8366697E-4, 0.8880888, -0.08158048, -6.4228754, -1.4946473, -2.019771, 0
1422, 3616767455, 0.49820095, 0.018810183, 0.8605443, -0.10480615, -2.7006266, -0.4155954, -1.006731, 0
1423, 3616784122, 0.52065295, 0.029132128, 0.84554994, -0.1148748, -1.1181427, -0.6396487, -1.7381916, 0
1424, 3616800789, 0.5392879, 0.035880163, 0.83262503, -0.12122666, -0.45483425, -0.47437987, -1.347414, 0
1426, 3616834123, 0.57177365, 0.05090572, 0.80830914, -0.13114548, 0.3896668, 3.078719, 2.2896547, 0
1427, 3616850790, 0.5894755, 0.0645992, 0.79312515, -0.13920164, 0.44138545, 2.5131137, 2.0792103, 0
1428, 3616867457, 0.6065078, 0.07712296, 0.7779539, -0.14514509, 0.16356388, -0.17190672, -0.60753155, 0
1430, 3616900791, 0.6322467, 0.07759881, 0.7583552, -0.13863279, -0.52337044, 1.0029811, 0.30735683, 0
1431, 3616917458, 0.64527196, 0.07541987, 0.7484988, -0.13328439, -0.14317882, 2.7341576, 1.5639839, 0
1432, 3616934125, 0.6600193, 0.07639605, 0.735969, -0.13025713, -0.12974569, 2.1015384, 1.1790609, 0
1435, 3616984126, 0.70317787, 0.072807014, 0.6989245, -0.108735874, -3.216585, -0.20368944, -0.5917454, 0
1437, 3617017460, 0.73401934, 0.065225296, 0.67104256, -0.08211121, -1.4269649, 2.400072, 0.55720425, 0
1438, 3617034127, 0.75112075, 0.06572453, 0.6528394, -0.073332176, -0.8654377, 2.502903, 0.43106365, 0
1439, 3617050794, 0.768718, 0.06723149, 0.63247514, -0.067874685, -1.0732377, 1.659172, -0.061138153, 0
1441, 3617084128, 0.80200815, 0.068478785, 0.5901407, -0.06250146, -1.8667774, 1.2519271, -0.14848709, 0
1442, 3617100795, 0.81889814, 0.07160536, 0.56629264, -0.060583994, -3.1718976, 1.0886621, 2.166686, 0
1443, 3617117462, 0.83623785, 0.07575364, 0.54008883, -0.05788766, -2.0777853, 0.7181486, 2.4735756, 0
1445, 3617150796, 0.86759824, 0.08585668, 0.48708794, -0.05221361, 1.0816257, 0.82040673, 3.9020529, 0
1446, 3617167463, 0.8820394, 0.0915998, 0.45963618, -0.04929082, 1.2362499, 0.53969, 4.186187, 0
1447, 3617184130, 0.89530957, 0.096203834, 0.43254787, -0.04633811, 1.816626, 0.94366366, 3.232417, 0
1450, 3617234131, 0.92658156, 0.11431244, 0.3564768, -0.037184536, 2.3864877, 0.96878123, 2.7594862, 0
1451, 3617250798, 0.9341258, 0.12315234, 0.3335301, -0.03285435, 3.195037, 0.8654682, 4.133417, 0
1453, 3617284132, 0.9471737, 0.14237869, 0.28694522, -0.018211916, 5.542258, 0.8654909, 4.7518463, 0
1454, 3617300799, 0.9526958, 0.15061069, 0.26399374, -0.00856927, 7.088607, 1.4004654, 3.3298092, 0
1455, 3617317466, 0.957235, 0.15715224, 0.24306893, 9.186566E-4, 8.155407, 1.4914141, 1.4613457, 0
1457, 3617350800, 0.96203697, 0.16922474, 0.21378087, 0.014993787, 11.148013, 1.9046297, 0.12778759, 0
1458, 3617367467, 0.9631727, 0.1789911, 0.19988705, 0.019614413, 12.773916, -0.025115984, 2.1139498, 0
1459, 3617384134, 0.964739, 0.18590228, 0.18521921, 0.022179127, 11.536625, -1.0525901, -1.3400354, 0
1461, 3617417468, 0.9664817, 0.19395447, 0.1672172, 0.020308882, 11.20968, -0.54795235, -5.2993784, 0
1462, 3617434135, 0.96624756, 0.19700707, 0.16542304, 0.016375512, 8.171885, -0.9790062, -5.611798, 0
1465, 3617484136, 0.9636576, 0.19620948, 0.1814274, 0.005377978, 7.6952186, -1.1666487, 0.35256863, 0
1466, 3617500803, 0.96318895, 0.19912025, 0.18071292, 0.006335929, 5.4326086, -2.3383164, -0.12464237, 0
1468, 3617534137, 0.96434057, 0.19160263, 0.18244867, 0.011279672, 6.763028, -1.2534838, -4.4142284, 0
1469, 3617550804, 0.96425325, 0.18804473, 0.18649396, 0.012408748, 7.5407515, -0.47285965, -5.4653764, 0
1470, 3617567471, 0.96321696, 0.1870541, 0.19278699, 0.011669695, 7.3105474, -0.8305245, -5.674443, 0
1472, 3617600805, 0.95860213, 0.1876786, 0.21428636, 0.0043730736, 7.1019807, -1.9590873, -4.6752615, 0
1473, 3617617472, 0.9549538, 0.18958639, 0.22847077, -6.8736076E-4, 7.282086, -2.8952734, -3.4828167, 0
1474, 3617634139, 0.9508437, 0.191315, 0.24360022, -0.005752921, 7.181042, -3.8880825, -2.618382, 0
1476, 3617667473, 0.94223744, 0.19130743, 0.27485818, -0.011060834, 7.017407, -5.503913, -1.7254238, 0
1477, 3617684140, 0.93827397, 0.18841684, 0.29003477, -0.010004044, 7.492955, -6.0726852, -1.0435619, 0
1478, 3617700807, 0.9344615, 0.18455726, 0.30456662, -0.006202206, 8.14884, -5.569522, -1.4219913, 0
1480, 3617734141, 0.9228468, 0.18130043, 0.33983222, 0.008789018, 11.055467, -4.6073084, -6.779595, 0
1481, 3617750808, 0.91187626, 0.18523374, 0.3659706, 0.017742455, 14.031806, -4.2527003, -7.6785913, 0
1482, 3617767475, 0.89676464, 0.190511, 0.39880806, 0.023451373, 17.37693, -4.581193, -5.5609865, 0
1484, 3617800809, 0.8958283, 0.11794304, 0.42581415, 0.048400544, 17.6515, 10.49188, -19.434984, 0
1485, 3617817476, 0.8980951, 0.110519364, 0.42291218, 0.049346946, 3.9373958, 11.60376, 13.583128, 0
1486, 3617834143, 0.9029905, 0.09738869, 0.4158842, 0.047357418, -18.400957, -1.9485081, 4.095688, 0
1488, 3617867477, 0.91468346, 0.08392697, 0.3935523, 0.03881225, -2.1096952, 2.615693, 1.4571257, 0
1489, 3617884144, 0.9160259, 0.080747426, 0.39139625, 0.035558403, -2.0759315, 3.7859738, 0.6069031, 0
1492, 3617934145, 0.9004592, 0.07629189, 0.4268117, 0.035546362, -0.20061743, 0.066190235, -1.0005007, 0
1493, 3617950812, 0.8918816, 0.075310834, 0.44441497, 0.038078234, 0.6746218, 0.6100181, -0.4180231, 0
1495, 3617984146, 0.872042, 0.07419137, 0.4817076, 0.04555551, -1.6774898, -0.61212915, 0.07494736, 0
1496, 3618000813, 0.8584854, 0.0729149, 0.5054203, 0.048121266, -0.78900987, -0.32543224, -0.123529434, 0
1497, 3618017480, 0.8437024, 0.07128621, 0.5297486, 0.050299034, 0.5686223, -0.30871773, 0.06527996, 0
1499, 3618050814, 0.81605077, 0.06652011, 0.57179505, 0.052591473, 1.19661, -0.70605683, 0.577199, 0
1500, 3618067481, 0.80447906, 0.0621392, 0.58854157, 0.051478647, 0.62004304, -0.95413834, 0.1978035, 0
1501, 3618084148, 0.7899636, 0.056688532, 0.608597, 0.0493228, -2.2231863, 0.038052186, -0.6731758, 0
1503, 3618117482, 0.73402905, 0.0462659, 0.67608464, 0.045268834, -3.5127513, 2.3351645, -0.03944683, 0
1504, 3618134149, 0.6903646, 0.04377149, 0.7207466, 0.045652255, -4.7467637, 3.574012, 1.6703968, 0
1507, 3618184150, 0.47807926, 0.098444656, 0.8722751, 0.031052303, -23.387794, 9.902423, 32.997044, 0
1508, 3618200817, 0.4448322, 0.13045093, 0.8859999, -0.01378426, -37.783913, 13.765799, 30.730358, 0
1509, 3618217484, 0.4418316, 0.14160511, 0.8847527, -0.04499366, 1.4874045, -18.288443, 12.652065, 0
1511, 3618250818, 0.40154198, 0.15766823, 0.89797115, -0.0873582, -4.9808984, 9.808509, -2.4466958, 0
1512, 3618267485, 0.3845495, 0.14519665, 0.9059877, -0.101512946, -19.879843, -0.9973537, -8.954918, 0
1513, 3618284152, 0.37121463, 0.13105214, 0.9137906, -0.100452974, -15.889783, 1.2320913, -10.241589, 0
1515, 3618317486, 0.35224384, 0.10473728, 0.9245673, -0.101038635, -13.772898, 2.8530447, -16.20028, 0
1516, 3618334153, 0.3510814, 0.09823322, 0.9256556, -0.10165053, -13.745718, 0.26869252, -17.622807, 0
1517, 3618350820, 0.3587516, 0.09659928, 0.9233257, -0.097541936, -12.051437, 1.6202872, -12.905601, 0
1519, 3618384154, 0.39688465, 0.09429073, 0.90851074, -0.090989314, -4.288702, 5.620457, 0.21145535, 0
1522, 3618434155, 0.46305346, 0.08569242, 0.8743323, -0.11772982, 2.670025, -2.8395243, -1.6713619, 0
1523, 3618450822, 0.4740021, 0.084433496, 0.86763, -0.12446017, 0.740289, -3.9949462, -2.6614237, 0
1524, 3618467489, 0.48187998, 0.08378139, 0.8634512, -0.12370762, -1.4345162, -3.5545743, -2.387958, 0
1526, 3618500823, 0.50236666, 0.09015356, 0.8519537, -0.11727814, 0.48022676, 3.01562, 1.1616774, 0
1527, 3618517490, 0.5175465, 0.1005795, 0.84074813, -0.123495884, 1.1259795, 4.031733, 2.3503876, 0
1528, 3618534157, 0.53466564, 0.11431667, 0.826419, -0.13481466, 1.0242132, 1.023893, 2.0106401, 0
1530, 3618567491, 0.5624621, 0.12005402, 0.80631155, -0.13843463, -1.9125421, -2.9540873, 0.45434475, 0
1531, 3618584158, 0.5744544, 0.1131852, 0.8001885, -0.13026404, -0.28819683, -0.5757393, 1.7352266, 0
1532, 3618600825, 0.5865827, 0.1075605, 0.7930953, -0.12422038, 1.3303945, 0.61458933, 1.5596523, 0
1534, 3618634159, 0.6064751, 0.10819125, 0.7776183, -0.12598309, 2.0295143, -0.33936083, -0.67195797, 0
1536, 3618667493, 0.6200667, 0.11389607, 0.76494503, -0.13222417, -0.29834834, -0.63670415, -1.2872429, 0
1538, 3618700827, 0.6342666, 0.11566968, 0.7526804, -0.13370682, -0.46972042, 1.8359174, 0.30231762, 0
1539, 3618717494, 0.64433354, 0.117758796, 0.74333656, -0.13600367, -0.7828796, 2.6995075, 0.45800972, 0
1540, 3618734161, 0.6563009, 0.1199373, 0.73194754, -0.13862184, -1.1008599, 1.7741644, -0.58428097, 0
1542, 3618767495, 0.68004507, 0.11800407, 0.71061677, -0.13680962, -1.4110737, 0.94989765, -2.0795617, 0
1543, 3618784162, 0.69121236, 0.11477215, 0.701059, -0.13284719, -1.9055327, 2.2577558, -1.2373581, 0
1545, 3618817496, 0.7156157, 0.11076621, 0.67755985, -0.12890661, -2.770629, 3.9577878, 0.7452011, 0
1546, 3618834163, 0.72996473, 0.109983094, 0.66191775, -0.13038057, -2.8446288, 3.7126749, 0.33170795, 0
1547, 3618850830, 0.7445607, 0.10973614, 0.6449361, -0.13313097, -2.31013, 3.1523929, -0.699708, 0
1549, 3618884164, 0.7704937, 0.11101217, 0.6120595, -0.13956419, -2.8218892, 3.0477843, -0.29108524, 0
1550, 3618900831, 0.78310144, 0.11319988, 0.594702, -0.14264093, -3.7407558, 3.3562765, 1.1522274, 0
1551, 3618917498, 0.7965188, 0.115546435, 0.57555497, -0.1449913, -3.7776434, 3.0866418, 0.80230427, 0
1553, 3618950832, 0.8223194, 0.12108923, 0.5362061, -0.14727633, -2.5468235, 2.7929988, 0.49996948, 0
1554, 3618967499, 0.83474183, 0.12533286, 0.5155788, -0.1474974, -2.4098816, 2.834877, 2.1674843, 0
1555, 3618984166, 0.8476991, 0.12999089, 0.49291158, -0.14705755, -2.0452194, 2.3069015, 3.3581743, 0
1557, 3619017500, 0.8740582, 0.13694026, 0.443685, -0.14315136, 0.67546755, 2.0116014, 1.6598501, 0
1558, 3619034167, 0.88575923, 0.14029706, 0.41969687, -0.1402892, 1.2674356, 1.8149287, 1.5068893, 0
1559, 3619050834, 0.8961148, 0.14360571, 0.3968711, -0.13757925, 1.8578395, 1.7880555, 2.0720377, 0
1561, 3619084168, 0.91454077, 0.1508846, 0.3508382, -0.13356914, 2.8553047, 0.10028378, 5.018978, 0
1563, 3619117502, 0.93183714, 0.1556744, 0.30158213, -0.12873457, 4.0245705, -1.917686, 4.1557207, 0
1565, 3619150836, 0.94625545, 0.15879655, 0.25674042, -0.116395205, 4.604036, -2.9497287, 1.6497784, 0
1566, 3619167503, 0.95179754, 0.1610836, 0.23834017, -0.10680188, 5.3688517, -3.1639814, 1.2638922, 0
1569, 3619217504, 0.96456534, 0.1619977, 0.19454247, -0.07485266, 8.694777, -3.0365362, 0.03730488, 0
1570, 3619234171, 0.9671352, 0.16410628, 0.1828401, -0.066085175, 9.521678, -2.6546001, -1.3034897, 0
1572, 3619267505, 0.96949077, 0.17364961, 0.16533096, -0.051752195, 9.224917, -4.034533, -3.4083185, 0
1573, 3619284172, 0.96980906, 0.17767613, 0.16058956, -0.046816766, 9.43715, -3.9042768, -4.59532, 0
1574, 3619300839, 0.96961164, 0.18154725, 0.15836, -0.043532014, 9.517422, -3.8993716, -5.614275, 0
1576, 3619334173, 0.9677679, 0.18904312, 0.16146266, -0.041192904, 9.210993, -3.9699955, -6.2017426, 0
1577, 3619350840, 0.9662158, 0.1929209, 0.16626479, -0.040542334, 9.08239, -4.015531, -6.173417, 0
1580, 3619400841, 0.9598182, 0.20251927, 0.19164748, -0.03294164, 8.359682, -4.175161, -6.3812227, 0
1581, 3619417508, 0.95727926, 0.2026447, 0.20448142, -0.028601095, 9.048866, -3.7317584, -6.061427, 0
1582, 3619434175, 0.95422107, 0.20341179, 0.21804273, -0.024944216, 10.86079, -3.187869, -5.903777, 0
1584, 3619467509, 0.94597375, 0.2118953, 0.24429458, -0.025162235, 12.163878, -3.9937997, -6.9252434, 0
1585, 3619484176, 0.9402616, 0.21724924, 0.26052198, -0.030301362, 11.839231, -5.418721, -7.545601, 0
1586, 3619500843, 0.93260777, 0.22226071, 0.28211612, -0.036502182, 12.109458, -7.2266703, -8.891044, 0
1589, 3619550844, 0.896924, 0.23674089, 0.37137327, -0.04052174, 18.8171, -12.544971, -2.203075, 0
1590, 3619567511, 0.88369095, 0.23034626, 0.40625376, -0.032679096, 3.8537683, -22.59042, 24.360817, 0
1592, 3619600845, 0.91665536, 0.12458848, 0.3798577, -0.002804324, -1.8081925, 36.652386, 23.437454, 0
1593, 3619617512, 0.931793, 0.10935575, 0.34616897, -0.007000968, -19.128685, -10.683322, 1.4490852, 0
1596, 3619667513, 0.9560898, 0.088572934, 0.27813837, -0.027665377, -2.9602067, 4.210266, 1.2430849, 0
1597, 3619684180, 0.9547488, 0.08758415, 0.28272718, -0.03046745, -4.9109616, 4.1008615, 1.5792351, 0
1599, 3619717514, 0.9363726, 0.08867158, 0.33825412, -0.03173636, -2.341949, 2.3571172, -0.4970274, 0
1600, 3619734181, 0.92261773, 0.089389876, 0.374029, -0.031104475, 0.89228094, -0.24671684, -1.2906027, 0
1603, 3619784182, 0.8865659, 0.09209194, 0.45287728, -0.022386, 1.1003534, -1.1800292, 0.54205704, 0
1604, 3619800849, 0.8769191, 0.09238434, 0.47132468, -0.020257711, 1.348556, -1.1638348, 0.10838032, 0
1605, 3619817516, 0.8686832, 0.09276419, 0.486311, -0.019101217, 1.579507, -0.6658777, 0.16180515, 0
1607, 3619850850, 0.85172725, 0.09604326, 0.5149387, -0.015922919, -1.9032071, -0.22079577, -0.24197483, 0
1608, 3619867517, 0.8369892, 0.09673744, 0.5385098, -0.013323054, -3.3847642, 0.9922204, -1.190403, 0
1609, 3619884184, 0.81281316, 0.09717599, 0.5743581, -0.00913547, -4.3685203, 1.4300346, -0.55241776, 0
1612, 3619934185, 0.650418, 0.10616566, 0.752173, -2.6518852E-4, -11.830785, 5.305636, 12.380386, 0
1613, 3619950852, 0.5674454, 0.13789198, 0.8116634, -0.016523138, -15.999136, 5.979162, 32.76196, 0
1615, 3619984186, 0.49076584, 0.16281736, 0.85077393, -0.09435211, -16.663956, -38.50401, 12.02655, 0
1616, 3620000853, 0.44305435, 0.16659003, 0.87845045, -0.065988176, -24.505981, -10.16106, 9.876406, 0
1617, 3620017520, 0.40355647, 0.17025015, 0.89730465, -0.05550214, -2.5309718, 23.828253, 2.395835, 0
1619, 3620050854, 0.34842005, 0.15593523, 0.9210429, -0.07776126, -22.348417, 13.449757, -6.835728, 0
1620, 3620067521, 0.33408782, 0.13571139, 0.92943686, -0.07870155, -16.209074, 12.016374, -8.75208, 0
1621, 3620084188, 0.31675386, 0.11516051, 0.9382136, -0.07898969, -11.438716, 6.215557, -19.290092, 0
1623, 3620117522, 0.30255198, 0.08888112, 0.9473522, -0.05625978, -17.245846, 2.1204083, -21.791477, 0
1624, 3620134189, 0.32349733, 0.084219664, 0.9416671, -0.03998599, -14.998515, 4.3313785, -13.415967, 0
1626, 3620167523, 0.41002852, 0.069006115, 0.90928596, -0.019820027, -6.87048, 5.1939507, 1.6326361, 0
1627, 3620184190, 0.4566906, 0.052905664, 0.88790655, -0.018324725, -0.56542534, 2.1335828, 3.1063004, 0
1628, 3620200857, 0.49218765, 0.037056744, 0.86951834, -0.019876726, 4.3990383, -0.28458095, 0.73403645, 0
1630, 3620234191, 0.53430116, 0.027331203, 0.8444119, -0.028689265, -1.075025, -0.83642143, -0.18669224, 0
1631, 3620250858, 0.5522644, 0.029010981, 0.8326191, -0.031414837, -3.4485564, -0.8845585, 0.25846958, 0
1632, 3620267525, 0.57168937, 0.028676376, 0.819431, -0.030997239, -4.8061943, 0.39028233, 0.860384, 0
1634, 3620300859, 0.61659163, 0.015012085, 0.78656656, -0.031331137, -1.5784607, 2.4564521, 0.9188223, 0
1635, 3620317526, 0.6399081, 0.0071653873, 0.7676109, -0.0363176, -1.2373118, 2.471573, 0.93329334, 0
1636, 3620334193, 0.6631193, 0.0018335581, 0.74741054, -0.041542903, -0.6529309, -0.43808383, -0.120004654, 0
1639, 3620384194, 0.7206892, 3.3773482E-4, 0.69259125, -0.03167945, -0.8570572, -1.1449883, -1.2000074, 0
1640, 3620400861, 0.7392295, 9.2925876E-4, 0.67300266, -0.026182085, 0.19214849, 0.265062, -1.2997103, 0
1643, 3620450862, 0.79371405, 0.00270468, 0.60801333, -0.020231888, 2.0454664, -3.200294, -0.13596153, 0
1644, 3620467529, 0.81069857, 0.0059736297, 0.58530366, -0.015190065, 1.8372896, -5.1765556, -0.64732647, 0
1646, 3620500863, 0.84068155, 0.016599499, 0.54116464, 0.014096245, 2.442458, -6.9352746, -0.25871563, 0
1647, 3620517530, 0.8531294, 0.023240112, 0.51994836, 0.03691742, 5.4702644, -5.0735955, -0.031824112, 0
1648, 3620534197, 0.8625081, 0.03539305, 0.50111705, 0.061545864, 8.73469, -4.3164797, -1.1397533, 0
1650, 3620567531, 0.8709561, 0.06238895, 0.47423196, 0.112810396, 8.3793125, -2.8851748, 1.6010056, 0
1651, 3620584198, 0.8735437, 0.07015203, 0.46190053, 0.1368472, 6.4611044, -0.31745365, 1.3111849, 0
1652, 3620600865, 0.8763992, 0.07464015, 0.44909605, 0.15730599, 6.462112, 0.10212447, 0.37851906, 0
1655, 3620650866, 0.8784278, 0.08548305, 0.4256869, 0.19981731, 8.488206, -2.8582275, -4.4348483, 0
1657, 3620684200, 0.87004715, 0.096643835, 0.42899352, 0.22298352, 5.762409, -0.30425346, 2.9124184, 0
1658, 3620700867, 0.86841947, 0.099519365, 0.4278519, 0.23014218, 4.498102, 2.8614016, 0.28347683, 0
1659, 3620717534, 0.86835086, 0.102440394, 0.42724264, 0.23025137, 3.850429, 4.008212, -2.5147467, 0
1661, 3620750868, 0.8686457, 0.10366707, 0.43419886, 0.2150774, 2.440203, 0.93937635, -5.0139174, 0
1662, 3620767535, 0.8651157, 0.10634369, 0.44468477, 0.206399, 1.6738546, -1.2361572, -4.0544534, 0
1663, 3620784202, 0.8598855, 0.11621807, 0.45373988, 0.20319794, 0.38563663, -2.2729268, 9.62018, 0
1665, 3620817536, 0.84616697, 0.10604869, 0.47981584, 0.20642468, 13.127927, 3.986186, 2.3364496, 0
1666, 3620834203, 0.8485294, 0.101495765, 0.47692388, 0.20571616, 7.933073, 3.2117686, 2.4695845, 0
1667, 3620850870, 0.8525447, 0.09794863, 0.4722382, 0.2016035, 0.27052456, -3.3656323, -3.3889685, 0
1670, 3620900871, 0.85731643, 0.08898439, 0.4685411, 0.19400674, 2.5736048, 1.9482849, 2.2959652, 0
1671, 3620917538, 0.85922116, 0.08812641, 0.46648258, 0.1909079, 2.7517195, 0.17973478, 0.11292839, 0
1673, 3620950872, 0.8576086, 0.09076593, 0.46916857, 0.19033873, 0.76517266, -0.049064785, -0.69839954, 0
1674, 3620967539, 0.85393655, 0.08963467, 0.47639108, 0.1894427, 2.1640677, 0.10885751, -0.98694897, 0
1675, 3620984206, 0.8487577, 0.08688007, 0.48704618, 0.18688859, 1.3269416, -0.54629207, -2.5677414, 0
1677, 3621017540, 0.83216804, 0.07997098, 0.5174596, 0.18279932, 2.389396, -0.89774615, 1.9476919, 0
1678, 3621034207, 0.8237872, 0.078100525, 0.53178096, 0.180452, 3.213201, 0.79206824, 1.4823093, 0
1680, 3621067541, 0.8077907, 0.0798247, 0.5574699, 0.1743805, 0.46116224, -0.17127965, -3.217805, 0
1681, 3621084208, 0.79982644, 0.07827703, 0.56992614, 0.1715043, -0.35864955, 0.06954822, -1.764266, 0
1682, 3621100875, 0.79396164, 0.074331634, 0.57952577, 0.16831163, 0.81270975, -0.68384475, 0.51573753, 0
1685, 3621150876, 0.7929282, 0.057129934, 0.5863264, 0.15588942, -2.8659494, -0.11992071, 0.5060215, 0
1686, 3621167543, 0.7945158, 0.048884474, 0.58675987, 0.14881779, -3.420006, -0.5914932, 0.703001, 0
1688, 3621200877, 0.8005462, 0.032184057, 0.5838052, 0.13168375, -3.889748, 1.0435429, -0.56042385, 0
1689, 3621217544, 0.8063575, 0.025150813, 0.57778215, 0.12410405, -3.274177, 2.5969136, 0.828763, 0
1690, 3621234211, 0.81401026, 0.017720565, 0.56878245, 0.11678626, -2.234032, 1.4452718, 2.0768242, 0
1692, 3621267545, 0.8310008, 0.009377405, 0.54678005, 0.10227546, -2.7655377, -1.2630565, -0.2802639, 0
1693, 3621284212, 0.8396115, 0.0091117695, 0.53534955, 0.0919215, -1.6209198, -0.6602246, -0.104325294, 0
1694, 3621300879, 0.847174, 0.013975285, 0.5254701, 0.07785572, -1.1923627, 0.7819367, -0.6868715, 0
1696, 3621334213, 0.859196, 0.025062405, 0.5081353, 0.055061214, -0.08553028, 0.10985477, 1.1674595, 0
