sep=,
DeviceTag:,Xsens_DOT_5,,,,,,,,,,,,,,,,,
FirmwareVersion:,3.0.0,,,,,,,,,,,,,,,,,
AppVersion:,2023.6.1,,,,,,,,,,,,,,,,,
SyncStatus:,Synced,,,,,,,,,,,,,,,,,
OutputRate:,60Hz,,,,,,,,,,,,,,,,,
FilterProfile:,General,,,,,,,,,,,,,,,,,
Measurement Mode:,Sensor fusion Mode - Extended (Quaternion),,,,,,,,,,,,,,,,,
StartTime:,2025-05-05 12:06:40.089 +0200,,,,,,,,,,,,,,,,,
 2025,,,,,,,,,,,,,,,,,,,

PacketCounter,SampleTimeFine,Quat_W,Quat_X,Quat_Y,Quat_Z,FreeAcc_X,FreeAcc_Y,FreeAcc_Z,Status
1, 3593116982, -0.5966761, -0.23510975, -0.30061537, 0.7059301, 0.035331365, -0.00634408, -0.10137653, 0
2, 3593133649, -0.5966776, -0.23525356, -0.30063885, 0.70587087, 0.009950574, -0.032077685, -0.11256981, 0
3, 3593150316, -0.59666455, -0.23544739, -0.30067715, 0.7058009, 0.03736399, -0.021213504, -0.13431263, 0
4, 3593166983, -0.59668255, -0.23570204, -0.30074406, 0.7056723, 0.013562542, -0.03136468, -0.12007046, 0
5, 3593183650, -0.5967113, -0.2359541, -0.3008237, 0.70552987, 0.036895506, 0.012821709, -0.08294487, 0
6, 3593200317, -0.5967301, -0.23616797, -0.30089322, 0.7054127, 0.04719342, 0.0392548, -0.07364941, 0
7, 3593216984, -0.5967431, -0.23633188, -0.30096036, 0.705318, 0.07441931, 0.02743778, -0.047566414, 0
8, 3593233651, -0.5967479, -0.23644221, -0.30103797, 0.70524395, 0.069798626, 0.012659886, -0.048114777, 0
9, 3593250318, -0.5967451, -0.23651174, -0.30110484, 0.7051944, 0.056876447, 0.010282043, -0.05133438, 0
10, 3593266985, -0.5967145, -0.23656085, -0.30115584, 0.7051822, 0.043750428, 0.0223038, -0.06735039, 0
11, 3593283652, -0.59671867, -0.23657566, -0.3012223, 0.7051453, 0.039553076, 0.01816501, -0.09075832, 0
12, 3593300319, -0.5967206, -0.23658575, -0.3012647, 0.7051222, 0.053756878, -0.016385175, -0.071541786, 0
13, 3593316986, -0.59672636, -0.2365939, -0.30132276, 0.7050897, 0.05823742, -0.0022296535, -0.055321693, 0
14, 3593333653, -0.59671825, -0.2365935, -0.3013688, 0.70507693, 0.06534513, 0.0022968191, -0.07515049, 0
15, 3593350320, -0.59670717, -0.23658358, -0.3014151, 0.7050699, 0.052002076, 0.009222144, -0.07681465, 0
16, 3593366987, -0.5966852, -0.23658495, -0.3014401, 0.7050773, 0.04734496, -0.016187813, -0.08512688, 0
17, 3593383654, -0.5966749, -0.23660019, -0.30145627, 0.705074, 0.071486816, 0.003671312, -0.088727, 0
18, 3593400321, -0.5966785, -0.2366389, -0.30145028, 0.7050606, 0.025201086, -0.04391292, -0.0993948, 0
19, 3593416988, -0.5967064, -0.23672163, -0.30143598, 0.70501554, 0.05376649, -0.014404851, -0.10472202, 0
20, 3593433655, -0.5967361, -0.23680815, -0.3014108, 0.704972, 0.08165442, 0.0051730955, -0.078001976, 0
21, 3593450322, -0.5967543, -0.23688959, -0.30138385, 0.70494056, 0.055862594, 0.0092702, -0.079146385, 0
22, 3593466989, -0.5967493, -0.23693198, -0.30137914, 0.7049326, 0.08107083, -0.0066884016, -0.05445385, 0
23, 3593483656, -0.59677434, -0.23692952, -0.30141687, 0.70489615, 0.061249703, 0.011661453, -0.084321976, 0
24, 3593500323, -0.596769, -0.23693481, -0.3014433, 0.70488757, 0.06403221, -0.017122544, -0.10068035, 0
25, 3593516990, -0.59676343, -0.23695983, -0.3014434, 0.7048837, 0.041591067, -0.024900349, -0.07895756, 0
26, 3593533657, -0.5967749, -0.23700859, -0.30141413, 0.7048703, 0.043829326, -0.008753549, -0.08939266, 0
27, 3593550324, -0.5968056, -0.23708652, -0.30139267, 0.70482725, 0.057776757, 0.007527134, -0.09027958, 0
28, 3593566991, -0.5968177, -0.2371454, -0.30136538, 0.7048089, 0.05929195, -0.013499848, -0.07665539, 0
29, 3593583658, -0.5968277, -0.23717792, -0.30136117, 0.70479125, 0.047496725, 3.0408936E-4, -0.06892967, 0
30, 3593600325, -0.5968288, -0.23718157, -0.30136234, 0.70478845, 0.054245923, 0.020520836, -0.08514786, 0
31, 3593616992, -0.5968237, -0.23718688, -0.30136764, 0.70478886, 0.06261358, -0.015167701, -0.07480049, 0
32, 3593633659, -0.59681535, -0.23718014, -0.30137488, 0.7047951, 0.06842335, -0.007725837, -0.07799339, 0
35, 3593683660, -0.5967879, -0.237151, -0.30139863, 0.704818, 0.032541476, 0.0014054495, -0.086336136, 0
36, 3593700327, -0.5967774, -0.2371557, -0.30142024, 0.7048161, 0.03703677, 0.011255554, -0.108382225, 0
37, 3593716994, -0.59675837, -0.2371788, -0.30144608, 0.70481324, 0.04210604, -0.0049357247, -0.084578514, 0
41, 3593783662, -0.59670043, -0.23722246, -0.30154324, 0.7048062, 0.06049043, -0.017929874, -0.06790829, 0
43, 3593816996, -0.5966518, -0.23719573, -0.3016377, 0.70481575, 0.04179044, 0.017724466, -0.09705639, 0
44, 3593833663, -0.5966255, -0.23716527, -0.30169547, 0.7048235, 0.024155045, 0.0038637568, -0.11165428, 0
45, 3593850330, -0.5965994, -0.23714334, -0.30174062, 0.7048337, 0.033681836, 0.0056383377, -0.12070751, 0
48, 3593900331, -0.5965268, -0.2371157, -0.30188835, 0.7048412, 0.027968846, -0.0068466486, -0.093580246, 0
49, 3593916998, -0.5965156, -0.237128, -0.30193552, 0.7048264, 0.061110456, -0.012634517, -0.08888245, 0
51, 3593950332, -0.59648174, -0.23713458, -0.30204058, 0.70480794, 0.054215077, -0.011924081, -0.067121506, 0
52, 3593966999, -0.5964731, -0.2371304, -0.30207306, 0.7048026, 0.030670224, 0.005216904, -0.06912899, 0
55, 3594017000, -0.59645563, -0.23716854, -0.3022063, 0.70474744, 0.058842693, 0.004207408, -0.08341789, 0
56, 3594033667, -0.59644073, -0.23717631, -0.30222687, 0.7047487, 0.03902514, 3.3146972E-4, -0.08410072, 0
59, 3594083668, -0.59642947, -0.23719077, -0.30236554, 0.70469385, 0.0021962384, -0.010136872, -0.12019062, 0
62, 3594133669, -0.59647787, -0.23736659, -0.30267265, 0.7044618, 0.11069658, 0.034170438, -0.0766592, 0
63, 3594150336, -0.5964915, -0.2374492, -0.30275372, 0.70438755, 0.05156891, -0.012961181, -0.0667429, 0
64, 3594167003, -0.5964948, -0.23749658, -0.30286175, 0.7043223, 0.04169925, -0.012058524, -0.07050991, 0
66, 3594200337, -0.5965426, -0.23753995, -0.30301473, 0.7042014, 0.047517065, -0.012199784, -0.081282616, 0
68, 3594233671, -0.59654486, -0.23757726, -0.30318925, 0.70411164, 0.0762016, 0.009591276, -0.085990906, 0
70, 3594267005, -0.59653634, -0.23761392, -0.30327916, 0.70406795, 0.06960149, 0.0064755054, -0.08624458, 0
71, 3594283672, -0.5965426, -0.23763141, -0.30329853, 0.70404845, 0.018126901, -0.01573453, -0.10044956, 0
72, 3594300339, -0.5965622, -0.23766097, -0.30330434, 0.70401925, 0.03501308, 0.011883513, -0.08505821, 0
75, 3594350340, -0.596596, -0.23760563, -0.30334544, 0.70399165, 0.052823264, -0.0065199845, -0.09514904, 0
78, 3594400341, -0.5965908, -0.23751228, -0.30332884, 0.7040346, 0.07103935, -0.0072534424, -0.064315796, 0
79, 3594417008, -0.59657836, -0.23750678, -0.30327275, 0.70407116, 0.07608627, -0.020310286, -0.084095, 0
82, 3594467009, -0.5965641, -0.23740017, -0.30309826, 0.7041944, 0.040515076, -0.0061342013, -0.075014114, 0
83, 3594483676, -0.5965505, -0.23735097, -0.30303562, 0.70424944, 0.029139832, -0.007770875, -0.081445694, 0
85, 3594517010, -0.5965677, -0.2372604, -0.30287233, 0.70433575, 0.053574268, -0.028713368, -0.08479309, 0
86, 3594533677, -0.5965896, -0.23723193, -0.3028332, 0.70434344, 0.01188776, -0.011360828, -0.09327221, 0
89, 3594583678, -0.5965902, -0.23715231, -0.30266455, 0.70444226, 0.020368736, -0.004573187, -0.082787514, 0
90, 3594600345, -0.59661025, -0.23713197, -0.30259168, 0.70446336, 0.025067871, -0.019796208, -0.09578705, 0
91, 3594617012, -0.5966192, -0.23710263, -0.302548, 0.7044845, 0.08207284, 0.00813509, -0.071128845, 0
93, 3594650346, -0.59662557, -0.23702791, -0.3024721, 0.7045368, 0.0350817, -0.023369957, -0.10492897, 0
95, 3594683680, -0.59663045, -0.23702085, -0.30237776, 0.7045757, 0.015341035, -0.025021605, -0.07837582, 0
97, 3594717014, -0.5966734, -0.23700501, -0.30228114, 0.7045861, 0.06958629, -0.019981947, -0.0858469, 0
98, 3594733681, -0.59669805, -0.2369728, -0.30221373, 0.704605, 0.0632973, 0.0011097419, -0.0795002, 0
99, 3594750348, -0.59669214, -0.23695788, -0.3021475, 0.7046433, 0.059098165, -0.010611725, -0.074430466, 0
102, 3594800349, -0.596762, -0.23690261, -0.30193225, 0.70469505, 0.042928122, -0.015813878, -0.075694084, 0
103, 3594817016, -0.5967904, -0.23689005, -0.30187955, 0.7046978, 0.04310358, -0.008562334, -0.09080696, 0
105, 3594850350, -0.5968338, -0.23682152, -0.30176055, 0.7047349, 0.061129674, 0.023531668, -0.0336504, 0
106, 3594867017, -0.5968668, -0.23674372, -0.30168778, 0.7047644, 0.032348137, -0.0025473773, -0.085549355, 0
109, 3594917018, -0.59690857, -0.23660135, -0.3015436, 0.7048386, 0.051374454, -0.0053465418, -0.09686279, 0
112, 3594967019, -0.5969458, -0.23643036, -0.3014124, 0.7049205, 0.05240261, -0.010595855, -0.09344101, 0
113, 3594983686, -0.5969804, -0.2363315, -0.30139276, 0.70493275, 0.060101517, -0.0053972793, -0.07530403, 0
116, 3595033687, -0.5970052, -0.2361435, -0.30129975, 0.7050146, 0.053145345, -0.026448177, -0.102277756, 0
117, 3595050354, -0.5970139, -0.2361215, -0.30127394, 0.7050255, 0.060833298, -0.009306744, -0.12723923, 0
118, 3595067021, -0.59702325, -0.23611496, -0.30125868, 0.7050263, 0.04433424, -0.026070328, -0.089437485, 0
120, 3595100355, -0.5970605, -0.236208, -0.30116823, 0.70500225, 0.038491838, -0.03830498, -0.11032963, 0
122, 3595133689, -0.59710443, -0.23630573, -0.3010694, 0.70497453, 0.087546445, -0.0074154893, -0.08966255, 0
124, 3595167023, -0.5971509, -0.2365044, -0.30092654, 0.70492953, 0.042471483, -0.031646974, -0.098124504, 0
126, 3595200357, -0.59716994, -0.2367829, -0.30084357, 0.7048553, 0.061451536, 0.0032911166, -0.065133095, 0
129, 3595250358, -0.5971865, -0.23696813, -0.3007952, 0.7047996, 0.0174957, -0.025663087, -0.07761574, 0
132, 3595300359, -0.5972358, -0.23719826, -0.30066738, 0.704735, 9.0858014E-4, -0.011117982, -0.075618744, 0
133, 3595317026, -0.597272, -0.23729908, -0.3006059, 0.70469666, 0.0076354262, -0.02739643, -0.08046055, 0
136, 3595367027, -0.5974127, -0.23753946, -0.30033746, 0.70461076, 0.11782195, 0.002989374, -0.04867935, 0
137, 3595383694, -0.59742796, -0.23754632, -0.30026904, 0.70462465, 0.08399662, 0.011210851, -0.057020187, 0
139, 3595417028, -0.59743756, -0.23755482, -0.30020446, 0.7046412, 0.05476872, -0.011746947, -0.067420006, 0
140, 3595433695, -0.5974481, -0.23756857, -0.30016786, 0.7046432, 0.054238994, -0.0013387308, -0.0787611, 0
143, 3595483696, -0.59747213, -0.23756029, -0.30005807, 0.70467234, 0.054188482, -0.027623184, -0.09506798, 0
144, 3595500363, -0.59746385, -0.23756307, -0.30006266, 0.7046765, 0.023221208, -0.01200924, -0.08649635, 0
145, 3595517030, -0.59746367, -0.237587, -0.30007598, 0.7046628, 0.012826067, -0.02536235, -0.087332726, 0
147, 3595550364, -0.59745353, -0.23762181, -0.30007955, 0.7046582, 0.062297754, -0.010649387, -0.08097935, 0
151, 3595617032, -0.59743935, -0.23766083, -0.30006275, 0.70466435, 0.046061996, -0.017092818, -0.09422588, 0
152, 3595633699, -0.597445, -0.237683, -0.3000377, 0.7046628, 0.065963365, 0.011806401, -0.07987404, 0
153, 3595650366, -0.5974397, -0.23768817, -0.29997638, 0.70469147, 0.040434163, -0.005608499, -0.0854969, 0
156, 3595700367, -0.59740305, -0.23777407, -0.29994044, 0.70470893, 0.01742261, -0.057176404, -0.07472229, 0
157, 3595717034, -0.59739536, -0.23782869, -0.29996276, 0.7046876, 0.01658712, -0.013601545, -0.0907011, 0
159, 3595750368, -0.5973719, -0.23793526, -0.29998302, 0.7046628, 0.056457806, 0.0031869595, -0.07436848, 0
160, 3595767035, -0.5973655, -0.23797637, -0.29998118, 0.7046552, 0.05537265, -0.01322515, -0.08433914, 0
163, 3595817036, -0.5973349, -0.23807824, -0.30006737, 0.70461, 0.029524721, -0.022157175, -0.041650772, 0
164, 3595833703, -0.5973197, -0.23810983, -0.30014294, 0.70458, 0.04320371, -0.0010163134, -0.056510925, 0
166, 3595867037, -0.59728277, -0.23813704, -0.30029404, 0.7045378, 0.012176986, 0.0037008158, -0.10064411, 0
170, 3595933705, -0.5973647, -0.23858899, -0.3007279, 0.70413035, 0.021134714, -0.011923075, -0.085746765, 0
171, 3595950372, -0.5973578, -0.23868483, -0.30091107, 0.7040255, 0.09567048, 0.010075964, -0.044204712, 0
172, 3595967039, -0.5973269, -0.23874937, -0.30105627, 0.70396763, 0.08275969, 0.011866974, -0.05434513, 0
174, 3596000373, -0.59737766, -0.23891622, -0.30130422, 0.70376176, -0.008618212, -0.07242636, -0.11906052, 0
176, 3596033707, -0.5974191, -0.23923136, -0.30150667, 0.7035329, 0.061690245, -0.0039349454, -0.05103779, 0
178, 3596067041, -0.597404, -0.2395003, -0.30166775, 0.70338506, 0.06054519, -0.0100280205, -0.05761528, 0
179, 3596083708, -0.5974073, -0.23961222, -0.30167988, 0.7033389, 0.052191168, 0.013094618, -0.049474716, 0
180, 3596100375, -0.59740263, -0.23968324, -0.3016804, 0.70331854, 0.07848099, 0.0134289935, -0.05867958, 0
183, 3596150376, -0.5972547, -0.23968533, -0.30174893, 0.70341396, 0.060414433, 0.0071841534, -0.07621002, 0
184, 3596167043, -0.59721625, -0.23969743, -0.3016752, 0.7034742, 0.06695107, 0.010713199, -0.08301258, 0
186, 3596200377, -0.59700984, -0.23968886, -0.30163062, 0.70367134, 0.05141245, -0.00712347, -0.07321358, 0
187, 3596217044, -0.5968781, -0.23970085, -0.3016072, 0.7037891, -0.032764986, -0.03817277, -0.10103512, 0
190, 3596267045, -0.5967456, -0.2394579, -0.30152053, 0.7040213, 0.049806956, 0.016031466, -0.050302505, 0
191, 3596283712, -0.5966962, -0.23929764, -0.30153584, 0.704111, 0.009071274, -0.013652171, -0.074991226, 0
193, 3596317046, -0.596643, -0.23907568, -0.3015482, 0.7042263, 0.0077724396, -0.01947636, -0.08212376, 0
194, 3596333713, -0.5966117, -0.23896162, -0.30156448, 0.7042845, -0.003787874, 0.0050346293, -0.088479996, 0
197, 3596383714, -0.59668845, -0.23899676, -0.3013576, 0.704296, 0.04395047, -0.030432854, -0.08146191, 0
198, 3596400381, -0.5967186, -0.23903005, -0.30131948, 0.70427555, 0.11090601, -0.020655615, -0.068873405, 0
199, 3596417048, -0.5967374, -0.2390616, -0.301323, 0.7042474, 0.056296878, -9.509359E-4, -0.113082886, 0
203, 3596483716, -0.59677434, -0.23898156, -0.30151513, 0.7041611, 0.043789092, -0.03131696, -0.08139324, 0
205, 3596517050, -0.59663814, -0.23879012, -0.30216616, 0.7040624, 0.04674885, -0.09428279, -0.11294174, 0
206, 3596533717, -0.596491, -0.23866265, -0.30272624, 0.70398957, 0.07925278, -0.03161155, -0.07518673, 0
207, 3596550384, -0.59634334, -0.23858008, -0.30328977, 0.70390016, 0.024943152, -0.035541803, -0.07450676, 0
210, 3596600385, -0.5960482, -0.23849387, -0.30448213, 0.70366454, 0.03457522, 0.018098403, -0.081243515, 0
211, 3596617052, -0.59599733, -0.23847625, -0.30466127, 0.703636, 0.07888801, 0.015530798, -0.06461239, 0
213, 3596650386, -0.5959741, -0.23837103, -0.30482778, 0.70361924, 0.046570264, 7.418395E-4, -0.08619881, 0
214, 3596667053, -0.5959593, -0.23830938, -0.3048513, 0.7036425, 0.044393472, 0.014980285, -0.06939793, 0
217, 3596717054, -0.5959922, -0.23810467, -0.30478954, 0.7037108, 0.032804772, -0.07443138, -0.13317394, 0
218, 3596733721, -0.5960008, -0.2381292, -0.3047939, 0.7036931, 0.037107844, -0.03547687, -0.111795425, 0
221, 3596783722, -0.59600455, -0.23830962, -0.30476725, 0.70364046, 0.02304508, -9.4791845E-4, -0.09761047, 0
224, 3596833723, -0.5961292, -0.23852502, -0.30452573, 0.7035664, 0.05201303, 0.018261231, -0.07624245, 0
225, 3596850390, -0.596157, -0.23849237, -0.3044481, 0.70358753, 0.043576084, -0.0070539573, -0.07963085, 0
226, 3596867057, -0.59617233, -0.23844221, -0.3044203, 0.7036036, 0.037552413, -0.010010474, -0.067689896, 0
228, 3596900391, -0.59615654, -0.2383439, -0.30438372, 0.703666, 0.077348225, -0.014903733, -0.0705328, 0
230, 3596933725, -0.596123, -0.23820272, -0.30432066, 0.70376956, 0.051304493, -0.01326203, -0.08157253, 0
232, 3596967059, -0.59608054, -0.23799615, -0.30420145, 0.703927, 0.041680027, -7.1781187E-4, -0.06615543, 0
233, 3596983726, -0.5960614, -0.23787624, -0.30414227, 0.7040093, 0.052193627, 0.0018731504, -0.06076336, 0
234, 3597000393, -0.5960446, -0.23773465, -0.30403632, 0.7041172, 0.0656576, -0.009745388, -0.06962681, 0
237, 3597050394, -0.5960389, -0.23727211, -0.30347285, 0.704521, 0.033203967, -0.014332545, -0.11051369, 0
240, 3597100395, -0.59604645, -0.23697376, -0.30297443, 0.7048293, 0.057212163, 0.009117206, -0.06316376, 0
241, 3597117062, -0.59605706, -0.23688442, -0.30281198, 0.70492023, 0.037623934, -0.02080861, -0.08192158, 0
244, 3597167063, -0.5961312, -0.23689213, -0.30227146, 0.7050869, 0.022594254, -0.0075834594, -0.10223961, 0
245, 3597183730, -0.5961477, -0.23689368, -0.3021524, 0.70512354, 0.053702116, -0.027462479, -0.071640015, 0
247, 3597217064, -0.59619224, -0.23695731, -0.30189434, 0.705175, 0.032234814, -0.027797189, -0.08670235, 0
248, 3597233731, -0.59620076, -0.23696777, -0.30183992, 0.70518756, 0.016710723, -0.020488538, -0.08026028, 0
251, 3597283732, -0.59615976, -0.23697183, -0.30170766, 0.7052775, 0.08604958, -0.022391975, -0.06501198, 0
252, 3597300399, -0.5961623, -0.23696573, -0.3016672, 0.70529455, 0.057510555, -0.03173068, -0.101691246, 0
253, 3597317066, -0.5961792, -0.23699787, -0.30158776, 0.7053036, 0.01995926, -0.026217734, -0.11496067, 0
255, 3597350400, -0.59618694, -0.23710206, -0.30158517, 0.7052632, 0.03269883, -0.03317502, -0.10681057, 0
259, 3597417068, -0.5963105, -0.23769692, -0.30171543, 0.70490265, 0.052397247, 1.5478273E-4, -0.11896896, 0
260, 3597433735, -0.5963274, -0.23793626, -0.3016412, 0.70483935, 0.06519627, -0.018457476, -0.09218216, 0
261, 3597450402, -0.59638983, -0.23817757, -0.30157784, 0.704732, 1.6070582E-4, -0.059100624, -0.10995579, 0
264, 3597500403, -0.5965335, -0.23864688, -0.30159578, 0.70444405, 0.073845774, -0.013434358, -0.0680294, 0
265, 3597517070, -0.59654105, -0.23875701, -0.30161768, 0.7043909, 0.061295077, -0.017119305, -0.059022903, 0
267, 3597550404, -0.59661937, -0.23896916, -0.3014996, 0.70430326, 0.28723338, -0.042377386, -0.0026226044, 0
268, 3597567071, -0.5965785, -0.23906624, -0.30145985, 0.70432186, -0.259444, 0.06740089, -0.18581772, 0
271, 3597617072, -0.59692127, -0.23995484, -0.30118877, 0.70384526, -0.044105142, -0.12218638, -0.15184021, 0
272, 3597633739, -0.59701294, -0.24057624, -0.30134943, 0.7034863, -0.016595166, -0.0967002, -0.13532448, 0
274, 3597667073, -0.5972644, -0.2420536, -0.3013301, 0.70277405, 0.10619547, 0.04064583, -0.02636242, 0
275, 3597683740, -0.5973733, -0.24265945, -0.3012886, 0.7024904, 0.15780373, 0.07058025, 0.029521942, 0
278, 3597733741, -0.59730804, -0.24390431, -0.30146384, 0.7020394, 0.08657551, 0.017318789, -0.06740379, 0
279, 3597750408, -0.59727716, -0.24414517, -0.30149478, 0.70196867, 0.06891843, 0.017514475, -0.053972244, 0
280, 3597767075, -0.59726894, -0.24436109, -0.30148026, 0.7019068, 0.030092219, -0.04014751, -0.11613655, 0
282, 3597800409, -0.59725225, -0.24484661, -0.3015756, 0.7017107, 0.059968304, 0.013819024, -0.08424091, 0
284, 3597833743, -0.5972234, -0.24517296, -0.30174282, 0.7015494, 0.04707563, -0.027010646, -0.062490463, 0
286, 3597867077, -0.59721315, -0.24544068, -0.30189687, 0.70139825, 0.04020216, -0.020833084, -0.07295227, 0
287, 3597883744, -0.5972287, -0.24558559, -0.3019393, 0.701316, 0.07436053, 0.013723919, -0.07480335, 0
288, 3597900411, -0.5972729, -0.24570122, -0.30195218, 0.70123243, 0.023294743, -0.015088578, -0.09374046, 0
292, 3597967079, -0.59737957, -0.24594295, -0.30197114, 0.7010485, 0.091216534, 0.0074917073, -0.062077522, 0
294, 3598000413, -0.5973973, -0.2457572, -0.30188, 0.7011379, 0.061022837, 0.004478976, -0.08318615, 0
295, 3598017080, -0.5973946, -0.24568342, -0.30180863, 0.70119673, 0.026472427, -0.021438021, -0.071619034, 0
298, 3598067081, -0.5974021, -0.24546467, -0.30152267, 0.7013899, 0.07214216, 0.0296405, -0.04007721, 0
299, 3598083748, -0.59740025, -0.24527381, -0.30138633, 0.701517, 0.083488345, 0.02366924, -0.07137871, 0
301, 3598117082, -0.5974275, -0.24478924, -0.3010547, 0.7018053, -0.015402278, -0.07742288, -0.1145277, 0
302, 3598133749, -0.59741896, -0.24459527, -0.30098966, 0.7019081, 0.0688849, -0.027532214, -0.0893631, 0
305, 3598183750, -0.5974142, -0.24435872, -0.30092716, 0.70202124, 0.082792774, -0.031790808, -0.0646286, 0
306, 3598200417, -0.5974038, -0.24433935, -0.3009163, 0.70204145, 0.033196144, -0.0020792293, -0.08759308, 0
307, 3598217084, -0.5974004, -0.24431786, -0.3009058, 0.70205635, 0.037695907, -0.017462173, -0.09364128, 0
311, 3598283752, -0.5973629, -0.24389046, -0.30081922, 0.702274, 0.067172125, 0.008815239, -0.052227974, 0
313, 3598317086, -0.59736073, -0.24349451, -0.30070722, 0.70246106, 0.05290194, 0.010392682, -0.08753967, 0
314, 3598333753, -0.59737, -0.24331513, -0.30060777, 0.702558, 0.032001022, -0.055484522, -0.088459015, 0
315, 3598350420, -0.597384, -0.2431456, -0.300505, 0.70264876, 0.06797074, -0.028878655, -0.08918476, 0
318, 3598400421, -0.5973801, -0.24281478, -0.30036804, 0.70282495, 0.050488893, -0.0019121533, -0.07011795, 0
319, 3598417088, -0.5973588, -0.24269389, -0.30036554, 0.70288575, 0.04933758, -0.014081763, -0.081967354, 0
321, 3598450422, -0.59732014, -0.2423999, -0.30033743, 0.7030323, 0.058811624, -0.01697525, -0.084300995, 0
322, 3598467089, -0.5972905, -0.24226533, -0.3003186, 0.70311177, 0.030940004, -0.0069578467, -0.08604336, 0
325, 3598517090, -0.597244, -0.24197616, -0.30032584, 0.7032478, 0.06662787, 0.0127773415, -0.087717056, 0
326, 3598533757, -0.59721285, -0.2418605, -0.30034503, 0.70330584, 0.053933676, 0.00475982, -0.06044674, 0
329, 3598583758, -0.5971289, -0.24155366, -0.30037075, 0.70347154, 0.033770125, -0.017566778, -0.098511696, 0
332, 3598633759, -0.59707487, -0.2412985, -0.30036357, 0.70360786, 0.06564218, -0.006876376, -0.07753563, 0
333, 3598650426, -0.5970643, -0.24122924, -0.300327, 0.7036564, 0.06482814, -0.018260226, -0.06612015, 0
334, 3598667093, -0.5970294, -0.24114765, -0.3002905, 0.7037295, 0.033215143, -0.02345668, -0.07102394, 0
336, 3598700427, -0.59700453, -0.24099296, -0.30021143, 0.7038373, 0.040083025, 0.0028211805, -0.08571434, 0
338, 3598733761, -0.596973, -0.24086858, -0.30014166, 0.7039364, 0.039235465, -0.01739702, -0.08736992, 0
340, 3598767095, -0.59693295, -0.24073957, -0.30010146, 0.7040316, 0.037885223, -0.021526756, -0.09344196, 0
341, 3598783762, -0.5969402, -0.24065943, -0.30009693, 0.7040546, 0.047194984, -0.020422826, -0.06714821, 0
342, 3598800429, -0.596934, -0.24059376, -0.3000828, 0.70408845, 0.0626623, -0.027578145, -0.083545685, 0
345, 3598850430, -0.5969295, -0.24040624, -0.3000608, 0.70416576, 0.08239045, 0.08215185, -0.191432, 0
348, 3598900431, -0.5968306, -0.24005401, -0.29981357, 0.704475, -0.0066653797, -0.06517459, -0.14010334, 0
349, 3598917098, -0.5968952, -0.24010615, -0.29967552, 0.70446116, 0.05315697, -0.048763935, -0.08926582, 0
352, 3598967099, -0.59719616, -0.24141341, -0.30021265, 0.70353013, -0.14359657, -0.40828496, -0.25663567, 0
353, 3598983766, -0.5973494, -0.24231909, -0.3007883, 0.7028424, 0.16727196, 0.05969014, 0.055835724, 0
355, 3599017100, -0.5972159, -0.24369806, -0.3021025, 0.70191485, 0.14172241, 0.10308954, -0.019265175, 0
356, 3599033767, -0.5970956, -0.24423778, -0.3026271, 0.7016037, 0.11310046, 0.11558402, -0.04307747, 0
359, 3599083768, -0.59687424, -0.24506684, -0.30344203, 0.7011507, 0.11172966, 0.03819188, -0.08774948, 0
360, 3599100435, -0.59686106, -0.2451856, -0.30346555, 0.7011102, 0.055005196, 0.028340213, -0.049262047, 0
361, 3599117102, -0.5968604, -0.2452059, -0.30342573, 0.7011209, 0.090579964, 0.05540048, -0.061214447, 0
363, 3599150436, -0.5968734, -0.24497856, -0.30331236, 0.7012383, 0.03332824, -0.02631731, -0.0716238, 0
365, 3599183770, -0.5968714, -0.24483052, -0.3032509, 0.7013182, 0.018981839, -0.06812999, -0.08315468, 0
367, 3599217104, -0.5968635, -0.24489786, -0.30323955, 0.70130646, 0.06634401, 0.019897794, -0.07855606, 0
368, 3599233771, -0.5968625, -0.24487911, -0.3032169, 0.70132357, 0.06616006, -0.0037509943, -0.07064724, 0
369, 3599250438, -0.596851, -0.24481475, -0.30317578, 0.7013737, 0.04797661, -0.0053938148, -0.079401016, 0
372, 3599300439, -0.59686315, -0.24448128, -0.302809, 0.70163804, 0.041724727, 0.0010537518, -0.08144283, 0
373, 3599317106, -0.59689593, -0.24432068, -0.30270252, 0.701712, 0.03951463, -0.0475212, -0.0926218, 0
375, 3599350440, -0.5968727, -0.24415003, -0.3026246, 0.7018248, 0.042433936, -0.025503164, -0.0853529, 0
376, 3599367107, -0.5968678, -0.24410863, -0.30258393, 0.7018607, 0.037778385, -0.0050074724, -0.10571575, 0
379, 3599417108, -0.5968653, -0.24396361, -0.30254072, 0.7019321, 0.04008839, -0.020391868, -0.08945656, 0
382, 3599467109, -0.59681207, -0.24390346, -0.30268848, 0.70193446, 0.052192286, 0.01333713, -0.06920433, 0
383, 3599483776, -0.5968022, -0.24385561, -0.3027445, 0.7019354, 0.037326664, 0.013470455, -0.0848217, 0
386, 3599533777, -0.5967668, -0.24356206, -0.30298662, 0.70196295, 0.03329896, -0.009619886, -0.06998634, 0
387, 3599550444, -0.5967414, -0.24344623, -0.30312487, 0.70196503, 0.051078074, -0.033551194, -0.055041313, 0
388, 3599567111, -0.5967164, -0.2433468, -0.30322757, 0.70197636, 0.054932334, -0.008055518, -0.086325645, 0
390, 3599600445, -0.5966752, -0.24323289, -0.3032895, 0.7020241, 0.054374892, -0.012834002, -0.07518482, 0
392, 3599633779, -0.5966363, -0.24311621, -0.3033186, 0.70208496, 0.045583233, -0.0030186542, -0.070075035, 0
394, 3599667113, -0.59660983, -0.24300814, -0.3033435, 0.7021341, 0.052542754, -0.0184425, -0.074611664, 0
395, 3599683780, -0.59660417, -0.2429463, -0.3033836, 0.70214295, 0.027579486, -0.029706884, -0.094070435, 0
396, 3599700447, -0.5965863, -0.24288565, -0.30340713, 0.702169, 0.060522392, -0.0032809468, -0.081142426, 0
400, 3599767115, -0.59655595, -0.24256723, -0.30344272, 0.7022894, 0.053281687, 0.00162181, -0.07025814, 0
402, 3599800449, -0.59653884, -0.24238664, -0.30340314, 0.70238346, 0.049609147, 0.0071480563, -0.08641338, 0
403, 3599817116, -0.5965434, -0.24228464, -0.30337054, 0.70242894, 0.046079654, 0.0034470167, -0.089987755, 0
406, 3599867117, -0.59655356, -0.24197187, -0.3032974, 0.7025598, 0.064842, -0.030504042, -0.059782982, 0
407, 3599883784, -0.59656125, -0.24186783, -0.3032465, 0.70261097, 0.08195326, -0.0066724205, -0.07905388, 0
409, 3599917118, -0.5965756, -0.24164476, -0.30312198, 0.70272917, 0.057492226, -0.008818815, -0.08095455, 0
410, 3599933785, -0.5965803, -0.24153529, -0.3030094, 0.70281136, 0.061824802, -0.0040231217, -0.07607746, 0
413, 3599983786, -0.5965829, -0.24115835, -0.30265325, 0.70309204, 0.028753377, -0.031231353, -0.094062805, 0
414, 3600000453, -0.59657115, -0.24105766, -0.3025631, 0.70317525, 0.050128814, -0.030348143, -0.09549904, 0
415, 3600017120, -0.596584, -0.24098098, -0.3024645, 0.7032331, 0.034131322, -0.023254847, -0.09380722, 0
419, 3600083788, -0.59659827, -0.24083559, -0.3022724, 0.7033534, 0.054895677, -0.0130359465, -0.08417511, 0
421, 3600117122, -0.5965893, -0.24083506, -0.30212963, 0.7034225, 0.0721473, 0.0066255946, -0.076109886, 0
422, 3600133789, -0.5965962, -0.24084078, -0.3020608, 0.7034441, 0.040260717, -0.022104202, -0.08156204, 0
423, 3600150456, -0.59659576, -0.24082376, -0.30200168, 0.70347583, 0.05211361, 0.011558525, -0.100250244, 0
426, 3600200457, -0.5965913, -0.24077284, -0.30179694, 0.703585, 0.040065367, 0.002351915, -0.078434944, 0
427, 3600217124, -0.5965841, -0.24074443, -0.30175203, 0.70362, 0.047424532, -0.03278041, -0.08467007, 0
429, 3600250458, -0.5966529, -0.24065778, -0.30151266, 0.7036939, 0.037055094, 0.10301176, -0.21674824, 0
430, 3600267125, -0.59653294, -0.24051666, -0.3015741, 0.70381767, 0.22312292, 0.12659383, 0.10324001, 0
433, 3600317126, -0.59671324, -0.24074623, -0.3013052, 0.70370144, 0.055902824, -0.10706695, -0.06630707, 0
434, 3600333793, -0.59673, -0.24092317, -0.30141512, 0.7035795, 0.0724182, -0.016442172, -0.06823349, 0
437, 3600383794, -0.59683883, -0.24137504, -0.30163157, 0.70323956, 0.09944628, 0.044252213, -0.064305305, 0
440, 3600433795, -0.59689534, -0.24136266, -0.30187482, 0.70309144, 0.07226844, 0.06343298, -0.03344822, 0
441, 3600450462, -0.59689665, -0.24116102, -0.30194172, 0.7031307, 0.12710534, 0.095625885, 0.042079926, 0
442, 3600467129, -0.59690505, -0.24080208, -0.3019216, 0.7032554, 0.07119536, 0.028138716, -0.045399666, 0
444, 3600500463, -0.5969017, -0.24006045, -0.30174097, 0.70358896, 0.014615289, -0.010860941, -0.07961655, 0
446, 3600533797, -0.5967503, -0.23921981, -0.30187097, 0.703948, 0.015623332, -0.02666543, -0.0684948, 0
448, 3600567131, -0.5965584, -0.23799755, -0.30218187, 0.70439154, 0.06063057, -0.0019653493, -0.06730747, 0
449, 3600583798, -0.5964423, -0.23738025, -0.3023405, 0.70462996, -0.0047413805, -0.08002435, -0.14341068, 0
450, 3600600465, -0.59630704, -0.23688152, -0.3025243, 0.70483345, 0.012146588, -0.056670815, -0.10305309, 0
453, 3600650466, -0.5959647, -0.23552851, -0.30285713, 0.705433, 0.057303358, -0.028423471, -0.09277058, 0
454, 3600667133, -0.5958877, -0.23507896, -0.3028824, 0.7056373, 0.118752435, -0.020685341, -0.08713913, 0
456, 3600700467, -0.59569967, -0.23427495, -0.30283874, 0.70608187, 0.04306983, -0.02388426, -0.13722515, 0
457, 3600717134, -0.59564126, -0.23400368, -0.30276206, 0.7062542, 0.018928194, -0.046763826, -0.19104576, 0
460, 3600767135, -0.59556, -0.2334026, -0.30253688, 0.70661795, 0.112826884, 0.018182555, -0.013530731, 0
461, 3600783802, -0.5955282, -0.2330668, -0.3024306, 0.706801, 0.050275665, 0.0024842347, -0.068139076, 0
463, 3600817136, -0.59545684, -0.2324586, -0.30231774, 0.70710975, 0.06385832, -0.03356695, -0.11468983, 0
464, 3600833803, -0.5953811, -0.23215279, -0.30230635, 0.70727885, 0.046018634, 0.022355542, -0.08254528, 0
467, 3600883804, -0.59524477, -0.23130505, -0.30214494, 0.70774007, 0.1054733, -0.013950673, -0.05970955, 0
468, 3600900471, -0.5951992, -0.23101886, -0.30210862, 0.7078875, 0.021473113, -0.038003683, -0.10185337, 0
471, 3600950472, -0.59509534, -0.23047109, -0.302116, 0.70815015, 0.027845245, -0.023075031, -0.10250187, 0
473, 3600983806, -0.59507567, -0.23032613, -0.30211857, 0.70821255, 0.02362666, -0.034486484, -0.16350937, 0
475, 3601017140, -0.59509414, -0.23040974, -0.3020436, 0.70820177, 0.08277914, -0.055837672, -0.11705017, 0
476, 3601033807, -0.59513265, -0.23049021, -0.30205086, 0.7081402, 0.06180759, -0.03893618, -0.104789734, 0
477, 3601050474, -0.5950911, -0.23061725, -0.3021056, 0.70811033, 0.104984485, -0.020376895, -0.08523178, 0
480, 3601100475, -0.5950668, -0.23091385, -0.3022774, 0.70796084, 0.118904196, -0.017976923, -0.08577919, 0
481, 3601117142, -0.59506375, -0.23115237, -0.3023004, 0.70787567, 0.038500108, 0.005782392, -0.12247372, 0
483, 3601150476, -0.59509045, -0.23165727, -0.3023028, 0.70768714, 0.037245527, -0.015839804, -0.14881992, 0
484, 3601167143, -0.5950346, -0.23187321, -0.30244514, 0.7076026, 0.103826016, -0.009696774, -0.09464264, 0
487, 3601217144, -0.5948246, -0.23275948, -0.30298364, 0.70725775, 0.045715105, -0.043607153, -0.16191578, 0
490, 3601267145, -0.59467137, -0.23439287, -0.30396885, 0.7064241, 0.07540947, -0.061870284, -0.15687752, 0
491, 3601283812, -0.59457284, -0.23503011, -0.3045867, 0.70602894, 0.009825182, -0.037508715, -0.14094353, 0
494, 3601333813, -0.5939437, -0.23773266, -0.3074923, 0.70439225, 0.17660764, -0.057779886, -0.062820435, 0
495, 3601350480, -0.59375423, -0.23892316, -0.30848876, 0.70371324, 0.19155954, -0.06927493, -0.13589, 0
496, 3601367147, -0.59358793, -0.2402721, -0.3094313, 0.7029801, 0.0721359, -0.093421265, -0.09322643, 0
498, 3601400481, -0.5928328, -0.24364042, -0.31196824, 0.7013346, 0.20281968, -0.13193624, 0.014129639, 0
500, 3601433815, -0.5908993, -0.247775, -0.31734222, 0.6991033, 0.32561937, -0.25830933, -0.0013885498, 0
502, 3601467149, -0.58755994, -0.2526329, -0.32694066, 0.6957482, 0.1058611, -0.37637067, -0.06587696, 0
503, 3601483816, -0.58534986, -0.25589007, -0.33299324, 0.6935469, -0.0031613673, -0.36233887, -0.04848957, 0
504, 3601500483, -0.5827604, -0.2598614, -0.33987132, 0.6909095, -0.065263994, -0.3920046, -0.10232258, 0
508, 3601567151, -0.56780446, -0.28666502, -0.37382746, 0.67504084, -0.031007953, -0.23429164, -0.05349922, 0
510, 3601600485, -0.55891496, -0.30411085, -0.3936886, 0.663435, 0.14106193, -0.4497162, -0.16029644, 0
511, 3601617152, -0.5533681, -0.31462336, -0.40551382, 0.6560186, 0.41497996, -0.86044115, -0.493783, 0
514, 3601667153, -0.52793026, -0.3662038, -0.4560096, 0.61582917, -1.2335405, -1.4490356, -0.48958588, 0
515, 3601683820, -0.51397806, -0.39597657, -0.47687706, 0.5929784, -1.245175, -1.6061146, -0.4730482, 0
517, 3601717154, -0.46867248, -0.48146793, -0.5186545, 0.52871376, -1.0600222, -2.6936538, 0.82701206, 0
518, 3601733821, -0.43889418, -0.5305143, -0.5379021, 0.48640937, -0.53743064, -3.7716882, 2.6985989, 0
521, 3601783822, -0.35429686, -0.6557591, -0.57187223, 0.3426686, -3.456239, -11.357883, 7.699749, 0
522, 3601800489, -0.3367915, -0.6806018, -0.57458633, 0.30530202, -3.9158764, -14.054256, 4.050642, 0
523, 3601817156, -0.32757258, -0.6946521, -0.5784532, 0.27486843, -5.5953813, -18.143118, 5.0464487, 0
527, 3601883824, -0.2860788, -0.7432735, -0.5569937, 0.23551507, -5.100621, -14.543012, -3.7640576, 0
529, 3601917158, -0.26071063, -0.7500415, -0.55964875, 0.23720637, -6.7028675, -17.275532, -5.314201, 0
530, 3601933825, -0.2540103, -0.7467956, -0.56288415, 0.24686535, -3.3217454, -15.964787, -4.8497844, 0
531, 3601950492, -0.25464272, -0.73979366, -0.56623983, 0.25930852, -1.8735969, -15.504423, -3.8242493, 0
534, 3602000493, -0.28895465, -0.7151736, -0.5577283, 0.3065572, -2.215016, -5.627088, -3.3025804, 0
535, 3602017160, -0.3011551, -0.70812297, -0.55010486, 0.32443517, -2.3398755, -6.0422807, -3.036131, 0
537, 3602050494, -0.33045986, -0.6850134, -0.53353566, 0.36999828, -1.1401986, -3.5968237, -1.9662538, 0
538, 3602067161, -0.34504625, -0.67128694, -0.5248721, 0.3934875, 0.8392366, -0.7348024, -2.0473847, 0
541, 3602117162, -0.39557874, -0.6176255, -0.50684786, 0.4529541, 0.6077995, -0.9285419, 0.4485302, 0
542, 3602133829, -0.4096897, -0.5995488, -0.49674118, 0.4753418, 1.1839906, -0.71862346, 0.82285976, 0
544, 3602167163, -0.43715027, -0.558214, -0.4735159, 0.5225757, 3.8559453, 0.052078072, 1.1695633, 0
545, 3602183830, -0.4527517, -0.53533256, -0.4612222, 0.5437969, 4.8445716, 1.0235188, 0.58299446, 0
548, 3602233831, -0.49248222, -0.46832135, -0.4273771, 0.5962308, 0.33397865, 5.551351, 1.693532, 0
549, 3602250498, -0.49546582, -0.44838274, -0.41805026, 0.61539143, 2.8528862, 6.250504, 4.25605, 0
550, 3602267165, -0.49649546, -0.4273105, -0.41027504, 0.6344907, 2.7536762, 8.382283, 4.1620874, 0
552, 3602300499, -0.49506435, -0.39253315, -0.3912007, 0.6691764, 3.959511, 8.373504, 1.7779703, 0
554, 3602333833, -0.49205762, -0.36416188, -0.37689993, 0.69513863, 4.3084917, 6.6754627, -0.08766174, 0
556, 3602367167, -0.49059457, -0.34270886, -0.3675432, 0.7118888, 3.581403, 5.4813766, 2.1543837, 0
557, 3602383834, -0.4932336, -0.33011338, -0.3631541, 0.7182416, 3.480288, 5.988433, 2.9585485, 0
561, 3602450502, -0.5179719, -0.27939826, -0.35245293, 0.72761583, 1.0272701, 7.829697, -3.2613, 0
562, 3602467169, -0.52418727, -0.27467972, -0.35278925, 0.7247928, 0.5377067, 6.589693, -4.251566, 0
564, 3602500503, -0.5309132, -0.26850465, -0.36227143, 0.7174969, -0.58148926, 5.169471, -1.4859333, 0
565, 3602517170, -0.5315931, -0.26895544, -0.36394447, 0.7159765, -2.9848762, 4.7439184, -0.7485857, 0
568, 3602567171, -0.52817595, -0.289477, -0.3510574, 0.71693647, -1.599682, 0.2927926, -2.0502715, 0
569, 3602583838, -0.52387375, -0.29619214, -0.35157922, 0.71709454, -0.93257976, -0.49235547, -1.1081543, 0
571, 3602617172, -0.5108392, -0.3016512, -0.3587381, 0.72066844, -1.0888541, 0.63524145, 2.0574818, 0
572, 3602633839, -0.50439465, -0.30288175, -0.3583223, 0.72488606, -0.34003115, 0.43994123, 1.7636366, 0
575, 3602683840, -0.4939323, -0.3056333, -0.35187903, 0.73403424, 1.6567855, 0.45220783, 0.5470352, 0
576, 3602700507, -0.49371102, -0.30363095, -0.3528367, 0.7345544, 1.7410396, 1.5932953, 0.92212677, 0
579, 3602750508, -0.49638638, -0.29555744, -0.35783327, 0.73362637, 1.9832883, 3.834267, 0.20176125, 0
581, 3602783842, -0.50118506, -0.28513822, -0.36463377, 0.7311349, 3.6132925, 5.6494617, -0.5970144, 0
583, 3602817176, -0.51268643, -0.2725156, -0.37927264, 0.7204487, 4.315875, 8.524914, -3.5422945, 0
584, 3602833843, -0.52006924, -0.266104, -0.39242008, 0.710443, 5.0515666, 10.764585, -2.5541005, 0
585, 3602850510, -0.52880096, -0.2591138, -0.40732762, 0.6980831, 4.3901625, 12.716949, -3.82091, 0
588, 3602900511, -0.55092704, -0.27490723, -0.43538144, 0.65677595, -2.2988055, 14.651295, -2.1739602, 0
589, 3602917178, -0.5511267, -0.28695282, -0.4437988, 0.6457293, -1.5199094, 15.428508, -3.628193, 0
591, 3602950512, -0.5367161, -0.32170704, -0.46948713, 0.6229192, -11.172169, 14.799059, 7.2433414, 0
592, 3602967179, -0.5307471, -0.3501121, -0.43983185, 0.63425773, 8.070895, -0.5448144, 7.133211, 0
595, 3603017180, -0.53278804, -0.33236244, -0.4173665, 0.65687394, -1.6286895, -6.354746, 0.5292578, 0
598, 3603067181, -0.5314381, -0.33860886, -0.4263239, 0.64897734, 0.3203229, -2.3542044, -0.4131832, 0
599, 3603083848, -0.5265755, -0.34821683, -0.43640453, 0.6411088, -1.83907, -2.2279727, -0.51205826, 0
602, 3603133849, -0.5050161, -0.39734334, -0.47667927, 0.5998835, -0.56090933, 0.9217565, 0.19671345, 0
603, 3603150516, -0.49543935, -0.4169879, -0.49017623, 0.58343303, -0.7406761, 0.4573835, 0.07534313, 0
604, 3603167183, -0.4834752, -0.4385134, -0.5036524, 0.56594896, 0.1668989, 0.49285904, 0.24254227, 0
606, 3603200517, -0.45326748, -0.48549825, -0.53111583, 0.5260818, 0.37946197, -2.9486501, 0.088274956, 0
608, 3603233851, -0.40226194, -0.55251944, -0.57057095, 0.45537072, -0.85141045, -6.2947855, 1.8201342, 0
610, 3603267185, -0.32265052, -0.6489435, -0.5873358, 0.36029398, -4.851909, -20.647871, 29.331451, 0
611, 3603283852, -0.3172899, -0.6671059, -0.5719812, 0.35656735, -14.477801, -20.153719, 34.964558, 0
612, 3603300519, -0.30223715, -0.6742112, -0.5689404, 0.36111623, -20.219385, 13.942933, 26.024979, 0
616, 3603367187, -0.1697232, -0.7240623, -0.61074257, 0.27189606, -2.4824574, -26.374039, -1.382267, 0
618, 3603400521, -0.12720272, -0.7404997, -0.6250072, 0.211783, 1.3456428, -24.631002, -13.333677, 0
619, 3603417188, -0.11976242, -0.7476358, -0.62862915, 0.17756473, 1.4566832, -21.364523, -17.21609, 0
622, 3603467189, -0.13011341, -0.7666695, -0.6212696, 0.09653379, 0.029700626, -7.307381, -17.285818, 0
623, 3603483856, -0.13339393, -0.7733703, -0.614385, 0.081495896, -1.887253, -5.4442163, -16.991285, 0
625, 3603517190, -0.1315922, -0.7858077, -0.59943545, 0.07663537, -2.2999709, -3.940844, -17.31681, 0
626, 3603533857, -0.13085487, -0.78911394, -0.5940047, 0.085677624, -2.0462039, -4.0904894, -17.118397, 0
629, 3603583858, -0.15284836, -0.78664935, -0.5785216, 0.15211475, 0.38664633, -6.6965914, -14.303398, 0
630, 3603600525, -0.17218989, -0.7817021, -0.5706212, 0.18354875, -0.82436895, -8.836066, -11.173224, 0
631, 3603617192, -0.19619562, -0.773834, -0.5609386, 0.21918559, -1.6327901, -8.25247, -7.1865892, 0
633, 3603650526, -0.24430586, -0.7508626, -0.536373, 0.29804388, -3.2220051, -6.135759, 0.31964302, 0
635, 3603683860, -0.29097253, -0.7180984, -0.50680745, 0.37791792, 0.36845842, -4.9257803, 5.195902, 0
637, 3603717194, -0.34559157, -0.67893046, -0.47364318, 0.4419142, -0.613687, 0.20479554, 7.496809, 0
638, 3603733861, -0.37133375, -0.6579507, -0.4578253, 0.46863002, -2.8470223, 1.39581, 9.792974, 0
639, 3603750528, -0.3917131, -0.6359317, -0.44383413, 0.49514544, -3.1172686, 3.7942228, 8.519617, 0
642, 3603800529, -0.42213026, -0.5684557, -0.41365895, 0.57232547, 2.323931, 2.4531436, 6.7566566, 0
643, 3603817196, -0.43151745, -0.5446709, -0.4053036, 0.59402144, 4.775193, 1.9702278, 5.2821283, 0
645, 3603850530, -0.4576744, -0.5003123, -0.38684756, 0.6249614, 2.0033655, 2.1324022, 4.812145, 0
646, 3603867197, -0.47003698, -0.47995538, -0.3752187, 0.6386901, 0.27367643, 2.3519287, 3.5259705, 0
650, 3603933865, -0.49628782, -0.3986449, -0.33269477, 0.6957737, -0.12474191, 2.448257, 3.941596, 0
652, 3603967199, -0.5029547, -0.35569555, -0.31732005, 0.7209934, 0.7760352, 3.2567303, 2.7569437, 0
653, 3603983866, -0.5030222, -0.3361152, -0.31192708, 0.7326001, 1.2565897, 3.7150908, 3.1245928, 0
656, 3604033867, -0.50505143, -0.28612944, -0.28923163, 0.7611861, 4.118089, 5.107633, 2.1947231, 0
657, 3604050534, -0.5102507, -0.26926962, -0.28455734, 0.7656184, 3.9385648, 5.259357, 0.5625181, 0
658, 3604067201, -0.5160293, -0.25330997, -0.28299612, 0.76776767, 2.129904, 5.7866163, -0.36209106, 0
660, 3604100535, -0.5222411, -0.23180756, -0.28097576, 0.77109545, -0.4048516, 7.784184, -0.090761185, 0
662, 3604133869, -0.5214745, -0.22183551, -0.26744178, 0.7793167, 1.6593193, 8.170416, -0.18027115, 0
664, 3604167203, -0.5190727, -0.21473159, -0.25433746, 0.7872563, 2.5323312, 5.4521446, -3.417892, 0
665, 3604183870, -0.51768774, -0.21368253, -0.25125042, 0.789442, 2.2497387, 5.4395356, -2.5019464, 0
669, 3604250538, -0.51384866, -0.20630535, -0.2502623, 0.794212, 5.3994837, 6.6044664, -3.5230942, 0
670, 3604267205, -0.5175777, -0.20492062, -0.24959427, 0.7923571, 5.2958145, 6.0294356, -5.5656557, 0
672, 3604300539, -0.5262098, -0.20728257, -0.2561813, 0.78390974, 4.5307617, 7.2203875, -4.6543226, 0
673, 3604317206, -0.5301096, -0.20826387, -0.26389152, 0.77844554, 5.014292, 7.997763, -4.9810376, 0
676, 3604367207, -0.5395798, -0.21265957, -0.300573, 0.75716007, 4.6035185, 12.734053, -6.095602, 0
677, 3604383874, -0.5442182, -0.21727066, -0.31508133, 0.74655867, 4.16588, 13.475594, -6.983157, 0
679, 3604417208, -0.5520314, -0.23259848, -0.35353595, 0.718455, 0.17651907, 17.186432, -5.0406156, 0
680, 3604433875, -0.5530639, -0.24233817, -0.37683415, 0.7024206, -1.0669361, 19.78245, -1.5822058, 0
683, 3604483876, -0.53925645, -0.29958135, -0.4342253, 0.65643597, -15.046293, 28.12883, 5.880437, 0
684, 3604500543, -0.5284851, -0.34530443, -0.40356773, 0.6622746, 19.514002, -3.0753872, 39.55485, 0
687, 3604550544, -0.5292183, -0.34623823, -0.4088121, 0.6579712, 0.72274166, -4.0727916, -0.54203796, 0
689, 3604583878, -0.5170027, -0.3645715, -0.43453887, 0.64107573, 0.38373798, -0.32468632, -0.33505726, 0
691, 3604617212, -0.5048584, -0.3909213, -0.4651682, 0.61312574, -2.0077722, -0.7020621, -0.25262833, 0
692, 3604633879, -0.49533162, -0.4135527, -0.48330384, 0.5916455, -0.40911296, -1.8502605, -0.758337, 0
693, 3604650546, -0.4741058, -0.44925424, -0.5068255, 0.56260836, -0.7058206, -3.1155674, -0.49114323, 0
696, 3604700547, -0.35312116, -0.61216307, -0.57461673, 0.41277587, -1.9130939, -11.163415, 13.530512, 0
697, 3604717214, -0.31145397, -0.6674846, -0.5697331, 0.36451495, -7.031122, -23.943563, 25.882774, 0
699, 3604750548, -0.2758489, -0.7058519, -0.5499083, 0.35112315, -25.800943, 1.3036666, 23.555264, 0
700, 3604767215, -0.24058127, -0.72068346, -0.558286, 0.33325505, -17.173838, -29.301392, 16.145884, 0
703, 3604817216, -0.17916378, -0.74439466, -0.5902287, 0.2557604, -4.7946014, -29.325686, -7.1284666, 0
706, 3604867217, -0.18118703, -0.7529145, -0.6034661, 0.19006795, -0.33005354, -19.843498, -17.540268, 0
707, 3604883884, -0.19762518, -0.75154567, -0.6031926, 0.17968978, -1.5532631, -13.433814, -17.916206, 0
710, 3604933885, -0.2483077, -0.7410212, -0.58914083, 0.20530528, -5.4588995, -8.005625, -14.880049, 0
711, 3604950552, -0.26338676, -0.73391247, -0.58091867, 0.23353772, -5.4983525, -6.484224, -11.990302, 0
712, 3604967219, -0.2808855, -0.72202927, -0.5728172, 0.26770103, -2.6512628, -4.859459, -9.236905, 0
714, 3605000553, -0.3273409, -0.6842053, -0.56333876, 0.32766876, 5.5646896, 1.699107, -5.997273, 0
716, 3605033887, -0.38405228, -0.65078676, -0.5431619, 0.3660082, 10.923406, -1.1335486, 3.3954325, 0
718, 3605067221, -0.42048016, -0.6104459, -0.52645427, 0.41641846, -1.0830108, 7.976134, 0.7467661, 0
719, 3605083888, -0.42654714, -0.5951851, -0.51788366, 0.44228405, 0.73726743, 6.377904, 2.3413029, 0
720, 3605100555, -0.4281152, -0.5789377, -0.5142546, 0.4659367, -2.9047596, 9.204954, 2.2316523, 0
723, 3605150556, -0.40765256, -0.53445107, -0.51590794, 0.53106177, -1.7415184, 6.555828, 2.2806263, 0
724, 3605167223, -0.39587703, -0.52259445, -0.51443833, 0.55275285, 0.95805687, 4.0082407, 0.4883585, 0
726, 3605200557, -0.3729256, -0.500601, -0.5045169, 0.5964848, 2.508333, 3.0343833, -0.8437824, 0
727, 3605217224, -0.364791, -0.4920689, -0.49585515, 0.6155726, 4.0352707, 2.245445, -0.6888733, 0
730, 3605267225, -0.3566383, -0.47957903, -0.4516084, 0.66247207, 2.9059129, 4.2901425, 4.6829596, 0
731, 3605283892, -0.35720068, -0.47353733, -0.4396921, 0.6744237, 3.2729294, 1.483401, 4.2518015, 0
733, 3605317226, -0.35885292, -0.46274367, -0.40707302, 0.7009926, 2.7768638, 5.0610905, 1.564209, 0
734, 3605333893, -0.35631073, -0.46963704, -0.39733052, 0.7032912, 2.8234656, 20.032719, 1.4727345, 0
737, 3605383894, -0.33826944, -0.4677053, -0.40416074, 0.7095674, -4.0639877, -0.65661025, -1.4216194, 0
739, 3605417228, -0.32621402, -0.4568748, -0.4056001, 0.7213492, -0.45502454, -2.7493434, -0.22358799, 0
741, 3605450562, -0.32330006, -0.44732565, -0.40317175, 0.729956, -1.2044353, 0.19157451, 3.7340431, 0
743, 3605483896, -0.3238203, -0.43823057, -0.3962321, 0.73898625, -1.2159426, 0.5843074, 1.2768126, 0
745, 3605517230, -0.32507282, -0.429207, -0.3964876, 0.7435811, -1.0722325, -1.3101594, -1.7551994, 0
746, 3605533897, -0.32434875, -0.4248663, -0.40258944, 0.7431115, 1.419879, -0.24951388, -2.1190796, 0
747, 3605550564, -0.32391575, -0.4191006, -0.41419655, 0.74018973, 1.8562809, 1.2554443, 0.8574858, 0
750, 3605600565, -0.3258242, -0.40282607, -0.4299876, 0.7393826, 0.43301523, 0.43754828, -0.6549101, 0
751, 3605617232, -0.32596922, -0.39796352, -0.43011442, 0.741874, -0.68097246, 0.2693101, -1.1896935, 0
753, 3605650566, -0.32850727, -0.39290613, -0.42374647, 0.7470964, 0.8430582, 1.2736081, -0.20427608, 0
754, 3605667233, -0.3338143, -0.3899095, -0.4247102, 0.74576545, 1.2582476, 1.0587521, -0.21047688, 0
758, 3605733901, -0.372063, -0.3801, -0.4215829, 0.7344162, 0.34321466, -0.04791447, 0.13437843, 0
760, 3605767235, -0.3942216, -0.38159272, -0.41083905, 0.72814417, -5.713388, 0.6719272, -4.5499315, 0
761, 3605783902, -0.4053639, -0.3938826, -0.39551038, 0.7239576, -2.8261678, 0.17745414, -0.9259033, 0
764, 3605833903, -0.43338886, -0.41191366, -0.3743204, 0.70879596, 1.5727427, -0.27282372, 0.3325281, 0
765, 3605850570, -0.4354296, -0.41361815, -0.37159342, 0.707987, 2.2154074, -2.3329794, 0.15287685, 0
766, 3605867237, -0.43475124, -0.41240078, -0.37004125, 0.7099245, 3.092942, -3.4513478, 0.5681772, 0
768, 3605900571, -0.4313685, -0.40395516, -0.37153897, 0.71603537, 0.5995746, 0.5226866, 0.5147133, 0
770, 3605933905, -0.43194136, -0.3957528, -0.37033743, 0.72087663, -1.531197, -0.66251516, -0.94083977, 0
772, 3605967239, -0.43246505, -0.39226508, -0.37075332, 0.722254, 1.0081029, -0.8918878, 0.30491447, 0
773, 3605983906, -0.43291613, -0.38962924, -0.37057352, 0.72350144, 2.247687, -0.8645622, -0.1886406, 0
777, 3606050574, -0.43670717, -0.38080412, -0.36839187, 0.72702754, -1.9839582, -0.65955365, 0.6988287, 0
778, 3606067241, -0.43781635, -0.3791376, -0.36800858, 0.72742534, -0.16595994, -2.1369066, -2.2573376, 0
780, 3606100575, -0.4415961, -0.3767303, -0.36570174, 0.72755474, -0.058612473, -2.3516471, -1.9255242, 0
781, 3606117242, -0.44366106, -0.37605464, -0.3643414, 0.72733045, -0.045697782, -0.20531799, -1.4352779, 0
784, 3606167243, -0.4517878, -0.37032977, -0.3551525, 0.72980607, -0.059948746, -0.16630672, -0.31264973, 0
785, 3606183910, -0.45452985, -0.36875153, -0.35220826, 0.7303293, 1.3011831, 0.8707942, 1.8826065, 0
787, 3606217244, -0.45871618, -0.36586067, -0.34730822, 0.7315114, 0.14130612, -1.3281693, -0.28329372, 0
788, 3606233911, -0.4602792, -0.36445558, -0.34587103, 0.7319117, -0.53522253, -0.048937045, 1.3843851, 0
791, 3606283912, -0.4646591, -0.35499644, -0.33832487, 0.73730046, 0.4639047, -0.9139519, 0.42184353, 0
792, 3606300579, -0.46681994, -0.35066664, -0.3352178, 0.73942375, -0.1953416, -0.8908969, 0.53431225, 0
795, 3606350580, -0.4690347, -0.35429844, -0.33692116, 0.7355064, -0.11702937, -3.369008, 0.6254883, 0
797, 3606383914, -0.47164142, -0.35406384, -0.33875182, 0.73310775, 0.96694666, -2.3530836, -2.759664, 0
799, 3606417248, -0.47629339, -0.3430455, -0.3334948, 0.7377345, -1.1387838, -1.5183322, 2.7374887, 0
800, 3606433915, -0.47746047, -0.34266245, -0.3343554, 0.7367679, -0.2118259, -1.6718062, 1.0000496, 0
801, 3606450582, -0.47792527, -0.3462306, -0.33893898, 0.7326929, 1.3064716, -3.8788908, 2.0140896, 0
804, 3606500583, -0.48817617, -0.35229558, -0.3654557, 0.709944, -0.37209544, 2.1337316, 1.0653315, 0
805, 3606517250, -0.49185273, -0.3487848, -0.36514312, 0.7093004, -0.12619139, 2.7292595, -0.94648075, 0
807, 3606550584, -0.49699783, -0.34132725, -0.36145177, 0.71122986, 1.82889, 0.9517626, -2.4102774, 0
808, 3606567251, -0.49967128, -0.3397165, -0.3592919, 0.7112223, -0.1951827, -3.064254, -1.5172415, 0
811, 3606617252, -0.5090788, -0.32713807, -0.3529389, 0.7136246, 2.8904026, -3.711842, -0.7544451, 0
812, 3606633919, -0.511844, -0.31928435, -0.34994447, 0.71667206, 2.706003, -5.2389855, 0.31397724, 0
814, 3606667253, -0.5146698, -0.31512135, -0.34734407, 0.7177549, -2.7040555, 4.0130987, 4.1623793, 0
815, 3606683920, -0.516567, -0.31447738, -0.34487122, 0.7178669, -3.0433676, 5.474037, 3.4675407, 0
818, 3606733921, -0.52171403, -0.31598318, -0.33784816, 0.7168223, 3.092962, 2.3174431, -0.78333473, 0
819, 3606750588, -0.5230493, -0.31739995, -0.33591047, 0.7161336, 0.79397815, 3.2774942, -1.1007872, 0
820, 3606767255, -0.52373147, -0.31852627, -0.33387843, 0.7160852, -1.1209791, 1.9895773, 0.5980129, 0
822, 3606800589, -0.52470267, -0.32133567, -0.32883075, 0.7164547, -0.34346476, 3.4787738, 2.4663906, 0
824, 3606833923, -0.52458864, -0.32778883, -0.3237404, 0.71593285, -0.26179814, 1.4211371, -0.10354328, 0
826, 3606867257, -0.5211147, -0.33233336, -0.31983152, 0.71812844, -1.6109518, 3.8429244, 0.022533417, 0
828, 3606900591, -0.515362, -0.3329365, -0.31652734, 0.7234447, -1.5717984, 3.8241398, 1.668642, 0
831, 3606950592, -0.5026092, -0.34340042, -0.3195496, 0.72619176, -1.3304747, 0.82557493, 0.19687176, 0
832, 3606967259, -0.49787143, -0.3467137, -0.32064715, 0.7273964, -1.8656889, 0.80220187, -3.8862166, 0
834, 3607000593, -0.48944828, -0.3470739, -0.31980413, 0.7332885, -2.3930652, 1.8910837, 3.104556, 0
835, 3607017260, -0.48603642, -0.34419098, -0.3185105, 0.7374679, -0.9254431, -0.7290754, -1.4892597, 0
838, 3607067261, -0.4762888, -0.341899, -0.31902546, 0.7446364, -0.8506, -1.6502616, -0.68878937, 0
839, 3607083928, -0.47332984, -0.3413353, -0.31978986, 0.7464517, -1.6842508, -1.638615, -0.046873093, 0
841, 3607117262, -0.46740723, -0.33746994, -0.32039082, 0.7516654, 0.11752915, -0.8100876, -0.103717804, 0
842, 3607133929, -0.4650092, -0.333975, -0.32022697, 0.754777, -0.037179817, -0.99154013, 0.775959, 0
845, 3607183930, -0.45901248, -0.32877642, -0.32290703, 0.7595729, 0.9283709, 1.0430473, 2.2683792, 0
847, 3607217264, -0.45704556, -0.32820955, -0.3253254, 0.7599722, 0.11658101, -0.28735754, -1.5871401, 0
849, 3607250598, -0.45581317, -0.3280912, -0.3281039, 0.7595687, 1.0335109, -1.0647604, 0.01626587, 0
851, 3607283932, -0.45598042, -0.32810265, -0.33040288, 0.7584661, 0.18054025, 0.48474964, 0.024962425, 0
853, 3607317266, -0.45748436, -0.3290518, -0.33167014, 0.75659406, 0.59576225, -0.095155835, -1.144805, 0
854, 3607333933, -0.45815337, -0.33012423, -0.3329396, 0.755163, 1.039004, -0.21668687, -0.22136307, 0
855, 3607350600, -0.45855048, -0.33076486, -0.33432958, 0.7540268, 1.8623064, -0.7789226, -0.2536354, 0
858, 3607400601, -0.45890486, -0.3302611, -0.33989063, 0.75154155, 0.30874974, 0.5193377, -0.008903503, 0
859, 3607417268, -0.45955646, -0.33148396, -0.3415657, 0.7498437, -0.09389444, -1.2128732, -1.2599783, 0
861, 3607450602, -0.46147007, -0.33440605, -0.34344566, 0.7465051, 0.034614556, 0.29708245, 0.12322807, 0
862, 3607467269, -0.46241635, -0.33725667, -0.34461892, 0.7440923, 0.4727584, 0.44909096, -2.0630789, 0
866, 3607533937, -0.4675086, -0.34518498, -0.3456781, 0.73674697, 0.20609124, -0.20109059, 1.7764826, 0
868, 3607567271, -0.47130868, -0.3449552, -0.3425028, 0.73591596, -0.94768333, -0.6593633, -1.0311861, 0
869, 3607583938, -0.47239137, -0.34528297, -0.34135965, 0.73559934, 0.71840775, 0.45238888, 1.1005125, 0
872, 3607633939, -0.47578686, -0.34129888, -0.3361037, 0.73768735, -1.71133, -1.9261944, -2.074561, 0
873, 3607650606, -0.4757066, -0.34133255, -0.33562228, 0.7379427, -0.62326723, -1.0810548, 0.0751524, 0
874, 3607667273, -0.47588354, -0.34109092, -0.33469617, 0.73836094, -0.805534, -0.67426586, 0.20595646, 0
876, 3607700607, -0.47617146, -0.34042534, -0.333143, 0.73918456, -0.55242145, 0.2229458, 1.6522541, 0
878, 3607733941, -0.47599766, -0.34053555, -0.33165863, 0.73991275, -0.47081026, -0.8311479, -0.536767, 0
880, 3607767275, -0.47568297, -0.3413231, -0.33059934, 0.7402262, -0.1869915, -0.4474201, -1.0668373, 0
881, 3607783942, -0.47533768, -0.34177563, -0.3302915, 0.74037653, -0.3572879, -1.2242188, -1.2807035, 0
885, 3607850610, -0.47605768, -0.3421867, -0.32779244, 0.74083465, 0.33027682, -0.8985926, 1.2735682, 0
886, 3607867277, -0.4760624, -0.34355313, -0.32774308, 0.74022084, -0.2403456, -2.3337944, -1.3464413, 0
888, 3607900611, -0.4751137, -0.3479397, -0.3293271, 0.73807526, -0.071643054, -1.2201419, 1.1384602, 0
889, 3607917278, -0.47424364, -0.35162744, -0.33114374, 0.7360716, -1.865042, -1.8798003, 0.95485497, 0
892, 3607967279, -0.4703117, -0.38049257, -0.34675464, 0.7167986, 0.59684265, -4.794268, -1.7578802, 0
893, 3607983946, -0.46923155, -0.3856527, -0.35036436, 0.7129834, 0.8645984, -2.5858104, -1.0642042, 0
895, 3608017280, -0.4712499, -0.37801793, -0.34855732, 0.7166171, -2.8113508, -3.131808, 0.87129974, 0
896, 3608033947, -0.47350195, -0.37576765, -0.3470947, 0.7170261, -1.1837326, -1.94294, 0.9642515, 0
899, 3608083948, -0.47512558, -0.38641152, -0.35618836, 0.70574665, 1.1597115, -4.3877487, -4.010654, 0
900, 3608100615, -0.476355, -0.38748068, -0.35865897, 0.70307535, 1.9233451, -0.5857263, -1.8292832, 0
901, 3608117282, -0.4795569, -0.38076353, -0.35531935, 0.706257, -0.15248658, 1.8970251, 4.2547827, 0
903, 3608150616, -0.4889216, -0.3667191, -0.34506127, 0.71232843, 0.9802373, 3.091535, 0.07431793, 0
905, 3608183950, -0.49570224, -0.35783172, -0.3373907, 0.71582806, 3.429004, 2.5348556, -2.0404458, 0
907, 3608217284, -0.4997371, -0.339052, -0.3271644, 0.72682613, 0.8610399, -2.097386, -0.52455616, 0
908, 3608233951, -0.5005777, -0.32878944, -0.32224172, 0.7331346, -0.48033425, -2.635947, 0.023819923, 0
909, 3608250618, -0.49992692, -0.323222, -0.32085508, 0.7366541, -2.9902372, 0.98790824, 4.0185156, 0
912, 3608300619, -0.4962662, -0.3211337, -0.31857258, 0.74102026, -0.4181229, 5.1599894, 3.0148535, 0
913, 3608317286, -0.49539873, -0.32204568, -0.31700605, 0.74187636, 1.5219836, 5.968876, 0.63020515, 0
915, 3608350620, -0.49135178, -0.32498845, -0.3150975, 0.7440941, 1.1269408, 2.477433, -2.4075813, 0
919, 3608417288, -0.48454168, -0.32899988, -0.31209874, 0.74805033, 0.14562897, 1.911877, 0.44387245, 0
920, 3608433955, -0.48344263, -0.33133832, -0.3114075, 0.7480175, -0.049026, 1.351197, -1.1081038, 0
922, 3608467289, -0.4822712, -0.33191437, -0.30680734, 0.75041515, -0.89150167, 0.9547852, -0.28389645, 0
923, 3608483956, -0.4816307, -0.33205935, -0.30452043, 0.75169283, 0.3919788, 1.2418894, -3.1745381, 0
926, 3608533957, -0.4800755, -0.3299516, -0.29754257, 0.7563957, 0.55486476, 2.5259883, -0.10579109, 0
927, 3608550624, -0.4784519, -0.3324112, -0.29739842, 0.75640416, 0.3265122, 1.0016077, -0.69538593, 0
928, 3608567291, -0.47672933, -0.33478627, -0.29743192, 0.7564312, -0.16113786, 3.0134327, 0.1946125, 0
930, 3608600625, -0.4711394, -0.33789328, -0.2978283, 0.7583934, -0.7629909, 1.2743766, -2.991034, 0
932, 3608633959, -0.46367157, -0.33997568, -0.29941168, 0.7614356, -2.3676598, -0.8088956, -1.1287117, 0
934, 3608667293, -0.45574558, -0.3447336, -0.30255055, 0.7628396, -2.0771167, -0.95029694, -1.01159, 0
936, 3608700627, -0.44966438, -0.34422508, -0.30186033, 0.7669407, -1.0711265, 1.4162912, 0.9296799, 0
939, 3608750628, -0.44387305, -0.3368685, -0.29778376, 0.7751307, -0.39614666, -0.62344456, 1.4801407, 0
940, 3608767295, -0.44164243, -0.33437738, -0.2976718, 0.77752286, -0.7959578, -2.2128232, -1.085845, 0
942, 3608800629, -0.43817005, -0.33572108, -0.29836404, 0.7786423, 0.41544867, 0.48472083, 0.75024605, 0
943, 3608817296, -0.4369968, -0.33683035, -0.2986905, 0.77869743, 0.20073777, 1.4946961, -0.763978, 0
946, 3608867297, -0.43395674, -0.33924952, -0.29979727, 0.77892214, 1.2754557, -0.055545762, 0.102602005, 0
947, 3608883964, -0.43259123, -0.3391027, -0.300678, 0.7794059, 0.6324916, -0.5579688, 0.3058071, 0
949, 3608917298, -0.43029967, -0.33989382, -0.30287513, 0.779479, -0.25753734, -0.23430908, -0.5760584, 0
950, 3608933965, -0.42977408, -0.34046465, -0.30363896, 0.7792226, -0.4310559, 1.1087472, 0.55344105, 0
953, 3608983966, -0.42844623, -0.34448868, -0.30761573, 0.77662116, 0.7861236, -0.5371407, -0.026706696, 0
955, 3609017300, -0.4272739, -0.3475687, -0.3108835, 0.7745908, -0.1995498, 0.6326742, 0.63333035, 0
957, 3609050634, -0.4281605, -0.34630474, -0.31070405, 0.77473927, -0.5041691, 0.14680107, -0.51303387, 0
959, 3609083968, -0.42939407, -0.3439951, -0.308741, 0.7758694, 1.553562, -0.043508362, -0.49063396, 0
961, 3609117302, -0.4302372, -0.3404315, -0.30710885, 0.7776199, -0.5309937, -0.52766806, 0.640502, 0
962, 3609133969, -0.43030894, -0.33956417, -0.30680615, 0.77807903, -1.3142055, -1.338434, -2.4830523, 0
963, 3609150636, -0.43020442, -0.3397152, -0.30689597, 0.7780353, -0.520831, 0.28650036, 0.55861855, 0
966, 3609200637, -0.43154594, -0.33907822, -0.3049262, 0.77834487, 0.8866663, 1.0427291, 0.5195627, 0
967, 3609217304, -0.43162104, -0.33949885, -0.30461833, 0.7782403, 1.0334784, 0.9475968, 0.0941906, 0
969, 3609250638, -0.43139458, -0.34229887, -0.30515492, 0.7769282, -0.23652175, 0.6139557, 0.5543413, 0
970, 3609267305, -0.43132055, -0.34297818, -0.3047036, 0.77684665, -0.19839357, 1.345665, 0.40306377, 0
974, 3609333973, -0.4286807, -0.34967518, -0.30707687, 0.7743839, 0.99433607, 1.9371948, 1.5034304, 0
976, 3609367307, -0.4262601, -0.35198805, -0.3082813, 0.7741936, -0.054380704, 0.99053586, -0.7659664, 0
977, 3609383974, -0.42551732, -0.3512795, -0.3084551, 0.7748547, -0.79211, 0.569055, 2.6267757, 0
980, 3609433975, -0.42294756, -0.34798118, -0.30957082, 0.7773011, 0.33750054, -0.43329674, 0.5509796, 0
981, 3609450642, -0.42207167, -0.34842855, -0.31030056, 0.77728575, 0.1182122, 0.13449289, -1.5211306, 0
982, 3609467309, -0.42107922, -0.34970477, -0.31119972, 0.7768912, 0.20867516, 1.5116465, 0.20228004, 0
984, 3609500643, -0.42079955, -0.35078928, -0.31145385, 0.7764519, -0.3816184, 0.029533213, 2.202012, 0
986, 3609533977, -0.41905385, -0.3565668, -0.31580958, 0.77299726, -0.8930399, -5.0680337, -1.4930935, 0
988, 3609567311, -0.41325423, -0.36557877, -0.3258783, 0.7677128, 1.2633184, -1.0204114, 0.768548, 0
989, 3609583978, -0.41146597, -0.36764407, -0.32989192, 0.76597095, -1.0230942, 0.66422373, 3.6047792, 0
990, 3609600645, -0.41013426, -0.3707344, -0.33373868, 0.76352537, -2.6241617, 0.2518165, 1.7401123, 0
993, 3609650646, -0.40592372, -0.39488506, -0.34794566, 0.7471492, 0.3263678, -4.457823, -3.151435, 0
994, 3609667313, -0.40589753, -0.39484617, -0.34887072, 0.7467526, -1.3363277, -4.3242764, 0.23813438, 0
996, 3609700647, -0.4083129, -0.39276287, -0.3490737, 0.74643946, -0.40366173, -0.6106557, 5.429722, 0
997, 3609717314, -0.41042876, -0.3938242, -0.3501689, 0.74420345, -1.1421337, -3.8503509, 4.2152653, 0
1000, 3609767315, -0.41258305, -0.4095223, -0.3657359, 0.72684973, 0.27787042, -5.1108785, -6.345023, 0
1001, 3609783982, -0.4143649, -0.4069112, -0.36725593, 0.726536, -0.22961704, 0.53181684, -5.7868633, 0
1003, 3609817316, -0.42662686, -0.39009532, -0.35133356, 0.736469, 0.015883278, 6.9496956, 4.5337114, 0
1004, 3609833983, -0.43502024, -0.3756979, -0.33695444, 0.7457054, -2.7748084, 2.7832096, 2.944316, 0
1008, 3609900651, -0.43183485, -0.35969418, -0.33289045, 0.7571849, -0.85915494, 3.822371, 1.2823639, 0
1009, 3609917318, -0.42839575, -0.35637364, -0.3322679, 0.7609726, -7.9778175, 5.2655225, 10.563, 0
1011, 3609950652, -0.42582357, -0.35594115, -0.32991436, 0.7636382, 0.9003613, 5.0260754, -3.2544227, 0
1013, 3609983986, -0.42124957, -0.35738748, -0.32930154, 0.76576096, 4.8335876, -1.607856, -2.0361886, 0
1015, 3610017320, -0.413339, -0.35566306, -0.32922474, 0.77089053, -1.0344998, 2.908303, 3.8477345, 0
1016, 3610033987, -0.41168666, -0.3484829, -0.32519144, 0.77674365, -3.3621454, 2.2976935, 4.828493, 0
1017, 3610050654, -0.409745, -0.3460827, -0.32470024, 0.77904564, -0.6669133, 0.3096248, -5.0435395, 0
1020, 3610100655, -0.4084126, -0.34162647, -0.3227079, 0.78253216, 1.0441232, 1.1740873, -3.3366942, 0
1021, 3610117322, -0.40961704, -0.3400389, -0.32128283, 0.7831802, 1.7520189, 4.422183, 3.3563366, 0
1023, 3610150656, -0.4153964, -0.33485615, -0.31548363, 0.7847253, 2.1119502, -0.26350343, -0.8800659, 0
1027, 3610217324, -0.4241701, -0.34039876, -0.31424233, 0.77811736, 1.48182, 5.792621, 3.7318106, 0
1028, 3610233991, -0.4281435, -0.337803, -0.3092757, 0.7790618, 1.997224, 8.993859, 4.3351345, 0
1030, 3610267325, -0.4363773, -0.3328675, -0.29716298, 0.78132874, 0.5177346, -0.9112093, -3.313356, 0
1031, 3610283992, -0.43874624, -0.33324736, -0.29431367, 0.7809186, 0.86859417, -2.8349319, -0.027338028, 0
1034, 3610333993, -0.44182715, -0.33685595, -0.28815916, 0.77992797, -1.1946229, 3.564986, 3.0040255, 0
1035, 3610350660, -0.44288477, -0.33644357, -0.28439948, 0.7808856, -1.7377039, 2.6967013, 1.5914288, 0
1036, 3610367327, -0.4436662, -0.3365347, -0.28107712, 0.78160524, -0.36373058, 1.5878248, 0.030219078, 0
1038, 3610400661, -0.44462925, -0.33789733, -0.2747541, 0.78271747, 0.0589673, -0.34350958, -1.0013113, 0
1040, 3610433995, -0.44286358, -0.34247363, -0.27465189, 0.781765, -1.2396301, -1.0991012, 0.0926075, 0
1042, 3610467329, -0.43916607, -0.34995487, -0.27598405, 0.78006667, -0.45290554, 1.6436929, -0.15244293, 0
1044, 3610500663, -0.43470642, -0.35802662, -0.27744243, 0.7783825, -1.001269, 1.0988177, 0.17807484, 0
1047, 3610550664, -0.42644012, -0.36915055, -0.27912277, 0.77715725, 0.03502705, 1.1850911, -1.9493365, 0
1048, 3610567331, -0.42204309, -0.37371993, -0.28184927, 0.7763894, 1.5565192, 2.6353877, 0.27386665, 0
1050, 3610600665, -0.4147861, -0.37876144, -0.28530404, 0.7765953, -1.1957774, -3.9482026, -3.5475454, 0
1051, 3610617332, -0.4108165, -0.3852845, -0.28856343, 0.7742889, -1.0265793, 2.3581104, -0.7779856, 0
1054, 3610667333, -0.40079406, -0.395926, -0.29283604, 0.7725673, 0.39022267, -1.4184002, -1.3867626, 0
1055, 3610684000, -0.39824638, -0.3987125, -0.29365683, 0.7721401, 1.2665651, 1.1344022, 0.32171535, 0
1057, 3610717334, -0.39384317, -0.403863, -0.29321817, 0.7718885, 0.26027983, 3.6725767, 0.61851215, 0
1058, 3610734001, -0.3926377, -0.40648383, -0.2925299, 0.7713878, -0.95333314, 2.7494686, 0.82269955, 0
1061, 3610784002, -0.38646856, -0.41994777, -0.29422975, 0.76662976, 0.93094355, 0.18198358, -0.090084076, 0
1063, 3610817336, -0.37965792, -0.42787445, -0.29699087, 0.7645822, -0.084521316, 2.4550114, 0.80938435, 0
1065, 3610850670, -0.3693467, -0.43384877, -0.30244845, 0.7641267, 1.0051397, 1.0719209, -0.3507862, 0
1067, 3610884004, -0.35792637, -0.44191206, -0.30986825, 0.761965, 0.2954317, 2.245609, -0.08246994, 0
1069, 3610917338, -0.3448243, -0.45140702, -0.31679642, 0.75958836, 0.81629926, 1.7586989, -0.33390045, 0
1070, 3610934005, -0.3385392, -0.45623463, -0.32031906, 0.75805235, 1.403088, 2.0166929, 0.46214485, 0
1071, 3610950672, -0.33216, -0.46075577, -0.32423168, 0.75647473, 0.5514125, 1.5743409, -0.744586, 0
1074, 3611000673, -0.30611455, -0.48145896, -0.33968696, 0.7477368, 1.2000481, -0.37665352, -0.7374182, 0
1075, 3611017340, -0.29302076, -0.4918411, -0.3441317, 0.7441848, 0.58974797, 1.0650265, 0.8508501, 0
1077, 3611050674, -0.2500027, -0.5230606, -0.33618146, 0.7422227, 1.8724939, 0.8671639, 2.7888918, 0
1078, 3611067341, -0.22120878, -0.5401986, -0.3253316, 0.7439205, 2.4428139, -0.68781734, 1.9269819, 0
1081, 3611117342, -0.12549868, -0.5834131, -0.28532067, 0.74998516, 7.971527, -8.640411, 4.764103, 0
1082, 3611134009, -0.108553156, -0.58581483, -0.2894967, 0.7491564, 8.687382, -5.018226, 2.2953157, 0
1084, 3611167343, -0.123221785, -0.59879315, -0.29236525, 0.73538566, 8.374834, -7.7870607, 0.04240322, 0
1085, 3611184010, -0.14860882, -0.61010486, -0.28549278, 0.7240082, 1.4986916, -4.244297, 2.731309, 0
1088, 3611234011, -0.21717003, -0.6453049, -0.26096177, 0.6843421, -7.9008136, -3.3139486, -6.0455356, 0
1089, 3611250678, -0.23411871, -0.6517285, -0.25702894, 0.67407787, -8.932318, -4.635774, -7.0751753, 0
1090, 3611267345, -0.25045696, -0.65228796, -0.25631267, 0.66790867, -9.380325, -6.7246566, -4.397465, 0
1092, 3611300679, -0.28282425, -0.637793, -0.25480217, 0.6695616, -8.275874, -4.2091193, -4.5995893, 0
1094, 3611334013, -0.30868995, -0.61079144, -0.25171873, 0.6843161, -5.7636333, -4.115797, -1.6522913, 0
1097, 3611384014, -0.34927654, -0.546658, -0.2562396, 0.7166021, -0.8137484, -1.1418687, 2.6832066, 0
1098, 3611400681, -0.36269218, -0.5206236, -0.26031497, 0.7277691, -0.1790568, 0.36383885, 2.9580688, 0
1101, 3611450682, -0.38027805, -0.44842067, -0.26951423, 0.7626768, 1.254515, 2.8425915, 1.6654015, 0
1102, 3611467349, -0.37945172, -0.42821905, -0.27252176, 0.77355236, 2.3609598, 3.0370972, 1.8790483, 0
1104, 3611500683, -0.3781867, -0.3883695, -0.28312528, 0.79119563, 5.473149, 4.986018, 2.1120062, 0
1105, 3611517350, -0.37813953, -0.37039733, -0.28839064, 0.7979058, 4.917614, 6.284452, 1.1673193, 0
1108, 3611567351, -0.3722011, -0.3289487, -0.2946147, 0.8163747, 6.089715, 8.617188, 2.2025242, 0
1109, 3611584018, -0.37263834, -0.31113312, -0.29891893, 0.82157826, 7.6787553, 8.982513, -0.35257053, 0
1111, 3611617352, -0.38260987, -0.27268252, -0.31227893, 0.8256768, 7.5545893, 12.012815, -5.2531767, 0
1112, 3611634019, -0.38961318, -0.2596333, -0.31804472, 0.8244066, 7.965655, 12.505929, -11.331145, 0
1116, 3611700687, -0.40972075, -0.27548033, -0.36211145, 0.790646, 9.670837, 33.835033, 5.5316076, 0
1119, 3611750688, -0.46088973, -0.30862066, -0.32172853, 0.7673533, 2.2609525, -23.232357, 1.507535, 0
1121, 3611784022, -0.45565414, -0.33852103, -0.34162998, 0.7490515, 1.827412, -1.4791532, -0.072963715, 0
1123, 3611817356, -0.4445262, -0.37244874, -0.36533952, 0.7281565, -3.2989461, 0.0952078, -0.43861485, 0
1124, 3611834023, -0.43814507, -0.3963242, -0.37615153, 0.71377337, -1.2487006, -1.3528478, -0.1751213, 0
1125, 3611850690, -0.4282284, -0.42514646, -0.38811123, 0.69659674, 0.64308614, -0.95476365, -0.3199749, 0
1129, 3611917358, -0.38746312, -0.4953162, -0.42156944, 0.6533147, -1.1134791, 2.846011, 1.0419197, 0
1131, 3611950692, -0.37970352, -0.52121115, -0.4303041, 0.6316717, -2.9815233, -6.6145344, -0.14671516, 0
1132, 3611967359, -0.3650656, -0.55916435, -0.4449743, 0.59671324, -4.19499, -8.236952, -0.12561989, 0
1135, 3612017360, -0.27869612, -0.7201706, -0.47741884, 0.4192383, -6.9607916, -9.364823, 25.85661, 0
1139, 3612084028, -0.21072014, -0.80573756, -0.44634065, 0.327369, -15.040093, -16.6619, 8.511396, 0
1142, 3612134029, -0.16822523, -0.838099, -0.46264875, 0.23505965, -8.93587, -23.305567, -6.460889, 0
1143, 3612150696, -0.15675104, -0.84413826, -0.4697607, 0.20540462, -7.3004484, -20.861654, -12.445777, 0
1144, 3612167363, -0.14322492, -0.8502159, -0.47351176, 0.18003504, -7.102079, -19.253506, -16.632118, 0
1146, 3612200697, -0.1293943, -0.8571627, -0.4743502, 0.15338646, -3.4315653, -15.770359, -19.336712, 0
1148, 3612234031, -0.14768657, -0.85952866, -0.46047506, 0.16543396, -4.190572, -10.677576, -16.961954, 0
1150, 3612267365, -0.17128761, -0.8586468, -0.43391424, 0.21239452, -5.810043, -3.5362651, -13.495275, 0
1151, 3612284032, -0.17898628, -0.85475546, -0.42198163, 0.24350533, -3.999367, -3.2717335, -11.550619, 0
1152, 3612300699, -0.1886994, -0.84559524, -0.416086, 0.27611607, -4.4143887, -6.420037, -8.914586, 0
1155, 3612350700, -0.23282307, -0.792765, -0.4040298, 0.39253438, 0.9777819, -0.64523494, 2.0888538, 0
1158, 3612400701, -0.29027045, -0.72920555, -0.38433877, 0.48609936, 2.828863, 1.8745142, 4.669427, 0
1159, 3612417368, -0.30756104, -0.707243, -0.37610868, 0.51357806, 0.8349454, 3.1287253, 5.7815437, 0
1162, 3612467369, -0.33853033, -0.6368825, -0.35729334, 0.59340197, 6.49986, 6.436675, 3.7630568, 0
1163, 3612484036, -0.3466537, -0.6152644, -0.35407132, 0.6131239, 7.704851, 5.3062725, 1.6931667, 0
1165, 3612517370, -0.37029356, -0.5761137, -0.34483168, 0.6419292, 3.552671, 3.3797736, 2.1550179, 0
1166, 3612534037, -0.37865928, -0.5582988, -0.33619767, 0.657189, 0.21334104, 5.6279616, 1.2129221, 0
1169, 3612584038, -0.372649, -0.5105387, -0.31033903, 0.71005577, 2.182987, 2.3093827, -0.076376915, 0
1170, 3612600705, -0.3690049, -0.49388486, -0.30652633, 0.72523195, 1.8701817, 1.1617705, 0.30682182, 0
1171, 3612617372, -0.366053, -0.47784784, -0.30281398, 0.7389027, 0.985613, 0.45491347, 3.2889595, 0
1173, 3612650706, -0.3629425, -0.44440517, -0.28852117, 0.7665108, 1.3507704, 0.53595275, 4.6729107, 0
1175, 3612684040, -0.36263826, -0.41081738, -0.27261487, 0.7908289, 1.8361421, 1.3478234, 3.005766, 0
1177, 3612717374, -0.36181444, -0.3816405, -0.25939003, 0.81003964, 1.1787974, 2.7171788, 0.8388214, 0
1178, 3612734041, -0.3620186, -0.3704572, -0.25295705, 0.81714344, 1.4853308, 3.0865521, 2.254384, 0
1179, 3612750708, -0.36311796, -0.35935175, -0.24574862, 0.82378757, 2.0086534, 3.576011, 3.2796612, 0
1182, 3612800709, -0.36556095, -0.31953683, -0.23352109, 0.8424583, 4.4355187, 5.7215924, 0.69893265, 0
1183, 3612817376, -0.36395168, -0.30793858, -0.23279054, 0.84766036, 4.929717, 6.095518, -0.32620525, 0
1185, 3612850710, -0.35916436, -0.29134613, -0.23248036, 0.85561556, 5.6112695, 5.545637, -1.7809362, 0
1186, 3612867377, -0.35784155, -0.2850277, -0.23331134, 0.8580681, 6.021836, 5.7886357, -1.5550852, 0
1189, 3612917378, -0.3644986, -0.26475242, -0.23797137, 0.8604785, 6.4616065, 6.7573047, -4.279828, 0
1192, 3612967379, -0.37268582, -0.26032028, -0.24734956, 0.85566545, 5.114305, 8.577203, -6.168489, 0
1193, 3612984046, -0.372523, -0.2637277, -0.25273094, 0.85311663, 4.542468, 9.412999, -5.8260403, 0
1196, 3613034047, -0.36285323, -0.2819108, -0.2728261, 0.8452434, 5.654387, 9.877835, -4.437461, 0
1197, 3613050714, -0.3612629, -0.29082483, -0.27651203, 0.8416994, 6.6355433, 9.692269, -4.3847284, 0
1198, 3613067381, -0.362028, -0.30087608, -0.28038412, 0.8365409, 7.897333, 10.005251, -4.8861537, 0
1200, 3613100715, -0.36335075, -0.32683155, -0.29944226, 0.81944996, 4.8308744, 13.484408, -5.630932, 0
1202, 3613134049, -0.34679312, -0.36636725, -0.32628646, 0.7994082, 5.542653, 13.688305, -1.7387571, 0
1204, 3613167383, -0.3300267, -0.41053116, -0.35423312, 0.77270436, 8.3253355, 14.473221, 0.4850216, 0
1205, 3613184050, -0.3233892, -0.43634486, -0.364724, 0.7563106, 1.2711003, 17.218401, 18.856892, 0
1206, 3613200717, -0.3224065, -0.45989, -0.3357855, 0.756181, 15.282151, 0.8117716, -3.5706992, 0
1210, 3613267385, -0.32726222, -0.4663294, -0.29882067, 0.76560384, -1.3822625, -2.0870557, 1.3844509, 0
1212, 3613300719, -0.32895777, -0.4704998, -0.2974484, 0.76285493, -1.7801955, -4.1476173, -0.8274927, 0
1213, 3613317386, -0.32654515, -0.48585033, -0.303653, 0.7517441, -0.8575077, -2.0048618, -0.85279846, 0
1216, 3613367387, -0.31261566, -0.54687005, -0.33648965, 0.69999003, 0.3352083, 0.06802684, 0.3410988, 0
1217, 3613384054, -0.30551466, -0.56906027, -0.34827197, 0.6793707, -0.81489223, -1.3554777, 0.4955263, 0
1219, 3613417388, -0.28439078, -0.62177813, -0.36894706, 0.62960213, -1.4223156, -2.7097976, 0.3046589, 0
1220, 3613434055, -0.2653791, -0.6627147, -0.37553015, 0.5910727, -1.6042513, 0.12439904, 0.22777653, 0
1223, 3613484056, -0.17330474, -0.79906434, -0.377663, 0.43455598, -22.772762, -22.629314, 41.184525, 0
1224, 3613500723, -0.17447321, -0.78965014, -0.37289923, 0.45493355, -14.257528, 12.054446, 28.54134, 0
1225, 3613517390, -0.14742719, -0.8129748, -0.37132478, 0.4236292, -10.97517, 13.645615, 29.290878, 0
1229, 3613584058, -0.037195556, -0.8756401, -0.40122053, 0.26626995, -14.707866, -34.042965, -10.461961, 0
1231, 3613617392, -0.039627746, -0.88984966, -0.4127264, 0.19042246, -11.404872, -20.710358, -23.266258, 0
1232, 3613634059, -0.040240403, -0.89716625, -0.40714598, 0.16647042, -9.989876, -12.351512, -23.577465, 0
1233, 3613650726, -0.037983004, -0.90347403, -0.3986525, 0.15288892, -7.3896003, -8.927163, -23.206684, 0
1236, 3613700727, -0.040340327, -0.912805, -0.36911625, 0.1700576, -5.2420754, -3.5114725, -20.419998, 0
1237, 3613717394, -0.045679003, -0.9125669, -0.3569674, 0.19420543, -5.869007, -4.1042395, -19.091915, 0
1239, 3613750728, -0.074567735, -0.899424, -0.33324292, 0.27282208, -8.028391, -6.0354605, -12.47724, 0
1240, 3613767395, -0.09818513, -0.8843852, -0.3228581, 0.32247782, -8.132965, -7.8150215, -7.88986, 0
1243, 3613817396, -0.17828032, -0.80211323, -0.30314696, 0.4826376, -2.5135686, -1.4388647, 7.538656, 0
1244, 3613834063, -0.19724226, -0.7699167, -0.2953135, 0.53020775, 2.539348, -2.9244416, 7.6502533, 0
1247, 3613884064, -0.28018257, -0.6573265, -0.27633122, 0.6427031, 5.421345, 4.419934, 14.303165, 0
1250, 3613934065, -0.31841037, -0.55459577, -0.25636795, 0.7247899, 9.018763, 8.81801, 5.724128, 0
1251, 3613950732, -0.32086042, -0.5287713, -0.2542422, 0.7435166, 10.416991, 4.961629, 5.60423, 0
1252, 3613967399, -0.32564643, -0.5032115, -0.25332364, 0.75931966, 9.050504, 6.433199, 6.419918, 0
1254, 3614000733, -0.3387484, -0.45474458, -0.24857134, 0.78528696, 9.3194065, 5.981261, 0.49744797, 0
1256, 3614034067, -0.34965292, -0.41339266, -0.25307372, 0.8017539, 6.415658, 4.2902417, -2.7624464, 0
1258, 3614067401, -0.3510453, -0.38653758, -0.25431836, 0.8140544, 4.0301623, 4.7608776, 2.831088, 0
1259, 3614084068, -0.3522196, -0.37408298, -0.24766375, 0.8213845, 4.884877, 4.2138767, 4.529276, 0
1260, 3614100735, -0.3556346, -0.3585168, -0.24159357, 0.82863075, 6.2115726, 2.8092027, 1.690897, 0
1263, 3614150736, -0.35880804, -0.3224283, -0.24167365, 0.8419603, 2.979109, 5.149352, -1.228982, 0
1264, 3614167403, -0.35389715, -0.31841153, -0.24040945, 0.84592015, 4.083031, 5.280407, -0.2926159, 0
1266, 3614200737, -0.345522, -0.30615956, -0.2355393, 0.8552244, 7.5545573, 5.3399105, 3.3337975, 0
1267, 3614217404, -0.34654927, -0.29300228, -0.23029386, 0.8608278, 7.5717783, 3.3571708, -1.2545395, 0
1270, 3614267405, -0.36651376, -0.26309216, -0.22739366, 0.8629882, 6.7843494, 7.1044726, -3.771823, 0
1271, 3614284072, -0.37380716, -0.2552695, -0.23147477, 0.86112225, 6.7358413, 8.794691, -4.982968, 0
1273, 3614317406, -0.38733706, -0.24357067, -0.24753605, 0.8540349, 7.1302633, 11.56817, -7.4915314, 0
1274, 3614334073, -0.3924271, -0.24170142, -0.2597506, 0.8485974, 6.4085894, 12.516831, -8.628931, 0
1277, 3614384074, -0.40669608, -0.26148874, -0.29914746, 0.8226417, 9.034149, 13.995825, -3.89819, 0
1278, 3614400741, -0.41501945, -0.26758352, -0.3203175, 0.80843115, 7.9863086, 17.521631, -3.7584138, 0
1283, 3614484076, -0.45476052, -0.3115801, -0.2912794, 0.78183985, -3.7379296, 0.0047720014, 2.2552366, 0
1285, 3614517410, -0.45642474, -0.31023538, -0.2903723, 0.78174233, 1.4684633, -0.9983853, 0.5388117, 0
1286, 3614534077, -0.4543198, -0.3145725, -0.29581, 0.7791922, -1.2130109, -0.7916488, -0.38547993, 0
1287, 3614550744, -0.45176372, -0.32455984, -0.3039086, 0.77344453, -0.80197084, -1.8074114, -0.115468025, 0
1290, 3614600745, -0.4387384, -0.3758244, -0.33543286, 0.7441479, -0.5379915, 0.7754751, -0.22823048, 0
1291, 3614617412, -0.43612236, -0.39182705, -0.34501034, 0.7329686, 1.3020976, 0.50451726, -0.10923004, 0
1293, 3614650746, -0.4291863, -0.42264646, -0.36987746, 0.7073659, -1.1167207, -1.4897162, -0.22430229, 0
1294, 3614667413, -0.42520183, -0.4444954, -0.38327006, 0.68901217, -1.0702761, -1.2761867, -0.6795063, 0
1297, 3614717414, -0.36826348, -0.58554727, -0.40866494, 0.59541243, -5.0692177, -2.3427005, 2.0952435, 0
1298, 3614734081, -0.33083403, -0.6755239, -0.38244, 0.5366213, -9.328135, -11.934253, 17.311075, 0
1301, 3614784082, -0.34004182, -0.7560646, -0.34336168, 0.44141495, -19.075611, 30.918386, 18.824587, 0
1305, 3614850750, -0.18914935, -0.8552755, -0.3773068, 0.30062032, -15.984013, -32.78345, -0.19456291, 0
1306, 3614867417, -0.17143534, -0.8696279, -0.3808214, 0.26332235, -14.072741, -30.22503, -7.7920437, 0
1308, 3614900751, -0.16455382, -0.8894258, -0.37382886, 0.20518847, -9.992318, -20.90209, -19.760746, 0
1310, 3614934085, -0.1740988, -0.89764977, -0.36315608, 0.17899348, -6.237933, -5.9121466, -24.48673, 0
1312, 3614967419, -0.17378555, -0.8959899, -0.35458243, 0.20317097, -7.253667, -1.1305325, -21.469444, 0
1313, 3614984086, -0.1665411, -0.8918328, -0.35020977, 0.23293331, -5.9818654, 2.152319, -18.503708, 0
1314, 3615000753, -0.15939337, -0.8845866, -0.34506935, 0.27024788, -2.8020756, -0.0907989, -15.481269, 0
1317, 3615050754, -0.1819956, -0.8296614, -0.34685898, 0.39778733, 5.716662, 2.648171, -1.8330588, 0
1318, 3615067421, -0.19487208, -0.80367976, -0.35919744, 0.432559, 13.044136, 1.6578524, 1.0739164, 0
1321, 3615117422, -0.24140505, -0.7429562, -0.36765867, 0.50455254, 2.8257842, 3.0317516, 1.5292711, 0
1324, 3615167423, -0.23032983, -0.68662715, -0.35779157, 0.5894769, 6.5548897, 4.022747, 1.7895517, 0
1325, 3615184090, -0.22152773, -0.66664714, -0.36456814, 0.6112311, 6.221426, 5.0812826, 3.624856, 0
1327, 3615217424, -0.20255026, -0.6418506, -0.365144, 0.64317757, 4.604317, 3.7338068, 3.733427, 0
1328, 3615234091, -0.18793795, -0.62844074, -0.36488885, 0.6607602, -0.20955072, 3.3899646, 7.367714, 0
1331, 3615284092, -0.14694203, -0.58254325, -0.36192048, 0.7127914, 6.7707, -3.643867, 1.9118233, 0
1332, 3615300759, -0.15007332, -0.565878, -0.35997224, 0.72642034, 5.900225, -2.1842859, 1.2523966, 0
1333, 3615317426, -0.1584999, -0.5365292, -0.3424444, 0.7548194, 10.866995, 7.6338506, 7.798031, 0
1335, 3615350760, -0.17161229, -0.49695823, -0.32903, 0.7844282, 7.3577666, 8.235368, 6.798523, 0
1337, 3615384094, -0.18083285, -0.48665017, -0.31060138, 0.79624385, 4.6915255, 2.8596454, 1.2519054, 0
1340, 3615434095, -0.20128566, -0.46826124, -0.28528616, 0.81168586, -0.24618457, 2.340445, -2.0193124, 0
1341, 3615450762, -0.20782277, -0.46401268, -0.2774595, 0.8151837, 1.5949372, 2.7102308, -0.71568584, 0
1344, 3615500763, -0.21987106, -0.43948296, -0.26288277, 0.8303076, -1.0787361, 1.9579456, -0.7122793, 0
1345, 3615517430, -0.22173534, -0.43273973, -0.2511707, 0.8369525, -1.9169874, -2.8874083, -1.8159952, 0
1347, 3615550764, -0.22570746, -0.4228618, -0.22928482, 0.8471593, -1.3758004, -3.7675903, 2.1724396, 0
1348, 3615567431, -0.22586848, -0.41566205, -0.22453055, 0.8519395, -0.31658152, -2.4554436, 2.1459875, 0
1351, 3615617432, -0.2195313, -0.39189667, -0.22002922, 0.8659196, 0.078334644, -1.9953958, -0.35904694, 0
1352, 3615634099, -0.21820647, -0.38575685, -0.21896358, 0.8692749, 0.07411248, -1.1894524, 0.07568169, 0
1354, 3615667433, -0.21732697, -0.3741735, -0.21502897, 0.8755181, -1.1784662, 1.2797704, -0.5028219, 0
1355, 3615684100, -0.21694332, -0.36982134, -0.21391535, 0.87773246, 0.10598465, 1.0363835, -0.4736023, 0
1358, 3615734101, -0.21863228, -0.3567285, -0.21203496, 0.8831717, 1.1056333, -1.0811754, -0.15450478, 0
1359, 3615750768, -0.2185535, -0.3526565, -0.21236466, 0.884746, 0.66493636, 0.746946, -0.23481083, 0
1360, 3615767435, -0.21906374, -0.34962985, -0.21211062, 0.88588125, 1.9892666, 2.0626812, 0.35605812, 0
1362, 3615800769, -0.22185583, -0.34563687, -0.20996629, 0.88726294, 1.3330864, 2.6646533, 0.23301601, 0
1364, 3615834103, -0.2239112, -0.341704, -0.20669809, 0.88903564, 1.2672281, 1.0117023, -0.5738907, 0
1366, 3615867437, -0.22867167, -0.33725196, -0.20062934, 0.89091223, 1.168144, 2.7274258, -0.33474064, 0
1367, 3615884104, -0.23083572, -0.33634967, -0.19752075, 0.8913897, 2.6728454, 2.1840348, 0.10690117, 0
1368, 3615900771, -0.23243108, -0.33461025, -0.19411284, 0.892378, 2.5816674, 0.5931644, -0.027510643, 0
1371, 3615950772, -0.233186, -0.33297765, -0.18896659, 0.893895, 0.47651744, 1.3376967, 0.66459465, 0
1374, 3616000773, -0.23220365, -0.33639735, -0.18763782, 0.8931499, 0.910097, 0.2830891, 0.39885712, 0
1375, 3616017440, -0.23172382, -0.33939925, -0.18761915, 0.89214224, -0.6946318, -0.0732766, -0.6605482, 0
1378, 3616067441, -0.23039515, -0.344248, -0.18438895, 0.89130163, -1.4863873, 0.29603028, 0.042396545, 0
1379, 3616084108, -0.23026043, -0.34662235, -0.18341236, 0.8906174, -1.27712, -0.57774186, -0.7664709, 0
1381, 3616117442, -0.22898811, -0.3558751, -0.1852528, 0.88690776, -0.9264219, -1.543408, -0.056616783, 0
1382, 3616134109, -0.22854161, -0.3622691, -0.18766508, 0.883922, -2.543295, -1.8677717, -1.4258518, 0
1385, 3616184110, -0.2283454, -0.37064126, -0.19017261, 0.879957, -1.6851975, -0.27703336, 3.3597908, 0
1386, 3616200777, -0.2302554, -0.37289944, -0.19012494, 0.8785145, -1.673223, -0.8428872, 4.6045446, 0
1387, 3616217444, -0.23380226, -0.37740925, -0.19404267, 0.8747873, -0.8357716, -3.7804856, -1.1110964, 0
1389, 3616250778, -0.2563675, -0.38137868, -0.21591198, 0.8615188, -1.6166514, -1.3746475, -2.826398, 0
1393, 3616317446, -0.27820337, -0.3622632, -0.22578046, 0.86046386, 0.22543058, -3.8082643, 0.5947685, 0
1394, 3616334113, -0.27676642, -0.3631186, -0.22727695, 0.8601725, -2.0961316, -3.4812267, -0.291852, 0
1395, 3616350780, -0.27521083, -0.36595786, -0.23003334, 0.8587346, -3.9839513, -2.43896, 0.05332756, 0
1398, 3616400781, -0.27365887, -0.36475265, -0.23401815, 0.85866666, -2.8645236, -4.713754, 1.1091003, 0
1399, 3616417448, -0.27346423, -0.35736, -0.2320213, 0.862371, -5.228905, -8.251999, -1.0908384, 0
1401, 3616450782, -0.2743589, -0.34268364, -0.22763945, 0.8691845, -3.8600888, -2.6940835, 0.7421837, 0
1402, 3616467449, -0.2755071, -0.3343067, -0.22397022, 0.87302834, -1.5553547, -1.1240526, -0.40217018, 0
1405, 3616517450, -0.2805085, -0.30914092, -0.20706461, 0.8848037, 0.58726394, 1.6773406, 1.863019, 0
1406, 3616534117, -0.27993527, -0.30578336, -0.20638162, 0.8863103, 2.6333027, 3.0732229, -0.6026716, 0
1408, 3616567451, -0.277371, -0.30039334, -0.20686992, 0.88884234, 3.211822, 1.4016172, -0.84850025, 0
1412, 3616634119, -0.2720035, -0.29327223, -0.20669827, 0.8929097, 3.2991724, 3.6833818, -1.7997332, 0
1413, 3616650786, -0.27131653, -0.29217368, -0.20527337, 0.8938072, 2.9870622, 2.278285, -0.46965027, 0
1414, 3616667453, -0.27053952, -0.29085028, -0.20413753, 0.8947341, 1.0738701, 1.5174639, 0.15030003, 0
1416, 3616700787, -0.26818812, -0.2884641, -0.20397162, 0.89625096, 2.6631243, 1.751776, 0.91188717, 0
1418, 3616734121, -0.26617336, -0.2866079, -0.20509689, 0.8971899, 3.1117337, -0.09041507, -0.76462173, 0
1420, 3616767455, -0.26524493, -0.28485975, -0.2051196, 0.898016, 0.4730697, 0.8965214, -0.2978258, 0
1421, 3616784122, -0.26517838, -0.2835166, -0.20482814, 0.89852715, 0.79149985, 1.6748307, -0.25688648, 0
1422, 3616800789, -0.26566708, -0.28205642, -0.2043717, 0.89894617, 2.1396983, 1.33785, 0.22205734, 0
1425, 3616850790, -0.26784527, -0.2803445, -0.20129289, 0.8995299, 1.4164358, 1.5728198, -0.62043285, 0
1426, 3616867457, -0.26826185, -0.28083083, -0.20059311, 0.8994103, 0.7921488, 0.18117017, -0.28275585, 0
1429, 3616917458, -0.26962203, -0.28177866, -0.19772798, 0.89934164, 0.843854, 0.562861, -0.36319256, 0
1432, 3616967459, -0.27049437, -0.28239474, -0.1939777, 0.8997031, 0.6257432, 0.63078594, -0.039212227, 0
1433, 3616984126, -0.270916, -0.28283647, -0.19221425, 0.89981586, 0.49965605, 0.19550008, -0.7692337, 0
1435, 3617017460, -0.27205613, -0.28458053, -0.18774486, 0.8998654, 0.460898, 1.3433633, -0.374568, 0
1436, 3617034127, -0.27269173, -0.28544503, -0.18504274, 0.899959, -0.85616344, 0.33365908, -0.76165295, 0
1439, 3617084128, -0.27294773, -0.28874245, -0.17923748, 0.9000044, 0.9013943, 0.05932693, 0.22023964, 0
1440, 3617100795, -0.2729776, -0.28979763, -0.17713524, 0.9000724, 0.99347115, 0.44407564, 0.31063175, 0
1441, 3617117462, -0.27291688, -0.29105335, -0.17528826, 0.90004724, 0.25579366, 1.1765693, 0.3339138, 0
1443, 3617150796, -0.27200443, -0.29399264, -0.17209297, 0.8999847, 0.09983312, 0.896811, 0.0441761, 0
1445, 3617184130, -0.2705506, -0.29706773, -0.16990015, 0.89983004, 0.4812659, 0.35048363, 0.015684128, 0
1447, 3617217464, -0.2676038, -0.29994202, -0.1690129, 0.89992476, -0.07060607, 0.3859748, -0.28061295, 0
1448, 3617234131, -0.26589292, -0.30181968, -0.16893257, 0.8998191, 0.15411884, 0.5809056, 0.22902584, 0
1449, 3617250798, -0.2643861, -0.30409178, -0.1691887, 0.89944994, -0.6949179, 0.11789074, -0.2947731, 0
1452, 3617300799, -0.2602383, -0.31259975, -0.1697457, 0.8976362, -1.344906, -0.010141063, -1.1047649, 0
1453, 3617317466, -0.25878397, -0.31570724, -0.17006505, 0.8969084, -0.008435491, 0.62298226, 1.0387325, 0
1455, 3617350800, -0.25561604, -0.32295278, -0.17161943, 0.894939, 0.16500832, -0.9650872, -0.2058363, 0
1456, 3617367467, -0.25390518, -0.32716912, -0.17243268, 0.8937372, -0.57857645, 0.27693558, 0.5809727, 0
1459, 3617417468, -0.24826065, -0.33958676, -0.17564806, 0.8900574, 0.44638303, -0.12077321, 0.72541714, 0
1460, 3617434135, -0.24619314, -0.343309, -0.17673858, 0.8889872, -0.79551166, -1.2568156, -1.2602959, 0
1463, 3617484136, -0.24097475, -0.3582397, -0.18048719, 0.88375723, -0.9936405, 0.0027832391, -0.40232086, 0
1466, 3617534137, -0.23537652, -0.37105912, -0.18308398, 0.8794317, -0.28631887, -0.6018175, -0.48007584, 0
1467, 3617550804, -0.23357624, -0.37521118, -0.18378346, 0.87800294, -0.6775093, 0.7576477, 0.41924763, 0
1468, 3617567471, -0.23151107, -0.37934792, -0.18454996, 0.8766106, -0.5226555, 0.45039, -0.09953308, 0
1470, 3617600805, -0.22751673, -0.3883286, -0.18582398, 0.87344915, 0.58828884, 0.64312196, 0.96245766, 0
1472, 3617634139, -0.22355902, -0.39656836, -0.18781291, 0.8703381, -0.78032076, 0.69434655, -0.36825562, 0
1474, 3617667473, -0.21857464, -0.4119711, -0.19347396, 0.8631799, -1.1059664, -1.2582504, 0.0467968, 0
1475, 3617684140, -0.21606523, -0.4211132, -0.19693719, 0.85860467, -0.32779336, -0.7403818, 0.79607964, 0
1476, 3617700807, -0.21296486, -0.43174678, -0.20087701, 0.8531682, -0.76158106, -0.42420223, 0.83883476, 0
1479, 3617750808, -0.20419317, -0.47334793, -0.21272588, 0.83006114, -3.6227958, -1.8081844, 0.031193733, 0
1482, 3617800809, -0.1985788, -0.5059669, -0.22077689, 0.8098323, -2.9101055, -2.9092093, 0.43031406, 0
1483, 3617817476, -0.19691145, -0.5129941, -0.22356793, 0.80503863, -3.9462852, -3.2779057, -0.046570778, 0
1486, 3617867477, -0.19527453, -0.53185105, -0.23046345, 0.7911358, -3.8093607, -2.6043224, 0.9420929, 0
1487, 3617884144, -0.19671339, -0.53481835, -0.23211992, 0.7882896, -2.8573809, -2.658146, -0.033717155, 0
1489, 3617917478, -0.20067906, -0.5316447, -0.23410925, 0.7888484, -0.9132896, -1.5863273, -0.67690563, 0
1490, 3617934145, -0.2023045, -0.52541727, -0.23361263, 0.7927432, -1.0001478, -1.821473, -2.1166263, 0
1493, 3617984146, -0.21213835, -0.49970436, -0.22982629, 0.80776215, -0.34943372, -1.3811611, 1.0620556, 0
1494, 3618000813, -0.21587357, -0.48893264, -0.22935274, 0.8134787, -0.17823029, -2.3243663, -1.0648499, 0
1495, 3618017480, -0.21964577, -0.47784144, -0.22859362, 0.8192528, -0.20649686, -1.5183668, -0.2656784, 0
1497, 3618050814, -0.22546256, -0.4570082, -0.22834052, 0.82956487, -0.24760984, -0.3750457, 0.5970659, 0
1501, 3618117482, -0.22668147, -0.43402565, -0.23582855, 0.8394217, 0.028630333, 0.6878077, -2.489223, 0
1502, 3618134149, -0.22345327, -0.42956343, -0.23666443, 0.8423425, -3.369586, -1.9232103, -5.0921593, 0
1503, 3618150816, -0.22012588, -0.42404473, -0.23552327, 0.84632516, -3.0569685, -0.62732744, -0.8433838, 0
1506, 3618200817, -0.21669975, -0.3987261, -0.22558744, 0.86207664, -0.45602903, 1.788552, 3.5105314, 0
1507, 3618217484, -0.21785024, -0.3891279, -0.21964395, 0.8676891, -0.3352824, 2.4343867, 0.31802177, 0
1509, 3618250818, -0.2202199, -0.3706295, -0.20950769, 0.8776392, 0.98515993, -0.6388309, 1.3743334, 0
1510, 3618267485, -0.22140345, -0.3623861, -0.20487137, 0.88186824, 1.5878274, -1.5355169, 0.067243576, 0
1513, 3618317486, -0.22045204, -0.3477335, -0.1968266, 0.8898026, 1.862551, 1.0413201, -0.21864033, 0
1514, 3618334153, -0.2198434, -0.34399435, -0.19502239, 0.8918016, 1.4734873, 1.0915642, -0.941864, 0
1516, 3618367487, -0.21886736, -0.33611172, -0.18996914, 0.8961277, 2.5922055, 1.9595779, -0.6024151, 0
1520, 3618434155, -0.21842957, -0.32530332, -0.17765164, 0.9027255, 2.4601827, 2.383111, -0.7925739, 0
1521, 3618450822, -0.21804416, -0.32442418, -0.17569345, 0.90351784, 2.9194887, 1.9532905, 0.14494419, 0
1522, 3618467489, -0.21782303, -0.322603, -0.17348693, 0.904649, 2.1287088, 0.8590822, 0.50646114, 0
1524, 3618500823, -0.21664423, -0.32129124, -0.17048538, 0.90596867, 1.6332145, 0.6648042, -0.5198431, 0
1526, 3618534157, -0.21487719, -0.31956246, -0.16796598, 0.9074703, 1.0817478, 1.5932981, -0.025746346, 0
1528, 3618567491, -0.21235573, -0.31808218, -0.1663007, 0.90888953, 2.0365584, 1.4046283, 0.44429207, 0
1529, 3618584158, -0.21089116, -0.31705272, -0.16574323, 0.90969163, 0.55107945, 0.6141251, 0.40928268, 0
1530, 3618600825, -0.20928167, -0.31661376, -0.16566893, 0.91022974, 0.9870445, 0.72717714, -1.0771704, 0
1533, 3618650826, -0.20506944, -0.3151053, -0.16632016, 0.91159195, 0.62441754, 1.03909, -0.15697956, 0
1534, 3618667493, -0.20383114, -0.31477618, -0.16667181, 0.9119191, 1.0536578, 0.30367872, 0.050107002, 0
1536, 3618700827, -0.20240884, -0.31425792, -0.16539714, 0.91264653, 1.2518107, -0.21590127, -0.21725845, 0
1537, 3618717494, -0.20207536, -0.31399184, -0.16419944, 0.9130281, 0.52535707, 0.16801916, 0.06192875, 0
1540, 3618767495, -0.20118736, -0.3133852, -0.16126204, 0.91395575, 1.5172634, 0.08517274, 0.9532728, 0
1541, 3618784162, -0.20071374, -0.3130131, -0.16073865, 0.9142797, 1.4488043, 0.31033668, 0.16800976, 0
1543, 3618817496, -0.19991654, -0.31231734, -0.1596711, 0.914879, 1.5693462, 0.2813062, -0.52081966, 0
1544, 3618834163, -0.1996706, -0.31192607, -0.1588377, 0.9152112, 2.8691957, 1.779028, 0.96578217, 0
1547, 3618884164, -0.19813225, -0.31131446, -0.15727791, 0.9160228, 1.834046, 0.7401026, -1.3285208, 0
1548, 3618900831, -0.1977605, -0.31119642, -0.15688223, 0.9162111, 2.2339303, 1.2935859, -0.33461094, 0
1549, 3618917498, -0.1968838, -0.31113258, -0.15680033, 0.9164357, 2.0128896, 0.8372303, -0.14095879, 0
1553, 3618984166, -0.19464284, -0.31316632, -0.15628122, 0.9163102, 0.23914003, -0.14565602, -0.9558697, 0
1555, 3619017500, -0.19356787, -0.3162742, -0.15622666, 0.9154795, -0.93425506, -0.36118996, -0.42643547, 0
1556, 3619034167, -0.19323531, -0.31784979, -0.15587078, 0.91506463, 0.064412184, 0.28513336, -0.115641594, 0
1557, 3619050834, -0.1925912, -0.318882, -0.15570337, 0.9148698, -0.024389287, 0.24046642, 0.5088806, 0
1560, 3619100835, -0.18995023, -0.32257214, -0.15730299, 0.91385394, -0.19938937, -0.9431203, -0.20158768, 0
1561, 3619117502, -0.18898246, -0.32407486, -0.1581625, 0.9133745, -1.0878414, -0.5187862, -0.8157978, 0
1563, 3619150836, -0.1877777, -0.3269193, -0.15948996, 0.91237795, -0.037102286, 0.5169928, 0.47594357, 0
1564, 3619167503, -0.18748987, -0.3278029, -0.15993081, 0.9120428, -1.3450407, -1.2096237, -0.57999706, 0
1567, 3619217504, -0.18641996, -0.3301169, -0.16062273, 0.9113056, -0.13980903, -0.29281372, 0.23739243, 0
1568, 3619234171, -0.18672, -0.33103305, -0.16035296, 0.91095936, -0.7807958, 0.1577779, -0.42439938, 0
1571, 3619284172, -0.18872276, -0.33697468, -0.16017382, 0.90839607, 0.13002464, -1.5947138, -0.82113075, 0
1574, 3619334173, -0.19125113, -0.34599382, -0.16058747, 0.90439487, -0.11129263, -0.2419819, -0.6675787, 0
1575, 3619350840, -0.19211368, -0.34996068, -0.16111065, 0.90259075, 0.5938883, 0.7539221, 0.92187595, 0
1576, 3619367507, -0.19291207, -0.355197, -0.1622158, 0.9001741, 0.3061246, -0.35492012, -0.78843784, 0
1578, 3619400841, -0.19363599, -0.36747125, -0.1644783, 0.89466435, 0.7226362, 0.18585025, 0.7882519, 0
1580, 3619434175, -0.19189364, -0.38424808, -0.1681242, 0.88728344, -0.91602117, -1.3423715, -0.38929367, 0
1582, 3619467509, -0.18965465, -0.4117852, -0.17375338, 0.8742317, -1.5745945, 0.16720356, 1.27178, 0
1583, 3619484176, -0.18814944, -0.42958635, -0.17767486, 0.8651557, -1.9474326, -1.2735136, 0.39391994, 0
1584, 3619500843, -0.18667957, -0.4505394, -0.1824156, 0.85375446, -1.7184597, -2.0895462, 1.1627274, 0
1587, 3619550844, -0.18138717, -0.5088729, -0.19980234, 0.8174554, -3.6025271, -1.5017221, -1.9585428, 0
1590, 3619600845, -0.17596596, -0.5191468, -0.21030931, 0.80950606, -5.2818985, -2.943681, -0.41449642, 0
1591, 3619617512, -0.17560634, -0.5261364, -0.21269915, 0.80443114, -4.098049, -3.522412, 3.299323, 0
1594, 3619667513, -0.17634575, -0.54422, -0.22023089, 0.79008394, -2.8452938, -3.7671356, 0.2757101, 0
1595, 3619684180, -0.1767863, -0.54239595, -0.22337231, 0.79035765, -3.301103, -2.7652843, 1.5213976, 0
1597, 3619717514, -0.1790283, -0.5328689, -0.22750485, 0.7951406, -1.6959128, -2.3789678, -0.15224457, 0
1598, 3619734181, -0.18148383, -0.52609974, -0.22742751, 0.7991035, -0.1624538, -1.4219645, -0.5805836, 0
1601, 3619784182, -0.19163899, -0.49440825, -0.22616668, 0.8171236, -0.9037298, -3.3767717, 1.0168962, 0
1602, 3619800849, -0.19539471, -0.48402703, -0.22596744, 0.82248706, 1.042895, -1.5865183, -0.63781357, 0
1603, 3619817516, -0.19885251, -0.4747126, -0.22551723, 0.827197, 2.3356407, 0.4927551, 0.2078867, 0
1605, 3619850850, -0.20518503, -0.45447934, -0.2239115, 0.83738786, -0.7104639, -0.7570238, -3.5004067, 0
1609, 3619917518, -0.21246654, -0.42499718, -0.22120994, 0.8516508, 2.6401231, -1.4180003, -3.1721878, 0
1610, 3619934185, -0.2108752, -0.40874964, -0.21951231, 0.8603934, 0.24183331, -1.7194781, 0.029899597, 0
1611, 3619950852, -0.2105481, -0.39046088, -0.21630192, 0.8697302, -4.6905, -1.2105869, -1.0650034, 0
1614, 3620000853, -0.21018593, -0.3538552, -0.20760001, 0.887422, 4.6494265, 2.2244804, 4.9589777, 0
1615, 3620017520, -0.20930016, -0.34893635, -0.20686898, 0.8897467, 4.6346755, 0.6573459, 1.8729916, 0
1617, 3620050854, -0.20638128, -0.34270447, -0.2042168, 0.89345574, 2.3623314, 2.9778447, -3.0100646, 0
1618, 3620067521, -0.20477165, -0.3383637, -0.20175849, 0.89603525, 0.6628898, 4.0767894, -1.2717791, 0
1621, 3620117522, -0.20212671, -0.32918236, -0.19770701, 0.9009455, 4.259628, -1.1676587, 0.5989132, 0
1622, 3620134189, -0.20168358, -0.32771248, -0.19729273, 0.90167123, 3.0584671, -0.18516663, 0.30260277, 0
1624, 3620167523, -0.20172562, -0.32513306, -0.19598818, 0.9028794, 1.548158, 1.67618, -0.7061167, 0
1625, 3620184190, -0.20242849, -0.32156456, -0.19391836, 0.90444565, 0.30232647, 0.10856969, -1.0717602, 0
1628, 3620234191, -0.20345828, -0.31417772, -0.19043447, 0.9075458, 2.6288927, 0.6538366, -0.52704525, 0
1629, 3620250858, -0.20404497, -0.31362233, -0.19006367, 0.9076838, 2.607232, 0.5886955, -1.1141386, 0
1630, 3620267525, -0.2046964, -0.31293377, -0.1895599, 0.9078801, 1.2074232, -0.18545552, -1.352045, 0
1632, 3620300859, -0.20653196, -0.31004858, -0.18641834, 0.909104, -0.20114529, 1.1720788, -0.18102741, 0
1634, 3620334193, -0.20920348, -0.307388, -0.18225491, 0.9102401, 2.2960002, 0.60580707, 0.47170734, 0
1636, 3620367527, -0.21138653, -0.30680215, -0.17952935, 0.910475, 0.88088655, -0.36360943, -0.64358807, 0
1637, 3620384194, -0.21219173, -0.30678058, -0.17879225, 0.91044, -2.1580176E-4, -1.0242078, -0.63097286, 0
1638, 3620400861, -0.21301496, -0.3063708, -0.17801104, 0.91053885, -0.11366539, -0.69957143, 0.35122108, 0
1642, 3620467529, -0.21342318, -0.3068006, -0.17958397, 0.9099895, -0.07176901, -0.44492105, 0.032500267, 0
1644, 3620500863, -0.21378583, -0.3077077, -0.17990535, 0.90953445, 0.54699904, -0.2653271, -0.64665985, 0
1645, 3620517530, -0.21439484, -0.30807167, -0.17907906, 0.9094309, -0.26821566, 0.19575895, 0.7016516, 0
1648, 3620567531, -0.21642119, -0.30851597, -0.17673652, 0.9092586, 1.477225, -0.39425462, 0.025596619, 0
1649, 3620584198, -0.21722539, -0.30905247, -0.1756712, 0.9090912, 1.7547995, 0.12813774, 0.2237854, 0
1651, 3620617532, -0.21898653, -0.310076, -0.1728757, 0.9088559, -0.6939079, 0.34881315, 0.033881187, 0
1652, 3620634199, -0.22019833, -0.31065515, -0.17130771, 0.90866226, -1.1815449, 0.20538181, -1.3232355, 0
1655, 3620684200, -0.22239843, -0.31333852, -0.16820872, 0.9077836, 0.95170486, -1.0182723, -1.0268917, 0
1656, 3620700867, -0.22308947, -0.31441036, -0.16746478, 0.90738094, 1.7336051, -0.27535236, -0.572032, 0
1657, 3620717534, -0.22337541, -0.31547248, -0.166979, 0.9070312, 1.091342, 1.2525553, 0.53637886, 0
1661, 3620784202, -0.22363733, -0.32038468, -0.16740572, 0.9051645, 1.426217, 1.0744482, 0.27865314, 0
1663, 3620817536, -0.22357151, -0.3245838, -0.16918117, 0.9033526, -0.30698034, -2.924267, -1.204875, 0
1664, 3620834203, -0.22222704, -0.3269198, -0.17104954, 0.90248984, -0.8578822, 1.9984975, 0.5488033, 0
1665, 3620850870, -0.21998006, -0.3290258, -0.17325929, 0.9018533, 1.4179517, 2.6510832, 1.427741, 0
1668, 3620900871, -0.2193512, -0.33967456, -0.17831112, 0.8970612, 1.0863069, 0.8102221, 0.036333084, 0
1669, 3620917538, -0.21769828, -0.3448068, -0.18102244, 0.8949602, 2.5262365, 0.6674168, 0.5437851, 0
1671, 3620950872, -0.21503836, -0.35464016, -0.18534675, 0.89086634, 1.4389158, 1.6036006, -0.041662216, 0
1672, 3620967539, -0.213474, -0.36156264, -0.18914476, 0.88765585, 2.0005338, 2.7866964, 0.75644493, 0
1675, 3621017540, -0.20652328, -0.39092278, -0.20059176, 0.8742411, 3.1750414, 1.8988329, 1.1263599, 0
1676, 3621034207, -0.20484315, -0.40281224, -0.2037675, 0.8684858, 1.1456473, 1.1850175, 0.14384174, 0
1679, 3621084208, -0.19641295, -0.44821608, -0.215436, 0.84505564, -2.1008644, -1.5998536, -1.8652172, 0
1682, 3621134209, -0.17428105, -0.5045593, -0.23835173, 0.81132096, -0.27490813, -1.1618979, 2.2342644, 0
1683, 3621150876, -0.1591987, -0.5231835, -0.23966151, 0.80218726, 0.7315677, -0.065342225, 1.876893, 0
1684, 3621167543, -0.1371238, -0.54252595, -0.23016135, 0.7961756, 2.6156933, -1.3677956, 3.1477566, 0
1686, 3621200877, -0.081848264, -0.5744579, -0.1899494, 0.79197574, 8.399369, -7.382511, 5.258539, 0
1688, 3621234211, -0.06188612, -0.5959281, -0.16956362, 0.78249305, 7.807016, -17.057594, 1.235527, 0
1690, 3621267545, -0.11253289, -0.6207745, -0.15963982, 0.75927436, -1.9753528, -8.730899, -3.9206448, 0
1691, 3621284212, -0.13993052, -0.63390344, -0.1521149, 0.7452881, -7.8419557, -1.1253759, -7.7549863, 0
1692, 3621300879, -0.15642908, -0.64610714, -0.14554715, 0.7327338, -13.707184, 0.80263114, -10.512569, 0
1695, 3621350880, -0.18103804, -0.64361036, -0.1519681, 0.72794497, -12.752165, -3.8631287, -3.198162, 0
1698, 3621400881, -0.21155584, -0.58727807, -0.16335125, 0.7639845, -3.7222252, 4.197064, -0.10936546, 0
1699, 3621417548, -0.21535185, -0.56491053, -0.17501998, 0.77709395, -2.4878428, 6.8157644, 2.2400808, 0
1702, 3621467549, -0.2045122, -0.4948095, -0.21964727, 0.8155369, 7.8826385, 2.2000933, 5.6386423, 0
1703, 3621484216, -0.206186, -0.46925148, -0.22944501, 0.8274374, 12.93835, 3.348473, 2.7053394, 0
1705, 3621517550, -0.20931058, -0.43165934, -0.24182712, 0.8434372, 13.979814, 14.473393, -3.5861788, 0
1706, 3621534217, -0.20679194, -0.42413124, -0.23788524, 0.8489804, 13.536748, 16.682993, -3.535656, 0
1709, 3621584218, -0.16550651, -0.43232602, -0.22379065, 0.85768694, 18.346733, 19.981308, -9.846112, 0
1710, 3621600885, -0.14431414, -0.45689237, -0.22413105, 0.8486433, 23.264952, 19.48737, -7.409295, 0
1711, 3621617552, -0.1429198, -0.4885779, -0.21273306, 0.8340368, 22.798338, -10.419237, 19.94046, 0
1715, 3621684220, -0.16877294, -0.5194753, -0.20995589, 0.8109173, 1.0065433, -2.757662, -0.5993471, 0
1717, 3621717554, -0.15728723, -0.545238, -0.21968113, 0.79355127, -1.7032202, 0.31429458, 0.11069965, 0
1718, 3621734221, -0.15205453, -0.56504476, -0.22308464, 0.7796438, -1.1132698, 1.2372077, -0.13461208, 0
1719, 3621750888, -0.14833057, -0.5858236, -0.22530389, 0.7642344, 0.6100418, 0.45920548, -0.25470448, 0
1722, 3621800889, -0.1422973, -0.6261915, -0.23262553, 0.7304302, 2.084745, 0.2992654, 0.095009804, 0
1723, 3621817556, -0.14076781, -0.6349167, -0.2391609, 0.7210234, -0.46745846, -1.1397873, 0.67233086, 0
1725, 3621850890, -0.13315023, -0.6682458, -0.25437176, 0.68630964, -2.5777664, -1.7446992, -0.028718948, 0
1726, 3621867557, -0.12230323, -0.6989902, -0.25795287, 0.65568453, -1.3759283, -0.9062271, 0.14074802, 0
1729, 3621917558, -0.024173085, -0.8463903, -0.22029902, 0.48426712, -21.704498, -9.31443, 21.62602, 0
1730, 3621934225, -0.015571654, -0.85863006, -0.23704156, 0.4542363, -32.276768, -13.327303, 33.88776, 0
1733, 3621984226, -0.042046625, -0.8832068, -0.22122121, 0.4113956, -22.134373, -0.9020889, 5.519066, 0
1736, 3622034227, -0.015199527, -0.9144515, -0.23526467, 0.32894567, -28.132252, -16.765108, -8.133814, 0
1737, 3622050894, -0.013039488, -0.91717577, -0.25059298, 0.30956247, -24.168407, -14.57641, -11.450711, 0
1738, 3622067561, -0.010674285, -0.9191712, -0.26075104, 0.295003, -17.00879, -12.446335, -15.188377, 0
1740, 3622100895, -0.019467715, -0.91958773, -0.2683346, 0.2863272, -12.627333, -9.777428, -19.597061, 0
1742, 3622134229, -0.047341656, -0.91013324, -0.25711456, 0.32142752, -8.476331, -4.723987, -16.70712, 0
1744, 3622167563, -0.079857215, -0.8841866, -0.23313768, 0.39685136, -7.033877, -4.266021, -11.769611, 0
1745, 3622184230, -0.0988082, -0.8640497, -0.22222058, 0.44077256, -4.6100903, -4.424386, -9.123949, 0
1746, 3622200897, -0.11936431, -0.8389878, -0.21656018, 0.48472717, -5.5500407, -4.7388577, -5.4865403, 0
1749, 3622250898, -0.17647718, -0.7331857, -0.2203184, 0.61867714, -2.1461978, -7.457057, 6.9008675, 0
1752, 3622300899, -0.21870212, -0.6004344, -0.21728396, 0.73786354, 12.572737, 4.2532425, 11.864712, 0
1753, 3622317566, -0.22105342, -0.56300086, -0.21629706, 0.7664126, 15.692313, 7.1466084, 9.504992, 0
1756, 3622367567, -0.22601128, -0.47775352, -0.21304765, 0.82175934, 15.224449, 4.6045065, 5.5371885, 0
1757, 3622384234, -0.23373611, -0.4522018, -0.21002313, 0.8347325, 13.591003, 5.335585, 2.502038, 0
1759, 3622417568, -0.24562949, -0.410192, -0.20154159, 0.85486674, 9.458861, 8.9566, -0.6039419, 0
1760, 3622434235, -0.24410082, -0.39641455, -0.19526953, 0.86321914, 8.125355, 7.6449327, -2.8717165, 0
1763, 3622484236, -0.22957191, -0.36622572, -0.20476106, 0.8782116, 9.7706175, 3.6601014, 0.41735935, 0
1764, 3622500903, -0.22690964, -0.3539455, -0.20858952, 0.88302463, 9.9618025, 4.584986, -0.32805538, 0
1765, 3622517570, -0.22681981, -0.34319544, -0.20755209, 0.8875241, 10.549131, 4.1862073, -2.6928754, 0
1767, 3622550904, -0.23358773, -0.32945433, -0.20804246, 0.89085484, 10.234605, 3.271447, -7.1996465, 0
1771, 3622617572, -0.29423392, -0.29508725, -0.2858228, 0.8629384, 15.911282, 8.503147, -2.4536967, 0
1772, 3622634239, -0.3266273, -0.27358082, -0.3196183, 0.8463566, 13.9532795, 11.233481, -10.74046, 0
1773, 3622650906, -0.3640035, -0.25984168, -0.3521011, 0.8222018, 9.079412, 16.529058, -11.461255, 0
1776, 3622700907, -0.44517177, -0.2895938, -0.35150588, 0.7709789, 10.512768, 18.570438, 12.384108, 0
1777, 3622717574, -0.4616908, -0.29181358, -0.31844825, 0.7747802, 25.25813, -11.423629, 21.730856, 0
1779, 3622750908, -0.47407493, -0.26800245, -0.29729515, 0.78425163, 0.53383857, -0.7109425, 0.73391056, 0
1780, 3622767575, -0.47500682, -0.26364517, -0.2966572, 0.7854052, 0.72937495, -2.092082, 0.10859203, 0
1783, 3622817576, -0.46188158, -0.2969397, -0.32768822, 0.7688431, -0.47532588, -0.6381131, -0.11946869, 0
1784, 3622834243, -0.4557765, -0.31517124, -0.3404153, 0.75964445, 0.3063121, 0.74983704, -0.51216125, 0
1786, 3622867577, -0.4477234, -0.34196663, -0.35545164, 0.7458314, -0.6418158, -0.3431554, -0.25754738, 0
1790, 3622934245, -0.4315318, -0.40403426, -0.38896748, 0.70657504, -0.504509, -1.7289906, -0.7519655, 0
1791, 3622950912, -0.42440167, -0.4287434, -0.39955992, 0.69023293, -1.9935219, -0.6179058, -0.6405897, 0
1792, 3622967579, -0.41451702, -0.46207154, -0.40624672, 0.67054933, -2.931117, -0.72114235, -0.33578396, 0
1794, 3623000913, -0.35261765, -0.61683005, -0.38981488, 0.5858611, -7.4145756, -4.8223352, 10.497797, 0
1796, 3623034247, -0.3672566, -0.73501086, -0.26383543, 0.50525224, -19.333961, 8.924682, 37.412395, 0
1798, 3623067581, -0.4054573, -0.76338506, -0.22339742, 0.45049807, -35.945976, 21.152227, 5.9126835, 0
1799, 3623084248, -0.3697951, -0.80192405, -0.2185611, 0.41521996, -27.142437, 11.728, 6.2184124, 0
1800, 3623100915, -0.31983495, -0.84042084, -0.21467465, 0.38120893, -29.32331, -9.143167, 11.2557125, 0
1803, 3623150916, -0.18452442, -0.90667266, -0.2543981, 0.28139687, -14.610929, -28.462652, -6.462792, 0
1804, 3623167583, -0.16036406, -0.9164764, -0.26812574, 0.24994078, -11.481794, -30.440702, -11.702787, 0
1806, 3623200917, -0.14285739, -0.92597973, -0.28035218, 0.20871805, -5.1286283, -19.14942, -19.352612, 0
1807, 3623217584, -0.135229, -0.93204856, -0.26889637, 0.2017443, -3.0535076, -15.589479, -19.592339, 0
1810, 3623267585, -0.12783226, -0.9382563, -0.21552855, 0.23851277, -5.231443, -5.174877, -18.179594, 0
1811, 3623284252, -0.13152175, -0.9338906, -0.19766903, 0.26736575, -6.568057, -4.947479, -16.345793, 0
1813, 3623317586, -0.14870895, -0.9098012, -0.17194177, 0.34726194, -8.926524, -0.8337105, -10.968875, 0
1814, 3623334253, -0.15328734, -0.89097935, -0.16210565, 0.3954589, -9.217199, 1.0049255, -6.711524, 0
1817, 3623384254, -0.17493396, -0.8065815, -0.15387537, 0.54328084, 0.58301944, -4.570395, 6.75346, 0
1818, 3623400921, -0.1957762, -0.77012205, -0.15923275, 0.5858635, 4.3978996, -1.4750297, 7.653023, 0
1819, 3623417588, -0.214371, -0.73331267, -0.1624848, 0.6244231, 3.087853, 5.5496125, 9.73987, 0
1823, 3623484256, -0.18955511, -0.6033325, -0.16734152, 0.7563483, 12.590699, -8.177697, 6.6093063, 0
1825, 3623517590, -0.21337986, -0.5368239, -0.19017121, 0.79380816, 7.467218, 6.640077, 7.363323, 0
1826, 3623534257, -0.22206955, -0.50925034, -0.184459, 0.8107598, 8.451844, 7.633321, 4.738909, 0
1827, 3623550924, -0.22319283, -0.4862714, -0.17898692, 0.8256489, 7.79215, 6.6511874, 1.3795719, 0
1830, 3623600925, -0.20021003, -0.43702182, -0.17570621, 0.8591057, 7.7242527, 3.7963219, 3.953555, 0
1831, 3623617592, -0.19297965, -0.42284176, -0.1737919, 0.868198, 7.753768, 4.310127, 4.6755047, 0
1833, 3623650926, -0.17818478, -0.39421844, -0.16995549, 0.8854179, 8.823775, 1.5136492, -0.23360062, 0
1834, 3623667593, -0.17001432, -0.38358167, -0.1682487, 0.8919977, 9.277941, 1.1627282, -1.8794551, 0
1837, 3623717594, -0.16577604, -0.36443585, -0.17808193, 0.8988878, 11.166422, 0.49565807, -1.2244911, 0
1838, 3623734261, -0.17542005, -0.35703966, -0.18300687, 0.8990364, 11.865501, 1.5109553, -1.0624323, 0
1841, 3623784262, -0.21983886, -0.3357831, -0.20783363, 0.8920389, 13.347282, 5.22256, -5.177261, 0
1844, 3623834263, -0.27906263, -0.32895222, -0.24613395, 0.86795175, 13.231959, 11.062023, -8.751001, 0
1845, 3623850930, -0.29978412, -0.33266717, -0.2640872, 0.8542409, 12.599215, 12.773843, -7.5841374, 0
1846, 3623867597, -0.31940204, -0.33917674, -0.28407842, 0.83800256, 11.361689, 14.618003, -7.242129, 0
1850, 3623934265, -0.36265483, -0.35976946, -0.2806475, 0.8125836, 1.3245684, -6.7700396, 9.800339, 0
1852, 3623967599, -0.36790386, -0.3354813, -0.26713473, 0.8250732, -1.9475688, -3.5703003, 0.101017, 0
1853, 3623984266, -0.36815655, -0.33432484, -0.26679602, 0.82553935, -0.19367632, -3.2336245, 0.23995304, 0
1854, 3624000933, -0.3658438, -0.34008807, -0.27103677, 0.82282746, -0.8416798, -3.0053165, 0.0034723282, 0
1857, 3624050934, -0.35590905, -0.38305682, -0.28819722, 0.8022132, 0.48554668, 0.2410956, -0.714221, 0
1858, 3624067601, -0.35344088, -0.3957348, -0.2940524, 0.7949932, 1.3790853, 0.99317914, -0.2304287, 0
1861, 3624117602, -0.34980118, -0.44153172, -0.31285644, 0.7647334, -0.5748842, -1.135216, -0.20903015, 0
1864, 3624167603, -0.34309566, -0.5108889, -0.3204783, 0.7201245, -4.613785, -1.1927444, -0.34806824, 0
1865, 3624184270, -0.3339903, -0.5651936, -0.30793458, 0.6886149, -5.368243, -0.49803314, -0.13926601, 0
1867, 3624217604, -0.30354252, -0.7219778, -0.26721957, 0.5614368, -10.175613, -4.014827, 23.709518, 0
1868, 3624234271, -0.32345816, -0.7470734, -0.26802364, 0.51519626, -12.029852, 3.2962556, 42.176277, 0
1871, 3624284272, -0.23668082, -0.84522873, -0.23803304, 0.4158345, -17.030668, -4.6000533, 10.722811, 0
1873, 3624317606, -0.17227346, -0.8953313, -0.24602664, 0.32891047, -24.082905, -23.540886, 1.3499823, 0
1875, 3624350940, -0.15052956, -0.9194579, -0.2635979, 0.24992312, -16.15095, -21.863995, -15.514372, 0
1877, 3624384274, -0.13975853, -0.93190736, -0.26707992, 0.20172268, -15.229129, -15.067078, -21.999916, 0
1879, 3624417608, -0.1321534, -0.9341937, -0.2591017, 0.2066188, -6.249237, -9.733549, -18.60884, 0
1881, 3624450942, -0.13621996, -0.9327507, -0.23575795, 0.23631695, -6.670751, -2.2878892, -13.3142, 0
1884, 3624500943, -0.1391463, -0.9128773, -0.2093565, 0.3216687, -7.331676, -2.482847, -6.4617014, 0
1885, 3624517610, -0.146355, -0.89668566, -0.20683184, 0.362992, -3.5103223, -1.1753314, -0.39058018, 0
1888, 3624567611, -0.17373589, -0.84221053, -0.19721115, 0.4707577, 6.980178, 3.3028162, 7.831028, 0
1891, 3624617612, -0.19371238, -0.79138726, -0.19640428, 0.5455408, 2.599608, 8.748991, 6.5797215, 0
1892, 3624634279, -0.19004348, -0.7742017, -0.19651684, 0.57086235, 10.816398, 9.738112, 4.4372644, 0
1894, 3624667613, -0.19074196, -0.75249076, -0.21298137, 0.59331405, 13.882724, 6.4303126, 0.06387234, 0
1895, 3624684280, -0.19218515, -0.74794286, -0.22528873, 0.59405303, 7.698547, 4.7167983, -0.016208649, 0
1898, 3624734281, -0.17971605, -0.72630626, -0.25813308, 0.6111924, 1.4208758, 4.581488, -2.1300406, 0
1899, 3624750948, -0.16933839, -0.71902573, -0.26416478, 0.6201218, 4.523255, 1.0062892, -2.263072, 0
1900, 3624767615, -0.1618957, -0.71107644, -0.2732923, 0.62727904, 4.243629, 0.72432303, -1.9500637, 0
1902, 3624800949, -0.14914969, -0.6957194, -0.28722104, 0.6412806, 0.29015738, -0.93190855, -0.29077053, 0
1904, 3624834283, -0.12466751, -0.6775923, -0.28691834, 0.6655917, -0.8290292, 2.9613752, 1.5041294, 0
1906, 3624867617, -0.08788781, -0.6588331, -0.28298095, 0.6914798, 3.873726, -0.27329576, 0.85119534, 0
1907, 3624884284, -0.07477702, -0.6493603, -0.28532958, 0.70095235, 3.9074223, 0.11213455, 1.3607492, 0
1908, 3624900951, -0.06572577, -0.6407361, -0.28629032, 0.709354, 2.7528427, -0.41797125, 1.9825535, 0
1911, 3624950952, -0.034051053, -0.6334971, -0.2542524, 0.72998995, 20.383333, 3.8607872, 9.549347, 0
1912, 3624967619, -0.019202076, -0.6288506, -0.24490288, 0.73770493, 4.613894, -5.45323, 1.6371756, 0
1914, 3625000953, -0.04250545, -0.60489583, -0.26031166, 0.75135875, -1.2004411, -1.398959, -1.5497351, 0
1918, 3625067621, -0.1027945, -0.54693294, -0.22814342, 0.7989093, -8.4262905, -2.4274879, 0.13390636, 0
1919, 3625084288, -0.11433211, -0.52335954, -0.22283721, 0.81447804, -0.66283214, -2.3685436, 2.4070835, 0
1921, 3625117622, -0.13305846, -0.47999325, -0.2127005, 0.8406356, 7.3946447, 6.4012, 4.7908306, 0
1922, 3625134289, -0.13813819, -0.4697651, -0.20614032, 0.8472029, 13.571957, 11.368097, 2.7785072, 0
1925, 3625184290, -0.14648008, -0.44716823, -0.19360843, 0.8608761, -0.96417546, -2.3627005, -0.2993889, 0
1926, 3625200957, -0.14752162, -0.4408428, -0.19266328, 0.86416644, -0.5281083, -0.9103876, 0.8687649, 0
1927, 3625217624, -0.1477443, -0.43545023, -0.19095099, 0.86723715, 0.3832294, 0.78628755, 0.42053413, 0
1929, 3625250958, -0.15025294, -0.4331537, -0.18146586, 0.86998844, 1.0499841, 0.6935037, 1.5265226, 0
1931, 3625284292, -0.14936134, -0.4331725, -0.17494477, 0.8714672, 3.1491182, -0.63405603, -0.47906017, 0
1933, 3625317626, -0.14353344, -0.4328171, -0.17570972, 0.87246853, 0.84735686, 2.0805812, -0.83880806, 0
1935, 3625350960, -0.13821065, -0.4370214, -0.1773563, 0.87089765, 1.0218705, 2.2001646, 0.048908234, 0
1938, 3625400961, -0.13547337, -0.43960604, -0.17290583, 0.87092185, -3.4284094E-4, 0.4862505, -0.5680504, 0
1939, 3625417628, -0.13450381, -0.44024485, -0.17113094, 0.8710999, 0.67726636, 0.9707859, 0.47643948, 0
1941, 3625450962, -0.13252844, -0.44435722, -0.16866985, 0.8697937, -1.4105729, -0.5400217, -1.2824659, 0
1942, 3625467629, -0.13204262, -0.4460942, -0.16689959, 0.8693198, -0.68040675, -0.035883833, 0.0861063, 0
1945, 3625517630, -0.13162403, -0.43718198, -0.15880927, 0.8754053, -1.5760614, 0.4116366, 1.0595407, 0
1946, 3625534297, -0.13163222, -0.4339172, -0.15491444, 0.87772316, -2.0748127, -1.0447735, 1.2555952, 0
1948, 3625567631, -0.1323962, -0.43529773, -0.15044308, 0.87770236, -1.2063743, -2.0764277, -0.5730419, 0
1949, 3625584298, -0.1339244, -0.43986368, -0.14912717, 0.87541574, -2.009399, -2.2620513, 0.5190697, 0
1952, 3625634299, -0.1358558, -0.4610296, -0.15123416, 0.8637886, -1.8299156, -0.40878513, 0.9780941, 0
1954, 3625667633, -0.14184946, -0.47106767, -0.15303689, 0.8570655, -3.1451359, -1.2798616, 0.29443836, 0
1956, 3625700967, -0.15757428, -0.4777067, -0.1637803, 0.8486166, -1.4329629, -0.50204504, -1.3802214, 0
1958, 3625734301, -0.18398827, -0.47135866, -0.18249439, 0.8430142, 1.2429218, 1.8626083, 1.489914, 0
1960, 3625767635, -0.21060842, -0.45712143, -0.19539982, 0.8417308, -0.7354874, -1.5415509, 0.2618351, 0
1961, 3625784302, -0.22313696, -0.45029452, -0.20530123, 0.8398236, -0.47573876, -2.2899737, 0.7148161, 0
1962, 3625800969, -0.23190007, -0.44478583, -0.21406421, 0.83819586, -0.014694524, -2.2590234, -1.4279871, 0
1965, 3625850970, -0.23195714, -0.43490282, -0.22064146, 0.84165347, 0.03513741, -0.42589176, 0.33222485, 0
1966, 3625867637, -0.229465, -0.43340513, -0.22088109, 0.84304506, -2.2725952, -0.9794932, -0.29023266, 0
1968, 3625900971, -0.22665036, -0.43815207, -0.22312775, 0.8407582, -2.8912442, -1.7277777, -3.7646117, 0
1969, 3625917638, -0.22446606, -0.43962157, -0.22490226, 0.840104, -3.3899226, -3.3985314, -4.7102737, 0
1973, 3625984306, -0.21326044, -0.40716934, -0.23080508, 0.85759556, -1.3458772, 1.3472872, 4.781152, 0
1975, 3626017640, -0.21055575, -0.40617046, -0.23356752, 0.85798955, 3.0004044, -0.7503777, 2.3271475, 0
1976, 3626034307, -0.20953694, -0.4052517, -0.23443702, 0.8584361, 0.6038536, -0.48888576, -0.13311386, 0
1979, 3626084308, -0.20924638, -0.4017344, -0.22996028, 0.8613663, 1.7701846, 2.7771876, 0.781209, 0
1980, 3626100975, -0.20943, -0.39999843, -0.22704819, 0.8629004, 1.9972255, 1.0816485, 0.0728569, 0
1981, 3626117642, -0.20924358, -0.39855203, -0.22443382, 0.86429775, 2.6542926, -1.1338116, -0.19351006, 0
1983, 3626150976, -0.20859897, -0.39702404, -0.22231852, 0.8657024, 1.888787, 0.58928084, -0.1300354, 0
1985, 3626184310, -0.20828086, -0.3946783, -0.22030269, 0.86736554, 1.5706568, 1.5452267, -0.15365314, 0
1987, 3626217644, -0.20771179, -0.39190555, -0.21622014, 0.8697831, 1.703287, 1.4655982, 0.2906847, 0
1988, 3626234311, -0.2074576, -0.39039645, -0.21381882, 0.87111497, 3.839203, 2.0270662, 1.3891344, 0
1989, 3626250978, -0.2070454, -0.38981053, -0.21191695, 0.87193984, 2.8816288, 1.0037546, -0.85844994, 0
1992, 3626300979, -0.20608942, -0.3896528, -0.20861508, 0.87303233, 2.2847288, 1.7764121, -0.7651243, 0
1993, 3626317646, -0.2055515, -0.38996768, -0.20826304, 0.87310255, 1.6277832, 1.397118, -0.5431938, 0
1995, 3626350980, -0.2044743, -0.39140707, -0.20709419, 0.87298954, 1.5098926, 0.72060233, -0.85738087, 0
1996, 3626367647, -0.20379734, -0.392454, -0.20661882, 0.8727902, 1.2569793, 0.9634145, -0.87863064, 0
1999, 3626417648, -0.20096886, -0.39466617, -0.20555903, 0.8726989, 1.8848957, 0.08509306, 0.005511284, 0
2000, 3626434315, -0.1996494, -0.39515468, -0.20543806, 0.8728093, 0.67386454, 0.3918047, 0.5476513, 0
2002, 3626467649, -0.19756609, -0.39694405, -0.20584382, 0.8723756, -0.06316409, 0.24807155, -1.4833202, 0
2003, 3626484316, -0.19711237, -0.3985055, -0.20552829, 0.87184066, 4.439526E-4, 0.5329309, -0.28295994, 0
2007, 3626550984, -0.19541198, -0.40642342, -0.20295955, 0.869166, 1.3678508, 0.33512998, 0.3448019, 0
2008, 3626567651, -0.19485182, -0.4086991, -0.20252989, 0.8683245, 0.39531407, -0.63373774, -1.0352297, 0
2010, 3626600985, -0.19359133, -0.4127416, -0.2011866, 0.86700547, 1.248266, 0.5332312, 0.27641582, 0
2012, 3626634319, -0.19293153, -0.41510117, -0.19966944, 0.86637664, 0.27369693, 0.74110496, 0.04927826, 0
2014, 3626667653, -0.19321573, -0.41889855, -0.19727354, 0.8650333, 0.022190198, -0.8098845, -0.58317375, 0
2015, 3626684320, -0.19354661, -0.42102933, -0.1961078, 0.8641895, 0.5882701, -0.21546403, 0.00374794, 0
2016, 3626700987, -0.19346151, -0.42337656, -0.19540901, 0.8632196, 0.19507903, -0.11609095, -0.3319311, 0
2019, 3626750988, -0.19253483, -0.43456915, -0.19474478, 0.8579989, -0.7253993, -0.5653738, -0.25469875, 0
2020, 3626767655, -0.19187798, -0.43834502, -0.19485241, 0.85619897, -0.8947927, -0.49716377, 0.054836273, 0
2022, 3626800989, -0.19042528, -0.4441288, -0.19541167, 0.8534108, -0.7780584, -0.24687386, 0.31208706, 0
2026, 3626867657, -0.18918763, -0.45371446, -0.19535655, 0.848643, -1.0351799, -0.20013338, 0.5895901, 0
2027, 3626884324, -0.18922783, -0.4544998, -0.19536889, 0.8482109, -1.4082115, -0.4599246, -0.35671425, 0
2029, 3626917658, -0.18787201, -0.4559133, -0.19774938, 0.8472013, -0.62520665, -1.7559773, 0.7341986, 0
2030, 3626934325, -0.187922, -0.4566841, -0.19765122, 0.84679794, -3.0834193, -1.8502231, -1.450036, 0
2033, 3626984326, -0.18856293, -0.463552, -0.19653441, 0.84317577, -2.6177926, -1.0316217, 0.34822845, 0
2034, 3627000993, -0.1893954, -0.46829793, -0.19555224, 0.840591, -3.763173, -2.1453087, -1.3529406, 0
2035, 3627017660, -0.19056703, -0.47343957, -0.19505422, 0.83755636, -2.7802646, -2.1154459, 0.014932632, 0
2037, 3627050994, -0.1926198, -0.48195896, -0.19523221, 0.83216894, -2.9994516, -1.3269126, 0.51434994, 0
2039, 3627084328, -0.19508716, -0.49377045, -0.19596663, 0.8244613, -3.5654135, -2.3310928, -0.76552486, 0
2041, 3627117662, -0.19784966, -0.50063646, -0.19735429, 0.8193153, -2.8561537, -1.4065514, 0.6709833, 0
2043, 3627150996, -0.20014021, -0.50458384, -0.2007156, 0.8155121, -3.387817, -1.8160096, 1.1775246, 0
2046, 3627200997, -0.20341319, -0.51270866, -0.20912904, 0.8074811, -0.9713463, -1.1745338, -1.9410801, 0
2047, 3627217664, -0.20368956, -0.5087829, -0.21076624, 0.8094664, -1.2290876, 0.62769634, 1.2610731, 0
2049, 3627250998, -0.20600851, -0.49464163, -0.21159507, 0.8173894, -2.1873171, 0.26673445, 0.9677992, 0
2050, 3627267665, -0.20824319, -0.48916098, -0.21158268, 0.82012016, -0.9003443, -1.2749894, 1.5866432, 0
2053, 3627317666, -0.2107327, -0.47294378, -0.21430206, 0.8282501, -1.432258, -1.5321565, -3.7836547, 0
2054, 3627334333, -0.20988956, -0.46662992, -0.21463796, 0.8319503, 0.3411674, 0.592082, -1.2423534, 0
2056, 3627367667, -0.20807354, -0.45268333, -0.21212259, 0.84071106, 0.70237625, 2.0581315, -1.0210304, 0
2057, 3627384334, -0.20670018, -0.44495597, -0.20992433, 0.8457118, -1.3261489, 0.0024410968, -0.04048729, 0
2060, 3627434335, -0.20216706, -0.4234748, -0.20979556, 0.85778266, -1.2030799, -2.145973, -0.4046812, 0
2062, 3627467669, -0.19878024, -0.4036045, -0.20946224, 0.8681723, -3.9421544, -0.68066007, -1.0449743, 0
2064, 3627501003, -0.19528084, -0.3961765, -0.20811193, 0.8727009, 4.2229486, 2.341313, 3.2098923, 0
2066, 3627534337, -0.1943743, -0.3931745, -0.20730665, 0.8744508, 4.620165, 0.45767966, 0.62456226, 0
2068, 3627567671, -0.1936261, -0.39323273, -0.20633304, 0.8748208, 3.2787352, 1.601335, -1.0962677, 0
2069, 3627584338, -0.19377556, -0.3927272, -0.20544901, 0.87522274, 2.7325454, 2.6991682, 0.32618618, 0
2070, 3627601005, -0.1940678, -0.39261377, -0.20445086, 0.8754427, 4.084819, 2.507917, -0.3960762, 0
2073, 3627651006, -0.1951566, -0.393492, -0.199447, 0.87596023, 3.2799978, 2.0176537, -0.104599, 0
2074, 3627667673, -0.19595985, -0.394481, -0.19734596, 0.87581205, 3.3127346, 2.6310284, -1.016861, 0
2076, 3627701007, -0.1973482, -0.39562854, -0.19259691, 0.8760398, 3.755103, 1.4786422, 0.13006115, 0
