sep=,
DeviceTag:,Xsens_DOT_3,,,,,,,,,,,,,,,,,
FirmwareVersion:,3.0.0,,,,,,,,,,,,,,,,,
AppVersion:,2023.6.1,,,,,,,,,,,,,,,,,
SyncStatus:,Synced,,,,,,,,,,,,,,,,,
OutputRate:,60Hz,,,,,,,,,,,,,,,,,
FilterProfile:,General,,,,,,,,,,,,,,,,,
Measurement Mode:,Sensor fusion Mode - Extended (Quaternion),,,,,,,,,,,,,,,,,
StartTime:,2025-05-05 12:06:40.090 +0200,,,,,,,,,,,,,,,,,
 2025,,,,,,,,,,,,,,,,,,,

PacketCounter,SampleTimeFine,Quat_W,Quat_X,Quat_Y,Quat_Z,FreeAcc_X,FreeAcc_Y,FreeAcc_Z,Status
1, 3593083648, -0.7268045, -0.21771538, 0.5368124, -0.36905402, 0.01824715, 0.004841067, 0.024533272, 0
2, 3593100315, -0.7268271, -0.21773243, 0.5367696, -0.36906147, -0.013003984, 0.061938625, 0.034418106, 0
3, 3593116982, -0.7268528, -0.2177288, 0.53672683, -0.36907563, -0.005401414, 0.08197019, 0.031765938, 0
4, 3593133649, -0.726915, -0.21762514, 0.5366889, -0.36906934, 0.026641402, 0.08529265, -0.033721924, 0
5, 3593150316, -0.7270345, -0.21744737, 0.5366036, -0.36906293, 0.038372256, 0.044664036, -0.022510529, 0
6, 3593166983, -0.727136, -0.21720317, 0.5366179, -0.36898607, 0.04866905, 0.015934797, 0.021678925, 0
7, 3593183650, -0.7272089, -0.21697618, 0.53668284, -0.36888123, 0.023140743, -0.007963375, 0.03227043, 0
8, 3593200317, -0.727288, -0.21674854, 0.5367283, -0.36879313, 0.027658515, -0.0516194, 0.010105133, 0
9, 3593216984, -0.72739416, -0.21647212, 0.53678226, -0.3686677, 0.005605258, -0.033395126, 0.0048923492, 0
10, 3593233651, -0.7274963, -0.21619456, 0.5368715, -0.3684986, 0.014767054, -0.0109081585, -0.0027046204, 0
11, 3593250318, -0.727573, -0.21600798, 0.5369229, -0.36838168, 0.03981973, -0.031932514, 0.012453079, 0
12, 3593266985, -0.7276351, -0.21586901, 0.53691524, -0.36835158, 0.07209679, -0.0721877, 0.016529083, 0
13, 3593283652, -0.7276748, -0.21578953, 0.53684455, -0.36842299, 0.07581694, -0.057172213, 0.007253647, 0
14, 3593300319, -0.72765535, -0.21575862, 0.53674126, -0.36863017, 0.0838187, -0.042949077, 0.06317234, 0
15, 3593316986, -0.72763723, -0.21566984, 0.536681, -0.36880532, 0.023021387, -0.03842886, 0.05504036, 0
16, 3593333653, -0.7276277, -0.21554188, 0.5366791, -0.36890164, 0.04438699, 0.084381, 0.021968842, 0
17, 3593350320, -0.7275979, -0.21546857, 0.536715, -0.36895108, -0.011072385, 0.15108587, -0.016523361, 0
18, 3593366987, -0.7275882, -0.21547759, 0.53668934, -0.3690022, 0.03149208, 0.099385485, -0.050700188, 0
19, 3593383654, -0.727614, -0.21546069, 0.5366757, -0.368981, 0.03844423, 0.011458168, -0.057258606, 0
20, 3593400321, -0.7275624, -0.2155141, 0.53665245, -0.36908522, 0.026047753, -0.071534425, -0.031094551, 0
21, 3593416988, -0.727538, -0.21550158, 0.53666455, -0.36912286, 0.015146132, -0.016687868, 0.041872025, 0
22, 3593433655, -0.72757375, -0.21546502, 0.53660995, -0.36915347, -0.005324973, 0.032937594, 0.12119484, 0
23, 3593450322, -0.7276017, -0.21543035, 0.5365531, -0.3692011, 0.035933282, 0.06536172, 0.09984112, 0
24, 3593466989, -0.7276347, -0.21532145, 0.5365579, -0.36919272, 0.031467393, 0.07094646, 0.042259216, 0
25, 3593483656, -0.7276892, -0.21517843, 0.53655875, -0.36916763, 0.017563649, 0.070309855, -0.024713516, 0
26, 3593500323, -0.72765404, -0.21513301, 0.536549, -0.36927754, 0.006002217, 0.027555237, -0.067219734, 0
27, 3593516990, -0.72761166, -0.21508965, 0.5365768, -0.36934578, -0.0034420996, -0.012338195, -0.053502083, 0
28, 3593533657, -0.7275798, -0.21498041, 0.536685, -0.36931515, -0.011585124, 0.009806687, 0.007753372, 0
29, 3593550324, -0.7275266, -0.21491134, 0.5367694, -0.36933744, -0.003501107, -0.04496712, 0.023460388, 0
30, 3593566991, -0.72745585, -0.21490507, 0.5367955, -0.36944222, 0.032642726, -0.06267868, 2.565384E-4, 0
31, 3593583658, -0.72743756, -0.2148321, 0.53682095, -0.36948383, 0.018130925, -0.037560403, 0.015469551, 0
32, 3593600325, -0.72741574, -0.21479069, 0.5368501, -0.36950842, 0.013472467, 0.022951428, 0.02291298, 0
33, 3593616992, -0.7273833, -0.21478006, 0.536822, -0.36961925, 0.07035025, 0.10971229, 0.0047750473, 0
34, 3593633659, -0.7273502, -0.21479245, 0.5367296, -0.36981165, 0.051882274, 0.027416937, 0.062820435, 0
35, 3593650326, -0.7272369, -0.21486972, 0.5366102, -0.3701621, 0.054241676, -0.05589433, 0.10359192, 0
37, 3593683660, -0.7270088, -0.21481702, 0.5365615, -0.37071142, 0.0076200035, -0.023738753, 0.057186127, 0
39, 3593716994, -0.7267634, -0.21471785, 0.5364078, -0.37147164, 0.011136309, 0.060718637, 0.001964569, 0
40, 3593733661, -0.7267154, -0.21456861, 0.5363169, -0.37178338, 0.045228295, 0.105484314, 0.021399498, 0
43, 3593783662, -0.7261913, -0.21435603, 0.5359749, -0.3734191, 0.10975514, 0.026195941, 0.013022423, 0
44, 3593800329, -0.7259465, -0.21431881, 0.53585017, -0.37409532, 0.07104717, -0.042071845, 0.00475502, 0
46, 3593833663, -0.72534055, -0.2141848, 0.5359818, -0.37515715, 0.017702226, 0.050689217, 0.019376755, 0
47, 3593850330, -0.72502387, -0.21398444, 0.53615683, -0.37563312, 0.025050439, 0.14741774, 0.010276794, 0
48, 3593866997, -0.72479665, -0.21362704, 0.5363353, -0.3760199, -0.0038734796, 0.21150003, -0.001909256, 0
50, 3593900331, -0.7245172, -0.21278968, 0.5365697, -0.3766982, 0.07258985, -0.013994649, 0.017223358, 0
51, 3593916998, -0.72439516, -0.21241544, 0.5366766, -0.37699178, 0.0757767, -0.06672253, 0.005417824, 0
52, 3593933665, -0.72425866, -0.21204658, 0.53684336, -0.37722436, 0.09134527, -0.06487136, -7.209778E-4, 0
54, 3593966999, -0.7237142, -0.21092954, 0.5377484, -0.3776065, -0.2490131, 0.3295229, -0.066363335, 0
55, 3593983666, -0.7236212, -0.2102524, 0.5380432, -0.37774223, 0.12678504, 0.026693594, 0.15959263, 0
58, 3594033667, -0.72397965, -0.20798807, 0.53883326, -0.3771827, 0.019116616, 0.06529892, 0.038990974, 0
59, 3594050334, -0.7242907, -0.2071389, 0.5389953, -0.37682047, -0.033092435, 0.018452447, 0.06910324, 0
60, 3594067001, -0.7246311, -0.20611435, 0.53931236, -0.3762741, -5.029042E-4, 0.04485419, 0.081757545, 0
62, 3594100335, -0.7253253, -0.20338747, 0.54039854, -0.37485945, -0.0489328, 0.272087, -0.21964741, 0
63, 3594117002, -0.7256957, -0.20238906, 0.54058534, -0.37441316, 0.09707704, -0.10053481, 0.32237816, 0
64, 3594133669, -0.72606117, -0.20115674, 0.5409512, -0.37384015, -0.014941394, 0.150157, 0.033501625, 0
66, 3594167003, -0.72714674, -0.19846183, 0.54135627, -0.3725819, 0.04364627, -0.10333473, 0.02003479, 0
67, 3594183670, -0.7277448, -0.19721171, 0.5414698, -0.37191215, 0.024898896, -0.1749846, -0.01281929, 0
69, 3594217004, -0.7289393, -0.19483516, 0.541672, -0.37052846, 0.04981791, -0.1614478, -0.031061172, 0
70, 3594233671, -0.7297107, -0.19332613, 0.54187363, -0.3695045, 0.073967144, -0.009604352, -0.21334934, 0
73, 3594283672, -0.7308844, -0.1912047, 0.54182386, -0.36835974, 0.14614439, -0.09496641, -0.017053604, 0
75, 3594317006, -0.7314003, -0.19018172, 0.54163307, -0.36814594, 0.20246609, -0.1974858, -0.019860268, 0
77, 3594350340, -0.73156023, -0.1898825, 0.54116803, -0.36866564, 0.14104606, -0.16085532, 0.063884735, 0
78, 3594367007, -0.7314656, -0.1898985, 0.54099536, -0.3690986, 0.1553804, -0.11472504, 0.02076912, 0
79, 3594383674, -0.7312682, -0.19003597, 0.5408269, -0.36966592, 0.14651051, -0.07876568, -0.009630203, 0
81, 3594417008, -0.73071843, -0.19069709, 0.54032236, -0.37114707, 0.21099444, -0.11650948, -0.061326027, 0
82, 3594433675, -0.73040867, -0.19115399, 0.5399803, -0.37201887, 0.18810269, -0.069007084, 0.0017852783, 0
83, 3594450342, -0.7300501, -0.19166234, 0.53964025, -0.37295344, 0.20863682, -0.011117674, 0.042155266, 0
85, 3594483676, -0.72921884, -0.19255564, 0.5391308, -0.37485117, 0.17584166, 0.009614466, 0.086128235, 0
86, 3594500343, -0.7288015, -0.19285956, 0.5389888, -0.37570992, 0.17392258, 0.048065037, -0.0020170212, 0
90, 3594567011, -0.7273556, -0.19384131, 0.5387101, -0.37839648, -0.024314962, 0.073563, 0.02773285, 0
92, 3594600345, -0.72711706, -0.19369361, 0.5390857, -0.3783961, -0.048367757, 0.14897351, -0.1438055, 0
93, 3594617012, -0.72719085, -0.19346018, 0.53930897, -0.3780551, -0.030048635, 0.16183212, -0.1077404, 0
94, 3594633679, -0.7273146, -0.19323981, 0.5395283, -0.37761676, -0.050384738, 0.109159954, -0.053809166, 0
96, 3594667013, -0.72741014, -0.19244441, 0.54040754, -0.3765802, -0.07168731, 0.05410293, -0.03800106, 0
97, 3594683680, -0.72763014, -0.19199412, 0.54081994, -0.3757923, -0.047153186, 0.04060289, 0.15162754, 0
98, 3594700347, -0.72783536, -0.19141108, 0.5414096, -0.3748421, -0.06953578, 0.09974657, 0.018712997, 0
100, 3594733681, -0.72831506, -0.18992552, 0.54251236, -0.37306732, 0.022429526, -0.025375035, -0.09466648, 0
101, 3594750348, -0.72859347, -0.1893651, 0.5430433, -0.3720344, -0.03869993, 0.026607038, -0.095080376, 0
102, 3594767015, -0.7288648, -0.18894541, 0.5435001, -0.37104785, -0.02163516, 0.018711247, -0.03488922, 0
104, 3594800349, -0.72935635, -0.18822317, 0.5445063, -0.36896807, 0.025285574, 0.066904634, 0.018184662, 0
105, 3594817016, -0.7296363, -0.18791923, 0.5448994, -0.36798772, 0.008767072, 0.002341326, 0.00687027, 0
106, 3594833683, -0.72989637, -0.1876799, 0.54527575, -0.3670358, -0.032390602, -0.06476369, -0.012509346, 0
109, 3594883684, -0.73052883, -0.18727836, 0.54618675, -0.36462018, 0.032818407, 0.07134785, 0.09093952, 0
110, 3594900351, -0.7306932, -0.18729988, 0.5463795, -0.3639904, 0.05414199, 0.02332531, 0.1424799, 0
112, 3594933685, -0.73093694, -0.18743238, 0.54675597, -0.36286563, 0.07604, -0.04996252, 0.0061445236, 0
113, 3594950352, -0.7310154, -0.18757102, 0.5467958, -0.36257592, 0.040349007, -0.14664444, 0.0058231354, 0
114, 3594967019, -0.73099697, -0.1877867, 0.5468483, -0.36242193, 0.039979763, -0.13975705, 0.016469002, 0
116, 3595000353, -0.73083854, -0.18849953, 0.54675204, -0.36251673, 0.0772881, -0.04985557, 0.03264618, 0
118, 3595033687, -0.73059136, -0.18943635, 0.54641104, -0.3630407, 0.13986681, -0.097315, -0.03809166, 0
120, 3595067021, -0.7301035, -0.19060804, 0.5461025, -0.36387217, 0.14367235, -0.12354458, 0.06749916, 0
121, 3595083688, -0.7298361, -0.19114658, 0.5460511, -0.3642031, 0.13395579, -0.048484404, 0.044395447, 0
123, 3595117022, -0.7293995, -0.1922798, 0.5455835, -0.36518037, 0.124924175, 0.023279404, 0.021932602, 0
124, 3595133689, -0.72916317, -0.19300327, 0.5450942, -0.3660004, 0.115547255, -0.14531516, 0.09643459, 0
125, 3595150356, -0.7288217, -0.19380485, 0.5446261, -0.36695272, 0.13687532, -0.22446625, 0.14148521, 0
127, 3595183690, -0.7279325, -0.19537875, 0.54385555, -0.36902004, 0.10663356, -0.017040627, 0.17765713, 0
128, 3595200357, -0.72744715, -0.19600886, 0.54353404, -0.37011516, 0.011629379, 0.014829442, 0.09333801, 0
129, 3595217024, -0.7269941, -0.19652142, 0.543207, -0.37121233, 0.02495701, -0.0068424023, 0.045479774, 0
131, 3595250358, -0.7260882, -0.1974368, 0.54273033, -0.37319106, 0.021177405, 0.0062039373, -0.11994743, 0
133, 3595283692, -0.72533405, -0.19844967, 0.54211056, -0.3750168, 0.046537187, -0.044453792, 0.05173111, 0
135, 3595317026, -0.72464854, -0.19939123, 0.5414979, -0.37672406, -0.007227962, -0.106333464, 0.07128048, 0
136, 3595333693, -0.72415704, -0.19970286, 0.5414448, -0.37757957, -0.06594481, -0.05914505, -0.09089565, 0
137, 3595350360, -0.7236446, -0.19987893, 0.5415725, -0.37828442, -0.117812335, 0.1389675, -0.18820667, 0
139, 3595383694, -0.72297466, -0.20074442, 0.5413752, -0.37938792, -0.207665, -0.040629823, 0.14470291, 0
140, 3595400361, -0.7226441, -0.20102474, 0.5416919, -0.37941772, -0.25728953, 0.23599488, 0.181386, 0
141, 3595417028, -0.7223124, -0.2012856, 0.54187137, -0.37965485, -0.23423085, 0.28858927, 0.059886932, 0
143, 3595450362, -0.7220478, -0.20116515, 0.5422128, -0.37973413, -0.0066861664, 0.16870554, 0.060842514, 0
144, 3595467029, -0.72205406, -0.20093212, 0.54228437, -0.3797437, 0.05356667, 0.14727129, 0.08228493, 0
145, 3595483696, -0.72198874, -0.20087793, 0.5423451, -0.37980962, 0.084859826, 0.05241865, 0.12261295, 0
148, 3595533697, -0.7213959, -0.20081761, 0.54331124, -0.3795874, -0.07183796, 0.241256, -0.19690323, 0
150, 3595567031, -0.72190696, -0.2004801, 0.5427785, -0.37955606, 0.15994051, -0.22332188, -0.021056175, 0
151, 3595583698, -0.72182435, -0.20083617, 0.54261535, -0.37975794, 0.22920136, -0.45914876, 0.08830738, 0
152, 3595600365, -0.72137934, -0.20150772, 0.54275143, -0.38005325, 0.20850496, -0.42307237, 0.12728024, 0
154, 3595633699, -0.7203981, -0.20279494, 0.5427992, -0.38115996, 0.21543877, -0.04890086, 0.005293846, 0
155, 3595650366, -0.7200604, -0.20346466, 0.542451, -0.38193637, 0.17400663, -0.073822, 0.053736687, 0
156, 3595667033, -0.71952975, -0.20456165, 0.5419184, -0.38310468, 0.25894925, -0.28831267, 0.19340515, 0
158, 3595700367, -0.7175018, -0.20755266, 0.54150605, -0.38587236, 0.17120199, -0.32094136, 0.19241619, 0
159, 3595717034, -0.7163713, -0.20828117, 0.5421618, -0.3866589, -0.1437291, 0.3367235, -0.13311768, 0
162, 3595767035, -0.71312445, -0.21068673, 0.5425493, -0.39079195, -0.03778665, 0.46912906, -0.37521076, 0
164, 3595800369, -0.7119608, -0.2121444, 0.5419924, -0.39289176, 0.02897756, 0.18461393, -0.088027, 0
166, 3595833703, -0.7113107, -0.21270469, 0.5411826, -0.3948778, -0.1710719, 0.5164651, 0.33186245, 0
167, 3595850370, -0.71115214, -0.21260369, 0.54063135, -0.39597175, -0.14078544, 0.20253408, 0.14850044, 0
168, 3595867037, -0.71082836, -0.21258438, 0.54013455, -0.39723903, -0.0926117, -0.18609767, 0.016929626, 0
170, 3595900371, -0.70987326, -0.21308756, 0.53916776, -0.39998147, -0.06000965, -0.056380976, -0.03506279, 0
171, 3595917038, -0.7096141, -0.21312913, 0.538749, -0.40098226, -0.0078073074, 0.37843895, 0.020253181, 0
172, 3595933705, -0.7098134, -0.2128026, 0.5380829, -0.4016965, 5.3196083E-5, 0.5556286, 0.088253975, 0
174, 3595967039, -0.7110683, -0.21133137, 0.5364966, -0.4023748, -0.2394843, 0.2619362, 0.12685299, 0
175, 3595983706, -0.7114207, -0.2107654, 0.53602016, -0.4026839, -0.28512385, -0.28508458, -0.017001152, 0
177, 3596017040, -0.7121766, -0.20958391, 0.5353542, -0.40285015, -0.10798224, -0.3467239, 0.029500008, 0
179, 3596050374, -0.71339834, -0.20816864, 0.53352046, -0.40385395, 0.2084768, -0.26033524, 0.47619724, 0
181, 3596083708, -0.7130534, -0.20731455, 0.53171784, -0.40726525, 0.45196733, -0.7267554, 0.35127354, 0
182, 3596100375, -0.7123962, -0.20707741, 0.5307832, -0.40974736, 0.722646, -0.8006007, 0.13389206, 0
183, 3596117042, -0.7116053, -0.20711108, 0.5295716, -0.41266227, 0.55553114, -0.60817677, 0.018702507, 0
185, 3596150376, -0.70893556, -0.20845379, 0.52709043, -0.4196982, 0.28409392, -0.112463616, -0.09156895, 0
186, 3596167043, -0.7072625, -0.20914873, 0.5260833, -0.42342222, 0.20623183, 0.26991385, -0.05255699, 0
187, 3596183710, -0.7056545, -0.20994097, 0.5250379, -0.42699528, 0.029655252, 0.41131687, 0.024697304, 0
189, 3596217044, -0.7024506, -0.21174239, 0.5232063, -0.43358585, 0.009319931, 0.31095144, -0.16935444, 0
190, 3596233711, -0.7007634, -0.21245655, 0.52267545, -0.4365965, -0.012176539, 0.36129132, -0.41886997, 0
193, 3596283712, -0.6973447, -0.21438347, 0.52134657, -0.44267523, -0.0790306, 0.59152466, -0.06284714, 0
194, 3596300379, -0.6967404, -0.21446261, 0.5213163, -0.44362265, -0.050546113, 0.76480424, -0.04259777, 0
195, 3596317046, -0.69644505, -0.21421635, 0.52157384, -0.44390255, -0.18508482, 0.7787091, -0.15326881, 0
197, 3596350380, -0.6964513, -0.21329892, 0.52240753, -0.44335413, -0.027331164, 0.26655093, -0.29390144, 0
198, 3596367047, -0.6963199, -0.21309839, 0.5229071, -0.44306806, -0.065847814, 0.13193785, -0.17608547, 0
199, 3596383714, -0.69614863, -0.21290798, 0.5233697, -0.4428821, -0.052373555, 0.36359182, -0.04523945, 0
201, 3596417048, -0.69609445, -0.21249583, 0.5244169, -0.44192562, -0.12497816, 0.4940264, 0.18700886, 0
202, 3596433715, -0.6963375, -0.21200699, 0.5250624, -0.44100997, -0.15665308, 0.57273865, 0.09895897, 0
204, 3596467049, -0.69705397, -0.21116716, 0.52637786, -0.438707, -0.11413376, 0.30058113, -0.11912632, 0
205, 3596483716, -0.69741726, -0.2107023, 0.5270083, -0.43759495, -0.07193854, 0.28691432, -0.08773422, 0
208, 3596533717, -0.69909143, -0.20855868, 0.528354, -0.4343152, -0.01993065, 0.10810997, 0.058703423, 0
209, 3596550384, -0.699729, -0.20792383, 0.52863294, -0.43325216, 0.07807218, -0.046170317, 0.07618809, 0
210, 3596567051, -0.7002423, -0.20734407, 0.52897614, -0.43228075, 0.099263, -0.07184472, 0.15758419, 0
212, 3596600385, -0.7008481, -0.20620951, 0.5300534, -0.43051872, 0.028389275, -0.050991043, -0.11800575, 0
213, 3596617052, -0.7011799, -0.2054843, 0.5305249, -0.42974368, 0.0681786, -0.053189907, -0.22803402, 0
214, 3596633719, -0.7016009, -0.2047241, 0.5307541, -0.4291361, 0.11263712, -0.15817223, -0.1579094, 0
216, 3596667053, -0.7024698, -0.20352766, 0.5309404, -0.42805174, 0.131089, -0.18540221, 0.09132671, 0
217, 3596683720, -0.7028868, -0.20311818, 0.5311153, -0.42734435, 0.08122058, -0.055726223, 0.122826576, 0
218, 3596700387, -0.70327574, -0.20272082, 0.53134584, -0.42660567, -0.03946881, -0.0017626791, 0.0780983, 0
220, 3596733721, -0.70406497, -0.2017635, 0.53167146, -0.4253501, 0.008397382, -0.20650879, 0.07880592, 0
222, 3596767055, -0.7047913, -0.20084645, 0.5317744, -0.42445177, 0.066393666, -0.28745693, 0.14694977, 0
224, 3596800389, -0.7055531, -0.19970481, 0.5319395, -0.42351663, 0.06676913, -0.014118223, 0.023331642, 0
225, 3596817056, -0.7060655, -0.19903353, 0.53194195, -0.4229753, 0.037754916, 0.0045573176, -0.06531334, 0
226, 3596833723, -0.7065878, -0.19834167, 0.5320685, -0.42226863, -0.03129226, 0.043993022, -0.09823799, 0
228, 3596867057, -0.7074772, -0.19719937, 0.5326179, -0.42061847, -0.11887223, 0.026417108, -0.028294563, 0
229, 3596883724, -0.7080162, -0.19652314, 0.53285944, -0.4197212, -0.10925447, 0.10589055, 0.0061187744, 0
231, 3596917058, -0.70919675, -0.19514391, 0.53325504, -0.41786516, -0.11176095, -0.0012500242, 0.066456795, 0
232, 3596933725, -0.70984846, -0.19435598, 0.53348213, -0.41683468, -0.03668339, 0.06245544, 0.026906013, 0
233, 3596950392, -0.7105715, -0.19351453, 0.53367215, -0.41574937, -0.04230653, 1.6408645E-4, 0.05621147, 0
235, 3596983726, -0.71213186, -0.19164844, 0.53428185, -0.4131529, -0.041602913, 0.054998465, 0.04028797, 0
237, 3597017060, -0.7136562, -0.18948284, 0.53508824, -0.4104692, 0.07198637, -0.016540155, -0.09723663, 0
239, 3597050394, -0.715093, -0.18752784, 0.53553444, -0.40827882, 0.14892624, -0.089136116, 0.03049469, 0
240, 3597067061, -0.71581984, -0.18669763, 0.53563744, -0.40724877, 0.13175015, -0.06293566, 0.10696602, 0
241, 3597083728, -0.7164613, -0.18592617, 0.53583086, -0.40621844, 0.22144412, 0.010215939, 0.11559391, 0
243, 3597117062, -0.7176383, -0.18422087, 0.5364111, -0.40414658, 0.233622, 0.09114741, 0.11442089, 0
244, 3597133729, -0.71819043, -0.18327855, 0.536706, -0.40320152, 0.25373816, 0.06913183, 0.06455994, 0
245, 3597150396, -0.71870095, -0.18235728, 0.5369879, -0.4023335, 0.20465472, 0.010865887, 1.2397766E-5, 0
247, 3597183730, -0.71941155, -0.18103468, 0.5374182, -0.40108383, 0.17993642, -0.066792585, -0.06071472, 0
248, 3597200397, -0.71969306, -0.1806168, 0.5374785, -0.40068632, 0.19238698, -0.09151306, -0.031567574, 0
249, 3597217064, -0.71991664, -0.18032297, 0.53758645, -0.40027216, 0.10360764, -0.059715245, 0.04450226, 0
251, 3597250398, -0.7201831, -0.17987195, 0.53808975, -0.39931867, 0.059952434, 0.05211593, -0.013382912, 0
252, 3597267065, -0.7203852, -0.17952909, 0.5382868, -0.39884228, 0.15150066, 0.10427354, -0.093850136, 0
253, 3597283732, -0.7207427, -0.17913207, 0.5382885, -0.3983723, 0.16594854, 0.11101701, -0.060071945, 0
255, 3597317066, -0.7218437, -0.17849906, 0.537976, -0.39708275, 0.21424174, 0.10676417, 0.09216404, 0
256, 3597333733, -0.7225179, -0.17833206, 0.53754455, -0.3965156, 0.23372884, -0.018957699, 0.16862679, 0
258, 3597367067, -0.72367346, -0.17800406, 0.5367838, -0.39558518, 0.23073556, -0.029469863, 0.16909218, 0
259, 3597383734, -0.7241796, -0.1777235, 0.536473, -0.3952069, 0.239162, 0.07047135, 0.14238739, 0
260, 3597400401, -0.7246412, -0.1773905, 0.53613, -0.39497557, 0.2047553, 0.047382735, 0.07879734, 0
262, 3597433735, -0.72507405, -0.17698316, 0.5355195, -0.39519224, 0.10176992, -0.058534633, -0.100940704, 0
264, 3597467069, -0.7250347, -0.17692567, 0.5353111, -0.39557213, 0.07700066, 0.14755465, -0.09692764, 0
266, 3597500403, -0.7254923, -0.17661701, 0.53533626, -0.3948362, 0.059740543, 0.2873354, -0.020051003, 0
267, 3597517070, -0.7258736, -0.17652436, 0.53530127, -0.3942241, 0.0985035, 0.084021345, -0.016991615, 0
268, 3597533737, -0.7476507, -0.14182962, 0.5283898, -0.3764574, -2.5706725, -1.5805312, 19.48562, 1024
270, 3597567071, -0.73166734, -0.11577361, 0.57008237, -0.35535705, -4.631628, -8.518467, -21.88352, 0
271, 3597583738, -0.7361696, -0.13008258, 0.5647394, -0.34959328, -1.9747634, 5.9404187, 6.185873, 0
272, 3597600405, -0.735213, -0.13374774, 0.5671893, -0.34624124, 2.4579082, 1.9100264, 5.322983, 0
274, 3597633739, -0.73483217, -0.13317655, 0.55942255, -0.35964644, 0.12614758, -4.386026, 0.08486843, 0
275, 3597650406, -0.7305546, -0.14676434, 0.55693984, -0.3668537, 0.6925491, -4.056626, 0.2995758, 0
276, 3597667073, -0.7343923, -0.14893441, 0.54597783, -0.37471062, 0.09002342, 0.075290196, -0.029986382, 0
279, 3597717074, -0.7323482, -0.15657185, 0.5431979, -0.3796059, -0.5274785, 0.18209425, -0.61423016, 0
281, 3597750408, -0.73147666, -0.15756947, 0.5419615, -0.38262886, -0.520542, 0.039634448, -0.15592194, 0
282, 3597767075, -0.73125577, -0.15800644, 0.54160833, -0.3833701, -0.56249183, -0.13383788, -0.19431305, 0
283, 3597783742, -0.7312978, -0.15828891, 0.54129046, -0.38362217, -0.44364774, -0.2918099, -0.11762428, 0
285, 3597817076, -0.7314951, -0.15863304, 0.5409811, -0.3835402, -0.26235548, 0.14928767, -0.1635437, 0
286, 3597833743, -0.73153687, -0.15877983, 0.5409403, -0.38345754, -0.16918813, 0.20427929, 0.07991314, 0
287, 3597850410, -0.7315826, -0.1588205, 0.54095405, -0.38333398, -0.12012033, -0.024794076, 0.17837143, 0
289, 3597883744, -0.7315516, -0.15889652, 0.54136807, -0.38277677, -0.17273931, -0.29395476, -0.043854713, 0
290, 3597900411, -0.7313182, -0.15914023, 0.54191005, -0.38235468, -0.21107177, -0.19201472, -0.1667862, 0
291, 3597917078, -0.73094875, -0.15961385, 0.5425535, -0.38195068, -0.21218354, -0.058967154, -0.1890831, 0
294, 3597967079, -0.7301263, -0.16089526, 0.5433207, -0.38189548, 0.024207348, 0.02144604, 0.14929962, 0
295, 3597983746, -0.72986937, -0.16121422, 0.5432565, -0.38234305, 0.03209199, -0.040421255, 0.15884781, 0
297, 3598017080, -0.7293257, -0.16196953, 0.5430036, -0.38341936, -0.031132225, 0.01307942, 0.07618332, 0
298, 3598033747, -0.72914165, -0.16237342, 0.54272795, -0.38398826, -0.051903285, 0.06808988, 0.0691843, 0
299, 3598050414, -0.7290295, -0.16273832, 0.54245853, -0.38442713, -0.10980119, 0.104833, -0.008583069, 0
301, 3598083748, -0.72904646, -0.16323538, 0.5421176, -0.384665, -0.13970499, 0.10696555, -0.16658878, 0
302, 3598100415, -0.7291508, -0.16333503, 0.54196674, -0.3846375, -0.15255877, 0.13652974, -0.13528538, 0
303, 3598117082, -0.72934306, -0.16326869, 0.5418119, -0.3845194, -0.094828054, 0.16879426, 0.015174866, 0
305, 3598150416, -0.7298434, -0.16293614, 0.54167295, -0.3839063, -0.01950704, 0.16309339, 0.17315388, 0
306, 3598167083, -0.730099, -0.16269113, 0.5417397, -0.38342968, -0.0052172393, 0.16140406, 0.1301651, 0
309, 3598217084, -0.7309478, -0.16172981, 0.54194635, -0.38192457, -0.028512653, -0.006881573, -0.007925034, 0
310, 3598233751, -0.7312024, -0.16142276, 0.5420175, -0.38146552, -0.058089677, 0.016870115, -0.013750076, 0
312, 3598267085, -0.7318032, -0.16059773, 0.5422375, -0.38034743, -0.06375573, 0.030752407, -0.09193516, 0
313, 3598283752, -0.7320883, -0.16019076, 0.5423822, -0.3797639, -0.09269217, -0.0058077956, -0.095843315, 0
314, 3598300419, -0.7323902, -0.15980817, 0.5424914, -0.37918672, -0.053850528, 2.14768E-4, -0.0996685, 0
316, 3598333753, -0.7328963, -0.15929069, 0.5428798, -0.37786785, -0.09977306, 0.020336717, -0.012729645, 0
317, 3598350420, -0.7330625, -0.15915738, 0.5431976, -0.37714455, -0.10158396, 0.027013412, 0.060890198, 0
318, 3598367087, -0.7332357, -0.15897982, 0.54354626, -0.37637937, -0.022844365, 0.08950866, 0.090153694, 0
320, 3598400421, -0.73354787, -0.15856306, 0.5440792, -0.37517518, -0.029358873, -0.0692716, 0.06342125, 0
321, 3598417088, -0.733594, -0.15843388, 0.54432267, -0.37478578, 0.026747977, -0.13522229, 0.016478539, 0
322, 3598433755, -0.7336187, -0.15835011, 0.5445018, -0.37451315, 0.020637846, -0.11358036, -9.126663E-4, 0
324, 3598467089, -0.7336772, -0.15835883, 0.5446905, -0.37411994, -0.012261027, -0.048774816, -0.0013122559, 0
325, 3598483756, -0.7337059, -0.15845242, 0.54476255, -0.37391913, -0.07625502, -0.015961291, -0.008820534, 0
326, 3598500423, -0.7337788, -0.15853761, 0.54474926, -0.37375966, -0.081674315, 0.0016726312, 0.0058460236, 0
328, 3598533757, -0.7339181, -0.15875559, 0.54470783, -0.37345347, -0.009984324, 0.04339906, 0.123737335, 0
329, 3598550424, -0.7339594, -0.15883122, 0.5446443, -0.37343282, 0.023006188, 0.050952222, 0.13584709, 0
330, 3598567091, -0.73397374, -0.15885378, 0.54459184, -0.37347144, 0.023477353, -0.049981166, 0.11096001, 0
332, 3598600425, -0.7339307, -0.15892023, 0.5445533, -0.3735842, -0.006590503, -0.05109387, -0.03184223, 0
333, 3598617092, -0.7339574, -0.1589404, 0.54447, -0.37364453, 0.026361117, 0.03451587, -0.053024292, 0
336, 3598667093, -0.73409307, -0.1589372, 0.54424363, -0.37370872, 0.06789787, 0.078721516, -0.007993698, 0
337, 3598683760, -0.73411894, -0.15889691, 0.54423827, -0.37368286, 0.037601583, 0.072112575, -0.014831543, 0
339, 3598717094, -0.7342599, -0.15881228, 0.5441659, -0.37354732, 0.019384831, 0.11436993, 0.013861656, 0
340, 3598733761, -0.73435587, -0.15871905, 0.5441498, -0.3734219, -0.0072673, 0.11237595, -0.01103878, 0
341, 3598750428, -0.7344742, -0.15859573, 0.544102, -0.3733113, 0.025953878, 0.11665051, -0.012377739, 0
343, 3598783762, -0.73465437, -0.15838441, 0.5440997, -0.37304989, 0.09942393, 0.109202616, 0.07870293, 0
344, 3598800429, -0.7347161, -0.15829211, 0.5441338, -0.37291744, 0.06809591, 0.07057415, 0.07194996, 0
345, 3598817096, -0.73479855, -0.15819381, 0.5441456, -0.3727796, 0.052192062, 0.041575722, -0.027544975, 0
347, 3598850430, -0.7592577, -0.13783647, 0.470929, -0.42751372, -5.9331784, -19.425293, 14.286882, 1024
348, 3598867097, -0.7569063, -0.13523544, 0.47538283, -0.4275849, -3.9649205, -19.643658, -14.98875, 0
351, 3598917098, -0.76263505, -0.1338921, 0.48849607, -0.4023004, -0.28163034, -3.9423122, -0.23813438, 0
352, 3598933765, -0.7630035, -0.14216544, 0.49926916, -0.38517308, -0.51872754, -3.1727571, -0.28797245, 0
353, 3598950432, -0.75676274, -0.15311934, 0.51835304, -0.36767936, 0.6198425, 0.24068943, 4.8293924, 0
355, 3598983766, -0.7478004, -0.14767817, 0.543834, -0.3510604, -1.3044753, 1.5627124, -5.7480464, 0
356, 3599000433, -0.7480514, -0.14898992, 0.54326165, -0.35085765, -0.43362945, 0.81285995, -2.072775, 0
357, 3599017100, -0.74941885, -0.14781219, 0.5419093, -0.35052913, -0.1426862, 0.28787944, 1.2041826, 0
359, 3599050434, -0.7493398, -0.14652067, 0.5424871, -0.35034648, -0.48987827, -1.0892752, -0.5920639, 0
360, 3599067101, -0.7495791, -0.14635542, 0.5418571, -0.35087836, -0.5009721, -1.1825454, -0.2290287, 0
361, 3599083768, -0.7496495, -0.14633682, 0.54131794, -0.3515669, -0.60567003, -0.8559667, -0.105651855, 0
363, 3599117102, -0.74953884, -0.14712057, 0.5401787, -0.35322416, -0.37015578, -0.04953242, -0.16518307, 0
366, 3599167103, -0.7490042, -0.1475678, 0.5386118, -0.35654885, -0.08978336, -0.15358588, 0.24923897, 0
367, 3599183770, -0.74880356, -0.14780517, 0.53815746, -0.35755673, -0.0036566718, -0.19978282, 0.24607182, 0
368, 3599200437, -0.7485462, -0.14823249, 0.537842, -0.35839266, 5.1676197E-4, -0.17055999, 0.10630798, 0
370, 3599233771, -0.748037, -0.14906774, 0.5373261, -0.35987967, 0.061975673, -0.022870034, -0.099967, 0
371, 3599250438, -0.7477442, -0.1493091, 0.53708595, -0.3607456, 0.028257495, -0.003122271, -0.17595005, 0
372, 3599267105, -0.7474312, -0.14942643, 0.53689295, -0.36163172, 0.032101378, 0.025817724, -0.16544819, 0
374, 3599300439, -0.7468761, -0.14974199, 0.5365906, -0.3630942, -0.012369207, 0.075352795, -0.089354515, 0
375, 3599317106, -0.74675506, -0.14988907, 0.5364392, -0.36350587, -0.010277126, 0.11486036, -0.079135895, 0
376, 3599333773, -0.74672675, -0.15002476, 0.53626275, -0.36376843, -0.026806356, 0.11067198, -0.0024967194, 0
378, 3599367107, -0.74670357, -0.15005428, 0.53610104, -0.3640417, 0.007575301, 0.07894611, 0.11461353, 0
380, 3599400441, -0.74659413, -0.14975108, 0.53617734, -0.36427873, -0.020454565, 0.022066673, 0.053390503, 0
382, 3599433775, -0.7464787, -0.1494925, 0.53642905, -0.3642507, -0.07778385, 0.070191376, -0.02752018, 0
383, 3599450442, -0.7465101, -0.14936638, 0.5365123, -0.36411566, -0.09965236, 0.09480565, -0.07156658, 0
384, 3599467109, -0.74658376, -0.14926937, 0.5365507, -0.36394784, -0.08699616, 0.11895907, -0.03774929, 0
386, 3599500443, -0.74679506, -0.14890172, 0.5366331, -0.36354315, -0.025454996, 0.11880155, 0.029220581, 0
387, 3599517110, -0.7469171, -0.14864472, 0.5366462, -0.36337817, -0.011898221, 0.013846593, 0.05460453, 0
388, 3599533777, -0.74705964, -0.148391, 0.53661716, -0.36323208, -0.07051744, -0.07456979, 0.039875984, 0
390, 3599567111, -0.7473595, -0.14803395, 0.5363903, -0.3630956, -0.07303196, -0.07285356, -0.0101184845, 0
391, 3599583778, -0.74748874, -0.14791334, 0.53630835, -0.36300018, -0.07279236, -0.014183318, 0.023130417, 0
393, 3599617112, -0.74776363, -0.14772506, 0.5361061, -0.36280924, -0.041732103, 0.027693983, 0.04207039, 0
394, 3599633779, -0.7478528, -0.14758949, 0.53608495, -0.36271194, -0.03623279, -0.023537558, 0.07292271, 0
395, 3599650446, -0.74790204, -0.14747111, 0.53612864, -0.3625937, -0.026228799, -0.038588814, 0.03648472, 0
397, 3599683780, -0.74797654, -0.14726391, 0.536193, -0.3624289, -0.07678877, -0.10038465, -0.047893524, 0
398, 3599700447, -0.7479978, -0.1471907, 0.53627723, -0.36229014, -0.0939112, -0.06271092, -0.029610634, 0
399, 3599717114, -0.74805266, -0.14709727, 0.53636914, -0.3620788, -0.094633594, -0.015732976, -0.030982971, 0
401, 3599750448, -0.7483249, -0.14679286, 0.53653836, -0.3613881, -0.016405404, -0.009345075, 0.03855419, 0
402, 3599767115, -0.7484917, -0.14659192, 0.5366511, -0.3609566, -0.012489457, -0.046672255, 0.01899147, 0
403, 3599783782, -0.7486529, -0.14641446, 0.53671217, -0.3606035, 0.031653903, -0.0997559, 0.0015830994, 0
405, 3599817116, -0.74889976, -0.14616413, 0.5367533, -0.36013114, -0.040602915, -0.14315458, 0.0011377335, 0
407, 3599850450, -0.7491762, -0.14594913, 0.53685224, -0.35949528, -0.052757997, -0.013439215, -0.019062996, 0
409, 3599883784, -0.749504, -0.14565659, 0.5370042, -0.35870296, 0.08104312, -0.017768372, 0.0513525, 0
410, 3599900451, -0.74963593, -0.14551888, 0.5370576, -0.35840327, 0.041895714, -0.09843449, 0.07673454, 0
411, 3599917118, -0.74973756, -0.14541303, 0.5370559, -0.35823554, 0.057231385, -0.13366754, 0.02900505, 0
413, 3599950452, -0.749854, -0.14528827, 0.53708375, -0.358001, 0.003382198, 0.0069526536, -0.044718742, 0
414, 3599967119, -0.7499181, -0.14527853, 0.53708136, -0.3578742, -0.00947382, 0.02276356, -0.03254223, 0
417, 3600017120, -0.75012505, -0.14541776, 0.53694445, -0.3575891, 0.03424263, -0.10116131, 0.0416193, 0
418, 3600033787, -0.75016767, -0.14551507, 0.53682774, -0.35763538, 0.0339771, -0.043035284, 0.074832916, 0
420, 3600067121, -0.7501222, -0.14583415, 0.53665024, -0.35786724, 0.040993392, 0.014944929, 0.06414318, 0
421, 3600083788, -0.750063, -0.14599329, 0.5366066, -0.357992, 0.012868088, 0.028948398, 0.005627632, 0
424, 3600133789, -0.75001395, -0.14644475, 0.53630316, -0.35836464, -0.03029137, 0.015566389, -0.02482891, 0
425, 3600150456, -0.7500204, -0.14661482, 0.5362212, -0.35840458, -0.020501949, 0.030038213, -0.029912949, 0
426, 3600167123, -0.7500408, -0.14679845, 0.5361249, -0.35843045, 0.020344596, 0.058003776, -0.019641876, 0
428, 3600200457, -0.75015914, -0.1471403, 0.53584594, -0.3584597, 0.003929358, 0.0813994, 0.027752876, 0
429, 3600217124, -0.7502209, -0.14730793, 0.5356683, -0.35852724, -0.019436687, 0.089861974, 0.010047913, 0
430, 3600233791, -0.74871516, -0.14794973, 0.5365479, -0.36009198, 8.904864, 15.541734, -6.5076447, 1024
432, 3600267125, -0.7323054, -0.09209815, 0.5730083, -0.3562603, -0.9086213, 1.9309535, -12.240028, 0
433, 3600283792, -0.73710144, -0.10107007, 0.5665586, -0.3542473, 1.0806912, -6.8233433, -0.477808, 0
434, 3600300459, -0.7402123, -0.10596656, 0.5651468, -0.34853888, 0.18254347, -2.5790737, 3.891121, 0
436, 3600333793, -0.74093807, -0.103421405, 0.56827337, -0.34262723, -0.19300835, -2.686574, -1.70053, 0
438, 3600367127, -0.74026686, -0.11432788, 0.5632026, -0.34892714, 0.95120007, 0.9872594, 1.9579487, 0
440, 3600400461, -0.7468591, -0.128585, 0.5487991, -0.3528462, -0.67407304, 2.5611904, -1.0657778, 0
441, 3600417128, -0.74759334, -0.12966456, 0.5473008, -0.35322255, -0.19894932, 1.4742577, -0.56904984, 0
442, 3600433795, -0.7477562, -0.13093887, 0.54612947, -0.35421968, -0.058707017, -0.4416938, -0.007370949, 0
444, 3600467129, -0.7482997, -0.13252687, 0.5435933, -0.35637605, -0.21609053, -0.7082848, -0.06483078, 0
445, 3600483796, -0.7484275, -0.13343424, 0.5425081, -0.3574212, -0.1536428, -0.5036042, 0.17344284, 0
447, 3600517130, -0.74830604, -0.13488604, 0.54080415, -0.35970524, -0.036310572, 0.09874899, 0.19548988, 0
448, 3600533797, -0.7484029, -0.13503245, 0.5399579, -0.36071914, 0.057919808, 0.31385806, 0.13551807, 0
449, 3600550464, -0.7486648, -0.13481507, 0.5390994, -0.3615398, 0.017423728, 0.29967043, 0.1026001, 0
451, 3600583798, -0.7496054, -0.13354507, 0.53768045, -0.36217475, 0.06184827, 0.23410876, 0.043245316, 0
453, 3600617132, -0.7510798, -0.13184702, 0.53593355, -0.3623316, 0.21844532, 0.18895936, 0.1218729, 0
455, 3600650466, -0.75279546, -0.12980543, 0.53349257, -0.36310968, 0.2857962, 0.14929847, 0.11768627, 0
456, 3600667133, -0.7536865, -0.12853917, 0.5320217, -0.3638689, 0.26090577, 0.079887055, 0.23796844, 0
457, 3600683800, -0.75464106, -0.12706913, 0.5304848, -0.36465, 0.2501235, 0.096334055, 0.24021053, 0
459, 3600717134, -0.7566355, -0.12411455, 0.52715755, -0.36635596, 0.13798751, 0.15024848, 0.10346317, 0
460, 3600733801, -0.7577158, -0.12250663, 0.5253412, -0.36727157, 0.09468366, 0.2464997, -0.005334854, 0
461, 3600750468, -0.7590099, -0.12081924, 0.52326226, -0.36812532, 0.16237277, 0.2987516, -0.043549538, 0
463, 3600783802, -0.7617777, -0.11731234, 0.5187488, -0.3699264, 0.2663586, 0.527298, 0.09798336, 0
464, 3600800469, -0.76307786, -0.11588351, 0.5163516, -0.37104937, 0.45924044, -0.020340713, 0.13014412, 0
465, 3600817136, -0.76472104, -0.11365116, 0.5139588, -0.37167814, 0.42414445, 0.66174155, 0.11521244, 0
467, 3600850470, -0.76735747, -0.10986338, 0.5094635, -0.37356746, 0.3013558, 0.38358533, -0.054250717, 0
468, 3600867137, -0.7686736, -0.107688084, 0.5072475, -0.3745097, 0.5377592, 0.5782171, -0.18612862, 0
470, 3600900471, -0.7718, -0.10305557, 0.5027016, -0.3755113, 0.60785306, -0.11944707, -0.09541416, 0
471, 3600917138, -0.7731493, -0.10078884, 0.5003771, -0.37645411, 0.63353854, 0.39975992, 0.16594982, 0
472, 3600933805, -0.7746357, -0.0983014, 0.4981863, -0.3769614, 0.5710372, 0.35712695, 0.101389885, 0
474, 3600967139, -0.7775011, -0.0925331, 0.4937782, -0.37832022, 0.7368936, 0.5567924, -0.051997185, 0
475, 3600983806, -0.77897835, -0.089735046, 0.49156114, -0.37884206, 0.6225904, 0.4198319, -0.3169613, 0
476, 3601000473, -0.7805724, -0.08692326, 0.4892936, -0.379152, 0.74792665, 0.5230793, -0.18968868, 0
478, 3601033807, -0.78388906, -0.081153005, 0.48448858, -0.37975824, 0.6367504, 0.15778358, -0.09491348, 0
480, 3601067141, -0.7870248, -0.07515078, 0.4794878, -0.38085315, 0.5627524, -0.3926106, -0.6127653, 0
482, 3601100475, -0.7901385, -0.069210365, 0.47389638, -0.3825268, 0.6731341, -0.36813185, -0.71676826, 0
483, 3601117142, -0.79144996, -0.067248315, 0.47085786, -0.38391525, 1.10534, 0.14248829, -0.17702293, 0
484, 3601133809, -0.79322755, -0.063810766, 0.46695715, -0.38559395, 1.3860713, 0.8331667, 0.56425285, 0
486, 3601167143, -0.7957991, -0.058871426, 0.460122, -0.38928026, 1.3122159, 0.84898907, 0.37159157, 0
487, 3601183810, -0.79729795, -0.05579994, 0.45648333, -0.39094546, 1.3457011, 0.83496004, -0.042776108, 0
488, 3601200477, -0.79865307, -0.05283021, 0.45277452, -0.39290023, 1.0417025, 0.39053336, -0.42350578, 0
490, 3601233811, -0.80172676, -0.04595311, 0.4441835, -0.39728707, 1.4474189, 0.44096684, -0.23370457, 0
491, 3601250478, -0.8032191, -0.042171054, 0.43968153, -0.39969242, 1.5760077, 0.28565136, -0.10598183, 0
492, 3601267145, -0.8045673, -0.037853844, 0.43533358, -0.40216488, 1.7193958, 0.30323085, -0.22041321, 0
495, 3601317146, -0.80805147, -0.026645944, 0.42296585, -0.40921378, 2.9249566, 0.43500504, -0.6672945, 0
496, 3601333813, -0.80901843, -0.023559377, 0.4181021, -0.41247797, 2.7962892, -0.36455163, -0.9482546, 0
498, 3601367147, -0.809024, -0.02002044, 0.40864533, -0.42202085, 2.7706897, -0.113744065, -0.7171421, 0
499, 3601383814, -0.80855066, -0.018613227, 0.40436143, -0.42708814, 2.7369688, 0.64974815, -0.7953644, 0
501, 3601417148, -0.8081419, -0.017449662, 0.3954014, -0.436203, 2.5734863, 0.7673315, -0.8145027, 0
502, 3601433815, -0.8080116, -0.017247513, 0.39082807, -0.4405525, 2.464898, -0.0014649039, -0.7851496, 0
503, 3601450482, -0.8080364, -0.01715362, 0.38619566, -0.4445775, 2.6068344, 0.5709887, -1.077673, 0
505, 3601483816, -0.80889666, -0.018132225, 0.37666586, -0.45110255, 2.2530587, 1.2032881, -1.8667612, 0
506, 3601500483, -0.8097079, -0.01947274, 0.37188548, -0.45355105, 2.2317972, 0.8220005, -2.183412, 0
507, 3601517150, -0.8108446, -0.020098053, 0.36699104, -0.45547575, 2.3585112, 1.6194786, -2.236362, 0
510, 3601567151, -0.814745, -0.024246968, 0.35078824, -0.46104646, 2.7624602, 1.2247169, -2.0567837, 0
511, 3601583818, -0.81589776, -0.026212268, 0.34618908, -0.46237475, 2.4767406, 1.0889151, -2.1156893, 0
514, 3601633819, -0.81802255, -0.029724319, 0.33607206, -0.46585888, 4.407205, 2.270875, -0.720253, 0
515, 3601650486, -0.8171736, -0.030241493, 0.33310738, -0.46943104, 5.5106153, 2.7881918, 1.0597248, 0
518, 3601700487, -0.8095066, -0.032605257, 0.32407138, -0.48849472, 4.5325756, 1.5890944, 3.4326124, 0
519, 3601717154, -0.8059555, -0.034088876, 0.3231638, -0.4948253, 3.6180916, 1.2187003, 3.6362152, 0
521, 3601750488, -0.7981326, -0.03569735, 0.32748485, -0.50445724, 1.097423, 1.4269156, 3.3356123, 0
522, 3601767155, -0.7950146, -0.0357096, 0.33114797, -0.50698215, -0.461282, 0.67536277, 2.6418009, 0
524, 3601800489, -0.79271847, -0.035959274, 0.33641508, -0.5070923, -2.0264764, -0.51420194, 4.8429127, 0
525, 3601817156, -0.79287446, -0.03651454, 0.33723336, -0.50626445, -1.8858799, 0.19449052, 5.536998, 0
528, 3601867157, -0.79490906, -0.03966005, 0.34052855, -0.5006001, -0.52487034, 1.0669901, 3.390459, 0
529, 3601883824, -0.7961005, -0.041522417, 0.3401647, -0.49879956, -0.030209117, 1.0021572, 2.7009096, 0
530, 3601900491, -0.79734355, -0.044008013, 0.33947235, -0.49706963, -0.11555642, 0.56766176, 1.9893351, 0
532, 3601933825, -0.7987471, -0.050441805, 0.3393361, -0.4942903, -0.056015477, 0.010554673, 1.084405, 0
533, 3601950492, -0.7990111, -0.054891177, 0.34035882, -0.49268395, 0.012952799, 0.44159293, 0.4096222, 0
534, 3601967159, -0.79937077, -0.05959923, 0.34173927, -0.4905935, 0.014466206, 0.48827797, -0.05338192, 0
536, 3602000493, -0.798867, -0.071026646, 0.34485936, -0.48770106, 0.6883511, -0.38472554, -0.04550743, 0
537, 3602017160, -0.7979936, -0.077118754, 0.34746605, -0.48635334, 0.682888, -0.013277563, -0.3158455, 0
538, 3602033827, -0.7970553, -0.0833545, 0.35008258, -0.48498496, 0.5441633, 0.8411031, -0.91197777, 0
540, 3602067161, -0.7947546, -0.09475329, 0.35596237, -0.48238057, 0.09701803, 1.0246011, -1.365819, 0
541, 3602083828, -0.7934936, -0.09958409, 0.36000046, -0.48048288, -0.0070927367, 1.3448308, -1.4417639, 0
542, 3602100495, -0.792549, -0.10568616, 0.3635805, -0.47803664, 0.82545125, 0.7656675, -1.0608435, 0
544, 3602133829, -0.790667, -0.12075262, 0.3689033, -0.47348508, 0.73879147, 0.8056614, -0.4228859, 0
545, 3602150496, -0.79000163, -0.12890126, 0.37127966, -0.47058114, 1.0798103, 0.6362226, 0.018144608, 0
546, 3602167163, -0.7886726, -0.13589671, 0.37430832, -0.4684379, 1.458793, 0.48496792, 0.08421421, 0
548, 3602200497, -0.78447676, -0.15041026, 0.37985638, -0.4665782, 1.2112287, 0.48218998, -0.19067383, 0
549, 3602217164, -0.7820134, -0.15728837, 0.38243482, -0.466339, 0.47471157, 1.3573408, -0.47803974, 0
550, 3602233831, -0.7798243, -0.16455145, 0.38517785, -0.46523997, 0.56298333, 0.70260215, -1.0496969, 0
552, 3602267165, -0.7726346, -0.1798119, 0.39242965, -0.46552765, 0.26252905, 1.1013314, -1.4921436, 0
555, 3602317166, -0.76021135, -0.20248884, 0.40402472, -0.4667487, 0.012332104, 0.8327186, -1.5280533, 0
556, 3602333833, -0.75694513, -0.20920272, 0.4065374, -0.46691412, -0.26846543, 1.4473766, -0.85504436, 0
557, 3602350500, -0.7543524, -0.21504995, 0.40894973, -0.46634692, -0.3017436, 1.6157383, -0.62384224, 0
559, 3602383834, -0.74715555, -0.2307064, 0.412857, -0.46700734, 0.49747503, 0.71769726, -0.7271099, 0
560, 3602400501, -0.7441305, -0.2374408, 0.4141584, -0.46730894, 0.5884808, 0.5984667, -0.4701681, 0
561, 3602417168, -0.7412517, -0.24339633, 0.41529372, -0.4678125, 0.2668081, 0.23775095, -0.7385006, 0
563, 3602450502, -0.7368558, -0.25232798, 0.41717094, -0.46835428, -0.90255314, 0.46927664, -0.4895382, 0
564, 3602467169, -0.73564696, -0.2556344, 0.41921753, -0.46663117, -0.82657015, 0.30352345, -0.6050949, 0
565, 3602483836, -0.7348013, -0.25800243, 0.4220173, -0.46412998, -1.0413142, 0.63770247, -1.2679882, 0
567, 3602517170, -0.7343266, -0.26080367, 0.42466828, -0.46088612, -1.0149754, 0.3735638, -0.6114683, 0
569, 3602550504, -0.73605597, -0.26023012, 0.42756215, -0.45574772, -0.8929949, -0.2167474, -0.62864876, 0
571, 3602583838, -0.7385368, -0.25758356, 0.43190423, -0.44909477, -0.62188923, -0.16670692, -0.3439722, 0
572, 3602600505, -0.74014646, -0.2557965, 0.4335478, -0.44587094, -0.5969839, -0.3947449, -0.07116985, 0
573, 3602617172, -0.7421887, -0.25347638, 0.43454677, -0.44281834, -0.59980685, -0.6351282, 0.5679712, 0
575, 3602650506, -0.7468148, -0.24779189, 0.4373848, -0.4354015, -1.1674075, -1.1791439, 0.7322006, 0
576, 3602667173, -0.74962395, -0.24453536, 0.43859148, -0.43118107, -1.1614728, -0.9613416, 0.5823355, 0
577, 3602683840, -0.75279474, -0.24086422, 0.43907112, -0.427217, -1.0413234, -0.6463752, 0.4281063, 0
579, 3602717174, -0.75852174, -0.23344705, 0.4378916, -0.42238784, -0.9776774, -0.8447234, 1.4632626, 0
580, 3602733841, -0.7608479, -0.22952595, 0.43680656, -0.42147538, -1.3107692, -1.8423599, 0.9218817, 0
582, 3602767175, -0.7655797, -0.21935943, 0.43217015, -0.42309767, -1.702326, -1.6518694, 0.48900318, 0
584, 3602800509, -0.7683698, -0.20947373, 0.42624015, -0.42902368, -1.8748345, -1.3046577, -0.19543266, 0
586, 3602833843, -0.76988447, -0.19996402, 0.41965887, -0.43725508, -1.7526234, -1.2774131, 0.1677494, 0
587, 3602850510, -0.7718866, -0.19206792, 0.41715568, -0.43965396, -1.0896348, -1.0469017, -0.2566042, 0
588, 3602867177, -0.7741891, -0.18297683, 0.41351396, -0.442911, -0.02744672, -0.08378232, -1.5821781, 0
590, 3602900511, -0.7795635, -0.16707654, 0.40021253, -0.45189542, 0.5044542, 1.4411626, -3.262484, 0
591, 3602917178, -0.7827353, -0.1596061, 0.3905428, -0.45753795, 0.5552464, 1.2806174, -2.7901926, 0
592, 3602933845, -0.7865005, -0.15029411, 0.37930772, -0.46364623, 0.68280596, 1.2008321, -2.6503673, 0
594, 3602967179, -0.79491514, -0.12921585, 0.35783902, -0.4726284, -0.54155433, 0.760578, -4.8855596, 0
595, 3602983846, -0.8000309, -0.119609684, 0.34619826, -0.47518873, -0.060007304, 1.8717915, -5.542206, 0
596, 3603000513, -0.8052085, -0.113514334, 0.33095968, -0.47878265, 0.5249337, 0.6835582, -4.7460437, 0
599, 3603050514, -0.81815416, -0.11946708, 0.27124506, -0.49273807, 5.3643227, -4.5714664, -2.561789, 0
602, 3603100515, -0.8132418, -0.12542382, 0.23309904, -0.5182518, 6.4491715, 6.257925, -0.0050849915, 0
603, 3603117182, -0.8100356, -0.12439426, 0.22802363, -0.5257252, 6.919018, 5.9974294, 1.7558718, 0
604, 3603133849, -0.808364, -0.12245684, 0.22576737, -0.5297116, 5.8267503, 6.996074, 2.7114067, 0
606, 3603167183, -0.8080891, -0.11671834, 0.22587751, -0.5313771, 6.539241, 7.4321623, 2.9847565, 0
607, 3603183850, -0.8086973, -0.11347303, 0.22864066, -0.5299713, 7.056323, 7.574872, 3.2595844, 0
609, 3603217184, -0.808268, -0.10666114, 0.23541556, -0.52907383, 7.600358, 5.5991607, 3.325076, 0
610, 3603233851, -0.80598885, -0.102675684, 0.2400287, -0.5312619, 4.996114, 3.064095, 3.3310995, 0
611, 3603250518, -0.8029363, -0.097861044, 0.24780001, -0.5332215, 2.9404979, 0.19140176, 4.0827417, 0
613, 3603283852, -0.797374, -0.08444036, 0.26945457, -0.53335917, -1.9673986, -4.7250395, 5.4914474, 0
614, 3603300519, -0.79532784, -0.085937366, 0.2756005, -0.53303504, -7.6036334, -10.338488, 1.5711575, 0
615, 3603317186, -0.7939193, -0.08515018, 0.27450052, -0.53582126, -5.80353, -8.545294, 3.3314476, 0
617, 3603350520, -0.79410315, -0.08545928, 0.2682674, -0.5386491, -0.43542513, 2.046627, 6.359335, 0
618, 3603367187, -0.7961891, -0.086281955, 0.26702374, -0.53605044, 0.5912305, 1.5445375, 5.320422, 0
619, 3603383854, -0.8004916, -0.08707511, 0.26774034, -0.52911204, 0.30970135, -0.43629923, 3.3026133, 0
621, 3603417188, -0.8073086, -0.08762175, 0.26701546, -0.51893294, 1.145428, -0.4024518, 1.8951492, 0
622, 3603433855, -0.80987024, -0.088684306, 0.26624468, -0.5151431, 1.2170615, -1.414962, 1.6782389, 0
623, 3603450522, -0.811681, -0.09032332, 0.26602095, -0.51211524, 0.8007942, -1.8228545, 0.71276, 0
625, 3603483856, -0.8114397, -0.09537609, 0.26796007, -0.5105679, -0.22045799, -0.20419605, -0.9970827, 0
627, 3603517190, -0.8108426, -0.10299675, 0.27399546, -0.5068191, -0.88364595, -0.5458464, -1.8035545, 0
629, 3603550524, -0.8105589, -0.111412995, 0.28466278, -0.4995615, -0.85214114, 1.0058848, -2.4193072, 0
630, 3603567191, -0.81018937, -0.117296785, 0.28913298, -0.49623573, -0.24241947, 0.60842526, -2.0628767, 0
631, 3603583858, -0.80987585, -0.12275965, 0.29341695, -0.4929005, 0.31667227, 0.43337315, -1.9632711, 0
633, 3603617192, -0.80843997, -0.13450688, 0.30319482, -0.48622942, 0.4571238, 0.14660142, -0.7306261, 0
634, 3603633859, -0.80768377, -0.13962302, 0.30962688, -0.48197186, 0.70891786, 0.2459617, -1.1590824, 0
636, 3603667193, -0.804498, -0.15226439, 0.3218174, -0.4754421, 0.67274964, -0.28218487, -1.1788359, 0
637, 3603683860, -0.8019254, -0.15851808, 0.328459, -0.47319734, 0.39371383, -0.6034492, -1.3032608, 0
638, 3603700527, -0.7976961, -0.16548067, 0.33540648, -0.47308868, -0.36597362, -0.74038714, -1.4432516, 0
640, 3603733861, -0.79140604, -0.17718528, 0.34863085, -0.4698422, -0.25176388, 0.21091978, -1.4473867, 0
642, 3603767195, -0.78584385, -0.18950397, 0.3598253, -0.4659148, 0.23793714, 0.88720816, -0.5503397, 0
644, 3603800529, -0.77919173, -0.20320669, 0.37064344, -0.4628219, 0.7393614, -0.2671332, -1.4815207, 0
645, 3603817196, -0.7764259, -0.208031, 0.37616998, -0.46086404, -0.6322484, 0.7690628, -0.8922539, 0
646, 3603833863, -0.7738615, -0.21324122, 0.38177884, -0.45817536, -0.98801446, 0.54211897, -0.96940136, 0
648, 3603867197, -0.76780087, -0.22255233, 0.39299577, -0.45444477, -0.47614586, 0.89551604, -0.31583405, 0
649, 3603883864, -0.76540256, -0.22570863, 0.39896944, -0.45172012, -0.47252247, 0.66214913, -0.62310505, 0
650, 3603900531, -0.76343584, -0.22843908, 0.40445912, -0.44878426, -0.39235353, 0.6570607, -0.57165813, 0
652, 3603933865, -0.7598636, -0.23317525, 0.4141971, -0.44349825, -0.47627681, 0.9441476, 0.22349358, 0
653, 3603950532, -0.75896126, -0.23425905, 0.4190686, -0.4398812, -0.6327274, 0.70918024, -0.018889427, 0
654, 3603967199, -0.7583503, -0.23469086, 0.42378157, -0.43617377, -0.69834924, 0.49735913, -0.4828663, 0
657, 3604017200, -0.7582547, -0.2334466, 0.4373375, -0.42344034, -0.7113662, -0.16359617, -0.3335724, 0
659, 3604050534, -0.7607785, -0.22871712, 0.44568813, -0.41265, -1.0800245, 0.05458812, 0.6085739, 0
660, 3604067201, -0.7621314, -0.22583379, 0.45016488, -0.40684146, -1.0487832, 0.10828186, 0.62814045, 0
661, 3604083868, -0.76356435, -0.2225863, 0.4541677, -0.4014594, -0.94150674, -0.23594145, 0.8994894, 0
663, 3604117202, -0.7666826, -0.21535873, 0.4604736, -0.39216775, -0.54373014, -1.0439562, 0.5787735, 0
664, 3604133869, -0.768012, -0.2121845, 0.46285346, -0.38847774, -0.4631099, -1.1873329, 0.15984058, 0
665, 3604150536, -0.7689897, -0.20971167, 0.4646031, -0.38578892, -0.26701573, -1.4409406, -0.03975773, 0
667, 3604183870, -0.7704355, -0.20542294, 0.4666965, -0.38267237, 0.013235096, -0.9521827, 0.15351963, 0
668, 3604200537, -0.7712954, -0.2032548, 0.4666984, -0.38209552, -0.18071681, -0.97393614, 0.3008852, 0
669, 3604217204, -0.7722428, -0.20104653, 0.46620256, -0.38195527, -0.5910961, -0.8537013, 0.10827446, 0
672, 3604267205, -0.7737081, -0.19414648, 0.46575895, -0.38309902, -0.89401966, 0.012743871, -0.46237278, 0
673, 3604283872, -0.7740865, -0.19098727, 0.46492273, -0.38493383, -0.6502381, -0.06285145, -0.68808365, 0
675, 3604317206, -0.7767619, -0.18151967, 0.46228707, -0.38729262, -0.8241448, -0.2974675, -0.44801426, 0
676, 3604333873, -0.7784223, -0.17695878, 0.4595172, -0.38936067, 0.0734468, -0.46884558, -0.09882259, 0
677, 3604350540, -0.7808211, -0.17090203, 0.4562745, -0.3910725, 0.46910945, -0.3749953, -0.19499588, 0
679, 3604383874, -0.78411496, -0.1578824, 0.4466489, -0.40094247, -0.19371778, 0.89987075, -1.9281635, 0
680, 3604400541, -0.7859766, -0.15195537, 0.44005936, -0.40683097, -0.070173904, 0.98617226, -2.7909155, 0
681, 3604417208, -0.7878103, -0.14642915, 0.43225604, -0.41361994, -0.022864705, 0.37928456, -2.65739, 0
683, 3604450542, -0.7921022, -0.13453767, 0.4122292, -0.4295975, 0.21815915, -0.23613127, -2.7881088, 0
684, 3604467209, -0.79611677, -0.12714216, 0.40015766, -0.43579847, -0.07008186, 1.5463748, -3.468296, 0
685, 3604483876, -0.801141, -0.122099355, 0.38612625, -0.44066375, 0.10146661, 1.1757201, -4.6894836, 0
687, 3604517210, -0.8123774, -0.12092921, 0.35107893, -0.4496397, 1.5244339, 0.24990073, -2.2480145, 0
688, 3604533877, -0.8172224, -0.1254231, 0.33131313, -0.45460036, 2.6013238, -1.7062082, -1.5167103, 0
690, 3604567211, -0.8257638, -0.1359786, 0.29556724, -0.4607354, 4.490885, 0.7607142, -1.8655148, 0
691, 3604583878, -0.8272226, -0.14028327, 0.2842926, -0.46391213, 4.8205495, 3.981707, -1.5860262, 0
692, 3604600545, -0.8258728, -0.14465928, 0.27667257, -0.46954605, 5.099207, 8.247997, -0.12153149, 0
694, 3604633879, -0.825076, -0.14652477, 0.26552016, -0.47675192, 8.055936, 5.6599784, 3.9454784, 0
695, 3604650546, -0.8248053, -0.14283346, 0.26338258, -0.4795183, 7.2620463, 4.3790493, 3.208702, 0
696, 3604667213, -0.82321596, -0.14084136, 0.26602775, -0.48137513, 5.288652, 3.2267945, 2.8373575, 0
699, 3604717214, -0.81827825, -0.12900701, 0.29122463, -0.47851813, -1.3701345, -3.3304694, 3.1875181, 0
700, 3604733881, -0.8175902, -0.12890922, 0.29929787, -0.47472396, -5.292583, -6.945799, 2.093196, 0
702, 3604767215, -0.81707704, -0.13297872, 0.29428047, -0.47761285, 0.43438312, -5.87389, 10.490549, 0
703, 3604783882, -0.8144493, -0.13507666, 0.29683796, -0.4799242, 1.0140483, -2.6453252, 10.31665, 0
704, 3604800549, -0.8117627, -0.137259, 0.3012094, -0.48113143, -1.270742, -0.43241727, 6.5021267, 0
706, 3604833883, -0.8079286, -0.14253716, 0.3020196, -0.4855224, -0.8878639, 0.5531465, 2.5829382, 0
707, 3604850550, -0.8081956, -0.14603251, 0.30017886, -0.4851808, -0.00418975, -0.15097065, 1.9716158, 0
708, 3604867217, -0.80864525, -0.15050775, 0.29789576, -0.4844707, 1.359995, -1.7685114, 2.102394, 0
710, 3604900551, -0.8088124, -0.15812826, 0.29717156, -0.48220354, 1.1469581, -1.458296, 1.0290613, 0
711, 3604917218, -0.8063438, -0.1643039, 0.29630303, -0.48480082, 1.2056782, -1.0013978, 0.017878532, 0
714, 3604967219, -0.7976852, -0.1788156, 0.29366156, -0.4954789, -0.35441577, 0.68982625, -1.8596625, 0
715, 3604983886, -0.7939395, -0.18557778, 0.29350197, -0.49909002, 0.055004302, -0.15108202, -2.0897188, 0
717, 3605017220, -0.78864115, -0.197043, 0.29743496, -0.50076425, -0.48474792, 0.952661, -2.2194939, 0
718, 3605033887, -0.7863582, -0.20407069, 0.29914346, -0.500522, -0.61362296, 1.1814001, -2.2548018, 0
719, 3605050554, -0.7840578, -0.21170057, 0.30028522, -0.50027823, -0.2693425, 0.42989984, -1.6335964, 0
721, 3605083888, -0.77974397, -0.22191238, 0.30754834, -0.49817836, 0.6663225, 0.548614, -1.0948563, 0
722, 3605100555, -0.7780741, -0.22500408, 0.3143286, -0.49516112, 0.06201054, 1.3688837, -1.4661188, 0
723, 3605117222, -0.776751, -0.22767663, 0.32143763, -0.49143916, -0.58113056, 2.1232243, -1.7363844, 0
725, 3605150556, -0.7752135, -0.23267293, 0.3327734, -0.48392427, -0.9589894, 1.422133, -2.2743683, 0
726, 3605167223, -0.7752725, -0.23429304, 0.3365585, -0.4804175, -0.79180473, 0.32675627, -1.6704865, 0
729, 3605217224, -0.77699023, -0.23293203, 0.35316783, -0.46617, -0.8685984, 0.5684208, -1.6121264, 0
730, 3605233891, -0.7781103, -0.23150828, 0.35905546, -0.46047875, -0.51497227, 0.7277368, -2.0270028, 0
731, 3605250558, -0.779577, -0.23042339, 0.36324328, -0.45522785, -0.2819017, 0.14650257, -1.8321552, 0
733, 3605283892, -0.783023, -0.22855887, 0.36940247, -0.44518626, -0.33588946, -1.3565367, -1.3668671, 0
734, 3605300559, -0.7843309, -0.22797343, 0.37433004, -0.43902546, -0.13988411, -0.95507073, -1.1122742, 0
735, 3605317226, -0.7853162, -0.22716396, 0.38030833, -0.43249696, -0.06861222, -0.351028, -0.91424084, 0
737, 3605350560, -0.78781575, -0.22367127, 0.39039412, -0.42062244, -0.18814695, -0.28690687, 0.083963394, 0
738, 3605367227, -0.7897501, -0.22016777, 0.39523605, -0.41427374, -0.9844192, -0.9066542, 0.4258213, 0
739, 3605383894, -0.79209936, -0.2156628, 0.40110025, -0.40644813, -1.0043727, 0.19799817, -0.15977955, 0
741, 3605417228, -0.79631627, -0.21015468, 0.41036808, -0.39156958, 1.1642708, 0.23634572, 0.26700306, 0
744, 3605467229, -0.802661, -0.20126274, 0.41629803, -0.37674618, -0.6358407, -2.7832174, 1.0379896, 0
745, 3605483896, -0.8039693, -0.1977269, 0.4203691, -0.37126893, -0.87818396, -1.5028052, 0.22762012, 0
746, 3605500563, -0.80415654, -0.19506565, 0.42584014, -0.3659989, -0.17918095, -0.41640466, -0.39215183, 0
748, 3605533897, -0.8041072, -0.19074282, 0.43407264, -0.35864046, 0.96423244, -0.7180317, -1.2279701, 0
749, 3605550564, -0.8057261, -0.18684375, 0.43479994, -0.35617024, 0.7072357, -1.4457084, 0.5784483, 0
750, 3605567231, -0.8070496, -0.18246949, 0.43690023, -0.35285574, -0.4089901, -1.6227019, -0.30319786, 0
752, 3605600565, -0.8082408, -0.17487884, 0.44361728, -0.34551588, 0.230234, -0.097189665, -0.11419487, 0
753, 3605617232, -0.8082253, -0.17177989, 0.4470105, -0.34272218, 0.8164823, 0.39495903, -0.4422226, 0
754, 3605633899, -0.80837065, -0.16928792, 0.44888762, -0.34116244, 0.8761386, -0.2389064, -0.4846487, 0
756, 3605667233, -0.8079829, -0.16742767, 0.45024273, -0.3412129, 0.3623878, -2.2693858, -0.03893566, 0
757, 3605683900, -0.8068945, -0.16662404, 0.45236456, -0.3413757, -0.1539526, -2.2257295, -0.072852135, 0
758, 3605700567, -0.8053727, -0.16572922, 0.45529228, -0.34151262, -0.29383594, -0.7570608, -0.088936806, 0
760, 3605733901, -0.8012077, -0.16557369, 0.4596254, -0.34555662, -0.7551025, 0.42126694, 0.15031815, 0
761, 3605750568, -0.7996823, -0.16651882, 0.45957407, -0.34869024, -0.6495765, -0.11516985, -0.5651455, 0
762, 3605767235, -0.7983145, -0.16723736, 0.45958242, -0.3514582, -0.54674846, -0.9400049, -0.926034, 0
764, 3605800569, -0.7951317, -0.16757472, 0.4605642, -0.35718113, -0.62553006, -0.2664178, 0.32596207, 0
765, 3605817236, -0.79349345, -0.16647713, 0.4619554, -0.35953265, -0.76318944, 0.106214054, 0.65923786, 0
766, 3605833903, -0.7926518, -0.16403605, 0.4629463, -0.36123314, -0.8602332, 0.38122413, 0.33677006, 0
768, 3605867237, -0.79367256, -0.15746936, 0.4613579, -0.36393577, -1.0647407, 0.11501077, -0.72206974, 0
771, 3605917238, -0.7987588, -0.1530865, 0.45341668, -0.36465836, 0.2886451, -0.14657538, 0.548563, 0
772, 3605933905, -0.80029666, -0.15424536, 0.45014054, -0.36485684, 0.80412185, -0.3404574, 1.3032665, 0
773, 3605950572, -0.80156916, -0.15520181, 0.44730857, -0.3651405, 0.75211304, -0.17434013, 1.1079216, 0
775, 3605983906, -0.8041413, -0.15424927, 0.4416618, -0.36675876, -0.4526685, 0.43864062, 0.08580017, 0
776, 3606000573, -0.8057568, -0.1525868, 0.43908095, -0.36700714, -0.39789307, 0.22322603, -0.28367805, 0
777, 3606017240, -0.8073598, -0.15085246, 0.43672386, -0.36701393, -0.35771772, -0.15658139, -0.5811548, 0
779, 3606050574, -0.8094771, -0.14974183, 0.43224573, -0.368105, -0.04572494, -0.6768903, -0.17834187, 0
780, 3606067241, -0.80975693, -0.15016878, 0.43015474, -0.36976087, 0.2714252, -0.58122206, 0.15762043, 0
781, 3606083908, -0.80950993, -0.15039828, 0.42829263, -0.37236094, -0.065361895, -0.59906024, 0.31422234, 0
783, 3606117242, -0.8077604, -0.14958075, 0.42722264, -0.37768066, 0.091644645, 0.3506908, -0.10863018, 0
785, 3606150576, -0.8069307, -0.14942344, 0.42523095, -0.3817426, -0.49935588, 0.61630535, -0.71573067, 0
787, 3606183910, -0.8065013, -0.15119967, 0.42089292, -0.3867253, -1.1664748, -0.6336804, -0.94144154, 0
788, 3606200577, -0.80635625, -0.1531842, 0.4186297, -0.38869858, -1.1760159, -0.9479589, -0.9093609, 0
789, 3606217244, -0.80609846, -0.15561503, 0.41687727, -0.3901483, -0.7225944, -1.0850437, -1.1935053, 0
791, 3606250578, -0.806508, -0.15873083, 0.41346934, -0.3916703, 0.21837416, 0.2636145, -1.1427174, 0
792, 3606267245, -0.80802214, -0.15934896, 0.410238, -0.39169648, -0.16695434, 1.6951962, -0.09432697, 0
794, 3606300579, -0.81319135, -0.16174862, 0.39559606, -0.39506245, -0.95155704, 0.6895453, 0.49389172, 0
795, 3606317246, -0.8164552, -0.16244426, 0.38535047, -0.39815986, -0.8543995, -0.3222887, -0.25240326, 0
796, 3606333913, -0.8194046, -0.16287437, 0.3752822, -0.40152776, -0.7275814, -0.8874933, -1.4953222, 0
798, 3606367247, -0.8240792, -0.15996537, 0.3596051, -0.4074336, -0.21785629, -0.8502979, -4.4014115, 0
800, 3606400581, -0.8300127, -0.15283984, 0.34269574, -0.41266423, -0.37756112, 0.3999146, -5.563848, 0
802, 3606433915, -0.8353405, -0.15803039, 0.31606558, -0.4211277, -0.60972273, -1.2008142, -7.899677, 0
803, 3606450582, -0.83747923, -0.15877785, 0.30573538, -0.4242137, 0.9821928, -1.2273339, -8.583907, 0
804, 3606467249, -0.84000176, -0.15297979, 0.30033648, -0.42521214, 1.5339121, -0.6611744, -7.3785133, 0
806, 3606500583, -0.84969705, -0.14859474, 0.28430718, -0.41847003, 7.334058, 3.5615935, -0.9812641, 0
807, 3606517250, -0.8536057, -0.1514307, 0.2730961, -0.4169625, 6.9867573, 3.6999516, 1.388133, 0
808, 3606533917, -0.85694677, -0.15656641, 0.26228198, -0.41515136, 9.365384, 2.657146, 5.6722336, 0
810, 3606567251, -0.8637873, -0.16428125, 0.24446815, -0.40881747, 10.485576, 4.941929, 9.91349, 0
811, 3606583918, -0.86603457, -0.17318887, 0.23403835, -0.40648383, 10.460508, 4.444033, 9.622768, 0
812, 3606600585, -0.86701787, -0.18301067, 0.22468539, -0.4053605, 8.870665, 3.2872438, 8.377005, 0
815, 3606650586, -0.86549854, -0.1956155, 0.2092804, -0.41092843, -4.9416466, 3.7970896, 8.140371, 0
816, 3606667253, -0.86528015, -0.19721274, 0.2106393, -0.40992904, -13.153014, 3.1806788, 7.020048, 0
818, 3606700587, -0.8625349, -0.20559573, 0.19622487, -0.41865623, -4.1727543, -3.6243777, 4.7070827, 0
819, 3606717254, -0.86343855, -0.2039184, 0.18959703, -0.42066312, 5.4703283, -5.0565586, 5.731448, 0
820, 3606733921, -0.86418784, -0.19879384, 0.1878462, -0.42235953, 4.1468663, 0.23191369, 7.3452663, 0
822, 3606767255, -0.8660135, -0.19053642, 0.18909186, -0.42186946, -1.3044094, 3.6319094, 3.7568436, 0
823, 3606783922, -0.8665844, -0.19034338, 0.18866768, -0.42097348, -0.5361669, 1.5867709, 3.4513235, 0
825, 3606817256, -0.86601186, -0.19086222, 0.18928069, -0.42164105, 0.16854843, -1.8636187, 1.2442436, 0
826, 3606833923, -0.865334, -0.19019255, 0.18963796, -0.42317224, 0.28114668, -1.5922142, 0.18495846, 0
827, 3606850590, -0.8642012, -0.18819934, 0.19155027, -0.42551053, -0.2175579, -0.49831343, -0.96899986, 0
829, 3606883924, -0.8604462, -0.18275452, 0.2017262, -0.43075842, -0.7869966, 1.0456499, -2.0414195, 0
830, 3606900591, -0.8577315, -0.1823217, 0.20827614, -0.43323162, -0.72853357, 1.1180816, -2.574327, 0
831, 3606917258, -0.8547523, -0.18350795, 0.21480083, -0.4354274, -1.1673694, 0.59115016, -2.5348725, 0
833, 3606950592, -0.8503428, -0.18529451, 0.22946319, -0.43582448, 0.12872836, -1.6147482, -3.3753748, 0
834, 3606967259, -0.84893185, -0.1857025, 0.23789331, -0.43387714, 0.48146155, -0.87894267, -3.275372, 0
835, 3606983926, -0.84760946, -0.18647115, 0.24654283, -0.43129626, 0.18666416, -0.27584416, -2.9447203, 0
837, 3607017260, -0.84399915, -0.18510905, 0.2663244, -0.42718267, -0.44701833, -0.31805748, -2.0050693, 0
838, 3607033927, -0.8416293, -0.18596767, 0.27603176, -0.42531836, -1.1497658, -1.0812075, -2.0738459, 0
839, 3607050594, -0.8396185, -0.1863846, 0.28564367, -0.422756, -1.6616671, -1.8126894, -2.5237808, 0
842, 3607100595, -0.8374309, -0.18326455, 0.31157357, -0.40994972, -0.19768246, -0.28330144, -0.7276516, 0
843, 3607117262, -0.8369301, -0.18030694, 0.3215002, -0.40458417, 0.22834776, -0.25717652, -0.58186245, 0
845, 3607150596, -0.8347148, -0.17838097, 0.34039998, -0.39442688, -0.41116214, -0.54599017, -0.9998913, 0
846, 3607167263, -0.8333415, -0.17899497, 0.34909385, -0.38942224, -0.8126835, -0.86497146, -1.4981384, 0
848, 3607200597, -0.83094037, -0.18017946, 0.3645026, -0.37976915, -0.015210727, -1.2490863, -0.5298443, 0
849, 3607217264, -0.82944876, -0.1809321, 0.37179387, -0.37558097, 0.6929753, -1.1294868, -0.038749695, 0
850, 3607233931, -0.8279991, -0.17856225, 0.38039201, -0.3712796, 0.31548697, 0.17690927, 0.2881317, 0
852, 3607267265, -0.8242327, -0.17501949, 0.39396924, -0.36716503, 0.7239746, -0.15590492, 0.14409828, 0
853, 3607283932, -0.8218367, -0.17518225, 0.39946318, -0.3665217, 0.40947083, -0.9296189, -0.026615143, 0
854, 3607300599, -0.81947476, -0.17573486, 0.40436277, -0.36617267, -0.0341197, -1.0557369, 0.110217094, 0
857, 3607350600, -0.8129731, -0.17443673, 0.41838846, -0.36552808, -0.57411647, -0.25224355, -0.69608116, 0
858, 3607367267, -0.81025624, -0.17561173, 0.42149746, -0.3674214, -0.41103026, -0.91457736, 0.05109501, 0
860, 3607400601, -0.80512387, -0.17763391, 0.4282781, -0.36988214, -0.3905026, -0.51357126, 0.098903656, 0
861, 3607417268, -0.802983, -0.17808944, 0.43144485, -0.3706358, -0.8280898, 0.25221705, 0.11144543, 0
862, 3607433935, -0.8005532, -0.18036738, 0.43303898, -0.3729245, 0.14641172, -1.3269099, 0.4061346, 0
864, 3607467269, -0.79570454, -0.18303226, 0.43750638, -0.37676936, -0.33537516, -0.67823684, -0.019212723, 0
865, 3607483936, -0.79321396, -0.18359841, 0.4401212, -0.37869516, -0.6343946, 0.068124175, -0.66038704, 0
866, 3607500603, -0.7908026, -0.18504594, 0.44169727, -0.3811903, -0.8086998, 0.1601724, -0.4280405, 0
868, 3607533937, -0.78596896, -0.18822783, 0.4442429, -0.3866322, -0.8634518, -0.05061423, -0.82726765, 0
869, 3607550604, -0.78370243, -0.19026214, 0.44472164, -0.38967484, -0.87586904, -0.45154235, -0.53240967, 0
872, 3607600605, -0.77610296, -0.19838253, 0.44804558, -0.39695942, -1.1821164, -0.7345648, 0.27772808, 0
873, 3607617272, -0.77390045, -0.2001211, 0.4504594, -0.39765474, -1.7169697, 0.0023265465, 0.3869505, 0
874, 3607633939, -0.7723364, -0.20163918, 0.45221305, -0.39793837, -0.8137465, -0.2864174, 0.49298573, 0
876, 3607667273, -0.77089065, -0.2029322, 0.45419443, -0.39782774, -1.1279887, 0.67351055, 0.6232567, 0
877, 3607683940, -0.7707082, -0.20376797, 0.45417506, -0.39777625, -1.161477, 0.27841857, 0.88377476, 0
879, 3607717274, -0.77082837, -0.20398554, 0.45393074, -0.3977104, -0.9364458, -0.49095425, 0.46155548, 0
880, 3607733941, -0.770943, -0.2041034, 0.4538769, -0.39748925, -0.5236301, -0.64155203, 0.12854576, 0
881, 3607750608, -0.7711231, -0.20422575, 0.45397097, -0.39696956, -0.5026491, -0.4438238, 0.043198586, 0
883, 3607783942, -0.7720051, -0.20368809, 0.45348534, -0.3960853, -0.37540388, 0.2549846, -0.083351135, 0
884, 3607800609, -0.7734111, -0.2028513, 0.4511452, -0.39644432, -0.7290684, -0.2503187, -0.50418186, 0
887, 3607850610, -0.77986944, -0.20068422, 0.4381228, -0.39948875, -0.36046875, -1.5846101, -1.8265781, 0
888, 3607867277, -0.7822347, -0.19962662, 0.43327624, -0.40067834, 0.15101698, -1.4659356, -1.801364, 0
889, 3607883944, -0.78545564, -0.19795129, 0.42824513, -0.4006173, 0.3279239, -0.20996508, -1.3643904, 0
891, 3607917278, -0.7940359, -0.1957577, 0.41136435, -0.4024656, -0.80948436, -0.36960953, -2.9174519, 0
892, 3607933945, -0.7986844, -0.19484562, 0.40059146, -0.40457165, -1.0403512, -0.52242446, -4.144462, 0
893, 3607950612, -0.8033776, -0.194437, 0.38767722, -0.4080423, -0.008027468, -0.45762512, -4.3916116, 0
895, 3607983946, -0.81192005, -0.18482593, 0.37043625, -0.41160107, -0.008046802, 0.45001885, -5.211632, 0
896, 3608000613, -0.81692517, -0.17749184, 0.36317772, -0.41139445, 0.1511693, 1.4704368, -5.412914, 0
897, 3608017280, -0.8215935, -0.1738885, 0.35313064, -0.4123822, 0.45975095, 1.2216655, -6.947093, 0
899, 3608050614, -0.8288692, -0.17423537, 0.32715845, -0.41904473, 1.289262, -1.4282007, -7.0965204, 0
900, 3608067281, -0.83213, -0.17314176, 0.3174604, -0.42049223, 1.9316162, -3.61506, -5.1279287, 0
902, 3608100615, -0.84279656, -0.16953811, 0.3007105, -0.41296142, 8.568364, 2.7264674, 5.6508284, 0
903, 3608117282, -0.8470852, -0.17102587, 0.28849, -0.41229072, 9.449974, 4.1846433, 11.121056, 0
904, 3608133949, -0.84852725, -0.17363708, 0.2800665, -0.4140383, 10.324879, 3.6770358, 10.620575, 0
906, 3608167283, -0.8557846, -0.18510774, 0.25633115, -0.40948218, 9.714445, 3.9486666, 9.126148, 0
907, 3608183950, -0.85780287, -0.19540074, 0.24642326, -0.40654826, 8.380863, 2.151123, 6.321684, 0
908, 3608200617, -0.8583675, -0.2032229, 0.23793247, -0.4065795, 8.069898, 1.1606059, 4.997262, 0
910, 3608233951, -0.8584688, -0.21712038, 0.22974597, -0.40388134, -3.6575963, 2.468222, 5.8049126, 0
911, 3608250618, -0.8577527, -0.22081631, 0.23497762, -0.40037423, -13.452956, 3.7748451, 5.5230284, 0
914, 3608300619, -0.85445833, -0.22756684, 0.22383009, -0.40991163, 0.8399671, -5.188974, 4.177449, 0
915, 3608317286, -0.85818666, -0.22542427, 0.21757822, -0.40666017, 8.440299, -3.0456438, 8.278463, 0
916, 3608333953, -0.8586177, -0.22062436, 0.21937159, -0.40741873, 2.3238668, 1.2008786, 5.6315327, 0
918, 3608367287, -0.8599493, -0.21518111, 0.22327366, -0.40539682, -1.712984, 2.5496006, 1.9095001, 0
919, 3608383954, -0.86100525, -0.2129141, 0.22549546, -0.40311635, -0.99341136, 2.0914257, 2.5233335, 0
920, 3608400621, -0.861142, -0.21206483, 0.22935688, -0.40108806, -1.1441628, 0.3751503, 1.5128078, 0
922, 3608433955, -0.8611608, -0.21057847, 0.23720261, -0.39724916, -0.18418607, -2.7400053, -0.97328377, 0
923, 3608450622, -0.8613645, -0.20925325, 0.24012932, -0.39574713, 0.64423096, -2.7326345, -1.5397558, 0
924, 3608467289, -0.86138386, -0.20819153, 0.24306703, -0.39446896, 0.53831977, -1.9474934, -1.2878809, 0
926, 3608500623, -0.8601886, -0.2026138, 0.25327027, -0.3935616, -0.2511729, -0.5230157, -2.0371146, 0
928, 3608533957, -0.85726005, -0.20387897, 0.26422402, -0.3920939, -1.0783281, -0.38404974, -2.518703, 0
930, 3608567291, -0.8531167, -0.2065624, 0.27617496, -0.39149022, 0.14422219, -1.738254, -2.3281302, 0
931, 3608583958, -0.85128117, -0.20526993, 0.28411654, -0.39048114, -0.4018269, -0.74531144, -1.4166431, 0
933, 3608617292, -0.84746504, -0.20179, 0.30153784, -0.38752016, -0.6663149, -0.24477854, -1.241004, 0
934, 3608633959, -0.84545183, -0.20159408, 0.31040245, -0.38501233, -0.8402934, 0.1711184, -0.91088104, 0
935, 3608650626, -0.84365904, -0.20037928, 0.32069576, -0.38112354, -1.5401736, 0.8315987, -1.4589262, 0
937, 3608683960, -0.8400216, -0.2016607, 0.3379605, -0.37348703, -1.1188673, -0.5904096, -1.9752908, 0
938, 3608700627, -0.8390327, -0.20166224, 0.34547478, -0.3688048, -0.71702194, -0.59717274, -1.100667, 0
939, 3608717294, -0.8383172, -0.19971898, 0.35353038, -0.3638216, -0.72434, -0.31315646, -0.24929047, 0
941, 3608750628, -0.8368668, -0.19628522, 0.36863387, -0.35390443, -0.4770846, -0.9558289, 0.30484676, 0
943, 3608783962, -0.83525157, -0.1917628, 0.38329163, -0.34450328, -0.2938867, -0.7233457, 0.041187286, 0
945, 3608817296, -0.8329225, -0.18808822, 0.3956456, -0.3381433, 0.09138752, -0.24086109, -0.34612465, 0
946, 3608833963, -0.8319287, -0.18563153, 0.4008079, -0.33586016, 0.26949805, -0.932375, -0.34300232, 0
947, 3608850630, -0.8311668, -0.18276773, 0.40536854, -0.33383727, 0.22756971, -1.4415575, -0.21172905, 0
949, 3608883964, -0.829374, -0.17767479, 0.41410637, -0.330302, -0.052775655, -1.0874537, -0.59810257, 0
950, 3608900631, -0.82811314, -0.17538096, 0.41931957, -0.32810724, -0.32389084, 0.27426475, -0.8391924, 0
951, 3608917298, -0.8266319, -0.17499076, 0.4235322, -0.32663715, 0.10358819, -0.7737282, -1.0326529, 0
953, 3608950632, -0.82415515, -0.17298004, 0.4312617, -0.3238408, -0.7109554, -1.7300696, -0.50151634, 0
954, 3608967299, -0.8228087, -0.17250234, 0.4347565, -0.32284522, -0.98221314, -1.5104939, -0.6878748, 0
955, 3608983966, -0.82138747, -0.17034781, 0.4392818, -0.3214795, -1.0048354, -1.3449136, -0.89432335, 0
958, 3609033967, -0.8149794, -0.16718324, 0.45208603, -0.32169825, -0.5509241, -0.3835649, -0.51450634, 0
960, 3609067301, -0.8110789, -0.16754228, 0.4565898, -0.3249919, -1.1093261, -1.0081749, 0.11721134, 0
961, 3609083968, -0.81004506, -0.16660485, 0.45893362, -0.32475066, -0.52664304, -1.4794242, 0.21019077, 0
962, 3609100635, -0.809048, -0.16628072, 0.4608251, -0.32472372, -0.90489066, -0.76267505, 0.42654896, 0
964, 3609133969, -0.80738336, -0.16650735, 0.46410123, -0.32408422, -1.0312772, 0.3024116, 0.43894768, 0
965, 3609150636, -0.8066189, -0.16719079, 0.46516645, -0.3241091, -0.9780474, -0.5357036, 0.21308517, 0
966, 3609167303, -0.8058749, -0.16751294, 0.4663507, -0.32409182, -1.3537748, -0.107053734, 0.45711136, 0
968, 3609200637, -0.8033822, -0.16892837, 0.46918485, -0.32545215, -1.2585332, -0.8878323, 0.297637, 0
969, 3609217304, -0.80189514, -0.16958761, 0.47123426, -0.32581556, -0.82978, -0.67978054, 0.23204327, 0
970, 3609233971, -0.8004436, -0.17028153, 0.4735017, -0.32573545, -0.6572792, -0.10133066, 0.33862495, 0
972, 3609267305, -0.7988941, -0.17011851, 0.476323, -0.325511, -0.3384898, 0.17019969, 0.6861477, 0
973, 3609283972, -0.798944, -0.1700588, 0.47613847, -0.32568997, -0.4921715, 0.10067426, 0.8085375, 0
974, 3609300639, -0.79916006, -0.17004691, 0.47535628, -0.32630816, -0.57805634, -0.60492116, 0.6333847, 0
976, 3609333973, -0.7988331, -0.16855317, 0.47581667, -0.32721156, -0.68494135, -0.4489361, -0.10710907, 0
977, 3609350640, -0.79843533, -0.16735338, 0.4769037, -0.32721534, -0.77634585, -0.10951053, -0.56255054, 0
978, 3609367307, -0.79857665, -0.16469194, 0.47806847, -0.326521, -1.0606409, 0.53099793, -0.9886503, 0
980, 3609400641, -0.79997194, -0.1640664, 0.47566193, -0.32693455, -1.5651805, -0.69108135, -0.585268, 0
981, 3609417308, -0.80037415, -0.1647834, 0.4743403, -0.327509, -1.4893811, -1.3879972, 0.20093822, 0
983, 3609450642, -0.7996086, -0.16374864, 0.47659025, -0.3266306, -0.79271865, -0.2807447, 0.17686844, 0
985, 3609483976, -0.8006346, -0.16239902, 0.47473913, -0.32748592, -0.86808276, -0.0756823, -0.61432076, 0
987, 3609517310, -0.8050822, -0.1615734, 0.46356842, -0.33294812, -1.2547843, -1.3664855, -1.2255917, 0
988, 3609533977, -0.80725193, -0.15974759, 0.45789444, -0.33640924, -0.87566406, -1.453344, -1.2594585, 0
989, 3609550644, -0.8090818, -0.15567002, 0.45400774, -0.33918133, -0.7414591, -0.37368208, -1.6318245, 0
991, 3609583978, -0.81695426, -0.14806345, 0.43988463, -0.34231272, -1.0967727, 0.30853355, -2.551096, 0
992, 3609600645, -0.8222213, -0.14648467, 0.4292649, -0.34385958, -2.1214628, -0.51743394, -4.4629946, 0
993, 3609617312, -0.8273519, -0.14558746, 0.41796058, -0.34585437, -1.9578309, -0.927278, -5.0735626, 0
995, 3609650646, -0.83746535, -0.142037, 0.39555797, -0.34932002, -0.3101191, -0.47631237, -5.6202135, 0
996, 3609667313, -0.8428706, -0.13705023, 0.38531455, -0.34976026, 1.0578481, 0.29113898, -6.5773506, 0
997, 3609683980, -0.8484133, -0.1333775, 0.37364662, -0.35043782, 0.8352891, -0.28974107, -8.027763, 0
1000, 3609733981, -0.8601123, -0.13406667, 0.33277822, -0.3626359, 3.2040093, -2.8706067, -8.721665, 0
1001, 3609750648, -0.8620596, -0.14035404, 0.32049045, -0.3666789, 3.6393237, -4.30344, -4.9716554, 0
1003, 3609783982, -0.8701555, -0.15017578, 0.2967221, -0.3636565, 10.367942, 1.9694008, 15.640221, 0
1004, 3609800649, -0.8708365, -0.14438498, 0.2947273, -0.36598632, 11.024732, 1.4176571, 14.325134, 0
1005, 3609817316, -0.8734685, -0.15031195, 0.28591305, -0.3643158, 10.990392, 11.936973, 13.822004, 0
1007, 3609850650, -0.8781503, -0.20351398, 0.251871, -0.35214865, 10.478154, -0.6288517, 12.219992, 0
1008, 3609867317, -0.87454855, -0.21051675, 0.24832278, -0.35943916, 5.3496876, -1.4683294, 6.069091, 0
1009, 3609883984, -0.8730014, -0.20907038, 0.25146547, -0.36185133, 1.3228694, -0.30746645, 8.130768, 0
1011, 3609917318, -0.872033, -0.19937474, 0.27879605, -0.34941986, -19.170975, 14.200811, 4.695593, 0
1012, 3609933985, -0.86676, -0.21622431, 0.27083457, -0.3586588, -17.168306, 4.5952287, 3.0578327, 0
1015, 3609983986, -0.87233037, -0.21374452, 0.2562644, -0.35734427, 0.9085659, -0.45861036, 6.5372696, 0
1016, 3610000653, -0.87261933, -0.20399216, 0.2624744, -0.35783124, -3.7605987, 3.1698723, 2.8664465, 0
1018, 3610033987, -0.8748154, -0.1965127, 0.27051237, -0.35059527, -3.5387027, 2.9210346, 0.9175072, 0
1019, 3610050654, -0.8754255, -0.19277486, 0.27604544, -0.34681427, -2.2372313, 0.0954749, -0.8933964, 0
1020, 3610067321, -0.8761352, -0.18889645, 0.28240848, -0.34200022, -0.97873306, -2.2567098, -3.0205975, 0
1022, 3610100655, -0.87701, -0.17483006, 0.29567823, -0.33596957, 1.0433025, -0.7536442, -3.7743802, 0
1023, 3610117322, -0.8757526, -0.16677928, 0.3043719, -0.33557844, 0.8742529, -1.4525253, -4.181476, 0
1024, 3610133989, -0.8738414, -0.16038436, 0.31230766, -0.3363856, 0.7424772, -1.9854511, -3.498005, 0
1026, 3610167323, -0.8679392, -0.14823434, 0.3292594, -0.34104186, 0.44797784, -0.8318135, -3.7500658, 0
1027, 3610183990, -0.8642691, -0.14387591, 0.33872834, -0.34295058, 0.30658948, -0.047782656, -4.7896833, 0
1030, 3610233991, -0.85446805, -0.14111486, 0.36190942, -0.34497234, -1.2352487, -0.98452115, -3.9645643, 0
1031, 3610250658, -0.8515771, -0.14246598, 0.36700976, -0.34617501, -1.4238342, -0.7671299, -2.769062, 0
1032, 3610267325, -0.84817356, -0.14563087, 0.37126055, -0.34867215, -0.82336694, -3.2680495, -2.0657878, 0
1034, 3610300659, -0.84181905, -0.14899139, 0.38208163, -0.3509551, 0.54263985, -1.6539456, 0.2540741, 0
1035, 3610317326, -0.83848345, -0.1503393, 0.38866544, -0.35113513, 0.9190312, -0.26988143, 0.5662298, 0
1037, 3610350660, -0.8316379, -0.15587097, 0.39846286, -0.35400984, -0.76776075, 0.25540912, -0.059347153, 0
1038, 3610367327, -0.82823426, -0.15944262, 0.4019732, -0.35642254, -0.698885, -0.31806147, -0.5377598, 0
1039, 3610383994, -0.8247894, -0.16337627, 0.40532225, -0.35882813, -0.76669526, -0.7627758, -0.5836067, 0
1041, 3610417328, -0.8180045, -0.17267515, 0.41230145, -0.36203998, 0.13311449, -1.4046079, 1.1423988, 0
1042, 3610433995, -0.81583923, -0.17544341, 0.41561872, -0.36180177, 0.30456546, -0.2505672, 1.733038, 0
1043, 3610450662, -0.8135502, -0.18003282, 0.41837898, -0.36152005, -0.08000825, -0.7823568, 0.4500475, 0
1045, 3610483996, -0.8114809, -0.18553075, 0.42243153, -0.3586672, 0.0080536185, 0.864582, -0.028998375, 0
1046, 3610500663, -0.81097096, -0.1872389, 0.42424887, -0.35678256, -0.11629602, 0.84540474, -0.76891613, 0
1047, 3610517330, -0.81028646, -0.18910441, 0.4261334, -0.3551043, -0.48801818, 0.1396181, -1.0168724, 0
1049, 3610550664, -0.8083798, -0.19279069, 0.43140578, -0.3510784, -0.62812036, -1.028302, -0.46465588, 0
1050, 3610567331, -0.8079685, -0.1936808, 0.43449152, -0.34771383, -0.47984567, -0.36121413, -0.0020580292, 0
1051, 3610583998, -0.8082869, -0.19388211, 0.43718296, -0.343462, -0.61610276, 0.58612317, 0.59153175, 0
1053, 3610617332, -0.81054235, -0.1929804, 0.44164678, -0.33277795, -0.37285963, 0.033719722, -0.604702, 0
1055, 3610650666, -0.81358576, -0.19077206, 0.44534642, -0.32150307, -0.8647725, -0.64329267, -0.52053547, 0
1058, 3610700667, -0.8170899, -0.18557738, 0.44936985, -0.30984718, -1.1557151, -0.047475662, 0.58094597, 0
1059, 3610717334, -0.8180746, -0.18205607, 0.45087898, -0.3071341, -0.748793, -0.15719308, 0.5073786, 0
1061, 3610750668, -0.82003146, -0.17601793, 0.4517395, -0.30415612, -0.24797466, -1.573444, 0.24938393, 0
1062, 3610767335, -0.8209586, -0.17394364, 0.4517102, -0.30288917, -0.012882393, -1.628248, 0.74261475, 0
1063, 3610784002, -0.8221066, -0.17147997, 0.4517735, -0.3010804, -0.23953481, -1.2532524, 1.0831709, 0
1065, 3610817336, -0.8255848, -0.16420026, 0.45134312, -0.2962274, -0.87756103, -0.13040026, -0.2176857, 0
1066, 3610834003, -0.82720625, -0.16027614, 0.45143887, -0.29369634, -0.94599134, 0.21531872, -0.90307045, 0
1068, 3610867337, -0.83049166, -0.15148218, 0.4522226, -0.28782755, -1.7102423, 0.04347651, -1.2771559, 0
1069, 3610884004, -0.8328309, -0.14585143, 0.45223576, -0.28392962, -0.23612267, -0.76621056, 0.003923416, 0
1070, 3610900671, -0.8352122, -0.14011498, 0.45263225, -0.2791523, -0.907383, -0.5347019, -0.55233574, 0
1073, 3610950672, -0.84200484, -0.12351563, 0.45334238, -0.26507682, -0.42937577, -0.16210872, -9.3746185E-4, 0
1074, 3610967339, -0.8436159, -0.11788104, 0.45407426, -0.26124, -0.32951978, -0.16612576, 0.23934364, 0
1076, 3611000673, -0.8468484, -0.10586576, 0.4543185, -0.25543678, -0.7826905, -1.2830123, 1.7995138, 0
1077, 3611017340, -0.84875697, -0.09956815, 0.4537562, -0.25261924, -1.2357852, -1.1011238, 2.1650343, 0
1078, 3611034007, -0.8505662, -0.09361905, 0.45322284, -0.24974969, -1.8605498, -1.2903146, 2.3766136, 0
1080, 3611067341, -0.8535464, -0.08095606, 0.45352656, -0.24337593, -2.1402419, -0.92889607, 0.8128071, 0
1081, 3611084008, -0.85437906, -0.076323204, 0.45383, -0.24137712, -2.7293253, -0.94169515, -0.4801569, 0
1082, 3611100675, -0.85472643, -0.07321711, 0.45452958, -0.23978792, -3.4677918, -0.83182395, -3.176968, 0
1084, 3611134009, -0.8561663, -0.07027805, 0.45247144, -0.23942252, -2.3626473, -1.0214312, -3.4653907, 0
1085, 3611150676, -0.8568061, -0.06811855, 0.45121726, -0.24012421, -2.8245704, -0.57867986, -4.064812, 0
1088, 3611200677, -0.8591057, -0.06900664, 0.4470963, -0.23936114, -2.068848, 0.3317711, -2.4025092, 0
1089, 3611217344, -0.8595714, -0.07041061, 0.44583824, -0.23962702, -0.8838916, -0.8276287, -2.3671408, 0
1091, 3611250678, -0.86232746, -0.072693765, 0.44021904, -0.2394313, -0.5588175, -0.74624604, -0.28017044, 0
1092, 3611267345, -0.8632103, -0.074761055, 0.43829814, -0.23913729, -1.4371384, -0.7843224, 0.7727833, 0
1093, 3611284012, -0.86345005, -0.075984895, 0.43786132, -0.23868649, -2.3153565, -0.39218438, 1.4405193, 0
1095, 3611317346, -0.862423, -0.07607217, 0.43981495, -0.23877959, -1.4099704, 0.9553061, 1.2206068, 0
1096, 3611334013, -0.8619258, -0.077209555, 0.43886742, -0.24193245, -0.76990515, 0.12594147, 0.73177433, 0
1097, 3611350680, -0.86138767, -0.07919249, 0.43726715, -0.24607015, -0.5091313, -1.2004972, 0.16202164, 0
1099, 3611384014, -0.85966873, -0.08487499, 0.4346631, -0.25465146, -0.5096321, -1.1931772, 0.55576897, 0
1100, 3611400681, -0.85814273, -0.088727266, 0.4345575, -0.25863445, -0.51234514, -0.4992905, 0.5801811, 0
1103, 3611450682, -0.85164046, -0.10312584, 0.43729377, -0.2699278, 0.32135105, 1.1175231, -0.6305876, 0
1104, 3611467349, -0.8491317, -0.10771686, 0.43762985, -0.2754376, 0.2875485, 0.8814951, -0.36316967, 0
1105, 3611484016, -0.84622353, -0.110773854, 0.43862742, -0.28152126, -0.52093047, 0.80424756, -0.1624651, 0
1107, 3611517350, -0.8395408, -0.11389621, 0.44327256, -0.29278287, -2.1483634, 1.552565, 0.3785038, 0
1108, 3611534017, -0.8363622, -0.11435899, 0.44615683, -0.2972837, -1.7721672, 2.2629926, 0.31438732, 0
1109, 3611550684, -0.8347409, -0.114164084, 0.4480346, -0.29908615, -1.0452145, 2.8028479, 0.63158417, 0
1111, 3611584018, -0.83331263, -0.114344396, 0.44832668, -0.3025425, -0.7187032, 1.1950958, 0.9471359, 0
1112, 3611600685, -0.83361626, -0.11328722, 0.44798702, -0.3026072, -0.8085076, 0.8514336, 0.6001415, 0
1113, 3611617352, -0.83405787, -0.112182915, 0.44799042, -0.30179524, -1.2413931, 0.3068974, 0.45430756, 0
1115, 3611650686, -0.8351861, -0.104707114, 0.45054245, -0.29753235, -1.1971186, 0.9984156, -1.0514297, 0
1116, 3611667353, -0.83631945, -0.10044415, 0.45046654, -0.295929, -1.2617264, 1.720274, -1.5732126, 0
1117, 3611684020, -0.83724695, -0.09593062, 0.44977862, -0.29585046, -1.7413672, 0.9467174, -1.9801455, 0
1119, 3611717354, -0.840244, -0.083450444, 0.44500616, -0.2983436, -2.6170282, 0.21329677, 0.09753132, 0
1120, 3611734021, -0.84391814, -0.076568976, 0.4386175, -0.29927814, -0.570433, -1.4492298, -0.9409075, 0
1122, 3611767355, -0.8522798, -0.05824367, 0.42317903, -0.30192658, 1.4912993, -2.4332893, -2.1278334, 0
1123, 3611784022, -0.8585354, -0.054158002, 0.41312543, -0.29887217, 2.546488, -1.328669, -2.328597, 0
1124, 3611800689, -0.86476636, -0.055063233, 0.40119416, -0.29699105, 2.171083, -1.476915, -1.836968, 0
1126, 3611834023, -0.8730815, -0.064973876, 0.37771025, -0.301422, 1.9131234, -3.4831524, -5.394302, 0
1127, 3611850690, -0.8742808, -0.06827013, 0.36999732, -0.30673718, 2.3363574, -2.750614, -6.885535, 0
1130, 3611900691, -0.8717644, -0.054539602, 0.3585026, -0.32945657, 9.609369, 6.90518, 2.066536, 0
1131, 3611917358, -0.87194145, -0.04782877, 0.35427633, -0.3345628, 7.97907, 6.874435, 3.4034538, 0
1132, 3611934025, -0.8748591, -0.04637235, 0.3460514, -0.33575705, 8.935857, 1.3630468, 5.250538, 0
1134, 3611967359, -0.876594, -0.04950757, 0.3286947, -0.34800175, 6.1009107, -4.241217, 5.8865194, 0
1135, 3611984026, -0.8732799, -0.04419178, 0.32666165, -0.35879666, 1.8042239, -4.998819, 8.058907, 0
1136, 3612000693, -0.866512, -0.028121259, 0.33501405, -0.3689785, 2.2813761, -4.681041, 6.514286, 0
1138, 3612034027, -0.85729194, -0.026225448, 0.3502792, -0.37640482, -12.701989, 1.3650354, -4.4399886, 0
1139, 3612050694, -0.85644317, -0.030479293, 0.34636822, -0.3815996, -8.309722, -0.30467683, 0.63348293, 0
1140, 3612067361, -0.85661453, -0.030204993, 0.34000602, -0.38692164, -3.4106913, 1.1058226, 6.2492237, 0
1142, 3612100695, -0.85849565, -0.03255881, 0.33821785, -0.38411868, -2.0034509, -0.9596961, 6.505972, 0
1144, 3612134029, -0.8599649, -0.0313635, 0.34064904, -0.37874568, -2.9112594, 1.3028066, 1.8717356, 0
1146, 3612167363, -0.8660995, -0.031257395, 0.3360515, -0.36875072, 0.2692794, -1.598198, 2.700738, 0
1147, 3612184030, -0.8679499, -0.03319825, 0.335576, -0.3646406, -0.9491576, -2.659834, 1.9882336, 0
1149, 3612217364, -0.86728615, -0.038423914, 0.34056783, -0.3610612, -0.85168606, -0.46312472, 0.73255825, 0
1150, 3612234031, -0.8659642, -0.041850153, 0.3425221, -0.36200327, -0.20993924, 0.7186875, -0.15187359, 0
1151, 3612250698, -0.86600924, -0.044299446, 0.34361133, -0.36056912, -0.40063602, 0.48109907, -0.77560806, 0
1153, 3612284032, -0.8657346, -0.05246515, 0.3485682, -0.35533735, -1.4835896, -0.9682515, -1.1085634, 0
1154, 3612300699, -0.8651187, -0.058543295, 0.3525431, -0.3519504, -1.0566059, -0.5807937, -1.8438215, 0
1157, 3612350700, -0.8643597, -0.074185856, 0.36032313, -0.34286952, 0.8540338, 0.13963014, -0.70073795, 0
1158, 3612367367, -0.8628365, -0.08191316, 0.36325774, -0.34184855, 0.7119712, -1.2023187, -0.6284828, 0
1161, 3612417368, -0.8550679, -0.100675486, 0.3802839, -0.33781785, -0.7126807, 0.29902554, -2.2082605, 0
1162, 3612434035, -0.8510558, -0.10832514, 0.3864481, -0.33858672, -0.23065956, 0.22235827, -1.7119446, 0
1163, 3612450702, -0.84706956, -0.11605023, 0.39277795, -0.33873925, 0.3689452, 0.089568295, -0.93596554, 0
1165, 3612484036, -0.8395167, -0.13228194, 0.40577352, -0.33626547, 0.32411367, 1.1910428, -0.39199924, 0
1166, 3612500703, -0.83533955, -0.13965091, 0.41169673, -0.33648852, 0.23024964, 1.9959441, -0.5608196, 0
1167, 3612517370, -0.831707, -0.14581852, 0.41680124, -0.33658653, -0.05511271, 1.9082229, -0.3798113, 0
1169, 3612550704, -0.82459193, -0.1562719, 0.4285655, -0.33462217, -0.4367899, 0.1695978, -0.9942751, 0
1170, 3612567371, -0.8215243, -0.15966725, 0.43563774, -0.33141708, -0.28905523, 0.077915974, -0.8254719, 0
1172, 3612600705, -0.8165133, -0.1647216, 0.44945285, -0.3227669, -1.0029614, 1.2296044, -0.8293152, 0
1173, 3612617372, -0.81608474, -0.16562109, 0.4538663, -0.31716546, -1.1845598, 1.663248, 0.24981594, 0
1176, 3612667373, -0.8137525, -0.17142734, 0.46635437, -0.3015733, -1.0961616, -0.41737542, -1.0454559, 0
1177, 3612684040, -0.81277, -0.17371698, 0.470034, -0.2971678, -1.629873, -1.4150887, -1.3656845, 0
1178, 3612700707, -0.8122672, -0.17360239, 0.47388265, -0.29245982, -2.2713861, -1.3661518, -1.0216665, 0
1180, 3612734041, -0.8119895, -0.16958584, 0.48281088, -0.2807502, -2.5962465, -0.12826194, -1.4289484, 0
1181, 3612750708, -0.8113898, -0.16846758, 0.48739004, -0.27518958, -2.2041385, -0.17312987, -1.4649, 0
1182, 3612767375, -0.8105244, -0.1677253, 0.49169308, -0.27049825, -1.566925, -0.77740854, -1.1991129, 0
1184, 3612800709, -0.8090067, -0.16553119, 0.49807322, -0.26465833, -1.4219021, -1.4303329, 0.67609406, 0
1185, 3612817376, -0.80917764, -0.16328648, 0.49931595, -0.2631846, -1.4345008, -1.184422, 1.2442112, 0
1186, 3612834043, -0.80973554, -0.16123989, 0.49966753, -0.26206005, -1.6258109, -0.85572094, 1.1842384, 0
1188, 3612867377, -0.8109574, -0.16060925, 0.4984185, -0.26104575, -1.3373332, -0.22421774, 0.369689, 0
1189, 3612884044, -0.8113376, -0.16114013, 0.49759525, -0.26110786, -1.3627368, -0.34761882, -0.17406082, 0
1190, 3612900711, -0.8117981, -0.16262698, 0.4958086, -0.26215154, -1.2259632, -0.39584762, -0.3745861, 0
1192, 3612934045, -0.81411386, -0.16292794, 0.4906552, -0.26446888, -1.1583445, 0.26250982, 0.12683392, 0
1193, 3612950712, -0.8154081, -0.16264135, 0.48800167, -0.26556543, -1.1695439, 0.40816697, 0.37838554, 0
1194, 3612967379, -0.8167872, -0.16193943, 0.48553142, -0.26628327, -1.1901182, 0.4758821, 0.32262707, 0
1196, 3613000713, -0.81983477, -0.16159807, 0.47913098, -0.2687073, -1.4018879, -0.23906243, 0.21522808, 0
1197, 3613017380, -0.8214399, -0.16124973, 0.47549662, -0.27046502, -1.3959748, -0.08032508, 0.09712601, 0
1198, 3613034047, -0.8233861, -0.16036855, 0.4710681, -0.27281013, -1.1896709, 0.10538033, -0.35773468, 0
1200, 3613067381, -0.82900035, -0.15489605, 0.460134, -0.277589, -1.4900846, 0.002647036, -1.2960892, 0
1203, 3613117382, -0.8437557, -0.13630614, 0.4381509, -0.27844936, -2.3365583, 1.4179167, -2.5902777, 0
1204, 3613134049, -0.85078573, -0.12725939, 0.42827287, -0.27670252, -1.7474327, 0.7574412, -4.3005886, 0
1205, 3613150716, -0.85796624, -0.11879468, 0.41690496, -0.27565464, -0.33893895, 0.4619358, -5.364661, 0
1207, 3613184050, -0.8739827, -0.09995961, 0.3878714, -0.27519348, 0.24454261, -0.36069807, -4.823235, 0
1208, 3613200717, -0.8828641, -0.08994706, 0.36998716, -0.27492398, -0.7180981, -0.14699675, -5.9256115, 0
1209, 3613217384, -0.8914696, -0.08243162, 0.35202473, -0.2730913, -0.6655189, 0.17125657, -7.914831, 0
1211, 3613250718, -0.90730387, -0.07600228, 0.3147462, -0.26827505, 4.6831822, -0.4616607, -3.8179145, 0
1212, 3613267385, -0.91538733, -0.07691274, 0.291966, -0.26630723, 1.9124236, -2.6201088, -1.4098568, 0
1213, 3613284052, -0.9223567, -0.078992695, 0.2695169, -0.2653156, 1.5453037, -3.8237855, 1.6643801, 0
1215, 3613317386, -0.92498386, -0.07582151, 0.25135136, -0.2747577, 6.2830243, -0.81153196, 1.3508224, 0
1217, 3613350720, -0.92199993, -0.062441733, 0.25381383, -0.28567287, 13.222049, 4.113899, 5.1508064, 0
1219, 3613384054, -0.9219648, -0.0558407, 0.2571631, -0.28415343, 13.745289, 1.8954672, 7.225046, 0
1220, 3613400721, -0.92104363, -0.051599436, 0.26144743, -0.2840325, 11.166006, 1.5937288, 4.9762764, 0
1221, 3613417388, -0.91918486, -0.04322724, 0.26917315, -0.28423542, 8.754338, 1.9049728, 3.1531172, 0
1223, 3613450722, -0.91046464, -0.012568906, 0.29622677, -0.2883731, 2.8568397, -0.08379302, 1.5292549, 0
1224, 3613467389, -0.90444446, 0.010987923, 0.31185487, -0.29089424, 1.4187454, -1.727231, 3.3103485, 0
1226, 3613500723, -0.8985722, 0.026270263, 0.3176601, -0.3016342, -8.142627, -6.9803123, 6.069062, 0
1227, 3613517390, -0.89659137, 0.026648283, 0.3214401, -0.3034854, -14.54139, -15.318677, 5.3102036, 0
1228, 3613534057, -0.8952593, 0.024818711, 0.3321754, -0.29591796, -11.842885, -4.513189, 2.5552206, 0
1231, 3613584058, -0.90182436, 0.030552857, 0.33133927, -0.2756937, -0.81181026, -0.9449047, 3.0127125, 0
1234, 3613634059, -0.907426, 0.021559134, 0.33498544, -0.2528073, -2.3347015, -3.5814288, 1.9414692, 0
1235, 3613650726, -0.90686744, 0.018973798, 0.33942258, -0.2490725, -1.658958, -2.2818918, 0.39760494, 0
1236, 3613667393, -0.9060771, 0.01581543, 0.34310523, -0.2471164, -1.2191353, -0.61773306, 0.27128696, 0
1238, 3613700727, -0.9034326, 0.009809837, 0.35163012, -0.24511838, -0.7884697, -0.096158065, -0.4537859, 0
1239, 3613717394, -0.90198827, 0.0059788004, 0.35584044, -0.2444839, -1.1445954, -0.44998148, -0.92387104, 0
1240, 3613734061, -0.89942795, 1.744479E-4, 0.36117667, -0.24615847, -1.2275119, -0.21375863, -1.2876053, 0
1242, 3613767395, -0.8944427, -0.009073906, 0.37380734, -0.24529843, -0.07664304, 0.53032094, -1.2174196, 0
1243, 3613784062, -0.89211744, -0.015819386, 0.3794921, -0.24469419, 0.8456863, -0.014401666, -0.7593756, 0
1244, 3613800729, -0.8899274, -0.022404335, 0.38495106, -0.24362537, 0.10071024, 0.61488366, -0.76512337, 0
1246, 3613834063, -0.88611466, -0.03744206, 0.39381602, -0.24149781, 1.2500317, -1.5810779, -0.053095818, 0
1248, 3613867397, -0.8782511, -0.05203414, 0.40597028, -0.24732329, -1.2083975, 0.3837013, 0.9369917, 0
1250, 3613900731, -0.8687765, -0.06135554, 0.4255173, -0.24578741, 0.62115526, 3.2809803, -2.6188865, 0
1251, 3613917398, -0.8657705, -0.0676271, 0.4315827, -0.24416696, 0.65436125, 3.1710596, -1.468421, 0
1252, 3613934065, -0.8623397, -0.07524255, 0.43715513, -0.24416669, -0.42310378, 1.0651863, -1.2368851, 0
1254, 3613967399, -0.85524607, -0.088131115, 0.44714049, -0.2467099, -0.16880973, 0.2831652, -1.4432917, 0
1255, 3613984066, -0.85127217, -0.09393439, 0.4529681, -0.24767995, -0.13726467, 0.16951853, -1.1427698, 0
1257, 3614017400, -0.84384626, -0.0998263, 0.46628344, -0.24607153, -0.55306673, 1.3550307, -0.76194, 0
1258, 3614034067, -0.8405377, -0.1020471, 0.4731331, -0.24339458, -0.82939893, 1.9047202, -1.6835165, 0
1259, 3614050734, -0.8394212, -0.104074955, 0.47660565, -0.23958464, -0.70753115, 1.6196605, -0.5961485, 0
1261, 3614084068, -0.8378897, -0.10785892, 0.48321912, -0.22982538, -1.9326557, 0.13276473, -2.191115, 0
1262, 3614100735, -0.8376953, -0.107923366, 0.48517078, -0.22636627, -1.5645784, 0.1299499, -0.5311203, 0
1263, 3614117402, -0.8372857, -0.107155584, 0.48757234, -0.22306257, -1.5012505, 0.3247173, -0.8007488, 0
1265, 3614150736, -0.8366292, -0.10453184, 0.49109623, -0.21900362, -2.6761792, -0.48184007, -1.498313, 0
1266, 3614167403, -0.83678603, -0.1026243, 0.49189436, -0.21751004, -2.6284711, -0.52558845, -1.5838385, 0
1267, 3614184070, -0.83686566, -0.10120063, 0.4924281, -0.21666138, -2.3828466, -0.4987914, -1.4043608, 0
1269, 3614217404, -0.8369222, -0.09886648, 0.49206328, -0.21834314, -1.6484607, -0.4140802, -0.6027374, 0
1270, 3614234071, -0.8367284, -0.09673706, 0.49193797, -0.22031319, -1.4895945, -0.3024632, -0.14465046, 0
1271, 3614250738, -0.83668804, -0.09362997, 0.49178365, -0.22214612, -1.3874314, -0.0011206381, -0.051844597, 0
1273, 3614284072, -0.83874637, -0.08709657, 0.48795217, -0.22546543, -1.862529, 0.4876428, 0.029151917, 0
1275, 3614317406, -0.8426857, -0.08168714, 0.48066908, -0.22842649, -0.6417053, 0.45133996, -2.051703, 0
1277, 3614350740, -0.8472864, -0.075826034, 0.4693632, -0.23678643, -1.6928599, -0.14634681, 0.6071148, 0
1278, 3614367407, -0.8501547, -0.0693198, 0.4630368, -0.24091923, -0.943757, 0.760176, 0.89513016, 0
1280, 3614400741, -0.85950196, -0.0589532, 0.4436358, -0.24694473, -0.5782459, 1.1091522, -2.971334, 0
1281, 3614417408, -0.8642815, -0.05695984, 0.4321833, -0.25100586, 0.4365322, 0.7193841, -2.4610014, 0
1282, 3614434075, -0.86908364, -0.053634945, 0.41968483, -0.2563102, 1.6806297, 0.24749741, -2.3377833, 0
1284, 3614467409, -0.88119197, -0.041948646, 0.38791275, -0.2669791, -1.598345, -0.8388207, -2.245317, 0
1285, 3614484076, -0.88825387, -0.041719817, 0.36851913, -0.27105612, -2.1187985, -1.6275713, -4.50651, 0
1286, 3614500743, -0.8953466, -0.04645096, 0.34809366, -0.27393588, 0.8035609, -1.6176509, -6.594248, 0
1288, 3614534077, -0.9080839, -0.056457587, 0.30541253, -0.28094938, 4.0177875, -1.8439943, -2.877347, 0
1290, 3614567411, -0.91548556, -0.06259558, 0.27159947, -0.2901982, 3.2913678, -1.294558, -1.1708469, 0
1292, 3614600745, -0.9169325, -0.06849149, 0.25511932, -0.2991173, 6.6682415, 0.92498255, 1.1761999, 0
1296, 3614667413, -0.9156818, -0.07286078, 0.24756083, -0.30813158, 10.180997, 1.7891077, 6.7624397, 0
1297, 3614684080, -0.9137555, -0.06851077, 0.25339195, -0.3101017, 9.299505, 3.217771, 4.986973, 0
1298, 3614700747, -0.9109245, -0.06035841, 0.26359895, -0.3116125, 6.000264, 2.674696, 2.9906626, 0
1300, 3614734081, -0.9043637, -0.036754496, 0.29535517, -0.30586618, 3.5989273, 0.8361251, 2.8233204, 0
1301, 3614750748, -0.9016741, -0.024742335, 0.30656713, -0.30397642, -1.3358972, -3.3681107, 4.431575, 0
1302, 3614767415, -0.89823663, -0.028703108, 0.31759354, -0.30248076, -11.882281, -8.6851, 2.1555643, 0
1304, 3614800749, -0.89365107, -0.035211097, 0.329629, -0.30249953, -10.312055, -9.081237, 5.6850595, 0
1305, 3614817416, -0.89183736, -0.035322294, 0.3383597, -0.29816863, -5.0763316, 1.3713403, 5.1010265, 0
1308, 3614867417, -0.894276, -0.04072126, 0.34567362, -0.28130972, -1.9450214, 1.2149093, 0.8059101, 0
1309, 3614884084, -0.8974366, -0.041638017, 0.342927, -0.27438712, -0.40757588, -1.2396551, 1.2696934, 0
1311, 3614917418, -0.9003977, -0.04530658, 0.3400732, -0.26757205, 0.33038953, -3.672587, 1.7393236, 0
1312, 3614934085, -0.90073156, -0.04623029, 0.34122315, -0.26481238, -0.4946087, -3.385242, -0.26995373, 0
1313, 3614950752, -0.90030575, -0.048458893, 0.34276605, -0.26386723, -1.2019114, -2.0032027, -1.288414, 0
1315, 3614984086, -0.89914244, -0.055291668, 0.34681335, -0.26118818, -0.076832354, 0.2707139, -2.701518, 0
1316, 3615000753, -0.8980439, -0.058974966, 0.34949368, -0.26058936, -0.47116867, -0.13283308, -2.838624, 0
1317, 3615017420, -0.8966705, -0.061462376, 0.35345, -0.25940445, -0.6565002, 1.1454837, -2.701182, 0
1319, 3615050754, -0.8930978, -0.06693576, 0.36481655, -0.2545942, 0.74639046, 1.9202123, -3.200234, 0
1320, 3615067421, -0.89145136, -0.0718904, 0.36959606, -0.2521083, 0.90550977, 1.79289, -2.3880906, 0
1323, 3615117422, -0.88520783, -0.08747998, 0.38072732, -0.25261533, -0.5728255, -1.1202397, 0.23045444, 0
1324, 3615134089, -0.88175637, -0.08956798, 0.386551, -0.25509784, -1.0573261, -0.2103207, -0.24645615, 0
1325, 3615150756, -0.87815595, -0.091669925, 0.39217192, -0.25817326, -0.5447212, 0.83358496, -0.17694283, 0
1327, 3615184090, -0.8708082, -0.09366978, 0.4047981, -0.26281348, -0.57666945, 2.263812, -0.45564556, 0
1328, 3615200757, -0.8677812, -0.09418826, 0.41022554, -0.26422068, -1.0601052, 2.017533, -0.94961643, 0
1329, 3615217424, -0.8654389, -0.09469975, 0.41449338, -0.2650587, -1.3056033, 1.2859176, -1.1217785, 0
1331, 3615250758, -0.8615554, -0.09877348, 0.42201492, -0.2643535, -0.35494283, -0.3301087, -0.5126867, 0
1332, 3615267425, -0.8586722, -0.10235631, 0.42774898, -0.26315254, -0.32043174, -0.568851, -0.91039276, 0
1333, 3615284092, -0.85706484, -0.103621855, 0.43258065, -0.25998, 0.28298104, 0.27948844, -0.5918331, 0
1335, 3615317426, -0.8527903, -0.10453747, 0.44328153, -0.25560796, -0.8539149, 1.3961426, -0.934783, 0
1336, 3615334093, -0.8514289, -0.105097026, 0.44760248, -0.25236633, -1.3328865, 1.3119882, -0.52695656, 0
1339, 3615384094, -0.8488061, -0.10626051, 0.4566737, -0.24433412, -1.4764454, -0.7246079, -1.0235529, 0
1340, 3615400761, -0.8474717, -0.10617707, 0.45991507, -0.24291909, -2.2397742, -1.4638598, -1.1088476, 0
1342, 3615434095, -0.844201, -0.101569384, 0.4692056, -0.23846939, -1.2859623, 0.61384124, 0.15379524, 0
1343, 3615450762, -0.84338695, -0.0988995, 0.47313574, -0.23467721, -1.0391309, 0.7966115, -1.1656199, 0
1344, 3615467429, -0.8431251, -0.09637171, 0.47625715, -0.23031472, -1.9752711, 0.87082136, -2.3733063, 0
1346, 3615500763, -0.8451178, -0.09235504, 0.476342, -0.22440612, -1.5555071, -0.8549538, -1.1034479, 0
1347, 3615517430, -0.845894, -0.08970925, 0.47681597, -0.22153008, -2.4603264, -0.54141575, -0.68538475, 0
1348, 3615534097, -0.84685946, -0.087773785, 0.4769312, -0.21834557, -2.600588, -0.40689746, -0.43599796, 0
1351, 3615584098, -0.84992653, -0.078940086, 0.47558126, -0.21267171, -2.883478, 0.120641954, 0.5737362, 0
1352, 3615600765, -0.8524703, -0.07234021, 0.4739063, -0.2085363, -2.7685921, 0.9700927, 0.43173122, 0
1354, 3615634099, -0.8602899, -0.05753439, 0.4673804, -0.19534607, -1.1593091, 0.3744953, -0.80325985, 0
1355, 3615650766, -0.86404014, -0.05199507, 0.46352768, -0.18943723, -0.87467283, -0.24631904, -1.0240927, 0
1356, 3615667433, -0.8670932, -0.048738264, 0.4600057, -0.1848833, -0.72850716, -0.83929807, -1.3507137, 0
1359, 3615717434, -0.87319547, -0.05034528, 0.45231304, -0.1744165, 0.08351472, -3.793336, 0.58860874, 0
1361, 3615750768, -0.87368935, -0.053877264, 0.45072857, -0.17498913, -0.2277076, -1.8928726, 0.19718838, 0
1362, 3615767435, -0.8732396, -0.056259844, 0.44976372, -0.17892322, 0.26860803, -0.9509694, 0.37431335, 0
1363, 3615784102, -0.87265456, -0.058691025, 0.44844842, -0.18421906, 0.3305207, -0.062422697, 0.29235554, 0
1365, 3615817436, -0.87151337, -0.060286418, 0.44594073, -0.19488469, 0.84933114, 0.99373335, -0.10698223, 0
1367, 3615850770, -0.8715795, -0.06120359, 0.4424112, -0.20220973, 0.4734371, 0.96156627, -0.38848495, 0
1369, 3615884104, -0.87189835, -0.064812064, 0.43886742, -0.20736797, -0.71871376, -0.11617958, -0.39444733, 0
1370, 3615900771, -0.8718816, -0.06602512, 0.43761158, -0.20969564, -1.1032441, -0.10697179, -0.5659323, 0
1371, 3615917438, -0.8721697, -0.066954285, 0.43620297, -0.21113347, -1.0754424, 0.27658987, -0.31562328, 0
1373, 3615950772, -0.874042, -0.070024475, 0.4323528, -0.21031296, -1.1726122, 0.4869907, -0.27853394, 0
1374, 3615967439, -0.8759183, -0.0716678, 0.42928737, -0.2082219, -1.6628289, 0.49161044, -0.23101234, 0
1375, 3615984106, -0.87774915, -0.07301004, 0.42611098, -0.20656475, -1.6694782, 0.08853091, -1.1325512, 0
1377, 3616017440, -0.8806143, -0.073498875, 0.42117652, -0.20430404, -1.6586077, 0.31120506, -2.3407845, 0
1378, 3616034107, -0.8816392, -0.07238208, 0.41971898, -0.20327899, -1.2378216, 0.67925954, -3.038538, 0
1379, 3616050774, -0.88308483, -0.07093093, 0.41774312, -0.20157851, -1.2318273, 0.8395838, -3.6201558, 0
1382, 3616100775, -0.8915109, -0.06961745, 0.40392193, -0.19293012, -1.4597226, 0.426678, -4.815527, 0
1383, 3616117442, -0.89460975, -0.07149823, 0.39698896, -0.19228792, -1.2413427, -0.695205, -4.5637746, 0
1385, 3616150776, -0.9006746, -0.07306054, 0.38443363, -0.18886948, -1.1632566, -1.1747569, -5.2605133, 0
1386, 3616167443, -0.90356153, -0.073589675, 0.3780106, -0.1878366, -0.5881461, -0.4306676, -4.678164, 0
1387, 3616184110, -0.90656126, -0.07548033, 0.37042013, -0.18775386, -0.7707787, 0.3190296, -4.7802954, 0
1389, 3616217444, -0.9112633, -0.08473925, 0.35723543, -0.1865871, 3.7411947, -1.5490133, -1.795538, 0
1390, 3616234111, -0.91343915, -0.089716665, 0.35169986, -0.18412066, 5.6651077, -2.2203865, 0.31262207, 0
1392, 3616267445, -0.91791165, -0.102760516, 0.33736926, -0.18186213, 7.323761, -0.5387463, 6.663101, 0
1393, 3616284112, -0.9192049, -0.10738335, 0.33203027, -0.18248409, 8.228876, 0.68928224, 7.862463, 0
1394, 3616300779, -0.9208278, -0.11373193, 0.32623306, -0.1809044, 9.739698, 1.2020724, 8.969103, 0
1397, 3616350780, -0.9237977, -0.14502552, 0.3087001, -0.17402026, 9.276562, -2.7997854, 8.5080185, 0
1398, 3616367447, -0.92360073, -0.15428257, 0.30459082, -0.17434505, 7.8199654, -1.0660911, 6.8823166, 0
1400, 3616400781, -0.9240022, -0.1631695, 0.29787603, -0.17572334, 3.3374243, 3.5614023, 4.602414, 0
1401, 3616417448, -0.92605805, -0.16391963, 0.29275033, -0.17279303, 1.9829413, 3.2588918, 4.1601515, 0
1402, 3616434115, -0.9269533, -0.16910166, 0.29006678, -0.16744189, -2.1172469, 2.3102121, 2.0148783, 0
1404, 3616467449, -0.92569107, -0.17708237, 0.29275927, -0.16137895, -7.880196, 2.37526, 1.5203152, 0
1405, 3616484116, -0.9263136, -0.175901, 0.2929759, -0.15868299, -8.086554, 1.450278, 0.7675419, 0
1406, 3616500783, -0.9278029, -0.17173614, 0.29141882, -0.15740654, -5.5033717, -0.9334937, 1.2259665, 0
1408, 3616534117, -0.9297463, -0.16464224, 0.28483656, -0.16536674, 0.9096222, -2.2201014, 3.64857, 0
1409, 3616550784, -0.93007, -0.16062668, 0.28281158, -0.17087965, 1.7569667, -0.09119284, 3.0438423, 0
1410, 3616567451, -0.93004584, -0.15733016, 0.28180987, -0.1756654, 1.8676322, 1.4182574, 1.5288181, 0
1412, 3616600785, -0.9291433, -0.15100035, 0.28422898, -0.18198532, 0.70743215, 1.1231515, -0.12111378, 0
1413, 3616617452, -0.9283387, -0.14782089, 0.28624076, -0.18551496, -0.2691277, 1.59279, -0.11315632, 0
1415, 3616650786, -0.92658114, -0.14185299, 0.29335088, -0.1878394, -2.2215383, 1.0496535, -0.90433216, 0
1416, 3616667453, -0.9260344, -0.1397697, 0.2967464, -0.18676028, -2.023537, -0.30299273, -1.2898731, 0
1417, 3616684120, -0.9254662, -0.13773833, 0.3004373, -0.18517847, -1.0272404, -0.887278, -1.1867514, 0
1419, 3616717454, -0.9235441, -0.13349797, 0.3092806, -0.18331239, -0.2466546, -0.33383775, -1.5723639, 0
1420, 3616734121, -0.9221721, -0.13151224, 0.31389898, -0.18380359, 0.009468903, -0.6110569, -1.6293373, 0
1421, 3616750788, -0.9205189, -0.1300458, 0.31853837, -0.18514775, 0.04059241, -1.0976912, -1.469243, 0
1424, 3616800789, -0.9141259, -0.1239465, 0.33340457, -0.19459103, -0.74285334, -0.40912667, -1.2636652, 0
1425, 3616817456, -0.9116353, -0.122519396, 0.33886454, -0.19772229, -1.0384012, -0.1350039, -1.624816, 0
1427, 3616850790, -0.9069598, -0.11858908, 0.35158256, -0.19940767, -0.9389153, 0.651941, -1.7910862, 0
1428, 3616867457, -0.9046939, -0.11908192, 0.3570061, -0.19977005, -0.15930685, -0.84870106, -1.7384186, 0
1429, 3616884124, -0.9022672, -0.11852815, 0.36331156, -0.19970754, -0.5199904, -0.27631035, -1.1908503, 0
1431, 3616917458, -0.8964012, -0.11892444, 0.3765297, -0.20139647, -0.5922709, -0.36326578, -1.1430016, 0
1432, 3616934125, -0.89340466, -0.118358955, 0.3833657, -0.20214638, -0.93302065, -0.101024896, -1.0518799, 0
1433, 3616950792, -0.89052933, -0.118381366, 0.3893296, -0.2034183, -1.4330583, -0.26094702, -0.8048048, 0
1435, 3616984126, -0.885198, -0.11421425, 0.4023998, -0.20363545, -0.7319171, -0.094220154, -1.1917791, 0
1436, 3617000793, -0.8821832, -0.112654135, 0.4093281, -0.2037786, -0.5940402, -0.18960662, -1.3389349, 0
1439, 3617050794, -0.8734441, -0.109351434, 0.42802265, -0.20481123, -0.33808413, -0.016720494, -1.4203367, 0
1440, 3617067461, -0.8707584, -0.10856302, 0.43359554, -0.20494442, -0.26433715, -0.4018393, -1.1186104, 0
1441, 3617084128, -0.86807597, -0.10807505, 0.43908396, -0.20489556, -0.75618637, -0.3927619, -0.6067085, 0
1443, 3617117462, -0.86254185, -0.10767643, 0.45012617, -0.20451695, -1.068305, 0.10480791, -0.51120377, 0
1444, 3617134129, -0.8602062, -0.10600115, 0.45550725, -0.20331104, -0.9365007, 0.24757856, -0.7314606, 0
1446, 3617167463, -0.8561012, -0.10071289, 0.46608728, -0.1993077, -0.76216596, 1.7619777, -0.74548244, 0
1447, 3617184130, -0.85449445, -0.098343946, 0.4707771, -0.19634156, -0.73507756, 0.977307, -0.4238882, 0
1448, 3617200797, -0.8532891, -0.096254624, 0.47480974, -0.19287741, -0.889004, 0.2838928, -0.3473091, 0
1450, 3617234131, -0.85178894, -0.092885554, 0.48214233, -0.1827019, -1.3128065, -0.03615322, -0.115468025, 0
1451, 3617250798, -0.8512459, -0.089827776, 0.48596126, -0.17653966, -1.4806314, -0.059607133, -0.14660645, 0
1454, 3617300799, -0.849212, -0.08300541, 0.49688017, -0.15834299, -0.7804415, -0.37042344, 0.055057526, 0
1455, 3617317466, -0.8485688, -0.0812582, 0.49983978, -0.15330243, -0.88127446, -0.6595121, 0.33619976, 0
1456, 3617334133, -0.8473575, -0.079842255, 0.50338024, -0.14910474, -1.3140754, -1.107107, 0.57075214, 0
1458, 3617367467, -0.84319437, -0.07496488, 0.51330525, -0.14118999, -1.4033241, -0.21843809, -0.11156654, 0
1459, 3617384134, -0.84164745, -0.07271401, 0.5168323, -0.13870823, -0.93990105, -1.4035103, 0.97619534, 0
1460, 3617400801, -0.8399401, -0.06823226, 0.52140814, -0.13413323, -1.0307938, 0.016124152, 0.5420017, 0
1462, 3617434135, -0.8379239, -0.062437274, 0.5272749, -0.1264106, -0.59018284, -0.4846875, 0.579546, 0
1463, 3617450802, -0.8372743, -0.060468726, 0.5294461, -0.122537136, -0.60288197, -0.18856816, 0.051321983, 0
1464, 3617467469, -0.8370732, -0.060006343, 0.5303809, -0.120071255, -0.512162, -1.1104453, -0.10626125, 0
1466, 3617500803, -0.8372286, -0.061291285, 0.53026736, -0.11883389, -1.4054457, -2.1839273, 0.6632099, 0
1469, 3617550804, -0.83549833, -0.061759092, 0.53254783, -0.120559305, -1.2518867, -0.65811837, -0.33205032, 0
1470, 3617567471, -0.83554834, -0.061494187, 0.53226084, -0.12161089, -0.94327986, -0.42749602, -0.58322906, 0
1471, 3617584138, -0.8361289, -0.061083764, 0.53117126, -0.12258759, -1.0768791, -0.3367488, -0.31686592, 0
1473, 3617617472, -0.8395249, -0.06275107, 0.5253867, -0.12346005, -2.0721009, -0.2755219, 0.44799805, 0
1474, 3617634139, -0.8421256, -0.064976156, 0.5209984, -0.12319209, -2.365273, -0.49746323, 0.45452595, 0
1475, 3617650806, -0.84476006, -0.067321494, 0.51655376, -0.122612216, -2.0218256, -0.47729522, -0.31682587, 0
1477, 3617684140, -0.8509317, -0.0680046, 0.5068889, -0.1198645, -1.5380561, 0.09523661, -1.0806637, 0
1478, 3617700807, -0.8553954, -0.06808446, 0.49980354, -0.11778443, -1.2003672, 0.51747406, -1.1532469, 0
1479, 3617717474, -0.86128, -0.07036551, 0.48966897, -0.11611673, -2.0025752, 0.34289116, -1.4162922, 0
1481, 3617750808, -0.8753622, -0.07680454, 0.46363074, -0.1135869, -1.0281239, 0.38586563, -3.2347546, 0
1482, 3617767475, -0.8812774, -0.07888835, 0.45176977, -0.11421129, -0.31050062, 0.12726486, -4.7192783, 0
1483, 3617784142, -0.88762826, -0.07950687, 0.43847615, -0.11639067, -0.9861221, -0.09198493, -4.7188954, 0
1485, 3617817476, -0.89972043, -0.078137755, 0.41252956, -0.11929017, -1.342601, -0.21110667, -5.5696893, 0
1486, 3617834143, -0.90453875, -0.07668923, 0.40099552, -0.1230618, -1.9200615, -0.2048273, -5.557521, 0
1487, 3617850810, -0.908269, -0.07395066, 0.39147738, -0.12781754, -1.7334185, -0.33357424, -5.073322, 0
1489, 3617884144, -0.91368693, -0.062426265, 0.37870878, -0.13368703, -0.5084021, 0.21592268, -5.4295497, 0
1490, 3617900811, -0.9165346, -0.05915204, 0.37179586, -0.1350792, 1.2818656, 0.7729052, -5.1282377, 0
1491, 3617917478, -0.9198133, -0.0617664, 0.3631468, -0.13515162, 4.472219, -0.33043334, -2.3252292, 0
1493, 3617950812, -0.9255441, -0.06512593, 0.34632704, -0.13855487, 4.2204905, -2.4244723, 1.4250288, 0
1495, 3617984146, -0.92868364, -0.06771585, 0.33565053, -0.14252532, 5.9148, 0.17709364, 3.6830873, 0
1497, 3618017480, -0.93152595, -0.0838745, 0.32490748, -0.1402603, 8.739791, -1.7863064, 5.2936487, 0
1498, 3618034147, -0.93272614, -0.09560553, 0.31907544, -0.13815165, 9.044525, -3.4051251, 5.9024324, 0
1500, 3618067481, -0.93601733, -0.11683508, 0.30531943, -0.13043934, 9.542881, -3.317647, 6.1085453, 0
1501, 3618084148, -0.93715775, -0.12905642, 0.2989068, -0.12548983, 9.345327, -1.6148304, 5.9116, 0
1502, 3618100815, -0.9376503, -0.14278567, 0.2934245, -0.11974775, 9.367023, -0.8838013, 4.469549, 0
1504, 3618134149, -0.9379848, -0.16582344, 0.28486297, -0.10748768, 5.940729, 0.60949206, 4.8787537, 0
1505, 3618150816, -0.93965477, -0.1664675, 0.2807432, -0.10263468, 4.7248597, 2.391747, 5.5579233, 0
1506, 3618167483, -0.940995, -0.16879068, 0.27673495, -0.097309664, 2.7053595, 3.2809637, 3.8349676, 0
1508, 3618200817, -0.940339, -0.17466211, 0.27871257, -0.08711201, -6.42413, 6.7700458, 1.366641, 0
1510, 3618234151, -0.9416903, -0.17595029, 0.2729636, -0.08812012, -7.806343, -0.15138108, 1.4031105, 0
1512, 3618267485, -0.94636536, -0.16585723, 0.26409608, -0.08456203, 0.3672537, -2.9230046, 4.8015003, 0
1513, 3618284152, -0.9471717, -0.1604891, 0.26349226, -0.087715715, -0.2875056, 0.87490785, 3.3772488, 0
1514, 3618300819, -0.9480293, -0.15515953, 0.2631863, -0.0889515, -0.3838797, 2.0904562, 1.9000044, 0
1516, 3618334153, -0.9489418, -0.14721563, 0.26482853, -0.08784212, 0.1230374, 1.2570375, 1.8157225, 0
1517, 3618350820, -0.9485342, -0.14343093, 0.26790833, -0.08915718, -0.89466333, -1.048255, 0.65988255, 0
1518, 3618367487, -0.9481449, -0.1400603, 0.2702911, -0.09143509, -1.1689808, -2.3233325, -0.24368572, 0
1520, 3618400821, -0.9474874, -0.13560578, 0.2733667, -0.09572205, -0.46236247, -1.1118157, -0.6593857, 0
1521, 3618417488, -0.94735485, -0.1308794, 0.27518538, -0.098365456, -0.10448001, 0.13393322, -0.9165859, 0
1522, 3618434155, -0.9469959, -0.12636563, 0.2779283, -0.09999919, 0.08549728, 0.75306463, -0.8640928, 0
1525, 3618484156, -0.94329077, -0.12021597, 0.29179895, -0.10303998, 0.022743113, -0.81050724, -1.9271998, 0
1527, 3618517490, -0.940152, -0.116472706, 0.30242726, -0.10535383, -0.85435057, -0.96532315, -0.25000763, 0
1528, 3618534157, -0.9385338, -0.11387297, 0.30824262, -0.10576898, -1.4478693, -0.23204234, -0.33718777, 0
1529, 3618550824, -0.9370604, -0.111422025, 0.31369287, -0.10541819, -1.3130966, 0.189666, -0.52340984, 0
1531, 3618584158, -0.933986, -0.106363826, 0.3250149, -0.103611946, -0.3599788, 0.86156315, -0.52774334, 0
1532, 3618600825, -0.93241715, -0.10357152, 0.33073273, -0.10247032, -0.046147827, 0.32664496, -1.070198, 0
1533, 3618617492, -0.9307091, -0.10148991, 0.33669007, -0.10066414, -0.508245, -0.17439179, -1.1885061, 0
1535, 3618650826, -0.9268806, -0.09688328, 0.34960338, -0.09641901, -0.81769466, -0.80983096, -1.4108486, 0
1536, 3618667493, -0.925003, -0.093552686, 0.35599747, -0.09432095, -0.4033658, -0.4040377, -1.139576, 0
1537, 3618684160, -0.9229776, -0.091928765, 0.36201465, -0.09284584, -0.62071043, -0.6323308, -0.9688835, 0
1540, 3618734161, -0.9153804, -0.08407355, 0.38244584, -0.0935889, -1.1579989, 0.22055052, -0.4083538, 0
1541, 3618750828, -0.91291577, -0.08192256, 0.38849568, -0.09464589, -0.9074277, -1.202657, -0.91464424, 0
1543, 3618784162, -0.90846586, -0.07743302, 0.39975134, -0.09437181, -0.43403333, -0.745378, -0.09964752, 0
1544, 3618800829, -0.90621537, -0.07423711, 0.40560806, -0.093583286, -0.11411543, -0.29523364, -0.211833, 0
1545, 3618817496, -0.90378577, -0.07194333, 0.41146174, -0.093315676, -0.30324247, 0.047103595, -0.32090187, 0
1547, 3618850830, -0.8981092, -0.0666164, 0.4247192, -0.09267722, -0.34618893, 1.5145587, -0.74565125, 0
1548, 3618867497, -0.8953756, -0.06426531, 0.43096963, -0.09192984, -0.66185206, 0.9089389, -0.9179411, 0
1550, 3618900831, -0.8903805, -0.054854583, 0.4435111, -0.08674581, 0.076027036, 0.16999277, -1.2280045, 0
1551, 3618917498, -0.88815445, -0.050409228, 0.4492413, -0.08268057, 0.05431767, 1.4945277, -1.0492668, 0
1552, 3618934165, -0.8859843, -0.048822433, 0.454245, -0.07951683, -0.64309394, 0.31611967, -0.8520336, 0
1554, 3618967499, -0.8811174, -0.043975465, 0.46512616, -0.073274925, -1.267973, 0.19367258, -0.90303326, 0
1555, 3618984166, -0.87887734, -0.04084325, 0.46996874, -0.07105908, -1.1142405, -0.539793, -1.1623363, 0
1556, 3619000833, -0.8765858, -0.036292188, 0.47480196, -0.06969041, -0.93622804, -0.25043184, -1.1303606, 0
1558, 3619034167, -0.8717447, -0.026682138, 0.48453587, -0.067731366, -1.2498467, 0.014869087, -1.0289183, 0
1559, 3619050834, -0.86908126, -0.022626325, 0.48951676, -0.067620754, -1.28375, -0.88247824, -1.2717848, 0
1560, 3619067501, -0.86671853, -0.020227231, 0.49369943, -0.06829409, -1.5173633, -0.9250617, -0.9936762, 0
1562, 3619100835, -0.8611373, -0.015282273, 0.5033835, -0.06947933, -1.6474414, -0.998027, -0.61493206, 0
1563, 3619117502, -0.8575982, -0.012293458, 0.5094428, -0.06968205, -1.4803554, 0.5325295, -0.83603764, 0
1564, 3619134169, -0.8546082, -0.010278121, 0.51436347, -0.07058886, -1.3769194, -0.21175405, -0.44693756, 0
1567, 3619184170, -0.84847534, -0.008841917, 0.5242166, -0.07226178, -0.8660519, -0.65491945, 0.5012665, 0
1568, 3619200837, -0.8465359, -0.009084247, 0.5272244, -0.07309115, -0.9561044, -0.23605002, 0.9517212, 0
1570, 3619234171, -0.84253913, -0.008906752, 0.5333071, -0.075134724, -0.41513464, 0.34001333, 1.0958462, 0
1571, 3619250838, -0.8407613, -0.007627979, 0.5360307, -0.07580742, -0.23157284, 0.9398751, 0.911109, 0
1572, 3619267505, -0.83968174, -0.008740291, 0.53734523, -0.07830468, -0.7101248, -0.39034024, 1.3421402, 0
1574, 3619300839, -0.8375969, -0.010172293, 0.53986275, -0.08300221, -1.1533277, -0.1455665, 0.779418, 0
1575, 3619317506, -0.8362664, -0.010937765, 0.5415172, -0.08550465, -1.3173939, -0.114240006, 0.3732586, 0
1576, 3619334173, -0.8347453, -0.011964172, 0.5434308, -0.08805372, -0.86079556, -0.10040884, -0.22317791, 0
1578, 3619367507, -0.833438, -0.015432648, 0.5443894, -0.09378815, -0.5225621, 0.29463524, 0.2539854, 0
1579, 3619384174, -0.8342595, -0.01836253, 0.5425681, -0.09647287, -0.9000299, 0.18972483, 0.53611374, 0
1582, 3619434175, -0.8388256, -0.033749215, 0.53381807, -0.10141118, -1.0188054, -0.020415729, -0.7029772, 0
1583, 3619450842, -0.8406714, -0.04224226, 0.53000057, -0.10295575, -1.1049576, -0.13410023, -1.2366056, 0
1585, 3619484176, -0.8472779, -0.05849333, 0.5172723, -0.10555281, -1.4814363, 0.24269624, -2.3914585, 0
1586, 3619500843, -0.8517912, -0.06594117, 0.5084725, -0.10757532, -1.49832, 0.51279056, -3.08601, 0
1589, 3619550844, -0.8664713, -0.07459658, 0.47996405, -0.11537145, -0.39182726, 1.195891, -5.43308, 0
1590, 3619567511, -0.87215567, -0.072169274, 0.47008398, -0.114762425, -0.74707764, 1.3613298, -4.2992873, 0
1591, 3619584178, -0.8780355, -0.07308703, 0.45888752, -0.1146623, -3.2094676, 0.46139887, -3.3881502, 0
1593, 3619617512, -0.8884558, -0.080710314, 0.43647823, -0.11675692, -2.5428643, 1.1095352, -4.8300796, 0
1594, 3619634179, -0.89296204, -0.08217956, 0.4263472, -0.1187724, -0.9908881, -0.39204618, -3.5583286, 0
1595, 3619650846, -0.8977057, -0.078675, 0.41700143, -0.118565984, -0.21507356, -0.82548475, -0.29233646, 0
1598, 3619700847, -0.90967923, -0.053950667, 0.39574462, -0.113897, 2.5582464, 3.0816703, -2.7319703, 0
1599, 3619717514, -0.9132601, -0.053671405, 0.38818717, -0.11135323, 3.4445157, 1.5203097, -3.461842, 0
1601, 3619750848, -0.9187114, -0.06667477, 0.3750126, -0.104416534, 6.035858, -3.8803585, 1.1796799, 0
1602, 3619767515, -0.9207225, -0.07118983, 0.3697132, -0.10260329, 4.9840484, -4.3969636, 3.1609936, 0
1604, 3619800849, -0.9234751, -0.077152275, 0.36108497, -0.10427025, 7.059784, -2.5049286, 3.856514, 0
1605, 3619817516, -0.9245964, -0.08870522, 0.355486, -0.10438326, 9.445076, -3.2617638, 6.066036, 0
1606, 3619834183, -0.92540604, -0.09979086, 0.3506452, -0.103569224, 9.862304, -4.499399, 7.7899475, 0
1608, 3619867517, -0.9278906, -0.1192217, 0.33923402, -0.09868491, 9.827104, -2.234133, 7.15316, 0
1609, 3619884184, -0.9287324, -0.13098459, 0.33349442, -0.095361784, 8.566018, -0.8101948, 5.930155, 0
1610, 3619900851, -0.9284222, -0.1444473, 0.32947302, -0.09288649, 6.678483, 0.09175464, 4.9272146, 0
1613, 3619950852, -0.9277246, -0.164334, 0.32256216, -0.09103979, -2.6926498, 6.295749, 5.623266, 0
1614, 3619967519, -0.9271686, -0.16430268, 0.32447526, -0.08995564, -7.0765324, 11.313884, 4.6298285, 0
1616, 3620000853, -0.9255552, -0.16975081, 0.32384318, -0.098341435, -8.946797, 0.54717076, 1.2067747, 0
1617, 3620017520, -0.9277728, -0.1685071, 0.31805602, -0.09847222, -2.8884273, -6.7917747, 2.0099964, 0
1618, 3620034187, -0.9293491, -0.16737872, 0.31353807, -0.100007966, 3.043673, -4.125036, 5.5536537, 0
1620, 3620067521, -0.93122035, -0.15068847, 0.31133938, -0.11490323, 0.48102045, 4.2929115, 1.3519382, 0
1621, 3620084188, -0.9310912, -0.14587446, 0.31320256, -0.1170784, 0.57673204, 4.776288, 1.2768106, 0
1622, 3620100855, -0.930294, -0.14199814, 0.31707358, -0.11775839, 0.91940916, 2.921586, 1.8787823, 0
1624, 3620134189, -0.92779815, -0.13356882, 0.32770932, -0.11819407, -1.2060789, -1.3673329, -1.1684418, 0
1625, 3620150856, -0.92675674, -0.12959743, 0.332185, -0.1182922, -0.7082352, -2.647386, -1.2820988, 0
1626, 3620167523, -0.92592245, -0.12478259, 0.33642653, -0.11801406, -0.6886486, -1.2869722, -1.4535837, 0
1628, 3620200857, -0.9238086, -0.11010583, 0.3466455, -0.11960192, -0.13894862, -0.18200098, -2.5296583, 0
1629, 3620217524, -0.9225868, -0.10470791, 0.35074797, -0.121897615, -0.40386623, -0.23263527, -2.7519746, 0
1630, 3620234191, -0.9210153, -0.10114213, 0.3550065, -0.12443737, -0.42683867, 0.7208684, -2.7693863, 0
1632, 3620267525, -0.9170645, -0.090822734, 0.36596024, -0.12973201, -0.12051103, 0.39384994, -3.4174862, 0
1633, 3620284192, -0.9146256, -0.0860548, 0.37217918, -0.13247925, -0.28592113, 0.7211047, -3.1289797, 0
1635, 3620317526, -0.9094172, -0.07631775, 0.3848632, -0.13794696, -1.1644188, 0.36855745, -2.4558177, 0
1636, 3620334193, -0.9066501, -0.07086198, 0.39135298, -0.14078413, -1.3949763, -0.21691911, -2.3638425, 0
1637, 3620350860, -0.90395415, -0.06619944, 0.39748675, -0.14318544, -1.3696057, -0.83280796, -2.4152894, 0
1640, 3620400861, -0.8975283, -0.058034442, 0.41154334, -0.1473786, -0.18900613, -0.07596783, -0.82618713, 0
1641, 3620417528, -0.8952609, -0.056322683, 0.4160163, -0.14926238, -0.5539186, -0.7033991, -0.38894367, 0
1643, 3620450862, -0.8906724, -0.05205634, 0.42465565, -0.15386206, -0.92141944, -0.901494, -0.61793137, 0
1644, 3620467529, -0.88835603, -0.04969982, 0.42881033, -0.15648833, -0.6147941, -0.12821329, -0.38363934, 0
1645, 3620484196, -0.8859277, -0.047659807, 0.43286434, -0.15969479, -0.27283823, 0.26633313, -0.41441727, 0
1647, 3620517530, -0.88132286, -0.043277323, 0.44058093, -0.16522443, 0.02586179, 0.5686617, -0.5609913, 0
1648, 3620534197, -0.87919015, -0.04223375, 0.44387043, -0.1680283, 0.12400231, 0.030478505, -0.7635088, 0
1649, 3620550864, -0.8771185, -0.042142577, 0.44681448, -0.17104706, -0.25248402, -0.49071097, -0.5481138, 0
1651, 3620584198, -0.8727806, -0.04475137, 0.4525777, -0.17730795, -0.71087337, -0.86413926, -0.027178764, 0
1652, 3620600865, -0.87053764, -0.04670634, 0.45557168, -0.18013993, -0.35314444, -0.708673, -0.010951042, 0
1655, 3620650866, -0.8639767, -0.048538946, 0.46453047, -0.1881831, 0.36442178, 0.662922, -0.5816374, 0
1656, 3620667533, -0.8624523, -0.04916875, 0.46653268, -0.19004948, -0.16330393, 0.99709463, -0.5705061, 0
1658, 3620700867, -0.86058724, -0.051601022, 0.4684387, -0.19314586, -0.59806645, 0.13253483, -0.5008955, 0
1659, 3620717534, -0.859843, -0.052581258, 0.4695539, -0.19348827, -0.5627236, 0.28757405, -0.14242554, 0
1660, 3620734201, -0.8592404, -0.053762957, 0.4706655, -0.1931394, -0.2720412, 0.5670964, 0.08240795, 0
1662, 3620767535, -0.85837376, -0.054391615, 0.47292584, -0.19128671, 0.5515629, 0.72912586, 0.090761185, 0
1663, 3620784202, -0.8584732, -0.053967305, 0.4733826, -0.18982531, 0.030366471, 1.0783054, 0.17623901, 0
1664, 3620800869, -0.8589993, -0.05375818, 0.47299096, -0.18847564, -0.33343306, 0.43215168, 0.112192154, 0
1666, 3620834203, -0.86009604, -0.053446956, 0.47231773, -0.1852226, -1.3204349, -0.18810844, 0.04802704, 0
