sep=,
DeviceTag:,Xsens_DOT_4,,,,,,,,,,,,,,,,,
FirmwareVersion:,3.0.0,,,,,,,,,,,,,,,,,
AppVersion:,2023.6.1,,,,,,,,,,,,,,,,,
SyncStatus:,Synced,,,,,,,,,,,,,,,,,
OutputRate:,60Hz,,,,,,,,,,,,,,,,,
FilterProfile:,General,,,,,,,,,,,,,,,,,
Measurement Mode:,Sensor fusion Mode - Extended (Quaternion),,,,,,,,,,,,,,,,,
StartTime:,2025-05-05 12:06:40.090 +0200,,,,,,,,,,,,,,,,,
 2025,,,,,,,,,,,,,,,,,,,

PacketCounter,SampleTimeFine,Quat_W,Quat_X,Quat_Y,Quat_Z,FreeAcc_X,FreeAcc_Y,FreeAcc_Z,Status
1, 3593083648, 0.19138649, 0.6582228, -0.13877177, 0.71475023, 0.43403363, 0.46391448, 0.03618622, 0
2, 3593100315, 0.1913, 0.658141, -0.1388974, 0.7148243, 0.3734158, 0.48095903, 0.09777641, 0
3, 3593116982, 0.19123937, 0.65806574, -0.13900828, 0.7148882, 0.31907833, 0.5529517, 0.03900528, 0
4, 3593133649, 0.1911911, 0.65798783, -0.13912062, 0.7149511, 0.31386212, 0.56610423, 0.018245697, 0
5, 3593150316, 0.19118933, 0.65791357, -0.13925141, 0.71499455, 0.29961914, 0.48803908, 0.037917137, 0
6, 3593166983, 0.19115728, 0.65786004, -0.13931206, 0.7150404, 0.3372131, 0.46684763, 0.023160934, 0
7, 3593183650, 0.19111337, 0.65781724, -0.13932212, 0.71508956, 0.31968638, 0.47395626, 0.037838936, 0
8, 3593200317, 0.19107994, 0.6577717, -0.13931862, 0.7151411, 0.36122537, 0.46858948, 0.057178497, 0
9, 3593216984, 0.1910713, 0.6577152, -0.13932136, 0.71519476, 0.40123782, 0.48234963, 0.029476166, 0
10, 3593233651, 0.191059, 0.65766317, -0.13932836, 0.71524453, 0.3757917, 0.5165378, 0.045890808, 0
11, 3593250318, 0.19100642, 0.65762407, -0.13930744, 0.7152987, 0.40049884, 0.5149762, 0.057082176, 0
12, 3593266985, 0.19096665, 0.65757316, -0.13928686, 0.71536005, 0.40153795, 0.49717972, 0.030958176, 0
13, 3593283652, 0.19098033, 0.65752834, -0.13934106, 0.7153871, 0.42402405, 0.49424225, 0.03903866, 0
14, 3593300319, 0.19095087, 0.65749145, -0.13938558, 0.71542007, 0.49633113, 0.5241991, 0.11413574, 0
15, 3593316986, 0.19090979, 0.6574268, -0.1394344, 0.715481, 0.5196256, 0.49242795, 0.1220541, 0
16, 3593333653, 0.19086646, 0.6573667, -0.13949677, 0.7155355, 0.50211596, 0.49166334, 0.023177147, 0
17, 3593350320, 0.19077365, 0.6573143, -0.1395603, 0.71559614, 0.4776403, 0.54000956, 0.041589737, 0
18, 3593366987, 0.19067605, 0.65725106, -0.13964894, 0.71566296, 0.4515735, 0.5126016, 0.0345726, 0
19, 3593383654, 0.19055419, 0.6571991, -0.1397357, 0.7157262, 0.43874472, 0.47049376, 0.0455122, 0
20, 3593400321, 0.19044694, 0.6571453, -0.13980027, 0.71579146, 0.45622924, 0.46529868, 0.08934498, 0
21, 3593416988, 0.19033492, 0.6570972, -0.13984904, 0.7158559, 0.45647416, 0.55833536, 0.053487778, 0
22, 3593433655, 0.19025466, 0.65704554, -0.13992669, 0.71590954, 0.4590381, 0.54947186, 0.10024357, 0
23, 3593450322, 0.19017105, 0.6569945, -0.13997531, 0.7159691, 0.472484, 0.5145822, 0.08179188, 0
24, 3593466989, 0.19006687, 0.65694296, -0.13998188, 0.71604276, 0.47473162, 0.50462943, 0.053299904, 0
25, 3593483656, 0.18998538, 0.6568885, -0.14002901, 0.71610516, 0.47326013, 0.52409065, 0.07070446, 0
26, 3593500323, 0.18990096, 0.6568231, -0.14010118, 0.7161733, 0.48967442, 0.5540376, 0.052039146, 0
27, 3593516990, 0.18982182, 0.65676045, -0.14018953, 0.71623445, 0.4831879, 0.5397323, 0.08481407, 0
28, 3593533657, 0.18972626, 0.65670264, -0.14026284, 0.71629846, 0.51081836, 0.57123846, 0.058508873, 0
29, 3593550324, 0.18964392, 0.65663505, -0.14034724, 0.71636564, 0.4997007, 0.5283518, 0.06146145, 0
30, 3593566991, 0.18956909, 0.65656835, -0.14042215, 0.71643186, 0.50616294, 0.49610215, 0.09957218, 0
31, 3593583658, 0.18952098, 0.656498, -0.14053072, 0.7164878, 0.49901652, 0.50819886, 0.057753563, 0
32, 3593600325, 0.18941961, 0.65643275, -0.14060535, 0.7165598, 0.45860907, 0.528948, 0.05060482, 0
33, 3593616992, 0.18932638, 0.6563701, -0.14069064, 0.71662515, 0.45075464, 0.5571925, 0.00823307, 0
34, 3593633659, 0.18924439, 0.6563049, -0.14078538, 0.716688, 0.4172613, 0.54642546, 0.00505352, 0
35, 3593650326, 0.18924835, 0.6562215, -0.14094251, 0.71673226, 0.40533477, 0.50843793, 0.070197105, 0
36, 3593666993, 0.18916047, 0.6561647, -0.14099757, 0.71679664, 0.43390036, 0.5130107, 0.047366142, 0
37, 3593683660, 0.18908298, 0.65611017, -0.14105785, 0.7168551, 0.45180935, 0.48466465, 0.095954895, 0
38, 3593700327, 0.1890021, 0.65605456, -0.14108974, 0.7169211, 0.40580198, 0.51445156, 0.10725975, 0
39, 3593716994, 0.18892495, 0.6560041, -0.14111727, 0.7169822, 0.40457797, 0.51525134, 0.0843935, 0
40, 3593733661, 0.18887201, 0.65594333, -0.14117087, 0.71704125, 0.37998506, 0.49118358, 0.045493126, 0
41, 3593750328, 0.1887948, 0.65589243, -0.14119923, 0.7171024, 0.41599974, 0.48941553, 0.03964138, 0
42, 3593766995, 0.18875828, 0.6558394, -0.1412817, 0.7171444, 0.40293404, 0.49321654, 0.058966637, 0
43, 3593783662, 0.1886404, 0.6557905, -0.14132796, 0.7172111, 0.42236397, 0.48002705, 0.07290363, 0
44, 3593800329, 0.18853658, 0.6557233, -0.14140193, 0.71728516, 0.43016928, 0.4076944, 0.08618927, 0
45, 3593816996, 0.18838543, 0.6556647, -0.14148912, 0.7173613, 0.42390668, 0.4337443, 0.09673309, 0
46, 3593833663, 0.18821009, 0.6555719, -0.14162067, 0.7174661, 0.4179632, 0.47270408, 0.0964365, 0
47, 3593850330, 0.18800975, 0.6554704, -0.14181244, 0.7175737, 0.42315564, 0.46686074, 0.04313755, 0
48, 3593866997, 0.1878095, 0.6553625, -0.14205196, 0.7176772, 0.41823852, 0.42850947, 0.052633286, 0
49, 3593883664, 0.1875369, 0.65525836, -0.14225164, 0.71780384, 0.41444117, 0.44346994, 0.03839779, 0
50, 3593900331, 0.18726157, 0.65515536, -0.14250001, 0.7179206, 0.41874838, 0.4401569, 0.07408905, 0
51, 3593916998, 0.1869233, 0.6550392, -0.14278007, 0.71805906, 0.41319725, 0.44738337, 0.05990982, 0
52, 3593933665, 0.18650864, 0.6549185, -0.1430738, 0.7182185, 0.36496302, 0.44340494, 0.0547266, 0
53, 3593950332, 0.1861172, 0.6547904, -0.14344259, 0.7183634, 0.36357614, 0.46190155, 0.036375046, 0
54, 3593966999, 0.18568887, 0.6546494, -0.14383678, 0.718524, 0.36987692, 0.53720564, 0.04544258, 0
55, 3593983666, 0.18526465, 0.65450686, -0.14424114, 0.7186821, 0.36275336, 0.5413161, 0.050940514, 0
56, 3594000333, 0.18489498, 0.6543509, -0.14468262, 0.7188306, 0.34259042, 0.47584936, 0.11022282, 0
57, 3594017000, 0.18448684, 0.65420735, -0.14505683, 0.71899074, 0.38246435, 0.43969136, 0.08884907, 0
58, 3594033667, 0.18401946, 0.65408456, -0.14536785, 0.7191593, 0.34883702, 0.4580984, 0.052854538, 0
59, 3594050334, 0.18357822, 0.6539561, -0.14570728, 0.71932024, 0.32439142, 0.47772375, 0.057447433, 0
60, 3594067001, 0.18317744, 0.65381986, -0.14609195, 0.71946824, 0.33608085, 0.5282327, 0.02746582, 0
61, 3594083668, 0.18275559, 0.65368485, -0.14645925, 0.71962345, 0.33337057, 0.5710679, 0.04044628, 0
62, 3594100335, 0.18227753, 0.6535696, -0.14679071, 0.71978194, 0.3195055, 0.5383012, 0.02413559, 0
63, 3594117002, 0.18187913, 0.6534395, -0.14711438, 0.71993464, 0.31322566, 0.4933074, 0.057826996, 0
64, 3594133669, 0.18154454, 0.6533203, -0.14741124, 0.7200665, 0.33172417, 0.49212, 0.06328106, 0
65, 3594150336, 0.1812216, 0.6532186, -0.1476396, 0.7201932, 0.37191048, 0.5136173, 0.062304497, 0
66, 3594167003, 0.18094191, 0.65311795, -0.14784914, 0.72031194, 0.39916268, 0.5774109, 0.07304478, 0
67, 3594183670, 0.18069765, 0.6530207, -0.1480822, 0.72041357, 0.40657303, 0.6589629, 0.08353424, 0
68, 3594200337, 0.18042427, 0.6529244, -0.14825016, 0.72053474, 0.41494945, 0.61066175, 0.080542564, 0
69, 3594217004, 0.18021305, 0.6528405, -0.14841412, 0.7206299, 0.43005267, 0.5303617, 0.07029438, 0
70, 3594233671, 0.18006273, 0.65277386, -0.1485284, 0.72070426, 0.46902606, 0.5572904, 0.059556007, 0
71, 3594250338, 0.17994857, 0.6527292, -0.14856786, 0.7207652, 0.48186103, 0.66822004, 0.07122326, 0
72, 3594267005, 0.17991921, 0.6526794, -0.14860263, 0.72081035, 0.48276067, 0.71122885, 0.072283745, 0
73, 3594283672, 0.17988715, 0.6526477, -0.14856099, 0.7208558, 0.5058578, 0.65824014, 0.012213707, 0
74, 3594300339, 0.17995031, 0.6526327, -0.14848346, 0.7208693, 0.5051298, 0.6067129, 0.016951561, 0
75, 3594317006, 0.18009849, 0.65263414, -0.14835113, 0.72085834, 0.4870684, 0.68310064, 0.10647392, 0
76, 3594333673, 0.18023665, 0.6526572, -0.1481363, 0.7208472, 0.51174974, 0.7322292, 0.072042465, 0
77, 3594350340, 0.18046822, 0.65268457, -0.14793836, 0.7208051, 0.55877995, 0.6795226, 0.07624245, 0
78, 3594367007, 0.18085943, 0.6526946, -0.14775789, 0.72073483, 0.62306607, 0.56999546, 0.03774166, 0
79, 3594383674, 0.18128946, 0.6527368, -0.14746839, 0.72064793, 0.5956912, 0.6483094, 0.039108276, 0
80, 3594400341, 0.18173738, 0.6528082, -0.14709263, 0.7205472, 0.52644, 0.7318021, 0.060037613, 0
81, 3594417008, 0.18226013, 0.652895, -0.14671941, 0.72041273, 0.5278278, 0.6627234, 0.08287048, 0
82, 3594433675, 0.18281138, 0.6529998, -0.14625236, 0.720273, 0.5303401, 0.52340764, 0.099300385, 0
83, 3594450342, 0.18341751, 0.653118, -0.14573342, 0.72011685, 0.53823817, 0.52900594, 0.054240227, 0
84, 3594467009, 0.18405692, 0.65323424, -0.14518383, 0.7199593, 0.4802534, 0.5969796, 0.056049347, 0
85, 3594483676, 0.18469186, 0.6533447, -0.14464197, 0.71980554, 0.48785424, 0.58089364, 0.07847786, 0
86, 3594500343, 0.18528129, 0.6534704, -0.14408955, 0.7196507, 0.5252674, 0.43768755, 0.0717535, 0
87, 3594517010, 0.18587837, 0.65357035, -0.14356765, 0.7195102, 0.467734, 0.38845658, 0.06429863, 0
88, 3594533677, 0.18645015, 0.65365636, -0.14312562, 0.71937215, 0.43268982, 0.48678714, 0.076600075, 0
89, 3594550344, 0.18691893, 0.65372866, -0.14273421, 0.7192627, 0.41695544, 0.4672348, 0.13761425, 0
90, 3594567011, 0.18735959, 0.65377945, -0.14243497, 0.71916115, 0.3892405, 0.37826195, 0.08804989, 0
91, 3594583678, 0.18777962, 0.6538127, -0.14218248, 0.7190713, 0.3683554, 0.37044516, 0.09375191, 0
92, 3594600345, 0.18817733, 0.6538324, -0.14198822, 0.71898794, 0.32683042, 0.4611757, 0.03939247, 0
93, 3594617012, 0.1884071, 0.65387064, -0.14172474, 0.7189448, 0.2956638, 0.47267228, 0.05448246, 0
94, 3594633679, 0.18870564, 0.65388536, -0.14156698, 0.71888417, 0.2913189, 0.43265763, 0.081581116, 0
95, 3594650346, 0.18897733, 0.65389836, -0.14138453, 0.7188368, 0.28637275, 0.42105222, 0.036808014, 0
96, 3594667013, 0.18924874, 0.653907, -0.14118761, 0.7187964, 0.26638716, 0.4406589, 0.07065582, 0
97, 3594683680, 0.18949875, 0.6539166, -0.14098799, 0.7187609, 0.27703094, 0.44275993, 0.07975578, 0
98, 3594700347, 0.189767, 0.65392226, -0.14080554, 0.71872085, 0.32778046, 0.4475765, 0.07204437, 0
99, 3594717014, 0.1900137, 0.65395206, -0.14057937, 0.7186728, 0.27895147, 0.43266767, 0.038464546, 0
100, 3594733681, 0.19028799, 0.6539848, -0.14032228, 0.71862054, 0.2648227, 0.46727976, 0.054018974, 0
101, 3594750348, 0.1905644, 0.6540257, -0.14004418, 0.7185644, 0.27771473, 0.5231214, 0.06405544, 0
102, 3594767015, 0.19081984, 0.6540644, -0.13975075, 0.71851844, 0.27362522, 0.5038821, 0.012288094, 0
103, 3594783682, 0.19108413, 0.65410495, -0.1394665, 0.71846664, 0.2821813, 0.42411372, -0.019704819, 0
104, 3594800349, 0.19136901, 0.65414804, -0.13918485, 0.7184061, 0.2849616, 0.4672118, 0.08452129, 0
105, 3594817016, 0.19163448, 0.65419215, -0.13887501, 0.7183553, 0.31885, 0.4807811, 0.06840706, 0
106, 3594833683, 0.19191682, 0.6542448, -0.1385828, 0.7182883, 0.31675383, 0.46062002, 0.02293396, 0
107, 3594850350, 0.19220917, 0.6542962, -0.13827905, 0.71822196, 0.2828885, 0.4292969, 0.025377274, 0
108, 3594867017, 0.19251126, 0.65434986, -0.13799027, 0.71814775, 0.308481, 0.4536256, 0.06801319, 0
109, 3594883684, 0.19278386, 0.65439475, -0.13771188, 0.7180871, 0.2835411, 0.47343245, 0.057019234, 0
110, 3594900351, 0.1930224, 0.6544296, -0.13745041, 0.7180411, 0.30906704, 0.4188552, 0.005048752, 0
111, 3594917018, 0.19322069, 0.65447515, -0.13718285, 0.7179975, 0.2932432, 0.43344957, -0.004480362, 0
112, 3594933685, 0.19344668, 0.6545139, -0.13692199, 0.71795124, 0.26829383, 0.4448889, 0.13029575, 0
113, 3594950352, 0.19362685, 0.65456694, -0.13661206, 0.71791327, 0.319461, 0.5055614, 0.11555672, 0
114, 3594967019, 0.1937623, 0.6546238, -0.13626605, 0.7178907, 0.30653408, 0.50281304, 0.02582264, 0
115, 3594983686, 0.19402854, 0.6546558, -0.13606942, 0.7178268, 0.31089106, 0.46294954, 0.07892418, 0
116, 3595000353, 0.19422261, 0.6546943, -0.13582793, 0.71778506, 0.32197887, 0.49495804, 0.06926918, 0
117, 3595017020, 0.19440925, 0.65471923, -0.13558027, 0.71775866, 0.31359327, 0.5256291, -0.0028705597, 0
118, 3595033687, 0.19461288, 0.654755, -0.13537213, 0.7177101, 0.2862872, 0.42813802, 0.055146217, 0
119, 3595050354, 0.19480288, 0.65479183, -0.13511357, 0.7176737, 0.32120335, 0.43298855, 0.08614159, 0
120, 3595067021, 0.19503912, 0.65482205, -0.13489053, 0.7176237, 0.34181228, 0.44918486, 0.1088047, 0
121, 3595083688, 0.19525212, 0.65486014, -0.13464049, 0.7175782, 0.3449573, 0.4969182, 0.025885582, 0
122, 3595100355, 0.19546023, 0.65489644, -0.13443193, 0.7175276, 0.33400494, 0.5214362, 0.049224854, 0
123, 3595117022, 0.19564079, 0.65492404, -0.13423541, 0.71749, 0.34099767, 0.51062155, 0.09027195, 0
124, 3595133689, 0.1957812, 0.65496045, -0.13401651, 0.71745926, 0.36767727, 0.4829602, 0.0030031204, 0
125, 3595150356, 0.19592057, 0.65499747, -0.13377869, 0.71743166, 0.32290396, 0.46918783, 0.100580215, 0
126, 3595167023, 0.19606826, 0.6550312, -0.13353187, 0.71740663, 0.33682996, 0.5163273, 0.10770416, 0
127, 3595183690, 0.19622883, 0.65507066, -0.13328779, 0.71737206, 0.34176046, 0.53871953, 0.04277706, 0
128, 3595200357, 0.19640996, 0.65509695, -0.13305874, 0.71734107, 0.38600388, 0.5219462, 0.035253525, 0
129, 3595217024, 0.19656402, 0.65511787, -0.1328133, 0.7173251, 0.39917272, 0.487064, 0.06307602, 0
130, 3595233691, 0.19674218, 0.65513957, -0.13261133, 0.717294, 0.43068615, 0.44095445, 0.053367615, 0
131, 3595250358, 0.19686301, 0.65516883, -0.13237715, 0.71727735, 0.4325663, 0.45065543, 0.09945488, 0
132, 3595267025, 0.19699211, 0.6551919, -0.1321752, 0.71725804, 0.43192312, 0.44991314, 0.07371712, 0
133, 3595283692, 0.19715491, 0.6552027, -0.13205013, 0.7172263, 0.47644126, 0.45807442, 0.034861565, 0
134, 3595300359, 0.19724469, 0.65521723, -0.13189371, 0.71721727, 0.46835145, 0.48340192, 0.016288757, 0
135, 3595317026, 0.19727607, 0.65524167, -0.1317586, 0.7172112, 0.5158936, 0.52806056, 0.05641651, 0
136, 3595333693, 0.19729494, 0.655249, -0.13163754, 0.71722144, 0.57368296, 0.4433099, 0.04065895, 0
137, 3595350360, 0.19732231, 0.65527356, -0.1315164, 0.7172137, 0.60778964, 0.4173303, 0.07158089, 0
138, 3595367027, 0.19735743, 0.6552762, -0.13143653, 0.7172162, 0.6164003, 0.5011429, 0.20053291, 0
139, 3595383694, 0.19735649, 0.65525436, -0.13139445, 0.7172442, 0.64709467, 0.58994037, 0.21315002, 0
140, 3595400361, 0.19731808, 0.65522474, -0.13140666, 0.7172795, 0.6253575, 0.52486736, 0.12696552, 0
141, 3595417028, 0.19731481, 0.6551757, -0.13147432, 0.71731293, 0.5956259, 0.535651, 0.14798927, 0
142, 3595433695, 0.19726346, 0.6551263, -0.13152622, 0.7173625, 0.5717292, 0.57528603, 0.047698975, 0
143, 3595450362, 0.1972343, 0.65507424, -0.13161126, 0.71740246, 0.5457221, 0.56049114, -0.035175323, 0
144, 3595467029, 0.19721259, 0.655038, -0.13166267, 0.7174322, 0.5437107, 0.526501, 0.06763077, 0
145, 3595483696, 0.19722721, 0.655008, -0.13168511, 0.71745145, 0.59223217, 0.5731047, 0.15486526, 0
146, 3595500363, 0.19725156, 0.6549775, -0.13166475, 0.7174763, 0.5653482, 0.6320279, 0.16298485, 0
147, 3595517030, 0.1973082, 0.6549351, -0.1316632, 0.71749973, 0.56193393, 0.6442714, 0.08450222, 0
148, 3595533697, 0.19738925, 0.65490437, -0.131648, 0.71750826, 0.5822201, 0.58543175, 0.07948494, 0
149, 3595550364, 0.1975035, 0.65488005, -0.13163412, 0.7175016, 0.60440767, 0.56700176, 0.08651638, 0
150, 3595567031, 0.19760972, 0.6548634, -0.13159248, 0.7174952, 0.6103291, 0.5239404, 0.0732851, 0
151, 3595583698, 0.19775353, 0.6548356, -0.1315496, 0.7174888, 0.59044176, 0.5204715, 0.06179142, 0
152, 3595600365, 0.19787605, 0.6548192, -0.13147531, 0.71748364, 0.5610849, 0.57930326, 0.097239494, 0
153, 3595617032, 0.19802494, 0.6547932, -0.13141558, 0.7174772, 0.573578, 0.60855573, 0.068733215, 0
154, 3595633699, 0.19816259, 0.6547701, -0.1313568, 0.7174711, 0.5663584, 0.50556225, 0.009080887, 0
155, 3595650366, 0.19823268, 0.6547874, -0.13123593, 0.717458, 0.57723457, 0.5269298, 0.06436443, 0
156, 3595667033, 0.19836691, 0.654776, -0.13116534, 0.7174442, 0.52944094, 0.5270823, 0.15881252, 0
157, 3595683700, 0.19850591, 0.6547487, -0.13111192, 0.71744037, 0.49752563, 0.51259816, 0.15153122, 0
158, 3595700367, 0.19867623, 0.6547164, -0.13110179, 0.7174246, 0.45276615, 0.49788448, 0.077791214, 0
159, 3595717034, 0.19881359, 0.6546918, -0.13108288, 0.7174125, 0.4303759, 0.5302468, 0.10088444, 0
160, 3595733701, 0.19896461, 0.6546645, -0.13109843, 0.7173926, 0.45609596, 0.5167336, 0.032297134, 0
161, 3595750368, 0.19907883, 0.65464735, -0.13112158, 0.71737236, 0.4661218, 0.5026004, 0.04577446, 0
162, 3595767035, 0.19915089, 0.6546161, -0.13116726, 0.71737254, 0.4608047, 0.48812535, 0.11554909, 0
163, 3595783702, 0.19922091, 0.654567, -0.13125883, 0.7173811, 0.4793697, 0.4043673, 0.09457874, 0
164, 3595800369, 0.19930083, 0.65450805, -0.13140222, 0.7173865, 0.4376949, 0.35360828, 0.06561375, 0
165, 3595817036, 0.19931717, 0.65445983, -0.13151293, 0.71740574, 0.41133016, 0.39430618, 0.056970596, 0
166, 3595833703, 0.19930655, 0.6544028, -0.13167332, 0.71743125, 0.38092896, 0.5654546, 0.100922585, 0
167, 3595850370, 0.19928093, 0.6543232, -0.13192046, 0.7174655, 0.36942363, 0.55557173, 0.100907326, 0
168, 3595867037, 0.19917893, 0.65422285, -0.13221045, 0.7175321, 0.39382923, 0.38000366, 0.12516022, 0
169, 3595883704, 0.19901983, 0.6541245, -0.13248794, 0.71761477, 0.3345979, 0.23581125, 0.14310646, 0
170, 3595900371, 0.19885817, 0.6540139, -0.13276875, 0.71770847, 0.31940976, 0.30295688, 0.08907604, 0
171, 3595917038, 0.198643, 0.6539063, -0.13306801, 0.71781063, 0.3524215, 0.40183824, -0.024756432, 0
172, 3595933705, 0.19840507, 0.65378946, -0.13342018, 0.71791744, 0.42059585, 0.40982866, -0.01736641, 0
173, 3595950372, 0.1980977, 0.65367854, -0.13378507, 0.71803546, 0.45703214, 0.40893266, 0.061764717, 0
174, 3595967039, 0.19778877, 0.65355617, -0.13421158, 0.7181524, 0.46738482, 0.52237725, 0.04941368, 0
175, 3595983706, 0.19741175, 0.6534229, -0.13464822, 0.7182958, 0.4208447, 0.56659645, 0.15023327, 0
176, 3596000373, 0.19706093, 0.65326244, -0.13515478, 0.71844274, 0.38233504, 0.45068312, 0.23369789, 0
177, 3596017040, 0.19666907, 0.65310615, -0.13562058, 0.71860445, 0.444702, 0.3476458, 0.064621925, 0
178, 3596033707, 0.19627917, 0.6529468, -0.13614757, 0.71875626, 0.44608384, 0.40391314, -0.02535057, 0
179, 3596050374, 0.19588955, 0.65277135, -0.13676982, 0.71890366, 0.41732627, 0.5210891, 0.047466278, 0
180, 3596067041, 0.19543406, 0.652577, -0.13741991, 0.71908003, 0.38591358, 0.57793456, 0.07227993, 0
181, 3596083708, 0.19494513, 0.6523765, -0.13805446, 0.7192733, 0.34193116, 0.5038105, 0.054556847, 0
182, 3596100375, 0.19453257, 0.65217215, -0.1387296, 0.7194402, 0.3559814, 0.506834, 0.06490898, 0
183, 3596117042, 0.19410409, 0.6519876, -0.13936256, 0.7196009, 0.36714503, 0.5553861, 0.04884529, 0
184, 3596133709, 0.19366592, 0.6518079, -0.13999209, 0.7197595, 0.369122, 0.61995196, 0.058706284, 0
185, 3596150376, 0.19328327, 0.6516202, -0.14062269, 0.71990937, 0.2930613, 0.6213737, 0.115756035, 0
186, 3596167043, 0.19288625, 0.6514519, -0.14114578, 0.7200659, 0.1623912, 0.60146374, 0.11502838, 0
187, 3596183710, 0.19259006, 0.6512881, -0.14161673, 0.72020096, -0.0719384, 0.6147472, 0.017721176, 0
188, 3596200377, 0.19244912, 0.6511595, -0.1420165, 0.720276, -0.22598086, 0.42760912, -0.010038376, 0
189, 3596217044, 0.19240311, 0.6510955, -0.1422399, 0.72030216, -0.09151102, 0.29891387, -0.056013107, 0
190, 3596233711, 0.19244765, 0.6510601, -0.14234193, 0.72030205, 0.024308592, 0.4724165, 0.06848335, 0
191, 3596250378, 0.19251071, 0.6510256, -0.1424259, 0.7202997, 0.014697594, 0.60178536, 0.09997749, 0
192, 3596267045, 0.19254468, 0.6509706, -0.14255768, 0.72031426, 0.13332285, 0.54385173, 0.037032127, 0
193, 3596283712, 0.19249795, 0.65090275, -0.14270231, 0.72035956, 0.16696699, 0.3295413, 0.057941437, 0
194, 3596300379, 0.19245014, 0.65083474, -0.14288591, 0.72039735, 0.20338243, 0.29724765, -0.03889942, 0
195, 3596317046, 0.19238131, 0.6507579, -0.14310028, 0.7204426, 0.14039591, 0.40387657, 0.047923088, 0
196, 3596333713, 0.19232155, 0.6506736, -0.14334291, 0.7204865, 0.09305736, 0.4861623, -0.00985527, 0
197, 3596350380, 0.1922749, 0.6505937, -0.1435523, 0.7205294, -0.00947836, 0.51911587, -0.06449318, 0
198, 3596367047, 0.19224848, 0.6505394, -0.1437062, 0.72055477, -0.06673266, 0.4678134, -0.011514664, 0
199, 3596383714, 0.19226566, 0.6505131, -0.14378938, 0.72055733, -0.014850075, 0.37621668, 0.061139107, 0
200, 3596400381, 0.19236967, 0.65047413, -0.14380164, 0.7205623, 0.049394682, 0.3789736, 0.13748646, 0
201, 3596417048, 0.19252345, 0.65044665, -0.14378345, 0.72054964, -0.0413385, 0.51491857, 0.1119709, 0
202, 3596433715, 0.19265695, 0.6504345, -0.14371538, 0.7205385, -0.00878026, 0.5822061, 0.03772545, 0
203, 3596450382, 0.1928222, 0.65043265, -0.14360479, 0.720518, 0.042929333, 0.4250315, 0.08905029, 0
204, 3596467049, 0.19304569, 0.6504371, -0.1434672, 0.7204816, 0.1524419, 0.35198748, 0.036156654, 0
205, 3596483716, 0.1932942, 0.65044165, -0.14329374, 0.7204454, 0.1942588, 0.39145064, 1.4305115E-5, 0
206, 3596500383, 0.19347337, 0.65046936, -0.14303765, 0.72042316, 0.174819, 0.47599396, 0.0586195, 0
207, 3596517050, 0.19374059, 0.65048593, -0.14285107, 0.72037333, 0.28053862, 0.52460617, 0.058309555, 0
208, 3596533717, 0.19398272, 0.6504948, -0.1426567, 0.72033876, 0.32763347, 0.43524274, 0.088861465, 0
209, 3596550384, 0.19418317, 0.6504993, -0.14247969, 0.72031575, 0.3203372, 0.4238669, 0.15716267, 0
210, 3596567051, 0.19437803, 0.6504868, -0.14236625, 0.7202968, 0.34286144, 0.43304414, 0.05769539, 0
211, 3596583718, 0.19451101, 0.6504841, -0.14221218, 0.72029376, 0.26376477, 0.30555165, 0.032216072, 0
212, 3596600385, 0.19470885, 0.650477, -0.14209655, 0.7202696, 0.18759525, 0.3337232, 0.023452759, 0
213, 3596617052, 0.19484551, 0.6504793, -0.14198321, 0.7202529, 0.17888556, 0.4450833, 0.026924133, 0
214, 3596633719, 0.19493948, 0.650461, -0.14194365, 0.72025174, 0.16065998, 0.4490386, 0.061647415, 0
215, 3596650386, 0.19496593, 0.6504292, -0.14196135, 0.7202698, 0.23454522, 0.32318208, -0.033522606, 0
216, 3596667053, 0.19493861, 0.6503967, -0.14198132, 0.72030264, 0.254931, 0.29137784, 0.02149105, 0
217, 3596683720, 0.19483277, 0.65037435, -0.14202313, 0.7203433, 0.19085467, 0.46391466, 0.09112072, 0
218, 3596700387, 0.19471718, 0.6503247, -0.14212203, 0.72039986, 0.25292268, 0.3938041, 0.07179451, 0
219, 3596717054, 0.19457938, 0.6502808, -0.14221227, 0.72045887, 0.24713211, 0.2655957, 0.06252098, 0
220, 3596733721, 0.19448441, 0.65022767, -0.14231125, 0.72051305, 0.27206144, 0.30805475, 0.12161255, 0
221, 3596750388, 0.19434793, 0.6501851, -0.14234932, 0.7205806, 0.24287991, 0.4126903, 0.10478687, 0
222, 3596767055, 0.1942, 0.6501343, -0.14240794, 0.7206547, 0.23232713, 0.5212071, 0.017859459, 0
223, 3596783722, 0.19404933, 0.6500819, -0.14250913, 0.72072273, 0.23416263, 0.5440114, 0.03638649, 0
224, 3596800389, 0.19386992, 0.65002805, -0.14262244, 0.720797, 0.23294297, 0.4293892, 0.04562664, 0
225, 3596817056, 0.19366911, 0.6499794, -0.14271244, 0.7208771, 0.2666657, 0.33515364, 0.074518204, 0
226, 3596833723, 0.19352077, 0.6499155, -0.14285111, 0.720947, 0.33145034, 0.3498041, 0.053295135, 0
227, 3596850390, 0.193363, 0.64985996, -0.14297, 0.7210159, 0.32485834, 0.4195523, 0.02120781, 0
228, 3596867057, 0.19318153, 0.6497998, -0.14309654, 0.72109365, 0.3388863, 0.52397776, 0.06528759, 0
229, 3596883724, 0.19299066, 0.6497468, -0.1432487, 0.72116244, 0.34109822, 0.58839005, 0.06440067, 0
230, 3596900391, 0.19277272, 0.6496962, -0.1434186, 0.7212325, 0.40542775, 0.5087403, 0.11196518, 0
231, 3596917058, 0.1925645, 0.6496272, -0.14360704, 0.7213127, 0.42750055, 0.4161959, 0.055041313, 0
232, 3596933725, 0.1923889, 0.6495688, -0.14376535, 0.7213807, 0.39747587, 0.47141945, 0.073410034, 0
233, 3596950392, 0.1922471, 0.6495182, -0.1438891, 0.7214393, 0.39066866, 0.5810843, 0.12521935, 0
234, 3596967059, 0.1921606, 0.64946914, -0.14399752, 0.72148484, 0.38605627, 0.60646427, 0.12525558, 0
235, 3596983726, 0.19208205, 0.64942783, -0.1440603, 0.7215304, 0.42892337, 0.6086672, 0.065737724, 0
236, 3597000393, 0.19204208, 0.6493998, -0.1440839, 0.72156155, 0.47535166, 0.60456324, 0.010548592, 0
237, 3597017060, 0.19205359, 0.6493848, -0.14408086, 0.7215727, 0.44940704, 0.6036917, 0.07434082, 0
238, 3597033727, 0.19213507, 0.6493812, -0.14403304, 0.72156376, 0.4210089, 0.6282918, 0.09734154, 0
239, 3597050394, 0.1922688, 0.64937335, -0.14396074, 0.7215497, 0.4389144, 0.56654656, 0.08965778, 0
240, 3597067061, 0.19245668, 0.6493906, -0.14383493, 0.72150916, 0.43618727, 0.50927836, 0.084189415, 0
241, 3597083728, 0.19269583, 0.6494136, -0.14366415, 0.7214587, 0.45284885, 0.52474076, 0.025164604, 0
242, 3597100395, 0.19302233, 0.6494371, -0.14350653, 0.7213814, 0.38469943, 0.53518236, 0.055394173, 0
243, 3597117062, 0.19326884, 0.64948046, -0.14331736, 0.7213142, 0.30106628, 0.5828368, -0.017140388, 0
244, 3597133729, 0.19348902, 0.6495171, -0.14315733, 0.7212538, 0.30252206, 0.44313696, 0.123155594, 0
245, 3597150396, 0.19371977, 0.6495336, -0.14305282, 0.72119784, 0.3499154, 0.3435948, 0.08560276, 0
246, 3597167063, 0.19390506, 0.6495554, -0.14292304, 0.7211541, 0.3884427, 0.3317778, 0.022577286, 0
247, 3597183730, 0.19406264, 0.6495576, -0.1428453, 0.72112525, 0.28239062, 0.39829868, 0.111774445, 0
248, 3597200397, 0.19414607, 0.64955366, -0.14283799, 0.7211077, 0.2534616, 0.37696806, 0.09059715, 0
249, 3597217064, 0.19417837, 0.64950603, -0.1429348, 0.7211227, 0.22898293, 0.2664741, 0.14488125, 0
250, 3597233731, 0.19409722, 0.64944756, -0.14307848, 0.7211685, 0.18746129, 0.21803357, 0.11109352, 0
251, 3597250398, 0.19394779, 0.64937395, -0.14329909, 0.72123146, 0.16318493, 0.25273284, 0.020751953, 0
252, 3597267065, 0.19383916, 0.64926136, -0.14365372, 0.72129154, 0.08437231, 0.29445615, -0.022890091, 0
253, 3597283732, 0.19358113, 0.64917886, -0.1439309, 0.7213796, 0.046337478, 0.2729369, 0.03297043, 0
254, 3597300399, 0.19328865, 0.6491012, -0.14418846, 0.72147644, 0.051702738, 0.28566673, -0.03847599, 0
255, 3597317066, 0.19296056, 0.64903235, -0.14444621, 0.7215747, 0.05639026, 0.37098765, 0.009896278, 0
256, 3597333733, 0.1925881, 0.64894086, -0.1447542, 0.7216949, 0.057145473, 0.36320642, 0.20134068, 0
257, 3597350400, 0.19217129, 0.6488316, -0.14509442, 0.72183585, 0.14361367, 0.26554456, 0.07768917, 0
258, 3597367067, 0.1917547, 0.6487183, -0.14543155, 0.7219806, 0.18625356, 0.20970793, -0.022443771, 0
259, 3597383734, 0.19134896, 0.6486329, -0.14573559, 0.7221037, 0.14601266, 0.547567, 0.21698952, 0
260, 3597400401, 0.19094059, 0.64851606, -0.14611499, 0.7222402, 0.16941845, 0.75330234, 0.14280415, 0
261, 3597417068, 0.19052973, 0.64838016, -0.1465013, 0.72239244, 0.2886235, 0.35628033, -0.10764122, 0
262, 3597433735, 0.19014129, 0.6482951, -0.14681543, 0.72250724, 0.30677283, 0.28416923, 0.12969685, 0
263, 3597450402, 0.18974109, 0.64820355, -0.14712483, 0.7226316, 0.3792351, 0.58577406, 0.24553871, 0
264, 3597467069, 0.189347, 0.6480612, -0.14752677, 0.7227807, 0.36714956, 0.56953645, 0.1609335, 0
265, 3597483736, 0.18896557, 0.64791334, -0.14797617, 0.7229213, 0.35864538, 0.3903189, -0.01317215, 0
266, 3597500403, 0.18855745, 0.64777213, -0.14838532, 0.72307056, 0.2792193, 0.4583283, -0.030570984, 0
267, 3597517070, 0.18810295, 0.6476317, -0.14880617, 0.7232281, 0.27644473, 0.5218834, 0.118504524, 0
268, 3597533737, 0.1876117, 0.64746255, -0.14931504, 0.72340214, 0.3950531, 0.39433083, -0.12600327, 0
269, 3597550404, 0.1870667, 0.6473206, -0.14989978, 0.72354937, 0.6105466, 0.15443462, -0.3894205, 0
270, 3597567071, 0.18645334, 0.6472023, -0.15051991, 0.72368485, 0.33781672, 0.4093285, 0.7352228, 0
271, 3597583738, 0.18575925, 0.646991, -0.15119416, 0.72391164, 0.5735779, 0.6766809, 0.29424572, 0
272, 3597600405, 0.18505347, 0.6467088, -0.15198839, 0.72417825, 0.33657897, 0.35163054, 0.066459656, 0
273, 3597617072, 0.18428051, 0.6464278, -0.15285018, 0.72444487, 0.15823519, 0.3728738, 0.16499043, 0
274, 3597633739, 0.18341002, 0.64611375, -0.15372726, 0.72476023, 0.116418116, 0.17716828, -0.09922123, 0
275, 3597650406, 0.1825331, 0.64583015, -0.15458418, 0.7250521, -0.18455695, -0.038298413, -0.22202969, 0
276, 3597667073, 0.18163362, 0.6456024, -0.1553739, 0.7253119, -0.31248993, 0.23034348, -0.15438366, 0
277, 3597683740, 0.18075691, 0.6453481, -0.1561386, 0.72559303, -0.50511324, 0.5057377, 0.22701359, 0
278, 3597700407, 0.17995004, 0.6450984, -0.15685803, 0.7258605, -0.6131516, 0.3629738, 0.112543106, 0
279, 3597717074, 0.17924216, 0.64485174, -0.15747279, 0.7261214, -0.6017714, 0.30893016, -0.27140903, 0
280, 3597733741, 0.17862442, 0.6447065, -0.1578869, 0.72631276, -0.7354079, 0.07867664, -0.28590202, 0
281, 3597750408, 0.17805395, 0.6446498, -0.15814896, 0.72644615, -0.67341405, 0.7055504, 0.16453552, 0
282, 3597767075, 0.17743355, 0.6445712, -0.15847665, 0.7265961, -0.2955208, 0.5776246, 0.059848785, 0
283, 3597783742, 0.17677528, 0.64445144, -0.15893508, 0.72676265, 0.099999025, 0.19446993, 0.13753605, 0
284, 3597800409, 0.1761101, 0.6442983, -0.15939836, 0.7269586, 0.24648291, 0.11999717, 0.24429989, 0
285, 3597817076, 0.17547527, 0.64414144, -0.15976653, 0.7271702, 0.18043493, 0.47846547, 0.053027153, 0
286, 3597833743, 0.17492086, 0.6439935, -0.16013469, 0.72735375, 0.06873557, 0.9082535, -0.018443108, 0
287, 3597850410, 0.17438884, 0.64386475, -0.1604831, 0.72751874, -0.009003906, 0.7942015, 0.02954197, 0
288, 3597867077, 0.17398268, 0.6437679, -0.16077067, 0.72763824, 0.1399157, 0.53574413, -0.029466629, 0
289, 3597883744, 0.17365009, 0.643753, -0.16088298, 0.72770613, 0.33571562, 0.37481213, 0.029063225, 0
290, 3597900411, 0.17346469, 0.643769, -0.16087246, 0.72773826, 0.58290607, 0.6982547, 0.1689024, 0
291, 3597917078, 0.17338651, 0.64378875, -0.16081947, 0.72775126, 0.71446884, 0.8956687, 0.21319866, 0
292, 3597933745, 0.1733818, 0.6438041, -0.16070978, 0.72776306, 0.80508596, 0.822807, 0.12696552, 0
293, 3597950412, 0.1734764, 0.64379567, -0.16060089, 0.7277719, 0.7568591, 0.7369914, 0.10982609, 0
294, 3597967079, 0.17351824, 0.6438071, -0.16041173, 0.7277937, 0.67777544, 0.61116636, 0.106980324, 0
295, 3597983746, 0.17362192, 0.64383554, -0.16025667, 0.72777796, 0.6761653, 0.45047295, -0.010889053, 0
296, 3598000413, 0.17377746, 0.6438804, -0.16008157, 0.72773963, 0.5922626, 0.4564792, 0.014001846, 0
297, 3598017080, 0.17394678, 0.64393985, -0.15986437, 0.72769433, 0.5569449, 0.55874294, 0.10962772, 0
298, 3598033747, 0.17410405, 0.6439913, -0.1596712, 0.7276537, 0.61925393, 0.55569893, 0.13910294, 0
299, 3598050414, 0.1741935, 0.6440276, -0.15950522, 0.72763646, 0.6739436, 0.48436797, 0.16431522, 0
300, 3598067081, 0.1743025, 0.64403695, -0.15941393, 0.72762203, 0.68446803, 0.37181884, 0.09388542, 0
301, 3598083748, 0.17443655, 0.64405984, -0.15931627, 0.727591, 0.6254917, 0.420552, 0.096069336, 0
302, 3598100415, 0.17460689, 0.64407915, -0.15921232, 0.7275557, 0.59809357, 0.58857065, 0.11401653, 0
303, 3598117082, 0.17471135, 0.64409935, -0.1590809, 0.7275417, 0.5847659, 0.59967786, 0.17425156, 0
304, 3598133749, 0.17485118, 0.6441029, -0.15902849, 0.7275164, 0.5918113, 0.41361582, 0.095620155, 0
305, 3598150416, 0.17498156, 0.64409465, -0.15897071, 0.72750497, 0.5709552, 0.3928365, 0.099882126, 0
306, 3598167083, 0.17508143, 0.64410394, -0.15886454, 0.72749597, 0.5474489, 0.4333658, 0.09480381, 0
307, 3598183750, 0.17517889, 0.64410996, -0.15876338, 0.7274891, 0.4745383, 0.54220545, 0.09406662, 0
308, 3598200417, 0.17526522, 0.64410853, -0.1586935, 0.7274848, 0.3912774, 0.50957894, 0.16885376, 0
309, 3598217084, 0.17535481, 0.64410025, -0.1586453, 0.727481, 0.3841337, 0.4772955, 0.14143276, 0
310, 3598233751, 0.17542021, 0.6440912, -0.15857029, 0.7274898, 0.37494835, 0.3860039, 0.037516594, 0
311, 3598250418, 0.1755313, 0.6440872, -0.15848055, 0.7274861, 0.3395512, 0.42931354, 0.015782356, 0
312, 3598267085, 0.17564237, 0.6440823, -0.15838394, 0.72748464, 0.28949198, 0.51239055, 0.0939312, 0
313, 3598283752, 0.17573977, 0.64408743, -0.15830311, 0.7274742, 0.27385885, 0.46909437, 0.0655756, 0
314, 3598300419, 0.17581229, 0.6440971, -0.15819225, 0.7274722, 0.26009077, 0.4193105, 0.08481789, 0
315, 3598317086, 0.17589386, 0.64411205, -0.15810151, 0.7274589, 0.26838905, 0.4518039, 0.14009285, 0
316, 3598333753, 0.17597286, 0.64412427, -0.15798128, 0.72745526, 0.21633387, 0.51377, 0.07508755, 0
317, 3598350420, 0.17611626, 0.6441259, -0.15788902, 0.727439, 0.16147463, 0.51287764, 0.06522083, 0
318, 3598367087, 0.17629123, 0.64412254, -0.15782037, 0.7274144, 0.16649012, 0.43406096, 0.091394424, 0
319, 3598383754, 0.17642076, 0.6441342, -0.15773362, 0.7273916, 0.21683928, 0.3551826, 0.07893181, 0
320, 3598400421, 0.17654574, 0.6441478, -0.15768091, 0.72736055, 0.27970177, 0.3466714, 0.019288063, 0
321, 3598417088, 0.17662895, 0.644162, -0.15760624, 0.7273441, 0.29251048, 0.32717305, 0.06589031, 0
322, 3598433755, 0.17670444, 0.6441543, -0.15754548, 0.7273458, 0.3323007, 0.409046, 0.11172962, 0
323, 3598450422, 0.17674392, 0.6441519, -0.15749404, 0.72734946, 0.3586946, 0.44397596, 0.09801102, 0
324, 3598467089, 0.17678025, 0.6441217, -0.15748812, 0.72736865, 0.3554829, 0.41895795, 0.07104111, 0
325, 3598483756, 0.17678767, 0.64409906, -0.15749592, 0.7273851, 0.31555516, 0.39182195, 0.08212471, 0
326, 3598500423, 0.17683862, 0.64405024, -0.15755618, 0.72740287, 0.31183532, 0.37275356, 0.10446739, 0
327, 3598517090, 0.17680621, 0.6440245, -0.15755768, 0.72743315, 0.28734943, 0.42536896, 0.0678215, 0
328, 3598533757, 0.17671977, 0.6440053, -0.15753467, 0.72747624, 0.2399339, 0.4395981, 0.08271122, 0
329, 3598550424, 0.17668718, 0.64396924, -0.15757668, 0.727507, 0.23029725, 0.4326839, 0.05489731, 0
330, 3598567091, 0.17665274, 0.6439318, -0.15759897, 0.7275436, 0.27154273, 0.40681204, 0.080397606, 0
331, 3598583758, 0.17660767, 0.6439161, -0.15761551, 0.727565, 0.27275246, 0.42497006, 0.08268356, 0
332, 3598600425, 0.17652813, 0.64389664, -0.15760884, 0.72760284, 0.26058623, 0.4714424, 0.09680939, 0
333, 3598617092, 0.176468, 0.6438658, -0.15763354, 0.7276394, 0.24807237, 0.48749113, 0.07569122, 0
334, 3598633759, 0.17642307, 0.6438363, -0.1576591, 0.7276707, 0.22933242, 0.4576587, 0.042113304, 0
335, 3598650426, 0.17641972, 0.64381415, -0.1577009, 0.72768205, 0.23665728, 0.46237436, 0.025133133, 0
336, 3598667093, 0.17640136, 0.6438091, -0.15769573, 0.72769225, 0.30497938, 0.4886766, 0.08830643, 0
337, 3598683760, 0.17643611, 0.64378434, -0.15770626, 0.72770333, 0.3393523, 0.46946305, 0.09097862, 0
338, 3598700427, 0.17646183, 0.64376724, -0.15771292, 0.72771096, 0.3511215, 0.43606496, 0.09694862, 0
339, 3598717094, 0.1764947, 0.6437394, -0.15772149, 0.7277257, 0.3341122, 0.46626323, 0.159235, 0
340, 3598733761, 0.17650548, 0.64370567, -0.15775964, 0.7277446, 0.30782628, 0.49475777, 0.12573719, 0
341, 3598750428, 0.17647327, 0.6436737, -0.15779416, 0.72777337, 0.26365924, 0.4330802, 0.029148102, 0
342, 3598767095, 0.17645898, 0.6436398, -0.15784171, 0.7277964, 0.26909775, 0.38764468, 0.028492928, 0
343, 3598783762, 0.17644304, 0.6436178, -0.1578875, 0.7278098, 0.2912313, 0.44634542, 0.046331406, 0
344, 3598800429, 0.17641541, 0.64359194, -0.15791915, 0.7278326, 0.31733587, 0.4608907, 0.07628155, 0
345, 3598817096, 0.17640844, 0.64355034, -0.157994, 0.72785467, 0.32647857, 0.43318924, 0.13595295, 0
346, 3598833763, 0.17636585, 0.64350647, -0.1580643, 0.7278885, 0.31552556, 0.41603157, 0.14452553, 0
347, 3598850430, 0.17636079, 0.64344835, -0.15816791, 0.7279186, 0.4514997, 0.44221795, -0.26454735, 0
348, 3598867097, 0.17631981, 0.6434434, -0.15821777, 0.727922, 0.3283215, 0.2611417, -0.03666401, 0
349, 3598883764, 0.17631212, 0.6434132, -0.15831374, 0.7279298, 0.18994012, 0.53057605, 0.4662037, 0
350, 3598900431, 0.17623931, 0.643327, -0.15846647, 0.72799045, 0.20885018, 0.9291298, 0.12295914, 0
351, 3598917098, 0.17617123, 0.64321965, -0.15868488, 0.72805417, 0.06932587, 0.45679328, 0.117892265, 0
352, 3598933765, 0.17616156, 0.64315516, -0.1588425, 0.7280791, 0.1071872, 0.24928062, 0.1221714, 0
353, 3598950432, 0.17620288, 0.6430898, -0.15893151, 0.7281074, -0.0041197417, 0.40144116, 0.103835106, 0
354, 3598967099, 0.17626004, 0.6430346, -0.15904212, 0.72811824, -0.21631172, 0.54541403, 0.10138893, 0
355, 3598983766, 0.17634971, 0.64297277, -0.15914534, 0.72812855, -0.34250125, 0.372607, -0.027438164, 0
356, 3599000433, 0.17642781, 0.6429414, -0.1591759, 0.7281306, -0.35945073, 0.24403732, -0.14056015, 0
357, 3599017100, 0.1764873, 0.64292717, -0.15916096, 0.7281321, -0.33991948, 0.24490902, -0.09155178, 0
358, 3599033767, 0.17655641, 0.6429201, -0.15912667, 0.7281291, -0.269865, 0.21500264, 0.025280952, 0
359, 3599050434, 0.17666072, 0.6429035, -0.1590938, 0.7281255, -0.18261822, 0.22553805, 0.051285744, 0
360, 3599067101, 0.17669445, 0.6428955, -0.1589966, 0.7281456, -0.1660745, 0.2927092, 0.030281067, 0
361, 3599083768, 0.17671672, 0.64288783, -0.15893936, 0.7281596, -0.11864805, 0.37460497, 0.056427002, 0
362, 3599100435, 0.17670187, 0.64287317, -0.15889558, 0.7281858, -0.06627707, 0.3083443, -0.028060913, 0
363, 3599117102, 0.17666963, 0.64287865, -0.15882997, 0.7282029, 0.028851472, 0.23982887, -0.007965088, 0
364, 3599133769, 0.17660716, 0.64288396, -0.15874603, 0.72823167, 0.11700478, 0.2596529, 0.036143303, 0
365, 3599150436, 0.17650986, 0.64288944, -0.15865706, 0.7282698, 0.2328103, 0.35657948, 0.109726906, 0
366, 3599167103, 0.17644699, 0.6428617, -0.15868519, 0.7283033, 0.29895455, 0.37930897, 0.14164543, 0
367, 3599183770, 0.17632544, 0.6428243, -0.15872073, 0.7283581, 0.40475744, 0.34217894, 0.089118004, 0
368, 3599200437, 0.17617567, 0.64278066, -0.15877444, 0.72842115, 0.39674664, 0.38784394, 0.11362553, 0
369, 3599217104, 0.175962, 0.6427347, -0.1588372, 0.72849953, 0.40860727, 0.53662574, 0.050930023, 0
370, 3599233771, 0.17572162, 0.6426855, -0.15894932, 0.7285768, 0.40533945, 0.51875824, 0.04456711, 0
371, 3599250438, 0.17548662, 0.64261824, -0.15908426, 0.7286632, 0.42810184, 0.4250196, 0.11863327, 0
372, 3599267105, 0.17528903, 0.64255095, -0.15923974, 0.7287361, 0.4237642, 0.3873819, 0.0942812, 0
373, 3599283772, 0.17505735, 0.64250153, -0.1593739, 0.7288061, 0.4626117, 0.41771758, 0.09486961, 0
374, 3599300439, 0.17479533, 0.64244884, -0.15953097, 0.7288811, 0.44307494, 0.47563407, 0.13370037, 0
375, 3599317106, 0.17456621, 0.64237285, -0.15973966, 0.72895736, 0.43578383, 0.45610178, 0.111237526, 0
376, 3599333773, 0.17429465, 0.6422975, -0.15993464, 0.729046, 0.39798933, 0.49620414, 0.10519314, 0
377, 3599350440, 0.17400971, 0.6422165, -0.16013779, 0.7291407, 0.38936672, 0.55923986, 0.10793781, 0
378, 3599367107, 0.17373401, 0.64213353, -0.16035675, 0.7292314, 0.39377722, 0.49827525, 0.09349918, 0
379, 3599383774, 0.17351344, 0.6420597, -0.16059914, 0.72929555, 0.4453445, 0.43322846, 0.07448578, 0
380, 3599400441, 0.17329422, 0.6419852, -0.16078436, 0.7293725, 0.47262904, 0.47276443, 0.111626625, 0
381, 3599417108, 0.17313041, 0.6419204, -0.16095203, 0.7294314, 0.44994253, 0.5389635, 0.095277786, 0
382, 3599433775, 0.17293648, 0.6418725, -0.16108367, 0.7294906, 0.4088269, 0.57642436, 0.11457634, 0
383, 3599450442, 0.17280255, 0.6418159, -0.16119611, 0.72954714, 0.39864698, 0.58241934, 0.113241196, 0
384, 3599467109, 0.17271957, 0.64177096, -0.16128474, 0.7295868, 0.38101512, 0.5763576, 0.09971237, 0
385, 3599483776, 0.17268473, 0.6417373, -0.16133255, 0.7296142, 0.390464, 0.5270572, 0.084415436, 0
386, 3599500443, 0.17270944, 0.64170414, -0.16136952, 0.72962904, 0.37502593, 0.48171672, 0.08010864, 0
387, 3599517110, 0.17273505, 0.6416754, -0.161367, 0.7296488, 0.40103295, 0.4818371, 0.121406555, 0
388, 3599533777, 0.1728291, 0.6416441, -0.16137949, 0.72965133, 0.40374774, 0.49906108, 0.11042309, 0
389, 3599550444, 0.17291608, 0.64163625, -0.16134992, 0.72964424, 0.38090378, 0.4979141, 0.08875656, 0
390, 3599567111, 0.17302872, 0.64163435, -0.16127528, 0.7296358, 0.31775466, 0.5167262, 0.089984894, 0
391, 3599583778, 0.17315876, 0.6416409, -0.16117707, 0.7296208, 0.290334, 0.5333115, 0.109054565, 0
392, 3599600445, 0.17332545, 0.64163977, -0.16108534, 0.7296025, 0.2859705, 0.50452405, 0.07116604, 0
393, 3599617112, 0.1735304, 0.6416403, -0.16100451, 0.7295711, 0.28052223, 0.41699106, 0.025388718, 0
394, 3599633779, 0.17373407, 0.6416569, -0.1608856, 0.7295343, 0.24523892, 0.423823, 0.044816017, 0
395, 3599650446, 0.17391172, 0.64168507, -0.16071808, 0.7295041, 0.22535121, 0.49690634, 0.08861065, 0
396, 3599667113, 0.17411779, 0.64169765, -0.16058756, 0.7294727, 0.19945028, 0.45013437, 0.10149479, 0
397, 3599683780, 0.1743021, 0.64172035, -0.16046108, 0.7294365, 0.18863608, 0.40851203, 0.091257095, 0
398, 3599700447, 0.17454866, 0.64172876, -0.16037136, 0.72938997, 0.20532194, 0.3868421, 0.07775402, 0
399, 3599717114, 0.17474023, 0.6417368, -0.16025302, 0.7293629, 0.15688667, 0.42709786, 0.08884907, 0
400, 3599733781, 0.17497054, 0.64172417, -0.16020249, 0.72932994, 0.10483637, 0.3968942, 0.051350594, 0
401, 3599750448, 0.17514554, 0.6417338, -0.16011113, 0.7292995, 0.10895933, 0.37577227, 0.020504951, 0
402, 3599767115, 0.17530572, 0.6417419, -0.16002879, 0.72927207, 0.10098696, 0.38696995, 0.037101746, 0
403, 3599783782, 0.17544779, 0.6417606, -0.15994726, 0.72923934, 0.116875224, 0.3774888, 0.057634354, 0
404, 3599800449, 0.17556265, 0.64176327, -0.15987101, 0.72922593, 0.124298096, 0.32419074, 0.07775879, 0
405, 3599817116, 0.17566065, 0.6417722, -0.15981016, 0.7292078, 0.14499658, 0.3661364, 0.100652695, 0
406, 3599833783, 0.17573614, 0.64176273, -0.15977442, 0.72920567, 0.18780705, 0.3910985, 0.09587574, 0
407, 3599850450, 0.17580658, 0.6417477, -0.159744, 0.7292087, 0.14522955, 0.37681696, -0.004131317, 0
408, 3599867117, 0.17585807, 0.6417531, -0.15969312, 0.7292028, 0.1237007, 0.40986046, 0.02718544, 0
409, 3599883784, 0.17592967, 0.6417544, -0.1596543, 0.72919285, 0.11038676, 0.42021647, 0.059431076, 0
410, 3599900451, 0.17599103, 0.6417576, -0.15960626, 0.72918564, 0.14323953, 0.37588716, 0.056203842, 0
411, 3599917118, 0.17602511, 0.64176726, -0.1595375, 0.729184, 0.16223419, 0.36688846, 0.091926575, 0
412, 3599933785, 0.17608097, 0.64175415, -0.15951185, 0.7291877, 0.16451065, 0.4070085, 0.09286213, 0
413, 3599950452, 0.17609866, 0.6417439, -0.15948416, 0.72919863, 0.16952391, 0.44493863, 0.070067406, 0
414, 3599967119, 0.17614025, 0.6417225, -0.15948382, 0.7292072, 0.16586845, 0.3988666, 0.056370735, 0
415, 3599983786, 0.1761763, 0.6417087, -0.15946493, 0.72921485, 0.13520865, 0.41756633, 0.061638832, 0
416, 3600000453, 0.1761992, 0.64171183, -0.15942156, 0.72921604, 0.12512945, 0.42051688, 0.07240105, 0
417, 3600017120, 0.1763207, 0.64169484, -0.15946166, 0.7291928, 0.15132399, 0.3788407, 0.082839966, 0
418, 3600033787, 0.17637902, 0.64169055, -0.15943256, 0.7291889, 0.16299403, 0.36295944, 0.05340576, 0
419, 3600050454, 0.17642206, 0.6416924, -0.15939078, 0.72918594, 0.18911956, 0.42039153, 0.061131477, 0
420, 3600067121, 0.17646718, 0.641696, -0.15933797, 0.7291835, 0.19494067, 0.46288687, 0.09714985, 0
421, 3600083788, 0.17652017, 0.6416908, -0.1593004, 0.7291836, 0.2030555, 0.456526, 0.05965233, 0
422, 3600100455, 0.17657423, 0.64169973, -0.15924747, 0.7291741, 0.18627597, 0.4029728, 0.08316326, 0
423, 3600117122, 0.17659682, 0.6417056, -0.15916446, 0.7291815, 0.19471353, 0.40100044, 0.105228424, 0
424, 3600133789, 0.17665663, 0.6417078, -0.15912439, 0.72917396, 0.20981593, 0.38992393, 0.06895161, 0
425, 3600150456, 0.17670192, 0.6417084, -0.15909147, 0.7291696, 0.18015712, 0.38775495, 0.04914856, 0
426, 3600167123, 0.17672542, 0.6417026, -0.159046, 0.72917885, 0.13987504, 0.4002441, 0.072255135, 0
427, 3600183790, 0.17676164, 0.64170927, -0.15900715, 0.7291727, 0.16361587, 0.3998757, 0.0659914, 0
428, 3600200457, 0.17679621, 0.64170355, -0.15896924, 0.7291776, 0.14834103, 0.4075122, 0.070581436, 0
429, 3600217124, 0.17680925, 0.64170504, -0.15892854, 0.72918206, 0.14365922, 0.41992638, 0.10580158, 0
430, 3600233791, 0.17677277, 0.64171636, -0.15887734, 0.72919214, 0.18760604, 0.39297375, 0.07647133, 0
431, 3600250458, 0.176806, 0.6417026, -0.15888964, 0.7291934, 0.40014002, 0.40093002, -0.41498947, 0
432, 3600267125, 0.1768158, 0.64171994, -0.15889497, 0.7291746, 0.1453035, 0.36499074, 0.35787964, 0
433, 3600283792, 0.17684789, 0.6417111, -0.15893058, 0.7291668, 0.1570486, 0.51250404, 0.4680357, 0
434, 3600300459, 0.17690529, 0.64165694, -0.15894094, 0.7291984, 0.12287036, 0.4327475, 0.0355196, 0
435, 3600317126, 0.17700872, 0.64161307, -0.15897483, 0.72920454, -0.008265761, 0.46656013, 0.0974493, 0
436, 3600333793, 0.17702514, 0.6415825, -0.15893872, 0.72923523, 0.02190811, 0.49119544, 0.057476997, 0
437, 3600350460, 0.17706671, 0.6415687, -0.15893413, 0.72923833, -0.0062852544, 0.34195557, -0.10168266, 0
438, 3600367127, 0.17711586, 0.64156216, -0.15896368, 0.72922564, 0.013202839, 0.3890449, -0.06579685, 0
439, 3600383794, 0.17715229, 0.6415485, -0.1589773, 0.729226, -0.04748075, 0.34579554, 0.03528309, 0
440, 3600400461, 0.17718334, 0.64154124, -0.15898147, 0.7292238, -0.07604431, 0.26193908, 0.036509514, 0
441, 3600417128, 0.17720445, 0.64153725, -0.15895452, 0.729228, -0.11875191, 0.23175976, 0.035611153, 0
442, 3600433795, 0.17725955, 0.6415258, -0.15894894, 0.72922605, -0.18658589, 0.33411968, 0.04999733, 0
443, 3600450462, 0.17725445, 0.6415392, -0.15892379, 0.729221, -0.14730471, 0.4103243, 2.2888184E-4, 0
444, 3600467129, 0.17722747, 0.6415521, -0.15892209, 0.7292164, -0.088576555, 0.3618856, 0.036819458, 0
445, 3600483796, 0.17714585, 0.64154744, -0.15896541, 0.729231, 0.01595814, 0.27346495, 0.10719299, 0
446, 3600500463, 0.17698227, 0.6415244, -0.15904388, 0.7292739, 0.09805885, 0.19432396, 0.025047302, 0
447, 3600517130, 0.1767616, 0.6414917, -0.15919372, 0.72932345, 0.18123598, 0.06994874, 0.04845333, 0
448, 3600533797, 0.17643121, 0.6414576, -0.15932262, 0.7294051, 0.27449557, 0.094351225, 0.15108013, 0
449, 3600550464, 0.17602016, 0.64138985, -0.15950286, 0.72952497, 0.32060513, 0.19368882, 0.18109417, 0
450, 3600567131, 0.17551835, 0.6412807, -0.15979293, 0.7296783, 0.33111316, 0.2157947, 0.13701153, 0
451, 3600583798, 0.17498237, 0.64111, -0.16024512, 0.7298577, 0.21485838, 0.22258894, 0.119283676, 0
452, 3600600465, 0.17425652, 0.6409565, -0.16068721, 0.73006904, 0.20863459, 0.2523732, 0.02389431, 0
453, 3600617132, 0.17351137, 0.6407808, -0.16121973, 0.73028326, 0.17662372, 0.29471028, 0.05723381, 0
454, 3600633799, 0.17267494, 0.64058596, -0.16180356, 0.73052317, 0.21801154, 0.32468084, 0.015965462, 0
455, 3600650466, 0.17181832, 0.6403772, -0.1624578, 0.7307631, 0.17479506, 0.3333718, -0.09753418, 0
456, 3600667133, 0.17099492, 0.640178, -0.16308075, 0.7309919, 0.06454216, 0.33717763, 0.17125988, 0
457, 3600683800, 0.17012043, 0.6399899, -0.16361584, 0.731241, 0.030155921, 0.4479576, 0.2246933, 0
458, 3600700467, 0.1692665, 0.63977236, -0.16416368, 0.73150665, -0.038042743, 0.49039665, 0.14798737, 0
459, 3600717134, 0.16842636, 0.63953125, -0.16477948, 0.731773, -0.11256431, 0.45154816, 0.12963772, 0
460, 3600733801, 0.16756007, 0.6392773, -0.16541219, 0.73205096, -0.2036755, 0.42640734, 8.31604E-4, 0
461, 3600750468, 0.166711, 0.6390391, -0.16600712, 0.73231804, -0.3411359, 0.36710218, -0.039678574, 0
462, 3600767135, 0.16591656, 0.6388153, -0.166585, 0.73256254, -0.4922466, 0.40093616, -0.040319443, 0
463, 3600783802, 0.16515449, 0.6386066, -0.16711399, 0.7327963, -0.6424904, 0.42170087, -0.07697868, 0
464, 3600800469, 0.1645168, 0.6384343, -0.16756058, 0.7329877, -0.7241368, 0.3292526, -0.03960991, 0
465, 3600817136, 0.16401476, 0.6383112, -0.16786428, 0.73313797, -0.62210983, 0.48503262, -0.052326202, 0
466, 3600833803, 0.16346109, 0.6382405, -0.16797553, 0.7332975, -0.57514936, 0.70669264, 0.048791885, 0
467, 3600850470, 0.16304722, 0.63812876, -0.16814367, 0.7334486, -0.57912433, 0.59325594, 0.05846882, 0
468, 3600867137, 0.16271496, 0.6380259, -0.16828287, 0.73357993, -0.62614274, 0.28935257, -0.13327599, 0
469, 3600883804, 0.16246904, 0.63798445, -0.16825996, 0.7336754, -0.6992912, 0.20667279, -0.034413338, 0
470, 3600900471, 0.16231859, 0.63797516, -0.16812538, 0.73374784, -0.6986179, 0.4365399, -0.03309536, 0
471, 3600917138, 0.1622089, 0.6379949, -0.16792792, 0.7338002, -0.80511487, 0.3738303, -0.004371643, 0
472, 3600933805, 0.16219127, 0.63799876, -0.16776869, 0.73383725, -0.8591038, 0.34252277, 0.053117752, 0
473, 3600950472, 0.16212691, 0.6380201, -0.16755763, 0.733881, -0.91904455, 0.25094274, -0.037665367, 0
474, 3600967139, 0.16201681, 0.63805646, -0.16732833, 0.73392606, -0.96913284, 0.2011592, -0.2755394, 0
475, 3600983806, 0.1618572, 0.6380816, -0.16706419, 0.73399943, -1.1024929, 0.11822606, 0.0027246475, 0
476, 3601000473, 0.16170186, 0.63808817, -0.16679157, 0.73409015, -1.2078501, -0.007044765, -0.08942795, 0
477, 3601017140, 0.16154483, 0.6381326, -0.1664829, 0.7341561, -1.2686342, -0.081320524, -0.0891428, 0
478, 3601033807, 0.16138421, 0.6382112, -0.16615188, 0.734198, -1.2458373, 0.09036433, -0.081801414, 0
479, 3601050474, 0.16116986, 0.6382808, -0.16584939, 0.7342529, -1.2969999, 0.25329304, -0.007540703, 0
480, 3601067141, 0.16088197, 0.63832086, -0.1655881, 0.7343403, -1.297076, 0.090726644, -0.17672443, 0
481, 3601083808, 0.16054463, 0.6383267, -0.16529506, 0.73447514, -1.3755791, -0.15700832, -0.44948196, 0
482, 3601100475, 0.16018637, 0.6384, -0.16494195, 0.7345689, -1.6476274, -0.23076302, -0.43969727, 0
483, 3601117142, 0.15979815, 0.638512, -0.164587, 0.7346358, -1.7063147, 0.28690436, 0.114712715, 0
484, 3601133809, 0.15933019, 0.6385732, -0.16429827, 0.7347488, -1.6296523, 0.13040847, 0.22175026, 0
485, 3601150476, 0.15885864, 0.6385399, -0.1639971, 0.73494714, -1.5259845, -0.1894286, 0.06406689, 0
486, 3601167143, 0.1583386, 0.6385379, -0.16365927, 0.73513645, -1.6207811, -0.2860036, -0.21884441, 0
487, 3601183810, 0.1577742, 0.638595, -0.16331941, 0.7352837, -1.9803574, -0.10475091, -0.05015278, 0
488, 3601200477, 0.15717795, 0.6386383, -0.16292836, 0.7354604, -2.010724, -0.007924708, -0.74393845, 0
489, 3601217144, 0.1565601, 0.63870716, -0.1625124, 0.73562455, -2.2654076, -0.005953659, -0.015724182, 0
490, 3601233811, 0.15593252, 0.63878274, -0.16205409, 0.73579323, -2.3750815, -0.215535, 0.26850796, 0
491, 3601250478, 0.1553706, 0.6388944, -0.1615437, 0.7359274, -2.389024, -0.2715773, 0.102339745, 0
492, 3601267145, 0.15480018, 0.639068, -0.16095366, 0.7360263, -2.1333964, -0.21743077, -0.5365, 0
493, 3601283812, 0.15425786, 0.6391992, -0.16037184, 0.7361531, -1.5813535, 0.56999797, -0.6705084, 0
494, 3601300479, 0.15353285, 0.63931394, -0.15998347, 0.7362896, -2.1346285, 0.8746372, -0.83976173, 0
495, 3601317146, 0.15279737, 0.63950896, -0.15948045, 0.7363822, -2.2028227, -0.77044463, 0.013962746, 0
496, 3601333813, 0.15220383, 0.63983595, -0.15854283, 0.7364237, -1.982585, -1.1741945, 0.103512764, 0
497, 3601350480, 0.15173015, 0.6403562, -0.15741903, 0.7363101, -1.9615736, 0.29129767, -0.6902504, 0
498, 3601367147, 0.15131938, 0.6407283, -0.15634522, 0.7362998, -1.7175064, 0.74297386, -0.19869614, 0
499, 3601383814, 0.15098247, 0.64100987, -0.1552675, 0.736352, -1.6083184, 0.16172752, -0.49352646, 0
500, 3601400481, 0.1506769, 0.6414616, -0.15394248, 0.7362994, -1.4617295, -0.8032051, -0.14498329, 0
501, 3601417148, 0.15060088, 0.6419472, -0.15231672, 0.73622984, -0.7123289, -0.16284133, -0.37696362, 0
502, 3601433815, 0.1504946, 0.6425898, -0.15080042, 0.73600316, -2.4612398, 1.522579, -0.29111195, 0
503, 3601450482, 0.15028605, 0.6431824, -0.14945608, 0.7358022, -2.909988, 0.8617614, 1.0446129, 0
504, 3601467149, 0.1502432, 0.6437781, -0.1477854, 0.7356276, -2.1180036, -1.7456024, -0.5349407, 0
505, 3601483816, 0.15044102, 0.6444969, -0.14563671, 0.7353862, -2.758277, -1.2421334, -0.45543957, 0
506, 3601500483, 0.1507067, 0.64518553, -0.14359951, 0.73512846, -3.7871985, 0.774389, 0.88973236, 0
507, 3601517150, 0.15084808, 0.6458342, -0.14190373, 0.7348592, -3.5636659, 0.29357886, -2.086739, 0
508, 3601533817, 0.15099764, 0.6465494, -0.13994175, 0.73457575, -3.7485998, -1.1080366, -0.510726, 0
509, 3601550484, 0.15116107, 0.6473226, -0.13768065, 0.73428833, -4.3010216, -0.3247907, 0.44188976, 0
510, 3601567151, 0.15131941, 0.64804006, -0.13561149, 0.73400795, -4.0654035, 0.29483846, 0.42126083, 0
511, 3601583818, 0.15157689, 0.6486374, -0.13384384, 0.73375154, -3.1476958, -0.17554507, -1.370676, 0
512, 3601600485, 0.15189628, 0.6492801, -0.1319718, 0.73345625, -3.7432864, -1.2155997, 0.040050507, 0
513, 3601617152, 0.15231204, 0.6499058, -0.12992856, 0.7331805, -2.9265866, 0.42428732, -2.1770473, 0
514, 3601633819, 0.1526775, 0.6504114, -0.12823272, 0.73295474, -3.6109145, 1.3472397, -0.36265278, 0
515, 3601650486, 0.15312117, 0.65090376, -0.12677309, 0.7326791, -3.80944, 0.09016127, -0.01875782, 0
516, 3601667153, 0.15371063, 0.65172017, -0.12508494, 0.7321196, -2.4009829, 0.18566486, -3.7546096, 0
517, 3601683820, 0.15451302, 0.6527496, -0.12322578, 0.7313485, -3.2307796, 1.0373001, -1.8430347, 0
518, 3601700487, 0.15564334, 0.65369624, -0.12149012, 0.7305534, -3.1320462, 1.590031, -0.92459106, 0
519, 3601717154, 0.15706205, 0.65462846, -0.119732924, 0.7297046, -2.6672888, 1.3363482, -0.82226753, 0
520, 3601733821, 0.15871625, 0.6556714, -0.117952615, 0.72869945, -2.8020577, 1.1153327, 0.7344456, 0
521, 3601750488, 0.16037399, 0.65686345, -0.116321735, 0.72752416, -2.1313171, 1.3790089, -0.44491768, 0
522, 3601767155, 0.16187859, 0.6579965, -0.115040906, 0.72636986, -0.9524979, 0.30315182, -1.0008736, 0
523, 3601783822, 0.16321796, 0.658839, -0.114183925, 0.72544134, -1.0847454, -0.6476164, 2.7438688, 0
524, 3601800489, 0.164437, 0.65947974, -0.11356808, 0.7246798, 1.7377232, -1.3723488, 1.3556681, 0
525, 3601817156, 0.16555417, 0.6596538, -0.11300203, 0.72435546, 1.6831987, 0.1312361, 3.4253416, 0
526, 3601833823, 0.16614784, 0.6594532, -0.11271866, 0.72444624, 1.8466684, 1.7347862, 2.558364, 0
527, 3601850490, 0.16618772, 0.65914726, -0.11270886, 0.72471696, 2.322521, 1.3642147, -0.747674, 0
528, 3601867157, 0.1659, 0.6591044, -0.11292025, 0.7247891, 1.6215831, 0.050453637, 0.22793388, 0
529, 3601883824, 0.16564536, 0.6591233, -0.11323348, 0.7247812, 3.3847728, -0.6977971, -0.334877, 0
530, 3601900491, 0.16549619, 0.65899456, -0.11363959, 0.7248687, 3.478689, -0.110897295, 1.3205309, 0
531, 3601917158, 0.16517428, 0.6589158, -0.11403158, 0.72495234, 3.8155074, 0.9750217, 0.63897324, 0
532, 3601933825, 0.16457047, 0.6587091, -0.11434254, 0.7252286, 3.516637, 0.9043598, 0.12567902, 0
533, 3601950492, 0.16384491, 0.6585912, -0.11445002, 0.7254828, 3.6714091, 0.28978387, 0.5736685, 0
534, 3601967159, 0.16318306, 0.65844285, -0.114353046, 0.7257819, 3.1199923, -0.4333972, 0.3049183, 0
535, 3601983826, 0.16256312, 0.65830684, -0.114015065, 0.7260977, 2.5192068, 0.061311204, 0.44995403, 0
536, 3602000493, 0.16174404, 0.6581845, -0.11370607, 0.7264397, 1.8307301, 0.5118188, -0.07524204, 0
537, 3602017160, 0.16078562, 0.6580031, -0.113556296, 0.72683996, 1.5223335, 0.5489391, -0.020549774, 0
538, 3602033827, 0.15967536, 0.6578582, -0.11334105, 0.72724956, 1.341286, -0.025731593, -0.35073662, 0
539, 3602050494, 0.15858066, 0.657739, -0.11285085, 0.7276729, 1.1811217, -0.3290908, 0.24253178, 0
540, 3602067161, 0.15757766, 0.65756637, -0.11217777, 0.7281507, 1.3038515, 0.059302878, 0.5640631, 0
541, 3602083828, 0.15660837, 0.6575012, -0.11140532, 0.72853726, -0.007490436, 0.0639035, -0.24329853, 0
542, 3602100495, 0.15561613, 0.65753245, -0.11063041, 0.72883976, 0.38260436, 0.500669, 0.42525673, 0
543, 3602117162, 0.15453106, 0.65757716, -0.10978226, 0.7291584, 0.1005662, -0.274886, -0.46818352, 0
544, 3602133829, 0.15341574, 0.6576772, -0.1088432, 0.7294444, 0.3395722, 0.12541574, 0.8076906, 0
545, 3602150496, 0.15233028, 0.6577486, -0.10792777, 0.7297434, 0.22070849, 0.61818844, -0.19059467, 0
546, 3602167163, 0.15140657, 0.6578004, -0.106932074, 0.7300356, 0.26177943, 0.4170431, 0.50127506, 0
547, 3602183830, 0.15074739, 0.6578636, -0.10574134, 0.7302883, -0.06963262, 0.5488215, -0.2689581, 0
548, 3602200497, 0.1503656, 0.65792304, -0.10428309, 0.7305233, 0.050471365, 1.3110994, -0.26782417, 0
549, 3602217164, 0.1501084, 0.6581559, -0.10259124, 0.7306058, -0.73612744, 1.2508936, -0.16884804, 0
550, 3602233831, 0.15005824, 0.6584832, -0.100914605, 0.73055494, -0.26708776, 1.8402299, -0.060843468, 0
551, 3602250498, 0.15027945, 0.6587654, -0.09927548, 0.7304794, -0.19970992, 0.69242334, -0.1938839, 0
552, 3602267165, 0.15089326, 0.6590955, -0.09742212, 0.73030484, 0.31717455, 0.7978266, -0.22433758, 0
553, 3602283832, 0.15179384, 0.6593332, -0.09556967, 0.73014826, -0.24709296, 1.3620219, 0.021482468, 0
554, 3602300499, 0.15282327, 0.65957844, -0.09395383, 0.7299216, -0.24554418, 1.8004485, -0.66480637, 0
555, 3602317166, 0.15385145, 0.6597793, -0.09260912, 0.72969604, 0.2547898, 1.6745707, -0.14837551, 0
556, 3602333833, 0.15483344, 0.65988535, -0.0914935, 0.7295331, -0.029512832, 1.4983444, 0.4663849, 0
557, 3602350500, 0.15586114, 0.65991336, -0.09054297, 0.7294075, 0.48222852, 1.5467281, -0.087114334, 0
558, 3602367167, 0.15698567, 0.65981233, -0.08989679, 0.72933775, -0.5096069, 1.7839491, -0.22794151, 0
559, 3602383834, 0.15814838, 0.659767, -0.08968771, 0.72915316, -0.5709245, 1.567696, 0.46746826, 0
560, 3602400501, 0.1592686, 0.65969086, -0.08971869, 0.7289744, -0.14057244, 0.6569408, -0.026503563, 0
561, 3602417168, 0.160378, 0.6596487, -0.08985579, 0.7287525, 0.79940325, 0.7696928, 0.81966114, 0
562, 3602433835, 0.16147532, 0.65953004, -0.09010375, 0.7285868, 0.5747699, 0.9302068, 0.2956457, 0
563, 3602450502, 0.1625934, 0.6594146, -0.090759516, 0.7283615, 0.22255757, 1.7332041, 0.2080059, 0
564, 3602467169, 0.16361716, 0.6592288, -0.091695234, 0.72818303, -0.04629237, 1.8439083, -0.23168755, 0
565, 3602483836, 0.16452667, 0.6589389, -0.09277616, 0.7281036, -0.54648083, 1.536394, -0.047207832, 0
566, 3602500503, 0.16533253, 0.6586112, -0.09419095, 0.7280359, -0.56377167, 1.2683331, -0.28042316, 0
567, 3602517170, 0.16610533, 0.658231, -0.09576663, 0.72799814, -1.1194966, 1.0737413, -0.31756592, 0
568, 3602533837, 0.16690075, 0.65784484, -0.09726339, 0.72796685, -0.88972414, 0.7565005, 0.25422478, 0
569, 3602550504, 0.16784072, 0.6574494, -0.09868183, 0.7279171, -0.83313316, 0.37667271, -0.5642271, 0
570, 3602567171, 0.16883555, 0.65708613, -0.10026672, 0.7277984, -1.4809948, 0.57908654, 0.43410683, 0
571, 3602583838, 0.1696851, 0.65675396, -0.102028824, 0.7276557, -1.6855247, 0.55541205, -0.69165134, 0
572, 3602600505, 0.17019303, 0.6564196, -0.1041492, 0.7275385, -1.607797, 0.35660696, -0.33679104, 0
573, 3602617172, 0.17034392, 0.6559751, -0.106678136, 0.72753763, -1.3780842, -0.019820387, 0.42969227, 0
574, 3602633839, 0.17021929, 0.6554631, -0.109391734, 0.72762525, -0.83137107, -0.6621007, -0.39844322, 0
575, 3602650506, 0.16994283, 0.6549296, -0.112028435, 0.7277693, -1.320403, -0.54402024, 0.45126534, 0
576, 3602667173, 0.16942681, 0.6543755, -0.114618465, 0.7279845, -1.4041868, -0.05825555, 0.18821907, 0
577, 3602683840, 0.16860875, 0.65381896, -0.11737603, 0.728235, -1.4561241, -0.0059271725, -0.524168, 0
578, 3602700507, 0.16744564, 0.6532761, -0.12023265, 0.72852457, -2.3129008, -0.78693813, -0.03733921, 0
579, 3602717174, 0.16599624, 0.6528688, -0.12307721, 0.7287463, -2.3189714, -0.8558078, -0.1937933, 0
580, 3602733841, 0.16447061, 0.65241003, -0.12556404, 0.7290788, -1.3656077, -1.0486902, -0.6243057, 0
581, 3602750508, 0.1630019, 0.65197664, -0.12755756, 0.7294502, -2.387664, -1.1532086, -0.0044460297, 0
582, 3602767175, 0.16156575, 0.6515821, -0.12933475, 0.72980917, -2.4781792, -0.48062304, -0.86516094, 0
583, 3602783842, 0.15986753, 0.65116376, -0.13113062, 0.730236, -2.7636998, -0.8146263, 0.035203934, 0
584, 3602800509, 0.1579625, 0.6508471, -0.13281766, 0.730628, -3.2149324, -2.4564886, 0.3677063, 0
585, 3602817176, 0.15578225, 0.650615, -0.13426451, 0.7310383, -2.8392859, -1.257531, 0.111709595, 0
586, 3602833843, 0.15332425, 0.6503615, -0.1357471, 0.73150945, -2.6591916, -0.6771819, -0.17793941, 0
587, 3602850510, 0.1508837, 0.6501421, -0.13698915, 0.73198014, -2.0584235, -1.4702526, 1.5850544, 0
588, 3602867177, 0.14874446, 0.64980143, -0.13760088, 0.7326054, -2.4404004, -1.8708438, -1.8657908, 0
589, 3602883844, 0.14683254, 0.64956284, -0.13775535, 0.7331736, -3.6914961, 0.7558866, -3.2210436, 0
590, 3602900511, 0.14496315, 0.6493034, -0.13785276, 0.7337568, -3.694875, 0.91802996, -2.0720077, 0
591, 3602917178, 0.14314255, 0.64918923, -0.1376982, 0.7342441, -3.3255727, -1.7458634, 0.114313126, 0
592, 3602933845, 0.1415053, 0.6492179, -0.13687648, 0.7346898, -1.4302216, -2.0290577, 1.9454308, 0
593, 3602950512, 0.14013036, 0.649125, -0.13580531, 0.73523396, -1.4663619, -0.7059795, 2.950286, 0
594, 3602967179, 0.1388632, 0.64902675, -0.1348725, 0.7357326, -2.4138782, 0.6515481, 1.7359972, 0
595, 3602983846, 0.13753131, 0.6491781, -0.13411745, 0.73598725, -3.1509745, 1.0178509, -2.2094522, 0
596, 3603000513, 0.13634413, 0.6496524, -0.13301754, 0.7359892, -3.6008396, -0.5609116, -1.3622141, 0
597, 3603017180, 0.13554901, 0.6503865, -0.13103656, 0.7358431, -2.674355, -1.0820808, -0.3544855, 0
598, 3603033847, 0.13555893, 0.65085304, -0.12857106, 0.73586357, -0.41501114, 0.68695074, 2.9886656, 0
599, 3603050514, 0.13625923, 0.6508917, -0.12575978, 0.73618585, 0.715228, 1.3471177, -0.83581066, 0
600, 3603067181, 0.13748212, 0.65095097, -0.12233559, 0.73648304, 2.3153336, 0.7222829, -4.0936937, 0
601, 3603083848, 0.1389162, 0.651357, -0.11870981, 0.7364483, -0.16286159, 2.0923355, -2.162241, 0
602, 3603100515, 0.14029662, 0.6522979, -0.11539797, 0.73588, -2.782755, 1.380566, -0.32530117, 0
603, 3603117182, 0.14201796, 0.6536956, -0.11180667, 0.7348633, -1.2394593, -1.6097276, -1.3665752, 0
604, 3603133849, 0.14443164, 0.6550344, -0.10757225, 0.73383194, 1.4295129, -0.64682794, -0.8244448, 0
605, 3603150516, 0.14710376, 0.65633607, -0.1036522, 0.7327015, 0.6976657, 2.9138668, 4.5355215, 0
606, 3603167183, 0.14956404, 0.6572303, -0.100723535, 0.73180956, 2.481962, 4.2957234, 1.5081196, 0
607, 3603183850, 0.15188423, 0.65766156, -0.09848049, 0.73124963, 1.9488707, 3.9231226, -1.578578, 0
608, 3603200517, 0.15413195, 0.65819764, -0.09657618, 0.7305504, -1.058363, 2.0042796, -1.7441025, 0
609, 3603217184, 0.1567165, 0.65901035, -0.09487916, 0.7294897, -1.2263145, 1.8008734, -2.332778, 0
610, 3603233851, 0.15970695, 0.65997016, -0.093578145, 0.7281401, -1.7385969, 2.0510757, -3.6703377, 0
611, 3603250518, 0.16268888, 0.6610783, -0.0929491, 0.72655344, -1.7547295, 3.5460703, 0.04934311, 0
612, 3603267185, 0.16534978, 0.66209155, -0.09289201, 0.72503585, -0.8870334, 2.8118792, 1.4918337, 0
613, 3603283852, 0.16769467, 0.6628548, -0.09306113, 0.7237773, -0.27645138, 0.28196898, 3.9757147, 0
614, 3603300519, 0.16983432, 0.6634479, -0.09348933, 0.7226788, 0.48407504, -0.5649468, 1.46906, 0
615, 3603317186, 0.1718027, 0.66342425, -0.09431444, 0.7221279, 2.3472044, -0.08977325, -0.55360603, 0
616, 3603333853, 0.17344156, 0.6628876, -0.09546422, 0.72207785, 1.9750726, 0.25044838, 0.6873226, 0
617, 3603350520, 0.17445996, 0.6620508, -0.096795686, 0.72242284, 2.0415576, 1.2398938, 2.2682934, 0
618, 3603367187, 0.17481543, 0.6611367, -0.09857878, 0.72293276, 2.156266, 2.0378587, 3.008915, 0
619, 3603383854, 0.17467162, 0.6601995, -0.10084924, 0.7235106, 2.480813, 1.5036671, 0.82864666, 0
620, 3603400521, 0.17453021, 0.65920556, -0.103391334, 0.724092, 3.0836277, 0.52909136, -0.030283928, 0
621, 3603417188, 0.1745712, 0.6584222, -0.10568749, 0.72446334, 2.0200112, -0.18409814, 1.4387436, 0
622, 3603433855, 0.17461216, 0.65811086, -0.10744355, 0.724478, 1.0404395, 0.13238925, -0.05920601, 0
623, 3603450522, 0.17467979, 0.6579094, -0.1090529, 0.72440434, 1.4045472, 1.6517909, -2.2622352, 0
624, 3603467189, 0.17476237, 0.6575375, -0.11058308, 0.72449005, 0.67903763, 1.0504855, -1.3523521, 0
625, 3603483856, 0.17488578, 0.65731794, -0.11172277, 0.72448456, 0.93487114, -0.96258235, 0.2903509, 0
626, 3603500523, 0.17521678, 0.657214, -0.112164594, 0.72443074, 1.4540803, -1.0308397, 1.3500681, 0
627, 3603517190, 0.17552033, 0.65700346, -0.11232518, 0.72452325, 1.4015888, 1.0603454, 0.9315357, 0
628, 3603533857, 0.17558177, 0.6566506, -0.11268871, 0.72477186, 1.1072803, 1.0314875, -0.37649536, 0
629, 3603550524, 0.17539302, 0.65645164, -0.11299073, 0.72495055, 0.6983022, -0.17454323, -0.7430811, 0
630, 3603567191, 0.17516503, 0.6563937, -0.11286788, 0.7250773, 0.86505336, -1.1167659, -0.7710104, 0
631, 3603583858, 0.17503452, 0.6564939, -0.112378016, 0.7250943, 0.6436055, -0.5311552, -0.07914829, 0
632, 3603600525, 0.17505112, 0.65668064, -0.11189479, 0.7249959, 0.2796314, 0.2264671, 1.5955639, 0
633, 3603617192, 0.17507689, 0.6567753, -0.11148675, 0.72496676, 0.3700018, 0.2879067, -0.04876423, 0
634, 3603633859, 0.17492, 0.6568752, -0.110893555, 0.72500503, 0.42089623, 0.4504786, -0.413661, 0
635, 3603650526, 0.17461896, 0.6568774, -0.11032473, 0.7251625, -0.070405506, 0.5422302, -0.3767786, 0
636, 3603667193, 0.17436224, 0.65687954, -0.10995419, 0.72527856, -0.25631532, 0.37979442, -0.28223324, 0
637, 3603683860, 0.17424051, 0.6568663, -0.109603845, 0.7253728, -0.11054596, 0.20404246, 0.37475586, 0
638, 3603700527, 0.17425573, 0.656889, -0.109316826, 0.72539175, -0.22066443, 0.7242494, 1.1182861, 0
639, 3603717194, 0.17427528, 0.65684384, -0.109024785, 0.7254719, -0.0050381916, 1.2055538, 0.37902927, 0
640, 3603733861, 0.17424129, 0.6568195, -0.108873904, 0.7255248, -0.6054802, 1.4195487, -0.45775127, 0
641, 3603750528, 0.17426005, 0.65680075, -0.108918846, 0.7255306, -0.8398897, 0.856832, -0.7597952, 0
642, 3603767195, 0.17434329, 0.6568619, -0.109089606, 0.72542965, -1.6549263, 0.566254, -0.66119194, 0
643, 3603783862, 0.17447409, 0.65714616, -0.109373815, 0.7250979, -1.1772208, 0.3230236, -0.7658901, 0
644, 3603800529, 0.17469816, 0.6574183, -0.10971763, 0.7247453, -0.6017579, 1.3491735, -0.19596672, 0
645, 3603817196, 0.17489213, 0.6574005, -0.11025776, 0.72463256, 0.87040305, 1.7911195, 0.3771248, 0
646, 3603833863, 0.17524728, 0.6570426, -0.1110137, 0.7247559, 0.05932946, 0.9836273, 0.60187435, 0
647, 3603850530, 0.17576744, 0.6567648, -0.11164702, 0.7247844, -0.27544752, 1.0745221, 0.6717653, 0
648, 3603867197, 0.17646284, 0.6564957, -0.112148985, 0.72478175, -0.7379373, 1.6862402, -0.29892445, 0
649, 3603883864, 0.17728823, 0.65627575, -0.112777285, 0.72468203, 0.2713382, 2.022027, -0.8287201, 0
650, 3603900531, 0.17816636, 0.655945, -0.11352437, 0.7246494, -0.65845215, 1.2266374, 0.5737648, 0
651, 3603917198, 0.17903313, 0.6557624, -0.114246316, 0.7244876, -0.4793232, 0.6773261, 0.23123646, 0
652, 3603933865, 0.17988515, 0.6555717, -0.11498665, 0.7243321, -0.46331084, 0.81068426, -0.2585907, 0
653, 3603950532, 0.18073593, 0.65534633, -0.11592174, 0.7241751, -1.1037744, 1.2080572, -0.40270424, 0
654, 3603967199, 0.1816225, 0.65502745, -0.117037386, 0.7240624, -0.23007616, 0.769346, -0.33307648, 0
655, 3603983866, 0.18254435, 0.65458244, -0.118104585, 0.72405964, -0.72119355, 0.55380064, -0.23579788, 0
656, 3604000533, 0.18332745, 0.65420973, -0.11904722, 0.7240442, -0.43517697, 0.64629227, -1.1736422, 0
657, 3604017200, 0.18392587, 0.6537145, -0.12019496, 0.7241503, -0.717354, 1.0388352, 1.1370564, 0
658, 3604033867, 0.18430881, 0.6533047, -0.12174824, 0.72416323, -1.4430771, -0.13565266, 0.9022722, 0
659, 3604050534, 0.1846315, 0.6530531, -0.12323143, 0.72405726, -0.7387547, -0.4005287, 0.4315071, 0
660, 3604067201, 0.18476968, 0.6528572, -0.12453112, 0.7239761, -1.3372664, -0.00869064, 0.40592194, 0
661, 3604083868, 0.18468413, 0.6527259, -0.1259096, 0.72387797, -1.3185903, 0.21943751, 0.15868378, 0
662, 3604100535, 0.18446082, 0.65256476, -0.12732369, 0.72383267, -0.48249257, -0.113456756, -0.27102375, 0
663, 3604117202, 0.1840349, 0.6522958, -0.12861654, 0.7239549, 0.110919155, -0.36952543, -0.7782736, 0
664, 3604133869, 0.18336403, 0.65186656, -0.12973574, 0.7243121, -0.32169995, -0.65379924, 0.95904064, 0
665, 3604150536, 0.18256475, 0.6515108, -0.13085346, 0.72463304, -0.99866754, -1.0312965, 0.20255852, 0
666, 3604167203, 0.18155597, 0.6512943, -0.13214014, 0.72484756, -1.3843784, -0.8491956, -0.9373541, 0
667, 3604183870, 0.18033078, 0.6509692, -0.13343444, 0.7252083, -1.0979154, -0.5631549, -1.3757257, 0
668, 3604200537, 0.17901105, 0.6506302, -0.13446885, 0.72564816, -1.193182, -0.8640043, -0.30196095, 0
669, 3604217204, 0.1777429, 0.65051377, -0.13522327, 0.7259241, -1.7330698, -0.4457933, 0.61977005, 0
670, 3604233871, 0.17647296, 0.65048015, -0.13605857, 0.72610795, -1.6014597, -0.03825335, -0.632247, 0
671, 3604250538, 0.1751186, 0.650468, -0.13675937, 0.7263151, -1.1889623, -0.3650269, -0.30578995, 0
672, 3604267205, 0.17376259, 0.6503896, -0.13680942, 0.7267014, -0.72970927, -1.5201322, 0.053520203, 0
673, 3604283872, 0.17254522, 0.6502762, -0.1363755, 0.72717416, -0.67702854, -1.2454169, -0.6685753, 0
674, 3604300539, 0.17128648, 0.65009886, -0.13603158, 0.7276947, -1.2824496, 0.1513207, 0.51290035, 0
675, 3604317206, 0.16989733, 0.65006477, -0.1357417, 0.7281049, -2.0683744, -0.828128, -0.47748947, 0
676, 3604333873, 0.16852063, 0.65002495, -0.13520804, 0.7285594, -0.8050685, -0.6979692, 0.3329878, 0
677, 3604350540, 0.16723655, 0.6500603, -0.13408682, 0.7290309, -2.0522444, -1.1255063, 0.63398457, 0
678, 3604367207, 0.16608502, 0.65047634, -0.13266268, 0.72918355, -1.5240585, -0.5082546, -0.13972569, 0
679, 3604383874, 0.16515635, 0.65091056, -0.13140075, 0.7292354, -1.6256839, -0.34792092, -1.1124678, 0
680, 3604400541, 0.16423512, 0.6513471, -0.13025478, 0.72925943, -1.6110705, 0.2236003, -0.5217867, 0
681, 3604417208, 0.16320066, 0.65181077, -0.12881821, 0.72933245, -1.5778836, -1.1041211, -0.15862465, 0
682, 3604433875, 0.16230273, 0.65227216, -0.12701282, 0.72943693, -1.8052897, -1.1479485, 0.31218147, 0
683, 3604450542, 0.16170287, 0.6524438, -0.12525171, 0.72972125, -0.26368427, 0.07532255, 0.62291145, 0
684, 3604467209, 0.16137016, 0.6523551, -0.123611905, 0.73015374, -1.25792, 0.13820133, 2.018074, 0
685, 3604483876, 0.16100389, 0.6524397, -0.12211814, 0.7304101, -2.7673357, 1.8859335, -0.12145233, 0
686, 3604500543, 0.16036218, 0.65285075, -0.12071955, 0.73041666, -4.308378, 1.8769172, -1.5285406, 0
687, 3604517210, 0.15995869, 0.6534694, -0.11954127, 0.7301456, -4.6922116, -0.4297141, -2.9059315, 0
688, 3604533877, 0.16032253, 0.6540399, -0.11790966, 0.7298202, -3.3274024, -1.7428366, 0.7331219, 0
689, 3604550544, 0.16145584, 0.6545169, -0.115394555, 0.7295448, -2.4563353, -0.82096654, 3.5628357, 0
690, 3604567211, 0.16278586, 0.6547163, -0.11260465, 0.7295061, -0.7850406, 1.7205164, 2.6819916, 0
691, 3604583878, 0.16412526, 0.6546841, -0.11026303, 0.72959274, 0.4769762, 1.5685338, -4.1634064, 0
692, 3604600545, 0.16530192, 0.6547813, -0.10864705, 0.72948223, -0.13993064, 1.903123, -4.586893, 0
693, 3604617212, 0.16645801, 0.65564555, -0.10741436, 0.7286251, -3.047988, -0.6280235, -2.2989397, 0
694, 3604633879, 0.16809116, 0.6571328, -0.105487965, 0.7271905, 0.0705347, -0.49925956, -2.3373013, 0
695, 3604650546, 0.17022823, 0.6588392, -0.10273703, 0.72554106, 3.5635448, 0.658788, -4.417799, 0
696, 3604667213, 0.17273274, 0.66053206, -0.100051105, 0.72378325, 4.7250605, 2.956316, 1.3916006, 0
697, 3604683880, 0.17464292, 0.66175574, -0.09870417, 0.72239065, 4.1497645, 5.3253503, 6.016673, 0
698, 3604700547, 0.17565434, 0.66243243, -0.098120905, 0.72160435, 5.827681, 1.9512035, 1.4415035, 0
699, 3604717214, 0.1761046, 0.66275644, -0.09700043, 0.7213487, 4.2207775, -1.1518879, -0.1457882, 0
700, 3604733881, 0.17651962, 0.66366184, -0.095604874, 0.7206008, -0.5256465, -1.164914, 1.010992, 0
701, 3604750548, 0.17712194, 0.66477376, -0.09459827, 0.71955985, 2.5810323, -0.49960554, 0.46168423, 0
702, 3604767215, 0.17801982, 0.6650728, -0.093672484, 0.7191831, 4.5758576, 0.553867, 0.85689163, 0
703, 3604783882, 0.1784748, 0.6648818, -0.09280105, 0.7193598, 3.6568656, 1.712604, 5.764248, 0
704, 3604800549, 0.17836891, 0.6644101, -0.09249203, 0.7198615, 2.7873216, 2.267175, 4.287182, 0
705, 3604817216, 0.17795189, 0.66370505, -0.09316419, 0.7205281, 2.711547, 2.2141232, 0.37521172, 0
706, 3604833883, 0.17755316, 0.6630427, -0.094141535, 0.7211093, 1.866001, 0.030598504, -1.7807617, 0
707, 3604850550, 0.1772403, 0.66272354, -0.09479063, 0.7213944, 0.9974699, 0.2174427, -0.83004665, 0
708, 3604867217, 0.17691076, 0.6625829, -0.09529597, 0.7215379, 1.500875, 1.9777405, 0.93390083, 0
709, 3604883884, 0.17680107, 0.6624106, -0.09572844, 0.7216657, 2.347693, 0.80119365, 0.28224087, 0
710, 3604900551, 0.17716272, 0.662199, -0.095530264, 0.72179735, 2.5885255, 0.2533876, 0.010318756, 0
711, 3604917218, 0.17783228, 0.6621407, -0.094650894, 0.72180206, 0.6380041, 1.1141361, -0.5783005, 0
712, 3604933885, 0.17869554, 0.6622449, -0.09361515, 0.7216283, 1.0458066, 2.2732427, -0.64661884, 0
713, 3604950552, 0.17968595, 0.6622622, -0.09290716, 0.721458, 0.06890733, 1.893565, 0.8285122, 0
714, 3604967219, 0.18068577, 0.6622238, -0.09231294, 0.72131985, 1.4578607, 0.43993342, -1.2854557, 0
715, 3604983886, 0.1817763, 0.6621003, -0.09157205, 0.72125375, 0.85595787, 0.9491996, 2.1882162, 0
716, 3605000553, 0.1829057, 0.6620287, -0.09089739, 0.7211192, 0.45734635, 1.342204, -1.3382483, 0
717, 3605017220, 0.18412462, 0.66214734, -0.09015626, 0.7207932, 0.4889233, 1.5086308, -2.3707032, 0
718, 3605033887, 0.18544917, 0.6622789, -0.08973512, 0.7203851, -1.4668064, 1.2163371, 1.7550097, 0
719, 3605050554, 0.18722482, 0.6624925, -0.08993266, 0.7197045, -0.60820055, 0.97756857, -0.0905962, 0
720, 3605067221, 0.18886094, 0.66267884, -0.089726605, 0.7191308, -0.35038394, 1.6817162, -1.4885216, 0
721, 3605083888, 0.19033146, 0.66279733, -0.08937337, 0.7186778, -1.3428131, 1.9288923, 1.9371424, 0
722, 3605100555, 0.19197258, 0.66264904, -0.08925475, 0.71839255, -0.48453987, 0.5733465, -0.8975506, 0
723, 3605117222, 0.19391638, 0.6623034, -0.0893449, 0.7181781, -0.76969004, 0.10418715, -1.8414826, 0
724, 3605133889, 0.19589996, 0.66204315, -0.08945771, 0.7178657, -2.5080268, 1.0411601, 0.018422127, 0
725, 3605150556, 0.19771661, 0.6620375, -0.089385286, 0.7173818, -2.4511302, 1.0903497, -0.5603695, 0
726, 3605167223, 0.19934744, 0.6620814, -0.08943213, 0.7168839, -1.348848, 0.9792488, -0.47309494, 0
727, 3605183890, 0.20102589, 0.66196, -0.090205014, 0.7164302, -1.4237524, 1.3602974, 1.4347506, 0
728, 3605200557, 0.20257129, 0.661761, -0.09153648, 0.71600974, -1.7414383, 1.8544321, 1.9977617, 0
729, 3605217224, 0.20389692, 0.6613985, -0.09289997, 0.71579295, 0.15153572, 1.5697168, -0.7635622, 0
730, 3605233891, 0.20509629, 0.6610315, -0.09416458, 0.71562403, -1.7832748, 1.80641, -0.13134575, 0
731, 3605250558, 0.20620207, 0.66085905, -0.09572744, 0.71525794, -1.8092574, 1.9397389, -1.5140686, 0
732, 3605267225, 0.20745839, 0.6605373, -0.098096654, 0.7148708, -1.3829496, 2.1849282, -0.5890999, 0
733, 3605283892, 0.20872812, 0.6599537, -0.100845195, 0.71465766, -1.1326932, 1.596345, 1.1017036, 0
734, 3605300559, 0.20992672, 0.6594834, -0.103363514, 0.714381, -1.8898133, 0.8519996, -0.4492321, 0
735, 3605317226, 0.21122319, 0.6591704, -0.10559777, 0.7139608, -2.128991, 0.05287477, -2.5820804, 0
736, 3605333893, 0.21285008, 0.6590636, -0.10821568, 0.71318376, -1.8512231, 1.291824, -0.9789696, 0
737, 3605350560, 0.2148052, 0.65851706, -0.11091149, 0.7126882, -0.7462548, 1.6384954, 4.3228292, 0
738, 3605367227, 0.2164616, 0.65771496, -0.11364472, 0.71249694, 1.4190066, 3.8823593, -0.33184242, 0
739, 3605383894, 0.21746786, 0.65675783, -0.11685388, 0.71255445, 0.4304408, 4.6781716, -0.5563965, 0
740, 3605400561, 0.21812075, 0.6560315, -0.120227225, 0.7124629, -2.4215024, 0.10110644, -0.10486221, 0
741, 3605417228, 0.21905804, 0.6556053, -0.1234676, 0.71201324, 0.5222778, -1.5305874, -2.6893835, 0
742, 3605433895, 0.22023372, 0.6551528, -0.12654532, 0.71152645, -0.19106117, 0.6881443, 1.6265278, 0
743, 3605450562, 0.22114833, 0.6544518, -0.1295717, 0.7113433, 0.7522423, 2.0858104, 0.58823586, 0
744, 3605467229, 0.2217714, 0.6535988, -0.13232425, 0.7114268, 0.662104, 0.46645278, 0.72282124, 0
745, 3605483896, 0.22224072, 0.6528406, -0.13503218, 0.7114677, 0.1055706, 0.88755697, -0.8867073, 0
746, 3605500563, 0.22252913, 0.6520227, -0.13840061, 0.7114803, -0.6481676, 1.7762274, -1.7166538, 0
747, 3605517230, 0.22270586, 0.65099365, -0.14169168, 0.71171945, 0.10331753, -0.33198833, -0.40958118, 0
748, 3605533897, 0.22281685, 0.6501097, -0.14382133, 0.7120654, 0.4779856, -2.791372, 0.74287987, 0
749, 3605550564, 0.22302878, 0.64957845, -0.14521809, 0.7122003, 0.43609843, -0.38308036, 1.4514551, 0
750, 3605567231, 0.22288251, 0.64895684, -0.1472419, 0.7123974, 0.010533369, 2.508546, 1.9168377, 0
751, 3605583898, 0.22245066, 0.648178, -0.14984062, 0.7126995, 1.0085372, -0.4885068, -0.7975912, 0
752, 3605600565, 0.22191353, 0.647503, -0.15161532, 0.713105, 0.7345551, -2.4522295, -0.14338875, 0
753, 3605617232, 0.2212219, 0.6469894, -0.15246555, 0.7136046, 0.48923624, 0.46510693, -1.0917788, 0
754, 3605633899, 0.2203805, 0.6463811, -0.1537459, 0.7141414, 0.01757577, 1.69704, -1.8952866, 0
755, 3605650566, 0.219655, 0.64568686, -0.15530583, 0.7146552, 0.15013716, -1.017043, 1.745717, 0
756, 3605667233, 0.21904406, 0.64539826, -0.15607592, 0.7149354, -0.7561487, -1.0337642, 0.88473034, 0
757, 3605683900, 0.21845368, 0.6453395, -0.15671016, 0.71503043, 0.74965477, 1.4887203, -1.7660675, 0
758, 3605700567, 0.21791197, 0.6450462, -0.15790218, 0.7151983, 0.23729113, 1.6282595, 1.4619894, 0
759, 3605717234, 0.21757224, 0.6443728, -0.15921696, 0.715617, 0.21631677, -1.001997, 1.7028627, 0
760, 3605733901, 0.21727288, 0.6436732, -0.16015738, 0.71612763, 0.51878446, 0.30527535, -0.46436977, 0
761, 3605750568, 0.21666017, 0.64312595, -0.16114889, 0.71658224, -0.628783, 2.1482296, -0.5634146, 0
762, 3605767235, 0.21594882, 0.6425855, -0.1625712, 0.7169605, 0.39570042, -0.10720442, -2.5332437, 0
763, 3605783902, 0.21548805, 0.64213663, -0.16399968, 0.71717584, -0.36531436, -0.28550372, -0.46362305, 0
764, 3605800569, 0.21505845, 0.64177513, -0.16462995, 0.71748394, -0.87885493, 0.44776675, 0.45440292, 0
765, 3605817236, 0.21455875, 0.64142776, -0.16473547, 0.7179199, -0.045993034, 1.3176959, -0.586051, 0
766, 3605833903, 0.21412404, 0.6409728, -0.16530111, 0.7183259, -0.87492955, 1.023865, 0.23593235, 0
767, 3605850570, 0.21374744, 0.64079636, -0.16608816, 0.71841395, -2.4740343, -0.7345487, 1.6869755, 0
768, 3605867237, 0.21346736, 0.6410381, -0.16649231, 0.718188, -1.27959, -1.4783292, 0.10595131, 0
769, 3605883904, 0.21326913, 0.6412608, -0.16628097, 0.71809685, 0.63036215, -0.6247429, -0.20526314, 0
770, 3605900571, 0.21311483, 0.6413647, -0.1658859, 0.71814144, 0.23992984, -0.672631, 2.2001123, 0
771, 3605917238, 0.21272048, 0.641442, -0.16587311, 0.7181921, -0.28692704, -0.4743119, 0.16331196, 0
772, 3605933905, 0.21167953, 0.64148486, -0.16647656, 0.7183218, 0.717029, 0.9762352, -1.534009, 0
773, 3605950572, 0.2100953, 0.6415655, -0.16744082, 0.7184911, -0.29215738, -0.44088942, 0.88038254, 0
774, 3605967239, 0.2085233, 0.641867, -0.16795084, 0.7185604, 0.09895846, -1.9145715, -0.6867199, 0
775, 3605983906, 0.20727135, 0.6420722, -0.16825223, 0.7186687, 1.3460035, -0.622568, 0.10063934, 0
776, 3606000573, 0.20629352, 0.6421087, -0.16834666, 0.7188953, 0.50515664, -1.3743868, 0.31557083, 0
777, 3606017240, 0.20543323, 0.6422808, -0.16753411, 0.71917784, 0.74333644, -1.1235216, -0.5235672, 0
778, 3606033907, 0.20447014, 0.64250433, -0.16675325, 0.71943396, -1.3108152, 1.7540114, 2.2547197, 0
779, 3606050574, 0.2032686, 0.6427794, -0.16650704, 0.7195857, -0.4884614, 0.5418067, -2.148274, 0
780, 3606067241, 0.20225379, 0.6431241, -0.16593307, 0.7196963, 0.67926, -1.7858058, 0.15960598, 0
781, 3606083908, 0.20157784, 0.6434868, -0.16476867, 0.7198292, -1.0840069, -1.0113527, 1.0744877, 0
782, 3606100575, 0.20102398, 0.6441283, -0.16327363, 0.7197511, 0.12737125, 0.49848485, -3.029182, 0
783, 3606117242, 0.20064962, 0.64473325, -0.16186994, 0.7196309, -1.4902307, 0.25633985, 0.859787, 0
784, 3606133909, 0.20029843, 0.64556384, -0.16072537, 0.71924055, -0.897769, 0.29442316, 0.79971313, 0
785, 3606150576, 0.1997862, 0.64631987, -0.15944475, 0.71898896, 0.49457902, 0.65957296, -1.9130826, 0
786, 3606167243, 0.19935916, 0.6469805, -0.15812866, 0.71880394, 0.423241, -0.09640033, 1.3984718, 0
787, 3606183910, 0.1992471, 0.64727646, -0.15688287, 0.7188417, 0.845101, 0.28838834, 1.8675451, 0
788, 3606200577, 0.199311, 0.6474784, -0.1557209, 0.7188947, 0.16210566, 0.10507062, -0.6261921, 0
789, 3606217244, 0.19936182, 0.64794, -0.1546282, 0.7187006, -0.75130075, 0.8047293, 1.79772, 0
790, 3606233911, 0.1993934, 0.6483986, -0.1538291, 0.7184497, -1.1095425, 1.5966114, -1.39289, 0
791, 3606250578, 0.19931863, 0.64881194, -0.15346588, 0.71817505, -0.6157718, 0.9154163, -0.4870882, 0
792, 3606267245, 0.19930635, 0.64891833, -0.15318759, 0.71814144, -1.3801368, -0.53993267, 0.4820385, 0
793, 3606283912, 0.19939359, 0.6490004, -0.15244788, 0.7182006, -0.087831676, -0.46783406, -0.26672745, 0
794, 3606300579, 0.19967797, 0.6488937, -0.1514707, 0.7184247, -0.91716385, 1.6199421, 0.3894043, 0
795, 3606317246, 0.19999287, 0.6487989, -0.15096802, 0.7185285, -1.3688643, 2.1240616, 1.7830048, 0
796, 3606333913, 0.20048119, 0.6486427, -0.15041853, 0.7186487, -1.3192146, -0.32090706, 0.9153385, 0
797, 3606350580, 0.20095095, 0.64893496, -0.1492965, 0.71848756, -3.6759927, -1.975526, -1.6090698, 0
798, 3606367247, 0.20129277, 0.6496974, -0.1478697, 0.71799767, -3.0608082, -1.779289, -3.9385462, 0
799, 3606383914, 0.20151599, 0.6503774, -0.14671947, 0.71755534, -2.6374338, -0.8422896, 1.3052673, 0
800, 3606400581, 0.20141877, 0.6507225, -0.14626493, 0.71736264, -1.3863883, 0.25680643, 2.507038, 0
801, 3606417248, 0.20096312, 0.65051174, -0.14601547, 0.7177323, 0.7773845, -0.27418014, 0.87061024, 0
802, 3606433915, 0.20013358, 0.65026486, -0.14520049, 0.71835274, -0.07621886, -1.6203022, 2.266101, 0
803, 3606450582, 0.19928439, 0.65041834, -0.14390936, 0.7187096, -1.1063683, -2.4872339, -2.169445, 0
804, 3606467249, 0.19862746, 0.650839, -0.14270975, 0.7187498, -0.72600883, -2.5646894, -5.25623, 0
805, 3606483916, 0.19787614, 0.6515595, -0.14181855, 0.71848065, -2.8104882, -1.417791, 0.58092403, 0
806, 3606500583, 0.19670922, 0.65252477, -0.14110494, 0.71806544, -2.8196824, 0.30323082, 2.3641663, 0
807, 3606517250, 0.19511563, 0.6531823, -0.14018483, 0.7180827, 2.4336834, -0.5190742, -0.8131056, 0
808, 3606533917, 0.19382901, 0.6534371, -0.13861744, 0.7185035, 3.135123, -1.4842371, -1.638896, 0
809, 3606550584, 0.1928684, 0.6538544, -0.13674887, 0.71874046, -0.58993363, 0.106975414, -0.02645874, 0
810, 3606567251, 0.19176576, 0.65492886, -0.13518561, 0.71835274, -3.2517588, -0.61854523, -1.1432161, 0
811, 3606583918, 0.19041716, 0.65657216, -0.13381669, 0.71746707, -2.5107167, -0.84460866, -3.200603, 0
812, 3606600585, 0.18878533, 0.6585171, -0.132373, 0.71638274, -4.5970683, -2.1357453, -0.8980799, 0
813, 3606617252, 0.18743962, 0.660409, -0.13110049, 0.7152279, -1.5023413, -3.046807, -1.2972584, 0
814, 3606633919, 0.18671703, 0.6616698, -0.13016754, 0.71442145, 0.929513, -0.046431184, 0.7612591, 0
815, 3606650586, 0.18627807, 0.6623648, -0.12928693, 0.7140518, 1.366394, 3.27567, 5.0126505, 0
816, 3606667253, 0.18602538, 0.6630147, -0.12792502, 0.7137598, 3.0218992, 4.8177757, 4.4596252, 0
817, 3606683920, 0.18609399, 0.6635854, -0.12617767, 0.7135225, 4.8381786, 4.574643, 1.8221436, 0
818, 3606700587, 0.18681906, 0.663976, -0.124131285, 0.71332866, 6.246042, 1.1019069, 2.0198498, 0
819, 3606717254, 0.18862408, 0.66446155, -0.121662214, 0.71282685, 4.5868287, -0.9107135, 1.384119, 0
820, 3606733921, 0.19094, 0.66511047, -0.11920364, 0.71201974, 3.7931225, 1.6455848, -1.841372, 0
821, 3606750588, 0.19309665, 0.6656202, -0.11710683, 0.71130943, 1.9752719, 2.2340603, 0.77493286, 0
822, 3606767255, 0.1949301, 0.66607374, -0.11559215, 0.7106324, 1.7029401, 2.3963656, 0.78708553, 0
823, 3606783922, 0.19652423, 0.66615784, -0.11450842, 0.7102897, 2.9102802, 2.4186287, 1.7986498, 0
824, 3606800589, 0.19804987, 0.6660618, -0.113602154, 0.7101015, 1.503072, 1.4746841, 0.8983011, 0
825, 3606817256, 0.19961597, 0.666054, -0.11310926, 0.7097488, 1.5508615, 2.3845055, -0.88392353, 0
826, 3606833923, 0.20134443, 0.66579306, -0.11338742, 0.7094611, 0.67696726, 3.380482, 0.38041306, 0
827, 3606850590, 0.20300236, 0.6656906, -0.11500575, 0.7088241, 1.3819779, 4.178368, -0.891016, 0
828, 3606867257, 0.20440957, 0.6652315, -0.11771436, 0.70840585, 2.80039, 3.684649, 0.33049107, 0
829, 3606883924, 0.20554447, 0.6644722, -0.12110092, 0.70821923, 2.9869852, 3.769028, 1.0971918, 0
830, 3606900591, 0.20658511, 0.6635399, -0.12489328, 0.708132, 2.8826375, 3.1675649, -0.06214142, 0
831, 3606917258, 0.20792015, 0.66255647, -0.12858936, 0.70800054, 2.598426, 2.3848584, -1.6207333, 0
832, 3606933925, 0.2096192, 0.6619083, -0.13221796, 0.7074371, 0.08817762, 2.266355, 1.0229063, 0
833, 3606950592, 0.21146302, 0.6615617, -0.13605249, 0.706485, 0.75172937, 2.6830258, -3.0244055, 0
834, 3606967259, 0.21323371, 0.6610067, -0.1400091, 0.70569855, 1.3453696, 2.2715917, -1.6303139, 0
835, 3606983926, 0.2147177, 0.6602213, -0.1439678, 0.7051875, -0.55537826, 2.3932533, 3.6530867, 0
836, 3607000593, 0.21573429, 0.659353, -0.14819114, 0.70481443, -0.31514427, 1.0509931, -0.1474495, 0
837, 3607017260, 0.21661423, 0.6583189, -0.15233847, 0.7046271, 0.20094597, -0.41649288, -1.3674126, 0
838, 3607033927, 0.21750973, 0.65729296, -0.15614071, 0.70447654, -1.1744357, 0.25109726, 1.6571169, 0
839, 3607050594, 0.21824008, 0.6563722, -0.15946856, 0.70436376, -0.689373, 0.023578675, -0.22740841, 0
840, 3607067261, 0.21881744, 0.6555862, -0.16278459, 0.70415795, -2.159076, 0.8627522, 0.17813873, 0
841, 3607083928, 0.21914104, 0.6547357, -0.16638112, 0.70400834, -1.4173249, 0.55750626, -0.77961063, 0
842, 3607100595, 0.21909878, 0.6537187, -0.16998337, 0.70410573, -1.1548767, -0.7704683, -1.1888762, 0
843, 3607117262, 0.21876687, 0.65263706, -0.17333663, 0.704395, -1.2013009, -1.2257991, 0.45402813, 0
844, 3607133929, 0.21826607, 0.6516443, -0.17643046, 0.7047011, -1.4857479, -0.07613513, 0.5884619, 0
845, 3607150596, 0.21763018, 0.6507907, -0.1792718, 0.70496947, -0.62951326, -0.20063719, -1.1581249, 0
846, 3607167263, 0.21711497, 0.65002084, -0.18163249, 0.7052342, 0.76505405, -0.5783785, 0.35456085, 0
847, 3607183930, 0.21678682, 0.64924055, -0.1831123, 0.7056712, 0.66719407, -0.37567866, 2.3129969, 0
848, 3607200597, 0.21649443, 0.64858055, -0.18392853, 0.7061555, 1.0071619, 0.15841678, -1.8605733, 0
849, 3607217264, 0.21625708, 0.64809144, -0.18450382, 0.7065272, -0.69013435, -0.8210888, 0.17705154, 0
850, 3607233931, 0.21597807, 0.64785874, -0.18471241, 0.7067714, -0.48749423, -1.2905184, -0.15335369, 0
851, 3607250598, 0.2156731, 0.6479224, -0.18459526, 0.7068366, -0.3674665, -1.4576644, 0.51488686, 0
852, 3607267265, 0.21528572, 0.64812386, -0.1840282, 0.7069178, 0.45301074, -0.7400154, -0.25595093, 0
853, 3607283932, 0.21481945, 0.6482735, -0.18339372, 0.7070874, 0.99787235, -0.05879428, 1.200572, 0
854, 3607300599, 0.21433812, 0.6483347, -0.18276522, 0.7073402, 0.43300527, -0.3486017, -0.5281925, 0
855, 3607317266, 0.21371159, 0.64842963, -0.18196452, 0.707649, 1.0289724, -0.16412412, -0.883461, 0
856, 3607333933, 0.21302259, 0.64861435, -0.18113193, 0.707901, -0.063412964, -1.4575925, 0.22991848, 0
857, 3607350600, 0.21240422, 0.64874476, -0.18033718, 0.7081701, 0.8922795, -0.9614166, 1.1464453, 0
858, 3607367267, 0.2116655, 0.64881736, -0.1797533, 0.70847315, 0.086498395, -0.60001254, 0.04191971, 0
859, 3607383934, 0.21075514, 0.64895695, -0.17916991, 0.70876455, 0.6846684, -0.15933359, 0.4488678, 0
860, 3607400601, 0.20969778, 0.64904636, -0.17843062, 0.70918256, 0.24201562, -0.79498416, -0.9595318, 0
861, 3607417268, 0.20861533, 0.64929557, -0.17769621, 0.7094581, 0.17149673, 0.19177295, 0.74258804, 0
862, 3607433935, 0.20766826, 0.6495797, -0.17707103, 0.70963216, 0.20426963, 0.5718307, 0.037456512, 0
863, 3607450602, 0.20693755, 0.6498022, -0.17607023, 0.7098909, 1.0968997, 0.38312495, -1.9604454, 0
864, 3607467269, 0.2065287, 0.6500203, -0.17449166, 0.7101998, 1.3370246, -0.38593274, 0.32034683, 0
865, 3607483936, 0.20645341, 0.6502809, -0.17263995, 0.7104356, 0.45005545, -0.23505676, 0.40528584, 0
866, 3607500603, 0.20665467, 0.6504335, -0.17099194, 0.710636, 0.66852814, 1.1139361, -1.4036961, 0
867, 3607517270, 0.20684987, 0.65078133, -0.16948475, 0.7106218, -0.9698938, -0.13816322, 1.5844994, 0
868, 3607533937, 0.20706595, 0.65156364, -0.16775621, 0.71025205, -1.4229399, -0.06866649, 1.4483624, 0
869, 3607550604, 0.2072463, 0.65237194, -0.16632345, 0.70979434, -0.27412227, 1.7747394, -1.5732107, 0
870, 3607567271, 0.20740993, 0.65295166, -0.16553162, 0.70939857, -0.07062531, 0.8507914, 0.5646982, 0
871, 3607583938, 0.20771097, 0.65323716, -0.1648351, 0.70920974, 0.66356134, -0.42708263, 1.7429504, 0
872, 3607600605, 0.20806888, 0.653382, -0.16384016, 0.70920205, 0.19290522, 0.3327233, -0.03450203, 0
873, 3607617272, 0.20835236, 0.6535299, -0.16334468, 0.7090969, -0.9214233, 2.176084, -0.76269245, 0
874, 3607633939, 0.20867227, 0.6536842, -0.16354519, 0.7088142, -0.90612936, 0.938639, -1.7007952, 0
875, 3607650606, 0.20909828, 0.6538443, -0.1636986, 0.7085057, -1.2838997, 0.50218254, 0.9554167, 0
876, 3607667273, 0.20948365, 0.654014, -0.1636485, 0.70824665, 0.021777902, 1.1093491, -0.5438576, 0
877, 3607683940, 0.209911, 0.6539375, -0.16377208, 0.7081621, -0.12643969, 1.2392298, 1.2777853, 0
878, 3607700607, 0.21046653, 0.6538352, -0.1641389, 0.7080067, -0.62470806, 0.78024495, 0.99223137, 0
879, 3607717274, 0.21112743, 0.65387094, -0.16428497, 0.70774305, -0.2304222, 0.4214867, -1.6366453, 0
880, 3607733941, 0.21179807, 0.65409374, -0.16414736, 0.7073686, -0.7851746, 0.503292, 0.77037525, 0
881, 3607750608, 0.21262506, 0.654257, -0.16413933, 0.7069713, -0.49765617, 0.58800125, -0.78208447, 0
882, 3607767275, 0.21342498, 0.654235, -0.16413301, 0.70675194, -0.50076056, 0.29701766, -1.5075569, 0
883, 3607783942, 0.21408948, 0.65440166, -0.1640454, 0.70641696, -1.301524, -0.21261485, -0.13271427, 0
884, 3607800609, 0.21474259, 0.65459275, -0.16389373, 0.70607674, -0.82374233, 0.26697066, 0.024653435, 0
885, 3607817276, 0.21526198, 0.65475255, -0.16381529, 0.7057887, -0.7879593, 1.1573503, 2.4692678, 0
886, 3607833943, 0.21573323, 0.6547692, -0.16376632, 0.70564073, -0.27737874, 0.12946053, 1.323492, 0
887, 3607850610, 0.21622753, 0.6547966, -0.16352208, 0.7055206, -0.89194447, -0.32783625, -0.61240005, 0
888, 3607867277, 0.21659808, 0.65502733, -0.16312952, 0.70528364, -2.2223566, -0.56787544, -1.5656042, 0
889, 3607883944, 0.21707647, 0.6552734, -0.16278405, 0.70498765, -1.4906652, -0.36328757, -0.94276714, 0
890, 3607900611, 0.2176021, 0.65518594, -0.16259101, 0.7049515, -1.4198703, 0.7705516, 2.1056776, 0
891, 3607917278, 0.21791478, 0.6550328, -0.16226926, 0.7050713, -1.109162, -0.01678752, 0.45774746, 0
892, 3607933945, 0.21805318, 0.6550286, -0.16161707, 0.7051823, -1.6401465, -0.5609412, -0.11021042, 0
893, 3607950612, 0.21818632, 0.65527916, -0.16083418, 0.70508724, -4.2529187, -1.1672014, -1.3085213, 0
894, 3607967279, 0.21851322, 0.6558375, -0.159984, 0.70466024, -4.8720403, -1.5569277, -2.6025648, 0
895, 3607983946, 0.21899575, 0.65638393, -0.15901715, 0.70422053, -4.750322, -0.2261037, -0.5408983, 0
896, 3608000613, 0.21912774, 0.6570139, -0.15811336, 0.7037952, -5.3786135, -0.10838761, 1.6946726, 0
897, 3608017280, 0.21902667, 0.6573438, -0.15717384, 0.7037291, -0.3551906, -0.38756764, -2.4006405, 0
898, 3608033947, 0.21873824, 0.65729266, -0.15586992, 0.7041564, -2.0221522, -0.71033424, 4.981146, 0
899, 3608050614, 0.21842393, 0.65778995, -0.15429386, 0.7041368, -4.6143208, -2.2539992, 1.8786974, 0
900, 3608067281, 0.21831314, 0.65888286, -0.15257144, 0.7035243, -1.998454, -2.3504739, -7.510466, 0
901, 3608083948, 0.21837656, 0.66002995, -0.15058014, 0.70285815, -3.5755758, -2.3091977, -2.445674, 0
902, 3608100615, 0.21838985, 0.6612369, -0.14833961, 0.70219564, -4.252184, -1.2919835, 4.760168, 0
903, 3608117282, 0.21820894, 0.6621957, -0.14605442, 0.70182735, 1.1280177, 0.23318776, -0.7535591, 0
904, 3608133949, 0.2176814, 0.66289246, -0.14405364, 0.70174676, 3.0468457, 1.2639565, 1.0727348, 0
905, 3608150616, 0.21690096, 0.6636289, -0.14236128, 0.7016379, 2.2589555, -0.46845013, -1.9203382, 0
906, 3608167283, 0.2163331, 0.66437304, -0.14084004, 0.70141596, 3.223256, -1.2788441, -3.202343, 0
907, 3608183950, 0.21564132, 0.66486317, -0.14000016, 0.70133257, 0.62184215, 0.46851975, -0.9689522, 0
908, 3608200617, 0.21461183, 0.6656309, -0.14025576, 0.7008691, -1.162773, 0.13568427, 0.56654835, 0
909, 3608217284, 0.21336855, 0.66667783, -0.14141795, 0.7000198, -0.43143776, -0.09124114, -0.998436, 0
910, 3608233951, 0.21228394, 0.6675824, -0.14354786, 0.699053, 1.0043335, 3.2217095, 3.4289255, 0
911, 3608250618, 0.21150985, 0.6680364, -0.14632344, 0.69827807, 2.4310968, 5.8913455, 2.9186792, 0
912, 3608267285, 0.21127145, 0.6679374, -0.14861622, 0.69796073, 6.129642, 4.9093394, 2.488927, 0
913, 3608283952, 0.21204157, 0.6675658, -0.14976981, 0.697836, 4.7541356, 3.7082002, 4.9454584, 0
914, 3608300619, 0.21364383, 0.66738725, -0.15030599, 0.6974028, 5.642227, 3.4931893, 1.3006067, 0
915, 3608317286, 0.21593054, 0.6669439, -0.1506945, 0.69703865, 5.0486517, 1.9916323, -1.9090514, 0
916, 3608333953, 0.21831019, 0.66662663, -0.15114337, 0.69650346, 3.226576, 0.20178051, -2.4099717, 0
917, 3608350620, 0.22043008, 0.66626304, -0.15153947, 0.69609743, 3.2800522, 0.45129085, -0.48135757, 0
918, 3608367287, 0.2221279, 0.66590506, -0.15241311, 0.6957094, 1.4506373, 1.3413967, 1.6620417, 0
919, 3608383954, 0.22352271, 0.6657812, -0.15365823, 0.6951072, 2.2070076, 1.0500348, 1.7887402, 0
920, 3608400621, 0.2248854, 0.6656498, -0.15455414, 0.69459456, 2.5080776, 0.90001744, 1.2713614, 0
921, 3608417288, 0.22630548, 0.66566163, -0.1551654, 0.69398534, 1.972072, 0.8515641, -0.03517723, 0
922, 3608433955, 0.22781993, 0.66592306, -0.15549494, 0.69316506, 0.9634402, 1.0717635, -0.45579147, 0
923, 3608450622, 0.22919896, 0.66641724, -0.15621993, 0.69207144, 0.2945063, 1.72573, 0.6985998, 0
924, 3608467289, 0.23054934, 0.6667479, -0.15744203, 0.6910269, 2.1315835, 0.6375166, -3.795167, 0
925, 3608483956, 0.23170252, 0.6669118, -0.15843488, 0.69025576, 2.0866857, 0.9386505, 1.9475756, 0
926, 3608500623, 0.23286271, 0.66697454, -0.15948518, 0.68956244, 1.9528747, 1.5537934, 2.1068697, 0
927, 3608517290, 0.23407122, 0.6668436, -0.16097772, 0.68893266, 3.6189072, 2.2816055, -0.40310478, 0
928, 3608533957, 0.23538205, 0.6665182, -0.1624335, 0.68845916, 1.9597642, 0.9047024, -0.49980354, 0
929, 3608550624, 0.23669079, 0.66633564, -0.16393398, 0.68783116, 2.3203652, 1.4334695, 0.46751976, 0
930, 3608567291, 0.23798347, 0.6659653, -0.1659573, 0.68725824, 1.3411342, 2.950612, 0.9063921, 0
931, 3608583958, 0.23916136, 0.6652832, -0.16883264, 0.6868094, 1.7646016, 2.8899498, -3.1245084, 0
932, 3608600625, 0.24018708, 0.66421366, -0.17226072, 0.6866356, 1.6403414, 1.3431841, 0.41719723, 0
933, 3608617292, 0.24115807, 0.6631098, -0.17566876, 0.6864985, -0.5867579, 1.3041962, 0.54757214, 0
934, 3608633959, 0.24200156, 0.66223896, -0.1792, 0.6861297, 0.17852093, 2.014295, -1.6928129, 0
935, 3608650626, 0.24295354, 0.66125244, -0.18273523, 0.6858123, -1.2273626, 2.2036257, -0.6363001, 0
936, 3608667293, 0.24398187, 0.66051114, -0.18626882, 0.6852107, -0.84976196, 1.3107626, 1.2004557, 0
937, 3608683960, 0.24522716, 0.6595878, -0.1893014, 0.68482435, 0.19235453, 0.81658345, 0.7377548, 0
938, 3608700627, 0.24641609, 0.6586512, -0.19199565, 0.68454885, -0.12308061, 1.1777792, 1.5080252, 0
939, 3608717294, 0.24742809, 0.6577455, -0.19453134, 0.68433887, -0.47029048, 0.73670304, -0.40017223, 0
940, 3608733961, 0.24821287, 0.6569351, -0.19713786, 0.6840872, -0.6102995, 0.2040224, 0.91935253, 0
941, 3608750628, 0.24883671, 0.6562506, -0.19966954, 0.6837832, -1.005157, -0.16154277, 0.13703823, 0
942, 3608767295, 0.24944136, 0.6556004, -0.20181707, 0.6835559, 0.46252593, -1.1072928, -1.7168474, 0
943, 3608783962, 0.2500047, 0.65499455, -0.20330323, 0.68349046, 0.27140832, -0.41421032, 0.7389412, 0
944, 3608800629, 0.25049782, 0.654265, -0.20456964, 0.683631, 1.3005785, -0.15120903, -0.9294319, 0
945, 3608817296, 0.25086787, 0.65331495, -0.20581804, 0.6840288, 1.7578281, 0.33382097, 0.09764385, 0
946, 3608833963, 0.2509868, 0.65246564, -0.20700437, 0.68443793, 0.22533673, -0.36066663, 0.9903679, 0
947, 3608850630, 0.25097024, 0.6517639, -0.20805112, 0.684795, 0.7366267, -0.7695078, 1.3531322, 0
948, 3608867297, 0.2509281, 0.6512256, -0.20917477, 0.6849803, 0.6492068, -0.2554244, -0.23351765, 0
949, 3608883964, 0.25080448, 0.65097857, -0.21024927, 0.6849314, 0.36085755, -0.5656599, 0.382452, 0
950, 3608900631, 0.25077292, 0.6510088, -0.21087879, 0.6847209, 0.38691422, -0.93704915, -0.25162506, 0
951, 3608917298, 0.25064844, 0.6513113, -0.21120453, 0.684378, 0.61626923, 0.6601966, 0.50234413, 0
952, 3608933965, 0.25034076, 0.65163434, -0.21152404, 0.68408424, 1.0190598, 0.10964234, -0.43284702, 0
953, 3608950632, 0.25004977, 0.6517728, -0.21178894, 0.68397695, 1.5098753, -1.0412847, -0.93182945, 0
954, 3608967299, 0.24970111, 0.65195787, -0.21190636, 0.68389153, 0.11731227, -0.88697463, 0.94891644, 0
955, 3608983966, 0.24936517, 0.65213615, -0.21197534, 0.6838229, 0.32749847, -0.5923475, -2.1668754, 0
956, 3609000633, 0.24907465, 0.65215945, -0.21221456, 0.6838324, -0.042380124, 0.27571458, -0.612957, 0
957, 3609017300, 0.24863571, 0.6522064, -0.21251953, 0.6838525, -0.6338932, 0.2761848, 2.3407536, 0
958, 3609033967, 0.24810049, 0.6523952, -0.2126904, 0.68381363, -0.026310708, 0.21848063, -1.0075073, 0
959, 3609050634, 0.2475626, 0.6525704, -0.21286367, 0.6837876, 0.08128795, 0.40620637, 0.8500347, 0
960, 3609067301, 0.24707153, 0.6526568, -0.2132412, 0.6837652, 0.43082425, -0.5168526, -0.43797493, 0
961, 3609083968, 0.24666163, 0.652562, -0.21344975, 0.6839384, 1.5133116, -0.8254423, -0.17951965, 0
962, 3609100635, 0.2462247, 0.6525298, -0.2135594, 0.6840924, -0.008008618, -0.085379794, 2.2922287, 0
963, 3609117302, 0.24584591, 0.65270907, -0.2139943, 0.68392175, -0.24614498, 1.2632035, -1.8304071, 0
964, 3609133969, 0.24546428, 0.65308577, -0.21449715, 0.68354154, -0.09491882, 1.0455502, -0.5721512, 0
965, 3609150636, 0.24518058, 0.6536435, -0.21474692, 0.6830316, -0.0019285368, 0.17002489, 2.1679611, 0
966, 3609167303, 0.2450393, 0.6541929, -0.21477383, 0.6825476, 1.7061487, 0.6458012, -0.4327736, 0
967, 3609183970, 0.24513566, 0.6544417, -0.21477148, 0.6822753, 1.5222405, 0.77321154, 0.51709175, 0
968, 3609200637, 0.24548036, 0.6545129, -0.21467572, 0.6821131, 1.6972929, -0.07030444, -0.015476227, 0
969, 3609217304, 0.24606751, 0.65445095, -0.21431243, 0.6820752, 1.867278, 0.018006874, -0.9719877, 0
970, 3609233971, 0.24670433, 0.6544563, -0.21391004, 0.68196654, 0.43125153, 0.767411, 1.4701071, 0
971, 3609250638, 0.24735756, 0.65447783, -0.21372531, 0.6817669, 1.3374153, 0.9379499, 0.14565182, 0
972, 3609267305, 0.24797426, 0.6544812, -0.21383801, 0.68150425, 0.7833701, 0.6944447, 1.1482925, 0
973, 3609283972, 0.2484202, 0.6547416, -0.21383932, 0.68109125, 0.25881907, -0.2734377, 0.32207966, 0
974, 3609300639, 0.2488129, 0.65506756, -0.21380326, 0.68064564, 1.1602485, 0.47126403, -3.8470464, 0
975, 3609317306, 0.24932016, 0.65504324, -0.21416919, 0.6803682, 1.2932531, 0.72007114, 0.50803185, 0
976, 3609333973, 0.24991377, 0.6546816, -0.21479526, 0.68030125, 0.2561133, 0.26698902, 1.061162, 0
977, 3609350640, 0.25043863, 0.6542416, -0.21531345, 0.68036765, 1.0720472, 0.0389727, -2.3693419, 0
978, 3609367307, 0.25074932, 0.6538657, -0.21576738, 0.68047106, -0.5587803, 0.5351197, 3.4345627, 0
979, 3609383974, 0.25079107, 0.6537507, -0.21654642, 0.6803185, -1.1540279, 0.83232945, 1.4823971, 0
980, 3609400641, 0.25082457, 0.65373975, -0.21760814, 0.6799779, 0.11393401, 0.12734084, -2.0654955, 0
981, 3609417308, 0.2509147, 0.6539228, -0.21853869, 0.67946994, -0.6025241, -0.34401953, 0.13794231, 0
982, 3609433975, 0.25123137, 0.6540446, -0.21905719, 0.6790685, 0.5061888, -0.09788257, -1.5548172, 0
983, 3609450642, 0.25166762, 0.6537923, -0.21942186, 0.67903227, 1.1916165, 0.51425815, -1.2103195, 0
984, 3609467309, 0.25204706, 0.6531269, -0.21991692, 0.6793715, 0.97782636, -0.040971965, 1.7676554, 0
985, 3609483976, 0.25214222, 0.65234476, -0.22035463, 0.6799457, 0.05288378, -0.73869365, 2.689536, 0
986, 3609500643, 0.25198635, 0.65164405, -0.22056468, 0.68060696, 0.032258157, 0.09074946, 0.66206837, 0
987, 3609517310, 0.25150764, 0.65119815, -0.22114342, 0.68102294, -2.1708531, 0.7807785, -0.11732197, 0
988, 3609533977, 0.25098848, 0.6513533, -0.22196648, 0.6807981, -4.5574503, -1.4189056, -3.460802, 0
989, 3609550644, 0.25072628, 0.65188587, -0.22238402, 0.6802487, -2.2815096, -1.9875027, -3.2023416, 0
990, 3609567311, 0.2506446, 0.65200025, -0.22227891, 0.6802035, -1.6146418, 0.025237964, 4.719281, 0
991, 3609583978, 0.25035155, 0.6517564, -0.2222996, 0.68053836, -0.10993279, 1.3420056, 0.8685417, 0
992, 3609600645, 0.24979486, 0.65096825, -0.22253434, 0.68141985, -0.051439773, 0.21927117, 0.899271, 0
993, 3609617312, 0.24893759, 0.6504571, -0.22242846, 0.68225574, -4.4983463, -2.3879411, -1.1189947, 0
994, 3609633979, 0.24806768, 0.6506282, -0.22164056, 0.6826657, -4.659256, -2.3727741, -5.4460945, 0
995, 3609650646, 0.24730214, 0.6511511, -0.22092319, 0.6826775, -8.057458, 0.16246593, 1.5463428, 0
996, 3609667313, 0.24649589, 0.6516605, -0.22042163, 0.68264526, -3.9213228, -0.31609458, -3.7453194, 0
997, 3609683980, 0.2456995, 0.6518337, -0.21944445, 0.6830815, -1.131953, -1.0244448, 1.412137, 0
998, 3609700647, 0.24492528, 0.651819, -0.21773207, 0.68392104, -3.2347798, -0.7419169, 6.520405, 0
999, 3609717314, 0.2442446, 0.6517514, -0.21565704, 0.6848857, 0.24101453, -0.6429906, 0.011739731, 0
1000, 3609733981, 0.24394979, 0.65183455, -0.21334176, 0.6856362, -3.8219044, -2.2782743, -0.21062088, 0
1001, 3609750648, 0.2437611, 0.6530073, -0.2107886, 0.68537724, -5.030274, -2.196975, -6.447055, 0
1002, 3609767315, 0.24343632, 0.6546283, -0.20818076, 0.6847431, -4.550114, -0.9831767, -4.1521444, 0
1003, 3609783982, 0.24310987, 0.6560655, -0.20571366, 0.68422896, -2.2170186, -0.33406144, -6.3607855, 0
1004, 3609800649, 0.24286832, 0.6572095, -0.2032105, 0.6839649, 1.2282021, 0.7976947, 4.529849, 0
1005, 3609817316, 0.24274354, 0.65858126, -0.2010957, 0.68331444, 1.624071, 4.5776334, 7.351362, 0
1006, 3609833983, 0.24244066, 0.6597694, -0.20011698, 0.68256277, 9.237327, 4.6902256, -5.162215, 0
1007, 3609850650, 0.24228339, 0.65994954, -0.20020509, 0.68241847, 5.730958, -0.4192236, -3.7901168, 0
1008, 3609867317, 0.24246387, 0.6594883, -0.20124374, 0.6824947, 3.70897, -3.7644901, -2.9892673, 0
1009, 3609883984, 0.24302353, 0.6580072, -0.20354323, 0.6830433, 3.2811005, 1.0119095, -0.5993118, 0
1010, 3609900651, 0.24348925, 0.6563574, -0.20707515, 0.68340296, -0.3852251, 6.1962366, 11.007776, 0
1011, 3609917318, 0.24315111, 0.6561486, -0.21089348, 0.6825556, 0.21576498, 7.5323033, 11.406427, 0
1012, 3609933985, 0.24271446, 0.65614146, -0.21371378, 0.6818401, 7.0822306, 4.761414, -4.8755403, 0
1013, 3609950652, 0.24339114, 0.6556611, -0.21513999, 0.6816126, 5.5055857, -1.1771979, 1.3235569, 0
1014, 3609967319, 0.24523595, 0.65515244, -0.2163899, 0.68104464, 1.9797969, -3.1896894, -0.29911423, 0
1015, 3609983986, 0.24724412, 0.6543878, -0.21826436, 0.6804552, 2.3566735, -1.8210394, -5.8933153, 0
1016, 3610000653, 0.24857771, 0.6532713, -0.22026056, 0.68039894, 0.03742958, -0.9884112, 1.7132912, 0
1017, 3610017320, 0.24866344, 0.65286106, -0.2221624, 0.68014294, -1.2695023, 0.6523749, 9.139442, 0
1018, 3610033987, 0.2480622, 0.65234184, -0.22442217, 0.68011886, 3.268556, 1.8731807, -5.051731, 0
1019, 3610050654, 0.24746178, 0.65157866, -0.22647524, 0.68038857, 1.4676441, -2.2756848, 0.37238407, 0
1020, 3610067321, 0.24722779, 0.65180725, -0.22723529, 0.6800012, -1.7540787, -3.4932466, 1.6445541, 0
1021, 3610083988, 0.24732763, 0.6525134, -0.22698203, 0.6793718, 2.147095, 0.050176155, -6.1293087, 0
1022, 3610100655, 0.2476796, 0.65296996, -0.2259814, 0.6791388, 2.1806362, -0.33001587, 2.2590704, 0
1023, 3610117322, 0.24805483, 0.6535257, -0.22431763, 0.6790187, 2.7608862, -1.8946943, 1.0721979, 0
1024, 3610133989, 0.2484017, 0.65397537, -0.22216067, 0.679168, 3.3030117, -1.5309981, 0.0024557114, 0
1025, 3610150656, 0.24862972, 0.6550715, -0.21993235, 0.6787533, -1.4114604, -1.655407, -1.2639027, 0
1026, 3610167323, 0.2489939, 0.65692973, -0.21763071, 0.67756474, 0.4987495, -1.5169227, -4.164204, 0
1027, 3610183990, 0.24964589, 0.65919614, -0.21495838, 0.6759748, -1.5092087, -0.6435314, -0.929019, 0
1028, 3610200657, 0.2502908, 0.6618573, -0.21233605, 0.6739618, 1.4187148, 0.41851526, 0.6499214, 0
1029, 3610217324, 0.25121126, 0.6631633, -0.20980859, 0.67312664, 5.505063, 1.100706, 3.039938, 0
1030, 3610233991, 0.2520127, 0.66340977, -0.20789763, 0.673177, 4.5139365, 1.2877795, 3.806532, 0
1031, 3610250658, 0.25247765, 0.6634005, -0.20655385, 0.67342556, 2.8449552, 0.564221, -3.191822, 0
1032, 3610267325, 0.25281206, 0.66367835, -0.20532674, 0.6734017, -0.49007666, -0.639591, -0.07975483, 0
1033, 3610283992, 0.25350553, 0.66448647, -0.20389712, 0.67277807, -0.9127146, 0.13710792, -0.3449583, 0
1034, 3610300659, 0.25480798, 0.6651811, -0.20284623, 0.67191684, 0.18286769, 2.0563276, -2.03577, 0
1035, 3610317326, 0.2564609, 0.6657475, -0.2021861, 0.6709251, 0.6520291, 2.319626, 1.2574825, 0
1036, 3610333993, 0.257979, 0.66605383, -0.20148692, 0.67024916, 1.5167161, 2.3873901, 3.1080751, 0
1037, 3610350660, 0.25935504, 0.66606426, -0.20101199, 0.66985023, 1.8526747, 1.7329049, 0.049767494, 0
1038, 3610367327, 0.26081917, 0.66611797, -0.20073164, 0.6693122, 0.4742313, 0.49002483, 0.5378561, 0
1039, 3610383994, 0.26265827, 0.6662138, -0.20040308, 0.66859573, 0.7964657, 0.94374835, -1.607192, 0
1040, 3610400661, 0.26470822, 0.666117, -0.20029867, 0.6679145, 0.9304966, 1.5709064, -0.49578, 0
1041, 3610417328, 0.2667282, 0.66597146, -0.20040275, 0.66722476, -0.48716593, 1.2022095, 1.193162, 0
1042, 3610433995, 0.26873285, 0.6657352, -0.2008166, 0.6665311, 0.7126023, 0.89240324, -0.7105465, 0
1043, 3610450662, 0.2706051, 0.6652028, -0.20152916, 0.6660901, 1.1454295, 1.305735, 0.03135872, 0
1044, 3610467329, 0.27234697, 0.6644487, -0.20262046, 0.6658016, 1.9989778, 1.0819598, -0.39424038, 0
1045, 3610483996, 0.2739358, 0.6636388, -0.2039586, 0.665549, 1.3060412, 1.3703475, 0.7763376, 0
1046, 3610500663, 0.27533197, 0.6629843, -0.2056507, 0.6651044, 1.0557725, 1.6836414, 0.798213, 0
1047, 3610517330, 0.2767231, 0.66233397, -0.20774409, 0.6645241, 1.4061372, 1.3527132, 0.3153782, 0
1048, 3610533997, 0.27804324, 0.661623, -0.21010639, 0.66393816, 1.8856653, 1.2457312, -1.553091, 0
1049, 3610550664, 0.2792529, 0.6606543, -0.21276803, 0.66354746, 2.7043567, 0.62917364, -1.1477575, 0
1050, 3610567331, 0.28043306, 0.65961814, -0.2152354, 0.66328496, 1.1892848, -0.25047576, 3.715437, 0
1051, 3610583998, 0.2816657, 0.65891767, -0.21742721, 0.6627437, -1.1624244, -1.0913326, -2.314559, 0
1052, 3610600665, 0.2831164, 0.6583484, -0.2194973, 0.66200846, 1.2428219, 1.4183948, -3.922298, 0
1053, 3610617332, 0.284337, 0.65743446, -0.22170573, 0.66165745, 0.2350845, 3.381449, 4.191616, 0
1054, 3610633999, 0.2853133, 0.6563273, -0.2243427, 0.6614475, 0.5779117, 0.65609074, 0.9086571, 0
1055, 3610650666, 0.28635436, 0.65549594, -0.22635598, 0.66113603, -0.14108269, -1.5632489, -2.8810263, 0
1056, 3610667333, 0.2872967, 0.65524507, -0.22787233, 0.6604548, 0.60322523, 0.01386395, 0.61833286, 0
1057, 3610684000, 0.28848678, 0.6549336, -0.22952166, 0.65967333, 1.0104806, -0.4657869, 0.60721016, 0
1058, 3610700667, 0.28975415, 0.65437186, -0.23100123, 0.6591587, 2.957137, 0.41377535, -0.65924835, 0
1059, 3610717334, 0.29085612, 0.65351295, -0.2322822, 0.6590752, 2.0775402, 0.6125383, 2.2864847, 0
1060, 3610734001, 0.29157472, 0.6526922, -0.23373143, 0.6590589, 1.4159034, 1.5586658, -0.7675381, 0
1061, 3610750668, 0.29201934, 0.6519484, -0.23576947, 0.6588721, 0.672601, 1.0837954, -0.78834724, 0
1062, 3610767335, 0.29256627, 0.6511883, -0.23824295, 0.6584914, 0.60918236, -0.057051066, -0.01710701, 0
1063, 3610784002, 0.2932736, 0.650385, -0.24059123, 0.65811664, 1.1525024, -0.18865824, -0.074513435, 0
1064, 3610800669, 0.29406035, 0.64953536, -0.24283156, 0.65778184, 1.6728425, 1.259979, 1.0133514, 0
1065, 3610817336, 0.2948236, 0.6482984, -0.24564059, 0.6576175, 1.9984888, 2.5720077, 0.0014009476, 0
1066, 3610834003, 0.29526278, 0.6468488, -0.24908262, 0.657553, 1.5231632, -0.28214994, -0.11747646, 0
1067, 3610850670, 0.2956253, 0.64539796, -0.25246042, 0.6575278, 2.2293236, -0.9440158, -1.6195908, 0
1068, 3610867337, 0.29580346, 0.64404315, -0.25567478, 0.6575339, 2.4313095, 0.84551567, 0.33669472, 0
1069, 3610884004, 0.29600245, 0.64268625, -0.25892225, 0.65750134, 1.9011704, 0.86753654, 0.33819866, 0
1070, 3610900671, 0.29643863, 0.6412398, -0.26231703, 0.65737146, 2.341448, -0.21842375, -0.5033932, 0
1071, 3610917338, 0.29685858, 0.6400308, -0.2651262, 0.6572331, 1.7971323, -0.8952144, 0.92792034, 0
1072, 3610934005, 0.2969696, 0.6389883, -0.26755425, 0.6572135, 2.2829394, -0.5901849, 0.09291077, 0
1073, 3610950672, 0.29662526, 0.6378277, -0.27050692, 0.6572878, 1.7187257, -0.29686412, -1.1548347, 0
1074, 3610967339, 0.2960255, 0.6365111, -0.27395564, 0.6574061, 1.7282492, -1.1734833, -0.12066841, 0
1075, 3610984006, 0.29531103, 0.63520455, -0.27713448, 0.65765864, 0.6545085, -1.7517715, 0.07006073, 0
1076, 3611000673, 0.29442087, 0.63419026, -0.27981213, 0.6579028, 0.46387774, -1.4262458, -0.7053814, 0
1077, 3611017340, 0.29351705, 0.6332339, -0.2819084, 0.6583327, 0.0023725901, -0.91866326, 1.9988174, 0
1078, 3611034007, 0.29275757, 0.6322783, -0.2833522, 0.6589693, -1.3829088, -0.6253928, 2.4372215, 0
1079, 3611050674, 0.29222342, 0.631473, -0.2840727, 0.659668, -1.8003004, -0.9372083, 0.74841213, 0
1080, 3611067341, 0.29188943, 0.63095933, -0.28417653, 0.6602623, -2.3297296, 0.007653866, -1.0271311, 0
1081, 3611084008, 0.29171768, 0.63039887, -0.2841357, 0.6608909, -2.596785, 0.4510597, -0.46131897, 0
1082, 3611100675, 0.29153067, 0.62998056, -0.28408667, 0.6613932, -3.8743618, 0.34164408, -1.4907732, 0
1083, 3611117342, 0.2911499, 0.629919, -0.28408453, 0.66162026, -3.9143233, 0.58070475, -1.8296804, 0
1084, 3611134009, 0.2904973, 0.63010323, -0.28444397, 0.66157746, -3.9482508, 1.3066188, 0.101968765, 0
1085, 3611150676, 0.28960183, 0.63031775, -0.28488448, 0.6615761, -2.2935295, -1.0147448, 0.056414604, 0
1086, 3611167343, 0.28889138, 0.63050914, -0.2847095, 0.6617795, -1.2506856, -3.4782822, -1.5009146, 0
1087, 3611184010, 0.28827697, 0.6305055, -0.2843581, 0.6622021, -0.24548607, 0.17609704, -0.7208204, 0
1088, 3611200677, 0.28766116, 0.6302102, -0.28445554, 0.6627089, -1.6278249, 1.6284858, 2.1034403, 0
1089, 3611217344, 0.2867604, 0.6301086, -0.28480148, 0.66304725, -1.7307178, 0.50454295, 1.0621281, 0
1090, 3611234011, 0.28569818, 0.6303045, -0.28476155, 0.66333663, -0.07005408, -2.7688975, -3.5135427, 0
1091, 3611250678, 0.2846229, 0.6309229, -0.28417107, 0.66346425, 0.7583915, -3.5763655, -3.8138766, 0
1092, 3611267345, 0.2836268, 0.6317752, -0.28349084, 0.66337067, -0.55742365, -1.2113653, 3.7222261, 0
1093, 3611284012, 0.28257236, 0.6326497, -0.28307533, 0.66316456, 1.1605734, 0.30225617, -0.8945179, 0
1094, 3611300679, 0.28156134, 0.6332849, -0.28258324, 0.66319835, 1.9271556, -0.16688548, 2.1880894, 0
1095, 3611317346, 0.2806657, 0.63367915, -0.28181675, 0.6635273, 1.2041029, -0.44247195, 1.7244081, 0
1096, 3611334013, 0.27962142, 0.63393927, -0.28099996, 0.66406614, 1.5675656, -0.67562306, 1.8010931, 0
1097, 3611350680, 0.27855957, 0.63398534, -0.2803256, 0.66475296, 1.8618392, -1.7130066, -1.0726767, 0
1098, 3611367347, 0.27753463, 0.6343197, -0.27953786, 0.6651943, 0.37224355, -3.4303584, -1.7485218, 0
1099, 3611384014, 0.27664706, 0.63518393, -0.27826303, 0.6652737, -0.0712976, -2.3899772, 0.46248436, 0
1100, 3611400681, 0.2757212, 0.63608646, -0.27717966, 0.66524816, 2.1401916, 1.0764275, 1.64995, 0
1101, 3611417348, 0.27465022, 0.63662505, -0.27644062, 0.66548324, 2.7724214, 0.3575203, 0.36954308, 0
1102, 3611434015, 0.273504, 0.6370465, -0.27569547, 0.6658612, 1.4383602, -0.64204204, 0.5493927, 0
1103, 3611450682, 0.27232528, 0.63757986, -0.27504608, 0.6661022, 1.0223322, -1.0437876, -0.9399576, 0
1104, 3611467349, 0.27135456, 0.6382159, -0.2742344, 0.66622406, 0.47613132, -1.6643313, -1.317174, 0
1105, 3611484016, 0.27074534, 0.6390959, -0.27304453, 0.6661171, 1.2837344, -1.5095955, -0.78111744, 0
1106, 3611500683, 0.27038634, 0.6399812, -0.27165648, 0.66598034, 2.1967828, 0.53885674, 0.49128723, 0
1107, 3611517350, 0.27000174, 0.6407537, -0.2703614, 0.6659207, 1.6897359, 1.0680537, 0.36181355, 0
1108, 3611534017, 0.26957127, 0.6413456, -0.26936463, 0.665929, 0.8162475, 0.3941328, -0.7701683, 0
1109, 3611550684, 0.26915756, 0.6417991, -0.26859692, 0.6659696, 0.17032033, -0.4422407, 1.0474215, 0
1110, 3611567351, 0.26872012, 0.6422689, -0.2679094, 0.66597027, -1.0658716, -0.5512471, 0.8275051, 0
1111, 3611584018, 0.26823795, 0.6428696, -0.26724923, 0.6658504, -0.86386895, -0.48461777, -0.16999626, 0
1112, 3611600685, 0.26790544, 0.6433985, -0.26665753, 0.66571057, -1.0067567, -0.073793165, -0.40010357, 0
1113, 3611617352, 0.26759422, 0.6437923, -0.26633787, 0.66558295, -0.74414647, 0.37758774, 1.201293, 0
1114, 3611634019, 0.26723525, 0.64397055, -0.26631683, 0.66556305, -0.46108773, 0.023935946, -0.66901016, 0
1115, 3611650686, 0.26673752, 0.6438835, -0.26643968, 0.6657978, 0.0641956, 0.33697578, -0.52545357, 0
1116, 3611667353, 0.26606435, 0.6435748, -0.2667221, 0.66625243, -0.009420045, 0.29179275, -0.110946655, 0
1117, 3611684020, 0.26539484, 0.64316016, -0.2671982, 0.66672903, -0.37326115, -0.18143846, 0.52864647, 0
1118, 3611700687, 0.2649064, 0.6428578, -0.2677147, 0.66700745, -0.3460789, -0.575699, 0.58082294, 0
1119, 3611717354, 0.264552, 0.6424562, -0.2680338, 0.6674069, -0.06868549, 0.417447, 2.852395, 0
1120, 3611734021, 0.26414752, 0.64182895, -0.26844358, 0.6680055, 0.84053963, 0.3961144, 1.3556757, 0
1121, 3611750688, 0.26382288, 0.6407309, -0.26907766, 0.66893226, 1.7525944, -0.070068575, 0.16638279, 0
1122, 3611767355, 0.26344445, 0.63958806, -0.26988447, 0.6698495, 2.034088, 0.100294285, -1.5526409, 0
1123, 3611784022, 0.2627942, 0.6393099, -0.27112573, 0.6698691, 0.11790486, 1.1332024, 13.557184, 0
1124, 3611800689, 0.26172602, 0.64079154, -0.27291375, 0.6681434, -4.169836, 1.313787, -1.5766392, 0
1125, 3611817356, 0.2610627, 0.64225304, -0.27411357, 0.66650635, 3.0774589, -1.3572586, -11.181616, 0
1126, 3611834023, 0.26087856, 0.6425494, -0.27505553, 0.6659046, 4.1096234, 2.8648014, -2.9896698, 0
1127, 3611850690, 0.2609917, 0.6420257, -0.2757876, 0.6660627, 2.3872368, -2.6980996, -0.43920898, 0
1128, 3611867357, 0.2616704, 0.6415932, -0.275394, 0.6663759, 0.78007674, -1.3840617, -4.054023, 0
1129, 3611884024, 0.26222554, 0.64113384, -0.27521995, 0.66667163, 1.5389683, 0.6913363, -3.5466676, 0
1130, 3611900691, 0.26317737, 0.64028585, -0.27468732, 0.6673308, 0.3487572, -3.749265, -4.334859, 0
1131, 3611917358, 0.26433706, 0.6397577, -0.27310488, 0.6680281, 1.4788519, -0.5430467, -4.4651937, 0
1132, 3611934025, 0.26546517, 0.63912445, -0.27088565, 0.6690897, 1.625281, -0.17336631, -8.274557, 0
1133, 3611950692, 0.26689413, 0.63869756, -0.2681313, 0.6700375, 0.04993782, 1.2687831, 8.381037, 0
1134, 3611967359, 0.26753283, 0.64022857, -0.26743987, 0.6685965, -8.645712, 11.128402, 8.516878, 0
1135, 3611984026, 0.26849118, 0.6428386, -0.26744086, 0.66570127, 5.7438574, -9.115511, -16.040524, 0
1136, 3612000693, 0.27084136, 0.6434316, -0.26545012, 0.6649727, -0.54449254, 1.1973038, 17.994587, 0
1137, 3612017360, 0.27208364, 0.6446781, -0.26327646, 0.6641219, 1.4474677, 3.5624611, 3.1338406, 0
1138, 3612034027, 0.2725045, 0.6451206, -0.26267138, 0.6637592, 4.5321856, 0.28594083, -3.0383396, 0
1139, 3612050694, 0.27289164, 0.6448559, -0.26240343, 0.6639631, -2.8367, -3.7313924, -2.0482516, 0
1140, 3612067361, 0.27322033, 0.64563787, -0.26183954, 0.66329044, -1.0731145, -4.695446, 1.9521523, 0
1141, 3612084028, 0.27382228, 0.6460405, -0.26132768, 0.6628518, 1.2234052, -0.23365991, 2.255165, 0
1142, 3612100695, 0.2737975, 0.6458449, -0.26167062, 0.6629175, 3.6707096, 2.7171237, 2.8570728, 0
1143, 3612117362, 0.2732127, 0.6450743, -0.26273963, 0.663486, 3.1513262, 0.21378137, 0.8417864, 0
1144, 3612134029, 0.27236968, 0.6443987, -0.26379874, 0.6640685, 2.5393293, -3.4669354, 0.29325962, 0
1145, 3612150696, 0.27179155, 0.64392513, -0.26431024, 0.66456115, 2.6434188, -3.342978, -0.35782814, 0
1146, 3612167363, 0.2714286, 0.6435694, -0.26466373, 0.6649135, 3.4009721, -0.86704093, -0.46058464, 0
1147, 3612184030, 0.27109087, 0.642767, -0.26438707, 0.6659366, 9.3096, -1.6223748, 4.430525, 0
1148, 3612200697, 0.2707507, 0.6424879, -0.2637776, 0.66658574, 4.1313357, -0.07397532, -1.2491264, 0
1149, 3612217364, 0.27017653, 0.6429908, -0.26377237, 0.66633564, -1.9149578, 2.013319, -4.4789557, 0
1150, 3612234031, 0.26996195, 0.64354575, -0.2640395, 0.665781, -2.305393, -2.76701, -5.726268, 0
1151, 3612250698, 0.2702085, 0.6448349, -0.2633783, 0.6646948, 2.1895478, -4.2097373, 2.4989738, 0
1152, 3612267365, 0.27040306, 0.64587486, -0.26121843, 0.66445816, 4.22327, -2.3048763, 5.601639, 0
1153, 3612284032, 0.27009034, 0.6463411, -0.259259, 0.66489923, 3.8364568, 1.0178071, 0.9005203, 0
1154, 3612300699, 0.26935354, 0.6461861, -0.25843596, 0.66566867, 2.7558644, -0.02316832, -1.8053808, 0
1155, 3612317366, 0.26846293, 0.64609396, -0.25791833, 0.6663183, -1.5661376, -3.7681441, -2.7923608, 0
1156, 3612334033, 0.26774937, 0.646657, -0.2568541, 0.66647047, -0.8598182, -2.8623905, -0.96323204, 0
1157, 3612350700, 0.26706344, 0.6473812, -0.25530744, 0.66663694, 0.3807081, 1.1269693, -0.08943558, 0
1158, 3612367367, 0.26643953, 0.6480275, -0.2540562, 0.6667365, 2.15802, 2.6719172, 0.6783495, 0
1159, 3612384034, 0.26608258, 0.6483263, -0.25311056, 0.66694814, 1.2293655, 0.6709277, 0.5704508, 0
1160, 3612400701, 0.26600465, 0.6486029, -0.2519919, 0.6671339, 0.2890963, -0.24960278, 0.2654333, 0
1161, 3612417368, 0.26617274, 0.64892274, -0.25074187, 0.66722685, -0.7314409, 0.8924984, -0.4126072, 0
1162, 3612434035, 0.26647148, 0.6492601, -0.2500159, 0.6670518, 0.081600726, 1.8091172, -1.5016823, 0
1163, 3612450702, 0.26690087, 0.6493332, -0.24976552, 0.66690284, 0.16334106, 0.7209824, 0.4328146, 0
1164, 3612467369, 0.2674088, 0.6495448, -0.24953572, 0.6665793, -0.82830054, 0.5407975, 1.0104971, 0
1165, 3612484036, 0.26794812, 0.6498195, -0.24933362, 0.66617024, 1.1304023, 0.9224406, -0.72842693, 0
1166, 3612500703, 0.26855034, 0.64981174, -0.24957547, 0.6658446, 1.4721632, 1.7227825, 0.36027622, 0
1167, 3612517370, 0.2690385, 0.64946425, -0.25057513, 0.6656112, 1.5503852, 1.9767061, -0.18648338, 0
1168, 3612534037, 0.2693486, 0.64877784, -0.25223416, 0.6655287, 0.7549173, 0.830919, 0.4365654, 0
1169, 3612550704, 0.2695768, 0.6480712, -0.25406262, 0.66542923, 0.76421005, -0.05833134, -0.53112984, 0
1170, 3612567371, 0.26980582, 0.6472509, -0.25606263, 0.6653681, 1.5517005, 0.0038047773, -0.34964657, 0
1171, 3612584038, 0.27028933, 0.64610445, -0.25814176, 0.66548264, 1.7396308, -0.04135593, 0.95692825, 0
1172, 3612600705, 0.27084398, 0.64497584, -0.26000834, 0.6656254, 1.2285587, 0.3689761, 0.44521046, 0
