sep=,
DeviceTag:,Xsens_DOT_4,,,,,,,,,,,,,,,,,
FirmwareVersion:,3.0.0,,,,,,,,,,,,,,,,,
AppVersion:,2023.6.1,,,,,,,,,,,,,,,,,
SyncStatus:,Synced,,,,,,,,,,,,,,,,,
OutputRate:,60Hz,,,,,,,,,,,,,,,,,
FilterProfile:,General,,,,,,,,,,,,,,,,,
Measurement Mode:,Sensor fusion Mode - Extended (Quaternion),,,,,,,,,,,,,,,,,
StartTime:,2025-05-05 11:54:06.686 +0200,,,,,,,,,,,,,,,,,
 2025,,,,,,,,,,,,,,,,,,,

PacketCounter,SampleTimeFine,Quat_W,Quat_X,Quat_Y,Quat_Z,FreeAcc_X,FreeAcc_Y,FreeAcc_Z,Status
1, 2839685247, -0.03693126, 0.66960025, 0.053068712, 0.7399056, 0.31606847, 0.40140602, 0.052977562, 0
2, 2839701914, -0.036927357, 0.66954327, 0.05307679, 0.7399568, 0.3022547, 0.3967907, 0.027903557, 0
3, 2839718581, -0.03692706, 0.6694908, 0.053080536, 0.74000394, 0.27950898, 0.41020897, 0.083869934, 0
4, 2839735248, -0.036924377, 0.6694438, 0.05305451, 0.7400485, 0.3062623, 0.40016228, 0.081124306, 0
5, 2839751915, -0.036918923, 0.66939753, 0.05302135, 0.74009293, 0.30728376, 0.39057323, 0.07309151, 0
6, 2839768582, -0.036931425, 0.6693412, 0.053010345, 0.7401442, 0.33786318, 0.3880444, 0.053803444, 0
7, 2839785249, -0.036955073, 0.66930103, 0.053002022, 0.74017996, 0.3099672, 0.39329284, 0.06490612, 0
8, 2839801916, -0.03696701, 0.6692615, 0.052996203, 0.7402155, 0.2769295, 0.4171924, 0.067560196, 0
9, 2839818583, -0.03699182, 0.6692144, 0.052980646, 0.7402578, 0.25751787, 0.37176618, 0.056806564, 0
10, 2839835250, -0.03701116, 0.66916966, 0.05295918, 0.7402989, 0.23184001, 0.34551135, 0.04935932, 0
11, 2839851917, -0.03702174, 0.66912496, 0.052926727, 0.74034107, 0.26919535, 0.36669624, 0.055927277, 0
12, 2839868584, -0.03705372, 0.6690914, 0.052895322, 0.740372, 0.25643736, 0.3668861, 0.06598282, 0
13, 2839885251, -0.037089422, 0.669046, 0.052868664, 0.7404132, 0.2821301, 0.36268297, 0.07853317, 0
14, 2839901918, -0.03711781, 0.66900873, 0.05283834, 0.7404476, 0.26544315, 0.38289937, 0.07238674, 0
15, 2839918585, -0.03715682, 0.6689683, 0.052797504, 0.740485, 0.24323493, 0.4008364, 0.02257824, 0
16, 2839935252, -0.037208363, 0.6689427, 0.05273713, 0.7405099, 0.2672252, 0.37881, 0.06003952, 0
17, 2839951919, -0.037250876, 0.6689051, 0.052675463, 0.74054617, 0.3252546, 0.35312432, 0.08112335, 0
18, 2839968586, -0.037280068, 0.66887176, 0.052632906, 0.7405778, 0.316557, 0.3527014, 0.10703945, 0
19, 2839985253, -0.03733857, 0.66882503, 0.05259844, 0.74061966, 0.2736357, 0.39688045, 0.088513374, 0
20, 2840001920, -0.037404597, 0.6687804, 0.052545935, 0.7406603, 0.26943603, 0.41338432, 0.058794975, 0
21, 2840018587, -0.037474126, 0.6687415, 0.052472427, 0.74069697, 0.25054672, 0.38676783, 0.053762436, 0
22, 2840035254, -0.037542105, 0.66871005, 0.052405864, 0.74072677, 0.25630286, 0.36323068, 0.042744637, 0
23, 2840051921, -0.03761646, 0.6686753, 0.05233849, 0.740759, 0.26793662, 0.35857648, 0.062420845, 0
24, 2840068588, -0.03772071, 0.668635, 0.05231314, 0.74079186, 0.27182612, 0.37201375, 0.060380936, 0
25, 2840085255, -0.037768126, 0.6685971, 0.05224692, 0.74082845, 0.29887316, 0.38573062, 0.0842123, 0
26, 2840101922, -0.037821695, 0.66856056, 0.052193627, 0.74086237, 0.28278613, 0.37944934, 0.09730053, 0
27, 2840118589, -0.03787519, 0.6685201, 0.052148953, 0.7408994, 0.25548017, 0.41083044, 0.059472084, 0
28, 2840135256, -0.037927017, 0.6684717, 0.052091204, 0.7409444, 0.2593428, 0.4000873, 0.032224655, 0
29, 2840151923, -0.03795527, 0.66842973, 0.052001953, 0.7409871, 0.284391, 0.37794274, 0.032610893, 0
30, 2840168590, -0.038020507, 0.66838855, 0.051943026, 0.74102503, 0.3061126, 0.384568, 0.05727005, 0
31, 2840185257, -0.03808634, 0.66834605, 0.051886283, 0.74106395, 0.25141063, 0.3761381, 0.0815773, 0
32, 2840201924, -0.03814301, 0.6682912, 0.051826783, 0.74111474, 0.24302556, 0.37298858, 0.115501404, 0
33, 2840218591, -0.038199455, 0.6682451, 0.051781468, 0.7411565, 0.25464422, 0.3782586, 0.07692242, 0
34, 2840235258, -0.038248226, 0.6681958, 0.05174298, 0.74120104, 0.24514948, 0.39763212, 0.043226242, 0
35, 2840251925, -0.038282335, 0.6681555, 0.051700242, 0.7412387, 0.21608071, 0.37625456, 0.025008202, 0
36, 2840268592, -0.038303822, 0.668118, 0.051661, 0.7412741, 0.2228434, 0.34527746, 0.040267944, 0
37, 2840285259, -0.038334593, 0.66808105, 0.051638506, 0.7413074, 0.23394372, 0.34294522, 0.06520176, 0
38, 2840301926, -0.038337365, 0.66804314, 0.051612318, 0.74134326, 0.23758972, 0.3848816, 0.07863617, 0
39, 2840318593, -0.03833683, 0.66799915, 0.051615044, 0.7413827, 0.19793257, 0.390648, 0.05617714, 0
40, 2840335260, -0.03831929, 0.66796166, 0.051586173, 0.7414194, 0.1786108, 0.39974308, 0.06513214, 0
41, 2840351927, -0.038327336, 0.6679112, 0.05159706, 0.74146366, 0.1905898, 0.3382189, 0.09494686, 0
42, 2840368594, -0.03831449, 0.6678738, 0.051597364, 0.7414981, 0.24941428, 0.30243582, 0.06900501, 0
43, 2840385261, -0.038297415, 0.6678342, 0.051629715, 0.7415323, 0.24879178, 0.31402656, 0.040355682, 0
44, 2840401928, -0.03826253, 0.66779685, 0.05164635, 0.74156654, 0.22219099, 0.38235825, 0.058164597, 0
45, 2840418595, -0.03823465, 0.66774714, 0.0516629, 0.74161166, 0.212678, 0.4132787, 0.0829916, 0
46, 2840435262, -0.038207456, 0.6677065, 0.051691487, 0.7416476, 0.1910066, 0.37680238, 0.050946236, 0
47, 2840451929, -0.038189292, 0.66766346, 0.051733345, 0.7416844, 0.22090967, 0.35092932, 0.027422905, 0
48, 2840468596, -0.038157225, 0.6676188, 0.051764056, 0.74172413, 0.21097974, 0.33820337, 0.06059456, 0
49, 2840485263, -0.038122997, 0.6675728, 0.051792018, 0.7417653, 0.23174681, 0.3336009, 0.06451702, 0
50, 2840501930, -0.038061917, 0.6675374, 0.051831312, 0.7417977, 0.22609293, 0.31160846, 0.09832668, 0
51, 2840518597, -0.03800045, 0.66748327, 0.051892206, 0.7418452, 0.21728438, 0.33915824, 0.0600996, 0
52, 2840535264, -0.037926286, 0.6674333, 0.051961772, 0.741889, 0.21823244, 0.38190708, 0.044338226, 0
53, 2840551931, -0.03785795, 0.66739094, 0.05204902, 0.7419245, 0.21660022, 0.39245433, 0.044394493, 0
54, 2840568598, -0.037787512, 0.66733766, 0.052126594, 0.74197066, 0.24012664, 0.37529436, 0.062348366, 0
55, 2840585265, -0.03771858, 0.6672993, 0.052205525, 0.742003, 0.26329264, 0.33774394, 0.060674667, 0
56, 2840601932, -0.037627652, 0.66725343, 0.052277945, 0.74204373, 0.28551435, 0.38063973, 0.048376083, 0
57, 2840618599, -0.037548974, 0.6672076, 0.0523301, 0.7420852, 0.26846352, 0.4005961, 0.06933403, 0
58, 2840635266, -0.03748001, 0.66717315, 0.05236405, 0.7421174, 0.31303477, 0.3221309, 0.070664406, 0
59, 2840651933, -0.03742051, 0.6671377, 0.05240524, 0.74214935, 0.3102635, 0.34003517, 0.09655571, 0
60, 2840668600, -0.03738165, 0.66710085, 0.052445553, 0.7421816, 0.2701751, 0.369962, 0.064128876, 0
61, 2840685267, -0.037363246, 0.6670662, 0.052437305, 0.7422142, 0.22988187, 0.3689231, 0.028477669, 0
62, 2840701934, -0.037355274, 0.6670324, 0.052419066, 0.7422463, 0.22591273, 0.31351504, 0.038057327, 0
63, 2840718601, -0.03733933, 0.66699517, 0.052406177, 0.7422815, 0.25462168, 0.310606, 0.07566357, 0
64, 2840735268, -0.037337914, 0.6669539, 0.052397043, 0.74231935, 0.25990048, 0.31682637, 0.058416367, 0
65, 2840751935, -0.037331015, 0.66692007, 0.052381597, 0.7423511, 0.21973333, 0.3459547, 0.06859684, 0
66, 2840768602, -0.03732705, 0.6668865, 0.052342698, 0.7423842, 0.22209407, 0.34829408, 0.07531834, 0
67, 2840785269, -0.03733252, 0.66685015, 0.052318886, 0.7424182, 0.20448203, 0.3552992, 0.0820694, 0
68, 2840801936, -0.037346974, 0.66681516, 0.05232381, 0.74244857, 0.2184951, 0.33709228, 0.08320236, 0
69, 2840818603, -0.03735371, 0.6667805, 0.05234365, 0.7424781, 0.23199944, 0.33670047, 0.061237335, 0
70, 2840835270, -0.037349805, 0.66673553, 0.05235268, 0.74251795, 0.23895381, 0.33570752, 0.056653023, 0
71, 2840851937, -0.03734131, 0.6666932, 0.052346095, 0.7425569, 0.21914074, 0.34566188, 0.05225563, 0
72, 2840868604, -0.037341878, 0.6666596, 0.05234316, 0.74258727, 0.18175654, 0.35716486, 0.05993557, 0
73, 2840885271, -0.03735347, 0.66663074, 0.052325606, 0.74261385, 0.19911355, 0.33923692, 0.08964157, 0
74, 2840901938, -0.03738752, 0.6665914, 0.05232799, 0.74264723, 0.20908897, 0.3157344, 0.06654453, 0
75, 2840918605, -0.03737776, 0.6665566, 0.0523201, 0.74267954, 0.23636813, 0.31442562, 0.033452034, 0
76, 2840935272, -0.037358448, 0.66652286, 0.052324012, 0.74271035, 0.19876686, 0.33364248, 0.04886532, 0
77, 2840951939, -0.037357092, 0.66649747, 0.052327976, 0.74273294, 0.21186991, 0.3595665, 0.06330013, 0
78, 2840968606, -0.03734742, 0.66646165, 0.052323192, 0.7427659, 0.25702477, 0.3318225, 0.07322407, 0
79, 2840985273, -0.037344173, 0.66642535, 0.05229964, 0.74280035, 0.22820921, 0.31295747, 0.05518627, 0
80, 2841001940, -0.03735593, 0.6663913, 0.052272744, 0.74283224, 0.18964198, 0.32049355, 0.06906891, 0
81, 2841018607, -0.03737086, 0.66636634, 0.052230135, 0.74285686, 0.20862274, 0.3487904, 0.066020966, 0
82, 2841035274, -0.037417427, 0.66633165, 0.05219113, 0.7428884, 0.20743103, 0.31408533, 0.053887367, 0
83, 2841051941, -0.037462473, 0.66631174, 0.052142277, 0.74290746, 0.23526898, 0.29601654, 0.019417763, 0
84, 2841068608, -0.037506133, 0.6662836, 0.0520574, 0.7429365, 0.22019054, 0.3064472, 0.0871048, 0
85, 2841085275, -0.037580267, 0.66625744, 0.051954053, 0.74296343, 0.22438823, 0.31640974, 0.083366394, 0
86, 2841101942, -0.03768243, 0.6662388, 0.05183868, 0.7429831, 0.24360454, 0.28979772, 0.03323555, 0
87, 2841118609, -0.037785634, 0.66621935, 0.051719107, 0.74300355, 0.24115802, 0.28558618, 0.021173477, 0
88, 2841135276, -0.03790328, 0.66621304, 0.051607244, 0.74301094, 0.2539863, 0.32238057, 0.07242203, 0
89, 2841151943, -0.03802976, 0.6662017, 0.051497094, 0.7430223, 0.24966934, 0.32613435, 0.060520172, 0
90, 2841168610, -0.03814499, 0.6661789, 0.051399127, 0.7430436, 0.23179652, 0.33925366, 0.108234406, 0
91, 2841185277, -0.03825569, 0.6661516, 0.051300623, 0.74306923, 0.22634599, 0.35676926, 0.07453728, 0
92, 2841201944, -0.038375705, 0.6661427, 0.051178187, 0.74307954, 0.2248043, 0.3251262, 0.0319252, 0
93, 2841218611, -0.038523197, 0.66613114, 0.051023394, 0.7430927, 0.2974892, 0.3008288, 0.078598976, 0
94, 2841235278, -0.038701862, 0.6661097, 0.05087948, 0.7431125, 0.34325173, 0.25386524, 0.1307888, 0
95, 2841251945, -0.03885469, 0.66607505, 0.050726272, 0.74314606, 0.26335755, 0.27793467, 0.15604591, 0
96, 2841268612, -0.039052024, 0.6660387, 0.050596662, 0.74317735, 0.18186504, 0.3852124, 0.043567657, 0
97, 2841285279, -0.039210007, 0.6660161, 0.050385937, 0.7432035, 0.1294606, 0.4305472, 0.03126526, 0
98, 2841301946, -0.03939244, 0.6659771, 0.050175525, 0.7432431, 0.18579718, 0.34513596, 0.007798195, 0
99, 2841318613, -0.03960365, 0.6659585, 0.04996281, 0.7432628, 0.21149981, 0.23791736, 0.057340622, 0
100, 2841335280, -0.039826483, 0.6659392, 0.049790293, 0.74327976, 0.26210284, 0.22514482, 0.10610962, 0
101, 2841351947, -0.040025473, 0.6659065, 0.049616583, 0.7433101, 0.1912291, 0.30780473, 0.089803696, 0
102, 2841368614, -0.040214494, 0.66587865, 0.049435787, 0.7433367, 0.13221855, 0.36439094, 0.054987907, 0
103, 2841385281, -0.040382147, 0.6658545, 0.049244322, 0.743362, 0.123749375, 0.3561374, 0.050619125, 0
104, 2841401948, -0.04056473, 0.6658404, 0.049075678, 0.74337584, 0.14419179, 0.33745962, 0.07748985, 0
105, 2841418615, -0.040745765, 0.6658324, 0.048920415, 0.74338347, 0.11809369, 0.30088347, 0.02339077, 0
106, 2841435282, -0.04088849, 0.66582865, 0.04877229, 0.7433887, 0.2059003, 0.26549572, 0.020422935, 0
107, 2841451949, -0.041024238, 0.66581696, 0.04865349, 0.74339926, 0.22781348, 0.30111688, 0.024463654, 0
108, 2841468616, -0.041170254, 0.665806, 0.0485399, 0.74340856, 0.26203406, 0.38448095, 0.1981535, 0
109, 2841485283, -0.041331097, 0.66577536, 0.048423663, 0.74343467, 0.37419114, 0.33976215, 0.22016716, 0
110, 2841501950, -0.041487902, 0.66573304, 0.048308454, 0.7434712, 0.38429028, 0.24554072, 0.17655277, 0
111, 2841518617, -0.04164754, 0.6656885, 0.048198342, 0.74350935, 0.31818977, 0.32136703, 0.033631325, 0
112, 2841535284, -0.041813165, 0.6656581, 0.04805229, 0.7435367, 0.19976269, 0.45627767, -0.0015659332, 0
113, 2841551951, -0.04198803, 0.66563684, 0.047856346, 0.74355865, 0.17517607, 0.48183128, -0.041929245, 0
114, 2841568618, -0.042168036, 0.66562384, 0.0476493, 0.7435733, 0.24057177, 0.42495334, 0.07229805, 0
115, 2841585285, -0.042352244, 0.6656127, 0.04747612, 0.7435839, 0.36684337, 0.36615747, 0.18666363, 0
116, 2841601952, -0.042490155, 0.6655768, 0.04733073, 0.7436175, 0.4084843, 0.34608355, 0.21429348, 0
117, 2841618619, -0.04262407, 0.66552806, 0.047235772, 0.74365944, 0.38220716, 0.41478875, 0.08087921, 0
118, 2841635286, -0.042741165, 0.6654871, 0.047129773, 0.74369615, 0.29754612, 0.4654397, -0.031960487, 0
119, 2841651953, -0.042873487, 0.6654584, 0.0469964, 0.74372256, 0.30275267, 0.43482378, 0.004081726, 0
120, 2841668620, -0.042992502, 0.66543615, 0.046872504, 0.74374336, 0.35265246, 0.32290614, 0.13400841, 0
121, 2841685287, -0.043094322, 0.6653866, 0.04680311, 0.7437863, 0.34382886, 0.27999076, 0.25266647, 0
122, 2841701954, -0.04313083, 0.66532856, 0.046762407, 0.7438386, 0.2919488, 0.37661073, 0.22926235, 0
123, 2841718621, -0.043106914, 0.6652507, 0.046759844, 0.74390984, 0.19983743, 0.50208485, 0.12223911, 0
124, 2841735288, -0.04304658, 0.66517687, 0.046773538, 0.74397856, 0.15627939, 0.54545, -0.03675747, 0
125, 2841751955, -0.042954057, 0.66513586, 0.046809353, 0.74401826, 0.20340578, 0.43538833, -0.16629696, 0
126, 2841768622, -0.0428399, 0.665133, 0.046874456, 0.7440232, 0.18624851, 0.3095963, -0.17881966, 0
127, 2841785289, -0.042701453, 0.66513795, 0.046969496, 0.74402076, 0.15887904, 0.17063281, -0.010275841, 0
128, 2841801956, -0.042560846, 0.66512847, 0.0471071, 0.7440287, 0.08568148, 0.22916794, 0.1061697, 0
129, 2841818623, -0.04242201, 0.66511494, 0.047232434, 0.7440408, 0.043117743, 0.35553613, 0.22724724, 0
130, 2841835290, -0.042316467, 0.6650821, 0.047362298, 0.7440679, 0.075292915, 0.2668724, 0.24222088, 0
131, 2841851957, -0.042229056, 0.66504264, 0.047475092, 0.7441008, 0.09366727, 0.21689875, 0.15778542, 0
132, 2841868624, -0.042163834, 0.66499275, 0.04760772, 0.74414074, 0.1261209, 0.040288433, 0.08661461, 0
133, 2841885291, -0.04206705, 0.6649216, 0.047735237, 0.74420166, 0.07528534, -0.042937286, 0.11008263, 0
134, 2841901958, -0.041975603, 0.66486293, 0.047831036, 0.744253, -0.022476742, 0.043026913, -0.11815834, 0
135, 2841918625, -0.041950703, 0.66483533, 0.047868833, 0.74427664, -0.15896231, 0.26044142, -0.24405575, 0
136, 2841935292, -0.041960374, 0.66483915, 0.047807887, 0.74427664, -0.23444101, 0.34298274, -0.1473217, 0
137, 2841951959, -0.042032704, 0.6648618, 0.047703914, 0.7442589, -0.14089021, 0.28152028, 0.12882042, 0
138, 2841968626, -0.042134315, 0.66484606, 0.04758036, 0.7442751, 0.009255588, 0.19975889, 0.32597542, 0
139, 2841985293, -0.042233273, 0.6647925, 0.047514983, 0.74432164, 0.13014442, 0.1303152, 0.3762207, 0
140, 2842001960, -0.042295814, 0.6647139, 0.047474667, 0.74439085, 0.20948584, 0.0962306, 0.21283722, 0
141, 2842018627, -0.042316243, 0.6646204, 0.04749757, 0.74447167, 0.18064362, 0.23554063, 0.07137489, 0
142, 2842035294, -0.04229921, 0.66453743, 0.04754965, 0.7445434, 0.08479506, 0.30058816, -0.15654945, 0
143, 2842051961, -0.04226254, 0.6644949, 0.04762628, 0.7445786, 0.07115312, 0.313321, -0.3375559, 0
144, 2842068628, -0.04218328, 0.6645025, 0.04768806, 0.7445723, 0.06511013, 0.37384287, -0.32458687, 0
145, 2842085295, -0.04211101, 0.6645383, 0.047742113, 0.7445409, 0.051016722, 0.404979, 0.16085148, 0
146, 2842101962, -0.042078957, 0.6645372, 0.047812432, 0.74453926, 0.14075606, 0.34261093, 0.42388344, 0
147, 2842118629, -0.042046785, 0.6644836, 0.047871374, 0.744585, 0.2118926, 0.22260617, 0.37546062, 0
148, 2842135296, -0.0420008, 0.6644066, 0.047940657, 0.7446519, 0.25973248, 0.08266939, 0.17816067, 0
149, 2842151963, -0.04194057, 0.6643347, 0.04802586, 0.744714, 0.09289475, 0.20578636, -0.059111595, 0
150, 2842168630, -0.041868046, 0.6642705, 0.048098758, 0.7447706, -0.09548286, 0.34505907, -0.11950493, 0
151, 2842185297, -0.041816667, 0.6642247, 0.048190653, 0.74480844, -0.1849005, 0.28923726, -0.06735134, 0
152, 2842201964, -0.041715384, 0.6641765, 0.048274554, 0.74485165, -0.13228606, 0.17300898, 0.030281067, 0
153, 2842218631, -0.041588783, 0.6641333, 0.048375197, 0.74489075, -0.09447326, 0.17437027, -0.061945915, 0
154, 2842235298, -0.041463003, 0.6641178, 0.04846415, 0.7449057, -0.08128797, 0.21145432, -0.21483421, 0
155, 2842251965, -0.041329905, 0.6641295, 0.048570484, 0.7448958, -0.03495396, 0.19741513, -0.23380184, 0
156, 2842268632, -0.041202128, 0.6641538, 0.048703946, 0.7448725, 0.07118312, 0.26461253, 0.08779621, 0
157, 2842285299, -0.04107675, 0.6641557, 0.04881645, 0.7448703, 0.13017727, 0.27878928, 0.47353458, 0
158, 2842301966, -0.040960893, 0.6641264, 0.048898824, 0.74489754, 0.27485052, 0.14685416, 0.48625374, 0
159, 2842318633, -0.040819064, 0.66406226, 0.048966072, 0.74495804, 0.23420201, 0.09638091, 0.19958878, 0
160, 2842335300, -0.04072821, 0.6640001, 0.04906054, 0.74501234, 0.08791404, 0.19269443, -0.07148361, 0
161, 2842351967, -0.040658325, 0.66394573, 0.04907973, 0.7450632, -0.05038988, 0.1975156, -0.031214714, 0
162, 2842368634, -0.040653005, 0.66389513, 0.04905673, 0.7451101, -0.07164029, 0.06262978, 0.11699772, 0
163, 2842385301, -0.040689573, 0.6638431, 0.049003996, 0.74515796, -0.008019086, -0.032745097, 0.041532516, 0
164, 2842401968, -0.040779322, 0.66378367, 0.048928402, 0.74521095, -0.049380355, -0.0033030745, 0.06309128, 0
165, 2842418635, -0.040907294, 0.6637295, 0.048782274, 0.7452617, -0.18972391, 0.17795241, -0.048404694, 0
166, 2842435302, -0.041082665, 0.6637075, 0.04855355, 0.7452865, -0.30327633, 0.22101776, -0.20705128, 0
167, 2842451969, -0.041294575, 0.663692, 0.04828322, 0.7453064, -0.22737734, 0.13765717, -0.03809738, 0
168, 2842468636, -0.041507572, 0.6636767, 0.048033662, 0.7453243, -0.073488235, 0.02796527, 0.11134052, 0
169, 2842485303, -0.041731924, 0.66365856, 0.047836304, 0.7453406, 0.12491494, 0.07699731, 0.1785717, 0
170, 2842501970, -0.041959032, 0.6636138, 0.047681734, 0.74537766, 0.16736348, 0.17246595, 0.05998707, 0
171, 2842518637, -0.042157605, 0.66358596, 0.04749082, 0.74540323, 0.050247222, 0.30071926, -0.082300186, 0
172, 2842535304, -0.042377993, 0.66359985, 0.047327384, 0.7453888, 0.04201236, 0.29036433, -0.10816479, 0
173, 2842551971, -0.04259108, 0.6636109, 0.04720506, 0.74537456, 0.1231598, 0.22832452, 0.050365448, 0
174, 2842568638, -0.042740047, 0.66361177, 0.047059327, 0.74537444, 0.22726311, 0.16252644, 0.22690201, 0
175, 2842585305, -0.04289131, 0.6635932, 0.04694356, 0.7453896, 0.25016317, 0.16078226, 0.18986511, 0
176, 2842601972, -0.043033242, 0.6635693, 0.046842203, 0.74540913, 0.1112754, 0.26063332, -0.015083313, 0
177, 2842618639, -0.04324308, 0.663566, 0.046737544, 0.74540657, -0.07756964, 0.39400935, -0.1923523, 0
178, 2842635306, -0.04345055, 0.6635814, 0.046576746, 0.74539083, -0.12704591, 0.29324487, -0.16092014, 0
179, 2842651973, -0.0436593, 0.6636073, 0.046362206, 0.745369, -0.05773119, 0.23431702, -0.14268875, 0
180, 2842668640, -0.043881223, 0.6636381, 0.046144143, 0.7453421, 0.070453316, 0.22919106, 0.01450634, 0
181, 2842685307, -0.044083446, 0.66367817, 0.045908637, 0.74530894, 0.15813796, 0.2829076, 0.033766747, 0
182, 2842701974, -0.044261083, 0.6637384, 0.045644976, 0.74526095, 0.2770305, 0.32278198, 0.13729858, 0
183, 2842718641, -0.044482827, 0.66377896, 0.04541053, 0.7452259, 0.17914261, 0.34300935, -0.06817818, 0
184, 2842735308, -0.044663057, 0.663831, 0.04521904, 0.74518037, 0.19027479, 0.11121636, -0.05309391, 0
185, 2842751975, -0.044812337, 0.663897, 0.045081764, 0.74512106, 0.085171655, 0.1826492, -0.04805851, 0
186, 2842768642, -0.044938996, 0.66396976, 0.04492466, 0.745058, 0.17611997, 0.42411917, 0.0831089, 0
187, 2842785309, -0.045091823, 0.6640532, 0.044705592, 0.7449877, 0.17587787, 0.45337832, 0.014113426, 0
188, 2842801976, -0.045292333, 0.66415775, 0.044472367, 0.74489623, 0.09124165, 0.38372603, 0.016464233, 0
189, 2842818643, -0.045541644, 0.6642549, 0.04419931, 0.74481064, -0.013439108, 0.4037062, 0.08576584, 0
190, 2842835310, -0.045792386, 0.6643395, 0.04389859, 0.7447375, 0.024401886, 0.30680987, 0.07244778, 0
191, 2842851977, -0.04594481, 0.66444206, 0.043697402, 0.74464846, 0.32776684, -0.07668853, -0.10926247, 0
192, 2842868644, -0.04594648, 0.6645173, 0.04363978, 0.7445847, 0.3374882, -0.12779157, 0.08874321, 0
193, 2842885311, -0.045887515, 0.6646013, 0.043658964, 0.74451214, 0.17308114, 0.22779267, 0.1013813, 0
194, 2842901978, -0.045873716, 0.66468775, 0.04358127, 0.7444404, -0.01231263, 0.7027856, -0.007349968, 0
195, 2842918645, -0.04596792, 0.66478723, 0.043306485, 0.7443619, -0.2256568, 0.8211371, 0.039471626, 0
196, 2842935312, -0.04628177, 0.66489404, 0.04281625, 0.74427545, -0.11720885, 0.33366898, 0.15423203, 0
197, 2842951979, -0.04672396, 0.66501135, 0.04227221, 0.7441739, 0.27517986, -0.44741163, 0.1748228, 0
198, 2842968646, -0.047118068, 0.66509664, 0.04181268, 0.74409884, 0.42024162, -0.51980376, 0.22544098, 0
199, 2842985313, -0.047456115, 0.6651682, 0.04137171, 0.7440381, 0.16717833, -0.028256284, 0.12337017, 0
200, 2843001980, -0.0478801, 0.6652499, 0.04081311, 0.7439686, 0.006172394, 0.34895232, 0.0687561, 0
201, 2843018647, -0.048459083, 0.6653176, 0.040169843, 0.7439057, 0.15368924, 0.16237378, 0.3302164, 0
202, 2843035314, -0.04914689, 0.66537035, 0.03948451, 0.74385, 0.20357105, -0.008032385, 0.1430273, 0
203, 2843051981, -0.049889848, 0.66544926, 0.03873221, 0.74376947, 0.08787395, 0.05306399, -0.09087658, 0
204, 2843068648, -0.05067052, 0.66552746, 0.037884466, 0.74369067, 0.052193962, 0.074778385, 0.1145525, 0
205, 2843085315, -0.051475286, 0.66559446, 0.037061334, 0.7436168, 0.19128801, 0.08236182, 0.45803452, 0
206, 2843101982, -0.05230677, 0.665601, 0.03634017, 0.74358845, 0.39513946, 0.15332721, 0.53095055, 0
207, 2843118649, -0.053149134, 0.6655517, 0.035671234, 0.74360526, 0.4709951, 0.30764714, 0.61723137, 0
208, 2843135316, -0.054002747, 0.6654662, 0.034965493, 0.7436538, 0.5034217, 0.44946277, 0.32394505, 0
209, 2843151983, -0.054872185, 0.6653891, 0.034215413, 0.7436941, 0.31063458, 0.40994644, -0.2805605, 0
210, 2843168650, -0.055800006, 0.66537213, 0.03343015, 0.7436758, 0.077931255, 0.38864192, -0.5491705, 0
211, 2843185317, -0.0567099, 0.66538095, 0.03263007, 0.7436346, 0.18083514, 0.09502966, 0.031259537, 0
212, 2843201984, -0.057578266, 0.6653428, 0.03182379, 0.743637, 0.37748608, -0.06771325, 0.53340244, 0
213, 2843218651, -0.058390006, 0.6652062, 0.031078719, 0.74372745, 0.37637046, -0.16175063, 1.2105999, 0
214, 2843235318, -0.059133098, 0.6649991, 0.030479595, 0.7438787, 0.04689939, 0.1422338, 0.6933298, 0
215, 2843251985, -0.05976741, 0.6647449, 0.03005524, 0.7440724, -0.085100435, 0.49461707, 0.1288948, 0
216, 2843268652, -0.060301304, 0.66451305, 0.029776976, 0.74424773, -0.17774057, 0.7390068, -0.9570198, 0
217, 2843285319, -0.060728744, 0.66435623, 0.029584289, 0.7443606, -0.21628131, 0.52423996, -0.687438, 0
218, 2843301986, -0.061132908, 0.6642538, 0.029341407, 0.7444287, -0.19408189, 0.4015969, -0.22158623, 0
219, 2843318653, -0.06155096, 0.6641576, 0.028986149, 0.7444937, 0.21003948, -0.044905316, -0.016730309, 0
220, 2843335320, -0.0619054, 0.6640235, 0.028737001, 0.74459386, 0.13241726, -0.077791005, -0.0921669, 0
221, 2843351987, -0.06216696, 0.6639332, 0.028731674, 0.7446526, -0.34711182, 0.38411105, -0.041152954, 0
222, 2843368654, -0.062416866, 0.66394573, 0.028534874, 0.74462813, -0.43644452, 1.4359837, 0.07163715, 0
223, 2843385321, -0.06281862, 0.6639809, 0.027917914, 0.7445863, 0.29190794, 0.63140666, 0.24718857, 0
224, 2843401988, -0.063132495, 0.66393983, 0.027390547, 0.74461615, 0.9000406, -0.348681, 0.46133518, 0
225, 2843418655, -0.06324659, 0.663825, 0.027204275, 0.7447155, 0.39942738, 0.030209005, 0.17247677, 0
226, 2843435322, -0.06328112, 0.6637321, 0.027079083, 0.74479973, -0.24168202, 0.9394612, 0.08965206, 0
227, 2843451989, -0.06335418, 0.6636771, 0.026751883, 0.7448545, -0.2739598, 0.8401932, 0.021782875, 0
228, 2843468656, -0.06340666, 0.6636434, 0.026476808, 0.74489, 0.19371733, 0.084192075, -0.16105556, 0
229, 2843485323, -0.06334324, 0.6636142, 0.026543774, 0.7449189, 0.19542219, 1.9445628E-5, -0.26944256, 0
230, 2843501990, -0.063153684, 0.663657, 0.026748553, 0.7448895, 0.11739079, 0.50545484, -0.29636288, 0
231, 2843518657, -0.06289938, 0.6637049, 0.026833318, 0.74486554, 0.45892814, 0.631022, 0.01764965, 0
232, 2843535324, -0.06274788, 0.6637194, 0.026797466, 0.74486655, 0.94336283, 0.29985815, 0.35471058, 0
233, 2843551991, -0.062696174, 0.663693, 0.026831917, 0.7448931, 1.2684023, 9.488125E-4, 0.38921356, 0
234, 2843568658, -0.062657386, 0.6636288, 0.02693908, 0.74494976, 0.9948502, 0.37917274, 0.37847424, 0
235, 2843585325, -0.062601015, 0.66359913, 0.026951872, 0.74498045, 0.6198836, 0.7073343, -0.09461784, 0
236, 2843601992, -0.06256601, 0.6635823, 0.026874468, 0.7450012, 0.37290362, 0.5840613, -0.06824112, 0
237, 2843618659, -0.06257951, 0.66359526, 0.026819184, 0.74499047, 0.18390629, 0.34747303, -0.19996262, 0
238, 2843635326, -0.0626232, 0.66364205, 0.026785202, 0.7449463, 0.14478166, 0.40112105, -0.14230442, 0
239, 2843651993, -0.062646195, 0.66368383, 0.026714832, 0.7449097, 0.24899364, 0.20635879, 0.22435474, 0
240, 2843668660, -0.06263587, 0.66368884, 0.026632316, 0.74490917, 0.37768826, 0.121395476, 0.5673351, 0
241, 2843685327, -0.0625906, 0.66365445, 0.026637077, 0.7449434, 0.3877044, 0.19001406, 0.49493885, 0
242, 2843701994, -0.06253202, 0.66357315, 0.026764147, 0.7450163, 0.18608077, 0.43847236, 0.2805977, 0
243, 2843718661, -0.062420413, 0.66348237, 0.026925802, 0.74510056, 0.06398556, 0.5313927, -0.049045563, 0
244, 2843735328, -0.0622371, 0.6634393, 0.027074367, 0.74514896, 0.12111379, 0.4548445, -0.13806915, 0
245, 2843751995, -0.061995074, 0.66342556, 0.027217798, 0.74517614, 0.2991968, 0.41727912, -0.059516907, 0
246, 2843768662, -0.06173101, 0.6634157, 0.027401991, 0.74520004, 0.42922774, 0.41670805, 0.21059132, 0
247, 2843785329, -0.0614492, 0.6633788, 0.027577996, 0.7452497, 0.50716865, 0.48582038, 0.342597, 0
248, 2843801996, -0.061209783, 0.66330516, 0.027694687, 0.74533063, 0.57074165, 0.42886862, 0.21066856, 0
249, 2843818663, -0.06101492, 0.66321, 0.027756758, 0.74542886, 0.50558156, 0.27537903, 0.22315884, 0
250, 2843835330, -0.060830772, 0.6631247, 0.027829677, 0.7455172, 0.4664412, 0.26569232, 0.060004234, 0
251, 2843851997, -0.060656935, 0.6630837, 0.027893744, 0.7455654, 0.21815696, 0.43107307, -0.2268467, 0
252, 2843868664, -0.06048143, 0.6630856, 0.027932055, 0.74557656, 0.1270708, 0.37299025, -0.10594845, 0
253, 2843885331, -0.060295463, 0.66308117, 0.02794896, 0.7455949, 0.19828723, 0.2961073, 0.094210625, 0
254, 2843901998, -0.06014055, 0.6630682, 0.027968146, 0.7456183, 0.38735697, 0.2675172, 0.27688313, 0
255, 2843918665, -0.06002657, 0.66303223, 0.027951926, 0.74566007, 0.5923754, 0.204896, 0.28334236, 0
256, 2843935332, -0.05998251, 0.6629814, 0.027886234, 0.74571115, 0.6424731, 0.12910421, 0.22498512, 0
257, 2843951999, -0.05997604, 0.66290104, 0.027823545, 0.7457854, 0.52917665, 0.16764444, 0.15357208, 0
258, 2843968666, -0.059999436, 0.66281587, 0.027736038, 0.74586254, 0.16315949, 0.39397478, 0.19723606, 0
259, 2843985333, -0.060043767, 0.6627412, 0.027587295, 0.7459309, -0.06248967, 0.31500754, 0.2503233, 0
260, 2844002000, -0.06004396, 0.66264224, 0.02748923, 0.7460223, -0.09429567, 0.010151064, 0.13341427, 0
261, 2844018667, -0.059997097, 0.6625248, 0.027475446, 0.74613076, -0.17854784, -0.0876116, 0.14771175, 0
262, 2844035334, -0.059925765, 0.66240263, 0.02748654, 0.7462448, -0.13574874, -0.025245229, 0.14349079, 0
263, 2844052001, -0.059841678, 0.662276, 0.027470484, 0.74636436, 0.012896614, 0.05953234, 0.34192562, 0
264, 2844068668, -0.059758395, 0.66210353, 0.02746296, 0.7465244, 0.35057196, -0.06650885, 0.3981533, 0
265, 2844085335, -0.059670597, 0.6619017, 0.02749575, 0.74670917, 0.41066048, -0.045822613, 0.13530254, 0
266, 2844102002, -0.059653774, 0.6616951, 0.02742105, 0.7468964, 0.24931973, 0.43124613, 0.23631287, 0
267, 2844118669, -0.059791267, 0.66147923, 0.027130343, 0.7470871, 0.19179657, 0.8075342, -0.29191113, 0
268, 2844135336, -0.060138598, 0.66132826, 0.02662231, 0.7472112, -0.17568736, 1.3807852, -0.9253044, 0
269, 2844152003, -0.06056291, 0.6613101, 0.026180267, 0.7472087, 0.5201286, -0.8034439, -0.9696808, 0
270, 2844168670, -0.06073472, 0.66131574, 0.026191078, 0.7471893, 0.5052603, -1.1706681, 0.58704185, 0
271, 2844185337, -0.060789973, 0.6612982, 0.026145123, 0.74720186, -0.23535314, 1.0052147, 0.48276234, 0
272, 2844202004, -0.06090723, 0.66127855, 0.025810614, 0.7472215, -0.07636521, 1.3227594, -0.4450817, 0
273, 2844218671, -0.06102027, 0.6612802, 0.025716975, 0.74721396, 0.2900696, -0.19552277, 0.124323845, 0
274, 2844235338, -0.06098953, 0.66124207, 0.026010975, 0.74724025, 0.33735058, -0.08957416, 0.49118137, 0
275, 2844252005, -0.060841784, 0.66119426, 0.02618222, 0.7472884, -0.017568957, 0.78630364, -0.3071165, 0
276, 2844268672, -0.06057252, 0.6615561, 0.0264237, 0.7469814, -2.7344823, -0.75837785, -3.607277, 0
277, 2844285339, -0.060334414, 0.66176707, 0.026659012, 0.7468055, 0.35024923, 0.4664227, 2.0337067, 0
278, 2844302006, -0.060021386, 0.6618057, 0.026989698, 0.74678457, -0.28958166, 0.26050514, 0.26070404, 0
279, 2844318673, -0.059583157, 0.6620548, 0.027368262, 0.74658525, 1.2796102, 0.012484908, -1.0860004, 0
280, 2844335340, -0.059110925, 0.66213995, 0.027610853, 0.74653834, -1.3879333, 0.41845337, 1.732995, 0
281, 2844352007, -0.058852747, 0.6623193, 0.027678572, 0.746397, -0.2031941, 0.710034, 0.3553095, 0
282, 2844368674, -0.058605626, 0.6623258, 0.027869716, 0.7464036, 0.26093534, -0.15628295, -0.34418392, 0
283, 2844385341, -0.058348566, 0.6624138, 0.028149128, 0.7463352, -0.2288695, 0.017781908, 0.29925632, 0
284, 2844402008, -0.058073744, 0.66249603, 0.028250292, 0.74627984, 0.5709922, 0.031459, -0.25788116, 0
285, 2844418675, -0.05766779, 0.6625715, 0.02834344, 0.74624074, 0.53801847, -0.24564186, 0.39325047, 0
286, 2844435342, -0.057292745, 0.66262597, 0.028626338, 0.7462105, 1.0102036, 0.17917614, 0.29179096, 0
287, 2844452009, -0.05695501, 0.66260386, 0.029005326, 0.7462414, 0.59330463, 0.85827976, 0.3994732, 0
288, 2844468676, -0.05668801, 0.6625788, 0.029236473, 0.74627465, 0.3044181, 1.0515994, 0.37056065, 0
289, 2844485343, -0.056379795, 0.6625291, 0.029399626, 0.7463357, 0.42616084, 0.33238545, 0.05615139, 0
290, 2844502010, -0.055946633, 0.66250527, 0.029693149, 0.746378, 0.2748704, 0.055065434, 0.010832787, 0
291, 2844518677, -0.055430412, 0.6625063, 0.03012503, 0.7463982, 0.12694173, 0.22900948, -0.05140972, 0
292, 2844535344, -0.054890543, 0.6625136, 0.030554041, 0.7464142, 0.13493514, 0.446353, 0.11681652, 0
293, 2844552011, -0.05437854, 0.66252905, 0.030909456, 0.7464235, 0.33137473, 0.32509008, 0.07522869, 0
294, 2844568678, -0.05391924, 0.6625409, 0.031270795, 0.7464312, 0.48782966, 0.067015775, 0.07155895, 0
295, 2844585345, -0.05351901, 0.6625415, 0.03164742, 0.7464436, 0.3632586, 0.14355075, 0.10172844, 0
296, 2844602012, -0.053188264, 0.66253924, 0.031931974, 0.7464573, 0.35896346, 0.23050009, 0.06908417, 0
297, 2844618679, -0.05290927, 0.6626006, 0.03209137, 0.7464156, 0.59680927, 0.19253004, -1.3971758, 0
298, 2844635346, -0.052737787, 0.6626989, 0.03213375, 0.74633867, -0.10929052, 0.23780236, 1.8329887, 0
299, 2844652013, -0.05261135, 0.66267955, 0.032257974, 0.7463593, 0.56887454, -0.52746487, 0.5718899, 0
300, 2844668680, -0.052466005, 0.66261363, 0.032471858, 0.7464189, 0.21220101, 0.1956125, -0.37508583, 0
301, 2844685347, -0.052418023, 0.66261256, 0.03250107, 0.7464218, -0.33763507, 0.537881, -0.34966278, 0
302, 2844702014, -0.052500874, 0.6626472, 0.03232684, 0.74639297, -0.096304916, 0.08710926, 0.15838242, 0
303, 2844718681, -0.05258505, 0.6626648, 0.03223612, 0.7463753, -0.040049624, -0.5528623, 0.32494068, 0
304, 2844735348, -0.05264187, 0.6626489, 0.03229536, 0.7463829, -0.15683736, -0.11806542, 0.23453331, 0
305, 2844752015, -0.052719623, 0.66260785, 0.032263145, 0.7464152, -0.36739066, 0.3080867, 0.18693829, 0
306, 2844768682, -0.0528688, 0.66257256, 0.0320794, 0.74644387, -0.21378055, 0.09941141, -0.10352421, 0
307, 2844785349, -0.053036347, 0.66254705, 0.03193523, 0.7464608, 0.023279335, -0.27767774, -0.1862812, 0
308, 2844802016, -0.05322112, 0.66254294, 0.031848066, 0.7464551, -0.15992768, -0.036224633, -0.22665596, 0
309, 2844818683, -0.053422943, 0.66255045, 0.03167031, 0.7464416, -0.12796296, 0.3050781, 0.003815651, 0
310, 2844835350, -0.053646088, 0.66255605, 0.031400353, 0.74643195, 0.033401303, 0.2315098, 0.23050117, 0
311, 2844852017, -0.053864762, 0.6625584, 0.031213097, 0.74642205, 0.3735842, 0.14760214, 0.28293324, 0
312, 2844868684, -0.054065257, 0.66251516, 0.0311227, 0.7464497, 0.39902204, 0.36554292, 0.21680927, 0
313, 2844885351, -0.05426152, 0.6624638, 0.030977271, 0.74648696, 0.32501876, 0.5632877, 0.100522995, 0
314, 2844902018, -0.054452762, 0.662403, 0.030730553, 0.74653727, 0.2936679, 0.30869496, 0.016052246, 0
315, 2844918685, -0.054627895, 0.66236633, 0.03054528, 0.7465645, 0.31184137, 0.060433432, 0.020204544, 0
316, 2844935352, -0.05477397, 0.66234076, 0.030479126, 0.7465793, 0.25034818, 0.25218052, 0.080555916, 0
317, 2844952019, -0.054893523, 0.662323, 0.030400112, 0.7465895, 0.1714491, 0.45999318, 0.11136818, 0
318, 2844968686, -0.054993153, 0.66229874, 0.030240588, 0.74661016, 0.34403786, 0.46933272, 0.120661736, 0
319, 2844985353, -0.055064633, 0.66227657, 0.030115202, 0.7466295, 0.4221258, 0.3025297, 0.1499815, 0
320, 2845002020, -0.055128917, 0.6622198, 0.030066177, 0.74667716, 0.43369293, 0.3365164, 0.16477013, 0
321, 2845018687, -0.055179104, 0.66216695, 0.030036926, 0.74672145, 0.28573358, 0.3858189, 0.13096046, 0
322, 2845035354, -0.0552001, 0.6621321, 0.029982187, 0.7467531, 0.27069, 0.33236924, -0.08147526, 0
323, 2845052021, -0.055179566, 0.66211146, 0.02995132, 0.74677414, 0.29212186, 0.22495227, 0.013256073, 0
324, 2845068688, -0.055151805, 0.66208965, 0.02996669, 0.7467949, 0.33599806, 0.30595157, 0.11292648, 0
325, 2845085355, -0.05514261, 0.662061, 0.029988483, 0.74682015, 0.3410466, 0.39372298, 0.19473362, 0
326, 2845102022, -0.05513908, 0.6620172, 0.029964946, 0.7468601, 0.2663493, 0.31486303, 0.19452381, 0
327, 2845118689, -0.055124253, 0.6619665, 0.029948793, 0.74690676, 0.23481011, 0.16292004, 0.15754318, 0
328, 2845135356, -0.055089414, 0.661913, 0.029983819, 0.7469554, 0.100544564, 0.0863777, 0.03386593, 0
329, 2845152023, -0.05503355, 0.66188186, 0.030058265, 0.74698406, 0.053415496, 0.22537962, -0.06700897, 0
330, 2845168690, -0.054989442, 0.66185784, 0.030102499, 0.74700683, 0.019885277, 0.23958589, -0.052762985, 0
331, 2845185357, -0.054945603, 0.661854, 0.030124143, 0.7470125, 0.09557962, 0.10519771, 0.01236248, 0
332, 2845202024, -0.054912135, 0.6618442, 0.030167878, 0.747022, 0.14165351, 0.078463554, 0.13496017, 0
333, 2845218691, -0.05488853, 0.6618249, 0.03021241, 0.747039, 0.10174494, 0.18547463, 0.10681057, 0
334, 2845235358, -0.054879516, 0.6618062, 0.030228265, 0.7470555, 0.1367909, 0.25187877, 0.016254425, 0
335, 2845252025, -0.054876313, 0.66178894, 0.030212715, 0.74707174, 0.10921829, 0.1526998, 0.05802536, 0
336, 2845268692, -0.054883882, 0.6617714, 0.030213058, 0.74708664, 0.12713957, 0.09075967, 0.18413544, 0
337, 2845285359, -0.054899797, 0.6617465, 0.03023234, 0.7471068, 0.1407769, 0.14007333, 0.09083271, 0
338, 2845302026, -0.054925084, 0.6617261, 0.030241504, 0.74712276, 0.04769082, 0.14868954, -0.04173374, 0
339, 2845318693, -0.054952234, 0.66171247, 0.030225769, 0.7471335, 0.020717025, 0.2002685, -0.049158096, 0
340, 2845335360, -0.05496186, 0.6617145, 0.030212991, 0.74713135, -0.023436675, 0.21144404, 0.039663315, 0
341, 2845352027, -0.054977804, 0.66171485, 0.030204482, 0.7471303, 0.03139931, 0.22100931, 0.11531448, 0
342, 2845368694, -0.05498989, 0.66170335, 0.030218907, 0.7471389, 0.14268228, 0.20766544, 0.13048553, 0
343, 2845385361, -0.054978356, 0.66169786, 0.030250639, 0.7471433, 0.2832061, 0.1749884, 0.071074486, 0
344, 2845402028, -0.054957926, 0.6616788, 0.030294731, 0.74716, 0.2376873, 0.17621158, 0.12178898, 0
345, 2845418695, -0.054955065, 0.6616493, 0.030334063, 0.7471848, 0.15967503, 0.24055772, 0.056521416, 0
346, 2845435362, -0.054934725, 0.66161853, 0.030350648, 0.7472127, 0.038831633, 0.25383997, 0.06681347, 0
347, 2845452029, -0.05491002, 0.66159284, 0.030360289, 0.7472368, -0.0074054035, 0.21031798, 0.047655106, 0
348, 2845468696, -0.05488603, 0.66157967, 0.030387476, 0.74724925, 0.021410866, 0.16217273, 0.08109474, 0
349, 2845485363, -0.054846287, 0.66155803, 0.030432336, 0.74726963, 0.072998606, 0.1504478, 0.06967354, 0
350, 2845502030, -0.054794654, 0.6615391, 0.030475497, 0.74728835, 0.09467224, 0.16658968, 0.14387321, 0
351, 2845518697, -0.05475147, 0.66150826, 0.030516744, 0.7473171, 0.09028311, 0.16381645, 0.12744236, 0
352, 2845535364, -0.054693907, 0.6614867, 0.030564822, 0.74733835, 0.016367184, 0.14227371, 0.01924038, 0
353, 2845552031, -0.054621875, 0.6614675, 0.030610599, 0.74735874, -0.031939834, 0.1436206, -0.09601879, 0
354, 2845568698, -0.05454503, 0.66147095, 0.030664444, 0.7473593, -0.09415315, 0.14786305, -0.055817604, 0
355, 2845585365, -0.0544848, 0.6614717, 0.030704275, 0.74736124, -0.008249947, 0.17826968, 0.02129364, 0
356, 2845602032, -0.05442968, 0.6614641, 0.030740365, 0.74737054, 0.060578186, 0.1603624, 0.1922903, 0
357, 2845618699, -0.05436437, 0.6614641, 0.030781552, 0.7473736, 0.1582807, 0.1516456, 0.14605904, 0
358, 2845635366, -0.05430515, 0.66143596, 0.030832559, 0.7474007, 0.20130329, 0.18320139, 0.069563866, 0
359, 2845652033, -0.054237664, 0.6614151, 0.030862942, 0.74742275, 0.12807703, 0.21897095, -0.024518013, 0
360, 2845668700, -0.054180384, 0.6614076, 0.030893348, 0.7474323, 0.07654324, 0.19028653, -0.015416145, 0
361, 2845685367, -0.05413045, 0.6614147, 0.030919477, 0.74742854, 0.053535208, 0.114778146, 0.018648148, 0
362, 2845702034, -0.054089054, 0.6614194, 0.030957356, 0.747426, 0.111560315, 0.14910169, 0.10467148, 0
363, 2845718701, -0.054043785, 0.661406, 0.030994505, 0.7474395, 0.11169923, 0.18725558, 0.24552345, 0
364, 2845735368, -0.053982854, 0.6613841, 0.031035066, 0.74746156, 0.15176362, 0.17480256, 0.14528942, 0
365, 2845752035, -0.053913757, 0.66135967, 0.031101145, 0.7474855, 0.11160488, 0.1638055, 0.119561195, 0
366, 2845768702, -0.053860575, 0.6613244, 0.031161964, 0.7475178, 0.03053054, 0.16628142, -0.0023488998, 0
367, 2845785369, -0.053806856, 0.6613303, 0.031207338, 0.7475147, 0.21272731, 0.16251387, -1.0287151, 0
368, 2845802036, -0.053741276, 0.6613861, 0.03122858, 0.7474691, -0.14957638, 0.35548708, 0.7973404, 0
369, 2845818703, -0.053717345, 0.6613556, 0.031193376, 0.74749935, -0.21345761, 0.12289078, 0.973485, 0
370, 2845835370, -0.05358368, 0.66126335, 0.031349488, 0.747584, 0.07234747, -0.3152752, -0.3110819, 0
371, 2845852037, -0.05335079, 0.66120327, 0.03161048, 0.7476428, -0.5285284, 0.10919334, -0.21857548, 0
372, 2845868704, -0.05315371, 0.6611797, 0.031712197, 0.74767345, -0.61456585, 0.3589368, -0.012096405, 0
373, 2845885371, -0.052990153, 0.66115946, 0.031776324, 0.74770015, -0.54903376, -0.19433558, 0.11287117, 0
374, 2845902038, -0.052807376, 0.6611462, 0.031960763, 0.7477169, -0.32063818, -0.29186007, -0.05289364, 0
375, 2845918705, -0.052613467, 0.6611163, 0.03215377, 0.7477489, -0.37990415, -0.032021135, -3.7002563E-4, 0
376, 2845935372, -0.052461743, 0.6611163, 0.032181308, 0.74775827, -0.28573003, 0.19998978, -0.09823227, 0
377, 2845952039, -0.052374557, 0.6611244, 0.032105304, 0.7477605, -0.020756923, -0.05964376, -0.07672405, 0
378, 2845968706, -0.052319884, 0.6611403, 0.032092705, 0.74775094, 0.13416636, -0.110817276, 0.03661537, 0
379, 2845985373, -0.052323192, 0.66113937, 0.032104723, 0.74775076, 0.16411957, 0.12495513, 0.15124321, 0
380, 2846002040, -0.052354246, 0.66111785, 0.03201613, 0.7477715, 0.14049144, 0.22043373, 0.14613628, 0
381, 2846018707, -0.052396864, 0.66109884, 0.031862073, 0.74779195, 0.19834536, 0.06582725, 0.04712963, 0
382, 2846035374, -0.052441373, 0.6610854, 0.03179189, 0.74780357, 0.13355735, 0.08940462, -0.012869835, 0
383, 2846052041, -0.05248493, 0.66108906, 0.03177665, 0.74779797, 0.0050483197, 0.32233766, 0.0071544647, 0
384, 2846068708, -0.052510217, 0.661106, 0.031707183, 0.74778426, -0.005341261, 0.39123562, 0.1768589, 0
385, 2846085375, -0.0525164, 0.6611214, 0.03162758, 0.74777347, 0.17144908, 0.14279819, 0.1320076, 0
386, 2846102042, -0.052480534, 0.6611252, 0.03162992, 0.7477726, 0.29493853, 0.002485017, 0.09610176, 0
387, 2846118709, -0.052420273, 0.6611179, 0.03170713, 0.74777997, 0.1953853, 0.1958396, 0.18317318, 0
388, 2846135376, -0.052345335, 0.6611109, 0.03176351, 0.7477891, 0.15541412, 0.33520237, 0.1842556, 0
389, 2846152043, -0.052276775, 0.66108036, 0.03175988, 0.7478209, 0.1659908, 0.268932, 0.09733486, 0
390, 2846168710, -0.052195683, 0.6610525, 0.031772926, 0.74785066, 0.1862797, 0.23382461, -0.05974865, 0
391, 2846185377, -0.052102044, 0.66104895, 0.03182602, 0.7478581, 0.1301575, 0.31054848, -0.014285088, 0
392, 2846202044, -0.05199355, 0.66104, 0.031864576, 0.7478719, 0.17545387, 0.32021046, 0.07514191, 0
393, 2846218711, -0.05186495, 0.66104776, 0.0318992, 0.74787253, 0.29562634, 0.24314243, 0.10847664, 0
394, 2846235378, -0.051727757, 0.6610415, 0.031952016, 0.7478852, 0.3333426, 0.19852689, 0.15942669, 0
395, 2846252045, -0.051577672, 0.6610538, 0.032042943, 0.747881, 0.32389823, 0.3127941, 0.07561684, 0
396, 2846268712, -0.051430747, 0.661052, 0.03211993, 0.7478893, 0.31169486, 0.36552784, 0.10552406, 0
397, 2846285379, -0.051278874, 0.6610502, 0.032176778, 0.7478988, 0.38286608, 0.25088358, 0.11342144, 0
398, 2846302046, -0.05114475, 0.66104597, 0.03223908, 0.7479092, 0.43002614, 0.20269808, 0.04510975, 0
399, 2846318713, -0.05102159, 0.6610478, 0.032298036, 0.74791336, 0.3916807, 0.27259797, 0.055654526, 0
400, 2846335380, -0.05091779, 0.66105866, 0.032338426, 0.7479092, 0.36883235, 0.31309193, 0.08219147, 0
401, 2846352047, -0.050809026, 0.6610694, 0.032366462, 0.74790573, 0.39022255, 0.27497926, 0.17585945, 0
402, 2846368714, -0.050710335, 0.6610617, 0.03242275, 0.747917, 0.40528622, 0.19702813, 0.21340752, 0
403, 2846385381, -0.050608605, 0.6610436, 0.032502376, 0.74793637, 0.38088128, 0.19430697, 0.17406082, 0
404, 2846402048, -0.05053015, 0.66102636, 0.032575645, 0.74795365, 0.30609372, 0.24981494, 0.054389, 0
405, 2846418715, -0.05045545, 0.66100955, 0.03261827, 0.74797165, 0.27578095, 0.24391231, 0.09850788, 0
406, 2846435382, -0.05039479, 0.6609937, 0.032676756, 0.7479872, 0.27329633, 0.17449445, 0.120471, 0
407, 2846452049, -0.050334096, 0.66096693, 0.03274428, 0.74801195, 0.24579161, 0.1851332, 0.06606388, 0
408, 2846468716, -0.050278157, 0.6609405, 0.03281022, 0.74803627, 0.19549532, 0.1894374, 0.08298397, 0
409, 2846485383, -0.05024086, 0.6609227, 0.03284368, 0.7480531, 0.14569092, 0.13583888, 0.06235695, 0
410, 2846502050, -0.050218657, 0.6609019, 0.03287427, 0.74807155, 0.12252522, 0.08782763, 0.0699625, 0
411, 2846518717, -0.050198317, 0.66089386, 0.03290186, 0.7480788, 0.09085103, 0.11704613, 0.10235405, 0
412, 2846535384, -0.05018264, 0.66087973, 0.032941103, 0.7480906, 0.12593454, 0.17404652, 0.118621826, 0
413, 2846552051, -0.050180048, 0.66085315, 0.03296542, 0.7481131, 0.15978011, 0.18804917, 0.07824421, 0
414, 2846568718, -0.050192222, 0.6608303, 0.0329703, 0.7481324, 0.20320684, 0.18363914, 0.096037865, 0
415, 2846585385, -0.050224006, 0.6608088, 0.032976404, 0.74814904, 0.27347955, 0.19423957, 0.03123951, 0
416, 2846602052, -0.05027616, 0.66079247, 0.032959543, 0.7481606, 0.24632636, 0.16443588, 0.08908844, 0
417, 2846618719, -0.050331637, 0.6607847, 0.03295003, 0.7481641, 0.26968935, 0.18742242, 0.05346489, 0
418, 2846635386, -0.050387338, 0.66075814, 0.0329258, 0.7481849, 0.19018103, 0.20480235, 0.07698822, 0
419, 2846652053, -0.05044104, 0.6607347, 0.032896616, 0.7482032, 0.17581247, 0.25038123, 0.060203552, 0
420, 2846668720, -0.050508425, 0.6607299, 0.032870322, 0.74820405, 0.11767295, 0.1928111, 0.14359951, 0
421, 2846685387, -0.050581828, 0.66071737, 0.03286139, 0.74821067, 0.12893504, 0.13772455, 0.09130669, 0
422, 2846702054, -0.050651938, 0.6606965, 0.032847486, 0.7482249, 0.23699193, 0.15408514, 0.03597641, 0
423, 2846718721, -0.050705075, 0.6606785, 0.03284064, 0.74823755, 0.19735493, 0.18899015, 0.06580925, 0
424, 2846735388, -0.050767913, 0.6606649, 0.03282658, 0.748246, 0.18967693, 0.24620242, 0.10571575, 0
425, 2846752055, -0.05081688, 0.6606441, 0.032819495, 0.74826133, 0.10828119, 0.21673816, 0.10045433, 0
426, 2846768722, -0.050858587, 0.6606245, 0.03281776, 0.7482758, 0.10717731, 0.19249462, 0.083268166, 0
427, 2846785389, -0.050900027, 0.6606073, 0.032819554, 0.7482881, 0.08964504, 0.15849684, 0.05473709, 0
428, 2846802056, -0.050950974, 0.6605858, 0.03280309, 0.74830437, 0.13365188, 0.11954287, 0.08675289, 0
429, 2846818723, -0.05099304, 0.66057676, 0.032791413, 0.74831, 0.13824634, 0.111036986, 0.023749352, 0
430, 2846835390, -0.051035166, 0.6605572, 0.032784685, 0.74832463, 0.12880939, 0.1871645, 0.073550224, 0
431, 2846852057, -0.0510858, 0.6605392, 0.032778762, 0.7483374, 0.11222496, 0.21471615, 0.09429836, 0
432, 2846868724, -0.051149234, 0.66051996, 0.03276425, 0.7483506, 0.07706635, 0.18762483, 0.103755, 0
433, 2846885391, -0.05120051, 0.6604947, 0.03274574, 0.74837023, 0.069064945, 0.12910254, 0.12335777, 0
434, 2846902058, -0.051255167, 0.66048133, 0.03273338, 0.74837875, 0.103715345, 0.10992166, 0.018336296, 0
435, 2846918725, -0.051312283, 0.66047233, 0.032726027, 0.74838316, 0.13464437, 0.14914617, 0.03799343, 0
436, 2846935392, -0.051372305, 0.6604522, 0.032705024, 0.7483977, 0.13756314, 0.17687452, 0.11245537, 0
437, 2846952059, -0.05143647, 0.66042364, 0.032670565, 0.74841994, 0.13187443, 0.14247577, 0.11003494, 0
438, 2846968726, -0.051508248, 0.660388, 0.03265305, 0.7484473, 0.08010693, 0.13966866, 0.104436874, 0
439, 2846985393, -0.051573128, 0.66035897, 0.03263607, 0.74846923, 0.05069458, 0.16837578, 0.03623867, 0
440, 2847002060, -0.05163558, 0.660344, 0.032618314, 0.74847883, 0.0029408438, 0.14038278, 0.053886414, 0
441, 2847018727, -0.05170843, 0.6603297, 0.0325806, 0.74848795, 0.028870665, 0.12549275, 0.03129673, 0
442, 2847035394, -0.051763922, 0.6603541, 0.03256745, 0.74846333, 0.54094595, 0.054530792, -1.2051239, 0
443, 2847052061, -0.051846772, 0.6603897, 0.032474943, 0.7484302, -0.38933188, 0.5738039, 1.4856272, 0
444, 2847068728, -0.05195108, 0.6603438, 0.032416567, 0.7484659, 0.17095715, -0.10599197, 0.37857914, 0
445, 2847085395, -0.051948354, 0.66025734, 0.032556802, 0.74853635, -0.056358904, -0.3351238, -0.06667042, 0
446, 2847102062, -0.051902354, 0.6602009, 0.032658145, 0.7485848, -0.587831, 0.34229186, -0.06293869, 0
447, 2847118729, -0.051944062, 0.6601647, 0.032560192, 0.7486183, -0.69171923, 0.27836484, -0.039982796, 0
448, 2847135396, -0.052050203, 0.66014063, 0.032438062, 0.7486374, -0.5920759, -0.42129925, -0.097379684, 0
449, 2847152063, -0.052150264, 0.6601337, 0.032414228, 0.7486375, -0.48101407, -0.54159355, -0.120482445, 0
450, 2847168730, -0.05226466, 0.66012204, 0.032343447, 0.7486429, -0.556574, -0.18671188, -0.05171585, 0
451, 2847185397, -0.052443236, 0.66012615, 0.032063223, 0.7486389, -0.4427476, -0.09120938, -0.049200058, 0
452, 2847202064, -0.05271396, 0.6601194, 0.031727657, 0.7486401, -0.22342548, -0.35587922, -0.01829815, 0
453, 2847218731, -0.053030565, 0.66011804, 0.031466126, 0.74863, -0.07010781, -0.19271718, -0.0944252, 0
454, 2847235398, -0.05335997, 0.66011834, 0.03118319, 0.74861807, -0.15133755, 0.10058407, 0.07611084, 0
455, 2847252065, -0.05369079, 0.66012615, 0.030819766, 0.74860275, -0.042579554, 0.21723637, 0.063729286, 0
456, 2847268732, -0.054052353, 0.6601312, 0.030435689, 0.7485879, 0.08708495, 0.19015823, 0.17538643, 0
457, 2847285399, -0.05443357, 0.6601341, 0.030115277, 0.7485708, 0.24319518, 0.2523231, 0.10081291, 0
458, 2847302066, -0.05481842, 0.66012675, 0.029806204, 0.7485615, 0.26043248, 0.27322334, 0.12973785, 0
459, 2847318733, -0.055183396, 0.66013104, 0.029470213, 0.7485441, 0.32243952, 0.17883529, 0.14944267, 0
460, 2847335400, -0.05550906, 0.6601153, 0.029151767, 0.7485464, 0.3362386, 0.10494034, 0.16081715, 0
461, 2847352067, -0.055809453, 0.660096, 0.02891095, 0.7485505, 0.26012337, 0.14833817, 0.106882095, 0
462, 2847368734, -0.056155294, 0.66006523, 0.028676346, 0.74856067, 0.2119753, 0.26163554, 0.12469578, 0
463, 2847385401, -0.056558385, 0.660046, 0.028376885, 0.74855876, 0.26393282, 0.18723367, 0.1460638, 0
464, 2847402068, -0.056984544, 0.6600272, 0.0280063, 0.7485571, 0.35702634, 0.14231896, 0.094311714, 0
465, 2847418735, -0.057435095, 0.66000503, 0.027610712, 0.7485569, 0.25511655, 0.14368954, 0.044999123, 0
466, 2847435402, -0.057893842, 0.6599807, 0.027222514, 0.74855715, 0.103926115, 0.23257117, -0.011015892, 0
467, 2847452069, -0.058355033, 0.6599781, 0.026837982, 0.74853754, 0.021036062, 0.15533692, 0.020109177, 0
468, 2847468736, -0.05879067, 0.6599867, 0.026468106, 0.7485091, 0.045793224, 0.05456499, 0.1509161, 0
469, 2847485403, -0.059206933, 0.65999246, 0.026156612, 0.748482, 0.08760845, 0.12975575, 0.08895016, 0
470, 2847502070, -0.05959004, 0.6600121, 0.025872268, 0.74844414, 0.16900912, 0.36383763, 0.009181976, 0
471, 2847518737, -0.059979975, 0.66003036, 0.025545493, 0.74840826, 0.19026099, 0.4351, -0.004845619, 0
472, 2847535404, -0.060376137, 0.6600713, 0.025202818, 0.7483519, 0.36159173, 0.23999055, 0.07688427, 0
473, 2847552071, -0.060758397, 0.6601048, 0.02488774, 0.7483019, 0.5046299, 0.1002545, 0.12300396, 0
474, 2847568738, -0.06117229, 0.6601307, 0.024591185, 0.7482552, 0.5478603, 0.17085487, 0.25433254, 0
475, 2847585405, -0.061635435, 0.6601422, 0.024253346, 0.7482182, 0.5376673, 0.29242837, 0.24220371, 0
476, 2847602072, -0.062154323, 0.6601381, 0.023852043, 0.74819183, 0.5168176, 0.22201374, 0.06291866, 0
477, 2847618739, -0.062717155, 0.6601586, 0.023407795, 0.7481406, 0.4603744, 0.27096173, -0.17254734, 0
478, 2847635406, -0.06329058, 0.6601909, 0.02294287, 0.74807817, 0.32522914, 0.38900664, -0.06341457, 0
479, 2847652073, -0.06386115, 0.6602152, 0.02246894, 0.74802256, 0.33558244, 0.35919514, 0.24874306, 0
480, 2847668740, -0.064422995, 0.66020226, 0.022018045, 0.74799925, 0.38355175, 0.148733, 0.4323206, 0
481, 2847685407, -0.064947724, 0.6601706, 0.021683417, 0.74799174, 0.2982302, 0.019785032, 0.3379917, 0
482, 2847702074, -0.06537293, 0.6601365, 0.021440439, 0.7479918, 0.10745374, 0.25545877, 0.077178, 0
483, 2847718741, -0.0657614, 0.6600989, 0.021174297, 0.7479983, -0.17546348, 0.6267937, 0.0317173, 0
484, 2847735408, -0.06615484, 0.6600597, 0.020823404, 0.74800813, -0.25031155, 0.44595897, -0.10506058, 0
485, 2847752075, -0.06652422, 0.6600348, 0.02053675, 0.7480052, -0.10100534, -0.15164684, -0.17565155, 0
486, 2847768742, -0.06686239, 0.660001, 0.020378098, 0.7480094, -0.13130413, -0.38117576, -0.028407097, 0
487, 2847785409, -0.0671431, 0.6599462, 0.020257607, 0.7480358, -0.4976397, -0.19845067, 0.3176613, 0
488, 2847802076, -0.06736477, 0.65985453, 0.020109713, 0.74810076, -0.918381, 0.030899996, 0.3116951, 0
489, 2847818743, -0.06750901, 0.6597356, 0.019999437, 0.7481956, -1.2235353, -0.09223832, 0.17346382, 0
490, 2847835410, -0.06755768, 0.6596127, 0.020041175, 0.74829835, -1.4800683, -0.40302637, -0.1725626, 0
491, 2847852077, -0.067487955, 0.65948904, 0.020174444, 0.74841005, -1.6606771, -0.35700354, -0.14877224, 0
492, 2847868744, -0.067368835, 0.65937746, 0.020271942, 0.74851644, -1.6318457, -0.43550023, -0.15082455, 0
493, 2847885411, -0.06726152, 0.65926653, 0.020367123, 0.7486212, -1.4868752, -0.8684574, -0.077124596, 0
494, 2847902078, -0.06716941, 0.65914255, 0.020502515, 0.7487349, -1.4987513, -0.98498815, -0.013062477, 0
495, 2847918745, -0.06714703, 0.6590105, 0.020577036, 0.74885106, -1.6905907, -0.6366885, -0.15225983, 0
496, 2847935412, -0.0671878, 0.65887034, 0.020446993, 0.7489744, -1.7914628, -0.6892451, -0.3456192, 0
497, 2847952079, -0.06725539, 0.6587737, 0.02026593, 0.74905825, -1.7992966, -0.98917806, -0.677474, 0
498, 2847968746, -0.06737107, 0.658709, 0.020156577, 0.7491078, -1.9606827, -1.0748223, -0.24181843, 0
499, 2847985413, -0.067588344, 0.6586533, 0.020019986, 0.74914074, -2.1026444, -0.9099009, 0.07813454, 0
500, 2848002080, -0.06791428, 0.6585635, 0.019710079, 0.7491985, -1.8760746, -0.9339025, 0.33144855, 0
501, 2848018747, -0.068310454, 0.6584065, 0.019255735, 0.7493123, -1.6513783, -1.3426691, -0.18588066, 0
502, 2848035414, -0.068712294, 0.65828776, 0.018858261, 0.74939007, -1.7310654, -1.2912132, -0.66803455, 0
503, 2848052081, -0.0691572, 0.65825677, 0.018505417, 0.74938506, -2.242402, -0.6499398, -0.631649, 0
504, 2848068748, -0.06968598, 0.6583021, 0.018066198, 0.7493069, -2.2905126, -0.55151063, -0.7594099, 0
505, 2848085415, -0.07021245, 0.6583144, 0.017621286, 0.74925756, -1.9610724, -1.1372944, 0.05367756, 0
506, 2848102082, -0.07073498, 0.6582711, 0.017213963, 0.74925613, -1.5642322, -1.0102346, 0.15752983, 0
507, 2848118749, -0.071262226, 0.6582266, 0.016784102, 0.74925476, -1.5434083, -0.84878975, 0.33678722, 0
508, 2848135416, -0.07181467, 0.6581362, 0.016395673, 0.7492903, -0.9512167, -0.6905092, -0.7303419, 0
509, 2848152083, -0.07242961, 0.65805644, 0.015981972, 0.74930996, -1.4793272, -0.26032564, -0.28794956, 0
510, 2848168750, -0.07321873, 0.65804535, 0.015368231, 0.74925566, -2.0255826, 0.037321746, -0.7105398, 0
511, 2848185417, -0.07400073, 0.65805715, 0.014805324, 0.74918, -1.1341233, -1.6773787, -0.28376865, 0
512, 2848202084, -0.07464157, 0.6580541, 0.014640115, 0.7491222, -1.1786613, -1.9579538, -0.43576527, 0
513, 2848218751, -0.075213745, 0.65804094, 0.014569968, 0.749078, -1.7087734, -0.09609292, -0.10749245, 0
514, 2848235418, -0.07587877, 0.6579533, 0.014272228, 0.74909353, -1.6356586, 0.24967012, -0.07161045, 0
515, 2848252085, -0.07652919, 0.65791357, 0.01409255, 0.74906564, -1.4939373, -1.383687, 0.020519257, 0
516, 2848268752, -0.07701774, 0.6579821, 0.014307722, 0.74895144, -1.3242713, -1.2324483, -0.33559227, 0
517, 2848285419, -0.0773751, 0.65797526, 0.014649183, 0.7489139, -0.40037942, -0.30767575, -1.504261, 0
518, 2848302086, -0.077581555, 0.6578515, 0.015144721, 0.74899155, -0.1969477, -0.36164317, 0.069164276, 0
519, 2848318753, -0.07785614, 0.65790737, 0.015459232, 0.74890745, -3.6504724, 0.0721796, 1.229352, 0
520, 2848335420, -0.07831913, 0.65822715, 0.01566495, 0.748574, -3.217925, -0.74297035, -1.160882, 0
521, 2848352087, -0.07859808, 0.65816915, 0.016441867, 0.74857897, -0.9739262, -2.5778086, -0.41051292, 0
522, 2848368754, -0.07864553, 0.6580787, 0.017449044, 0.7486307, -2.7083025, -2.5285752, 0.12071991, 0
523, 2848385421, -0.07862756, 0.6581771, 0.01819703, 0.7485283, -3.312068, -0.51392156, 0.27801228, 0
524, 2848402088, -0.07880245, 0.6582152, 0.018749095, 0.7484629, -2.869697, -0.7095715, -0.5803385, 0
525, 2848418755, -0.07901408, 0.65816486, 0.019703269, 0.7484601, -2.7081995, -2.5266335, -0.24423218, 0
526, 2848435422, -0.07909761, 0.65809214, 0.020920865, 0.7484822, -3.012657, -1.7835579, -0.3691635, 0
527, 2848452089, -0.07906921, 0.6580093, 0.021823794, 0.74853224, -3.4139001, -0.88188434, -0.6521597, 0
528, 2848468756, -0.078995794, 0.65799993, 0.022758782, 0.7485203, -3.3296833, -1.6131115, -0.8105583, 0
529, 2848485423, -0.07884878, 0.65801364, 0.02413293, 0.74848086, -3.0437307, -2.0543845, -0.61437225, 0
530, 2848502090, -0.07857916, 0.6579095, 0.025757387, 0.7485467, -2.8827908, -1.2567558, -0.41168022, 0
531, 2848518757, -0.07817422, 0.65773994, 0.027294032, 0.74868363, -2.8848999, -1.3167348, 0.5150461, 0
532, 2848535424, -0.07756518, 0.6576737, 0.028916143, 0.74874413, -2.6807883, -1.4720826, -0.01643467, 0
533, 2848552091, -0.0768002, 0.65762997, 0.0309451, 0.74878037, -2.0265949, -0.87777513, -1.683897, 0
534, 2848568758, -0.07590926, 0.65760523, 0.033245683, 0.7487943, -2.4207282, -0.43583786, -1.7940626, 0
535, 2848585425, -0.07486063, 0.65772676, 0.035610087, 0.74868435, -2.8930087, -0.8717894, -0.74790287, 0
536, 2848602092, -0.07362656, 0.6579942, 0.038058236, 0.74845123, -2.0135396, -0.4281526, -2.3095016, 0
537, 2848618759, -0.07226269, 0.65846765, 0.04073055, 0.748027, -1.6734358, -0.25382298, -1.8653522, 0
538, 2848635426, -0.0707124, 0.6590151, 0.043693624, 0.7475258, -1.482183, -0.027383689, -0.92550373, 0
539, 2848652093, -0.06886719, 0.65971655, 0.04677704, 0.7468924, -0.59186006, -0.53010744, -0.9680939, 0
540, 2848668760, -0.0667319, 0.66037035, 0.04985205, 0.7463094, -0.5196818, -0.72501373, 2.9640017, 0
541, 2848685427, -0.06470162, 0.66078967, 0.052534215, 0.74593294, -0.17022026, 0.8507382, 3.4536247, 0
542, 2848702094, -0.06312859, 0.66102934, 0.05471553, 0.7456986, 0.2699549, 0.18518674, 1.8275366, 0
543, 2848718761, -0.061902523, 0.66118985, 0.056736864, 0.7455079, 0.55682796, -0.7970727, -0.11627579, 0
544, 2848735428, -0.060800254, 0.6613378, 0.05859968, 0.74532324, 0.1506386, 0.1540144, -0.6264429, 0
545, 2848752095, -0.059793547, 0.6614123, 0.060047433, 0.74522334, -2.8006174E-4, 1.0053611, 1.0998554, 0
546, 2848768762, -0.058999076, 0.6614279, 0.061189756, 0.74517983, 0.30658942, 1.241284, 1.167983, 0
547, 2848785429, -0.058582276, 0.66136104, 0.061970957, 0.74520755, 1.6136856, 1.4123107, 1.544508, 0
548, 2848802096, -0.05835645, 0.6612157, 0.062235214, 0.7453322, 1.5870883, 0.40469524, 0.7015505, 0
549, 2848818763, -0.058122933, 0.6610656, 0.061912805, 0.7455106, 2.1752758, 0.69199944, -0.2241869, 0
550, 2848835430, -0.057826087, 0.66072184, 0.061025813, 0.7459113, 1.36526, 1.0083714, 0.50557804, 0
551, 2848852097, -0.057585746, 0.6605355, 0.060119048, 0.7461686, 0.71097463, 1.4303808, 0.8213644, 0
552, 2848868764, -0.057443082, 0.6603587, 0.059420586, 0.74639195, 0.7545092, 2.6814528, 0.09493542, 0
553, 2848885431, -0.057328, 0.6600755, 0.05848656, 0.7467251, 0.7683026, 2.1993978, -0.5026541, 0
554, 2848902098, -0.057089537, 0.65983266, 0.05736895, 0.74704444, 1.4581683, 0.53725284, -0.08111477, 0
555, 2848918765, -0.056689814, 0.6596699, 0.056441635, 0.7472892, 1.5720446, 0.08175964, -0.49597168, 0
556, 2848935432, -0.056282684, 0.6596955, 0.05558051, 0.7473621, 1.2859823, 1.1004308, 0.3616476, 0
557, 2848952099, -0.05608934, 0.659692, 0.054607913, 0.7474513, 1.6530318, 1.6448363, 0.39035416, 0
558, 2848968766, -0.05604358, 0.6596162, 0.053529814, 0.7475996, 2.0165663, 0.49366212, 0.61450005, 0
559, 2848985433, -0.056012437, 0.65954036, 0.052697867, 0.747728, 1.7708484, 0.13649556, -0.51578045, 0
560, 2849002100, -0.056046456, 0.65946007, 0.052125312, 0.7478363, 1.1598079, 0.46680725, -0.24356174, 0
561, 2849018767, -0.056191683, 0.659523, 0.051425286, 0.74781835, 0.6086445, 0.43672833, 0.65546703, 0
562, 2849035434, -0.056466952, 0.6596436, 0.05058536, 0.74774873, 0.8633784, -0.25150862, 0.3094616, 0
563, 2849052101, -0.056836337, 0.65967757, 0.049982466, 0.74773115, 1.0383782, -0.48801225, 0.695837, 0
564, 2849068768, -0.057211563, 0.6596197, 0.04964523, 0.74777603, 0.58928597, -0.023192039, -0.49765587, 0
565, 2849085435, -0.057593733, 0.65953046, 0.04945834, 0.7478379, -0.23729667, -0.13070029, -0.27547455, 0
566, 2849102102, -0.05804807, 0.6594775, 0.04928357, 0.7478611, -0.96126956, -1.1392802, -0.8907404, 0
567, 2849118769, -0.058628947, 0.6595246, 0.049054354, 0.74778914, -0.92925936, -1.5384856, 0.09741402, 0
568, 2849135436, -0.05937347, 0.659516, 0.048875295, 0.7477497, -0.87764627, -1.6031315, 0.41626072, 0
569, 2849152103, -0.06025514, 0.659523, 0.04881274, 0.74767715, -0.82786536, -1.2452729, 0.43371487, 0
570, 2849168770, -0.061252624, 0.65954655, 0.048842974, 0.7475733, -1.0781547, -0.67880833, -0.8121338, 0
571, 2849185437, -0.062267706, 0.6596057, 0.04901941, 0.7474257, -1.009515, -1.1830058, -0.2331171, 0
572, 2849202104, -0.06317498, 0.65962976, 0.049566053, 0.74729216, -0.59039026, -1.1715944, -0.4842472, 0
573, 2849218771, -0.06398803, 0.6596662, 0.05037459, 0.74713695, -0.9986429, -0.4927598, 0.32957554, 0
574, 2849235438, -0.06477097, 0.65982395, 0.05120352, 0.74687374, -0.9663227, -0.44913566, -0.6167755, 0
575, 2849252105, -0.06544936, 0.66000926, 0.05204589, 0.74659276, -0.6733487, -0.5174747, -0.27471924, 0
576, 2849268772, -0.06607413, 0.660228, 0.05306235, 0.74627244, -0.5078774, -0.24051659, 0.44367695, 0
577, 2849285439, -0.06666164, 0.6604374, 0.05404196, 0.7459646, -0.3090662, 0.6375891, -0.04386139, 0
578, 2849302106, -0.06710546, 0.6605891, 0.05479858, 0.74573547, -0.24362877, -0.17520699, 0.28739452, 0
579, 2849318773, -0.06741999, 0.66064626, 0.05559256, 0.7455975, 0.29147282, -0.12379712, -0.06282139, 0
580, 2849335440, -0.06768909, 0.6605712, 0.05653339, 0.7455689, 0.066092834, 0.87882286, 0.73215103, 0
581, 2849352107, -0.06793025, 0.66042817, 0.057317518, 0.7456139, -0.18460265, 1.0493288, 1.203125, 0
582, 2849368774, -0.06809008, 0.6603105, 0.05792644, 0.7456563, -0.106696926, 0.89604, -0.2824402, 0
583, 2849385441, -0.06812598, 0.6600978, 0.0585199, 0.7457949, -0.029610299, 0.45735645, 0.06423664, 0
584, 2849402108, -0.06809831, 0.6599235, 0.059107505, 0.74590534, -1.1501495, -0.08380048, -0.5694933, 0
585, 2849418775, -0.06798853, 0.6598508, 0.059523925, 0.74594676, -1.4888204, -0.02920912, -1.1272907, 0
586, 2849435442, -0.06778081, 0.6597789, 0.059871078, 0.74600136, -1.425959, -1.0982556, 1.2145281, 0
587, 2849452109, -0.0675372, 0.6596727, 0.060141988, 0.74609554, -1.1518164, 0.042979084, -0.25750732, 0
588, 2849468776, -0.06738724, 0.65938354, 0.060296513, 0.74635226, -0.80452394, 0.4433937, 0.96419907, 0
589, 2849485443, -0.06737545, 0.65904635, 0.060403943, 0.7466424, -1.702791, -1.1925948, -0.24214458, 0
590, 2849502110, -0.06751661, 0.6589389, 0.060430154, 0.74672234, -2.9273765, -1.077044, -1.9610267, 0
591, 2849518777, -0.06784581, 0.6589209, 0.06020131, 0.74672693, -3.4801896, -2.1392238, -1.3419514, 0
592, 2849535444, -0.068167925, 0.65903026, 0.059853107, 0.74662906, -3.2802007, -3.2980015, -0.29278374, 0
593, 2849552111, -0.068393126, 0.6591266, 0.05961664, 0.7465424, -2.0069392, -1.5546075, -1.2419109, 0
594, 2849568778, -0.0686792, 0.6590383, 0.05937612, 0.7466131, -2.0152311, -0.0683915, 1.1512747, 0
595, 2849585445, -0.069062576, 0.65890646, 0.059003577, 0.7467237, -2.3602319, 0.009259807, 0.5024624, 0
596, 2849602112, -0.06947482, 0.6587945, 0.05843264, 0.7468291, -3.21208, -0.043859277, -1.6981688, 0
597, 2849618779, -0.069808826, 0.65877175, 0.05801946, 0.7468503, -3.690902, -2.2656426, -0.838912, 0
598, 2849635446, -0.069778636, 0.658819, 0.05807416, 0.74680704, -2.8262908, -3.1745777, -0.36390305, 0
599, 2849652113, -0.069355935, 0.65862566, 0.058393344, 0.746992, -2.0124805, -0.97124606, 2.4480944, 0
600, 2849668780, -0.068767264, 0.6581034, 0.058793508, 0.74747527, -1.8770933, 0.31399882, 3.17025, 0
601, 2849685447, -0.068149954, 0.65752906, 0.059503607, 0.74798095, -1.8045548, 1.1480328, -0.12736607, 0
602, 2849702114, -0.067436054, 0.65718687, 0.060550235, 0.7482624, -3.9886742, -0.2896011, -4.9037924, 0
603, 2849718781, -0.06634763, 0.6573421, 0.061931968, 0.7481102, -3.3340778, -2.4095876, -6.2209044, 0
604, 2849735448, -0.06475727, 0.6577184, 0.06347659, 0.74778914, -2.6451607, -2.9740956, 0.45102692, 0
605, 2849752115, -0.06287581, 0.6581417, 0.0651844, 0.74743026, 0.3411064, -2.0010657, 3.6496134, 0
606, 2849768782, -0.061321452, 0.65791357, 0.06642434, 0.7476511, 1.9516295, 2.471164, 4.301853, 0
607, 2849785449, -0.060864583, 0.65713525, 0.06636053, 0.7483782, 2.0955582, 4.823584, -1.504489, 0
608, 2849802116, -0.06135331, 0.65674007, 0.065250225, 0.74878275, -0.19445671, 0.6307176, -2.948484, 0
609, 2849818783, -0.061718434, 0.65681285, 0.06398734, 0.74879795, -1.2261713, -2.199011, 0.47778416, 0
610, 2849835450, -0.061515167, 0.6571172, 0.06285822, 0.7486435, -0.762925, -0.02153972, -0.40430546, 0
611, 2849852117, -0.06092149, 0.65715045, 0.06172958, 0.74875665, 0.30670822, 3.615052, 1.3571024, 0
612, 2849868784, -0.060116917, 0.6570326, 0.060756452, 0.74900466, -0.5341775, 3.5347373, 0.31490135, 0
613, 2849885451, -0.059223756, 0.65705717, 0.06046667, 0.7490776, 0.021516195, 2.1758544, -1.1659927, 0
614, 2849902118, -0.057958126, 0.657226, 0.060679294, 0.74901146, -1.095362, -0.03826592, -3.5045667, 0
615, 2849918785, -0.056185305, 0.6577777, 0.060744368, 0.7486569, -2.3339472, -0.96747655, -0.38289165, 0
616, 2849935452, -0.05405748, 0.65856004, 0.060771182, 0.7481232, -2.1104531, -1.9744649, -0.5430126, 0
617, 2849952119, -0.051817343, 0.65923965, 0.0611317, 0.74765354, -1.6011852, 0.1463441, 1.0000057, 0
618, 2849968786, -0.049800694, 0.659627, 0.061496094, 0.7474192, -2.1232626, 1.330857, 0.07142162, 0
619, 2849985453, -0.04821466, 0.6599759, 0.06133189, 0.74722856, -2.5313683, 0.38864747, 0.88312435, 0
620, 2850002120, -0.04700853, 0.6604887, 0.06034731, 0.74693227, -2.928916, -1.3489294, 0.6980839, 0
621, 2850018787, -0.046008825, 0.6611207, 0.058840305, 0.74655586, -1.5440787, -1.5495312, -0.48547935, 0
622, 2850035454, -0.045131966, 0.6615755, 0.056901686, 0.7463566, -0.93258095, 0.65022475, 0.7414217, 0
623, 2850052121, -0.04444468, 0.6618951, 0.05432421, 0.7463066, 0.24959384, 2.9411993, 1.867692, 0
624, 2850068788, -0.04398991, 0.6620114, 0.051368877, 0.74643964, 1.4659086, 2.6248994, 2.1658802, 0
625, 2850085455, -0.043499127, 0.6619675, 0.048806727, 0.7466792, 2.1528585, 1.706382, 1.5806494, 0
626, 2850102122, -0.042796746, 0.66184175, 0.046808153, 0.74695915, 1.904796, 1.668832, 0.016475677, 0
627, 2850118789, -0.041703463, 0.6617709, 0.04520671, 0.74718237, 2.8797934, 1.0283228, 0.2541399, 0
628, 2850135456, -0.04035099, 0.6615797, 0.044206396, 0.7474857, 2.9999993, 0.41295618, -0.19980907, 0
629, 2850152123, -0.039048225, 0.66142094, 0.043749526, 0.7477222, 2.8603897, 0.47192666, 0.6376381, 0
630, 2850168790, -0.03790362, 0.6612892, 0.04349765, 0.74791235, 2.2962842, 0.9475959, 0.06241989, 0
631, 2850185457, -0.03704059, 0.66125053, 0.043028638, 0.7480169, 2.1696305, 0.97158587, -0.38764, 0
632, 2850202124, -0.036536068, 0.66117144, 0.04228644, 0.7481541, 2.4469895, -0.019725187, -0.55874825, 0
633, 2850218791, -0.036277667, 0.6611345, 0.04160563, 0.7482374, 2.0545492, -0.9915322, 0.48614502, 0
634, 2850235458, -0.036296844, 0.66132945, 0.04113759, 0.74809015, 1.895696, -0.93391865, -1.4031591, 0
635, 2850252125, -0.036561698, 0.66159004, 0.04066898, 0.7478723, 0.7035075, 0.34474304, 0.5206022, 0
636, 2850268792, -0.037179023, 0.66191053, 0.039860137, 0.74760175, 0.43343782, 0.5310609, -0.10848427, 0
637, 2850285459, -0.03793092, 0.66216004, 0.03888584, 0.74739444, 0.87205803, 0.29281864, 0.29063988, 0
638, 2850302126, -0.038763657, 0.66228235, 0.037975565, 0.7472902, 0.7446925, -0.30861506, 0.917469, 0
639, 2850318793, -0.03960359, 0.66238, 0.037106648, 0.74720293, 0.6990196, -0.23203965, 0.39779472, 0
640, 2850335460, -0.040491164, 0.6623188, 0.03627912, 0.7472504, 0.90891176, -0.22369705, -0.13162136, 0
641, 2850352127, -0.04137735, 0.66219664, 0.03565295, 0.74734026, 0.77405834, -0.32285932, 0.66227245, 0
642, 2850368794, -0.042258605, 0.6620657, 0.035326317, 0.7474225, 0.84132034, -0.401707, 0.35795975, 0
643, 2850385461, -0.043081194, 0.6619824, 0.035216294, 0.74745446, -0.0982461, 0.5493115, 0.037011147, 0
644, 2850402128, -0.04388833, 0.6620093, 0.03512568, 0.747388, -0.6339544, 0.45848915, -0.89795876, 0
645, 2850418795, -0.04467173, 0.66211516, 0.03508743, 0.7472496, -0.24605334, -0.37801585, 0.31519794, 0
646, 2850435462, -0.045365095, 0.662244, 0.03520453, 0.74708813, 0.18868178, -1.1525553, -0.36116123, 0
647, 2850452129, -0.04593323, 0.6622724, 0.035591975, 0.74701005, 0.48784932, -0.7705559, -0.001914978, 0
648, 2850468796, -0.046327695, 0.66204894, 0.03623783, 0.7471524, 0.1649721, -0.26256156, 0.08784962, 0
649, 2850485463, -0.04657802, 0.6618151, 0.03700211, 0.7473066, -0.62092483, 0.097413205, 0.005794525, 0
650, 2850502130, -0.046805546, 0.6617077, 0.037749536, 0.74735004, -0.9566178, -0.28951913, -0.5480881, 0
651, 2850518797, -0.0472517, 0.66172504, 0.038586333, 0.747264, -0.6224604, -0.9101726, -0.03114605, 0
652, 2850535464, -0.0479196, 0.66178876, 0.039408736, 0.7471221, -0.120909564, -1.2316011, -1.2832594, 0
653, 2850552131, -0.048751935, 0.6617296, 0.039958328, 0.7470913, 0.6749577, -0.6676177, 1.2732, 0
654, 2850568798, -0.04958494, 0.66148925, 0.04043664, 0.7472236, 0.78062826, -1.0038369, 1.2507572, 0
655, 2850585465, -0.050271183, 0.66116214, 0.041040964, 0.74743426, 0.50807106, 0.1389637, 0.91662216, 0
656, 2850602132, -0.05106166, 0.66075045, 0.04169984, 0.7477083, -0.75981116, 0.7809136, -0.64865494, 0
657, 2850618799, -0.052055657, 0.6605855, 0.04211916, 0.747762, -1.3818367, 0.5654703, -0.74701405, 0
658, 2850635466, -0.05310978, 0.66052413, 0.042367928, 0.74772805, -0.45801812, -1.2299793, -0.84097195, 0
659, 2850652133, -0.053886354, 0.660272, 0.042928733, 0.7478632, 0.39510053, -2.0794773, 0.49489594, 0
660, 2850668800, -0.054362625, 0.6600219, 0.043897398, 0.74799323, -0.69247454, -0.5043427, -0.7066603, 0
661, 2850685467, -0.05480714, 0.6597863, 0.0448154, 0.7481142, -0.7440021, 0.84813106, 0.5904188, 0
662, 2850702134, -0.055305958, 0.6595582, 0.045501247, 0.74823725, -1.5085512, -0.6300677, 0.43938828, 0
663, 2850718801, -0.05593255, 0.6594632, 0.04611955, 0.74823666, -1.9705635, -1.262942, -0.7673969, 0
664, 2850735468, -0.05660568, 0.6595206, 0.04679914, 0.74809307, -2.4623365, -2.7372873, 0.20851517, 0
665, 2850752135, -0.05714166, 0.6597801, 0.047503732, 0.7477792, -2.2007558, -2.5196657, -0.098443985, 0
666, 2850768802, -0.057683334, 0.66012007, 0.048178047, 0.74739414, -2.4368055, -1.9019802, 1.1846294, 0
667, 2850785469, -0.05836384, 0.6604367, 0.048852563, 0.7470178, -1.4072206, -1.1047534, 0.10343361, 0
668, 2850802136, -0.05921124, 0.6604402, 0.049429134, 0.74691004, -1.6792463, -0.2714462, 0.17863178, 0
669, 2850818803, -0.060468063, 0.6603592, 0.049715735, 0.7468619, -3.1095376, -0.73933816, -1.9106679, 0
670, 2850835470, -0.062127545, 0.6603258, 0.049574353, 0.7467646, -2.9462976, -2.242106, -2.9305053, 0
671, 2850852137, -0.06379782, 0.6602225, 0.049460597, 0.74672276, -2.175322, -3.6305137, -0.794014, 0
672, 2850868804, -0.06527281, 0.6601176, 0.049689926, 0.7466729, -1.3471326, -2.863709, 1.2022305, 0
673, 2850885471, -0.06649718, 0.65974045, 0.049854405, 0.746887, -1.0993402, -0.79472715, 1.2008181, 0
674, 2850902138, -0.06761585, 0.6593903, 0.049840026, 0.74709666, -1.8149763, 0.2930322, 0.89851665, 0
675, 2850918805, -0.06881957, 0.65931445, 0.04985615, 0.7470528, -3.4243631, 0.48175156, -1.8413968, 0
676, 2850935472, -0.070132256, 0.6595733, 0.04995189, 0.74669564, -3.6688406, -0.13926086, -3.4911141, 0
677, 2850952139, -0.071193844, 0.6598076, 0.050349213, 0.7463615, -2.219885, -2.0649338, -1.4935837, 0
678, 2850968806, -0.071725026, 0.660099, 0.051146723, 0.7459985, -1.1007011, -3.0393975, 2.4646711, 0
679, 2850985473, -0.07176843, 0.66024613, 0.052237242, 0.7457886, 0.26440248, -1.3199735, 1.5716906, 0
680, 2851002140, -0.071762025, 0.6600337, 0.053294837, 0.74590254, -0.25682572, 1.9305944, 1.6202917, 0
681, 2851018807, -0.072066635, 0.6599176, 0.05410645, 0.74591744, -3.0857859, 1.5587851, -2.7029219, 0
682, 2851035474, -0.07239194, 0.6603621, 0.054803595, 0.7454413, -3.7451496, -1.1332673, -4.2860217, 0
683, 2851052141, -0.07222946, 0.6606898, 0.055818968, 0.74509126, -1.3042266, -3.705212, -0.705286, 0
684, 2851068808, -0.07137945, 0.66087294, 0.057421222, 0.7448891, -0.6763455, -2.5647752, 4.594162, 0
685, 2851085475, -0.07034767, 0.66047966, 0.059013613, 0.74521166, 1.0109215, 2.6115549, 5.1755657, 0
686, 2851102142, -0.06963347, 0.6596562, 0.059965968, 0.7459316, 0.9923323, 3.592359, 1.4689102, 0
687, 2851118809, -0.06912415, 0.6596693, 0.060507737, 0.7459239, -1.7892128, 1.2208452, -5.7716703, 0
688, 2851135476, -0.0686003, 0.66020995, 0.060961343, 0.7454566, -1.2805675, 0.017011572, -3.4614148, 0
689, 2851152143, -0.067669496, 0.660713, 0.061505176, 0.74505126, 0.9956896, 0.024559246, -0.3753538, 0
690, 2851168810, -0.06643231, 0.6609982, 0.061972663, 0.7448707, 1.2970542, 2.41935, 2.0160093, 0
691, 2851185477, -0.06526078, 0.6611269, 0.062014677, 0.7448566, 0.85308063, 4.2994056, 1.097086, 0
692, 2851202144, -0.0643055, 0.66110784, 0.061516613, 0.74499804, 1.6498611, 4.6603694, 0.1853323, 0
693, 2851218811, -0.0634149, 0.6610832, 0.06048993, 0.74518025, -0.048073612, 2.7377517, -0.4528513, 0
694, 2851235478, -0.062128246, 0.6617418, 0.059430957, 0.7447891, -2.104005, -0.69396627, -1.2841759, 0
695, 2851252145, -0.06035921, 0.6625089, 0.05851896, 0.7443248, -1.4331832, -0.30351222, -3.4966822, 0
696, 2851268812, -0.058471635, 0.6631731, 0.057668455, 0.74395025, -1.6087506, 0.8608398, 0.6628361, 0
697, 2851285479, -0.05667129, 0.663843, 0.057024784, 0.7435417, 0.40600187, 0.34845492, 2.0835905, 0
698, 2851302146, -0.05516337, 0.6637539, 0.056259677, 0.7437929, 2.9146078, 2.6333222, 2.5057316, 0
699, 2851318813, -0.05404842, 0.6630872, 0.055117622, 0.74455446, 2.6209016, 1.4510449, 3.1678324, 0
700, 2851335480, -0.053080097, 0.6624397, 0.054250762, 0.74526376, 3.0567856, 0.16846931, 1.0183125, 0
701, 2851352147, -0.05220817, 0.66191936, 0.053916447, 0.7458116, 2.7523215, -0.28819174, -0.6719303, 0
702, 2851368814, -0.051590055, 0.6617116, 0.05399414, 0.74603343, 2.1694646, 0.37622818, -0.07576752, 0
703, 2851385481, -0.05127558, 0.66176504, 0.0540566, 0.74600315, 2.4529324, 0.49259064, 0.9344902, 0
704, 2851402148, -0.051129818, 0.6617649, 0.053841144, 0.74602896, 2.849533, 0.6878025, 0.25334454, 0
705, 2851418815, -0.051182017, 0.6617392, 0.05370765, 0.74605787, 2.267559, 0.549006, 0.7941532, 0
706, 2851435482, -0.051336482, 0.6616063, 0.05374828, 0.7461621, 2.3461924, 0.72130466, -0.120018005, 0
707, 2851452149, -0.051504716, 0.66146594, 0.053664133, 0.746281, 1.4385064, 0.6111859, 0.15299034, 0
708, 2851468816, -0.05155596, 0.6612655, 0.053445697, 0.74647087, 1.6783098, 0.45067933, 0.042869568, 0
709, 2851485483, -0.05157791, 0.66091204, 0.053216167, 0.74679863, 1.4925624, 0.5693451, -0.5666523, 0
710, 2851502150, -0.051725715, 0.66052336, 0.053025752, 0.7471456, 1.3299369, 0.878731, 0.37212658, 0
711, 2851518817, -0.052073196, 0.6602969, 0.05290492, 0.74733025, -0.20340165, 0.38219643, 1.4681101, 0
712, 2851535484, -0.052434087, 0.66045094, 0.052710094, 0.74718255, -0.36071405, 0.47566813, 0.25154495, 0
713, 2851552151, -0.05277157, 0.66053617, 0.05237159, 0.7471073, 0.66438836, 0.54463714, -0.9434595, 0
714, 2851568818, -0.0531168, 0.6605531, 0.05211573, 0.7470858, 0.58815587, 0.4629276, -1.3388271, 0
715, 2851585485, -0.053572252, 0.6605339, 0.05195126, 0.74708164, 1.1218473, 0.40727213, 0.49076366, 0
716, 2851602152, -0.05391425, 0.66051733, 0.05170183, 0.747089, 0.3999674, -0.42836627, 1.4636116, 0
717, 2851618819, -0.054167554, 0.6606861, 0.05129146, 0.74694985, 0.60211426, -0.024618387, 0.56959915, 0
718, 2851635486, -0.054469645, 0.6607283, 0.0509134, 0.74691635, 0.48870236, -0.024520712, -0.42531013, 0
719, 2851652153, -0.054886892, 0.66072845, 0.050771892, 0.7468954, 0.94910103, 0.072677694, 0.3196211, 0
720, 2851668820, -0.055432588, 0.66069096, 0.05069778, 0.74689317, 0.6496412, 0.016487433, -0.0035772324, 0
721, 2851685487, -0.056223005, 0.66069657, 0.05049075, 0.7468431, 0.49969327, 0.26289582, -0.7958822, 0
722, 2851702154, -0.057173625, 0.660867, 0.0502884, 0.74663377, 0.15675583, -0.57681316, 0.38468933, 0
723, 2851718821, -0.058073416, 0.66128355, 0.0502531, 0.7461977, -0.050147157, -0.9385284, 0.45374107, 0
724, 2851735488, -0.058882594, 0.6615502, 0.05020088, 0.7459016, 0.28344044, -0.4498701, 0.08904648, 0
725, 2851752155, -0.059720397, 0.66170156, 0.050046787, 0.7457111, -0.62928855, 0.3409041, 0.19821835, 0
726, 2851768822, -0.060625374, 0.6618025, 0.049811944, 0.74556416, -0.106801, 0.52137244, -0.69909286, 0
727, 2851785489, -0.06139776, 0.6617333, 0.049749553, 0.7455664, 0.0960729, -0.365931, -0.39252663, 0
728, 2851802156, -0.061871037, 0.6617476, 0.049933724, 0.7455024, -0.5411991, -0.18795808, 1.0960169, 0
729, 2851818823, -0.062206432, 0.66177505, 0.05023586, 0.7454298, -0.7099531, -0.48924226, 0.46235085, 0
730, 2851835490, -0.062457025, 0.6616917, 0.050784826, 0.7454457, -0.5314521, -0.9461273, -0.87303066, 0
731, 2851852157, -0.062761694, 0.66155005, 0.05158604, 0.7454908, -0.7406527, -0.21544637, -0.41011333, 0
732, 2851868824, -0.06317598, 0.6614234, 0.052442633, 0.7455085, -0.6486137, -0.38089177, -0.35896683, 0
733, 2851885491, -0.06361389, 0.6615702, 0.05321551, 0.74528617, -1.0355165, -1.1996717, 0.9275007, 0
734, 2851902158, -0.06403898, 0.66177815, 0.053943798, 0.7450127, 0.15973158, -1.5067987, -1.3978939, 0
735, 2851918825, -0.06447932, 0.66178644, 0.054767974, 0.74490714, 0.67956036, -0.7925613, 0.44904995, 0
736, 2851935492, -0.06506911, 0.6617029, 0.055711895, 0.7448601, 0.6003921, -0.30581656, -0.14968681, 0
737, 2851952159, -0.06582421, 0.66154104, 0.056528017, 0.74487597, 0.1913469, 0.45340317, 0.3373556, 0
738, 2851968826, -0.06661007, 0.66158336, 0.057041727, 0.7447294, -0.49906102, 0.07584331, 0.16230679, 0
739, 2851985493, -0.067333385, 0.66166973, 0.057588622, 0.7445455, -0.19996841, -0.8375379, -0.8453722, 0
740, 2852002160, -0.067852005, 0.66169477, 0.05830776, 0.7444202, 0.29877064, -0.7867883, 0.8581619, 0
741, 2852018827, -0.06820983, 0.6616726, 0.059240296, 0.7443335, 0.2574303, 0.24224691, 1.2418251, 0
742, 2852035494, -0.06848881, 0.6615192, 0.060230404, 0.7443648, 0.1944194, 0.94385666, 1.1478319, 0
743, 2852052161, -0.06856944, 0.6613468, 0.061385192, 0.74441636, -0.39088959, 0.18401252, 1.2610617, 0
744, 2852068828, -0.06847949, 0.66116637, 0.06285039, 0.7444625, -1.090247, -0.06631953, -1.6878614, 0
745, 2852085495, -0.06833315, 0.66101795, 0.06446883, 0.74446934, -0.43551588, 0.5272378, -1.5929852, 0
746, 2852102162, -0.068074316, 0.6607528, 0.06595155, 0.7445987, 0.23774867, -0.51433057, 1.2688942, 0
747, 2852118829, -0.06766227, 0.66050416, 0.06723358, 0.744742, 0.4004306, -0.06895162, -0.7065897, 0
748, 2852135496, -0.06720224, 0.6602628, 0.06853419, 0.74487925, 0.022045307, 0.76367044, 0.2557373, 0
749, 2852152163, -0.0668021, 0.6601463, 0.06982745, 0.7448983, -0.5471603, -0.3577382, -0.09992027, 0
750, 2852168830, -0.066359535, 0.66015196, 0.07081781, 0.7448396, -0.73004794, 0.061710473, -0.20251656, 0
751, 2852185497, -0.06602503, 0.66027296, 0.07141092, 0.74470526, -1.6400747, 0.22021234, 0.17170906, 0
752, 2852202164, -0.06582795, 0.6604637, 0.07177439, 0.74451864, -0.7312231, 0.16827582, 0.0072107315, 0
753, 2852218831, -0.0656624, 0.66053945, 0.07195344, 0.7444487, 0.004365348, 0.48149082, -0.5522852, 0
754, 2852235498, -0.06542915, 0.6604876, 0.071964055, 0.7445142, -0.13831806, 0.5218375, 0.62592506, 0
755, 2852252165, -0.06512135, 0.66047746, 0.07196897, 0.7445497, -1.2597154, 0.23308423, -0.29045773, 0
756, 2852268832, -0.0647192, 0.6605145, 0.07197056, 0.74455184, -1.8044903, 0.23476672, -0.8588724, 0
757, 2852285499, -0.064227045, 0.6606678, 0.07173406, 0.74448115, -1.9674487, 0.22636051, -0.46764374, 0
758, 2852302166, -0.06367549, 0.66086686, 0.07113248, 0.7444097, -1.0662194, -0.20047648, 0.71712685, 0
759, 2852318833, -0.063112706, 0.66097414, 0.070460685, 0.7444262, -0.4573488, -0.12759852, 0.5643053, 0
760, 2852335500, -0.062674046, 0.66093546, 0.06984253, 0.7445558, -0.7273218, 0.6041847, 0.50825024, 0
761, 2852352167, -0.062394544, 0.6608543, 0.06908676, 0.7447219, -0.80315775, 0.75957924, 0.5119705, 0
762, 2852368834, -0.06219448, 0.6608268, 0.068162955, 0.7448481, -2.0972946, -0.51811534, -1.0815592, 0
763, 2852385501, -0.062089816, 0.66086143, 0.0669896, 0.7449327, -2.529034, -0.5325138, -0.7927704, 0
764, 2852402168, -0.062029198, 0.6609318, 0.065630004, 0.7449962, -2.8993814, -1.6835467, -0.48853874, 0
765, 2852418835, -0.062049165, 0.66105044, 0.06427562, 0.74500734, -2.2339184, -1.2198266, -0.4693079, 0
766, 2852435502, -0.062112257, 0.6609286, 0.06295075, 0.74522334, -1.9225111, -0.75915194, 0.86312866, 0
767, 2852452169, -0.062051773, 0.660865, 0.06173362, 0.7453865, -1.5311806, -0.23718569, 0.8449974, 0
768, 2852468836, -0.061855584, 0.660994, 0.06086818, 0.7453596, -3.5154705, -1.4612676, -2.797081, 0
769, 2852485503, -0.061549142, 0.66123194, 0.060042195, 0.7452409, -4.4378815, -0.78936577, -5.311893, 0
770, 2852502170, -0.061110362, 0.6612871, 0.059221044, 0.7452938, -3.8945684, -2.6481845, -0.7061472, 0
771, 2852518837, -0.060197726, 0.6615655, 0.059172176, 0.74512494, -3.8325458, -4.221527, 5.1302977, 0
772, 2852535504, -0.059056103, 0.66121954, 0.05954656, 0.74549353, -1.3132964, 0.2811205, 5.4406757, 0
773, 2852552171, -0.05820769, 0.65991265, 0.059739627, 0.74670166, -1.0164945, 3.0118706, 2.493163, 0
774, 2852568838, -0.05774404, 0.65891486, 0.05980762, 0.74761295, -1.711259, 2.6557846, -8.05778, 0
775, 2852585505, -0.057278246, 0.658707, 0.059738614, 0.74783736, -1.4519928, -1.6759866, -5.5593624, 0
776, 2852602172, -0.056109264, 0.658649, 0.05992242, 0.7479623, 0.07264691, -3.2701325, -0.82934475, 0
777, 2852618839, -0.05426961, 0.65881866, 0.060785815, 0.7478789, 2.6320467, -0.7710216, 2.927928, 0
778, 2852635506, -0.052363083, 0.6588878, 0.061697304, 0.7478793, 2.0541072, 3.230024, 2.725648, 0
779, 2852652173, -0.050963983, 0.65902156, 0.062096313, 0.7478251, 3.1871266, 5.5865192, -1.084754, 0
780, 2852668840, -0.05020964, 0.6590093, 0.061975658, 0.74789697, 2.6269097, 3.1820467, -1.6644487, 0
781, 2852685507, -0.049650908, 0.6592522, 0.061809003, 0.7477339, 1.1762216, -0.66025925, -2.3181348, 0
782, 2852702174, -0.04895346, 0.6599817, 0.061842084, 0.74713343, 0.49591333, -0.9107807, -1.3424902, 0
783, 2852718841, -0.048041373, 0.6607755, 0.06163127, 0.7465082, -0.5255351, -0.26574695, 2.3217173, 0
784, 2852735508, -0.04709716, 0.6614782, 0.060927466, 0.74600357, -0.47658852, 1.0748707, 2.5062733, 0
785, 2852752175, -0.04640822, 0.6616822, 0.06043119, 0.74590623, 1.3625311, 2.1105173, 3.206396, 0
786, 2852768842, -0.04586795, 0.6616764, 0.060437262, 0.74594426, -0.07491188, 1.0285343, 2.9102488, 0
787, 2852785509, -0.04524137, 0.661688, 0.06051176, 0.74596626, 0.12387306, 0.9109615, -1.2877512, 0
788, 2852802176, -0.04443285, 0.66154546, 0.060474522, 0.74614424, -0.29672286, 0.29781413, -1.6518517, 0
789, 2852818843, -0.043394282, 0.66156864, 0.06072171, 0.7461648, 0.61809045, -0.20045662, 0.19507504, 0
790, 2852835510, -0.04231766, 0.66152114, 0.061382763, 0.7462147, 1.9935383, 1.2465243, 0.74378014, 0
791, 2852852177, -0.041294843, 0.6613068, 0.0619573, 0.74641436, 2.6090362, 3.0111954, 1.0125446, 0
792, 2852868844, -0.040208608, 0.66106313, 0.06222058, 0.7466675, 2.9152274, 1.7689106, 1.5151577, 0
793, 2852885511, -0.038765892, 0.66081154, 0.062572904, 0.74693716, 2.9565942, 1.4126616, -0.58183384, 0
794, 2852902178, -0.037095517, 0.6605652, 0.06328534, 0.7471796, 2.2935643, 2.0729017, -0.44613647, 0
795, 2852918845, -0.03525476, 0.66051537, 0.064241566, 0.7472313, 0.712106, 2.4520562, -0.17393112, 0
796, 2852935512, -0.033367947, 0.66067344, 0.0648801, 0.7471229, 1.2048812, 2.629743, -0.1968298, 0
797, 2852952179, -0.031475127, 0.66066015, 0.065240934, 0.74718547, 2.4557626, 2.2515523, 1.0438528, 0
798, 2852968846, -0.02937159, 0.66047156, 0.06583244, 0.74738616, 2.2549193, 0.5310857, 1.6200037, 0
799, 2852985513, -0.027131096, 0.6601629, 0.06655135, 0.74767953, 1.8982258, 1.7942137, -0.7052517, 0
800, 2853002180, -0.025091618, 0.6599033, 0.066673316, 0.7479692, -0.8307144, 2.2489946, 0.7777462, 0
801, 2853018847, -0.023229554, 0.66006595, 0.06612103, 0.7479347, -0.88711303, 0.89796984, -0.1397028, 0
802, 2853035514, -0.021425903, 0.6602324, 0.06525973, 0.7479172, 0.28331056, 1.2253581, -1.1488733, 0
803, 2853052181, -0.019708306, 0.66028666, 0.06392453, 0.748032, -0.62520677, 3.068343, 0.6390238, 0
804, 2853068848, -0.01808159, 0.66049784, 0.062020667, 0.7480468, -0.42460376, 1.9907054, 1.3399744, 0
805, 2853085515, -0.016377479, 0.6606304, 0.059791006, 0.7481506, 0.5817432, 1.5977196, -0.26554394, 0
806, 2853102182, -0.014771059, 0.6606671, 0.05764334, 0.7483202, -0.033402193, 1.3175662, 1.6698179, 0
807, 2853118849, -0.013131171, 0.66071576, 0.05586718, 0.7484426, -0.26489612, 0.5348236, -0.36731243, 0
808, 2853135516, -0.011364043, 0.6608029, 0.053935535, 0.74853605, -0.9004791, 1.5360225, 0.007326126, 0
809, 2853152183, -0.009656176, 0.66109234, 0.05150669, 0.7484757, -1.9345703, 1.4318627, 1.9848566, 0
810, 2853168850, -0.007992461, 0.6614773, 0.04912944, 0.7483149, 0.4281913, -0.5736317, -1.5228958, 0
811, 2853185517, -0.006459266, 0.66156477, 0.04726156, 0.7483726, 0.72061986, 0.11067976, -0.54861355, 0
812, 2853202184, -0.005309686, 0.6615318, 0.045383602, 0.7485273, -0.5737372, 0.40649256, 0.1441822, 0
813, 2853218851, -0.004324734, 0.66152906, 0.04333017, 0.7486577, 0.31734976, -0.7348247, -1.4513083, 0
814, 2853235518, -0.0034506023, 0.6615596, 0.042344123, 0.74869156, 1.0039974, -2.2190602, -0.24785233, 0
815, 2853252185, -0.0026919395, 0.66164863, 0.040458508, 0.7487203, -2.5480556, 2.415016, 1.6158972, 0
816, 2853268852, -0.002504468, 0.6618735, 0.038214788, 0.7486401, 0.55347127, -3.357473, -1.2242813, 0
817, 2853285519, -0.002076909, 0.6621471, 0.036232956, 0.74849784, 0.87163484, -3.2908175, -0.80406, 0
818, 2853302186, -0.0022595078, 0.6623317, 0.035286844, 0.74837923, -1.8030372, 0.7676574, 0.19030952, 0
819, 2853318853, -0.003046915, 0.66262245, 0.033438474, 0.748204, -2.2427788, 2.4185295, 0.12644863, 0
820, 2853335520, -0.0036444962, 0.663107, 0.02991958, 0.7479211, -0.24375357, -0.8244012, -0.64169025, 0
821, 2853352187, -0.0044706464, 0.6634137, 0.02745507, 0.74773896, 1.5265099, -2.319217, 0.27125072, 0
822, 2853368854, -0.005485162, 0.6636118, 0.026034132, 0.74760705, 0.3872246, -0.8260456, 1.5213919, 0
823, 2853385521, -0.0064890534, 0.66384065, 0.024187155, 0.74745804, -0.5593498, 1.8033525, -0.8527012, 0
824, 2853402188, -0.007466659, 0.66399944, 0.021682426, 0.74738467, -0.6433208, 0.88238084, 0.6958332, 0
825, 2853418855, -0.0081581175, 0.6640473, 0.019416928, 0.7473971, 0.31549948, -1.4945546, 0.36858082, 0
826, 2853435522, -0.008780092, 0.66399944, 0.018150508, 0.7474644, -0.60415477, -0.3925584, 0.22581863, 0
827, 2853452189, -0.00946562, 0.6639617, 0.017097235, 0.7475145, -0.49592954, 1.5451803, -0.5554495, 0
828, 2853468856, -0.009994641, 0.66391104, 0.015573017, 0.7475859, 0.13368425, 0.08932863, 0.78327274, 0
829, 2853485523, -0.010305107, 0.6638603, 0.01433713, 0.7476515, 0.88095105, -0.97115976, -0.35754967, 0
830, 2853502190, -0.010710165, 0.663728, 0.013443664, 0.7477799, 1.0771409, 1.2996811, 1.099472, 0
831, 2853518857, -0.01122418, 0.66352177, 0.012461133, 0.7479725, 0.24004664, 1.0642692, 0.048815727, 0
832, 2853535524, -0.011706457, 0.663333, 0.011235774, 0.74815184, 0.6382925, 0.7265411, -0.4887228, 0
833, 2853552191, -0.011956513, 0.66306615, 0.009958304, 0.7484023, -0.10111913, -0.260431, 0.9084816, 0
834, 2853568858, -0.012110651, 0.66307265, 0.009388804, 0.7484016, -0.3648128, -0.7214226, -0.18126678, 0
835, 2853585525, -0.012259081, 0.663121, 0.00922218, 0.7483584, -0.22280486, -0.48392126, -0.6581564, 0
836, 2853602192, -0.012358323, 0.6632771, 0.008778453, 0.7482238, 0.13518411, -0.09108421, 1.2339201, 0
837, 2853618859, -0.012705252, 0.6634438, 0.0081217885, 0.74807745, 0.30376312, -1.2758771, 0.64101505, 0
838, 2853635526, -0.013281912, 0.6636161, 0.0076457933, 0.74791956, 1.007319, -2.4023507, -2.4756851, 0
839, 2853652193, -0.0141385645, 0.6635803, 0.0072720796, 0.7479395, 1.2398607, 0.09252171, -1.1912289, 0
840, 2853668860, -0.015296191, 0.6633686, 0.006864466, 0.7481083, 0.7837369, -0.39697275, -0.47364044, 0
841, 2853685527, -0.016618788, 0.6633103, 0.006625749, 0.748134, -0.10726184, -1.532615, -0.12636662, 0
842, 2853702194, -0.018023476, 0.6633234, 0.006358549, 0.7480922, -0.503243, -1.2068052, 0.3733797, 0
843, 2853718861, -0.019627571, 0.6633999, 0.0060876533, 0.7479862, -0.47296438, -1.5404186, 0.0084991455, 0
844, 2853735528, -0.02126129, 0.66336757, 0.0063775033, 0.74796766, 1.0223422, -1.9662042, -0.08838272, 0
845, 2853752195, -0.022758171, 0.6632028, 0.0070399344, 0.74806386, 0.5213778, -0.9330121, 0.6320772, 0
846, 2853768862, -0.02412127, 0.6630919, 0.007629983, 0.74811375, 0.22558992, -0.5055556, 0.70997524, 0
847, 2853785529, -0.02541393, 0.6630181, 0.008241847, 0.7481299, 0.41614547, -1.5283241, 0.27196407, 0
848, 2853802196, -0.02665259, 0.66293097, 0.009268075, 0.748152, 0.4143889, -1.367429, 0.8227501, 0
849, 2853818863, -0.028116986, 0.6627453, 0.010455705, 0.74824727, -0.082604356, -0.34747916, -0.51052, 0
850, 2853835530, -0.02970323, 0.66254914, 0.011341527, 0.7483467, -0.44863546, -0.8628936, 0.78353214, 0
851, 2853852197, -0.031286255, 0.6623762, 0.011924408, 0.7484262, -0.7486276, -1.243092, 0.1503439, 0
852, 2853868864, -0.03290084, 0.6621605, 0.012492843, 0.7485386, -0.38544402, -1.0711809, 0.16376781, 0
853, 2853885531, -0.034473866, 0.66203123, 0.013105743, 0.7485715, -0.7301165, -0.82594436, -0.47882652, 0
854, 2853902198, -0.035994977, 0.6620562, 0.013637774, 0.7484684, -0.48789996, -0.15127458, -0.5017557, 0
855, 2853918865, -0.037428424, 0.6620287, 0.014409222, 0.748408, -0.30890685, -1.334186, 0.24121952, 0
856, 2853935532, -0.038648978, 0.66187245, 0.015385047, 0.74846476, -0.99964213, -1.1096247, -1.0034971, 0
857, 2853952199, -0.03988214, 0.66163975, 0.016385771, 0.7485845, -2.1418405, -0.8015017, -0.07228565, 0
858, 2853968866, -0.04111761, 0.6615578, 0.017419532, 0.74856675, -2.8020759, -1.7409188, -0.6108227, 0
859, 2853985533, -0.042212218, 0.6615421, 0.01844658, 0.74849504, -1.1810279, -0.75968015, -1.0245371, 0
860, 2854002200, -0.0431308, 0.6614685, 0.019508593, 0.748481, -1.2478824, -1.529584, 1.4485493, 0
861, 2854018867, -0.04379195, 0.66152817, 0.020829044, 0.74835414, -0.8143143, -1.1193607, -0.616107, 0
862, 2854035534, -0.044406727, 0.6615377, 0.021970868, 0.74827677, -2.121306, 0.6579996, -1.258419, 0
863, 2854052201, -0.045264766, 0.66160727, 0.022674538, 0.748143, -2.894445, -0.7042127, -1.6949482, 0
864, 2854068868, -0.04625313, 0.6617353, 0.023215503, 0.7479525, -1.49813, -2.0094166, -1.2747345, 0
865, 2854085535, -0.04715623, 0.6618675, 0.02393283, 0.74775666, -0.83430904, -2.4997275, 1.8852091, 0
866, 2854102202, -0.04789588, 0.6620211, 0.024616234, 0.74755144, -1.0450052, -1.6743349, 1.6471605, 0
867, 2854118869, -0.04852797, 0.6620416, 0.024967022, 0.747481, -0.12551138, 0.7152276, 0.28593063, 0
868, 2854135536, -0.049319625, 0.6618599, 0.024882697, 0.74759275, -1.5914223, 1.7631277, -0.6417141, 0
869, 2854152203, -0.05037944, 0.66196805, 0.02485536, 0.7474272, -2.7050345, -0.06969927, -2.822372, 0
870, 2854168870, -0.051268786, 0.66208255, 0.025101475, 0.74725705, -1.974893, -1.0925186, -2.3391352, 0
871, 2854185537, -0.05168487, 0.6625524, 0.025553346, 0.7467967, -2.4390404, -3.2838957, 2.2050037, 0
872, 2854202204, -0.0513023, 0.6631145, 0.026373856, 0.74629533, -0.15825298, -1.9751124, 2.0569468, 0
873, 2854218871, -0.050646752, 0.66255075, 0.027472049, 0.7468011, 1.7238263, 2.8033464, 5.1946383, 0
874, 2854235538, -0.050193444, 0.6617952, 0.02885513, 0.74744904, -1.3535881, 2.9103668, 4.0411615, 0
875, 2854252205, -0.049597055, 0.66172963, 0.030318469, 0.747489, -1.7884201, 1.4281658, -8.309048, 0
876, 2854268872, -0.048553586, 0.66169757, 0.031782255, 0.74752516, -0.8029024, -0.21936457, -5.2637424, 0
877, 2854285539, -0.046680793, 0.661839, 0.033565335, 0.7474413, 1.8454193, -2.9669714, -1.6781883, 0
878, 2854302206, -0.04424101, 0.6620433, 0.036066934, 0.74729216, 3.322499, 0.97986245, 2.4057941, 0
879, 2854318873, -0.041877672, 0.6621413, 0.038448825, 0.7472228, 2.6370492, 6.0528936, 1.5845089, 0
880, 2854335540, -0.040273994, 0.6623219, 0.03968262, 0.74708635, 1.6825317, 5.913466, 2.0431776, 0
881, 2854352207, -0.03923917, 0.6625685, 0.04075001, 0.7468653, 0.5118517, -0.5446266, -2.1930418, 0
882, 2854368874, -0.037859276, 0.66303587, 0.042457253, 0.74642646, 1.4212857, -1.273976, -2.113141, 0
883, 2854385541, -0.035737023, 0.6635353, 0.043714575, 0.74601465, -0.40599808, -0.26935044, 1.1282539, 0
884, 2854402208, -0.033176288, 0.6640375, 0.0436737, 0.74568844, -1.4045782, 2.5558374, 1.5615425, 0
885, 2854418875, -0.030874625, 0.6642873, 0.042342037, 0.74564165, -1.050339, 4.155919, 2.0839167, 0
886, 2854435542, -0.029275164, 0.66424525, 0.04049211, 0.74584645, -0.64610183, 2.9345772, 2.1475115, 0
887, 2854452209, -0.028305084, 0.6640802, 0.038569033, 0.7461325, -0.17159916, 2.0150037, 1.6999283, 0
888, 2854468876, -0.027422234, 0.66386014, 0.036203176, 0.74647987, 0.11612941, 0.9702368, 1.6925983, 0
889, 2854485543, -0.026324749, 0.6637292, 0.033906966, 0.74674344, 1.2191746, 0.5976763, -0.5000744, 0
890, 2854502210, -0.025134847, 0.6635073, 0.032152258, 0.7470592, 2.8004606, 0.93432933, -0.6679888, 0
891, 2854518877, -0.02402556, 0.6633153, 0.030707583, 0.74732715, 2.0584776, 0.76914924, 0.1557579, 0
892, 2854535544, -0.023002237, 0.66335183, 0.029251948, 0.74738514, 2.5807471, 0.66212654, 1.5547934, 0
893, 2854552211, -0.022085175, 0.663463, 0.028126694, 0.7473575, 2.6452482, -0.4042839, 1.4174595, 0
894, 2854568878, -0.021211237, 0.6636568, 0.027481355, 0.74723464, 3.123248, -0.19691552, -0.580925, 0
895, 2854585545, -0.020522729, 0.6635432, 0.027110599, 0.7473682, 3.7389336, 0.13083021, -2.9108534, 0
896, 2854602212, -0.020216122, 0.6632394, 0.026851177, 0.7476556, 2.417874, -0.25975442, -0.36440468, 0
897, 2854618879, -0.020223737, 0.6631585, 0.026651978, 0.74773425, 0.7174014, -0.962673, 0.7530823, 0
898, 2854635546, -0.02039072, 0.66318566, 0.026313782, 0.7477176, 1.5879194, 0.20246977, 0.92965794, 0
899, 2854652213, -0.02079831, 0.6632156, 0.025800303, 0.74769795, 0.8312174, 0.45042092, 0.55418587, 0
900, 2854668880, -0.021401957, 0.6631909, 0.025244571, 0.74772155, 0.94116354, -0.24244769, 0.13605309, 0
901, 2854685547, -0.021988794, 0.6631956, 0.02462501, 0.74772114, 0.613966, 0.12341293, -1.3288488, 0
902, 2854702214, -0.022636846, 0.6632302, 0.024070181, 0.7476891, 0.07229222, 0.12471721, 0.40874195, 0
903, 2854718881, -0.023180723, 0.6634722, 0.023613185, 0.74747217, -0.102659434, -0.9290051, 0.9403572, 0
904, 2854735548, -0.023538053, 0.663652, 0.023428112, 0.74730724, 1.3977805, -0.27378514, -0.79959583, 0
905, 2854752215, -0.023952872, 0.6635371, 0.023366392, 0.747398, 1.2011449, 1.104661, 0.07484722, 0
906, 2854768882, -0.024406105, 0.663588, 0.023294456, 0.7473405, -0.12462005, 0.022354871, 0.76088715, 0
907, 2854785549, -0.02488409, 0.66361314, 0.023183845, 0.74730575, 0.6328123, 0.048455093, -0.78011227, 0
908, 2854802216, -0.025269523, 0.66356856, 0.023049869, 0.7473365, -0.026718026, -0.2592556, 0.8339567, 0
909, 2854818883, -0.025543928, 0.6635827, 0.023312427, 0.7473065, 0.4839585, -0.7683922, -0.96795464, 0
910, 2854835550, -0.025691435, 0.66350794, 0.02385863, 0.74735075, 0.23973665, 0.35437924, 0.52128696, 0
911, 2854852217, -0.025897697, 0.66353405, 0.024175853, 0.74731004, -0.42411956, 0.30049047, 0.5955181, 0
912, 2854868884, -0.026107907, 0.66347593, 0.024211258, 0.74735326, 0.94981325, 0.6419424, 0.43891907, 0
913, 2854885551, -0.026324406, 0.6632499, 0.024037376, 0.74755174, 0.05510968, 0.3110964, 0.98764133, 0
914, 2854902218, -0.026621833, 0.6630115, 0.023913004, 0.7477567, -0.009092423, 0.27415982, 0.59387875, 0
915, 2854918885, -0.0269299, 0.66287684, 0.023869723, 0.74786645, -0.83064145, -0.3161431, 0.0950613, 0
916, 2854935552, -0.027078971, 0.6628654, 0.023609288, 0.7478796, -0.9998547, -0.37840432, -1.02139, 0
917, 2854952219, -0.027132243, 0.6628989, 0.023341008, 0.7478564, -0.751478, -0.13218729, -0.85148716, 0
918, 2854968886, -0.027179226, 0.66304123, 0.02326563, 0.7477308, -0.03928859, -0.13504803, -0.7336559, 0
919, 2854985553, -0.027198166, 0.6631352, 0.023212045, 0.7476484, 0.45307678, -0.02987083, -0.03623104, 0
920, 2855002220, -0.027252093, 0.66321826, 0.022996366, 0.74757946, -0.020902792, 0.08604902, 0.27572632, 0
921, 2855018887, -0.027360648, 0.663233, 0.022655495, 0.74757284, 0.4138648, -0.32882527, -0.66290855, 0
922, 2855035554, -0.027508631, 0.6631635, 0.022499733, 0.7476338, -0.021609204, -1.2380263, 1.542202, 0
923, 2855052221, -0.027683154, 0.66315055, 0.022660732, 0.7476341, -0.23434032, -0.82242215, -0.1264658, 0
924, 2855068888, -0.027919367, 0.66307235, 0.022950903, 0.7476856, 0.14008635, 0.05756448, -1.0448618, 0
925, 2855085555, -0.028258815, 0.6630633, 0.02297499, 0.7476801, -1.0162969, 0.070302874, -0.17279816, 0
926, 2855102222, -0.028889418, 0.6630078, 0.022927128, 0.74770683, -0.56426454, -1.5672747, 0.5952759, 0
927, 2855118889, -0.02952835, 0.6630808, 0.023263104, 0.74760664, -0.51704633, -1.7583767, 0.3024006, 0
928, 2855135556, -0.030195594, 0.66316015, 0.023541853, 0.7475009, -0.9642047, -0.907138, 0.12545395, 0
929, 2855152223, -0.030726701, 0.6631799, 0.023549147, 0.74746156, -0.47102824, -0.69842553, -0.052114487, 0
930, 2855168890, -0.031196803, 0.663113, 0.023741, 0.7474954, 0.32621974, -0.11019971, -0.06392574, 0
931, 2855185557, -0.031812787, 0.6629835, 0.02400504, 0.747576, -0.49972552, 0.41274533, -0.04676819, 0
932, 2855202224, -0.03254831, 0.66290253, 0.024147332, 0.74761146, -0.15301843, -0.60466826, -0.16484451, 0
933, 2855218891, -0.03324972, 0.6627817, 0.02426067, 0.7476839, -0.5538581, -1.2540858, 0.9497566, 0
934, 2855235558, -0.03395076, 0.66279924, 0.02432803, 0.7476347, -0.8903623, -0.62091595, 0.12933159, 0
935, 2855252225, -0.034589082, 0.6626735, 0.024559587, 0.7477095, -0.104060255, -0.6505718, -1.3075867, 0
936, 2855268892, -0.03522782, 0.6625616, 0.024863422, 0.74776864, -0.7827727, -0.22980507, 1.0706949, 0
937, 2855285559, -0.036001146, 0.66251135, 0.02486854, 0.74777615, -0.34554613, -1.1948117, -0.16172695, 0
938, 2855302226, -0.036844358, 0.6623923, 0.024866268, 0.7478407, -0.077151865, -1.3198786, -0.90435696, 0
939, 2855318893, -0.037949234, 0.6622054, 0.024873711, 0.74795073, -0.0740794, -0.27550697, 0.28191376, 0
940, 2855335560, -0.03917007, 0.6621932, 0.024731763, 0.74790317, -1.5011208, -1.2559947, 0.024776459, 0
941, 2855352227, -0.040282458, 0.6623115, 0.024545737, 0.7477454, -1.4541757, -1.2931291, -0.2556553, 0
942, 2855368894, -0.041278705, 0.6624476, 0.024515077, 0.7475717, -1.580183, -1.2967714, -0.4087124, 0
943, 2855385561, -0.042260617, 0.6625275, 0.024758942, 0.74743795, -0.18962733, -1.1306576, -0.5623245, 0
944, 2855402228, -0.043208405, 0.662497, 0.025171578, 0.7473969, -0.3984155, -0.6283712, 0.3405819, 0
945, 2855418895, -0.044195727, 0.6625839, 0.025527596, 0.74724996, -1.4972261, -0.5747155, 0.17145348, 0
946, 2855435562, -0.045058176, 0.6626323, 0.025875695, 0.74714375, -1.0439523, -1.2131736, -1.2039442, 0
947, 2855452229, -0.045770645, 0.66256434, 0.026516564, 0.74713814, -1.1133772, -0.6619029, -1.01894, 0
948, 2855468896, -0.046486095, 0.66252756, 0.027232282, 0.7471009, -1.3209635, -0.37305543, -0.4951496, 0
949, 2855485563, -0.04727751, 0.662555, 0.027944386, 0.74700075, -0.45749122, -0.8577146, 0.2222414, 0
950, 2855502230, -0.04803896, 0.66254073, 0.028615378, 0.7469393, 0.6343339, -1.2252529, 1.2710876, 0
951, 2855518897, -0.048722252, 0.6625956, 0.029344954, 0.746818, 0.22500037, -0.7306769, 1.0730944, 0
952, 2855535564, -0.049355224, 0.6625396, 0.030234866, 0.7467906, 0.34433985, -0.023949077, 0.6615925, 0
953, 2855552231, -0.04981403, 0.6623715, 0.031041399, 0.7468762, -0.9253325, -0.303083, -0.97843933, 0
954, 2855568898, -0.050217345, 0.66237146, 0.031661794, 0.7468232, -1.8437325, 0.2372809, -1.5205431, 0
955, 2855585565, -0.05091168, 0.6625403, 0.032161847, 0.746605, -2.3805952, -1.565698, -1.3019114, 0
956, 2855602232, -0.05167839, 0.6627796, 0.03258548, 0.7463214, -0.4794284, -2.2932, 0.6299124, 0
957, 2855618899, -0.052426666, 0.66285837, 0.032762013, 0.7461916, -0.8091704, -1.2964288, 1.3618603, 0
958, 2855635566, -0.0531839, 0.66263956, 0.03274002, 0.74633336, -0.2035043, 1.087155, 2.2503357, 0
959, 2855652233, -0.053982407, 0.66225296, 0.03250803, 0.7466292, -1.0686846, 1.15625, -0.5277872, 0
960, 2855668900, -0.054649487, 0.66211724, 0.032078676, 0.74671954, -2.7503948, 0.18070742, -2.0443172, 0
961, 2855685567, -0.0552305, 0.66223335, 0.031866215, 0.74658304, -2.6843896, -1.3127396, -2.7695699, 0
962, 2855702234, -0.055454478, 0.66237, 0.03188107, 0.74644446, -2.266672, -2.419637, 1.2392197, 0
963, 2855718901, -0.05533524, 0.66237223, 0.032076284, 0.74644315, -0.6345992, -0.9210074, 3.3404484, 0
964, 2855735568, -0.055110022, 0.66200686, 0.032414265, 0.7467692, 0.88931787, 1.3778179, 1.5196438, 0
965, 2855752235, -0.054903507, 0.6614761, 0.032512166, 0.74725026, 1.6113708, 3.80368, -2.989685, 0
966, 2855768902, -0.05475153, 0.66122335, 0.03253737, 0.747484, 1.6627098, 3.2961454, -4.073423, 0
967, 2855785569, -0.054445922, 0.6616993, 0.032718748, 0.7470771, 0.42032048, -1.4377612, -1.9828386, 0
968, 2855802236, -0.05369377, 0.6624326, 0.033249483, 0.7464581, 3.2913406, -0.58808416, -2.6365247, 0
969, 2855818903, -0.05308278, 0.6626001, 0.03387329, 0.74632514, 2.1127114, 1.4362122, 2.0597649, 0
970, 2855835570, -0.052801713, 0.66318446, 0.03404917, 0.7458178, 0.7682133, 1.3561239, 2.452117, 0
971, 2855852237, -0.052923247, 0.6638877, 0.034021914, 0.7451846, 4.1899014, 1.0511054, 1.2194176, 0
972, 2855868904, -0.053238988, 0.66399074, 0.03438048, 0.7450537, 3.9568856, -1.7585733, 0.77359104, 0
973, 2855885571, -0.05357252, 0.6637694, 0.035688244, 0.74516547, 3.2140472, -2.1241577, 3.082489, 0
974, 2855902238, -0.053908378, 0.66348344, 0.037222527, 0.7453208, 1.6901486, -1.5807753, 1.0159817, 0
975, 2855918905, -0.05439964, 0.6631571, 0.038397588, 0.74551594, 2.7406406, 0.15239997, 1.4656858, 0
976, 2855935572, -0.055551022, 0.662678, 0.03956029, 0.7457962, 1.8725256, -0.24479139, 0.9804754, 0
977, 2855952239, -0.057152987, 0.662333, 0.040655807, 0.745923, 1.8785762, 0.31971774, 0.60220814, 0
978, 2855968906, -0.05891879, 0.6619233, 0.041308805, 0.74611306, 1.619973, 1.0079764, 0.29969406, 0
979, 2855985573, -0.060595542, 0.6617413, 0.041789673, 0.74611354, 0.8706498, 0.52309453, 0.8452349, 0
980, 2856002240, -0.061938956, 0.66164356, 0.042537622, 0.7460475, 1.8321836, 0.095378734, -0.6385374, 0
981, 2856018907, -0.06287569, 0.66141826, 0.04359825, 0.7461078, 1.0900656, 0.91118044, 0.31576824, 0
982, 2856035574, -0.06344357, 0.6612502, 0.04484138, 0.74613494, 0.6766342, 0.8249481, 0.42596817, 0
983, 2856052241, -0.063628316, 0.66100997, 0.046163306, 0.7462515, 1.9660997, 1.5382898, -0.68383884, 0
984, 2856068908, -0.06348193, 0.66072106, 0.047681347, 0.74642444, 1.6654193, 1.0207069, 0.20037746, 0
985, 2856085575, -0.06312384, 0.66056156, 0.04991261, 0.74644995, 1.202511, 0.72552973, -0.06330967, 0
986, 2856102242, -0.062591046, 0.6604574, 0.052548252, 0.7464062, 1.1455636, 1.2230884, -1.7317123, 0
987, 2856118909, -0.06182453, 0.66040844, 0.05527263, 0.74631673, 1.3716908, -0.1426614, -0.22832298, 0
988, 2856135576, -0.06082256, 0.6603049, 0.05826073, 0.74626315, 1.9862603, -0.5724257, 0.048244476, 0
989, 2856152243, -0.05968952, 0.6601791, 0.06137748, 0.7462161, 0.33581188, -0.029140279, 0.2990141, 0
990, 2856168910, -0.058536768, 0.66010016, 0.06405331, 0.7461524, -0.053179264, 0.7244049, 0.21822739, 0
991, 2856185577, -0.05749224, 0.65998924, 0.066188194, 0.7461454, -0.4034175, 0.34050533, -0.63696194, 0
992, 2856202244, -0.056598067, 0.65982586, 0.06794348, 0.74620056, 0.2703273, 0.26688865, -0.014546394, 0
993, 2856218911, -0.055871606, 0.65973914, 0.06931467, 0.74620587, -0.68468946, 0.7105745, 0.39102268, 0
994, 2856235578, -0.05524975, 0.6597766, 0.07019621, 0.7461366, -0.6585536, 0.84243274, 0.23910522, 0
995, 2856252245, -0.054734588, 0.6598413, 0.070586756, 0.7460805, -0.38563982, 1.048806, 0.5941677, 0
996, 2856268912, -0.054157972, 0.65988684, 0.07069861, 0.74607176, -0.89304626, 0.41230777, -0.35259914, 0
997, 2856285579, -0.053468555, 0.65986305, 0.07075063, 0.7461377, -0.15567347, 2.391157, -0.35640335, 0
998, 2856302246, -0.05263239, 0.6599311, 0.07037844, 0.7461719, -1.3207723, 1.196401, 2.3126307, 0
999, 2856318913, -0.05151452, 0.66015553, 0.06997584, 0.74608934, 0.17028166, -0.46537924, 0.7221384, 0
1000, 2856335580, -0.050197452, 0.66002786, 0.0698952, 0.7462996, 1.4069638, 1.5277334, -0.52497005, 0
1001, 2856352247, -0.048858583, 0.65986913, 0.06976054, 0.7465414, 0.13283397, 1.9321868, 2.1846952, 0
1002, 2856368914, -0.047592834, 0.6597691, 0.06943498, 0.7467419, 0.56987554, 1.5146275, -1.0168724, 0
1003, 2856385581, -0.04643096, 0.6596243, 0.06902989, 0.7469805, 0.41998583, 0.7085354, 0.92225075, 0
1004, 2856402248, -0.04533264, 0.65962976, 0.06859439, 0.74708337, 0.32792345, 0.30828583, -1.6503754, 0
1005, 2856418915, -0.044439033, 0.65955853, 0.06809655, 0.7472453, 0.88324857, 1.169612, -0.37457561, 0
1006, 2856435582, -0.043661594, 0.6594764, 0.06735403, 0.7474311, 0.109509476, -0.03481963, 1.0953102, 0
1007, 2856452249, -0.042695418, 0.65950716, 0.06649488, 0.74753654, 0.7187388, -0.5190484, -0.023430824, 0
1008, 2856468916, -0.04177101, 0.6593951, 0.065722145, 0.7477559, 0.21138875, 1.0931168, -0.5793543, 0
1009, 2856485583, -0.0410676, 0.6593855, 0.06489932, 0.7478752, -0.6940182, 1.2730278, 0.7168789, 0
1010, 2856502250, -0.040558845, 0.6594836, 0.063975096, 0.747896, -0.6817351, 0.3776991, -1.1495838, 0
1011, 2856518917, -0.040091515, 0.6595604, 0.06308751, 0.74792904, -0.63764304, -0.15089616, -0.47303486, 0
1012, 2856535584, -0.039539278, 0.65973294, 0.062260725, 0.74787545, -0.875711, -0.6839591, 0.70459557, 0
1013, 2856552251, -0.038816422, 0.6598236, 0.0616159, 0.7478867, -0.6738368, -0.9111223, -0.9282007, 0
1014, 2856568918, -0.038013846, 0.6599593, 0.061171427, 0.7478447, -1.5235271, -0.33585414, -0.06515598, 0
1015, 2856585585, -0.037228584, 0.66016525, 0.06067103, 0.7477432, -1.318397, 0.026880115, -0.5916195, 0
1016, 2856602252, -0.036572143, 0.66034985, 0.06013044, 0.7476563, -0.7914938, 0.33060366, -0.57899284, 0
1017, 2856618919, -0.035997495, 0.66050774, 0.05966579, 0.74758196, -0.16406627, -0.13904741, 2.0426712, 0
1018, 2856635586, -0.03533891, 0.6605962, 0.05943744, 0.7475533, -0.43755627, -0.884231, 0.27438736, 0
1019, 2856652253, -0.03459984, 0.6607084, 0.0592696, 0.74750227, -0.67904186, 0.093570456, 0.34192848, 0
1020, 2856668920, -0.033952713, 0.66067743, 0.058822684, 0.7475945, -0.31761, 1.198117, -1.6750326, 0
1021, 2856685587, -0.033528984, 0.66059, 0.058384046, 0.7477252, -0.544747, 0.1817804, 1.3508549, 0
1022, 2856702254, -0.033238083, 0.6605574, 0.058001317, 0.74779683, -0.71083075, -0.20560856, -0.51857185, 0
1023, 2856718921, -0.03291373, 0.6606051, 0.057275005, 0.74782497, -0.94600296, -0.23037402, 0.49914742, 0
1024, 2856735588, -0.032568887, 0.660652, 0.05648704, 0.7478586, -0.67129433, -0.6904504, 0.57926273, 0
1025, 2856752255, -0.032178, 0.66066915, 0.055714183, 0.74791837, -0.34296423, -0.00806107, -0.2592945, 0
1026, 2856768922, -0.03179635, 0.6606473, 0.05498577, 0.7480079, -0.53818715, 0.37981132, 0.3723488, 0
1027, 2856785589, -0.031495422, 0.6607099, 0.054147437, 0.74802655, -1.2027746, 0.2686199, 0.046200752, 0
1028, 2856802256, -0.031303436, 0.66088605, 0.05307828, 0.7479556, -0.2674037, -0.27616277, -0.34253407, 0
1029, 2856818923, -0.031211317, 0.6609226, 0.05216793, 0.7479911, 0.32576334, 0.19037157, -1.5511351, 0
1030, 2856835590, -0.031161979, 0.6608712, 0.05140487, 0.74809134, -0.505379, 0.4873111, 1.0353708, 0
1031, 2856852257, -0.031031653, 0.6609663, 0.050625667, 0.748066, -1.7090698, -0.5828783, 0.3636074, 0
1032, 2856868924, -0.03076616, 0.66112995, 0.049713492, 0.74799365, -1.5503681, -0.5809956, -1.19203, 0
1033, 2856885591, -0.03043747, 0.6612467, 0.048913956, 0.74795634, -1.3513249, 0.49869514, 0.38893223, 0
1034, 2856902258, -0.030201495, 0.6614198, 0.048437506, 0.747844, -1.2453562, -0.2504874, -0.14643002, 0
1035, 2856918925, -0.029936269, 0.66144085, 0.047837086, 0.7478747, 0.5790865, -0.10025892, -0.8618555, 0
1036, 2856935592, -0.029668257, 0.66137195, 0.04697323, 0.74800104, -0.34543008, -0.17911479, 0.7773676, 0
1037, 2856952259, -0.029603496, 0.6612462, 0.046432994, 0.74814856, -0.30735824, -0.78378236, -0.9155617, 0
1038, 2856968926, -0.029517457, 0.66114277, 0.046200886, 0.7482576, -1.7778938, -1.3267329, 1.1785612, 0
1039, 2856985593, -0.029253662, 0.6613825, 0.045543604, 0.74809635, -2.024807, -0.40339786, -1.3813429, 0
1040, 2857002260, -0.029067531, 0.66162294, 0.04447794, 0.74795526, -1.030639, 0.7769186, -0.46381378, 0
1041, 2857018927, -0.029124752, 0.6615172, 0.0438122, 0.74808574, 0.50558954, -0.35725427, 0.102253914, 0
1042, 2857035594, -0.029380739, 0.6610746, 0.043726772, 0.748472, 1.8659723, 0.12071253, 1.5190735, 0
1043, 2857052261, -0.029625744, 0.6606434, 0.043519832, 0.748855, -0.9663577, 0.6259572, 0.2851591, 0
1044, 2857068928, -0.02973482, 0.6606383, 0.043136142, 0.74887747, -2.434012, -0.8713129, -1.0834885, 0
1045, 2857085595, -0.029464737, 0.66107893, 0.042945325, 0.74850994, -2.3112102, -1.4208558, -0.6407633, 0
1046, 2857102262, -0.028902069, 0.66186076, 0.042989038, 0.7478383, -2.7877374, -1.6006067, 0.90134335, 0
1047, 2857118929, -0.028485268, 0.6623497, 0.043423302, 0.74739623, -0.28994152, -0.8223211, -1.2827606, 0
1048, 2857135596, -0.028265685, 0.66218036, 0.04379332, 0.74753284, 0.21735078, 0.11272518, 1.3322792, 0
1049, 2857152263, -0.028201267, 0.6620054, 0.043934226, 0.74768203, -0.93556917, -0.58503246, -1.3833542, 0
1050, 2857168930, -0.028350651, 0.66200864, 0.044107057, 0.7476633, -1.6216075, -0.85200995, -0.5036087, 0
1051, 2857185597, -0.028461635, 0.66234374, 0.043664552, 0.74738824, -3.629301, -1.0885217, -1.1031742, 0
1052, 2857202264, -0.028597236, 0.66298956, 0.042905472, 0.74685436, -2.1266863, -1.3642123, 0.7204256, 0
1053, 2857218931, -0.02868545, 0.663417, 0.042469032, 0.7464962, -1.1599264, -1.2825694, 1.8545742, 0
1054, 2857235598, -0.028874502, 0.66335505, 0.041971363, 0.74657214, 0.18428844, 1.4461493, 3.5782156, 0
1055, 2857252265, -0.029496267, 0.6626756, 0.04122296, 0.7471926, 1.5672265, 1.9791706, 1.0720959, 0
1056, 2857268932, -0.030114353, 0.66230345, 0.040489107, 0.747538, 0.41090944, -0.15328005, -2.7607136, 0
1057, 2857285599, -0.030517593, 0.6623689, 0.03993822, 0.7474934, 0.74824226, -1.1998703, -5.83284, 0
1058, 2857302266, -0.030537024, 0.662851, 0.03955882, 0.7470851, 1.7634221, -1.5425357, -2.1722274, 0
1059, 2857318933, -0.030129865, 0.6634293, 0.040030085, 0.74656314, 4.81191, -1.4475882, -1.3170156, 0
1060, 2857335600, -0.029717073, 0.66400933, 0.040934883, 0.7460148, 2.68657, 2.797271, 2.987547, 0
1061, 2857352267, -0.029722378, 0.6644626, 0.041161984, 0.74559826, 3.6840708, 5.3876815, 0.14732265, 0
1062, 2857368934, -0.030447692, 0.6642848, 0.04112445, 0.7457295, 2.7620552, 2.9025893, 5.118293, 0
1063, 2857385601, -0.03128098, 0.66454035, 0.04143495, 0.7454501, -0.457578, -2.460495, 2.6721144, 0
1064, 2857402268, -0.031948775, 0.66513556, 0.041984282, 0.7448598, -0.34885773, -0.029060038, -2.4358191, 0
1065, 2857418935, -0.032372445, 0.6652915, 0.041680463, 0.7447195, -1.2657931, 0.045219522, -3.7232685, 0
1066, 2857435602, -0.03248447, 0.66550004, 0.040458187, 0.7445957, -1.2321974, -0.28936958, 2.400301, 0
1067, 2857452269, -0.032398775, 0.6656195, 0.03870628, 0.74458575, -0.76520294, 1.3235153, 4.1816874, 0
1068, 2857468936, -0.032593757, 0.6654092, 0.0362818, 0.74488723, 1.2373497, 4.885485, 2.8228836, 0
1069, 2857485603, -0.033245936, 0.66461754, 0.033129483, 0.7457116, 2.0505283, 4.875932, 0.8265562, 0
1070, 2857502270, -0.03409481, 0.6641346, 0.029984958, 0.74623626, 0.90046316, 1.9690574, 0.018213272, 0
1071, 2857518937, -0.034619167, 0.6639247, 0.027337663, 0.74650073, 2.2699776, 1.1614122, -2.0558028, 0
1072, 2857535604, -0.034719497, 0.6637901, 0.025016539, 0.746697, 1.8156322, 1.7258365, -0.6240301, 0
1073, 2857552271, -0.03441502, 0.66381603, 0.022747464, 0.7467607, 2.0403457, 1.697118, -0.3326254, 0
1074, 2857568938, -0.033936545, 0.66387343, 0.021114945, 0.74677944, 2.1072233, 0.8849451, 0.10636711, 0
1075, 2857585605, -0.033412755, 0.6638887, 0.019996904, 0.74682033, 2.5016143, 1.1160862, -0.075304985, 0
1076, 2857602272, -0.03286767, 0.6637099, 0.019115224, 0.7470266, 3.1312826, 0.20052716, -0.06739712, 0
1077, 2857618939, -0.032362312, 0.6634706, 0.01905556, 0.74726254, 2.2705595, -1.711504, 2.3732796, 0
1078, 2857635606, -0.031945363, 0.66349405, 0.01972583, 0.7472424, 1.8430858, -1.9989486, -0.52433586, 0
1079, 2857652273, -0.031762853, 0.66339165, 0.02057977, 0.7473181, 2.2149243, -0.5452926, -0.659812, 0
1080, 2857668940, -0.03196828, 0.66324633, 0.021330997, 0.7474171, 1.7771654, -1.6538609, 0.25631618, 0
1081, 2857685607, -0.032373413, 0.66323996, 0.022308812, 0.7473768, 1.1188143, -2.114416, 1.0787344, 0
1082, 2857702274, -0.032976806, 0.66331065, 0.023457661, 0.74725264, 0.4449626, -1.1460613, -0.009390831, 0
1083, 2857718941, -0.03383638, 0.6634072, 0.024547927, 0.7470933, -0.13676643, -0.7016504, -0.5007477, 0
1084, 2857735608, -0.03479272, 0.6634095, 0.025424905, 0.74701804, 0.7963495, -0.7585828, -1.4553051, 0
1085, 2857752275, -0.035772786, 0.6632458, 0.026412874, 0.74708277, 0.24574411, -0.85346717, 0.54716206, 0
1086, 2857768942, -0.036705434, 0.6631745, 0.027620256, 0.7470573, -0.54827803, -1.3995353, 0.14973927, 0
1087, 2857785609, -0.037515834, 0.6631536, 0.028854996, 0.74698883, -0.09794468, -0.4317272, -1.390336, 0
1088, 2857802276, -0.038301185, 0.6630896, 0.029980078, 0.74696165, 0.075720794, 0.36275315, 0.25390434, 0
1089, 2857818943, -0.038978666, 0.6632092, 0.031116217, 0.7467739, -1.4771808, -0.3244409, 0.28533077, 0
1090, 2857835610, -0.039503217, 0.66348773, 0.032145172, 0.7464551, -0.77099484, 0.8444792, 0.9887886, 0
1091, 2857852277, -0.03982711, 0.66401154, 0.033046976, 0.7459325, -1.5144986, -1.342145, 1.5391674, 0
1092, 2857868944, -0.039822996, 0.66449666, 0.034125566, 0.7454522, 0.3674472, -0.44314113, -2.0384583, 0
1093, 2857885611, -0.039800406, 0.6643118, 0.035064206, 0.7455743, 0.52810544, 2.3277028, -1.4654722, 0
1094, 2857902278, -0.03987965, 0.66418844, 0.035577968, 0.74565583, -0.3365022, 1.1347398, 0.73653793, 0
1095, 2857918945, -0.03985612, 0.6640306, 0.03571011, 0.7457913, 1.1769304, -0.1701066, 0.1498518, 0
1096, 2857935612, -0.03968808, 0.6639105, 0.035762474, 0.7459047, 0.07394348, 0.5968521, 0.20868683, 0
1097, 2857952279, -0.039659232, 0.66386735, 0.03579221, 0.7459432, 0.73075, 1.441197, 0.27037334, 0
1098, 2857968946, -0.039731026, 0.6637234, 0.0354793, 0.74608237, 0.37481785, 0.68618983, 1.0779305, 0
1099, 2857985613, -0.03979808, 0.6636448, 0.034879632, 0.74617684, 0.81823254, -0.35394236, 1.0504398, 0
1100, 2858002280, -0.039917856, 0.66335756, 0.03433454, 0.74645114, 1.5179372, -0.16135448, 1.1900225, 0
1101, 2858018947, -0.04006499, 0.66296154, 0.03398622, 0.74681103, 0.6934965, 0.2678195, 0.62281036, 0
1102, 2858035614, -0.04037705, 0.6627624, 0.033636265, 0.74698675, -0.47142777, 1.1141921, -0.21416664, 0
1103, 2858052281, -0.040899485, 0.66261697, 0.032973744, 0.74711704, -0.36099854, 0.23510121, -1.7207584, 0
1104, 2858068948, -0.041406766, 0.6626049, 0.032442607, 0.747123, -0.02318926, -0.8280084, -0.10882568, 0
1105, 2858085615, -0.041743353, 0.6626353, 0.032399684, 0.74707913, -0.041144725, -1.80138, 0.031388283, 0
1106, 2858102282, -0.041827723, 0.66273224, 0.032682247, 0.7469762, -0.47203025, -0.45908493, -0.85161114, 0
1107, 2858118949, -0.041761056, 0.66283596, 0.032814473, 0.7468821, -0.29277313, -0.14110562, 0.06915569, 0
1108, 2858135616, -0.04169759, 0.6628639, 0.032983556, 0.74685335, 0.6959066, -0.10701364, -0.3865776, 0
1109, 2858152283, -0.041818783, 0.66266394, 0.033572875, 0.7469977, 1.3108965, -0.5759518, 1.3448591, 0
1110, 2858168950, -0.04206422, 0.6622735, 0.034288883, 0.7472975, 0.67420584, -0.28385398, 0.5271015, 0
1111, 2858185617, -0.042473868, 0.6619549, 0.034814984, 0.74753237, -0.24720332, 0.19497292, -0.5440512, 0
1112, 2858202284, -0.04299505, 0.6617299, 0.035252534, 0.74768126, -0.29600644, -0.7742335, -1.4520979, 0
1113, 2858218951, -0.043419212, 0.66173553, 0.035928965, 0.7476195, -0.9112798, -1.7987947, -0.5541086, 0
1114, 2858235618, -0.043725252, 0.6618004, 0.036739506, 0.7475049, -0.60791755, -0.89193904, -0.6961975, 0
1115, 2858252285, -0.043944016, 0.6618189, 0.03760025, 0.74743307, -0.09108135, -0.6996019, 0.9725504, 0
1116, 2858268952, -0.04413791, 0.66177714, 0.038368292, 0.74741936, 0.5346044, -0.35665706, 1.1695518, 0
1117, 2858285619, -0.04433255, 0.6616867, 0.0389494, 0.74745786, -0.18521912, 0.51088715, 0.13088894, 0
1118, 2858302286, -0.044640496, 0.6616601, 0.039655097, 0.747426, 0.16096371, 0.36685082, -0.41788578, 0
1119, 2858318953, -0.044967815, 0.6616554, 0.04024683, 0.7473792, 0.30037636, -0.29749417, 1.5826759, 0
1120, 2858335620, -0.045386583, 0.6617873, 0.04075411, 0.7472094, -0.04455714, -1.0596011, -0.20781994, 0
1121, 2858352287, -0.045886144, 0.6617602, 0.041313663, 0.74717206, 0.26075444, -0.21082507, -1.224863, 0
1122, 2858368954, -0.04642327, 0.66159993, 0.041650765, 0.7472622, -0.4091372, 0.58749133, 0.6600599, 0
1123, 2858385621, -0.046957895, 0.6615375, 0.041814767, 0.7472749, -0.25109577, -0.38360175, 1.0881557, 0
1124, 2858402288, -0.04733433, 0.6614198, 0.041841596, 0.7473538, 0.057892665, -0.3906972, -0.8787689, 0
1125, 2858418955, -0.047654316, 0.66130084, 0.041871324, 0.74743706, -0.4533321, 0.27551067, 0.83778095, 0
1126, 2858435622, -0.048076406, 0.6612609, 0.0418164, 0.74744827, -0.603293, 0.03215178, 0.06451321, 0
1127, 2858452289, -0.048471346, 0.6612548, 0.041567296, 0.74744207, -0.8444509, -0.52610064, 0.05599308, 0
1128, 2858468956, -0.048802212, 0.6613421, 0.04145719, 0.7473496, -0.6991327, -0.95972675, -1.1660347, 0
1129, 2858485623, -0.049021766, 0.6613347, 0.04180316, 0.74732244, -0.2845124, -0.6571435, -0.64931107, 0
1130, 2858502290, -0.049210623, 0.6614798, 0.042379193, 0.7471491, -0.6603661, -0.65995073, -0.19458961, 0
1131, 2858518957, -0.049303427, 0.66166157, 0.042583823, 0.74697053, -0.120190434, -0.1317639, -1.0724487, 0
1132, 2858535624, -0.049501047, 0.66185576, 0.04284689, 0.74677026, -0.3354554, -0.73230386, 0.8116255, 0
1133, 2858552291, -0.049767286, 0.66193736, 0.043535024, 0.74664044, 0.78127044, -0.88004446, 0.121165276, 0
1134, 2858568958, -0.05000317, 0.6618167, 0.04413323, 0.7466966, 0.113209784, 0.5762636, 0.09876537, 0
1135, 2858585625, -0.050221577, 0.66172445, 0.044446804, 0.746745, -0.99217916, 1.1576382, 0.039378166, 0
1136, 2858602292, -0.050481826, 0.6617533, 0.04464639, 0.7466899, -2.0651348, -1.2047733, -0.26005936, 0
1137, 2858618959, -0.05072534, 0.6619625, 0.04486426, 0.746475, -1.5007415, -1.123744, -0.12843037, 0
1138, 2858635626, -0.050918087, 0.66214454, 0.04505469, 0.7462888, -1.6437691, -1.6938531, 0.38200188, 0
1139, 2858652293, -0.051057532, 0.6623104, 0.04503768, 0.7461331, -1.1296347, -0.44607475, 0.83675575, 0
1140, 2858668960, -0.051204517, 0.6624141, 0.044751495, 0.7460483, -1.7096286, -0.6478285, 0.40082836, 0
1141, 2858685627, -0.05118902, 0.66256213, 0.04456885, 0.74592876, -1.7310535, 0.23835282, -2.5788307, 0
1142, 2858702294, -0.051398724, 0.66265035, 0.04423932, 0.74585557, -2.7352834, 1.0290915, -0.91639423, 0
1143, 2858718961, -0.051725432, 0.6629509, 0.043523908, 0.74560803, -2.6672626, -0.6765057, -0.74001884, 0
1144, 2858735628, -0.052103117, 0.6630868, 0.042983405, 0.7454924, 0.19038303, -1.4502734, 1.0277433, 0
1145, 2858752295, -0.05238515, 0.66289115, 0.04261508, 0.7456676, 0.020500803, -0.95163727, 3.052765, 0
1146, 2858768962, -0.05258189, 0.6626311, 0.04226362, 0.74590486, 0.06930721, -0.31903726, 2.0343409, 0
1147, 2858785629, -0.05280073, 0.6621049, 0.04196106, 0.7463735, -0.33591974, 0.46392596, -0.033082962, 0
1148, 2858802296, -0.053055078, 0.66193086, 0.041541748, 0.7465333, -3.1891656, 0.37558973, -5.6761646, 0
1149, 2858818963, -0.053479582, 0.6622314, 0.040803522, 0.7462771, -3.6851196, -0.16254552, -3.0670228, 0
1150, 2858835630, -0.05367464, 0.66284645, 0.0399241, 0.7457645, -3.9885175, -2.959464, 1.0816784, 0
