sep=,
DeviceTag:,Xsens_DOT_5,,,,,,,,,,,,,,,,,
FirmwareVersion:,3.0.0,,,,,,,,,,,,,,,,,
AppVersion:,2023.6.1,,,,,,,,,,,,,,,,,
SyncStatus:,Synced,,,,,,,,,,,,,,,,,
OutputRate:,60Hz,,,,,,,,,,,,,,,,,
FilterProfile:,General,,,,,,,,,,,,,,,,,
Measurement Mode:,Sensor fusion Mode - Extended (Quaternion),,,,,,,,,,,,,,,,,
StartTime:,2025-05-05 11:54:06.685 +0200,,,,,,,,,,,,,,,,,
 2025,,,,,,,,,,,,,,,,,,,

PacketCounter,SampleTimeFine,Quat_W,Quat_X,Quat_Y,Quat_Z,FreeAcc_X,FreeAcc_Y,FreeAcc_Z,Status
1, 2839685247, -0.79705375, -0.10841265, -0.35603297, 0.47559386, 0.058064196, 0.07001722, -0.08458996, 0
2, 2839701914, -0.79704416, -0.10840129, -0.3560473, 0.47560194, 0.083517626, 0.06666531, -0.08659458, 0
3, 2839718581, -0.7970359, -0.10839146, -0.3560611, 0.47560775, 0.07106438, 0.06407088, -0.078474045, 0
4, 2839735248, -0.7970302, -0.108370334, -0.35605985, 0.47562304, 0.075149305, 0.0679899, -0.09787464, 0
5, 2839751915, -0.79702723, -0.1083616, -0.35604465, 0.47564128, 0.06692179, 0.046740472, -0.08190346, 0
6, 2839768582, -0.7970306, -0.10834661, -0.35603666, 0.47564512, 0.051827066, 0.07341417, -0.11118221, 0
7, 2839785249, -0.79703546, -0.10833575, -0.35602534, 0.4756479, 0.07485292, 0.06301864, -0.08538914, 0
8, 2839801916, -0.7970423, -0.10832907, -0.3560138, 0.47564667, 0.07483236, 0.05763354, -0.09939003, 0
9, 2839818583, -0.7970346, -0.108332485, -0.3560128, 0.47565943, 0.07891036, 0.06090706, -0.09747982, 0
10, 2839835250, -0.7970317, -0.10833366, -0.35601637, 0.47566125, 0.080719694, 0.06403015, -0.08393192, 0
11, 2839851917, -0.79702693, -0.10834519, -0.3560115, 0.47567028, 0.06911177, 0.047452137, -0.062012672, 0
12, 2839868584, -0.7970237, -0.108344436, -0.3560081, 0.4756783, 0.06883618, 0.061575975, -0.09137535, 0
13, 2839885251, -0.7970172, -0.10833549, -0.3559954, 0.47570077, 0.08381825, 0.07351347, -0.07955837, 0
14, 2839901918, -0.79702294, -0.10831066, -0.3559756, 0.4757116, 0.06617973, 0.06628405, -0.08390522, 0
15, 2839918585, -0.79702216, -0.10829741, -0.35594985, 0.47573537, 0.058639295, 0.06314559, -0.0898447, 0
16, 2839935252, -0.79702264, -0.10827705, -0.3559371, 0.47574878, 0.075442776, 0.045949794, -0.07970619, 0
17, 2839951919, -0.79702103, -0.108273886, -0.3559322, 0.47575584, 0.06671504, 0.06647778, -0.0792284, 0
18, 2839968586, -0.7970139, -0.108269565, -0.35591173, 0.4757841, 0.07660549, 0.055445686, -0.084602356, 0
19, 2839985253, -0.79703015, -0.108243555, -0.35589632, 0.4757743, 0.07387014, 0.06842676, -0.09476757, 0
20, 2840001920, -0.79703873, -0.1082212, -0.35586303, 0.47578987, 0.058102418, 0.06508032, -0.105047226, 0
21, 2840018587, -0.79704696, -0.108183146, -0.35583818, 0.47580338, 0.07163143, 0.057238705, -0.0836916, 0
22, 2840035254, -0.7970548, -0.10815889, -0.35580269, 0.4758222, 0.06711312, 0.062166832, -0.08427811, 0
23, 2840051921, -0.7970618, -0.10813277, -0.35577357, 0.47583824, 0.06788379, 0.06201043, -0.088531494, 0
24, 2840068588, -0.79707134, -0.10810585, -0.3557374, 0.47585532, 0.060453996, 0.05636276, -0.09810352, 0
25, 2840085255, -0.79707056, -0.10809529, -0.35571915, 0.47587246, 0.068065286, 0.04860066, -0.0956831, 0
26, 2840101922, -0.79706895, -0.10808446, -0.35570902, 0.47588548, 0.091925964, 0.060937285, -0.0884285, 0
27, 2840118589, -0.79706466, -0.108068176, -0.355692, 0.47590905, 0.06273651, 0.05839047, -0.09392357, 0
28, 2840135256, -0.7970702, -0.10805023, -0.35566667, 0.47592282, 0.06832389, 0.05643043, -0.095923424, 0
29, 2840151923, -0.7970765, -0.10803585, -0.35563356, 0.47594035, 0.06555098, 0.05280611, -0.087667465, 0
30, 2840168590, -0.7970688, -0.10803176, -0.35562006, 0.47596413, 0.06989273, 0.060150802, -0.1043787, 0
31, 2840185257, -0.7970625, -0.10801559, -0.35559946, 0.47599363, 0.09218211, 0.06676707, -0.078084946, 0
32, 2840201924, -0.79705703, -0.107990794, -0.35559165, 0.47601432, 0.091214746, 0.06251708, -0.09775448, 0
33, 2840218591, -0.7970675, -0.10797537, -0.35557646, 0.47601154, 0.06600695, 0.06862144, -0.08657551, 0
34, 2840235258, -0.7970647, -0.107954234, -0.35555592, 0.4760364, 0.078765966, 0.052615117, -0.08400822, 0
35, 2840251925, -0.7970609, -0.10794459, -0.35554188, 0.47605544, 0.07904357, 0.046806127, -0.080584526, 0
36, 2840268592, -0.7970465, -0.10793285, -0.355543, 0.4760815, 0.07884062, 0.058304586, -0.09662151, 0
38, 2840301926, -0.79703003, -0.107950434, -0.35554874, 0.47610065, 0.07593473, 0.081814624, -0.11661434, 0
39, 2840318593, -0.79702145, -0.10794413, -0.35555616, 0.476111, 0.08386027, 0.05791763, -0.082858086, 0
40, 2840335260, -0.7970114, -0.10792844, -0.35557607, 0.4761167, 0.08545638, 0.041477524, -0.091524124, 0
43, 2840385261, -0.7969904, -0.10793249, -0.35562015, 0.47611803, 0.06423919, 0.056876224, -0.09581089, 0
44, 2840401928, -0.7969841, -0.10792041, -0.3556391, 0.47611725, 0.08035224, 0.060099058, -0.088092804, 0
46, 2840435262, -0.7969737, -0.10794366, -0.35565105, 0.47612023, 0.057633486, 0.05431717, -0.10423565, 0
47, 2840451929, -0.7969804, -0.10794083, -0.35564864, 0.47611165, 0.07382186, 0.06271036, -0.0868454, 0
49, 2840485263, -0.7969838, -0.10796537, -0.3556249, 0.47611797, 0.07674608, 0.068235435, -0.090070724, 0
50, 2840501930, -0.79698426, -0.10796393, -0.35561618, 0.476124, 0.06298148, 0.04838508, -0.104338646, 0
51, 2840518597, -0.7969785, -0.10795987, -0.35562587, 0.47612727, 0.07311064, 0.04514822, -0.09105587, 0
53, 2840551931, -0.7969574, -0.10798042, -0.3556784, 0.4761189, 0.07290926, 0.052398644, -0.10337734, 0
54, 2840568598, -0.7969614, -0.10800572, -0.35569957, 0.47609022, 0.085768625, 0.058845766, -0.074617386, 0
55, 2840585265, -0.79695797, -0.10802234, -0.3557189, 0.47607794, 0.07955027, 0.07279163, -0.08639336, 0
58, 2840635266, -0.79695505, -0.10806147, -0.35576957, 0.476036, 0.076194674, 0.044523556, -0.08102512, 0
59, 2840651933, -0.79694855, -0.10809695, -0.35579118, 0.47602305, 0.057604652, 0.07779821, -0.10369015, 0
61, 2840685267, -0.7969428, -0.108153075, -0.35579878, 0.47601393, 0.09333409, 0.045340553, -0.07460022, 0
62, 2840701934, -0.79694647, -0.10816842, -0.35579374, 0.47600803, 0.06390146, 0.059546478, -0.099814415, 0
63, 2840718601, -0.79695815, -0.10816425, -0.35581088, 0.47597656, 0.07783056, 0.055763967, -0.086164474, 0
65, 2840751935, -0.7969605, -0.10818753, -0.35582212, 0.47595918, 0.08218929, 0.05320564, -0.095419884, 0
66, 2840768602, -0.7969597, -0.10821878, -0.35582727, 0.4759495, 0.10047198, 0.077470146, -0.076005936, 0
67, 2840785269, -0.7969624, -0.10821757, -0.35583237, 0.4759415, 0.095783345, 0.07539086, -0.08186245, 0
69, 2840818603, -0.7969695, -0.10822454, -0.35583255, 0.4759279, 0.054808952, 0.07363042, -0.089056015, 0
70, 2840835270, -0.796967, -0.10822967, -0.35582915, 0.47593343, 0.07645395, 0.032860428, -0.07754421, 0
73, 2840885271, -0.79694825, -0.10825595, -0.35585585, 0.4759389, 0.09672948, 0.060079053, -0.10064316, 0
74, 2840901938, -0.7969471, -0.10824839, -0.35585147, 0.4759459, 0.08955315, 0.051466316, -0.08829594, 0
76, 2840935272, -0.7969464, -0.10823376, -0.35585278, 0.47594932, 0.07092491, 0.05398609, -0.09026146, 0
77, 2840951939, -0.7969309, -0.10825802, -0.35585898, 0.47596502, 0.07002616, 0.05165932, -0.08633423, 0
78, 2840968606, -0.7969301, -0.10825735, -0.35586697, 0.47596067, 0.07661287, 0.04138605, -0.084459305, 0
80, 2841001940, -0.7969428, -0.1082333, -0.35585546, 0.47595328, 0.078600116, 0.054069515, -0.08554649, 0
81, 2841018607, -0.7969361, -0.10823445, -0.3558662, 0.4759562, 0.061904818, 0.064940065, -0.10827255, 0
82, 2841035274, -0.7969301, -0.108240135, -0.355881, 0.47595423, 0.07855743, 0.02861558, -0.072517395, 0
84, 2841068608, -0.7969279, -0.10825438, -0.3558987, 0.47594103, 0.09774467, 0.07493803, -0.09314537, 0
85, 2841085275, -0.79692, -0.10825599, -0.35592178, 0.4759369, 0.080818035, 0.0490735, -0.097374916, 0
88, 2841135276, -0.7968939, -0.108285435, -0.35595122, 0.47595197, 0.06313347, 0.06381753, -0.0956192, 0
89, 2841151943, -0.79688007, -0.108291775, -0.35596702, 0.47596195, 0.06327294, 0.062271826, -0.095666885, 0
90, 2841168610, -0.7968748, -0.10829382, -0.3559793, 0.47596073, 0.082474716, 0.07401073, -0.08762455, 0
92, 2841201944, -0.79686755, -0.10826096, -0.3559867, 0.47597492, 0.08298634, 0.06511078, -0.097299576, 0
93, 2841218611, -0.7968717, -0.10823747, -0.355988, 0.47597232, 0.07300581, 0.0516962, -0.087958336, 0
94, 2841235278, -0.7968606, -0.10820525, -0.35602263, 0.4759723, 0.048181795, 0.050906025, -0.101145744, 0
96, 2841268612, -0.7968133, -0.10813682, -0.35615787, 0.47596586, 0.085239574, 0.056542855, -0.09644222, 0
97, 2841285279, -0.79677844, -0.10808775, -0.3562443, 0.47597072, 0.0886848, 0.05076052, -0.10484886, 0
98, 2841301946, -0.79675096, -0.1080435, -0.35633707, 0.47595733, 0.04424506, 0.041059833, -0.11859417, 0
100, 2841335280, -0.7966921, -0.10806347, -0.35648438, 0.4759411, 0.0798129, 0.05711315, -0.08384895, 0
101, 2841351947, -0.79666597, -0.108057804, -0.3565468, 0.4759395, 0.084059425, 0.047438335, -0.07831478, 0
102, 2841368614, -0.796644, -0.10804956, -0.35661107, 0.47592986, 0.046813, 0.048748232, -0.09675503, 0
104, 2841401948, -0.7966189, -0.10799489, -0.35668975, 0.4759253, 0.06454071, 0.05670546, -0.10415363, 0
105, 2841418615, -0.79660213, -0.10796961, -0.35672948, 0.47592938, 0.07826328, 0.052344944, -0.114274025, 0
108, 2841468616, -0.79660714, -0.10791442, -0.35683188, 0.4758568, 0.07541171, 0.07824032, -0.087776184, 0
109, 2841485283, -0.7965915, -0.10787644, -0.35684785, 0.4758797, 0.091349296, 0.053242743, -0.07903385, 0
111, 2841518617, -0.796496, -0.107804224, -0.35705954, 0.47589687, 0.06397433, 0.033070363, -0.09235191, 0
112, 2841535284, -0.7964421, -0.10778852, -0.35721323, 0.47587526, 0.09854038, 0.038599737, -0.095793724, 0
115, 2841585285, -0.7963075, -0.10773091, -0.3576083, 0.4758169, 0.07353308, 0.06779757, -0.08124924, 0
117, 2841618619, -0.7962666, -0.107633814, -0.35772082, 0.47582272, 0.09267071, 0.0757391, -0.08846283, 0
119, 2841651953, -0.79629, -0.10747927, -0.35769528, 0.4758378, 0.0645986, 0.07248905, -0.074373245, 0
120, 2841668620, -0.79628634, -0.10742653, -0.35771734, 0.4758392, 0.08435647, 0.04276345, -0.078944206, 0
121, 2841685287, -0.79624116, -0.10737963, -0.35780904, 0.47585627, 0.06887417, 0.027806297, -0.0776968, 0
123, 2841718621, -0.7960438, -0.10730284, -0.35829648, 0.47583726, 0.09716131, 0.035320524, -0.07231331, 0
124, 2841735288, -0.7959253, -0.10727616, -0.3586252, 0.47579405, 0.052078743, 0.048413187, -0.11114216, 0
125, 2841751955, -0.79587185, -0.10720643, -0.3588025, 0.47576532, 0.062229585, 0.13399713, -0.08964825, 0
127, 2841785289, -0.7959245, -0.106879786, -0.3587582, 0.47578427, 0.06463056, 0.08845452, -0.09088707, 0
128, 2841801956, -0.7959409, -0.1066991, -0.35871232, 0.4758321, 0.045574516, 0.044225335, -0.11586189, 0
130, 2841835290, -0.79596114, -0.1065698, -0.3586693, 0.47585934, 0.08230127, 0.0064512542, -0.12140083, 0
132, 2841868624, -0.7958785, -0.106620446, -0.35890555, 0.47580802, 0.044921856, 0.038986582, -0.043614388, 0
134, 2841901958, -0.79579747, -0.10634954, -0.359122, 0.47584093, 0.08710032, 0.066496335, -0.0906477, 0
135, 2841918625, -0.7957902, -0.106171146, -0.35912555, 0.47589025, 0.055764023, 0.06783937, -0.09182072, 0
136, 2841935292, -0.7958214, -0.10605414, -0.35903716, 0.47593087, 0.044687618, 0.070541136, -0.12641144, 0
138, 2841968626, -0.795958, -0.10597078, -0.35865167, 0.47601163, 0.07567657, 0.07170636, -0.09334469, 0
139, 2841985293, -0.79599166, -0.10595472, -0.35854504, 0.47603917, 0.107858635, 0.08094913, -0.07301426, 0
140, 2842001960, -0.795982, -0.10587399, -0.35851562, 0.47609547, 0.06565291, 0.07584141, -0.060102463, 0
142, 2842035294, -0.7958976, -0.105472915, -0.3585689, 0.47628567, 0.10695899, 0.04383346, -0.099443436, 0
143, 2842051961, -0.7958538, -0.10528436, -0.35861552, 0.4763653, 0.086539075, 0.054000117, -0.11152172, 0
144, 2842068628, -0.79585695, -0.105230644, -0.3585915, 0.47638997, 0.037958536, 0.028321158, -0.14847755, 0
147, 2842118629, -0.79586667, -0.10495087, -0.3584199, 0.47656447, 0.0485754, 0.04704009, -0.0582304, 0
148, 2842135296, -0.7958502, -0.10469404, -0.35840318, 0.47666115, 0.045424093, 0.0049217553, -0.107234955, 0
150, 2842168630, -0.79580253, -0.104426794, -0.358426, 0.47678226, 0.086203136, 0.034185525, -0.13071918, 0
151, 2842185297, -0.79581517, -0.104375295, -0.35842213, 0.4767753, 0.05360936, 0.028608149, -0.09025097, 0
152, 2842201964, -0.79582715, -0.104331665, -0.35839373, 0.47678626, 0.053965192, 0.06727734, -0.082473755, 0
154, 2842235298, -0.795807, -0.10401449, -0.35838303, 0.47689718, 0.08863161, 0.061840057, -0.09736538, 0
155, 2842251965, -0.79584044, -0.10384695, -0.3583134, 0.4769301, 0.0822103, 0.08922676, -0.09827232, 0
157, 2842285299, -0.79586065, -0.10366881, -0.3582059, 0.47701573, 0.07699485, 0.06032369, -0.051246643, 0
158, 2842301966, -0.79586715, -0.103592984, -0.35818896, 0.47703427, 0.13148955, 0.04659798, -0.100655556, 0
159, 2842318633, -0.7958522, -0.1035304, -0.35822028, 0.47704938, 0.16295794, 0.059242837, -0.1415987, 0
162, 2842368634, -0.79549444, -0.10355056, -0.35955724, 0.4766357, 0.11513041, 0.13641007, -0.057318687, 0
163, 2842385301, -0.79522455, -0.103478484, -0.36036614, 0.4764907, 0.08268437, 0.0889068, -0.15755272, 0
165, 2842418635, -0.79460615, -0.10360452, -0.36231145, 0.47601962, 0.06710082, -0.014804381, -0.11019707, 0
166, 2842435302, -0.7942394, -0.10373958, -0.3634085, 0.47576603, 0.12635143, 0.050263427, -0.06860542, 0
167, 2842451969, -0.793794, -0.10391318, -0.3646895, 0.47549105, 0.15389471, -0.023886774, -0.10449982, 0
169, 2842485303, -0.7927381, -0.10462613, -0.36789215, 0.47462857, 0.15700825, 0.064282104, 0.0014638901, 0
170, 2842501970, -0.7920772, -0.10505996, -0.36968225, 0.47424495, 0.16171296, 0.10480975, -0.054896355, 0
171, 2842518637, -0.7913293, -0.10555951, -0.371587, 0.47389376, 0.15254425, 0.098711535, -0.06422329, 0
173, 2842551971, -0.78964007, -0.10690513, -0.3757947, 0.47309124, 0.21635897, -0.006789653, -0.058674812, 0
174, 2842568638, -0.78858435, -0.10778452, -0.37843466, 0.47254804, 0.20221306, -0.028357815, -0.10285759, 0
175, 2842585305, -0.7874515, -0.1088032, -0.38126624, 0.47192708, 0.21053378, -0.0023424716, -0.07163429, 0
177, 2842618639, -0.7847998, -0.110593736, -0.38762397, 0.47074735, 0.11993817, 0.09241389, -0.049399376, 0
178, 2842635306, -0.7833861, -0.11143359, -0.3909883, 0.47012138, 0.029537013, -0.015440163, -0.041628838, 0
179, 2842651973, -0.78198725, -0.11240372, -0.39444387, 0.4693321, 0.006343074, -0.11646528, -0.10650158, 0
181, 2842685307, -0.77889556, -0.11524042, -0.4024014, 0.46702415, 0.13142495, -0.01791216, -0.07345772, 0
182, 2842701974, -0.7770419, -0.11686155, -0.40695778, 0.46575922, 0.2233822, 0.044035293, -0.07034397, 0
183, 2842718641, -0.7749141, -0.118492395, -0.4118872, 0.46455777, 0.26337314, 0.016467206, -0.05266571, 0
185, 2842751975, -0.7700303, -0.12214171, -0.42274758, 0.46197006, -0.10276098, -0.09888526, -0.09285927, 0
186, 2842768642, -0.7675088, -0.124489, -0.42858917, 0.46015352, 0.041632865, -0.4075377, -0.061288834, 0
189, 2842818643, -0.7595808, -0.13453984, -0.4471653, 0.45274305, 0.11920304, 0.080339946, -0.014215469, 0
190, 2842835310, -0.75691265, -0.13838305, -0.45299292, 0.45025343, -0.027801882, -0.08821833, -0.031251907, 0
192, 2842868644, -0.7515971, -0.14762437, -0.46436095, 0.44460645, -0.06946626, -0.1540634, -0.031169891, 0
193, 2842885311, -0.7489849, -0.15317442, -0.4697899, 0.4414226, -0.24030034, -0.058773737, 0.02584362, 0
194, 2842901978, -0.7466039, -0.15979195, -0.47483703, 0.4376942, -0.29631224, -0.6345479, 0.15075016, 0
196, 2842935312, -0.74365425, -0.17569792, -0.48366275, 0.42682117, -0.83807164, -0.29447296, 0.71313, 0
197, 2842951979, -0.74420077, -0.18341722, -0.48624235, 0.4196295, -0.9809532, -0.27105618, 0.98994255, 0
198, 2842968646, -0.746537, -0.19012533, -0.48759413, 0.4108331, -1.2785544, -0.37219086, 1.3251543, 0
200, 2843001980, -0.7570472, -0.19668181, -0.48738128, 0.38813955, -1.2285506, -1.7900467, 1.8534222, 0
201, 2843018647, -0.76458186, -0.19712688, -0.48446435, 0.37662578, -0.99501306, -4.3806005, -0.10468197, 0
204, 2843068648, -0.78716123, -0.17158434, -0.45153227, 0.38347322, 2.3771532, -15.504732, -2.6024833, 0
205, 2843085315, -0.7911407, -0.15252295, -0.4392449, 0.3973589, 2.4674644, -10.603806, 0.2243309, 0
206, 2843101982, -0.79503524, -0.13095431, -0.4265189, 0.4109118, 3.4346323, -4.813092, 0.8866701, 0
208, 2843135316, -0.80315477, -0.08617848, -0.4045488, 0.4287807, 1.0404503, 3.5096567, 0.10352802, 0
209, 2843151983, -0.8059917, -0.06706677, -0.39726213, 0.43365797, -0.47598135, 5.4285007, -3.1696668, 0
211, 2843185317, -0.81617105, -0.05923297, -0.38937017, 0.42278156, 5.5073752, 23.563911, -5.515821, 0
212, 2843201984, -0.83084095, -0.06257049, -0.38434678, 0.3975712, -4.001013, 34.42772, 2.16533, 0
213, 2843218651, -0.83695096, -0.06785924, -0.37452516, 0.39323816, -2.5271673, 3.9727252, 2.112502, 0
215, 2843251985, -0.8384745, -0.067019366, -0.3706286, 0.39382786, 0.17087074, 0.9375566, 0.768281, 0
216, 2843268652, -0.8379209, -0.0665264, -0.3712065, 0.39454496, -0.34940952, -0.8790996, -0.3306389, 0
219, 2843318653, -0.83715546, -0.06913679, -0.37305126, 0.3939805, -0.08975454, -0.14074041, -0.22271252, 0
220, 2843335320, -0.83705777, -0.07117601, -0.3734491, 0.393448, 0.10473392, 0.008212257, -0.09919357, 0
221, 2843351987, -0.83695567, -0.07263044, -0.37390453, 0.39296612, 0.053560857, 0.23898906, 0.12900066, 0
223, 2843385321, -0.83698803, -0.073547, -0.37398916, 0.39264634, 0.007069268, 0.21389608, -0.009516716, 0
224, 2843401988, -0.8371837, -0.073602214, -0.37352318, 0.39266217, -0.0544862, 0.08523544, -0.052859306, 0
225, 2843418655, -0.8374879, -0.073497, -0.37282354, 0.39269847, -0.09627083, 0.07357873, -0.005760193, 0
227, 2843451989, -0.8381481, -0.07288521, -0.37122115, 0.39292184, 0.027653024, 0.21036045, 0.036221504, 0
228, 2843468656, -0.83844954, -0.072202034, -0.3703052, 0.39326876, 0.11921466, 0.19410345, -0.08520985, 0
229, 2843485323, -0.8387378, -0.07148301, -0.3693972, 0.39363933, 0.013570142, -0.05147727, -0.17754745, 0
231, 2843518657, -0.839354, -0.07101242, -0.36776277, 0.39394125, -0.018419033, -0.08534535, -0.08576679, 0
233, 2843551991, -0.83977515, -0.070772484, -0.3666916, 0.39408562, 0.089614615, 0.20968169, 0.049049377, 0
235, 2843585325, -0.8400559, -0.070516214, -0.36593246, 0.39423868, 0.0814669, 0.053470835, -0.18398857, 0
236, 2843601992, -0.840176, -0.070717804, -0.36570245, 0.39416018, 0.09371049, -0.1441501, -0.23831463, 0
238, 2843635326, -0.84035444, -0.07173479, -0.3655448, 0.3937421, 0.014137865, 0.02010013, -0.01704216, 0
239, 2843651993, -0.84046793, -0.072078295, -0.36538145, 0.39358842, 0.043240592, 0.23079473, 0.051742554, 0
240, 2843668660, -0.8405751, -0.072251186, -0.3651752, 0.3935193, 0.2928746, 0.2157517, -0.12632942, 0
242, 2843701994, -0.8406919, -0.07263473, -0.36509132, 0.39327696, 0.12605706, -0.14548962, -0.26702213, 0
243, 2843718661, -0.8406801, -0.07298663, -0.3652951, 0.39304733, 0.07683727, 0.09444668, -0.10700798, 0
244, 2843735328, -0.84063995, -0.07329773, -0.36553034, 0.39285684, 0.06357737, 0.08251238, -0.039387703, 0
246, 2843768662, -0.8405426, -0.07380626, -0.36595947, 0.39257044, 0.04885479, 0.13360855, -0.055329323, 0
247, 2843785329, -0.8405193, -0.07390417, -0.36604264, 0.3925243, 0.07897025, 0.19320332, -0.010038376, 0
248, 2843801996, -0.8405108, -0.07385374, -0.3660139, 0.3925788, 0.035365783, 0.119269416, -0.033411026, 0
250, 2843835330, -0.8405388, -0.07343967, -0.3657765, 0.3928178, 0.07792712, 0.13738716, -0.057204247, 0
251, 2843851997, -0.8405498, -0.07317568, -0.36562642, 0.39298326, 0.030505942, 0.04467348, -0.083026886, 0
252, 2843868664, -0.840577, -0.073014565, -0.36546135, 0.39310846, -0.003189083, -0.0077453386, -0.085253716, 0
254, 2843901998, -0.840713, -0.07287847, -0.3649534, 0.39331463, 0.1077699, 0.1414909, -0.033958435, 0
255, 2843918665, -0.8407799, -0.07268494, -0.3646874, 0.39345434, -0.0020156398, 0.02344651, -0.091202736, 0
256, 2843935332, -0.8408386, -0.072500035, -0.3644119, 0.3936181, 0.024332514, 0.06533127, -0.08707142, 0
258, 2843968666, -0.8410011, -0.07181547, -0.3637105, 0.39404497, 0.024295859, 0.09118105, -0.059096336, 0
260, 2844002000, -0.84131694, -0.07088129, -0.36254886, 0.3946098, 0.061065305, 0.11680078, -0.062366486, 0
262, 2844035334, -0.8415678, -0.06981345, -0.36146593, 0.39525855, 0.03411411, 0.029136814, -0.15092278, 0
263, 2844052001, -0.8416798, -0.06927006, -0.36096242, 0.39557594, 0.1159384, 0.064519644, -0.11372948, 0
264, 2844068668, -0.841792, -0.06878406, -0.3604496, 0.39588922, 0.011618874, 0.05579459, -0.09753418, 0
266, 2844102002, -0.8421082, -0.068188965, -0.35929057, 0.39637274, 0.059635714, -0.021431651, -0.14305878, 0
267, 2844118669, -0.84222925, -0.068138584, -0.35884234, 0.39653045, 0.1283027, 0.028909557, -0.1707983, 0
269, 2844152003, -0.84240407, -0.06821524, -0.35824147, 0.39668894, 0.08713318, 0.010184871, -0.11171341, 0
270, 2844168670, -0.8424491, -0.0682327, -0.3580767, 0.39673898, 0.029174251, 0.07002929, 0.01624012, 0
271, 2844185337, -0.8424769, -0.06821693, -0.35796636, 0.39678216, 0.09738817, 0.0171302, -0.12139225, 0
273, 2844218671, -0.8425163, -0.06853667, -0.3579561, 0.3966529, 0.07136076, 0.012377924, -0.16458702, 0
275, 2844252005, -0.8425751, -0.069266155, -0.3580386, 0.39632672, 0.039445568, 0.055565823, -0.08479881, 0
277, 2844285339, -0.8426266, -0.069701105, -0.35803246, 0.39614627, 0.08991926, 0.15126356, 0.012640953, 0
278, 2844302006, -0.84257215, -0.06964915, -0.358121, 0.39619127, 0.05723362, 0.055644557, 0.00496006, 0
279, 2844318673, -0.8425158, -0.06960028, -0.3582294, 0.39622173, -0.035694797, -0.08284161, -0.08015823, 0
281, 2844352007, -0.8424977, -0.070182405, -0.358454, 0.39595416, 0.033108752, -0.053516656, -0.12271881, 0
282, 2844368674, -0.8424772, -0.07062849, -0.35864744, 0.39574313, 0.109403335, 0.035877015, -0.11597347, 0
283, 2844385341, -0.8424213, -0.071018115, -0.35893136, 0.39553508, 0.21199556, 0.22230566, -0.11263943, 0
285, 2844418675, -0.8422469, -0.07139841, -0.3595031, 0.395319, -0.005036641, 0.079889394, -0.089445114, 0
286, 2844435342, -0.8421942, -0.07164115, -0.35969433, 0.39521316, 0.04587894, 0.02685592, -0.14114285, 0
287, 2844452009, -0.84214914, -0.07196798, -0.35986564, 0.39509407, 0.06014801, 0.047119547, -0.12765789, 0
290, 2844502010, -0.84184724, -0.07297637, -0.36073095, 0.3947633, 0.05887443, 0.09592187, -0.082969666, 0
292, 2844535344, -0.8416223, -0.07352712, -0.36126354, 0.39465386, 0.046332672, 0.090592146, -0.06457901, 0
293, 2844552011, -0.84153295, -0.07378727, -0.36145982, 0.394616, -0.0024036583, 0.09047939, -0.06608963, 0
294, 2844568678, -0.84146386, -0.07400716, -0.36161044, 0.39458376, 2.6083962E-4, 0.07440825, -0.076088905, 0
296, 2844602012, -0.8414513, -0.07419091, -0.36166897, 0.39452237, 0.045895033, 0.06429831, -0.06688309, 0
297, 2844618679, -0.8415238, -0.074182, -0.36150888, 0.39451602, 0.048513263, 0.15999052, -0.06445408, 0
298, 2844635346, -0.84148777, -0.07411409, -0.36156544, 0.394554, 0.073999554, 0.023116939, -0.06422615, 0
300, 2844668680, -0.8414888, -0.07431455, -0.36157686, 0.39450383, 0.11687247, 0.05807403, -0.09772301, 0
301, 2844685347, -0.8414791, -0.07446292, -0.36161172, 0.3944644, 0.12692787, 0.08750381, -0.12511349, 0
302, 2844702014, -0.8414489, -0.0745521, -0.36167946, 0.3944499, 0.19926962, 0.053299233, -0.1675806, 0
305, 2844752015, -0.8413269, -0.074693136, -0.362114, 0.3942847, 0.049550585, 0.10132993, -0.09850311, 0
306, 2844768682, -0.84128106, -0.074757524, -0.36230722, 0.39419296, 0.03850413, -0.050666586, -0.14290714, 0
308, 2844802016, -0.84111595, -0.075030036, -0.36293575, 0.39391518, 0.07756592, 0.09190428, -0.060913086, 0
309, 2844818683, -0.8410167, -0.075189345, -0.36325625, 0.3938014, 0.030154804, 0.093478486, -0.060375214, 0
310, 2844835350, -0.84092367, -0.07540225, -0.36356968, 0.39366993, 0.03620977, 0.0066752704, -0.089455605, 0
312, 2844868684, -0.8407637, -0.075872555, -0.3640872, 0.3934429, 0.04489593, 0.10788646, -0.03774166, 0
313, 2844885351, -0.8407196, -0.0759546, -0.36424324, 0.39337695, 0.057935454, 0.1792718, -0.028666496, 0
314, 2844902018, -0.8406966, -0.07591232, -0.36430252, 0.39337945, 0.07227068, 0.14067945, -0.10390091, 0
316, 2844935352, -0.84068865, -0.07572942, -0.36429927, 0.39343464, 0.016681666, 0.0065541263, -0.117518425, 0
317, 2844952019, -0.84067667, -0.075676, -0.36432934, 0.3934427, 0.0724743, 0.06691402, -0.07051468, 0
319, 2844985353, -0.84058446, -0.07557105, -0.36458126, 0.39342627, 0.08699571, 0.108651824, -0.08634186, 0
320, 2845002020, -0.8405309, -0.07544983, -0.36467335, 0.39347872, 0.0814897, 0.08560334, -0.07887936, 0
321, 2845018687, -0.84050304, -0.07532581, -0.36471614, 0.39352223, -0.0052751293, 0.0024037142, -0.066218376, 0
323, 2845052021, -0.84047043, -0.075192004, -0.36478245, 0.39355585, 0.023540162, 0.04788547, -0.08422184, 0
324, 2845068688, -0.8404367, -0.07514496, -0.36485308, 0.39357138, 0.052318126, 0.058169357, -0.052230835, 0
325, 2845085355, -0.8404095, -0.075034484, -0.36492267, 0.39358625, 0.087043546, 0.124167144, -0.07611275, 0
327, 2845118689, -0.8403509, -0.074622415, -0.3650145, 0.39370465, 0.061118945, 0.09213098, -0.11695099, 0
328, 2845135356, -0.8403256, -0.074343085, -0.36504942, 0.39377946, 0.012648375, 0.046978734, -0.10548496, 0
329, 2845152023, -0.8403042, -0.07404477, -0.3650934, 0.39384022, 0.02532469, 0.07736689, -0.10268688, 0
332, 2845202024, -0.8402302, -0.073259994, -0.36522645, 0.3940215, 0.06924923, 0.0732975, -0.08480263, 0
333, 2845218691, -0.840195, -0.073012725, -0.36529633, 0.39407787, 0.055374887, 0.056392934, -0.059607506, 0
335, 2845252025, -0.84018606, -0.07258353, -0.36527106, 0.39419928, 0.04317533, 0.05730604, -0.08235836, 0
336, 2845268692, -0.84019166, -0.07238929, -0.36523494, 0.39425677, 0.054298002, 0.10112307, -0.08607006, 0
337, 2845285359, -0.8401979, -0.072159715, -0.36517736, 0.39433885, 0.066477224, 0.09373105, -0.08193779, 0
339, 2845318693, -0.8402171, -0.07174848, -0.36501884, 0.3945199, 0.07068396, 0.03786315, -0.11964989, 0
340, 2845335360, -0.8402167, -0.071575664, -0.36497656, 0.394591, 0.059297092, 0.06223299, -0.07012272, 0
341, 2845352027, -0.840226, -0.07140505, -0.36490223, 0.39467096, 0.06469605, 0.07697702, -0.07678604, 0
343, 2845385361, -0.84026605, -0.0711079, -0.36468604, 0.39483905, 0.051880486, 0.07721881, -0.09209347, 0
344, 2845402028, -0.84028804, -0.07095958, -0.36454728, 0.3949471, 0.036166184, 0.06940748, -0.10872173, 0
347, 2845452029, -0.84033465, -0.07050909, -0.36419603, 0.39525232, 0.049688943, 0.037856724, -0.112607, 0
348, 2845468696, -0.84033877, -0.07041638, -0.36412296, 0.39532766, 0.072710104, 0.044899225, -0.11217594, 0
350, 2845502030, -0.8403437, -0.07022039, -0.3640139, 0.39545202, 0.06811132, 0.050695308, -0.10230827, 0
351, 2845518697, -0.8403357, -0.07010685, -0.3639757, 0.39552435, 0.041545916, 0.093318276, -0.10108185, 0
352, 2845535364, -0.84033364, -0.06998344, -0.36393487, 0.39558813, 0.049090374, 0.06685859, -0.11502552, 0
354, 2845568698, -0.8403339, -0.06975376, -0.36383933, 0.39571643, 0.041972157, 0.049218837, -0.10112572, 0
355, 2845585365, -0.8403173, -0.06964939, -0.3638175, 0.39578983, 0.04463822, 0.07687963, -0.06642532, 0
356, 2845602032, -0.8403134, -0.06949459, -0.36379644, 0.39584494, 0.07606548, 0.071282245, -0.07978439, 0
358, 2845635366, -0.8403112, -0.069239594, -0.36370146, 0.39598152, 0.07909095, 0.08071114, -0.09314537, 0
359, 2845652033, -0.84032136, -0.069168, -0.36364263, 0.3960264, 0.043014396, 0.029266171, -0.120882034, 0
362, 2845702034, -0.84034485, -0.06904361, -0.36352354, 0.3961073, 0.059160303, 0.09044195, -0.08745003, 0
363, 2845718701, -0.8403375, -0.06899261, -0.36350438, 0.39614978, 0.08142957, 0.06908048, -0.099972725, 0
364, 2845735368, -0.8403229, -0.068973176, -0.36350584, 0.39618263, 0.049192965, 0.020966744, -0.11879635, 0
366, 2845768702, -0.84032536, -0.06905991, -0.36347073, 0.39619452, 0.07339472, 0.07451855, -0.11513424, 0
367, 2845785369, -0.84035057, -0.0690966, -0.3634173, 0.39618355, 0.07515042, 0.2439749, -0.30612183, 0
368, 2845802036, -0.8403181, -0.06906427, -0.36345658, 0.39622205, 0.25531682, 0.34070718, 0.3503294, 0
370, 2845835370, -0.8401636, -0.06916706, -0.3638148, 0.39620295, 0.06260061, 0.08789155, -0.08693886, 0
371, 2845852037, -0.8401653, -0.0693609, -0.36387897, 0.39610654, -0.015192846, 9.020983E-4, -0.1400919, 0
373, 2845885371, -0.84014475, -0.06992914, -0.3643021, 0.3956613, 0.03476342, -0.19754528, -0.29115295, 0
374, 2845902038, -0.84011877, -0.070337966, -0.36469853, 0.3952786, 0.07440478, 0.11703021, -0.04393387, 0
377, 2845952039, -0.8399542, -0.07128166, -0.3659008, 0.39434686, 0.063401684, 0.093049675, -0.026887894, 0
378, 2845968706, -0.8398819, -0.07149225, -0.36631155, 0.39408156, 0.05064133, 0.20053756, 0.03892231, 0
379, 2845985373, -0.8398175, -0.07162589, -0.36663318, 0.3938952, 0.054075383, 0.11699127, -0.025424004, 0
381, 2846018707, -0.8397041, -0.07184895, -0.36717823, 0.393589, 0.039081242, 0.056359686, -0.10291767, 0
382, 2846035374, -0.83965194, -0.07205587, -0.36739087, 0.3934636, 0.060705673, 0.049982972, -0.113061905, 0
383, 2846052041, -0.8396495, -0.07246104, -0.3674742, 0.39331645, 0.06118734, 0.025563903, -0.102519035, 0
385, 2846085375, -0.8397011, -0.0736018, -0.3674332, 0.3930329, 0.0700199, 0.09089104, -0.09348011, 0
386, 2846102042, -0.83972263, -0.07414692, -0.36745295, 0.39286602, 0.12703314, -0.0135828825, -0.18508434, 0
387, 2846118709, -0.83970076, -0.0747254, -0.3676447, 0.39262375, 0.10466218, 0.0059376773, -0.08168125, 0
389, 2846152043, -0.8395547, -0.07568286, -0.36829042, 0.39214694, 0.05551637, 0.13352111, -0.04175949, 0
390, 2846168710, -0.8394483, -0.0760106, -0.36864322, 0.39197978, 0.07297273, 0.14479002, -0.051425934, 0
391, 2846185377, -0.8393508, -0.0762912, -0.3689643, 0.39183193, 0.022628227, 0.122623175, -0.06630993, 0
393, 2846218711, -0.8392276, -0.07688355, -0.3693818, 0.39158675, 0.028526288, 0.0730442, -0.083067894, 0
394, 2846235378, -0.83918816, -0.07712164, -0.36950576, 0.39150763, 0.051116295, 0.1310742, -0.06281757, 0
395, 2846252045, -0.8391701, -0.07724704, -0.36956003, 0.39146987, 0.036259837, 0.13626137, -0.05765152, 0
397, 2846285379, -0.8392163, -0.07725073, -0.36940902, 0.39151263, 0.052449774, 0.1292078, -0.07199764, 0
398, 2846302046, -0.8392822, -0.077160634, -0.36919123, 0.39159483, 0.052379813, 0.09541271, -0.0758543, 0
400, 2846335380, -0.8394094, -0.076950766, -0.368775, 0.3917559, 0.07127582, 0.06940888, -0.08695316, 0
401, 2846352047, -0.83945894, -0.076862596, -0.36858615, 0.39184457, 0.058217525, 0.04361453, -0.11931133, 0
404, 2846402048, -0.8394399, -0.07677613, -0.36852348, 0.39196134, 0.061985955, 0.0937657, -0.08327389, 0
405, 2846418715, -0.83943033, -0.076727405, -0.36852655, 0.39198804, 0.06555009, 0.06491252, -0.07222462, 0
406, 2846435382, -0.8394213, -0.07668398, -0.36851758, 0.39202476, 0.07060372, 0.092582025, -0.07762051, 0
408, 2846468716, -0.839424, -0.07645429, -0.36842334, 0.39215234, 0.056923833, 0.09904239, -0.10546398, 0
409, 2846485383, -0.8394283, -0.076327026, -0.36838418, 0.3922048, 0.06268197, 0.037634272, -0.14945698, 0
410, 2846502050, -0.83941185, -0.07625221, -0.3684318, 0.39220947, 0.1009009, 0.052449103, -0.09839153, 0
412, 2846535384, -0.83934754, -0.076109536, -0.3685906, 0.39222574, 0.05316725, 0.07343904, -0.069615364, 0
413, 2846552051, -0.83932346, -0.076020345, -0.3686548, 0.39223424, 0.027156154, 0.08578802, -0.08452988, 0
414, 2846568718, -0.8393041, -0.07592166, -0.3686945, 0.3922574, 0.052840922, 0.08493917, -0.09448719, 0
416, 2846602052, -0.8393037, -0.07572344, -0.36865842, 0.39233047, 0.036064934, 0.08265995, -0.09127998, 0
418, 2846635386, -0.83932936, -0.07548757, -0.36851847, 0.39245245, 0.06622443, 0.105050646, -0.09881115, 0
420, 2846668720, -0.8393848, -0.07515577, -0.36831075, 0.39259264, 0.04087672, 0.09096921, -0.103401184, 0
421, 2846685387, -0.83941925, -0.07496652, -0.36817375, 0.39268398, 0.05989566, 0.0736887, -0.086034775, 0
422, 2846702054, -0.8394721, -0.07477782, -0.36797798, 0.39279023, 0.054298896, 0.10526974, -0.08253956, 0
424, 2846735388, -0.8395828, -0.0744278, -0.36756352, 0.39300802, 0.06833082, 0.10456886, -0.075743675, 0
425, 2846752055, -0.83964086, -0.07424127, -0.36734283, 0.3931256, 0.05272447, 0.09200318, -0.093530655, 0
426, 2846768722, -0.8397004, -0.0740499, -0.3670965, 0.39326477, 0.06282614, 0.08527561, -0.08173561, 0
428, 2846802056, -0.83982736, -0.07363222, -0.36656106, 0.39357138, 0.07853262, 0.062687226, -0.08997822, 0
429, 2846818723, -0.8398938, -0.07342857, -0.36629522, 0.39371514, 0.08178764, 0.058868676, -0.09005451, 0
431, 2846852057, -0.8400104, -0.07303099, -0.36577263, 0.39402583, 0.03645139, 0.12774906, -0.072834015, 0
433, 2846885391, -0.84017086, -0.07254523, -0.36516795, 0.3943347, 0.070710115, 0.077591576, -0.109929085, 0
435, 2846918725, -0.84028524, -0.07212211, -0.36464542, 0.39465186, 0.05075465, 0.047309365, -0.10606384, 0
436, 2846935392, -0.8403204, -0.071950205, -0.3644532, 0.39478573, 0.06250697, 0.053890258, -0.10683155, 0
437, 2846952059, -0.84036183, -0.07178789, -0.36427498, 0.39489168, 0.050927427, 0.08749387, -0.104180336, 0
439, 2846985393, -0.8404304, -0.07139583, -0.36394987, 0.39511642, 0.06912161, 0.098688014, -0.09852123, 0
440, 2847002060, -0.84045756, -0.07116412, -0.3638045, 0.39523444, 0.06234894, 0.06746979, -0.08874512, 0
441, 2847018727, -0.84049183, -0.070894845, -0.36362815, 0.39537224, 0.04487961, 0.11568215, -0.08899212, 0
443, 2847052061, -0.84055597, -0.07028579, -0.3632482, 0.39569342, 0.08310502, 0.036748547, -0.26191902, 0
444, 2847068728, -0.8404375, -0.07013823, -0.36345088, 0.39578524, 0.12067219, 0.12711668, -0.008838654, 0
445, 2847085395, -0.84037554, -0.070002735, -0.36352855, 0.39586952, -0.02538012, -0.078253955, -0.16706562, 0
448, 2847135396, -0.8404335, -0.06987271, -0.36361238, 0.3956925, 0.057258878, 0.032921225, -0.14271736, 0
449, 2847152063, -0.8404573, -0.069975756, -0.36364207, 0.3955962, 0.032241967, 0.0378356, -0.10749912, 0
451, 2847185397, -0.8404629, -0.07045139, -0.3638792, 0.39528146, 0.09414567, -0.1558978, -0.19922256, 0
452, 2847202064, -0.84042, -0.070700556, -0.36422306, 0.3950116, 0.055779893, 0.19410641, 0.030749321, 0
454, 2847235398, -0.8403627, -0.07055663, -0.3645616, 0.3948472, 0.054615837, 0.1908919, -0.014200211, 0
455, 2847252065, -0.84035045, -0.07029112, -0.36458537, 0.39489853, 0.069242746, 0.1895714, -0.027626038, 0
456, 2847268732, -0.84034544, -0.06996841, -0.36456302, 0.39498726, 0.035805434, 0.118771486, -0.024583817, 0
458, 2847302066, -0.84034127, -0.06914082, -0.36442474, 0.3952692, 0.0473016, 0.016516099, -0.14123917, 0
459, 2847318733, -0.8403537, -0.06891924, -0.36432406, 0.39537436, 0.08043784, 0.016377296, -0.20320797, 0
460, 2847335400, -0.840362, -0.06886631, -0.36426565, 0.39541978, 0.061892748, -0.019723957, -0.20684719, 0
462, 2847368734, -0.8403612, -0.0691382, -0.36428204, 0.39535892, 0.08465866, 0.059453998, -0.09061909, 0
463, 2847385401, -0.84035796, -0.06924742, -0.3643096, 0.3953213, 0.05693188, 0.09731106, -0.11471367, 0
464, 2847402068, -0.84034145, -0.06937938, -0.36438945, 0.39525974, 0.0871743, 0.0052726706, -0.16708183, 0
466, 2847435402, -0.84029096, -0.06962668, -0.36463884, 0.39509365, 0.026962368, 0.11161298, -0.014575005, 0
467, 2847452069, -0.8402965, -0.06957758, -0.36461818, 0.3951095, 0.020142317, 0.21477628, 0.07587147, 0
468, 2847468736, -0.8403367, -0.06940089, -0.36444476, 0.39521506, 0.038049504, 0.089790516, -0.067863464, 0
470, 2847502070, -0.840416, -0.069047175, -0.36412597, 0.3954017, 0.03439194, 0.059797596, -0.10562515, 0
471, 2847518737, -0.8404563, -0.06883778, -0.36395618, 0.39550936, 0.02477194, 0.12360551, 0.028918266, 0
472, 2847535404, -0.8405321, -0.06843156, -0.36362982, 0.3957186, -0.013287845, 0.14753795, 0.009979248, 0
475, 2847585405, -0.84102124, -0.06679174, -0.3616811, 0.39674437, 0.066187106, 0.067433804, -0.051023483, 0
476, 2847602072, -0.8411759, -0.06612222, -0.3610325, 0.3971192, 0.09129319, 0.13783497, -0.03159237, 0
478, 2847635406, -0.84143955, -0.064737506, -0.35978752, 0.39791778, 0.018391317, 0.08232608, -0.095311165, 0
479, 2847652073, -0.84154576, -0.0641619, -0.3592267, 0.3982929, 0.06016343, -0.0034848463, -0.14512062, 0
481, 2847685407, -0.84159696, -0.06291715, -0.35840186, 0.3991257, 0.022279995, 0.056285925, -0.15725136, 0
482, 2847702074, -0.84157956, -0.06226501, -0.35804203, 0.39958715, 0.0446523, 0.04075703, -0.20261192, 0
483, 2847718741, -0.84159046, -0.061774284, -0.35764462, 0.39999616, -0.03770373, -0.051346682, -0.19836807, 0
485, 2847752075, -0.8416225, -0.06106607, -0.35691762, 0.4006863, -0.049338922, 0.080346145, -0.14191055, 0
486, 2847768742, -0.8415694, -0.0607024, -0.3566461, 0.40109468, 0.06564307, 0.102874294, -0.10226154, 0
487, 2847785409, -0.8414737, -0.060343586, -0.35645124, 0.40152252, 0.14198795, 0.053224303, -0.15395164, 0
490, 2847835410, -0.84122324, -0.05997991, -0.35611293, 0.40240073, 0.11141271, -0.056844737, -0.35774422, 0
491, 2847852077, -0.84119207, -0.060207106, -0.3560967, 0.40244648, 0.2434664, 0.1463892, -0.06764412, 0
493, 2847885411, -0.8410601, -0.06041162, -0.356229, 0.40257457, 0.14032568, 0.19900168, -0.032343864, 0
494, 2847902078, -0.84098893, -0.060354307, -0.3562875, 0.40267998, 0.16086294, 0.15123227, -0.03376484, 0
495, 2847918745, -0.84093434, -0.060258616, -0.35628238, 0.40281287, -0.08557976, 0.056613263, -0.1066761, 0
497, 2847952079, -0.8408088, -0.060280763, -0.35631296, 0.40304446, 0.071156465, 0.0512423, -0.13095379, 0
498, 2847968746, -0.84073865, -0.06041557, -0.35637757, 0.40311363, 0.09221206, -0.010532908, -0.1967144, 0
499, 2847985413, -0.84064215, -0.060647875, -0.3565092, 0.4031637, 0.21965982, 0.12388809, -0.16442966, 0
501, 2848018747, -0.8404768, -0.060954213, -0.3568809, 0.40313303, 0.047030702, 0.119479634, -0.009962082, 0
502, 2848035414, -0.84037554, -0.061146166, -0.35712415, 0.40309986, 0.089684576, 0.14323565, -0.07158947, 0
505, 2848085415, -0.84018064, -0.062226858, -0.35770518, 0.4028256, 0.19798912, 0.207561, -0.120100975, 0
506, 2848102082, -0.8401261, -0.06271503, -0.35789657, 0.40269363, 0.18030432, 0.12025288, -0.2392807, 0
507, 2848118749, -0.84002703, -0.06321282, -0.35823244, 0.4025235, 0.17097601, 0.012660054, -0.27371407, 0
509, 2848152083, -0.8394553, -0.064233735, -0.3599407, 0.40203092, 0.1918975, 0.042793233, -0.17871761, 0
510, 2848168750, -0.8390283, -0.06477174, -0.36124298, 0.4016674, 0.06387486, 0.007591562, -0.17422962, 0
512, 2848202084, -0.83835214, -0.06695715, -0.36383402, 0.4003803, 0.098902695, -0.06610172, -0.11395359, 0
513, 2848218751, -0.8380386, -0.06839622, -0.36511558, 0.39962608, 0.10764094, -0.031060254, -0.049812317, 0
514, 2848235418, -0.8376225, -0.06980987, -0.36660954, 0.39888573, 0.14443228, -0.11574769, -0.12441158, 0
516, 2848268752, -0.8363263, -0.07270466, -0.37089455, 0.39712328, 0.102989405, 0.04766006, 0.052192688, 0
517, 2848285419, -0.8354539, -0.074213855, -0.37344334, 0.39629057, 0.03960918, 0.09204012, 0.02862835, 0
520, 2848335420, -0.8308389, -0.07895163, -0.38502744, 0.393985, 0.52140164, -0.08519392, -0.001868248, 0
521, 2848352087, -0.8284388, -0.07990699, -0.3911088, 0.39285493, 0.5795193, -0.11118803, -0.022228241, 0
522, 2848368754, -0.8254074, -0.080632955, -0.39877585, 0.39137718, 0.5050329, 6.237688E-4, -0.045778275, 0
524, 2848402088, -0.8170265, -0.08227064, -0.41902184, 0.38744938, 0.25089374, -0.02816157, -0.120799065, 0
525, 2848418755, -0.8118605, -0.08344665, -0.43064994, 0.38530082, 0.2848163, 0.03616255, -0.06806278, 0
526, 2848435422, -0.8064982, -0.08501524, -0.44214097, 0.3831989, 0.11536666, -0.1620597, -0.06783676, 0
528, 2848468756, -0.79509705, -0.090389, -0.4658742, 0.37763554, 0.38981664, -0.51437676, -0.20461655, 0
529, 2848485423, -0.7888391, -0.09423013, -0.47882274, 0.37360325, 0.113145165, -0.44660032, -0.13453293, 0
530, 2848502090, -0.78188473, -0.09883188, -0.49299866, 0.36856198, 0.6746848, -0.48127514, -0.36284542, 0
532, 2848535424, -0.7633018, -0.11066889, -0.528569, 0.35459077, 0.92710847, -0.56205803, -0.37158108, 0
533, 2848552091, -0.7500155, -0.12004938, -0.551059, 0.34553725, 0.50814867, -0.99518114, -0.29312134, 0
535, 2848585425, -0.71286553, -0.15360315, -0.6041517, 0.32128912, -0.23127556, -1.7307626, -0.56653214, 0
536, 2848602092, -0.685825, -0.17882256, -0.6361931, 0.304831, 0.2776898, -1.8770533, -0.32797527, 0
539, 2848652093, -0.56547517, -0.27454886, -0.7414643, 0.23470907, 2.967058, -4.50568, 6.089176, 0
540, 2848668760, -0.5250963, -0.30237922, -0.76910263, 0.20327038, 2.2516892, -6.3569803, 7.73765, 0
541, 2848685427, -0.49119297, -0.32602212, -0.78917754, 0.17214751, 3.4516444, -8.579731, 6.711464, 0
543, 2848718761, -0.4550947, -0.35174772, -0.8103812, 0.11154271, 2.0774994, -10.867543, 9.520205, 0
544, 2848735428, -0.4519125, -0.36127397, -0.81108356, 0.0860044, -8.084841, -10.43823, 5.870409, 0
545, 2848752095, -0.43583432, -0.37737566, -0.8135346, 0.07612093, 3.4918947, -32.164818, 6.3251476, 0
548, 2848802096, -0.38753977, -0.40788764, -0.8229489, 0.07869378, 1.4416765, -14.213833, -5.944288, 0
549, 2848818763, -0.37268066, -0.40849972, -0.82910794, 0.082547456, 4.0324063, -11.218278, -8.098826, 0
551, 2848852097, -0.36094812, -0.394979, -0.83994913, 0.09050125, 8.236626, -7.233124, -7.191704, 0
552, 2848868764, -0.36757323, -0.38334626, -0.841965, 0.09501302, 8.82359, -5.7449884, -4.7940097, 0
553, 2848885431, -0.38007155, -0.37203297, -0.8408277, 0.10071166, 5.781802, -2.6472383, -3.6912498, 0
555, 2848918765, -0.40337977, -0.36642957, -0.82929564, 0.12361098, 3.0340476, -2.6240857, -2.8718872, 0
556, 2848935432, -0.41474375, -0.3663651, -0.8211837, 0.13935027, 4.976362, -2.894813, -2.7958784, 0
557, 2848952099, -0.42806193, -0.3637754, -0.8124656, 0.15597144, 5.999574, -4.7521634, -2.8307633, 0
559, 2848985433, -0.4689125, -0.3535547, -0.78646016, 0.19130494, 9.037995, -4.911864, -2.9420767, 0
560, 2849002100, -0.49671403, -0.34469864, -0.7694633, 0.2058662, 5.3852077, -3.8025155, -3.4681573, 0
563, 2849052101, -0.56740403, -0.33012602, -0.70900255, 0.25764638, 3.519992, -3.5641198, -2.4437122, 0
564, 2849068768, -0.5888663, -0.32258967, -0.68819463, 0.27487716, 3.3268292, -4.1310277, -1.2145548, 0
566, 2849102102, -0.6355026, -0.3002585, -0.64090395, 0.3085781, 2.8663278, -3.2110612, 0.67772007, 0
567, 2849118769, -0.6588685, -0.28590512, -0.61623514, 0.32311252, 0.77753365, -2.4321206, 0.96584225, 0
568, 2849135436, -0.6793758, -0.2706235, -0.59256756, 0.33774528, -1.031072, -1.6907423, 1.7686281, 0
570, 2849168770, -0.70646125, -0.2364491, -0.5532263, 0.37274942, -2.3071866, 0.8543425, 3.7133017, 0
571, 2849185437, -0.71442604, -0.21957783, -0.53497607, 0.3939275, -1.164316, 0.6780346, 8.183395, 0
572, 2849202104, -0.7227727, -0.20304158, -0.51288056, 0.41632217, 0.5186582, 1.9658226, 9.207817, 0
574, 2849235438, -0.74516076, -0.16865988, -0.46462804, 0.44766846, 0.5078415, 7.56851, 5.9198503, 0
575, 2849252105, -0.7570646, -0.14978857, -0.4442503, 0.45503348, -0.4501354, 8.936146, 3.1285934, 0
578, 2849302106, -0.7823641, -0.10059511, -0.40632346, 0.46117833, -5.528425, 8.955429, 5.8493376, 0
579, 2849318773, -0.7896091, -0.083241954, -0.39376262, 0.46318084, -5.840227, 9.48413, 4.2172575, 0
580, 2849335440, -0.79665107, -0.06476205, -0.3810528, 0.4647029, -4.8006687, 10.942057, 0.720664, 0
582, 2849368774, -0.8067202, -0.032071438, -0.36340448, 0.4648744, -6.10057, 11.10654, -5.738238, 0
583, 2849385441, -0.8092596, -0.023759166, -0.35942224, 0.4640551, -6.3253126, 10.855111, -7.519091, 0
584, 2849402108, -0.81074935, -0.019170057, -0.35941356, 0.46166754, -5.908384, 11.305399, -7.31293, 0
586, 2849435442, -0.80983347, -0.0062534483, -0.37118596, 0.454256, -5.3872795, 10.961848, -7.4411006, 0
587, 2849452109, -0.8077178, -0.0018329619, -0.3800045, 0.45075738, -6.5451694, 9.915157, -6.755432, 0
588, 2849468776, -0.80553204, -0.0038817497, -0.38835698, 0.44752535, -6.5562196, 9.489548, -6.0442305, 0
590, 2849502110, -0.80044264, -0.016840477, -0.40496245, 0.44159973, -4.7619042, 9.889523, -4.430007, 0
593, 2849552111, -0.79258263, -0.03681353, -0.43357694, 0.42716014, -5.786811, 8.9347, -3.5582552, 0
594, 2849568778, -0.78870887, -0.04329269, -0.44521558, 0.42171597, -7.2289085, 10.43161, -1.504076, 0
595, 2849585445, -0.7852215, -0.049042717, -0.45580062, 0.41625074, -9.80782, 11.266297, 0.44586182, 0
597, 2849618779, -0.77539885, -0.07168629, -0.47502163, 0.40984076, -14.681274, 13.913375, -3.4884548, 0
598, 2849635446, -0.775145, -0.11180334, -0.46183205, 0.41636336, -12.284935, 0.9027372, 30.479855, 0
599, 2849652113, -0.78113633, -0.116155945, -0.44795918, 0.41912213, 45.3639, 2.4378383, 11.312, 0
601, 2849685447, -0.7906532, -0.11689261, -0.43366334, 0.41609716, 1.9620678, -1.4684907, 0.15932846, 0
602, 2849702114, -0.7879863, -0.12090559, -0.43866378, 0.41476607, 4.4925637, 1.0495633, 0.67867374, 0
603, 2849718781, -0.78134716, -0.12396427, -0.45136625, 0.4127895, 2.4601178, -0.6922668, -0.55463314, 0
605, 2849752115, -0.76479465, -0.13678007, -0.48464945, 0.40186134, -1.5133617, -1.7485981, 0.13389206, 0
606, 2849768782, -0.7569403, -0.1478305, -0.499956, 0.3939903, 0.41241604, -0.062434208, -0.2358942, 0
607, 2849785449, -0.7475918, -0.15939735, -0.51639724, 0.3860437, 1.1503278, -0.2796535, -0.37192822, 0
609, 2849818783, -0.7215794, -0.18711805, -0.5579677, 0.36466312, -0.51142, -0.033935077, -0.50210476, 0
610, 2849835450, -0.70527995, -0.20240073, -0.5811354, 0.35198402, -1.051491, 0.9611388, -0.15258884, 0
611, 2849852117, -0.68803, -0.21797541, -0.6029512, 0.33992413, -1.5178949, 1.3811246, 0.21500683, 0
613, 2849885451, -0.6513005, -0.25407133, -0.6409439, 0.3169281, 0.78443885, -0.9705765, -0.0060739517, 0
614, 2849902118, -0.62726176, -0.27500373, -0.6633585, 0.30144355, 1.9031928, -2.2100353, 0.009003639, 0
616, 2849935452, -0.55626166, -0.3220354, -0.7235736, 0.25160378, 4.359723, -4.03816, 2.9321928, 0
617, 2849952119, -0.5063156, -0.35044643, -0.7557179, 0.22297865, 4.2619944, -7.76488, 9.772617, 0
620, 2850002120, -0.42008704, -0.4172927, -0.7810076, 0.19853939, -11.646516, -18.910343, 29.944572, 0
621, 2850018787, -0.39964533, -0.42399076, -0.78856164, 0.19668029, -4.658297, -6.2494607, 25.902473, 0
622, 2850035454, -0.3812745, -0.42580602, -0.80081755, 0.17890641, 1.8694673, -1.4432374, 4.525551, 0
624, 2850068788, -0.34555498, -0.43190438, -0.821642, 0.13766631, 1.1242228, -16.931118, -3.1477466, 0
625, 2850085455, -0.3273194, -0.43162528, -0.8315214, 0.12300687, 6.1015005, -14.472818, -6.0514154, 0
626, 2850102122, -0.31140837, -0.42660984, -0.842326, 0.107297555, 7.457654, -13.0210085, -8.058875, 0
628, 2850135456, -0.28473902, -0.40924296, -0.86375827, 0.07323061, 8.6734705, -9.020655, -10.6907835, 0
629, 2850152123, -0.2739526, -0.40111202, -0.8723044, 0.056050237, 8.520815, -7.735748, -11.512314, 0
630, 2850168790, -0.26506, -0.39545384, -0.87843144, 0.041413046, 7.998952, -7.7695107, -11.998008, 0
632, 2850202124, -0.24991122, -0.3952547, -0.8833773, 0.030980073, 6.8599253, -7.1078944, -13.600872, 0
636, 2850268792, -0.25173736, -0.41554096, -0.8719874, 0.05990945, 4.19273, -7.161424, -11.980002, 0
637, 2850285459, -0.26209784, -0.42102322, -0.8652937, 0.07285671, 5.178654, -8.517319, -11.130187, 0
638, 2850302126, -0.27922684, -0.4240133, -0.8571552, 0.08676023, 4.2658424, -9.657281, -9.717594, 0
640, 2850335460, -0.3250932, -0.42707807, -0.83393234, 0.12834616, 1.0389919, -9.717777, -5.871772, 0
641, 2850352127, -0.34833768, -0.4284575, -0.81919366, 0.15493208, -0.054831304, -7.701323, -4.8513427, 0
642, 2850368794, -0.37082177, -0.42881948, -0.8034819, 0.18171194, 1.7239268, -7.270272, -3.889278, 0
644, 2850402128, -0.42891037, -0.4154326, -0.77069753, 0.22242785, 4.9724555, -7.376175, 1.1982603, 0
645, 2850418795, -0.4655005, -0.4044803, -0.75032884, 0.23813602, 0.70960623, -5.6483254, 4.4047003, 0
647, 2850452129, -0.5299381, -0.38382846, -0.7061449, 0.27055094, -2.7077818, -1.699137, 3.7438202, 0
648, 2850468796, -0.5531519, -0.37148708, -0.6871249, 0.28961504, -1.6143885, -2.4911582, 3.7186375, 0
651, 2850518797, -0.622077, -0.31497657, -0.62949336, 0.34284866, 1.2881244, 2.0075755, 6.6254616, 0
652, 2850535464, -0.6453564, -0.3007108, -0.60518736, 0.3561368, 0.6507781, 2.8554375, 6.8137226, 0
653, 2850552131, -0.6667647, -0.2869351, -0.5811216, 0.36795083, -0.98675114, 1.6581045, 5.654211, 0
655, 2850585465, -0.6987624, -0.25723845, -0.5370731, 0.39637014, -0.61936784, -0.47333875, 4.5999002, 0
656, 2850602132, -0.71019197, -0.23907267, -0.51680195, 0.4139859, 1.4658494, -0.11854836, 5.767972, 0
657, 2850618799, -0.720201, -0.21924461, -0.49648893, 0.43213218, 2.2867446, 1.0254446, 6.7310925, 0
659, 2850652133, -0.73965967, -0.17905611, -0.4506479, 0.46664357, 1.8751204, 3.5820754, 9.64875, 0
660, 2850668800, -0.7510787, -0.15787487, -0.4234151, 0.48132426, 1.8272153, 5.4844513, 9.990364, 0
661, 2850685467, -0.76269, -0.13631144, -0.3950027, 0.49365297, 0.49696228, 7.1028223, 8.064831, 0
663, 2850718801, -0.78379464, -0.094836906, -0.3441016, 0.508196, -0.21321347, 11.549772, 3.344452, 0
665, 2850752135, -0.7992439, -0.04444338, -0.31887805, 0.50749177, -6.0626664, 15.959308, -1.8158727, 0
667, 2850785469, -0.8077999, -0.00864609, -0.29741856, 0.50884545, -9.5438385, 16.77331, -6.1846046, 0
668, 2850802136, -0.81130344, -0.002462589, -0.28488648, 0.5105069, -6.109324, 17.40694, -11.18162, 0
669, 2850818803, -0.8136595, 0.001618865, -0.27851123, 0.5102785, -5.2721276, 17.980877, -13.646217, 0
671, 2850852137, -0.8166873, 0.0011400164, -0.28885388, 0.49958092, -6.0236096, 14.936856, -15.895369, 0
672, 2850868804, -0.81559354, -0.0027365668, -0.30751574, 0.49013346, -7.5954022, 15.283936, -12.240542, 0
674, 2850902138, -0.81032073, -0.013843164, -0.3470086, 0.47198603, -10.574381, 14.993556, -4.974037, 0
675, 2850918805, -0.8085709, -0.02577019, -0.3609231, 0.4639836, -10.1814, 14.211005, -6.7946835, 0
676, 2850935472, -0.8051826, -0.041391313, -0.37736878, 0.45558515, -9.262769, 14.191544, -8.58046, 0
678, 2850968806, -0.7893902, -0.07429181, -0.41929016, 0.44219545, -12.125601, 16.727577, 2.4758434, 0
679, 2850985473, -0.78086793, -0.08943949, -0.43622348, 0.43812358, -13.121267, 17.554441, 2.1624155, 0
680, 2851002140, -0.77101445, -0.10709452, -0.45440707, 0.433104, -17.028648, 20.878973, 1.5566263, 0
682, 2851035474, -0.7826524, -0.10998802, -0.42396882, 0.44227332, 15.230502, -17.60854, -20.43873, 0
683, 2851052141, -0.7871267, -0.11013091, -0.41793272, 0.44003642, 4.5571804, -2.1506546, 1.5717144, 0
684, 2851068808, -0.7864462, -0.1150048, -0.42357564, 0.434577, 4.7303147, -3.436606, -1.1155939, 0
686, 2851102142, -0.7705621, -0.1302606, -0.46116912, 0.4202218, 1.1573383, -0.9169535, -0.002128601, 0
687, 2851118809, -0.7583964, -0.14164689, -0.4866026, 0.4098614, 0.98143756, -1.557863, -0.35229588, 0
688, 2851135476, -0.7445004, -0.15588476, -0.5135418, 0.39710343, 0.24684033, -1.3071063, -0.4867344, 0
690, 2851168810, -0.7075521, -0.19334072, -0.5714732, 0.36797404, -1.2456015, 0.5248255, -0.34367657, 0
692, 2851202144, -0.64135796, -0.24414754, -0.647366, 0.3316117, 1.461342, -2.6376326, 1.373786, 0
694, 2851235478, -0.54679894, -0.30989787, -0.7274321, 0.27534348, 4.067693, -5.7594194, 7.6497364, 0
695, 2851252145, -0.49448642, -0.35144174, -0.7551786, 0.24834384, 6.15083, -9.153744, 14.905125, 0
697, 2851285479, -0.41427472, -0.41322762, -0.77940476, 0.2239307, -6.824285, -21.937088, 35.46459, 0
698, 2851302146, -0.37528208, -0.43376872, -0.7842562, 0.23653282, -7.295445, -14.979048, 27.976688, 0
699, 2851318813, -0.33850393, -0.4438979, -0.79325485, 0.2431332, 10.243542, -8.414263, 5.7268953, 0
701, 2851352147, -0.27377796, -0.46527505, -0.81558824, 0.20827378, 8.625297, -22.164509, 2.5692034, 0
702, 2851368814, -0.24670468, -0.4754369, -0.82196873, 0.19354846, 9.44201, -18.021255, -3.6381211, 0
703, 2851385481, -0.2229932, -0.48135078, -0.82975954, 0.1734124, 9.555131, -17.376863, -7.2726436, 0
705, 2851418815, -0.190086, -0.48291114, -0.8458356, 0.123382926, 6.4229093, -13.987779, -12.612396, 0
707, 2851452149, -0.16942203, -0.48160607, -0.856172, 0.07948961, 2.7086985, -9.750411, -14.348438, 0
709, 2851485483, -0.15757388, -0.48315224, -0.85943687, 0.055676278, 2.5912702, -7.2565174, -15.599323, 0
710, 2851502150, -0.15685979, -0.4834658, -0.859646, 0.051592108, 1.8588533, -5.2833486, -15.450981, 0
711, 2851518817, -0.15972586, -0.48310012, -0.8592843, 0.052246876, 1.80144, -4.1465473, -14.883635, 0
713, 2851552151, -0.17823151, -0.4798443, -0.85655004, 0.06559157, 1.9820552, -2.571471, -12.416461, 0
714, 2851568818, -0.19433655, -0.4753906, -0.85472506, 0.07536191, 2.8530717, -2.550031, -10.602201, 0
715, 2851585485, -0.21551478, -0.46837848, -0.8524258, 0.08684819, 3.996325, -3.7812412, -8.731711, 0
717, 2851618819, -0.27010307, -0.45441025, -0.8399042, 0.12293955, 2.773237, -3.376904, -4.1541586, 0
718, 2851635486, -0.29785264, -0.45086235, -0.8285716, 0.14653823, 3.1146612, -3.1266341, -3.699829, 0
719, 2851652153, -0.32560173, -0.44851118, -0.8146393, 0.17082521, 4.501815, -4.273431, -3.737019, 0
722, 2851702154, -0.42117432, -0.43410903, -0.7578542, 0.24457258, 3.3159184, -8.283783, 3.391755, 0
723, 2851718821, -0.4569603, -0.42611414, -0.73315525, 0.26850432, 3.384697, -5.3056836, 4.0745687, 0
725, 2851752155, -0.53041184, -0.39713553, -0.6859609, 0.30066803, 2.2665157, -2.6357434, 4.304879, 0
726, 2851768822, -0.56439525, -0.37983274, -0.66305065, 0.31232375, 0.032391943, -2.5065432, 3.9839506, 0
728, 2851802156, -0.6193008, -0.34579197, -0.61601, 0.34267068, -2.6236384, -3.9398172, 6.7158146, 0
729, 2851818823, -0.64068323, -0.32578826, -0.5929208, 0.36308298, 0.26587, -1.4542968, 6.587759, 0
730, 2851835490, -0.66063213, -0.30242422, -0.57177114, 0.38102472, 2.276385, 0.86866033, 7.2677116, 0
732, 2851868824, -0.6982147, -0.26002836, -0.52743393, 0.40827954, 1.1539916, 2.3218005, 7.958288, 0
733, 2851885491, -0.7148683, -0.24180566, -0.505016, 0.41886687, -0.20441735, 2.8223343, 7.023947, 0
734, 2851902158, -0.7291953, -0.22384185, -0.4847091, 0.42804575, -0.088263474, 2.9530172, 7.0184364, 0
737, 2851952159, -0.7663837, -0.1641679, -0.42505595, 0.452802, -0.98022056, 4.619489, 7.6304474, 0
738, 2851968826, -0.7768037, -0.14704674, -0.40335676, 0.4607103, -2.3610823, 4.6781573, 6.2393208, 0
740, 2852002160, -0.792871, -0.11840312, -0.36207306, 0.4756432, -1.5006226, 4.71036, 3.4610233, 0
741, 2852018827, -0.7981284, -0.106084965, -0.34422925, 0.48294985, -1.446834, 4.6577034, 3.273158, 0
742, 2852035494, -0.80234784, -0.09432319, -0.32775623, 0.4898103, -0.4336585, 5.7283554, 3.878827, 0
744, 2852068828, -0.8102178, -0.070604764, -0.29842737, 0.49949995, -0.2846346, 5.3004403, 1.405282, 0
745, 2852085495, -0.8137797, -0.060327597, -0.28656286, 0.501998, -0.42117596, 5.3350186, 0.5346756, 0
746, 2852102162, -0.81616527, -0.050017536, -0.27770793, 0.50423, -0.49266994, 4.889141, -1.061593, 0
748, 2852135496, -0.8177795, -0.035138007, -0.26468843, 0.5098422, -2.0689878, 6.163294, -0.95163536, 0
749, 2852152163, -0.8191142, -0.030320864, -0.25613418, 0.51237184, -2.3276346, 8.069791, 0.17196941, 0
750, 2852168830, -0.8211567, -0.024164809, -0.24530922, 0.5147215, -2.0474749, 8.107925, -2.0647035, 0
752, 2852202164, -0.8252378, -0.011880898, -0.22783667, 0.5166518, -2.3178086, 8.314674, -7.3299136, 0
753, 2852218831, -0.82674295, -0.006976673, -0.2232396, 0.51634157, -3.0560338, 8.759301, -8.778392, 0
755, 2852252165, -0.82893556, -0.0038030273, -0.22383045, 0.5125898, -4.792478, 8.526018, -10.546705, 0
756, 2852268832, -0.8294466, -0.0056649894, -0.22846684, 0.50969213, -5.741436, 9.16152, -9.801748, 0
757, 2852285499, -0.82944465, -0.00911936, -0.23408024, 0.5070916, -6.266465, 8.842671, -9.411786, 0
759, 2852318833, -0.8265998, -0.018993437, -0.24956173, 0.5040716, -5.073607, 8.648404, -9.983574, 0
760, 2852335500, -0.8232238, -0.023034425, -0.26185316, 0.5031918, -5.575851, 9.769136, -9.109782, 0
761, 2852352167, -0.8197934, -0.026531735, -0.27576116, 0.5011866, -6.789023, 10.763529, -7.793827, 0
765, 2852418835, -0.8054872, -0.046575017, -0.35227048, 0.47426125, -8.004441, 10.779631, -4.855782, 0
767, 2852452169, -0.78741294, -0.053937443, -0.40534204, 0.46126643, -14.3331, 10.913152, -0.029910088, 0
768, 2852468836, -0.77360994, -0.058292143, -0.4294428, 0.46228358, -16.575142, 12.722164, 0.5586815, 0
769, 2852485503, -0.75671357, -0.06844236, -0.45249096, 0.46685028, -19.293922, 13.807361, -0.18095875, 0
771, 2852518837, -0.7185244, -0.09670221, -0.50198436, 0.47157216, -39.741917, 15.598369, 16.026348, 1024
772, 2852535504, -0.7277045, -0.15745738, -0.46683016, 0.47720048, 83.2706, 20.293606, 50.80432, 0
773, 2852552171, -0.7496955, -0.13249663, -0.4576425, 0.45930582, -0.4037252, -27.805006, 0.05952835, 0
775, 2852585505, -0.7543883, -0.14341995, -0.45794937, 0.44789377, 7.1724796, 0.3278505, -0.7412987, 0
776, 2852602172, -0.7471126, -0.14327413, -0.4734211, 0.4440325, 1.8996701, -1.5016546, -0.7000723, 0
777, 2852618839, -0.73583776, -0.14763048, -0.4977117, 0.43477365, 0.75762665, -4.347676, -0.24833965, 0
780, 2852668840, -0.663373, -0.21143474, -0.61012053, 0.37812942, -0.63723636, -3.8654823, 0.6316929, 0
782, 2852702174, -0.5627533, -0.29341176, -0.7071742, 0.31164113, 4.1085753, -6.615165, 10.332624, 0
783, 2852718841, -0.513848, -0.32491118, -0.7465661, 0.2702389, 5.7048116, -10.246799, 16.171656, 0
784, 2852735508, -0.47721693, -0.3465995, -0.7732368, 0.23288414, 5.174849, -12.489578, 13.126419, 0
786, 2852768842, -0.40936223, -0.39061046, -0.7986858, 0.20480302, -15.54541, -23.676157, 25.283657, 0
787, 2852785509, -0.37048632, -0.40690276, -0.8045986, 0.22313288, 10.638004, -14.319017, 4.437521, 0
788, 2852802176, -0.33982632, -0.4224789, -0.8126673, 0.21353813, 16.631113, -4.9378114, 2.1296053, 0
790, 2852835510, -0.31062874, -0.44587025, -0.8222186, 0.16930309, 6.165278, -17.24421, 1.1791725, 0
791, 2852852177, -0.30034065, -0.4541073, -0.8262585, 0.1444862, 2.5696127, -14.2709055, -1.8208694, 0
792, 2852868844, -0.28799328, -0.4571228, -0.8330889, 0.118569456, -1.0190864, -14.225856, -4.3846717, 0
795, 2852918845, -0.2475977, -0.44889507, -0.85637593, 0.061694987, 0.7724561, -7.153299, -9.318925, 0
796, 2852935512, -0.24038054, -0.44038332, -0.86386395, 0.044900827, 2.9385736, -5.055286, -9.255076, 0
798, 2852968846, -0.23664439, -0.42023653, -0.87591577, 0.013023998, 3.9251008, -3.4013348, -7.6594486, 0
799, 2852985513, -0.23656355, -0.4122363, -0.87982345, 0.0026535902, 3.747533, -2.8181882, -6.725465, 0
800, 2853002180, -0.23654078, -0.40608415, -0.8826817, -0.0037924666, 3.1804178, -2.1124527, -6.600872, 0
802, 2853035514, -0.2388864, -0.4000796, -0.88474053, -0.010058402, 1.1079303, 0.2686986, -7.0806236, 0
803, 2853052181, -0.24158157, -0.39775348, -0.8849906, -0.014808271, 1.6826184, 0.6396374, -7.233836, 0
804, 2853068848, -0.24610434, -0.3935521, -0.8855023, -0.020793643, 2.070876, -0.81147915, -7.2076907, 0
806, 2853102182, -0.26038632, -0.38449603, -0.88534003, -0.02306899, 2.8808308, -2.7538, -5.9001207, 0
807, 2853118849, -0.26948923, -0.37956575, -0.8848226, -0.019787546, 3.725444, -1.132321, -5.591003, 0
810, 2853168850, -0.30389798, -0.37043643, -0.87763774, -0.0131076705, 4.5400023, -2.5546987, -4.9351125, 0
813, 2853218851, -0.3565745, -0.369989, -0.8577221, 0.016517213, 3.6752563, -1.5387297, -2.985692, 0
814, 2853235518, -0.37010276, -0.37988153, -0.84726053, 0.029339746, -1.7291756, 14.423971, 6.6524124, 0
815, 2853252185, -0.35418487, -0.42303154, -0.83381873, 0.01846631, 9.553942, 7.5389094, 1.4668703, 0
817, 2853285519, -0.41313162, -0.41299167, -0.8114155, 0.019032096, -0.08899973, -11.555056, -1.7832766, 0
818, 2853302186, -0.442865, -0.404136, -0.79955804, 0.035341334, -10.651352, -3.961591, -4.757834, 0
819, 2853318853, -0.4574716, -0.40848395, -0.78758186, 0.059770644, -7.021343, -0.8983855, -3.3958726, 0
821, 2853352187, -0.4738207, -0.41468495, -0.7703438, 0.10048873, 3.894666, 3.881719, -0.9788122, 0
822, 2853368854, -0.48509207, -0.42002773, -0.75918514, 0.10907592, 8.742777, 0.55572295, 3.0253735, 0
823, 2853385521, -0.5064835, -0.42351943, -0.7424454, 0.11348027, 7.3950152, -5.2141657, 6.69228, 0
825, 2853418855, -0.5549245, -0.44252846, -0.6909867, 0.13697417, -6.184832, -2.4577382, 0.8117542, 0
826, 2853435522, -0.5697289, -0.45185387, -0.6691529, 0.15319453, -7.1203074, -2.3765988, -2.2063928, 0
827, 2853452189, -0.58002996, -0.45279658, -0.65526915, 0.1707627, -6.265109, -4.935931, -2.690867, 0
829, 2853485523, -0.6032112, -0.43038532, -0.63910407, 0.2060282, -3.5818782, -6.589722, -0.49401474, 0
830, 2853502190, -0.6167915, -0.41335803, -0.6308345, 0.22527386, -3.6794825, -7.271753, 0.5015774, 0
831, 2853518857, -0.630224, -0.3976854, -0.6190462, 0.24787673, -3.8663898, -7.1333804, 0.67987347, 0
833, 2853552191, -0.6517393, -0.37080628, -0.5902566, 0.29888627, -0.86621374, -6.2477074, 1.7155876, 0
834, 2853568858, -0.6622217, -0.35498667, -0.5744026, 0.3248163, -0.11081236, -6.700548, 3.6011305, 0
836, 2853602192, -0.6855246, -0.31924805, -0.53593683, 0.37537384, 0.81435114, -4.7170143, 4.8995295, 0
838, 2853635526, -0.7078648, -0.2799786, -0.4949354, 0.41901696, 1.2541826, -2.7336464, 6.1921387, 0
840, 2853668860, -0.72900134, -0.23720363, -0.45507032, 0.45298973, 2.0036685, -1.2107548, 10.586124, 0
841, 2853685527, -0.7412235, -0.21275592, -0.43182757, 0.46780854, 1.4743303, 0.11498132, 11.030615, 0
842, 2853702194, -0.7537868, -0.1885838, -0.40617636, 0.48089436, 0.8455111, 1.5089252, 8.609228, 0
844, 2853735528, -0.7760391, -0.1408263, -0.35691044, 0.500543, 0.14440502, 4.726965, 7.949005, 0
845, 2853752195, -0.78456825, -0.116974145, -0.33483374, 0.50857943, -1.1100736, 5.9730334, 7.172064, 0
846, 2853768862, -0.79149425, -0.09520733, -0.31382275, 0.5157372, -1.0143687, 7.437307, 5.7405424, 0
848, 2853802196, -0.8025393, -0.055124164, -0.27403206, 0.52706325, -1.0949484, 9.343508, 4.2097187, 0
849, 2853818863, -0.8073353, -0.0359779, -0.25580907, 0.53054136, -0.6845406, 9.971058, 2.2296095, 0
850, 2853835530, -0.81140006, -0.017206471, -0.23952445, 0.5328783, -0.7837517, 10.01097, 0.54297733, 0
853, 2853885531, -0.82111335, 0.030156607, -0.20110407, 0.53330815, -2.1889787, 10.512157, -6.8378882, 0
854, 2853902198, -0.82324404, 0.040167104, -0.19269922, 0.5324662, -3.6868036, 10.794059, -8.804129, 0
856, 2853935532, -0.82445586, 0.04637521, -0.1811543, 0.5341368, -5.3458076, 11.636435, -12.390288, 0
857, 2853952199, -0.82292753, 0.041566078, -0.17867212, 0.5377137, -5.1051097, 12.116752, -13.791625, 0
858, 2853968866, -0.81959724, 0.032828197, -0.179959, 0.54294986, -4.038245, 12.7442, -14.787401, 0
860, 2854002200, -0.8078564, 0.00769787, -0.19747347, 0.5552568, -2.830338, 14.332082, -14.686493, 0
861, 2854018867, -0.80065906, -0.007516337, -0.21341854, 0.5597663, -2.3094945, 15.051681, -13.785786, 0
863, 2854052201, -0.7885949, -0.042618755, -0.25474593, 0.5580352, -2.868915, 13.812139, -10.375691, 0
864, 2854068868, -0.78372824, -0.060907453, -0.27869397, 0.5517131, -2.4094403, 13.591175, -7.334792, 0
865, 2854085535, -0.77864885, -0.07544372, -0.3053142, 0.54295003, -2.2631848, 14.028909, -4.802058, 0
868, 2854135536, -0.77077365, -0.08996908, -0.38118628, 0.50250125, -10.351131, 17.73154, -0.19348145, 0
869, 2854152203, -0.7702114, -0.10063162, -0.40142447, 0.4852866, -13.646141, 16.541477, -3.6299677, 0
871, 2854185537, -0.75312066, -0.12604351, -0.46282995, 0.45023122, -15.173688, 24.810007, 8.314659, 0
872, 2854202204, -0.74244964, -0.120778814, -0.4975249, 0.4320267, -36.447937, 12.004222, 17.857279, 1024
873, 2854218871, -0.74869114, -0.14822677, -0.4711403, 0.44216982, 52.711105, 0.5351955, 32.213673, 1024
875, 2854252205, -0.76071745, -0.14273983, -0.4616865, 0.4333325, 3.22495, -4.0340014, 1.6584034, 0
876, 2854268872, -0.7551948, -0.15264833, -0.47603953, 0.42398447, 5.290026, -1.4833969, -0.1988573, 0
877, 2854285539, -0.742278, -0.16642419, -0.5031913, 0.41002676, 4.326969, -4.1808467, -0.9707918, 0
879, 2854318873, -0.68366563, -0.2204744, -0.5955181, 0.3596493, -1.0708501, -2.4758847, -0.030161858, 0
880, 2854335540, -0.62824273, -0.26648337, -0.6525889, 0.32927576, 2.607112, -4.6935606, 5.8149023, 0
883, 2854385541, -0.4882272, -0.3784941, -0.7538219, 0.22388867, 1.2626605, 2.1871676, 28.655842, 0
884, 2854402208, -0.47199652, -0.4017082, -0.76035863, 0.19416937, -16.919662, -3.9657447, 32.13862, 0
885, 2854418875, -0.43422362, -0.42298144, -0.77536863, 0.17702371, -2.56423, -43.123623, 35.526302, 0
887, 2854452209, -0.3667828, -0.43977726, -0.8078082, 0.1396756, 4.0718403, -16.158638, 5.410569, 0
888, 2854468876, -0.331277, -0.4472241, -0.82238764, 0.11799125, 3.7541084, -27.74389, 2.0908003, 0
890, 2854502210, -0.26288837, -0.45629543, -0.8448642, 0.094264574, 8.205008, -18.028076, -6.091095, 0
891, 2854518877, -0.23200023, -0.4551583, -0.8562932, 0.07593472, 10.908066, -15.325468, -9.788749, 0
892, 2854535544, -0.20762813, -0.4514266, -0.8663853, 0.049781803, 12.364621, -12.535136, -13.2227745, 0
894, 2854568878, -0.17903309, -0.44739723, -0.87616366, -0.010838202, 8.758399, -10.117816, -16.18117, 0
895, 2854585545, -0.17336932, -0.45098883, -0.87481165, -0.03540778, 7.2529044, -10.442346, -16.762632, 0
896, 2854602212, -0.1710711, -0.45720017, -0.87119603, -0.052127082, 4.0267677, -10.021409, -17.084173, 0
898, 2854635546, -0.16820656, -0.47043467, -0.86403114, -0.06200852, 1.8524545, -6.358359, -17.508709, 0
899, 2854652213, -0.16922173, -0.4746308, -0.8616692, -0.06010827, 1.8497218, -5.1457767, -17.30695, 0
900, 2854668880, -0.17413683, -0.47681364, -0.8598549, -0.054513615, 2.6569896, -6.303658, -17.647274, 0
902, 2854702214, -0.20365857, -0.4762677, -0.8550384, -0.02447039, 2.7806964, -4.9506755, -15.004321, 0
904, 2854735548, -0.24954876, -0.47257194, -0.84510505, 0.01399336, 4.2922606, -3.6531978, -11.501225, 0
906, 2854768882, -0.31444472, -0.46726504, -0.82410866, 0.060247965, 6.054126, -10.491398, -6.411329, 0
907, 2854785549, -0.3561474, -0.46404123, -0.8059085, 0.09128684, 4.509782, -9.179328, -2.2701359, 0
908, 2854802216, -0.39910468, -0.4593997, -0.78390557, 0.12311244, 2.724634, -5.0310254, -0.23722458, 0
911, 2854852217, -0.51319087, -0.42917615, -0.7182424, 0.19122812, 0.46200845, -3.767483, 3.8810778, 0
912, 2854868884, -0.5474005, -0.4148223, -0.69585943, 0.20988531, -0.10493129, -6.7322173, 7.913946, 0
914, 2854902218, -0.61013377, -0.38366038, -0.64562625, 0.25239956, -3.8605757, -3.1994016, 6.8587723, 0
915, 2854918885, -0.6336514, -0.36791828, -0.6218884, 0.27635872, -6.2596602, -4.6704865, 6.7926445, 0
917, 2854952219, -0.66383535, -0.32916772, -0.5811711, 0.33646482, -1.1425736, -3.0951495, 8.415596, 0
918, 2854968886, -0.675921, -0.30349377, -0.563439, 0.3654531, 1.8083115, -0.71016014, 8.872885, 0
919, 2854985553, -0.68782467, -0.2773634, -0.54524666, 0.39073, 1.7314565, 1.2785795, 8.582197, 0
921, 2855018887, -0.71044344, -0.23457982, -0.5019114, 0.4339637, 0.5731167, 2.6423616, 9.92594, 0
922, 2855035554, -0.7202291, -0.21699142, -0.4774741, 0.45409307, -0.118307196, 2.693165, 8.800102, 0
923, 2855052221, -0.72878265, -0.20167576, -0.4527849, 0.47242552, -0.4890879, 2.861367, 8.70192, 0
926, 2855102222, -0.7500638, -0.14902298, -0.3910576, 0.5121206, -0.9557025, 6.211032, 6.2794857, 0
927, 2855118889, -0.75534683, -0.13141248, -0.37347984, 0.52219903, -0.6376811, 7.6163487, 5.9520426, 0
929, 2855152223, -0.76635355, -0.09795626, -0.34081846, 0.535674, 0.25828776, 7.795835, 2.6947994, 0
930, 2855168890, -0.77279264, -0.08272825, -0.32662806, 0.53782785, -0.033779066, 7.0037446, 2.668582, 0
931, 2855185557, -0.7795854, -0.0687415, -0.31340477, 0.53786224, -0.5867879, 5.6028743, 2.1465511, 0
933, 2855218891, -0.7909699, -0.04125028, -0.29033133, 0.53700083, -1.024814, 4.776359, 2.754817, 0
934, 2855235558, -0.79528004, -0.027187727, -0.27781785, 0.5381497, -1.2136474, 5.9776525, 3.3117495, 0
935, 2855252225, -0.7990628, -0.012049153, -0.26395762, 0.5400711, -0.853233, 6.5397625, 1.0367336, 0
937, 2855285559, -0.8038434, 0.014206396, -0.23870586, 0.5446565, -1.3640734, 7.250424, -3.14812, 0
938, 2855302226, -0.80513805, 0.023622284, -0.22777887, 0.54709107, -1.5116351, 7.960471, -3.9955673, 0
941, 2855352227, -0.8084361, 0.04136163, -0.20060588, 0.5517923, -2.2964516, 8.829635, -6.265128, 0
942, 2855368894, -0.80864, 0.045240663, -0.19429198, 0.55344605, -2.1323576, 8.361439, -7.742852, 0
944, 2855402228, -0.80796945, 0.047767002, -0.1875722, 0.55652267, -1.867814, 8.973339, -9.3044195, 0
945, 2855418895, -0.8074478, 0.046500336, -0.18802649, 0.5572331, -2.7343872, 9.093025, -10.560537, 0
946, 2855435562, -0.80658007, 0.042680327, -0.19100884, 0.5577811, -3.2035415, 9.694644, -11.515961, 0
948, 2855468896, -0.805166, 0.02655626, -0.20317492, 0.5565247, -2.2788687, 12.020058, -11.375305, 0
949, 2855485563, -0.80493444, 0.015872272, -0.21384168, 0.5532605, -2.1715877, 12.380165, -10.520901, 0
950, 2855502230, -0.8050529, 0.0044256793, -0.22775216, 0.54771906, -3.0744154, 13.176693, -9.185786, 0
952, 2855535564, -0.8041176, -0.020068742, -0.26451036, 0.53199947, -7.511398, 14.326398, -8.296089, 0
953, 2855552231, -0.8013296, -0.037139066, -0.28652263, 0.5238259, -9.855079, 14.823311, -7.4875727, 0
956, 2855602232, -0.7705597, -0.10172055, -0.3739042, 0.5060467, -12.256592, 17.909199, 3.7316313, 0
957, 2855618899, -0.75404096, -0.1185091, -0.40715545, 0.501597, -13.569914, 18.500996, 8.85647, 0
958, 2855635566, -0.736509, -0.1349655, -0.4390501, 0.49655905, -13.1249, 17.865303, 10.6884, 0
960, 2855668900, -0.71570694, -0.18610077, -0.4625209, 0.48908234, 25.47523, -2.6124506, 60.07616, 0
961, 2855685567, -0.72243154, -0.17532794, -0.46792305, 0.47790998, 2.3696444, -7.972684, -7.621597, 0
962, 2855702234, -0.7185602, -0.18572956, -0.4774025, 0.4703827, 6.079696, -4.525427, -0.3989067, 0
964, 2855735568, -0.6886866, -0.22943194, -0.5293073, 0.43920678, 2.7231207, -1.5400734, -1.2567806, 0
965, 2855752235, -0.66167676, -0.2563464, -0.56534564, 0.42053744, -1.6516807, -0.23316023, -0.08257866, 0
966, 2855768902, -0.62669545, -0.28817356, -0.6051085, 0.39755476, -1.1830333, 0.04247573, 0.7879152, 0
968, 2855802236, -0.5405427, -0.3566677, -0.6859534, 0.33176273, 3.447647, -5.390243, 4.6320724, 0
969, 2855818903, -0.48906162, -0.38992757, -0.72345793, 0.29220057, 4.262152, -7.306761, 10.163481, 0
971, 2855852237, -0.3910207, -0.44053203, -0.7723291, 0.23777962, 4.1609836, -17.03019, 18.825487, 0
972, 2855868904, -0.3580064, -0.44786838, -0.7799264, 0.2509128, -11.233012, -33.11787, 26.013535, 0
973, 2855885571, -0.29806814, -0.4658308, -0.7873194, 0.27254802, 6.126447, -21.696934, 31.444859, 0
975, 2855918905, -0.24533474, -0.47041002, -0.81652164, 0.2276287, 12.395585, -23.388214, 5.617097, 0
976, 2855935572, -0.22654916, -0.47839952, -0.8244731, 0.20012654, 2.234916, -24.37814, -2.1803026, 0
977, 2855952239, -0.20274748, -0.48796389, -0.82953924, 0.18068294, 3.8751605, -22.902718, -10.608958, 0
979, 2855985573, -0.17829314, -0.49540287, -0.8364911, 0.1518791, 6.776624, -17.23413, -17.535465, 0
980, 2856002240, -0.18204716, -0.49473703, -0.83867186, 0.13682413, 4.900613, -12.86407, -16.641937, 0
983, 2856052241, -0.21441959, -0.48773363, -0.83914167, 0.10944678, -0.50597656, -7.2944417, -11.958411, 0
984, 2856068908, -0.22482847, -0.4809106, -0.8402182, 0.11048906, -0.525855, -5.9103494, -11.699806, 0
985, 2856085575, -0.23485616, -0.47176245, -0.84193903, 0.11583869, 1.796207, -4.722098, -12.139663, 0
987, 2856118909, -0.26844987, -0.44612753, -0.8430597, 0.13473108, 7.4200854, -6.0019584, -9.146373, 0
988, 2856135576, -0.29459578, -0.43253604, -0.83922124, 0.14775132, 8.696791, -3.7710462, -6.642717, 0
989, 2856152243, -0.32540753, -0.42303184, -0.83023953, 0.16078967, 8.444981, -1.5193893, -3.468742, 0
991, 2856185577, -0.39423722, -0.41476664, -0.7996809, 0.18180539, 6.859755, -0.29096022, 1.6657, 0
992, 2856202244, -0.43071753, -0.41232768, -0.7798889, 0.19036481, 3.2239397, -0.8761042, 3.188877, 0
993, 2856218911, -0.46370786, -0.41080078, -0.75877863, 0.20117196, -1.3058316, -0.22258359, 3.1425724, 0
995, 2856252245, -0.50712, -0.4056644, -0.7235536, 0.23395057, -0.94299895, 1.0524666, 3.645547, 0
998, 2856302246, -0.5660733, -0.37853992, -0.68461305, 0.25994366, 4.2517796, 2.0829897, 3.0425806, 0
999, 2856318913, -0.59050953, -0.36899784, -0.66909057, 0.2597189, 2.6217601, 1.3929037, 1.4009142, 0
1000, 2856335580, -0.61328274, -0.3603287, -0.6527212, 0.26076764, 0.30959943, -0.7501906, 0.95656586, 0
1002, 2856368914, -0.6487893, -0.3467606, -0.61655307, 0.28051555, -0.5837886, -2.1551201, 2.0836992, 0
1003, 2856385581, -0.6633721, -0.3395292, -0.59815156, 0.29473615, -0.19102848, -0.938528, 1.9495964, 0
1004, 2856402248, -0.6777463, -0.33134994, -0.5799076, 0.30752483, -0.4790419, -1.1222205, 2.9240704, 0
1006, 2856435582, -0.70546573, -0.31330535, -0.5426385, 0.3312073, -2.923509, -1.3765649, 2.147997, 0
1007, 2856452249, -0.7162835, -0.30303898, -0.52601695, 0.34410545, -3.0417788, -1.6280994, 1.6605787, 0
1008, 2856468916, -0.72463477, -0.2918273, -0.51143134, 0.3580173, -2.3479643, -2.2077434, 2.1133347, 0
1010, 2856502250, -0.73736316, -0.26879275, -0.4853984, 0.38526833, -0.6545318, -2.5556555, 2.0553684, 0
1012, 2856535584, -0.75006324, -0.24195035, -0.45703483, 0.41228798, -0.88826686, -2.9890053, 5.099127, 0
1014, 2856568918, -0.76339084, -0.21144484, -0.42228615, 0.44067815, 0.26206356, -0.7839558, 4.6652393, 0
1015, 2856585585, -0.7695968, -0.19554237, -0.4044085, 0.45380038, 0.05086484, -0.022157734, 4.832163, 0
1016, 2856602252, -0.7757523, -0.1807814, -0.3860538, 0.4652806, 0.006155994, 0.39996436, 4.127118, 0
1018, 2856635586, -0.7882934, -0.1499391, -0.3502483, 0.48315108, -0.47967178, 1.5146121, 6.599409, 0
1019, 2856652253, -0.7952159, -0.13138436, -0.33038905, 0.49113128, -1.3511126, 3.2003825, 7.414982, 0
1020, 2856668920, -0.80216163, -0.11276393, -0.31005585, 0.4976783, -1.3394192, 4.4904957, 4.3913507, 0
1022, 2856702254, -0.8143672, -0.07522836, -0.27558738, 0.50516903, -2.4829009, 6.381785, 2.185732, 0
1023, 2856718921, -0.8192919, -0.056894656, -0.26146302, 0.5071076, -2.9992914, 6.4507766, 0.7698374, 0
1025, 2856752255, -0.8260602, -0.023513941, -0.23717134, 0.5107039, -4.265246, 7.4484243, -0.8251877, 0
1027, 2856785589, -0.8292337, 0.0016841899, -0.21255696, 0.5168997, -3.9306784, 7.6246386, -4.849423, 0
1029, 2856818923, -0.82949096, 0.015576651, -0.19577052, 0.52285117, -3.400828, 7.069886, -6.4716425, 0
1030, 2856835590, -0.8283504, 0.019560466, -0.19152863, 0.5260862, -3.3337698, 6.2616615, -6.523656, 0
1031, 2856852257, -0.82608855, 0.021835377, -0.1894646, 0.5302841, -3.0412285, 6.192775, -6.550778, 0
1033, 2856885591, -0.8202233, 0.024056038, -0.18314084, 0.541398, -2.4384422, 8.756277, -4.9238806, 0
1034, 2856902258, -0.818846, 0.02360551, -0.17873426, 0.5449632, -0.12481145, 6.9637628, -8.038224, 0
1035, 2856918925, -0.81816804, 0.022538016, -0.17782481, 0.5463227, -0.32854837, 7.2139993, -7.822749, 0
1037, 2856952259, -0.8183683, 0.018042015, -0.18236107, 0.5446921, -1.8332453, 6.796287, -6.543401, 0
1038, 2856968926, -0.8183821, 0.016198715, -0.18713251, 0.54310876, -2.3088849, 7.8936934, -5.887639, 0
1039, 2856985593, -0.8189562, 0.015016472, -0.1922644, 0.5404784, -2.8925726, 8.525786, -5.7771397, 0
1041, 2857018927, -0.8207895, 0.010093139, -0.2074409, 0.5321351, -3.5779355, 6.9083886, -6.416172, 0
1042, 2857035594, -0.8205756, 0.0035654965, -0.21670951, 0.52884525, -3.993671, 6.5017395, -5.383032, 0
1043, 2857052261, -0.8191373, -0.0053458177, -0.2262737, 0.52705103, -3.5462909, 6.73421, -5.180928, 0
1045, 2857085595, -0.81290746, -0.024120755, -0.25084913, 0.52504456, -2.077357, 9.383817, -5.4853034, 0
1046, 2857102262, -0.80854166, -0.033037238, -0.2682598, 0.5226879, -2.5501003, 10.868136, -5.0916, 0
1047, 2857118929, -0.80408525, -0.042219564, -0.28931007, 0.5176498, -3.7890096, 12.349027, -3.081802, 0
1049, 2857152263, -0.79855335, -0.06307815, -0.33296594, 0.49745813, -8.173892, 13.836387, 0.2645874, 0
1050, 2857168930, -0.7954867, -0.07447242, -0.3540392, 0.4861153, -11.02964, 13.630044, 1.0974197, 0
1052, 2857202264, -0.77675456, -0.07933672, -0.41250053, 0.46925315, -11.900772, 18.812756, 1.3763294, 0
1054, 2857235598, -0.7641637, -0.11937386, -0.4435847, 0.45280638, 35.277718, 24.965631, 38.973877, 0
1056, 2857268932, -0.75969297, -0.14198779, -0.47280464, 0.42327198, 6.5707674, 1.5263346, 3.4857435, 0
1057, 2857285599, -0.74345237, -0.16098437, -0.50496805, 0.40788123, 6.153468, -0.42925116, -0.8603945, 0
1058, 2857302266, -0.7183183, -0.18084301, -0.54898936, 0.38719818, -0.09706117, -3.4753373, -1.3771324, 0
1060, 2857335600, -0.62341136, -0.25390697, -0.66306, 0.32747227, 1.8413659, -5.5727844, 5.9889784, 0
1061, 2857352267, -0.5665157, -0.29559192, -0.71259326, 0.28964415, 4.98691, -6.827484, 11.810299, 0
1062, 2857368934, -0.5149583, -0.33661893, -0.74691373, 0.25223508, 5.0126634, -12.784629, 17.366575, 0
1064, 2857402268, -0.45272785, -0.39980593, -0.76859415, 0.2108384, -9.469981, -21.754719, 30.555408, 0
1065, 2857418935, -0.4099057, -0.42588276, -0.779843, 0.20601793, -4.003196, -23.82819, 36.092884, 0
1066, 2857435602, -0.38136187, -0.4387598, -0.79035014, 0.19338295, 7.5123096, -2.2255569, 7.925684, 0
1069, 2857485603, -0.31015635, -0.46972483, -0.8193458, 0.10877163, 2.0996923, -19.920053, -3.4801502, 0
1070, 2857502270, -0.2836302, -0.47733474, -0.826654, 0.09135515, 3.9053118, -19.25349, -6.786648, 0
1072, 2857535604, -0.23817182, -0.47842807, -0.84320956, 0.05810053, 5.9325104, -13.809385, -11.399072, 0
1073, 2857552271, -0.22135675, -0.47208485, -0.852484, 0.037489194, 5.6786666, -10.936939, -13.203934, 0
1074, 2857568938, -0.20771886, -0.4650723, -0.8604113, 0.015814729, 5.538468, -9.294869, -14.445735, 0
1076, 2857602272, -0.19421256, -0.45105317, -0.87084323, -0.021483928, 8.5492, -8.577172, -16.517681, 0
1077, 2857618939, -0.19721752, -0.4429467, -0.8738661, -0.035476398, 7.7791295, -6.4887037, -16.335033, 0
1079, 2857652273, -0.20729712, -0.43473002, -0.8751205, -0.046893455, 4.13359, -4.863384, -15.017857, 0
1080, 2857668940, -0.21079898, -0.436724, -0.87355125, -0.041729044, 3.8638093, -5.3413105, -14.7153, 0
1081, 2857685607, -0.21574573, -0.4409629, -0.87066823, -0.030652184, 4.9612327, -6.1046515, -14.512989, 0
1084, 2857735608, -0.2721031, -0.44184574, -0.854644, 0.017695956, 5.505169, -6.3025727, -9.910631, 0
1085, 2857752275, -0.301721, -0.4401231, -0.84494114, 0.036438502, 4.0805316, -3.374884, -7.2018595, 0
1087, 2857785609, -0.36149436, -0.43972486, -0.8190651, 0.07136558, 2.831589, -4.98811, -2.4278903, 0
1088, 2857802276, -0.3945304, -0.43759793, -0.8029449, 0.0901692, 3.4242132, -6.2339506, 0.524807, 0
1091, 2857852277, -0.501648, -0.41279447, -0.74821365, 0.13462417, -1.964475, 1.4834309, 6.635338, 0
1092, 2857868944, -0.53289986, -0.39991105, -0.7317846, 0.14344835, -3.349318, 3.5470836, 6.8270607, 0
1093, 2857885611, -0.558997, -0.3863331, -0.718083, 0.15041004, -3.8818085, 4.4538155, 5.856557, 0
1095, 2857918945, -0.59952664, -0.35908934, -0.69573075, 0.16606782, -2.688112, -0.03751464, 5.95889, 0
1096, 2857935612, -0.61603254, -0.34761286, -0.6833581, 0.18079802, -2.8793418, 1.3248355, 3.880683, 0
1097, 2857952279, -0.62909275, -0.33866224, -0.67124414, 0.19742993, -1.7744538, 2.5405118, 2.8687706, 0
1100, 2858002280, -0.6548432, -0.32514846, -0.63163114, 0.25787243, -1.8633815, -3.030056, 2.0992193, 0
1102, 2858035614, -0.6652025, -0.31473812, -0.6025611, 0.3088089, 0.38703325, -4.0441666, 3.3584204, 0
1103, 2858052281, -0.67163736, -0.30567327, -0.58674055, 0.33346632, 0.7872296, -3.5734355, 3.1272125, 0
1104, 2858068948, -0.6787901, -0.29491863, -0.5705218, 0.3560465, 0.7823016, -3.2250988, 3.0213032, 0
1106, 2858102282, -0.69295794, -0.2708367, -0.53832626, 0.39580134, -0.02925248, -2.7036982, 3.5473995, 0
1107, 2858118949, -0.699085, -0.2582073, -0.5226896, 0.41400734, -0.03441161, -2.5586083, 4.4643745, 0
1108, 2858135616, -0.7044333, -0.24463886, -0.50717455, 0.43208438, 0.049411114, -2.2637491, 4.9427385, 0
1110, 2858168950, -0.7138365, -0.21734504, -0.4736171, 0.46784896, 1.1392174, -0.7976815, 6.55147, 0
1111, 2858185617, -0.7193351, -0.20170246, -0.45579553, 0.48386028, 2.143731, 0.08974135, 7.56464, 0
1112, 2858202284, -0.72550756, -0.18431935, -0.43799102, 0.4978216, 2.0356143, 0.91612774, 7.34947, 0
1114, 2858235618, -0.73977494, -0.14637996, -0.4041072, 0.5176878, 3.323749, 3.623586, 4.7475853, 0
1115, 2858252285, -0.7474495, -0.12702791, -0.38854635, 0.5236528, 2.9461231, 3.713675, 4.6553507, 0
1116, 2858268952, -0.75572944, -0.10936811, -0.37181863, 0.5278823, 2.5456243, 4.0525494, 5.0900736, 0
1118, 2858302286, -0.7746146, -0.077379204, -0.33478543, 0.5309434, 0.28130493, 3.8484144, 4.6039867, 0
1119, 2858318953, -0.78372794, -0.06217893, -0.3151087, 0.5316091, -1.1101689, 3.9789286, 4.464899, 0
1120, 2858335620, -0.79117423, -0.045979198, -0.29590875, 0.53325826, -1.4873433, 4.9080935, 3.1137934, 0
1122, 2858368954, -0.79942465, -0.014411749, -0.26195344, 0.5404537, -2.4950147, 6.796622, 0.49083996, 0
1123, 2858385621, -0.8019676, -0.0032310402, -0.24465126, 0.5449593, -2.1048577, 7.1606283, -0.3817129, 0
1124, 2858402288, -0.8041631, 0.0067285122, -0.2271815, 0.549238, -1.6158717, 7.546238, -0.8258066, 0
1127, 2858452289, -0.80982894, 0.0369029, -0.18099791, 0.5568234, -1.7749759, 7.8852806, -6.355879, 0
1128, 2858468956, -0.8113246, 0.044854697, -0.16971435, 0.5576155, -1.7768757, 7.559337, -8.129972, 0
1130, 2858502290, -0.8137755, 0.056015506, -0.15580851, 0.557093, -1.249575, 6.8523564, -9.516578, 0
1131, 2858518957, -0.81484383, 0.058155727, -0.15227924, 0.55628765, -1.5239917, 6.961558, -8.967037, 0
1133, 2858552291, -0.81601465, 0.059797987, -0.14897636, 0.55529046, -2.4561853, 8.567148, -7.2176847, 0
1134, 2858568958, -0.81627846, 0.062304635, -0.14845774, 0.55476606, -2.9858398, 8.708685, -7.9129214, 0
1135, 2858585625, -0.8171907, 0.06464782, -0.14911452, 0.55297595, -3.4292045, 8.695971, -9.331855, 0
1137, 2858618959, -0.82025975, 0.066484034, -0.15639767, 0.54615986, -3.8667889, 9.153591, -10.860502, 0
1138, 2858635626, -0.8215304, 0.065157525, -0.164633, 0.5419735, -4.29269, 9.2694645, -10.70197, 0
1139, 2858652293, -0.8222247, 0.061759938, -0.17568745, 0.5378324, -5.2297444, 10.644508, -9.157616, 0
1142, 2858702294, -0.82247484, 0.039912555, -0.2170343, 0.52424747, -7.013671, 13.261233, -9.06361, 0
1143, 2858718961, -0.82212555, 0.02758082, -0.23770912, 0.51656604, -7.2084045, 14.535213, -8.226999, 0
1145, 2858752295, -0.8148832, -0.0038953503, -0.29224768, 0.50053835, -13.034945, 15.234193, -4.002402, 0
1146, 2858768962, -0.8052354, -0.026311742, -0.32519326, 0.49512658, -15.350453, 17.78719, -2.7017708, 0
1147, 2858785629, -0.79037315, -0.05126577, -0.3623442, 0.49131063, -17.876627, 22.619287, 1.3368702, 0
1149, 2858818963, -0.744751, -0.10808597, -0.4472855, 0.48331824, -14.27107, 27.244009, 10.562378, 0
1150, 2858835630, -0.7243783, -0.15998976, -0.4705092, 0.47780526, -0.8123605, 13.265723, 56.67539, 0
1151, 2858852297, -0.73539996, -0.15689206, -0.4596021, 0.4725835, 53.738216, -9.543627, 11.344654, 0
1153, 2858885631, -0.7311044, -0.1776934, -0.48284385, 0.44807407, 0.35373318, -3.8478413, -1.0839691, 0
1154, 2858902298, -0.71628994, -0.19755901, -0.5125098, 0.43038386, 5.0248556, -2.7201273, -1.4827042, 0
1157, 2858952299, -0.5902266, -0.29724643, -0.6708829, 0.33643827, 3.8279328, -5.96047, 9.338121, 0
1158, 2858968966, -0.53589576, -0.3301881, -0.7184469, 0.29601192, 4.683062, -8.417181, 13.709866, 0
1160, 2859002300, -0.46452647, -0.3706724, -0.77252036, 0.22366641, -1.6435605, -10.758672, 43.39836, 0
1161, 2859018967, -0.44890013, -0.38733673, -0.77960676, 0.20166723, -15.234323, -14.408081, 34.51391, 0
1162, 2859035634, -0.41715777, -0.40009046, -0.7932592, 0.19142747, -8.337486, -10.112849, 13.1457615, 0
1164, 2859068968, -0.3361427, -0.4180218, -0.83226115, 0.14001697, 6.1655145, -25.98539, 9.135599, 0
1165, 2859085635, -0.29858068, -0.4257343, -0.8459037, 0.118507974, 9.173203, -21.591566, 2.159173, 0
1166, 2859102302, -0.2630467, -0.42964935, -0.85865647, 0.09441502, 10.190408, -21.584486, -2.2952542, 0
1168, 2859135636, -0.20113494, -0.4336046, -0.8771765, 0.045720052, 10.768363, -17.25452, -11.134334, 0
1169, 2859152303, -0.1765681, -0.43335146, -0.88354635, 0.01932621, 9.503793, -14.200826, -14.27165, 0
1172, 2859202304, -0.12544513, -0.43386003, -0.89054453, -0.054372817, 5.6305633, -8.613665, -18.630123, 0
1173, 2859218971, -0.11584013, -0.43224144, -0.89130497, -0.072946936, 5.307892, -8.1181555, -19.63084, 0
1174, 2859235638, -0.10954411, -0.42932582, -0.89238614, -0.085580185, 4.54318, -6.437985, -19.959936, 0
1176, 2859268972, -0.10586118, -0.42521197, -0.8938986, -0.09450247, 4.590949, -2.887914, -19.38924, 0
1177, 2859285639, -0.10953244, -0.4249943, -0.8937378, -0.092804454, 4.053812, -2.1268916, -18.552448, 0
1180, 2859335640, -0.14612788, -0.43205205, -0.8881044, -0.05696951, 4.256731, -3.462966, -14.515391, 0
1181, 2859352307, -0.17077544, -0.43394235, -0.88385797, -0.036362313, 5.145977, -3.135056, -11.504698, 0
1183, 2859385641, -0.2371129, -0.43418804, -0.8690037, 0.009381955, 4.67328, -5.2537856, -4.969998, 0
1184, 2859402308, -0.27500996, -0.43291053, -0.8576731, 0.036771644, 3.006642, -5.0661535, -1.8217454, 0
1185, 2859418975, -0.3105262, -0.43376577, -0.84316397, 0.06702736, 1.1832463, -3.0076332, 0.38097286, 0
1187, 2859452309, -0.3769112, -0.43637508, -0.8076681, 0.123225085, 5.9641366, -5.057655, 2.3515167, 0
1188, 2859468976, -0.41500446, -0.43100134, -0.7875988, 0.14729156, 3.6402867, -5.2537885, 3.7983637, 0
1189, 2859485643, -0.45246318, -0.4260282, -0.7643001, 0.1721029, -0.40503678, -3.8186157, 5.1303253, 0
1191, 2859518977, -0.51532865, -0.41538033, -0.7158298, 0.2224427, -2.8227568, -4.542897, 6.3850746, 0
1192, 2859535644, -0.5394983, -0.4080918, -0.6918467, 0.25248355, -4.845817, -4.059215, 5.2201004, 0
1193, 2859552311, -0.5581519, -0.40098122, -0.6687563, 0.28362468, -0.86197144, -4.3631077, 5.3610106, 0
1195, 2859585645, -0.5994621, -0.3718486, -0.6221371, 0.33958304, 0.41468716, -4.197519, 8.287996, 0
1196, 2859602312, -0.620859, -0.35799238, -0.5950659, 0.36368868, -1.912266, -2.081736, 7.5955544, 0
1197, 2859618979, -0.63980603, -0.34459326, -0.5682228, 0.3860362, -3.201013, -1.5517474, 7.07769, 0
1200, 2859668980, -0.67584556, -0.29384097, -0.5005831, 0.45420724, -0.22759967, -0.7710252, 8.827175, 0
1201, 2859685647, -0.6852924, -0.27530688, -0.47792733, 0.47556603, 0.9732514, 0.5657701, 7.7918987, 0
1203, 2859718981, -0.7049684, -0.24282913, -0.43096995, 0.50824785, 2.2735972, 2.1263585, 7.230158, 0
1204, 2859735648, -0.7157353, -0.22403428, -0.4107257, 0.5184913, 2.8757584, 2.8288555, 6.360443, 0
1205, 2859752315, -0.7266415, -0.20523189, -0.3926485, 0.525068, 1.125161, 3.0691748, 7.3633747, 0
1207, 2859785649, -0.7493812, -0.1710888, -0.35345584, 0.5331254, -1.6192275, 3.8196702, 8.344765, 0
1208, 2859802316, -0.75974697, -0.15444164, -0.33314118, 0.53660667, -1.5466675, 3.3308218, 5.5857754, 0
1209, 2859818983, -0.76822245, -0.13635871, -0.31512764, 0.5403077, -0.0941982, 3.727988, 4.398753, 0
1211, 2859852317, -0.78074366, -0.102422774, -0.2821938, 0.548008, 0.13277228, 5.7043815, 3.6532316, 0
1212, 2859868984, -0.78662735, -0.08791142, -0.26662442, 0.549907, 0.039822634, 6.565014, 3.0533895, 0
1215, 2859918985, -0.8035383, -0.048771985, -0.22660975, 0.5482634, -2.7091167, 7.263191, 2.2135906, 0
1216, 2859935652, -0.80794275, -0.03530771, -0.21292198, 0.5483095, -2.2645988, 7.25989, -0.32847404, 0
1218, 2859968986, -0.8156145, -0.011201118, -0.1892118, 0.5466659, -3.8504474, 7.865149, -3.9853063, 0
1219, 2859985653, -0.8190164, -0.0022589653, -0.17888016, 0.5451662, -4.3254514, 7.391481, -5.478917, 0
1220, 2860002320, -0.82140297, 0.004858034, -0.17043611, 0.54426324, -4.878417, 6.973106, -6.671855, 0
1222, 2860035654, -0.82192147, 0.0149650015, -0.15881114, 0.54680663, -4.2183867, 7.6206455, -8.467852, 0
1223, 2860052321, -0.82076824, 0.018731894, -0.15493767, 0.54952717, -3.5351164, 8.273124, -9.506272, 0
1224, 2860068988, -0.8191657, 0.020539505, -0.15259042, 0.55250263, -3.4805305, 8.381801, -11.04082, 0
1226, 2860102322, -0.8165482, 0.016555974, -0.15450124, 0.55596894, -3.5769556, 8.834546, -12.2902, 0
1227, 2860118989, -0.81536144, 0.011149947, -0.15850867, 0.556717, -3.6785417, 8.894993, -11.71669, 0
1230, 2860168990, -0.8109362, -0.013461952, -0.18209212, 0.5559148, -3.032914, 9.281662, -7.6182556, 0
1231, 2860185657, -0.80961204, -0.0231313, -0.19239014, 0.5540548, -3.2274244, 9.185726, -7.0577, 0
1232, 2860202324, -0.8084467, -0.03279171, -0.20550174, 0.55054957, -3.7590709, 9.91569, -6.225531, 0
1234, 2860235658, -0.80663097, -0.052972667, -0.23384282, 0.54023623, -7.7423673, 11.497263, -0.9367924, 0
1235, 2860252325, -0.8066462, -0.06321826, -0.2428629, 0.5351077, -7.3835707, 11.6731415, 2.1339922, 0
1236, 2860268992, -0.80729324, -0.072150186, -0.24968424, 0.52983683, -6.0110106, 9.1237955, -0.096138954, 0
1238, 2860302326, -0.8062125, -0.0938095, -0.27624434, 0.5146917, -8.040222, 8.729273, 2.1885643, 0
1239, 2860318993, -0.8023401, -0.104157485, -0.29185644, 0.51011634, -10.601553, 9.164163, 5.912916, 0
1241, 2860352327, -0.7857491, -0.12905996, -0.32755363, 0.50857425, -10.774894, 12.830873, 2.6772842, 0
1243, 2860385661, -0.75137, -0.1581169, -0.38659412, 0.5108661, -9.092264, 23.578636, 2.8495188, 0
1246, 2860435662, -0.737331, -0.18125208, -0.45333755, 0.46687567, 2.8055484, -5.9342027, -0.24638653, 0
1247, 2860452329, -0.7225837, -0.20432946, -0.48385978, 0.4494431, 3.6590223, -4.963741, -0.92261314, 0
1249, 2860485663, -0.6565812, -0.26730216, -0.5840714, 0.39535835, -0.57154053, -3.889461, 3.2775335, 0
1250, 2860502330, -0.60417545, -0.3076436, -0.64236706, 0.35733634, 3.002448, -5.8938613, 11.146038, 0
1251, 2860518997, -0.5482294, -0.34831196, -0.69272697, 0.31344792, 0.8118366, 2.3790648, 18.522738, 0
1253, 2860552331, -0.43803945, -0.40520748, -0.76520765, 0.24162503, -19.482306, -3.56072, 44.800163, 0
1254, 2860568998, -0.3764048, -0.42566612, -0.79198086, 0.2233637, 12.570678, -43.463398, 46.112663, 0
1255, 2860585665, -0.3384718, -0.4463018, -0.8024862, 0.20558432, 15.111461, -7.5999207, 9.550978, 0
1257, 2860618999, -0.26032302, -0.46734047, -0.8335603, 0.13783796, 0.9413132, -34.60644, -2.337781, 0
1258, 2860635666, -0.22132924, -0.4733943, -0.84381104, 0.12203016, 10.181945, -24.527002, -12.6941185, 0
1259, 2860652333, -0.19431378, -0.47142366, -0.8545387, 0.09880694, 14.338622, -20.159796, -18.011887, 0
1261, 2860685667, -0.16861376, -0.473624, -0.862427, 0.058877848, 5.590604, -14.558922, -19.246284, 0
1262, 2860702334, -0.16197075, -0.47578925, -0.8633801, 0.044296633, 4.485499, -11.668901, -19.361515, 0
1264, 2860735668, -0.1573487, -0.47706679, -0.86447734, 0.018021615, 2.7840722, -8.00178, -19.076012, 0
1265, 2860752335, -0.158884, -0.47680542, -0.8644956, 0.007567632, 3.0783105, -8.026872, -19.12075, 0
1266, 2860769002, -0.16437744, -0.47550642, -0.8642168, 4.232662E-4, 3.1882734, -8.049421, -18.835707, 0
1268, 2860802336, -0.18458377, -0.47234467, -0.8618678, -7.1088294E-4, 2.2003555, -5.83967, -16.360397, 0
1269, 2860819003, -0.1971095, -0.47043222, -0.8601236, 0.005121915, 2.5090604, -5.048688, -14.677477, 0
1270, 2860835670, -0.21202469, -0.46660164, -0.8585699, 0.0135405855, 3.48444, -4.924664, -12.686483, 0
1273, 2860885671, -0.27775398, -0.45074716, -0.84667975, 0.05301152, 6.671131, -4.5663953, -4.5852714, 0
1274, 2860902338, -0.30925515, -0.4466098, -0.8368047, 0.06823634, 4.34845, -5.0330024, -0.97534084, 0
1276, 2860935672, -0.36712635, -0.4434654, -0.81119037, 0.10258737, 0.4183273, -0.7270281, 2.1692924, 0
1277, 2860952339, -0.39026523, -0.4375055, -0.8015256, 0.11762713, 0.8166144, -1.0656601, 2.624772, 0
1278, 2860969006, -0.41041222, -0.4284281, -0.79394984, 0.13286127, 1.1114401, -2.647061, 2.9998198, 0
1280, 2861002340, -0.45088157, -0.41160354, -0.7745379, 0.1654588, 2.3272693, -1.3101547, 4.5053453, 0
1281, 2861019007, -0.47265255, -0.4050008, -0.7614924, 0.18083341, 0.58960974, -0.83284795, 5.0381346, 0
1282, 2861035674, -0.49173975, -0.40071666, -0.7472711, 0.19799294, -2.1491704, -0.3278003, 4.4796476, 0
1284, 2861069008, -0.5155976, -0.39724913, -0.72079986, 0.23832145, -0.08634753, -0.30717587, 1.057395, 0
1285, 2861085675, -0.5257396, -0.39056963, -0.7105485, 0.2572376, 3.3314106, -2.846601, 2.2962532, 0
1288, 2861135676, -0.5841899, -0.35943154, -0.662738, 0.30051103, 1.142536, 0.9154306, 2.9229488, 0
1289, 2861152343, -0.6067895, -0.3513965, -0.64340025, 0.30718124, -2.2759871, 0.24889465, 2.2633734, 0
1290, 2861169010, -0.6248647, -0.3465462, -0.6241339, 0.31607598, -5.438447, -2.789903, 2.707695, 0
1292, 2861202344, -0.64902246, -0.3344437, -0.5866489, 0.35036802, -2.6794991, -4.469949, 3.631548, 0
1293, 2861219011, -0.65851426, -0.32213563, -0.5698022, 0.3713625, -2.177081, -3.4742143, 2.8335133, 0
1295, 2861252345, -0.67442596, -0.2916703, -0.5376411, 0.41354248, 0.36432254, -2.2873259, 3.777936, 0
1296, 2861269012, -0.68153423, -0.2734057, -0.5226475, 0.43312517, 2.1698575, -1.850837, 4.992774, 0
1297, 2861285679, -0.68838876, -0.25417104, -0.5074012, 0.45172927, 2.7319052, -1.4132509, 5.5182457, 0
1299, 2861319013, -0.7050248, -0.2181729, -0.4704596, 0.48374128, 4.2967377, -0.07990454, 6.0703096, 0
1300, 2861335680, -0.71670926, -0.20071612, -0.4493846, 0.49405622, 4.1219044, 0.40351397, 5.8408318, 0
1303, 2861385681, -0.7571297, -0.14485615, -0.38622695, 0.5065542, -0.45829633, 3.4129055, 6.941986, 0
1304, 2861402348, -0.76849735, -0.12532088, -0.36761004, 0.5084945, -1.6297791, 4.166955, 5.7625294, 0
1305, 2861419015, -0.7782785, -0.10630256, -0.34984383, 0.51047915, -2.499228, 5.0037947, 6.0607166, 0
1307, 2861452349, -0.79409534, -0.071200535, -0.31262296, 0.51634026, -3.264866, 5.502409, 2.2968035, 0
1308, 2861469016, -0.7991595, -0.056726884, -0.29497448, 0.52068573, -3.5448594, 6.0919785, 1.7893124, 0
1309, 2861485683, -0.8025461, -0.044285342, -0.27731106, 0.52635956, -3.9123154, 6.586115, 0.96413136, 0
1311, 2861519017, -0.8056421, -0.022780852, -0.24744637, 0.53776336, -2.642526, 7.150114, -2.4795356, 0
1313, 2861552351, -0.8065713, -0.0049820505, -0.22456966, 0.54679394, -2.656527, 7.3272877, -2.8985128, 0
1315, 2861585685, -0.8066524, 0.009842456, -0.20332515, 0.5548614, -1.3870562, 7.4948597, -5.7561235, 0
1316, 2861602352, -0.8070057, 0.017542664, -0.19463426, 0.55726886, -1.5571661, 7.5244117, -7.0625095, 0
1319, 2861652353, -0.8089235, 0.03864377, -0.18160255, 0.5578235, -2.0353878, 9.247092, -11.34555, 0
1320, 2861669020, -0.8090581, 0.043303397, -0.18120168, 0.5574161, -3.031084, 9.966374, -12.210421, 0
1322, 2861702354, -0.81118536, 0.043060936, -0.18018357, 0.55466664, -3.475443, 10.32607, -12.689947, 0
1323, 2861719021, -0.8119135, 0.038644247, -0.1824746, 0.5531759, -3.7611356, 9.770285, -12.601392, 0
1324, 2861735688, -0.8113336, 0.031390697, -0.18790486, 0.5526675, -4.013992, 10.051382, -11.366598, 0
1326, 2861769022, -0.80750084, 0.009584995, -0.20468962, 0.55312747, -2.912006, 11.535166, -7.469215, 0
1327, 2861785689, -0.80550146, -0.0030171885, -0.21545006, 0.55202955, -2.543679, 12.0729265, -5.18691, 0
1328, 2861802356, -0.8044195, -0.0156291, -0.22632703, 0.5490339, -3.6888323, 12.797918, -1.916853, 0
1330, 2861835690, -0.8032757, -0.044151798, -0.24862412, 0.5394274, -4.35046, 11.112871, 0.547307, 0
1331, 2861852357, -0.80243987, -0.055886433, -0.26331252, 0.53256977, -4.2692585, 11.827403, 2.1064672, 0
1332, 2861869024, -0.801478, -0.06444849, -0.2811579, 0.5238577, -5.323256, 11.609792, 1.9375477, 0
1334, 2861902358, -0.7959416, -0.08417414, -0.322515, 0.50534433, -9.002428, 11.778949, 5.1491985, 0
1335, 2861919025, -0.7901658, -0.09759223, -0.34227154, 0.4989604, -11.063008, 11.770709, 5.170246, 0
1336, 2861935692, -0.7808076, -0.11397579, -0.36465883, 0.49433792, -10.155851, 13.790529, 2.4488754, 0
1339, 2861985693, -0.77323955, -0.1404786, -0.39225993, 0.47801226, 11.368528, -11.944517, -0.011985779, 0
1340, 2862002360, -0.7629763, -0.15747243, -0.4183817, 0.4669299, 2.314342, 1.1720386, 1.3262548, 0
1342, 2862035694, -0.72290975, -0.19748572, -0.5007417, 0.4331927, 1.4273502, -3.525933, -1.1382971, 0
1343, 2862052361, -0.68926126, -0.22693707, -0.5573455, 0.40346214, -2.5387735, -3.5807326, -1.2491703, 0
1345, 2862085695, -0.57651997, -0.31499448, -0.68108934, 0.32329246, 4.336718, -6.9133763, 12.592661, 0
1349, 2862152363, -0.38922948, -0.4094897, -0.7952613, 0.21994434, -0.4253398, -26.804087, 30.215107, 0
1350, 2862169030, -0.3351472, -0.42803085, -0.81440955, 0.2029787, 13.257376, -11.895616, 14.484211, 0
1351, 2862185697, -0.28862122, -0.44116038, -0.8299851, 0.18220188, 9.723739, -29.598743, 9.692738, 0
1353, 2862219031, -0.21050303, -0.45655882, -0.85441244, 0.13122241, 12.07704, -28.110743, -6.6572337, 0
1354, 2862235698, -0.18141234, -0.46128637, -0.8618976, 0.106931694, 11.523402, -22.758472, -12.815444, 0
1355, 2862252365, -0.16031562, -0.4644935, -0.8670937, 0.081794985, 11.524813, -18.350885, -17.526155, 0
1357, 2862285699, -0.13978556, -0.47439435, -0.8682693, 0.038932834, 4.6678395, -10.038747, -19.754696, 0
1358, 2862302366, -0.1340524, -0.48178974, -0.8656379, 0.024016287, 2.9906862, -7.647982, -20.005138, 0
1359, 2862319033, -0.13040167, -0.48779052, -0.8630798, 0.01210684, 1.6548556, -5.965689, -19.721527, 0
1361, 2862352367, -0.1323281, -0.4908931, -0.8611018, -0.003761534, 1.19044, -5.2112484, -19.014515, 0
1363, 2862385701, -0.14989391, -0.48435158, -0.861932, -0.0024868129, 1.4964774, -4.7936983, -17.391317, 0
1365, 2862419035, -0.18101758, -0.47492978, -0.8610039, 0.01854852, 2.7695553, -5.224657, -14.335079, 0
1366, 2862435702, -0.20303056, -0.4696694, -0.85842574, 0.035941236, 4.0575085, -6.5704, -10.728755, 0
1367, 2862452369, -0.23082478, -0.46292755, -0.85399866, 0.055691883, 4.8091083, -5.8514266, -6.8423924, 0
1369, 2862485703, -0.2990911, -0.44597572, -0.8374408, 0.101689406, 1.7925001, -4.0786653, 3.6989202, 0
1370, 2862502370, -0.3308841, -0.4405537, -0.8246099, 0.1282344, 0.31441343, -1.4854267, 6.643955, 0
1371, 2862519037, -0.3572005, -0.43703207, -0.81090266, 0.15441771, 0.52639043, 0.6697, 6.1768627, 0
1373, 2862552371, -0.4006174, -0.42324078, -0.78927577, 0.1934268, 4.5352855, 1.2538252, 3.1272097, 0
1374, 2862569038, -0.42388776, -0.41249052, -0.7797469, 0.2053359, 5.8341503, -0.7903382, 2.6144905, 0
1376, 2862602372, -0.48061565, -0.3916737, -0.75012267, 0.23002939, 2.6515687, -1.9520886, 2.6546955, 0
1378, 2862635706, -0.53210217, -0.38571107, -0.7078851, 0.25882503, 3.3197606, -1.4649662, -0.10507679, 0
1380, 2862669040, -0.578142, -0.37192175, -0.6661298, 0.28929996, 2.2093687, -7.1319327, 2.749648, 0
1381, 2862685707, -0.60405743, -0.3614991, -0.6394424, 0.30910146, 2.2782502, -8.555526, 5.5663996, 0
1382, 2862702374, -0.6317478, -0.34823403, -0.60846746, 0.33074522, -5.35537E-4, -6.4975247, 4.2895174, 0
1384, 2862735708, -0.6811535, -0.31519276, -0.54876816, 0.36814973, -1.7219894, -4.208495, 5.644224, 0
1385, 2862752375, -0.7001174, -0.296948, -0.52332705, 0.38442641, -3.8409812, -3.681331, 5.2086573, 0
1386, 2862769042, -0.7141799, -0.2800119, -0.5007408, 0.40099382, -4.534862, -3.8235102, 8.434368, 0
1388, 2862802376, -0.73572844, -0.23985814, -0.45672852, 0.43882576, -4.0319724, -0.8733266, 12.744774, 0
1389, 2862819043, -0.7444281, -0.21771386, -0.4333309, 0.45896524, -2.8841481, 1.5110935, 9.459967, 0
1390, 2862835710, -0.750709, -0.19571258, -0.41157466, 0.47826356, -2.1304579, 3.4250262, 8.872002, 0
1393, 2862885711, -0.75670207, -0.14222485, -0.35031655, 0.5333385, 2.0323567, 8.958585, 5.048318, 0
1394, 2862902378, -0.7602905, -0.12732199, -0.33024555, 0.54468584, 2.713696, 9.801191, 4.072295, 0
1396, 2862935712, -0.774216, -0.09568657, -0.29862478, 0.54977626, 0.9089731, 9.314964, 0.84439564, 0
1397, 2862952379, -0.7827826, -0.08125088, -0.2854381, 0.5469661, -2.6315668, 7.622307, 1.601943, 0
1398, 2862969046, -0.7912782, -0.06944922, -0.27081057, 0.54379666, -3.6393914, 5.4346595, 0.9656372, 0
1400, 2863002380, -0.8003033, -0.047861386, -0.2457753, 0.54480785, -3.9089925, 3.1468878, -0.1596632, 0
1401, 2863019047, -0.80095863, -0.04024103, -0.23303732, 0.55003357, -2.8494925, 4.266214, -0.27110767, 0
1403, 2863052381, -0.79952747, -0.029854508, -0.20891024, 0.56233263, -1.0970391, 6.393776, -2.2744837, 0
1404, 2863069048, -0.7994219, -0.025612336, -0.19836599, 0.566495, -1.07426, 8.021978, -2.1283188, 0
1405, 2863085715, -0.8005047, -0.020049904, -0.18747848, 0.568893, -0.7260119, 8.109776, -3.3335524, 0
1407, 2863119049, -0.80554575, -0.008134844, -0.17066553, 0.56736255, -1.0886875, 7.46174, -5.9207287, 0
1408, 2863135716, -0.8086928, -0.0027247544, -0.16490541, 0.5646344, -2.5602791, 6.9098577, -6.3678846, 0
1409, 2863152383, -0.8116903, 8.65276E-4, -0.16017222, 0.56169415, -3.6682835, 6.7267537, -6.7843275, 0
1411, 2863185717, -0.81459826, 0.002383451, -0.15565033, 0.55874324, -4.5131702, 6.431435, -8.337339, 0
1412, 2863202384, -0.8140566, 1.5246845E-4, -0.15602142, 0.55943406, -4.1514277, 6.7608404, -8.092747, 0
1413, 2863219051, -0.81278116, -0.0035911282, -0.15722418, 0.56093824, -2.915715, 6.9862247, -7.5059156, 0
1415, 2863252385, -0.8109088, -0.0127412835, -0.16246915, 0.5620193, -0.7262525, 7.497245, -7.161042, 0
1416, 2863269052, -0.8110881, -0.016770232, -0.1677787, 0.5600915, -1.0123281, 7.946768, -7.2508106, 0
1417, 2863285719, -0.812142, -0.020958275, -0.17509142, 0.55617136, -2.1165113, 8.14921, -7.242132, 0
1420, 2863335720, -0.81538266, -0.040526025, -0.21377265, 0.53647655, -4.882979, 5.969147, -6.0649023, 0
1421, 2863352387, -0.8141519, -0.051266078, -0.2345515, 0.52868825, -5.263451, 5.8630757, -4.727235, 0
1423, 2863385721, -0.8036355, -0.07463349, -0.28374475, 0.51777005, -4.4263244, 7.5927396, -0.20673275, 0
1424, 2863402388, -0.79707056, -0.08710037, -0.30392358, 0.51450884, -4.365185, 7.823414, 1.4509411, 0
1426, 2863435722, -0.78794163, -0.11107609, -0.3325037, 0.50621, -1.0274822, 9.708083, 2.359356, 0
1427, 2863452389, -0.7849008, -0.11387285, -0.34788156, 0.4999396, -2.392044, 10.685146, 1.8407793, 0
1428, 2863469056, -0.7825571, -0.113637984, -0.3659651, 0.4906706, -5.775831, 12.183015, 1.0608206, 0
1430, 2863502390, -0.77906346, -0.12054625, -0.39659518, 0.47035995, -14.566619, 15.698732, 1.4157381, 0
1431, 2863519057, -0.7728956, -0.1360888, -0.41242588, 0.4626171, -15.51095, 17.968166, -3.4346414, 0
1432, 2863535724, -0.7559448, -0.16099182, -0.44445187, 0.4528677, -6.8696384, 34.102955, 23.34998, 0
1435, 2863585725, -0.7475262, -0.16684912, -0.47224388, 0.43628994, 1.3071692, -5.5546618, -0.121011734, 0
1436, 2863602392, -0.7279848, -0.19187973, -0.51032627, 0.415674, 5.1962357, -4.112983, -1.020894, 0
1438, 2863635726, -0.64510524, -0.26778713, -0.6222957, 0.35337642, -0.11109309, -3.279688, 3.9503784, 0
1439, 2863652393, -0.5838787, -0.3114918, -0.6829552, 0.30923787, 5.1191235, -8.302918, 13.93948, 0
1440, 2863669060, -0.528977, -0.34929803, -0.7266972, 0.2647317, 4.7074842, -11.512119, 20.012968, 0
1442, 2863702394, -0.4545995, -0.4051896, -0.7695062, 0.19240169, -0.7479333, -18.89717, 29.018524, 0
1443, 2863719061, -0.4162287, -0.4301048, -0.78171647, 0.17515768, -3.2485301, -37.108086, 33.337463, 0
1444, 2863735728, -0.38518128, -0.44866523, -0.78659314, 0.17777368, -0.85811454, -10.086674, 5.408991, 0
1447, 2863785729, -0.27445078, -0.48662522, -0.8196741, 0.12650886, 7.547462, -22.544418, -6.533231, 0
1448, 2863802396, -0.24422272, -0.49245632, -0.8277514, 0.11254734, 9.992624, -19.15376, -10.622131, 0
1451, 2863852397, -0.19272031, -0.49605396, -0.8441387, 0.06493688, 5.9614563, -11.565472, -16.58911, 0
1452, 2863869064, -0.18738644, -0.4944569, -0.8473829, 0.048356414, 3.7721558, -9.248419, -16.876411, 0
1454, 2863902398, -0.18698803, -0.4918466, -0.84999263, 0.025148448, 2.1433523, -6.8710556, -16.326244, 0
1455, 2863919065, -0.19210614, -0.48868814, -0.85082525, 0.019314993, 1.6208031, -6.343807, -15.528908, 0
1457, 2863952399, -0.21005462, -0.47902623, -0.85193264, 0.02488336, 1.3098642, -4.1161213, -12.621223, 0
1458, 2863969066, -0.2230334, -0.4710904, -0.8527883, 0.032853425, 2.7717185, -2.6125128, -10.617048, 0
1459, 2863985733, -0.23937449, -0.46174148, -0.85303986, 0.042603776, 4.049545, -2.4025178, -7.5135016, 0
1461, 2864019067, -0.28332973, -0.4462146, -0.8462088, 0.06741381, 6.3839326, -0.06708115, -0.960145, 0
1462, 2864035734, -0.30983824, -0.44051668, -0.838878, 0.07890744, 5.3139596, 1.4215504, 1.021821, 0
1465, 2864085735, -0.37367427, -0.4325207, -0.81260693, 0.11384524, 2.6869297, 0.045445547, -0.22107887, 0
1467, 2864119069, -0.40561372, -0.4308045, -0.7928107, 0.14605992, 4.0778036, -4.8285174, -0.41669464, 0
1469, 2864152403, -0.4502292, -0.4227093, -0.766667, 0.17558451, 5.4081955, -1.539874, -0.35268974, 0
1470, 2864169070, -0.47859272, -0.41511944, -0.75163794, 0.18347389, 4.216201, -2.7662132, 0.9316387, 0
1471, 2864185737, -0.5086936, -0.40743446, -0.7341556, 0.19037074, 1.5885258, -2.2731504, 0.22854996, 0
1473, 2864219071, -0.5593947, -0.39277947, -0.6991165, 0.20984665, -1.0109106, -4.629305, 0.45775795, 0
1474, 2864235738, -0.5794803, -0.38501903, -0.6812226, 0.22780629, -0.3492135, -6.207047, 1.956007, 0
1475, 2864252405, -0.5987796, -0.37578434, -0.6618461, 0.24941105, 1.0007274, -5.4649067, 3.1050425, 0
1477, 2864285739, -0.6385577, -0.35366014, -0.61825323, 0.29142576, -0.19787379, -4.5088606, 4.5449247, 0
1478, 2864302406, -0.65798277, -0.34122375, -0.5950752, 0.3106574, -1.5721807, -3.582792, 4.1893663, 0
1479, 2864319073, -0.6752831, -0.32785708, -0.57263607, 0.32952645, -2.9276934, -3.1607533, 4.0242815, 0
1481, 2864352407, -0.70099, -0.2974413, -0.53281856, 0.36911187, -0.9305421, -2.280866, 4.6236305, 0
1482, 2864369074, -0.71127725, -0.28053406, -0.51457655, 0.38806352, -0.112160586, -1.9997181, 6.359022, 0
1484, 2864402408, -0.731097, -0.24886814, -0.47365233, 0.42333516, -1.1366603, -0.74669623, 7.875019, 0
1485, 2864419075, -0.7414767, -0.23353082, -0.4506527, 0.43884525, -1.4146452, 0.6058763, 7.438425, 0
1486, 2864435742, -0.75187427, -0.21694195, -0.42807484, 0.45207363, -1.7083037, 1.8030549, 6.283293, 0
1488, 2864469076, -0.77022624, -0.18353054, -0.38810152, 0.47163814, -2.6054204, 2.7425857, 4.2134285, 0
1489, 2864485743, -0.7779196, -0.16815954, -0.37038526, 0.4789317, -2.2043495, 2.221617, 3.7514553, 0
1490, 2864502410, -0.7846425, -0.15294975, -0.35359553, 0.4857058, -2.0035326, 1.4482899, 4.107403, 0
1492, 2864535744, -0.7965236, -0.12092075, -0.3209229, 0.49792993, -1.1502147, 2.2266061, 5.4437675, 0
1494, 2864569078, -0.80766964, -0.085313246, -0.28767484, 0.5075744, -0.95340097, 3.6592257, 4.3069506, 0
1496, 2864602412, -0.8185197, -0.04990908, -0.25656718, 0.51157147, -1.2152417, 4.912494, 3.3793678, 0
1497, 2864619079, -0.8231827, -0.030737434, -0.24195777, 0.51271766, -1.8893014, 5.3010807, 2.1654997, 0
1498, 2864635746, -0.82687986, -0.0126602305, -0.22694138, 0.5143972, -2.5869997, 5.6189647, 0.6317501, 0
1500, 2864669080, -0.8310115, 0.017747464, -0.19784954, 0.51957464, -2.421153, 6.3826094, -2.2517996, 0
1501, 2864685747, -0.8318862, 0.030149123, -0.18534547, 0.5222077, -2.2761698, 6.7414565, -2.873097, 0
1502, 2864702414, -0.83189195, 0.041402202, -0.17422955, 0.52524585, -2.1044376, 7.002275, -3.6006975, 0
1504, 2864735748, -0.8302404, 0.058459688, -0.15579562, 0.5319853, -1.6588252, 7.2155004, -4.917598, 0
1505, 2864752415, -0.8293709, 0.065045446, -0.14766382, 0.53488857, -1.7920903, 7.7809176, -4.881608, 0
1507, 2864785749, -0.8289112, 0.07588981, -0.1341259, 0.53773093, -1.5067836, 7.0284147, -7.1316624, 0
1509, 2864819083, -0.8289892, 0.08400805, -0.1282316, 0.53784156, -2.7515, 6.831574, -7.7830286, 0
1511, 2864852417, -0.8294338, 0.08540524, -0.12812105, 0.53696173, -3.7627158, 6.866517, -7.964375, 0
1512, 2864869084, -0.82922983, 0.08354351, -0.12961683, 0.5372108, -3.9554636, 6.8107743, -7.734206, 0
1513, 2864885751, -0.82879484, 0.07989189, -0.13233301, 0.53777456, -3.31001, 6.8738184, -7.915976, 0
1515, 2864919085, -0.8272517, 0.07105047, -0.14361921, 0.5384956, -2.1505392, 7.3473454, -8.455554, 0
1516, 2864935752, -0.82602626, 0.06499898, -0.15180032, 0.5388966, -2.7823832, 7.805312, -8.672003, 0
1517, 2864952419, -0.8248296, 0.0562672, -0.16167136, 0.53884107, -2.9675298, 8.373083, -8.896122, 0
1519, 2864985753, -0.8224312, 0.032210812, -0.18733087, 0.5361661, -3.7120514, 8.152153, -6.2184863, 0
1520, 2865002420, -0.8200813, 0.017594231, -0.20225443, 0.53502107, -3.402235, 7.117233, -4.4813895, 0
1521, 2865019087, -0.81644714, 0.002712186, -0.2183085, 0.5345517, -2.4830735, 7.258195, -2.9665666, 0
1524, 2865069088, -0.79927284, -0.029317359, -0.28642315, 0.527506, -2.1611013, 10.687698, -5.398815, 0
1525, 2865085755, -0.7929277, -0.03962965, -0.31859982, 0.5178674, -5.861082, 12.455116, -3.537693, 0
1527, 2865119089, -0.77444124, -0.06057058, -0.38016167, 0.5020422, -11.024345, 14.640534, 4.8396244, 0
1528, 2865135756, -0.7635174, -0.07172666, -0.4055082, 0.49745056, -11.0671835, 16.716682, 3.9246387, 0
1529, 2865152423, -0.7516743, -0.08511922, -0.4311724, 0.49176034, -11.937204, 20.062988, 2.3658276, 0
1531, 2865185757, -0.7256097, -0.13245705, -0.48135757, 0.4735373, -20.421982, 22.41292, 22.892536, 0
1532, 2865202424, -0.7267903, -0.16496259, -0.4631754, 0.4796135, 46.94694, 7.643667, 38.45334, 0
1533, 2865219091, -0.72942644, -0.16601135, -0.46520343, 0.4732445, -6.4099197, -11.252501, 2.4085417, 0
1535, 2865252425, -0.71326286, -0.20081577, -0.5022945, 0.44567552, 5.7445545, -5.1006637, -1.0427837, 0
1536, 2865269092, -0.68745774, -0.23200768, -0.54538214, 0.4196783, 1.7931211, -3.8944097, -1.1855888, 0
1539, 2865319093, -0.528355, -0.35282, -0.7079109, 0.30857497, 5.971584, -9.505944, 20.588755, 0
1540, 2865335760, -0.48168802, -0.38384742, -0.7377855, 0.27623817, 5.4032154, -1.8802505, 29.483398, 0
1542, 2865369094, -0.42961708, -0.41878945, -0.76794887, 0.2242684, -5.0191855, -30.392351, 40.44547, 0
1543, 2865385761, -0.4019263, -0.4327582, -0.78054726, 0.20474096, -0.8783402, -2.4975314, 6.8309574, 0
1544, 2865402428, -0.36866608, -0.44034672, -0.8017153, 0.16561908, 5.0741153, -20.881214, 9.536398, 0
1546, 2865435762, -0.3130982, -0.45636487, -0.8249344, 0.11480846, 5.7787485, -20.863338, -2.2148108, 0
1547, 2865452429, -0.28637904, -0.46111777, -0.8349713, 0.09043071, 7.108351, -19.414923, -5.8952456, 0
1548, 2865469096, -0.2615564, -0.46369126, -0.84388655, 0.066567264, 7.0185194, -18.493269, -9.31611, 0
1550, 2865502430, -0.2167337, -0.4685183, -0.85604954, 0.026337948, 6.387898, -13.224322, -14.789646, 0
1551, 2865519097, -0.19897787, -0.469644, -0.860117, 0.006206315, 6.9448695, -10.5067, -16.405375, 0
1552, 2865535764, -0.1865087, -0.4686995, -0.86329657, -0.015846552, 6.193156, -9.181072, -17.150917, 0
1554, 2865569098, -0.17549445, -0.46480298, -0.86607486, -0.05542246, 5.2162576, -8.362856, -18.110125, 0
1555, 2865585765, -0.176346, -0.46316767, -0.865829, -0.0686667, 3.8758457, -6.9409785, -18.100117, 0
1556, 2865602432, -0.17892034, -0.46281368, -0.8648801, -0.0759644, 2.066195, -5.5793867, -17.720608, 0
1558, 2865635766, -0.18533804, -0.4637004, -0.8632221, -0.07400416, 1.0056129, -3.7777057, -16.660686, 0
1559, 2865652433, -0.19116433, -0.46300927, -0.8629283, -0.066565156, 1.5047176, -4.378341, -15.664686, 0
1560, 2865669100, -0.20104602, -0.460576, -0.8627741, -0.055393912, 2.407046, -4.793247, -14.101811, 0
1562, 2865702434, -0.23932864, -0.44888768, -0.8604889, -0.027891302, 4.8966575, -5.607072, -8.911045, 0
1563, 2865719101, -0.2672866, -0.44083768, -0.8567994, -0.010580139, 3.7760806, -4.310227, -5.5901017, 0
1566, 2865769102, -0.35599068, -0.42684737, -0.8299864, 0.04681631, 2.166388, -2.9108446, 4.440466, 0
1567, 2865785769, -0.38520825, -0.42319745, -0.81745344, 0.06546207, 0.6942344, -0.50561225, 5.464549, 0
1569, 2865819103, -0.43583626, -0.41009882, -0.7956512, 0.093819, 0.6254787, 0.8451121, 3.8740234, 0
1570, 2865835770, -0.45802817, -0.40145168, -0.78593606, 0.106529444, 0.9966823, -0.9287086, 2.724598, 0
1571, 2865852437, -0.47821933, -0.39472085, -0.77486885, 0.12279033, 0.011439393, -2.967792, 2.692813, 0
1573, 2865885771, -0.51162726, -0.39111912, -0.7463052, 0.16819374, 1.9793292, -2.7683802, 2.5057735, 0
1574, 2865902438, -0.52859896, -0.3894063, -0.7294492, 0.19195603, 3.2570372, -2.7319608, 2.0274467, 0
1575, 2865919105, -0.5465752, -0.38680282, -0.7113287, 0.21365346, 2.4774716, -2.7470503, 0.81437397, 0
1577, 2865952439, -0.5819328, -0.38164315, -0.67182106, 0.25368565, 0.39619908, -6.7446036, 1.771656, 0
1578, 2865969106, -0.60016924, -0.37604642, -0.6497572, 0.27604136, -0.47550637, -7.69637, 2.3886118, 0
1581, 2866019107, -0.6473296, -0.34803674, -0.5838692, 0.34486052, 0.06610843, -6.9109383, 5.645957, 0
1582, 2866035774, -0.6642922, -0.3323167, -0.5614303, 0.36479402, 0.5019234, -5.674346, 7.078676, 0
1583, 2866052441, -0.6819533, -0.3142568, -0.53856516, 0.38226563, -0.39566487, -3.9906325, 6.6418343, 0
1585, 2866085775, -0.7128372, -0.27376342, -0.495379, 0.41414174, -0.93953806, -2.0947862, 7.6760597, 0
1586, 2866102442, -0.7254489, -0.2531991, -0.4749307, 0.42901307, -0.6307357, -0.9738835, 8.530727, 0
1588, 2866135776, -0.7475698, -0.20636751, -0.43840617, 0.45425668, 0.020239545, 1.2744313, 10.811834, 0
1589, 2866152443, -0.75715566, -0.17992888, -0.42021546, 0.46664473, -0.6901843, 2.781315, 11.383123, 0
1590, 2866169110, -0.76518804, -0.15414585, -0.40016946, 0.48019567, -0.13035633, 4.893185, 9.445787, 0
1592, 2866202444, -0.776526, -0.10785158, -0.35899812, 0.50645155, 1.1038724, 8.429488, 6.3836155, 0
1593, 2866219111, -0.78188324, -0.087634526, -0.3387735, 0.51595426, 1.5287356, 9.540004, 5.1283836, 0
1596, 2866269112, -0.8012033, -0.03444184, -0.2820985, 0.5265975, -1.5497555, 9.1998415, 1.2323046, 0
1597, 2866285779, -0.8076678, -0.021064078, -0.26342618, 0.5270985, -1.7549187, 8.025346, -0.637764, 0
1598, 2866302446, -0.81266016, -0.008520409, -0.24679719, 0.5278248, -2.5820673, 7.299503, -1.0553923, 0
1600, 2866335780, -0.81762296, 0.012364504, -0.21782139, 0.53281426, -3.0056462, 6.523248, -2.131969, 0
1601, 2866352447, -0.81808066, 0.02033142, -0.20513237, 0.53688794, -2.6808786, 7.1796603, -2.5592027, 0
1602, 2866369114, -0.81801206, 0.02775301, -0.19302805, 0.5411316, -2.5408993, 8.110619, -3.4893956, 0
1604, 2866402448, -0.81867117, 0.037884016, -0.17093292, 0.54692, -2.223919, 7.550424, -6.4215584, 0
1605, 2866419115, -0.8190204, 0.041496, -0.16322738, 0.54848677, -2.7154694, 6.911547, -7.170341, 0
1606, 2866435782, -0.8190599, 0.04381969, -0.1577121, 0.54985887, -2.6824663, 6.5168653, -7.352606, 0
1608, 2866469116, -0.8175586, 0.04396232, -0.15251505, 0.5535354, -2.5018399, 6.090314, -7.4911203, 0
1610, 2866502450, -0.8142753, 0.036193997, -0.15498357, 0.5582321, -3.1729178, 7.1457224, -9.063408, 0
1612, 2866535784, -0.8087014, 0.014092936, -0.16861483, 0.56335574, -2.5933685, 6.4597893, -10.647071, 0
1613, 2866552451, -0.8038549, -0.002303592, -0.18259321, 0.5661, -2.795678, 6.345913, -8.959949, 0
1614, 2866569118, -0.7974488, -0.020489173, -0.19839215, 0.5694676, -3.43157, 7.194524, -5.0395823, 0
1616, 2866602452, -0.78370255, -0.052325502, -0.21818297, 0.57919407, -2.1014304, 6.6216817, -0.29124928, 0
1617, 2866619119, -0.778277, -0.066047005, -0.22281083, 0.58333135, 0.25089195, 5.178561, -2.344181, 0
1619, 2866652453, -0.7718544, -0.08482363, -0.23919077, 0.58295, 0.89820266, 5.627423, -2.105082, 0
1620, 2866669120, -0.7710739, -0.0897903, -0.25074068, 0.5783677, -0.06930108, 4.949795, -1.9846096, 0
1621, 2866685787, -0.7710056, -0.092069656, -0.26355502, 0.57237184, -0.5485088, 5.316067, -0.7783842, 0
1623, 2866719121, -0.7715676, -0.089619964, -0.28648427, 0.5608707, -2.2058966, 5.509157, -0.12680626, 0
1624, 2866735788, -0.7736723, -0.08940896, -0.29398334, 0.5540833, -1.3578606, 6.37337, -1.1576815, 0
1625, 2866752455, -0.7770567, -0.08730724, -0.30256754, 0.5449867, -0.96573275, 8.685656, -2.2470794, 0
1627, 2866785789, -0.7854146, -0.07289356, -0.3258566, 0.5211769, -7.6436386, 14.076653, -3.1496873, 0
1628, 2866802456, -0.78855664, -0.06553386, -0.34131253, 0.5073329, -12.3454485, 16.320675, -7.9155407, 0
1629, 2866819123, -0.7873899, -0.06470636, -0.36435822, 0.49302197, -18.747936, 19.076887, -9.906249, 0
1631, 2866852457, -0.7604977, -0.08226038, -0.4378086, 0.47243777, -21.984205, 32.171524, 0.78541756, 0
1632, 2866869124, -0.74917394, -0.094543956, -0.46881285, 0.4582703, -37.369324, 20.065678, 19.989717, 0
1633, 2866885791, -0.744969, -0.14212382, -0.454704, 0.46697262, 80.53439, -1.932662, 49.66477, 0
1635, 2866919125, -0.73421437, -0.16047771, -0.4896991, 0.44200468, 5.180795, -6.8455462, -2.0032177, 0
1637, 2866952459, -0.67461026, -0.21434152, -0.5915748, 0.38599896, 0.90329945, -3.9506505, 1.4202538, 0
1639, 2866985793, -0.563154, -0.2957779, -0.70659494, 0.3099905, 3.851779, -8.512467, 16.338436, 0
1640, 2867002460, -0.5163423, -0.3298968, -0.7428097, 0.26979584, 5.439751, -7.904625, 24.238297, 0
1641, 2867019127, -0.48500323, -0.3543583, -0.76553404, 0.23055814, -3.2524335, -10.871982, 39.415367, 0
1643, 2867052461, -0.42076424, -0.39698038, -0.79009277, 0.2027678, -4.562644, -12.8372345, 10.869259, 0
1644, 2867069128, -0.37657914, -0.41053683, -0.81108433, 0.17828992, 10.3714485, -14.528816, 10.132555, 0
1646, 2867102462, -0.30771577, -0.43210828, -0.83645296, 0.13761151, 10.589103, -19.721167, -1.6193104, 0
1647, 2867119129, -0.2784915, -0.440582, -0.84523714, 0.11790345, 11.52076, -18.735378, -5.367431, 0
1648, 2867135796, -0.2541288, -0.44670108, -0.8522675, 0.097540125, 10.805052, -17.19951, -8.9119835, 0
1652, 2867202464, -0.19380508, -0.4584871, -0.86722434, 0.01217838, 3.7204285, -9.243421, -15.466796, 0
1655, 2867252465, -0.17822026, -0.45471227, -0.8717915, -0.038093694, 2.803729, -5.7616982, -16.259756, 0
1656, 2867269132, -0.18095046, -0.45040736, -0.87294024, -0.04860928, 2.326108, -5.4976144, -15.662191, 0
1658, 2867302466, -0.1938288, -0.4398314, -0.8751002, -0.056353655, 2.493313, -3.532825, -14.001329, 0
1659, 2867319133, -0.20271617, -0.43375373, -0.8762092, -0.054940484, 3.123398, -3.2120297, -12.979328, 0
1660, 2867335800, -0.21343906, -0.4274752, -0.8770198, -0.050420396, 4.3977284, -3.6852648, -12.482922, 0
1662, 2867369134, -0.24549407, -0.418992, -0.8737847, -0.025997898, 6.128926, -5.778322, -11.035846, 0
1663, 2867385801, -0.26879764, -0.41629907, -0.86855966, -0.006642224, 7.368183, -6.032857, -8.920708, 0
1664, 2867402468, -0.29714793, -0.413791, -0.8603834, 0.014758879, 6.9100943, -6.094414, -6.6183844, 0
1666, 2867435802, -0.35928866, -0.40999228, -0.83624643, 0.059222016, 4.766437, -6.996653, -3.2359219, 0
1667, 2867452469, -0.39090893, -0.40889472, -0.8203084, 0.084181495, 3.5833123, -8.486045, -1.7832966, 0
1670, 2867502470, -0.48523462, -0.3999197, -0.75790894, 0.17373185, 2.4701154, -5.764685, 2.208827, 0
1671, 2867519137, -0.5147127, -0.39150944, -0.7359437, 0.20043817, 1.3946002, -4.251918, 2.8214169, 0
1673, 2867552471, -0.5715457, -0.36750644, -0.692906, 0.24114913, 2.483811, -6.973286, 7.166176, 0
1674, 2867569138, -0.60076123, -0.3527779, -0.6682051, 0.26102218, -1.0894388, -7.6924167, 7.638756, 0
1675, 2867585805, -0.62658787, -0.3397133, -0.6416962, 0.28320572, -2.7400439, -6.3667717, 6.7944565, 0
1677, 2867619139, -0.66916865, -0.30287224, -0.59291995, 0.3300373, -1.1483989, -4.0108147, 9.417835, 0
1678, 2867635806, -0.6868564, -0.28017756, -0.57042855, 0.35261485, 0.45991814, -1.7955359, 9.520664, 0
1679, 2867652473, -0.7024896, -0.25696427, -0.548642, 0.37345248, 1.4962457, -0.71451885, 10.149717, 0
1681, 2867685807, -0.7300044, -0.21647395, -0.50151, 0.41075236, 0.9276342, 0.80055857, 11.43367, 0
