sep=,
DeviceTag:,Xsens_DOT_3,,,,,,,,,,,,,,,,,
FirmwareVersion:,3.0.0,,,,,,,,,,,,,,,,,
AppVersion:,2023.6.1,,,,,,,,,,,,,,,,,
SyncStatus:,Synced,,,,,,,,,,,,,,,,,
OutputRate:,60Hz,,,,,,,,,,,,,,,,,
FilterProfile:,General,,,,,,,,,,,,,,,,,
Measurement Mode:,Sensor fusion Mode - Extended (Quaternion),,,,,,,,,,,,,,,,,
StartTime:,2025-05-05 11:54:06.686 +0200,,,,,,,,,,,,,,,,,
 2025,,,,,,,,,,,,,,,,,,,

PacketCounter,SampleTimeFine,Quat_W,Quat_X,Quat_Y,Quat_Z,FreeAcc_X,FreeAcc_Y,FreeAcc_Z,Status
1, 2839685247, -0.76952416, -0.030734621, 0.5568503, -0.31115377, 0.1251364, -0.02870711, -0.0050783157, 0
2, 2839701914, -0.76954037, -0.03071078, 0.5568299, -0.31115246, 0.16943534, -0.021504462, 0.045310974, 0
3, 2839718581, -0.76953435, -0.030643374, 0.55684996, -0.31113815, 0.14104383, 0.031535443, 0.053474426, 0
4, 2839735248, -0.76954937, -0.030550115, 0.55686754, -0.31107846, 0.10674398, 0.010391788, 0.015193939, 0
5, 2839751915, -0.7695443, -0.030478813, 0.5568934, -0.31105155, 0.022965062, -0.026285402, -0.003083229, 0
6, 2839768582, -0.76949024, -0.03046979, 0.55694705, -0.3110907, 0.01694094, -0.04189013, -0.07186222, 0
7, 2839785249, -0.76942253, -0.030489892, 0.5569833, -0.31119132, 0.061919346, -0.021965792, -0.1189909, 0
8, 2839801916, -0.7694231, -0.030563332, 0.5569072, -0.31131876, 0.06080938, -0.039935227, -0.037280083, 0
9, 2839818583, -0.7693828, -0.03075216, 0.5568767, -0.31145447, 0.091987655, -0.07721596, 0.06180668, 0
10, 2839835250, -0.7693362, -0.030914105, 0.5568912, -0.31152743, 0.10378243, -0.0032598805, 0.0647459, 0
11, 2839851917, -0.76927674, -0.030996807, 0.556951, -0.31155935, 0.09176682, 0.089180216, 0.05553341, 0
12, 2839868584, -0.76924914, -0.03098759, 0.5569682, -0.31159723, 0.092893116, 0.07659687, -0.010769844, 0
13, 2839885251, -0.76922184, -0.030948251, 0.55699974, -0.3116122, 0.04497349, -0.0052539515, 0.0031137466, 0
14, 2839901918, -0.769206, -0.030939579, 0.55702937, -0.31159934, 0.045733433, -0.015479166, -0.032440186, 0
15, 2839918585, -0.7691899, -0.030983783, 0.5570634, -0.31157357, 0.0560195, -0.0030265888, -0.03785515, 0
16, 2839935252, -0.7692256, -0.031012565, 0.55702275, -0.3115553, 0.07187595, 0.03116469, 0.017681122, 0
17, 2839951919, -0.76927155, -0.03099043, 0.5570216, -0.31144613, 0.08993044, 0.027790371, 0.045165062, 0
18, 2839968586, -0.76924217, -0.031024441, 0.55708057, -0.31141007, 0.06798057, -0.008808645, 0.041765213, 0
19, 2839985253, -0.7692014, -0.031073727, 0.5571668, -0.31135136, 0.06649779, 0.0075334483, -0.038098335, 0
20, 2840001920, -0.76922554, -0.03110078, 0.5571624, -0.31129712, 0.052770067, 0.036472622, -0.06801891, 0
21, 2840018587, -0.7692617, -0.031143762, 0.55711585, -0.3112865, 0.0587021, 0.014553655, -0.04711914, 0
22, 2840035254, -0.7693337, -0.031124152, 0.55708694, -0.31116265, 0.10835908, 0.037521176, -0.011379242, 0
23, 2840051921, -0.7693476, -0.031195201, 0.5570746, -0.31114307, 0.10016331, 0.059469253, 0.0721035, 0
24, 2840068588, -0.76938933, -0.03118395, 0.5570602, -0.31106678, 0.12449761, 0.075291514, 0.1028862, 0
25, 2840085255, -0.7694022, -0.031210281, 0.5570282, -0.3110897, 0.13454318, 0.0458548, 0.08768463, 0
26, 2840101922, -0.7694186, -0.031178318, 0.5569981, -0.31110615, 0.07420049, -0.004478194, 0.031716347, 0
27, 2840118589, -0.76937836, -0.0311957, 0.55700165, -0.3111975, 0.048627477, 0.015101541, -0.03956604, 0
28, 2840135256, -0.76935315, -0.03121581, 0.55697, -0.31131452, 0.06940256, 0.04170249, -0.074822426, 0
29, 2840151923, -0.7693527, -0.031225413, 0.55690736, -0.31142658, 0.10678451, 0.049716357, -0.03550434, 0
30, 2840168590, -0.7693415, -0.031261735, 0.5568593, -0.3115365, 0.11878328, 0.058490437, 0.01837635, 0
31, 2840185257, -0.76930505, -0.031324945, 0.55684584, -0.31164432, 0.0941526, 0.07558973, 0.06845951, 0
32, 2840201924, -0.7692629, -0.03136321, 0.556863, -0.31171402, 0.06517816, 0.058275305, 0.024841309, 0
33, 2840218591, -0.7692056, -0.031443626, 0.556842, -0.3118845, 0.05267217, 0.02312113, -0.013236046, 0
34, 2840235258, -0.76920223, -0.03148751, 0.55674356, -0.31206423, 0.0626404, 0.041776527, -0.02090168, 0
35, 2840251925, -0.7692226, -0.03151743, 0.55662864, -0.31221586, 0.12024729, 0.06703198, 0.023669243, 0
36, 2840268592, -0.769198, -0.031574853, 0.5565577, -0.31239742, 0.15419354, 0.0559943, 0.055138588, 0
37, 2840285259, -0.76918435, -0.031569406, 0.55652803, -0.31248397, 0.12383646, 0.07519987, 0.04635811, 0
38, 2840301926, -0.76915723, -0.03160026, 0.5565092, -0.31258136, 0.11083203, 0.08256328, -0.037032127, 0
39, 2840318593, -0.76914895, -0.031625755, 0.5564693, -0.31266978, 0.08708333, 0.07620462, -0.06963539, 0
40, 2840335260, -0.7691107, -0.0317052, 0.55642164, -0.3128407, 0.058012787, 0.07634342, -0.04704094, 0
41, 2840351927, -0.76911116, -0.031699084, 0.5564012, -0.3128767, 0.08678382, 0.052888587, -0.0023708344, 0
42, 2840368594, -0.7691414, -0.031731486, 0.55624765, -0.31307214, 0.18151979, 0.043125764, 0.028951645, 0
43, 2840385261, -0.7691357, -0.031692654, 0.55614805, -0.3132674, 0.19164492, 0.035213515, 0.13386536, 0
44, 2840401928, -0.76908284, -0.03157585, 0.55615693, -0.31339288, 0.13010556, 0.03481298, 0.07510567, 0
45, 2840418595, -0.7690037, -0.03148032, 0.5562687, -0.313398, 0.06598735, 0.033719767, -0.08678055, 0
47, 2840451929, -0.7689721, -0.031341553, 0.5563909, -0.31327277, 0.06844235, 0.040215623, -0.15160942, 0
48, 2840468596, -0.76903695, -0.031252697, 0.55639493, -0.31311512, 0.113710426, 0.049463082, -0.06761837, 0
50, 2840501930, -0.76914877, -0.031117335, 0.55641675, -0.31281483, 0.12940417, 0.03327404, 0.08341217, 0
51, 2840518597, -0.7691814, -0.031012185, 0.5564623, -0.31266427, 0.11785972, 0.049709227, 0.0723238, 0
52, 2840535264, -0.76915085, -0.03092932, 0.5565735, -0.3125496, 0.08558669, 0.03835292, 0.043632507, 0
54, 2840568598, -0.76910996, -0.030757941, 0.5567214, -0.31240392, 0.1021329, -0.05664064, -0.02595234, 0
55, 2840585265, -0.7690894, -0.03072881, 0.556716, -0.31246692, 0.12599336, -0.031763874, -0.0038251877, 0
56, 2840601932, -0.7690386, -0.030750886, 0.5566922, -0.3126322, 0.10230948, -0.019913161, 0.013540268, 0
58, 2840635266, -0.7688782, -0.030824915, 0.5568351, -0.31276459, 0.04361766, 0.027382294, -0.04745388, 0
60, 2840668600, -0.7689486, -0.030809626, 0.55678254, -0.3126865, 0.06254876, 0.048938945, 0.013119698, 0
63, 2840718601, -0.76888597, -0.030792564, 0.556776, -0.312854, 0.074646175, 0.051899597, 0.028966904, 0
64, 2840735268, -0.7688922, -0.030697972, 0.5567967, -0.31281096, 0.05344329, -0.03163686, 0.02999878, 0
66, 2840768602, -0.76884776, -0.030659162, 0.55690706, -0.3127279, 0.0459793, -0.01911058, -0.06502628, 0
71, 2840851937, -0.768939, -0.030778624, 0.5564665, -0.31327543, 0.08609361, 0.002421707, 0.009789467, 0
77, 2840951939, -0.76846904, -0.031465396, 0.5562045, -0.31482184, 0.04437626, 0.06845503, -0.034238815, 0
79, 2840985273, -0.76832294, -0.03162001, 0.5561624, -0.31523678, 0.047834903, 0.031612948, -0.09225559, 0
81, 2841018607, -0.7681815, -0.031778224, 0.55610645, -0.3156646, 0.07962202, 0.10407791, 0.081129074, 0
82, 2841035274, -0.76809716, -0.03182289, 0.5561072, -0.31586352, 0.12183602, 0.0852194, 0.051691055, 0
83, 2841051941, -0.76798564, -0.031756796, 0.55617774, -0.3160175, 0.108339414, 0.14416714, 0.034553528, 0
85, 2841085275, -0.76781666, -0.03176529, 0.5561685, -0.31644326, 0.060057037, 0.03697491, -0.019490242, 0
86, 2841101942, -0.7677238, -0.031804048, 0.55619985, -0.3166092, 0.02448808, 0.035596393, -0.019529343, 0
87, 2841118609, -0.7676523, -0.031829417, 0.55618054, -0.31681418, 0.07917142, 0.038644943, -0.063591, 0
89, 2841151943, -0.76752764, -0.032054372, 0.5558456, -0.31767973, 0.14417256, 0.05984805, 0.053441048, 0
90, 2841168610, -0.7673619, -0.03227956, 0.5557221, -0.31827295, 0.14717881, 0.05630973, 0.099824905, 0
91, 2841185277, -0.7670721, -0.032595985, 0.5556723, -0.31902534, 0.11567734, 0.0934501, 0.03195381, 0
93, 2841218611, -0.76655895, -0.033332378, 0.55521864, -0.32096678, 0.18270351, 0.12686227, -0.03312111, 0
94, 2841235278, -0.7662646, -0.034036748, 0.55475295, -0.32239735, 0.17079698, 0.06190666, 0.11024284, 0
95, 2841251945, -0.76582885, -0.034919783, 0.55428946, -0.32413167, 0.19511019, 0.01655204, 0.21711445, 0
97, 2841285279, -0.7641343, -0.03661322, 0.5539763, -0.3284505, 0.18193552, 0.15907557, 0.11419678, 0
100, 2841335280, -0.76157963, -0.03777709, 0.55433637, -0.33360398, -0.025059378, 0.22125699, -0.27543163, 0
101, 2841351947, -0.76110864, -0.038254775, 0.554354, -0.3345936, -0.1077699, 0.10082496, -0.2154808, 0
102, 2841368614, -0.76078457, -0.03883736, 0.55431515, -0.3353269, -0.08159653, -0.033921275, -0.15770817, 0
104, 2841401948, -0.760431, -0.039571248, 0.5541485, -0.33631724, 0.018108573, -0.03746837, 0.056520462, 0
105, 2841418615, -0.7602168, -0.039734475, 0.554107, -0.3368505, 0.10025629, 0.0074434844, 0.13500118, 0
106, 2841435282, -0.7599733, -0.039795555, 0.5541442, -0.337331, 0.091106564, 0.0030028408, 0.15457153, 0
108, 2841468616, -0.7596613, -0.039658263, 0.55405354, -0.33819747, -0.104137816, -0.13745102, -0.09235287, 0
109, 2841485283, -0.7596685, -0.03978227, 0.5537996, -0.3385826, -0.21857913, -0.22455788, -0.012629509, 0
110, 2841501950, -0.75963914, -0.040036313, 0.5536724, -0.33882648, -0.20300609, -0.1953596, 0.04122734, 0
112, 2841535284, -0.7594903, -0.040232375, 0.5534838, -0.3394444, 0.046594404, -0.056365553, 0.18398857, 0
114, 2841568618, -0.7582127, -0.040081166, 0.55447215, -0.34070346, 0.053918477, -0.09946053, 0.21730995, 0
116, 2841601952, -0.757185, -0.03907863, 0.5559142, -0.34075534, -0.19652422, 0.5655832, -0.38817215, 0
118, 2841635286, -0.75848174, -0.0362771, 0.5550178, -0.33964103, -0.051338244, 0.47123566, -0.09739971, 0
120, 2841668620, -0.7595242, -0.033855475, 0.5542371, -0.33883458, 0.21596493, -0.2909675, 0.19354153, 0
121, 2841685287, -0.7591886, -0.033058733, 0.55472016, -0.3388752, 0.15163969, -0.0740399, 0.33621025, 0
122, 2841701954, -0.7587113, -0.032067582, 0.55530024, -0.3390892, -0.0038055317, 0.13338135, 0.31307983, 0
124, 2841735288, -0.7585108, -0.031281017, 0.55772144, -0.33561993, 0.63671553, -0.7050495, 0.56403637, 0
125, 2841751955, -0.75848484, -0.031390347, 0.5588469, -0.33379143, 0.14627269, 0.055091586, -0.87686443, 0
127, 2841785289, -0.7601273, -0.030609787, 0.55828744, -0.33105248, 0.35814866, -0.038922545, -0.1776104, 0
128, 2841801956, -0.76044244, -0.030694224, 0.5583979, -0.33013308, 0.17941783, -0.26418424, -0.023038864, 0
131, 2841851957, -0.7608235, -0.0316049, 0.55800533, -0.3298333, 0.15402189, 0.051701732, 0.739851, 0
132, 2841868624, -0.7609534, -0.031086273, 0.55781937, -0.32989728, 0.13157001, -0.30076176, 0.35788345, 0
133, 2841885291, -0.7608554, -0.0305999, 0.5575904, -0.33055538, 0.11791739, -0.9616588, 0.18580818, 0
135, 2841918625, -0.75906384, -0.03162393, 0.55911565, -0.3319981, 0.08628852, -0.94705355, -0.17907429, 0
136, 2841935292, -0.7578769, -0.032107525, 0.5605372, -0.3322665, 0.030779522, -0.0038525253, -0.35691833, 0
137, 2841951959, -0.75712883, -0.0321341, 0.5612987, -0.3326833, 0.073478095, 0.87968296, -0.2286644, 0
139, 2841985293, -0.75709, -0.029679894, 0.56032825, -0.33462995, 0.22757106, 0.2122617, 0.4046135, 0
140, 2842001960, -0.75723726, -0.027804747, 0.559645, -0.3355997, 0.28851053, 0.27275628, 0.32495785, 0
141, 2842018627, -0.7571234, -0.026564136, 0.5591679, -0.3367502, -0.03251577, -0.615296, 0.37293053, 0
143, 2842051961, -0.75627947, -0.025539294, 0.5606955, -0.33618528, 0.452755, -0.1836659, -0.5178604, 0
145, 2842085295, -0.75553226, -0.027318515, 0.56149507, -0.33639106, 0.28699824, 1.1969874, -0.78956413, 0
147, 2842118629, -0.7567315, -0.027534753, 0.56006515, -0.3360619, -0.16417429, 0.32063398, -0.07032204, 0
148, 2842135296, -0.75719404, -0.02745223, 0.5594676, -0.3360217, 0.027402688, -0.0040060785, 0.07098007, 0
149, 2842151963, -0.75757277, -0.027309045, 0.5590348, -0.33590013, 0.18783581, 0.044630118, -0.01567936, 0
151, 2842185297, -0.7592068, -0.025080495, 0.5579059, -0.33425725, 0.26323792, 0.19491285, -0.0075597763, 0
152, 2842201964, -0.76025075, -0.023430265, 0.5567584, -0.33391774, 0.3350951, -0.4102753, 0.29724312, 0
154, 2842235298, -0.7603093, -0.022423983, 0.55609363, -0.3349594, 0.5435397, -0.5958681, 0.21141434, 0
155, 2842251965, -0.759414, -0.023291998, 0.5561944, -0.33675867, 0.69593215, -0.25678438, 0.37452888, 0
156, 2842268632, -0.75796086, -0.024606839, 0.55666447, -0.33915442, 0.45105273, 0.29656315, 0.3141327, 0
158, 2842301966, -0.755608, -0.026233785, 0.5565255, -0.34446862, 0.22599395, 0.7393383, -0.5625839, 0
159, 2842318633, -0.75535285, -0.026881449, 0.5557231, -0.34626895, 0.31002185, 0.4338178, -0.46336746, 0
160, 2842335300, -0.75567365, -0.026817016, 0.55429083, -0.3478661, 0.5857957, 0.8690445, 0.20478058, 0
162, 2842368634, -0.75694287, -0.025885418, 0.5515489, -0.34953144, 0.52880484, 0.42383164, -0.05849552, 0
164, 2842401968, -0.75846803, -0.025390595, 0.54852676, -0.351014, 0.2778561, -0.52915645, 0.04899788, 0
166, 2842435302, -0.7589266, -0.026991487, 0.5462689, -0.35341662, 0.3368984, -0.6131199, 0.2564211, 0
167, 2842451969, -0.7586141, -0.028349675, 0.54568166, -0.35488516, 0.56808233, -0.09812258, 0.37222004, 0
168, 2842468636, -0.7583376, -0.02933333, 0.54528034, -0.35601148, 0.55141497, 0.2780429, 0.38107014, 0
170, 2842501970, -0.75926316, -0.028068118, 0.5435343, -0.35680977, 0.5063534, 0.08810724, 0.22249413, 0
171, 2842518637, -0.7598089, -0.027664088, 0.5424009, -0.35740405, 0.5647497, -0.8410151, 0.09456825, 0
174, 2842568638, -0.7600417, -0.032716945, 0.5385152, -0.36232394, 0.9405313, -1.0586256, 0.60917187, 0
175, 2842585305, -0.75940347, -0.03598485, 0.5375199, -0.36482185, 0.79823047, -0.8597372, 0.37764168, 0
176, 2842601972, -0.758715, -0.039123133, 0.53663415, -0.36722732, 0.61832935, -0.32438195, -0.018530846, 0
178, 2842635306, -0.75758106, -0.044207945, 0.5342048, -0.37249553, 0.627349, 0.40801618, -0.22985268, 0
179, 2842651973, -0.75714856, -0.04656689, 0.5325981, -0.37537718, 0.6546516, -0.017921213, 0.138731, 0
181, 2842685307, -0.7559788, -0.053215206, 0.5299393, -0.3805777, 0.69346863, -1.0108472, 0.31258965, 0
182, 2842701974, -0.7551352, -0.05793724, 0.52904636, -0.38279873, 0.47092706, -1.1236953, 0.13196278, 0
183, 2842718641, -0.75434536, -0.06261321, 0.52816814, -0.3848272, 0.39497107, -0.20630851, -0.23171234, 0
185, 2842751975, -0.7533583, -0.069839746, 0.52551526, -0.38912517, 0.42005104, 0.26919457, -0.13193321, 0
186, 2842768642, -0.7529196, -0.07339091, 0.5242566, -0.3910141, 0.5293055, -0.22746193, 0.051210403, 0
189, 2842818643, -0.7534729, -0.08166704, 0.518332, -0.39617145, 0.25910425, -0.15961021, 0.5769386, 0
190, 2842835310, -0.75345266, -0.084167704, 0.5161873, -0.39848036, 0.06637977, -0.30266795, 0.30687904, 0
191, 2842851977, -0.7532163, -0.08662826, 0.5141733, -0.40099564, -0.27771083, -0.45329702, 0.027666092, 0
193, 2842885311, -0.7526445, -0.091852196, 0.51058453, -0.40546772, -0.7365288, -0.48609462, -0.5223236, 0
194, 2842901978, -0.7526763, -0.09515804, 0.50888985, -0.4067747, -1.0785697, 0.023558974, -0.43100834, 0
195, 2842918645, -0.75318366, -0.099295735, 0.5066141, -0.4076863, -0.974607, 0.16038285, -0.43595028, 0
197, 2842951979, -0.75422966, -0.10811409, 0.5011688, -0.41023144, -0.88394076, 0.26740012, -0.35268116, 0
198, 2842968646, -0.75461674, -0.11144756, 0.4993808, -0.410808, -1.3805724, 1.0011011, -0.39999104, 0
199, 2842985313, -0.7551166, -0.114772305, 0.49695355, -0.4119156, -1.6412262, 1.32123, -0.75259686, 0
201, 2843018647, -0.75612354, -0.118276276, 0.4924078, -0.41452813, -1.5151823, 0.94731945, -0.70942116, 0
203, 2843051981, -0.75760555, -0.12210467, 0.4896871, -0.41393462, -0.9826282, 1.7170625, -0.41394615, 0
205, 2843085315, -0.75893116, -0.122701705, 0.4890435, -0.41208673, -0.51706237, 1.2252825, -0.10776138, 0
206, 2843101982, -0.7591016, -0.121517, 0.4893838, -0.41171938, -0.41321152, 0.72856426, -0.0022182465, 0
208, 2843135316, -0.7579203, -0.11693205, 0.49238876, -0.41164076, -0.43349087, 0.21120203, -0.3848858, 0
209, 2843151983, -0.7562174, -0.11434527, 0.49571657, -0.411505, -0.52919775, 0.32664502, -1.3105631, 0
210, 2843168650, -0.75411874, -0.11176071, 0.49892235, -0.4121917, -0.7813137, 0.06845977, -2.0319285, 0
212, 2843201984, -0.75030553, -0.10551339, 0.50264704, -0.4162522, -0.8156126, -0.5123688, -1.6839657, 0
213, 2843218651, -0.7496492, -0.10180194, 0.50271136, -0.418276, -0.28412476, -0.74797183, 0.04055977, 0
214, 2843235318, -0.7517425, -0.09700964, 0.5002882, -0.4185633, 1.4887813, -0.5612872, 3.927577, 0
216, 2843268652, -0.754763, -0.09876899, 0.4962811, -0.41748506, 2.3814805, -0.96623397, 2.7064219, 0
218, 2843301986, -0.7497065, -0.10375749, 0.49398515, -0.42797685, 1.1194521, 1.2634254, 0.98704624, 0
220, 2843335320, -0.740251, -0.10614834, 0.49605402, -0.44125086, -0.46870422, 0.33466575, -1.0757637, 0
221, 2843351987, -0.7361069, -0.10773714, 0.49742046, -0.44623232, -0.9130748, 0.28908867, -1.7609863, 0
222, 2843368654, -0.7327846, -0.10913931, 0.49831367, -0.45034415, -1.2641565, 0.75842804, -2.0952673, 0
224, 2843401988, -0.72919285, -0.11105039, 0.49819073, -0.45580974, -0.72433037, 0.84510666, -0.7305527, 0
225, 2843418655, -0.72828597, -0.110998124, 0.498061, -0.4574116, -0.33633336, 0.792125, -0.052660942, 0
226, 2843435322, -0.7276598, -0.110083245, 0.49822193, -0.45845276, 0.06375081, 0.5600972, 0.2715416, 0
228, 2843468656, -0.72726977, -0.10769217, 0.5002682, -0.45740992, 0.3046553, 0.26883584, 0.46245003, 0
229, 2843485323, -0.72718626, -0.10714831, 0.5022293, -0.4555176, -0.067954645, 0.4226816, 0.14248371, 0
230, 2843501990, -0.72708726, -0.1065535, 0.504377, -0.4534371, -0.43799868, 0.7474199, -0.23505688, 0
232, 2843535324, -0.7280863, -0.105025545, 0.5069572, -0.4492944, -0.22308694, 0.5416586, 0.09163761, 0
233, 2843551991, -0.7287075, -0.10393307, 0.50792676, -0.44744253, -0.104247786, 0.157762, 0.27506065, 0
235, 2843585325, -0.7297557, -0.10193811, 0.5103803, -0.44338274, 0.043110732, -0.22899155, 0.2208271, 0
236, 2843601992, -0.7300697, -0.101409815, 0.51175845, -0.44139373, -0.0417929, -0.334114, -0.07738972, 0
237, 2843618659, -0.7302089, -0.101425454, 0.5129789, -0.43974033, -0.13257, -0.48630592, -0.2903576, 0
239, 2843651993, -0.72995883, -0.10264182, 0.5148225, -0.43771404, -0.16770624, -0.37722716, -0.18168736, 0
240, 2843668660, -0.7295194, -0.10377924, 0.5154827, -0.43740124, -0.34587646, -0.25426126, 0.0672884, 0
241, 2843685327, -0.7290625, -0.10482417, 0.5158604, -0.4374689, -0.5015765, -0.034876857, 0.29059792, 0
243, 2843718661, -0.72860754, -0.10560047, 0.51638204, -0.43742448, -0.4086537, 0.57796377, 0.22174835, 0
245, 2843751995, -0.7283826, -0.10548251, 0.5159965, -0.4382817, 0.053141546, -0.21514444, 0.18280506, 0
247, 2843785329, -0.7268638, -0.10603479, 0.51685804, -0.43965283, -0.24511549, -0.16668615, -0.28341007, 0
248, 2843801996, -0.72595835, -0.10633537, 0.51742274, -0.44041115, -0.40162462, 0.08951518, -0.24336338, 0
249, 2843818663, -0.7253996, -0.106094, 0.51778597, -0.44096297, -0.35142183, 0.38123685, -0.15795898, 0
251, 2843851997, -0.7252872, -0.104288876, 0.51839477, -0.44086355, -0.09708688, 0.18828289, 0.056246758, 0
252, 2843868664, -0.7254176, -0.10334249, 0.5188805, -0.44029933, -0.08211285, 0.02973879, -0.012957573, 0
253, 2843885331, -0.72553986, -0.10260004, 0.5194322, -0.43962073, -0.105651446, -0.0025030726, -0.088562965, 0
255, 2843918665, -0.72607845, -0.10081002, 0.51989526, -0.4385972, -0.11381995, 0.07634708, 0.19805813, 0
256, 2843935332, -0.7265567, -0.09931472, 0.5202057, -0.4377772, -0.22049241, 0.2267613, 0.14537525, 0
257, 2843951999, -0.72723955, -0.097507596, 0.5205313, -0.43666148, -0.20879194, 0.21028352, -0.08868599, 0
260, 2844002000, -0.73072743, -0.09199333, 0.5206687, -0.43184468, -0.46996367, 0.20245983, -0.21579742, 0
262, 2844035334, -0.7342392, -0.0862698, 0.52021307, -0.4275977, -0.039569393, 0.42172262, 0.3306408, 0
263, 2844052001, -0.73603284, -0.082358405, 0.52019256, -0.42530394, 0.11255844, 0.41921192, 0.536294, 0
264, 2844068668, -0.73794, -0.078392975, 0.5199784, -0.4230044, 0.12664646, 0.09096209, 0.5105324, 0
266, 2844102002, -0.7418126, -0.06979075, 0.5202195, -0.41740394, 0.5541655, 0.019592922, -0.40678406, 0
267, 2844118669, -0.7437843, -0.065490976, 0.52024955, -0.4145447, 1.0774524, -0.13702889, -0.4534588, 0
268, 2844135336, -0.74564326, -0.061622385, 0.519768, -0.4123971, 1.534756, -0.49561113, -0.11444569, 0
270, 2844168670, -0.7475579, -0.055881, 0.51834464, -0.41153908, 1.3697271, -1.605592, 0.7028303, 0
271, 2844185337, -0.74733984, -0.053814005, 0.51831394, -0.4122488, 1.3671541, -1.5649816, 0.61399937, 0
272, 2844202004, -0.7465501, -0.051553674, 0.5187976, -0.4133588, 1.4179372, -1.1123147, 0.2735691, 0
275, 2844252005, -0.742987, -0.04989197, 0.5190607, -0.4196049, 0.8934734, -0.6728017, -1.2265949, 0
276, 2844268672, -0.7420764, -0.051340275, 0.51876146, -0.4214077, 1.0724452, -1.2519454, -1.0858669, 0
278, 2844302006, -0.7406196, -0.058374256, 0.5179617, -0.42403054, -0.54093665, -0.80583584, 0.13871002, 0
279, 2844318673, -0.7397511, -0.06200727, 0.5177556, -0.42528075, -0.8024674, -0.10021192, 0.71010303, 0
280, 2844335340, -0.7393011, -0.06425217, 0.5172816, -0.4263057, -0.49755862, 1.1628329, 0.55912113, 0
282, 2844368674, -0.73953277, -0.06552486, 0.51603127, -0.4272246, -0.08317096, 0.6920368, 0.13628006, 0
283, 2844385341, -0.7395252, -0.06597463, 0.5163389, -0.42679635, 0.093207136, 0.3186038, -0.452363, 0
284, 2844402008, -0.7393559, -0.066790596, 0.5166358, -0.42660338, 0.083613515, -0.30298457, -0.45713615, 0
286, 2844435342, -0.7381027, -0.069406554, 0.51725125, -0.42760906, 0.119807415, -0.6303661, -0.14316368, 0
287, 2844452009, -0.7373677, -0.07119048, 0.5171305, -0.42872822, 0.020714287, -0.048005164, 0.18496323, 0
290, 2844502010, -0.7357008, -0.07485601, 0.51607025, -0.4322309, -0.059874203, 0.56957024, 0.1422863, 0
291, 2844518677, -0.735129, -0.07584976, 0.5161212, -0.4329689, -0.1470067, 0.20285678, -0.23775005, 0
293, 2844552011, -0.7340699, -0.07837656, 0.51615804, -0.43427014, -0.21744539, -0.16664916, -0.35881042, 0
294, 2844568678, -0.73363596, -0.07977165, 0.51607376, -0.43484923, -0.17089309, 0.043312535, -0.21783161, 0
295, 2844585345, -0.7332621, -0.08110267, 0.5158318, -0.43551975, -0.09416556, 0.23183848, -0.016875267, 0
297, 2844618679, -0.73948514, -0.07873697, 0.52069604, -0.4193436, 15.121374, -12.848425, -4.4538956, 1024
298, 2844635346, -0.7321656, -0.081609994, 0.5195618, -0.43282765, -3.9993937, 15.783839, -1.1308079, 0
299, 2844652013, -0.7283333, -0.09155076, 0.52301365, -0.43314785, -0.3639144, -6.129659, -4.182382, 0
301, 2844685347, -0.7212112, -0.09602479, 0.5364521, -0.4276258, 0.77320284, 1.7077038, 1.7043886, 0
302, 2844702014, -0.72652787, -0.09081886, 0.5287021, -0.4294114, -0.004864983, 3.2535737, 1.8876028, 0
303, 2844718681, -0.72473526, -0.09382063, 0.532179, -0.42749634, -0.11857049, -0.06722838, 0.5343485, 0
305, 2844752015, -0.7254416, -0.09992516, 0.5310958, -0.42626017, -0.4617514, -0.4993618, -0.35774422, 0
306, 2844768682, -0.7255083, -0.10250726, 0.53093046, -0.42573947, -0.77223635, 0.86465675, 0.1043272, 0
307, 2844785349, -0.7260635, -0.10275195, 0.5304914, -0.42528084, -0.38399616, 0.869397, 0.14343166, 0
309, 2844818683, -0.72792107, -0.103143856, 0.5268875, -0.42648917, -0.15431213, 0.19131902, 0.5523367, 0
310, 2844835350, -0.7293612, -0.1022089, 0.5238304, -0.4280166, 0.061669014, -0.13378964, 0.589818, 0
311, 2844852017, -0.73014146, -0.10163239, 0.52250504, -0.42844337, -0.05468915, -0.24280329, 0.46658802, 0
313, 2844885351, -0.7303702, -0.10146568, 0.5225487, -0.4280398, -0.18429314, 0.027267743, -0.15284348, 0
314, 2844902018, -0.73053443, -0.101085156, 0.52237236, -0.42806476, -0.10733718, 0.12778616, -0.18734837, 0
317, 2844952019, -0.7305504, -0.100321695, 0.5220912, -0.42855954, -0.07718483, 0.1575833, -0.05833721, 0
318, 2844968686, -0.73053616, -0.100425884, 0.5221805, -0.42845076, -0.050988223, 0.18190359, -0.05677986, 0
320, 2845002020, -0.7306157, -0.10045364, 0.5222317, -0.42824614, 0.03389574, 0.03406488, 0.045986176, 0
321, 2845018687, -0.7306123, -0.100403175, 0.5221962, -0.42830724, 0.048874684, 0.057128564, 0.033218384, 0
322, 2845035354, -0.7304758, -0.10036522, 0.52214295, -0.428614, 0.12689993, 0.08702353, 0.112709045, 0
324, 2845068688, -0.7299192, -0.10034181, 0.5222659, -0.4294167, 0.11916504, 0.04139158, 0.14385986, 0
325, 2845085355, -0.72953975, -0.100497946, 0.52262783, -0.4295847, 0.033574775, 0.06473036, -0.112586975, 0
326, 2845102022, -0.7292534, -0.10062952, 0.5229594, -0.42963693, -0.10167396, 0.10572719, -0.23701, 0
328, 2845135356, -0.72921926, -0.10033805, 0.52324486, -0.42941532, -0.110864215, 0.1189913, -0.12654305, 0
329, 2845152023, -0.7293587, -0.10013613, 0.5233476, -0.4291001, -0.01416938, 0.07675419, -0.012130737, 0
332, 2845202024, -0.7294767, -0.10001337, 0.5240229, -0.42810303, 0.08695861, -0.070127234, 0.026215553, 0
333, 2845218691, -0.7294792, -0.100199714, 0.52421886, -0.4278152, 0.0612953, 0.022243982, 0.058998108, 0
334, 2845235358, -0.7294899, -0.10033436, 0.5244035, -0.42753878, 0.05006914, 0.08941898, 0.054825783, 0
336, 2845268692, -0.72958225, -0.10030836, 0.52455616, -0.42720008, 0.1130305, -0.0059309863, 0.006334305, 0
337, 2845285359, -0.729561, -0.10035597, 0.52464366, -0.42711785, 0.076516084, -0.06716504, 0.024946213, 0
338, 2845302026, -0.7294842, -0.10052477, 0.5248666, -0.4269355, 0.09334795, 0.034209244, -0.050045967, 0
340, 2845335360, -0.7294584, -0.100796565, 0.5251152, -0.42660934, 0.11312527, 0.09887761, 0.0044145584, 0
341, 2845352027, -0.72946155, -0.100877486, 0.525192, -0.4264902, 0.11138143, 0.04893422, 0.09662628, 0
343, 2845385361, -0.7294445, -0.10105376, 0.52540344, -0.42621732, 0.092514694, 0.03282999, -0.03830433, 0
344, 2845402028, -0.7294522, -0.10120617, 0.52550334, -0.42604488, 0.14335048, 0.040706348, -0.048719406, 0
347, 2845452029, -0.72942823, -0.10154017, 0.5258415, -0.42558897, 0.15032096, 0.17075121, 0.06675053, 0
348, 2845468696, -0.7294383, -0.10148287, 0.525885, -0.42553142, 0.16031377, 0.1665165, 0.078577995, 0
349, 2845485363, -0.72942924, -0.10140106, 0.5259517, -0.42548394, 0.1200345, 0.078458235, 0.07224941, 0
351, 2845518697, -0.72954196, -0.10119882, 0.5260306, -0.42524117, 0.034404904, -0.036385212, -0.067157745, 0
352, 2845535364, -0.7297082, -0.101128004, 0.5260225, -0.4249826, 0.06970341, 0.03141205, -0.12810993, 0
353, 2845552031, -0.72988886, -0.10111555, 0.5260078, -0.42469355, 0.117652304, 0.12574944, -0.07017517, 0
355, 2845585365, -0.73006886, -0.10110775, 0.5260157, -0.42437607, 0.19128329, 0.087916754, 0.20199299, 0
356, 2845602032, -0.73001224, -0.1011203, 0.52607507, -0.42439693, 0.1296545, 0.023774318, 0.13033772, 0
357, 2845618699, -0.72989935, -0.10119083, 0.5262202, -0.42439467, 0.07438243, 0.004033822, 0.0040159225, 0
359, 2845652033, -0.72979677, -0.10141294, 0.5265896, -0.4240597, 0.1320252, 0.12793283, -0.09871578, 0
361, 2845685367, -0.72978395, -0.101734236, 0.52673644, -0.42382255, 0.25222856, 0.1277856, 0.015183449, 0
363, 2845718701, -0.7296319, -0.10208722, 0.5269064, -0.4237878, 0.1475324, 0.12854801, 0.09015179, 0
364, 2845735368, -0.7295296, -0.102217935, 0.52704704, -0.4237575, 0.09865549, 0.111123696, -0.011722565, 0
365, 2845752035, -0.7294528, -0.10230267, 0.52723444, -0.42363608, 0.049718224, 0.13776122, -0.11215496, 0
367, 2845785369, -0.74674904, -0.07471065, 0.51144797, -0.41858864, -4.030851, -3.7692313, 2.2644844, 1024
368, 2845802036, -0.73104036, -0.10155314, 0.537557, -0.40781194, 3.248574, -1.2018896, 11.041615, 0
370, 2845835370, -0.7345881, -0.08889547, 0.5287339, -0.4158479, -0.21980488, 2.9295359, 2.563939, 0
371, 2845852037, -0.732678, -0.09063416, 0.5313416, -0.41551858, -0.28312474, 3.1777587, 1.0800896, 0
372, 2845868704, -0.7320781, -0.089067765, 0.5330669, -0.4147038, -0.4316755, 1.8939714, -0.67531395, 0
374, 2845902038, -0.73266745, -0.087053046, 0.53423727, -0.41257924, 0.059318997, -1.6656659, -0.7309675, 0
375, 2845918705, -0.7343361, -0.08731838, 0.53182954, -0.41266757, 0.17567958, -1.3612882, 0.64908314, 0
376, 2845935372, -0.7350825, -0.088982716, 0.5298653, -0.4135091, 0.5567006, -0.053470027, 1.4819059, 0
378, 2845968706, -0.73559207, -0.092730984, 0.5267724, -0.41572475, 0.45209697, 0.2135743, 1.0046473, 0
379, 2845985373, -0.73550564, -0.094430394, 0.5258976, -0.41660166, 0.19120014, 0.13417931, 0.7685232, 0
380, 2846002040, -0.7351488, -0.09536165, 0.52587163, -0.41705197, -0.115195, 0.384153, 0.08269787, 0
382, 2846035374, -0.73449665, -0.096016005, 0.52586216, -0.41806194, -0.13994817, -0.11359455, -0.27046013, 0
383, 2846052041, -0.73427075, -0.09668394, 0.5258878, -0.4182725, -0.11770461, -0.22510286, -0.41806984, 0
384, 2846068708, -0.73407096, -0.097243026, 0.52590424, -0.41847256, -0.20651256, -0.3176677, -0.61603355, 0
386, 2846102042, -0.73313147, -0.09742024, 0.52669656, -0.41908178, -0.066323, 0.084610395, -0.060825348, 0
388, 2846135376, -0.7323366, -0.098658025, 0.52736217, -0.41934466, -0.033588186, -0.29734173, 0.30088997, 0
390, 2846168710, -0.73095953, -0.102971934, 0.52789253, -0.42004237, -0.10656427, -0.027352523, 0.16130829, 0
391, 2846185377, -0.73010486, -0.10512157, 0.5275345, -0.4214438, -0.12177478, 0.16176163, -0.2294159, 0
392, 2846202044, -0.7298249, -0.10535368, 0.5267171, -0.42289054, -0.24570467, 0.17696777, -0.33781433, 0
394, 2846235378, -0.7294642, -0.10568032, 0.5262392, -0.4240246, -0.27444753, 0.10779932, -0.2481556, 0
395, 2846252045, -0.7295191, -0.105618745, 0.525961, -0.42429063, -0.27359685, 0.005634412, -0.13069344, 0
397, 2846285379, -0.7295936, -0.10529537, 0.5256187, -0.42466706, -0.122628145, 0.044454433, -0.06952667, 0
398, 2846302046, -0.72959936, -0.105066255, 0.525628, -0.42470247, -0.13150787, 0.1060862, -0.041939735, 0
399, 2846318713, -0.7296642, -0.10486181, 0.52566046, -0.4246014, -0.12788875, 0.10857085, -0.041801453, 0
401, 2846352047, -0.7298241, -0.10477751, 0.52567977, -0.42432323, -0.12738137, -0.029181117, 0.031938553, 0
403, 2846385381, -0.72988504, -0.10482264, 0.52574664, -0.42412436, -0.1391699, 0.13098441, 0.1004076, 0
405, 2846418715, -0.72988975, -0.104793884, 0.525814, -0.4240399, -0.12580024, 0.13138485, 0.051919937, 0
406, 2846435382, -0.7298725, -0.104720816, 0.525874, -0.42401332, -0.16782336, 0.04616487, -0.065216064, 0
407, 2846452049, -0.72980547, -0.10470172, 0.52598524, -0.4239955, -0.19857383, -0.016014054, -0.10830021, 0
409, 2846485383, -0.72975385, -0.10472486, 0.5261683, -0.4238513, -0.23000199, 0.0200522, -0.045131683, 0
410, 2846502050, -0.7298659, -0.10475985, 0.5261551, -0.42366597, -0.20745534, -0.02724236, -0.022116661, 0
411, 2846518717, -0.73002774, -0.10480421, 0.5260709, -0.4234807, -0.17768073, -0.09173948, 0.055675507, 0
413, 2846552051, -0.7302421, -0.10480055, 0.525981, -0.42322367, -0.13885161, 0.0036104186, 0.09900379, 0
414, 2846568718, -0.7302478, -0.104762554, 0.5260296, -0.42316288, -0.108111426, 0.039492708, 0.034150124, 0
415, 2846585385, -0.7302445, -0.10468716, 0.52608114, -0.42312297, -0.10902202, -0.0052919835, -0.023724556, 0
418, 2846635386, -0.7303008, -0.10462558, 0.5261448, -0.42296204, -0.09011372, 0.014664468, -0.045619965, 0
419, 2846652053, -0.73030347, -0.10461235, 0.52615577, -0.422947, -0.038009718, 0.014489129, 2.6226044E-4, 0
421, 2846685387, -0.73032445, -0.10434425, 0.52618057, -0.42294624, -0.0956184, -0.0048042224, 0.018174171, 0
422, 2846702054, -0.7303177, -0.10422675, 0.5262173, -0.4229412, -0.095157064, 0.026947727, -0.038298607, 0
424, 2846735388, -0.73034745, -0.104098946, 0.52626425, -0.42286274, -0.082573734, 0.037268996, -0.025396347, 0
425, 2846752055, -0.7303573, -0.104056835, 0.52630645, -0.42280358, -0.08217721, 0.070038185, -0.0031986237, 0
426, 2846768722, -0.7303703, -0.10396752, 0.5263424, -0.4227584, -0.07136188, 0.083611324, 0.0019407272, 0
428, 2846802056, -0.73049664, -0.10357459, 0.5263716, -0.4226002, -0.029744657, 0.09140645, -0.015522003, 0
429, 2846818723, -0.7306007, -0.103352316, 0.5263785, -0.42246622, -0.015021412, 0.09148965, 0.0106134415, 0
430, 2846835390, -0.7307098, -0.103142045, 0.5264008, -0.42230105, -0.026904702, 0.07934897, -0.012978554, 0
433, 2846885391, -0.7310751, -0.102482215, 0.5263944, -0.42183685, -0.08205518, 0.09395036, -0.0023212433, 0
434, 2846902058, -0.7312176, -0.10222886, 0.52635765, -0.4216972, -0.041627053, 0.106203474, 0.056612015, 0
436, 2846935392, -0.7314846, -0.10177712, 0.52636266, -0.42133734, 0.008396935, 0.12325566, 0.06439018, 0
437, 2846952059, -0.7316031, -0.101552, 0.5264127, -0.4211235, -0.04217466, 0.10509735, 0.033003807, 0
438, 2846968726, -0.7317274, -0.10132164, 0.52646047, -0.4209031, -0.028845241, 0.13270016, -0.05704689, 0
440, 2847002060, -0.73204005, -0.10078874, 0.5264835, -0.42045808, -0.02754529, 0.14001176, -0.037355423, 0
441, 2847018727, -0.7436462, -0.07607642, 0.52282315, -0.40971905, -0.69491816, 18.905777, 4.940073, 0
442, 2847035394, -0.7542937, -0.072574586, 0.5119944, -0.4045329, 5.6360197, -29.572464, 27.160389, 1024
444, 2847068728, -0.74784213, -0.07643736, 0.5159014, -0.4107874, -0.27972558, 5.412514, 5.5094376, 0
445, 2847085395, -0.74620974, -0.06945342, 0.5178799, -0.41250324, -0.6925198, 4.2645745, -0.19188118, 0
446, 2847102062, -0.743655, -0.065912396, 0.5205697, -0.41430777, 0.24241589, 1.1736311, 0.3558159, 0
448, 2847135396, -0.74031156, -0.07362337, 0.5212684, -0.41810134, 0.36334357, -2.3935552, 0.30761337, 0
449, 2847152063, -0.7380197, -0.08216649, 0.52171814, -0.4199965, 0.706984, -2.6328278, 0.9031372, 0
451, 2847185397, -0.7351835, -0.105616525, 0.5201343, -0.42168903, -0.38727286, 1.1222322, 9.54628E-4, 0
452, 2847202064, -0.73447996, -0.107505426, 0.5208692, -0.4215306, -0.5862519, 1.2636638, -1.3576756, 0
453, 2847218731, -0.7346502, -0.10845379, 0.52095884, -0.4208799, -0.4817169, 0.71045256, -0.3691063, 0
455, 2847252065, -0.73633397, -0.107524455, 0.5206504, -0.41855115, -0.16884616, 0.124308534, -0.024108887, 0
456, 2847268732, -0.7372435, -0.106832266, 0.5203099, -0.41754925, 0.042597994, -0.20118414, 0.005381584, 0
457, 2847285399, -0.7379904, -0.10640861, 0.51993376, -0.41680616, 0.16509338, -0.5306098, 0.048731804, 0
460, 2847335400, -0.7385349, -0.10634974, 0.519223, -0.41674235, 0.21106999, -0.2692038, 0.091156006, 0
461, 2847352067, -0.7385393, -0.10603343, 0.51923966, -0.41679448, 0.16352834, -0.17734823, -0.004606247, 0
463, 2847385401, -0.7384494, -0.10538935, 0.51917315, -0.41720006, 0.21559165, -0.06667929, -0.046034813, 0
464, 2847402068, -0.73846, -0.1051197, 0.51891404, -0.41757178, 0.2348996, -0.115670964, -0.03705883, 0
465, 2847418735, -0.73852456, -0.10494771, 0.5185167, -0.41799387, 0.2579344, -0.18020889, -0.02853775, 0
467, 2847452069, -0.7383595, -0.10499235, 0.5180627, -0.41883618, 0.19516571, -0.105671056, 0.009222031, 0
468, 2847468736, -0.73821014, -0.1050131, 0.5179732, -0.419205, 0.084259465, -0.02104503, 0.015089035, 0
469, 2847485403, -0.7382458, -0.10478488, 0.51770645, -0.41952878, 0.03667311, -0.044522204, -0.05494213, 0
471, 2847518737, -0.73895127, -0.10363302, 0.5168041, -0.41968533, 0.11773009, 0.011064045, -0.017029762, 0
472, 2847535404, -0.739552, -0.10293369, 0.5160238, -0.41975948, 0.25495586, -0.07425654, 0.051068306, 0
475, 2847585405, -0.7406316, -0.10085889, 0.51281327, -0.42228657, 0.010237788, -0.008629765, 0.13274097, 0
476, 2847602072, -0.74142075, -0.09959523, 0.511703, -0.42254844, 0.12186373, 0.21032965, 0.07569504, 0
478, 2847635406, -0.74341655, -0.09663995, 0.50889707, -0.42311653, 0.3577061, 0.31979257, 0.17233753, 0
479, 2847652073, -0.74443096, -0.09503888, 0.50719553, -0.42373812, 0.33158416, 0.2759493, 0.32314777, 0
480, 2847668740, -0.74495804, -0.09396357, 0.5046425, -0.42609298, 0.19924213, 0.17622128, 0.46966076, 0
482, 2847702074, -0.74771386, -0.08930753, 0.5012954, -0.42621845, 0.066709675, 0.48984998, -0.0753603, 0
483, 2847718741, -0.7493571, -0.08679849, 0.49924612, -0.42625633, 0.076445006, 0.62461895, -0.24731731, 0
484, 2847735408, -0.75046676, -0.084686875, 0.4961467, -0.42834252, 0.09638415, 0.5575975, -0.02841568, 0
486, 2847768742, -0.7539125, -0.07907387, 0.49007916, -0.43034494, 0.8780666, 0.45544127, 0.5215683, 0
487, 2847785409, -0.75589764, -0.075819425, 0.48768812, -0.43016475, 0.43415603, 0.50787306, -0.09204388, 0
490, 2847835410, -0.7614316, -0.065922976, 0.48048425, -0.430142, -0.7722614, 0.5373481, -0.9474945, 0
491, 2847852077, -0.76373285, -0.062233597, 0.477679, -0.42973578, 0.13870336, 0.7775137, -0.2638712, 0
492, 2847868744, -0.7651405, -0.05812012, 0.47455814, -0.4312628, 0.57345825, 0.66575706, 0.13690853, 0
494, 2847902078, -0.76922774, -0.049202327, 0.4683438, -0.43189448, 0.9426476, 0.50938433, 0.47879982, 0
495, 2847918745, -0.77139413, -0.044760175, 0.46577916, -0.431287, 0.37020028, 0.1494598, -0.5462761, 0
496, 2847935412, -0.77354664, -0.04006545, 0.46243846, -0.43148845, 1.0558184, 0.65776247, 0.5658722, 0
498, 2847968746, -0.77731407, -0.031678386, 0.45725688, -0.43093687, 1.4908538, 0.8286533, 0.5454359, 0
499, 2847985413, -0.77848727, -0.027584389, 0.45487872, -0.43161687, 0.36473268, -0.17066751, -0.49396133, 0
500, 2848002080, -0.7800547, -0.023655154, 0.4518143, -0.43223828, 1.1839163, 0.595406, 0.4718628, 0
502, 2848035414, -0.7829143, -0.014713362, 0.44677573, -0.432702, 1.087575, 0.47703063, -0.33547115, 0
504, 2848068748, -0.7858504, -0.006444812, 0.44098786, -0.43351853, 1.779814, 0.5144036, -0.21766567, 0
506, 2848102082, -0.78729707, 8.722469E-4, 0.4351216, -0.43685582, 2.0790763, 0.67707276, 0.26009655, 0
507, 2848118749, -0.78783613, 0.0036759526, 0.43273053, -0.43824196, 1.3421941, 0.06542619, -0.74158764, 0
509, 2848152083, -0.788941, 0.010681286, 0.42730844, -0.4414485, 2.212692, 0.37097624, -0.5085678, 0
510, 2848168750, -0.7892712, 0.013688952, 0.4246866, -0.44330102, 2.6769974, 0.32419094, -0.44896793, 0
511, 2848185417, -0.78944886, 0.015478194, 0.42237705, -0.4451283, 2.7200155, 0.19184127, -0.5117893, 0
513, 2848218751, -0.78832173, 0.01772929, 0.41846493, -0.4507026, 2.771667, -0.1103907, -0.51215553, 0
514, 2848235418, -0.78738284, 0.01825986, 0.41661632, -0.45402265, 2.7162263, 0.019884048, -0.579546, 0
515, 2848252085, -0.7865893, 0.01798293, 0.4145625, -0.45727742, 2.8290129, 0.35027325, -0.6798687, 0
517, 2848285419, -0.7844776, 0.01679758, 0.4103075, -0.46472746, 2.7253096, 0.56192416, -0.65863895, 0
518, 2848302086, -0.783392, 0.015283957, 0.4079317, -0.46868554, 2.2026148, 0.6194756, -0.20540905, 0
519, 2848318753, -0.78204674, 0.0141368285, 0.4053364, -0.47319824, 2.0160642, 0.6178407, -0.11567974, 0
521, 2848352087, -0.78092265, 0.012609139, 0.39858627, -0.48077136, 1.7519225, 0.51543456, -0.5294676, 0
522, 2848368754, -0.7808939, 0.011544354, 0.394384, -0.48429707, 1.9673448, 0.3686816, -0.647666, 0
523, 2848385421, -0.7809986, 0.009921767, 0.3898534, -0.4878198, 2.2089398, 0.7894324, -0.7950659, 0
525, 2848418755, -0.7818526, 0.005993642, 0.38004547, -0.4942137, 2.3691757, 1.4327132, -1.816073, 0
526, 2848435422, -0.7825959, 0.0044572875, 0.37518397, -0.49676123, 2.0584059, 1.0084822, -1.8377304, 0
527, 2848452089, -0.78350323, 0.0031693801, 0.37102377, -0.49846256, 1.9830966, 0.8235695, -1.9957023, 0
530, 2848502090, -0.7856705, -7.7836215E-5, 0.36003676, -0.50309664, 3.2073343, 1.9605374, -1.8031769, 0
533, 2848552091, -0.78561515, -0.0016743019, 0.34997547, -0.5102297, 4.3701296, 1.7034163, 0.399148, 0
534, 2848568758, -0.7840359, -0.003178805, 0.34780598, -0.51412016, 4.2635427, 2.377611, 0.5078478, 0
536, 2848602092, -0.7794009, -0.0059243664, 0.3446929, -0.5231608, 4.5818615, 3.1631203, 1.4902906, 0
537, 2848618759, -0.77738225, -0.008142114, 0.34270716, -0.5274212, 4.9255605, 1.8070586, 2.2259169, 0
538, 2848635426, -0.7745956, -0.012225583, 0.34091198, -0.5325808, 4.8457813, 0.56672275, 3.595312, 0
540, 2848668760, -0.76600647, -0.025468703, 0.34291142, -0.5431467, -0.74501806, -1.0200884, 3.0841055, 0
541, 2848685427, -0.762992, -0.03237116, 0.34479076, -0.5458258, -3.3778877, 0.96642154, 1.9579391, 0
542, 2848702094, -0.7620602, -0.03766663, 0.346319, -0.54582036, -4.290167, 2.3691547, 1.3864098, 0
544, 2848735428, -0.7657785, -0.042160667, 0.34646374, -0.5401666, -1.741452, 2.2838402, 3.8824348, 0
545, 2848752095, -0.76859295, -0.04385101, 0.34570208, -0.53651, -0.72084004, 0.43519402, 4.552785, 0
548, 2848802096, -0.7739934, -0.054791413, 0.34422237, -0.5286343, 0.24111594, 0.68329585, 3.2254295, 0
549, 2848818763, -0.7748511, -0.058539122, 0.34484363, -0.5265671, 0.14912024, 1.1922094, 2.703354, 0
550, 2848835430, -0.7766891, -0.062145423, 0.34540173, -0.52306855, -0.032090873, 1.2944784, 1.9293394, 0
552, 2848868764, -0.7798675, -0.07115985, 0.34508276, -0.51737016, 0.63891244, 0.37322572, 0.7458925, 0
553, 2848885431, -0.780869, -0.07542812, 0.3458317, -0.5147482, 0.2415015, 0.59611154, 0.19079304, 0
554, 2848902098, -0.781619, -0.080536954, 0.34671003, -0.512239, 0.28951702, 0.57798755, -0.5764055, 0
556, 2848935432, -0.7827848, -0.08948494, 0.3496176, -0.5069704, 0.33855775, 0.364903, -1.4765205, 0
557, 2848952099, -0.78289276, -0.0949315, 0.35179937, -0.5042968, 0.41210634, -0.17754306, -1.9582481, 0
559, 2848985433, -0.7824664, -0.10264985, 0.35668325, -0.49999756, 0.056253072, -0.27422667, -2.1294918, 0
560, 2849002100, -0.78246, -0.10850221, 0.35810152, -0.49775302, 0.12533288, -0.2872512, -2.1854467, 0
563, 2849052101, -0.78209376, -0.12778017, 0.36169174, -0.49111283, 0.20900026, -0.56863403, -1.3733578, 0
564, 2849068768, -0.7817203, -0.13233808, 0.36450756, -0.48841125, -0.15715016, -0.45742357, -1.3863726, 0
565, 2849085435, -0.7813338, -0.13648722, 0.36764786, -0.48552525, -0.032844335, -0.42685264, -1.4411516, 0
567, 2849118769, -0.7803283, -0.14642096, 0.37292618, -0.4801936, -0.43171975, 0.6665516, -0.79074, 0
568, 2849135436, -0.7794992, -0.15033843, 0.37701446, -0.47712737, -0.21674432, 0.16907313, -0.66948795, 0
569, 2849152103, -0.77854526, -0.15374169, 0.3816655, -0.47389156, -0.04435011, 0.19847883, -0.7223711, 0
571, 2849185437, -0.7752968, -0.16353846, 0.39028794, -0.46888864, -0.06171729, -0.23958519, -1.5088711, 0
572, 2849202104, -0.7737007, -0.1683218, 0.3926124, -0.46789044, -0.25685057, 0.8668747, -0.32597446, 0
573, 2849218771, -0.7714339, -0.17348024, 0.39514464, -0.4676176, -0.14669661, 0.09663517, -0.5094414, 0
575, 2849252105, -0.76545346, -0.18279576, 0.40140042, -0.4685676, -0.11546635, 0.4510901, -0.5099926, 0
577, 2849285439, -0.75864625, -0.19205108, 0.40833324, -0.46994385, -0.4989596, 0.5743948, -0.71554375, 0
579, 2849318773, -0.75102425, -0.20169583, 0.41503793, -0.4722669, -0.79802084, 0.6052811, 0.11731815, 0
580, 2849335440, -0.747779, -0.2057829, 0.41819984, -0.47286385, -0.48470035, 0.6748556, 0.2571001, 0
581, 2849352107, -0.7447982, -0.20971647, 0.4210268, -0.47333097, -0.47384256, 0.6789253, 0.5669117, 0
583, 2849385441, -0.74017215, -0.21642926, 0.42535377, -0.473697, -0.32834882, 1.0775551, 0.004058838, 0
584, 2849402108, -0.7385993, -0.21977995, 0.42602488, -0.474006, -0.113101356, 0.7779485, -0.22496605, 0
585, 2849418775, -0.7376646, -0.2224908, 0.42610976, -0.4741208, 0.1615165, 0.34788764, -0.08639431, 0
587, 2849452109, -0.7375675, -0.22276866, 0.42534053, -0.47483167, -0.7784536, 0.32007837, 0.6790972, 0
588, 2849468776, -0.73897356, -0.21867369, 0.42476428, -0.47506446, -1.5900989, 0.013295333, 0.7295809, 0
590, 2849502110, -0.7436259, -0.20673686, 0.42530343, -0.4726612, -1.9406185, 0.4729847, -1.4955387, 0
591, 2849518777, -0.74654126, -0.20033947, 0.42488527, -0.4711941, -1.6276801, -0.09569462, -2.3572755, 0
592, 2849535444, -0.7493774, -0.1938612, 0.42331228, -0.4708175, -1.5735757, -1.5004467, -2.355783, 0
594, 2849568778, -0.75634605, -0.1789811, 0.41579992, -0.47225842, -1.9522505, -1.8200154, -2.5640993, 0
595, 2849585445, -0.7607074, -0.17031491, 0.40988514, -0.47362676, -2.0262978, -1.2348646, -2.3835874, 0
596, 2849602112, -0.76539785, -0.16184378, 0.40300068, -0.47494638, -1.3462018, -0.49732214, -2.5377316, 0
598, 2849635446, -0.7748238, -0.14269502, 0.38749045, -0.47869456, 0.40843976, -0.23070566, -0.7298336, 0
599, 2849652113, -0.78116155, -0.13375337, 0.3760175, -0.48012367, 0.26418695, -1.9342308, -1.4713697, 0
600, 2849668780, -0.7886013, -0.12853864, 0.35984376, -0.48177737, 0.31247446, -3.3913214, -2.4844608, 0
602, 2849702114, -0.8003081, -0.1331666, 0.317479, -0.49090928, 3.2533088, -1.5722448, -2.9388237, 0
604, 2849735448, -0.80319333, -0.14409941, 0.28192094, -0.50462586, 5.4895687, 1.598419, 0.18012047, 0
606, 2849768782, -0.8023755, -0.14720587, 0.2550373, -0.51912534, 3.693126, 3.3367815, 0.72611904, 0
607, 2849785449, -0.8006045, -0.14656162, 0.24620055, -0.5262588, 3.6406024, 4.28649, 0.18212605, 0
608, 2849802116, -0.79923767, -0.14669153, 0.23885317, -0.5316589, 3.814408, 5.7771554, 1.4460096, 0
610, 2849835450, -0.79825056, -0.14089076, 0.23257113, -0.537464, 5.7861247, 5.311106, 1.7360296, 0
611, 2849852117, -0.79811674, -0.13472262, 0.23318797, -0.53897494, 6.21402, 6.6423907, 2.1709642, 0
614, 2849902118, -0.7967359, -0.12043819, 0.24599922, -0.53870404, 5.7062926, 4.9775257, 2.563344, 0
617, 2849952119, -0.78980553, -0.111722514, 0.26424545, -0.54213524, 3.0080323, 0.089291975, 2.491228, 0
618, 2849968786, -0.7837645, -0.10963026, 0.27497452, -0.5459804, 3.0977418, -1.9687495, 3.7163591, 0
619, 2849985453, -0.77865946, -0.110542886, 0.28589603, -0.547489, 0.13590817, -2.981044, 3.2855597, 0
622, 2850035454, -0.76936865, -0.121481895, 0.29777703, -0.5519545, -2.5752375, -1.075456, 3.2297878, 0
625, 2850085455, -0.7720477, -0.12381592, 0.29876354, -0.54714125, 0.45030037, 0.5882579, 2.972888, 0
626, 2850102122, -0.77538675, -0.124267966, 0.30065295, -0.54125, -0.46739307, 0.84897226, 1.6153069, 0
627, 2850118789, -0.7790433, -0.12529907, 0.30269474, -0.53458273, -0.544495, -0.3607905, 0.6739845, 0
629, 2850152123, -0.78579974, -0.12695146, 0.3054709, -0.5225904, 0.88330823, -0.89218485, -0.029598236, 0
630, 2850168790, -0.78758687, -0.12938921, 0.3062199, -0.5188507, 0.7461419, -0.9531121, -0.6158638, 0
631, 2850185457, -0.7880346, -0.13210174, 0.3078507, -0.51651657, 1.3076185, -1.0386297, -0.625371, 0
633, 2850218791, -0.7874812, -0.13664602, 0.31492442, -0.5118934, 0.22913475, -1.0669478, -1.759656, 0
634, 2850235458, -0.78623825, -0.13927723, 0.3198011, -0.5100682, -0.39306563, -1.4405742, -2.2048068, 0
635, 2850252125, -0.7854981, -0.1422307, 0.32376954, -0.5078856, -0.6119657, -0.7875204, -1.9990869, 0
638, 2850302126, -0.78525794, -0.15798876, 0.33304217, -0.49749708, -0.31827998, -0.04633692, -1.1808023, 0
640, 2850335460, -0.7844111, -0.17028493, 0.3382189, -0.4912446, -0.35336772, -1.2784728, -0.61044884, 0
641, 2850352127, -0.78330606, -0.17666326, 0.3417525, -0.48830116, -0.3712794, -0.83608586, -1.1701212, 0
642, 2850368794, -0.78112566, -0.18307823, 0.34533927, -0.48690546, -0.7656622, -0.7994421, -1.1719599, 0
644, 2850402128, -0.7745287, -0.19594392, 0.35238677, -0.48738682, -0.5745888, -0.3244546, -1.5890713, 0
645, 2850418795, -0.77127653, -0.20199007, 0.355818, -0.48758313, -0.21710663, -0.33234668, -1.6665964, 0
646, 2850435462, -0.7685646, -0.20632204, 0.35993382, -0.48703024, -0.5520775, 0.43071684, -1.0668554, 0
648, 2850468796, -0.76255155, -0.21698987, 0.36706084, -0.48652643, 0.10492637, 0.32025293, -0.45156002, 0
649, 2850485463, -0.7589426, -0.2215167, 0.37265885, -0.48587334, -0.93803203, 0.41036397, -0.6416626, 0
650, 2850502130, -0.75529206, -0.22642651, 0.37876034, -0.48457897, -0.6241767, -0.33341837, -1.5526419, 0
653, 2850552131, -0.7464498, -0.24263051, 0.39194337, -0.4799314, 0.25564072, 0.465702, -0.3025713, 0
654, 2850568798, -0.74436605, -0.24783677, 0.39490202, -0.47807896, -0.31081042, 0.62463456, 0.5259552, 0
656, 2850602132, -0.7401937, -0.2539501, 0.40329924, -0.47432408, -0.2234401, 0.48705456, 0.9244013, 0
657, 2850618799, -0.73758155, -0.25679725, 0.40845898, -0.47244143, 0.14201902, 0.7018442, -0.0028467178, 0
658, 2850635466, -0.73456943, -0.26041347, 0.4137084, -0.47058362, 0.26016214, 0.5283058, -0.38747025, 0
660, 2850668800, -0.72937024, -0.26666823, 0.42353722, -0.466406, -0.43814483, 0.6310747, -0.8466034, 0
661, 2850685467, -0.72806937, -0.26817554, 0.427593, -0.46386653, -1.3234229, 0.6817498, -0.64903355, 0
662, 2850702134, -0.72680396, -0.26891, 0.43202013, -0.46131665, -1.9822953, 0.4379229, -0.09053135, 0
664, 2850735468, -0.7242446, -0.26959348, 0.44160923, -0.45583063, -0.9852259, 0.21172242, -0.828907, 0
665, 2850752135, -0.724168, -0.26843196, 0.44443408, -0.45388818, -0.60014147, -0.006140907, -0.08265972, 0
667, 2850785469, -0.7268734, -0.25765365, 0.4466104, -0.4536735, -1.5620837, -1.1032319, 2.0339518, 0
668, 2850802136, -0.7290088, -0.24768817, 0.44855314, -0.45388103, -2.1598923, -1.7176025, 0.97489834, 0
669, 2850818803, -0.7310376, -0.23783007, 0.45169342, -0.45277476, -1.3770617, -1.5421464, -0.84891987, 0
671, 2850852137, -0.7360832, -0.22359946, 0.4551036, -0.44841552, -0.31233454, -0.663711, -1.4008045, 0
672, 2850868804, -0.73971796, -0.21613647, 0.4543377, -0.44686776, 0.102499574, -0.51662654, -0.15209198, 0
673, 2850885471, -0.74413157, -0.20656607, 0.4521753, -0.44625947, 0.00276262, -0.26429316, 0.704896, 0
675, 2850918805, -0.75100935, -0.18710488, 0.4463899, -0.44913688, 0.29553777, 0.13841593, -2.2920876, 0
676, 2850935472, -0.75399953, -0.17963421, 0.44066408, -0.4528162, 1.4516671, 1.4745876, -2.143505, 0
677, 2850952139, -0.7574323, -0.17200866, 0.43171614, -0.45863026, 2.1646352, 1.0735099, -1.1440506, 0
680, 2851002140, -0.76942027, -0.14514895, 0.39942887, -0.47685614, 0.030034777, 0.4595227, -3.2055006, 0
681, 2851018807, -0.77449626, -0.13722695, 0.38471672, -0.48304072, -0.23187949, 0.87980956, -3.2958913, 0
683, 2851052141, -0.7865956, -0.13549612, 0.3375038, -0.49900943, 3.647407, -1.9020469, 1.3571053, 0
684, 2851068808, -0.7905929, -0.13497841, 0.31263807, -0.50893253, 4.510225, -2.9044712, 3.4010668, 0
685, 2851085475, -0.7913831, -0.12982161, 0.2954831, -0.51919144, 3.7928987, -0.79833204, 0.6794596, 0
687, 2851118809, -0.7841003, -0.123391636, 0.27584296, -0.54210967, 1.5037997, 7.5982265, -0.040068626, 0
688, 2851135476, -0.7809438, -0.12009606, 0.26871884, -0.55091286, 1.2670317, 7.9274316, 0.5098009, 0
689, 2851152143, -0.78025764, -0.1133969, 0.2661651, -0.55453247, 2.643924, 6.5810914, 0.9624901, 0
691, 2851185477, -0.78415805, -0.09873988, 0.27138132, -0.54928094, 2.8356996, 5.957726, 0.11343002, 0
692, 2851202144, -0.7873516, -0.09358009, 0.27543133, -0.5435704, 2.842366, 4.2998147, -0.18727684, 0
695, 2851252145, -0.7886109, -0.084764555, 0.295879, -0.53232926, 1.6798968, 0.19975017, 1.4087048, 0
696, 2851268812, -0.7872453, -0.08081973, 0.3045965, -0.5300426, 0.7620165, -2.3307667, 2.6449738, 0
698, 2851302146, -0.78082484, -0.07908649, 0.31910044, -0.5312661, -0.86559016, -6.368148, 3.448227, 0
699, 2851318813, -0.7772902, -0.0820694, 0.32430232, -0.5328447, -1.5647008, -5.083932, 2.3057098, 0
700, 2851335480, -0.77468896, -0.08471755, 0.32956365, -0.5329905, -1.9570469, 0.13974541, 1.8977566, 0
702, 2851368814, -0.77526534, -0.08336376, 0.3365474, -0.5279783, -0.09895567, 0.6297838, 1.7244549, 0
703, 2851385481, -0.7787941, -0.08290161, 0.33748662, -0.52222687, 0.8963612, -0.7715534, 1.8646183, 0
704, 2851402148, -0.78163046, -0.085296914, 0.33749568, -0.51757693, 1.9222308, -1.736167, 2.1571493, 0
706, 2851435482, -0.78270304, -0.09207423, 0.33918694, -0.51367456, 1.8688089, -1.5228716, 1.6786089, 0
707, 2851452149, -0.7809319, -0.098429486, 0.34107673, -0.51394045, 0.9927196, -1.9473844, 0.53032875, 0
710, 2851502150, -0.775449, -0.11132385, 0.34834948, -0.51473254, -0.97604823, 0.22582528, -0.53689003, 0
711, 2851518817, -0.7756567, -0.117318586, 0.3503319, -0.511734, -1.2372848, 0.2637417, -1.2679844, 0
712, 2851535484, -0.776084, -0.12287448, 0.3514609, -0.5090007, -0.79952013, 1.0732363, -0.76233196, 0
714, 2851568818, -0.77626866, -0.13450398, 0.35407928, -0.5039391, 0.24122345, 0.39894593, -1.5036211, 0
715, 2851585485, -0.77624, -0.14118207, 0.3547625, -0.5016711, 0.37001476, 0.76896423, -0.6739769, 0
716, 2851602152, -0.77601385, -0.14771456, 0.35626206, -0.49907058, 0.2738997, -0.51402557, -0.032161713, 0
718, 2851635486, -0.7751226, -0.15903771, 0.36249173, -0.492446, -0.1920553, -0.56047523, -0.33369637, 0
719, 2851652153, -0.7742584, -0.16372481, 0.365902, -0.48973975, -0.35520902, -0.19847845, -0.80111885, 0
720, 2851668820, -0.7723585, -0.17092705, 0.3681417, -0.48859912, -0.13064533, -0.43857473, -0.87078476, 0
722, 2851702154, -0.7684583, -0.1820713, 0.37197173, -0.48782188, 1.1004308, -0.7842685, -0.9340067, 0
725, 2851752155, -0.7609142, -0.20005354, 0.37790164, -0.4880467, -0.5699574, -0.4725492, -0.6334934, 0
726, 2851768822, -0.7587554, -0.20497334, 0.38042766, -0.4874035, -0.66951007, -1.0188677, -1.2697544, 0
727, 2851785489, -0.7565801, -0.20990354, 0.3827906, -0.48683622, -0.7699592, -0.5304873, -1.388916, 0
729, 2851818823, -0.75048304, -0.21904844, 0.38956892, -0.4868676, -1.2877797, 0.5973306, -0.19377804, 0
730, 2851835490, -0.74823886, -0.2218436, 0.39445597, -0.4851182, -1.3984765, 0.6262161, -0.54463387, 0
731, 2851852157, -0.7468177, -0.22409424, 0.39856327, -0.4829117, -1.164118, 0.638149, -0.7535553, 0
733, 2851885491, -0.7451093, -0.23041993, 0.4041394, -0.47791332, -0.33785325, 0.43627763, -0.22609997, 0
734, 2851902158, -0.74361527, -0.23469745, 0.40639704, -0.47624153, -0.2569954, -0.7245304, -0.7632818, 0
735, 2851918825, -0.7430601, -0.23638818, 0.40842327, -0.4745354, -0.25085193, -0.06844425, -0.13663578, 0
737, 2851952159, -0.7396873, -0.24222416, 0.41280195, -0.47307044, -0.52952814, -0.4297495, -0.04417801, 0
738, 2851968826, -0.7382499, -0.24533725, 0.41477853, -0.47198153, -0.37449583, -0.4907599, -0.54703426, 0
739, 2851985493, -0.73538566, -0.25166434, 0.4161717, -0.47189528, -0.07794768, -0.81121594, -1.0505733, 0
741, 2852018827, -0.73174787, -0.2597353, 0.41727632, -0.4722013, -0.25297868, -0.8121425, 0.49171257, 0
742, 2852035494, -0.73003006, -0.2625667, 0.41832548, -0.47236603, -0.66954845, -0.72052366, 0.98038197, 0
743, 2852052161, -0.7280713, -0.26526517, 0.42056254, -0.471895, -0.93501574, -0.2847687, 0.94434834, 0
745, 2852085495, -0.72393167, -0.27359626, 0.42602128, -0.46859914, 0.22864772, 0.87384695, -0.2929945, 0
746, 2852102162, -0.7224492, -0.27719533, 0.42786527, -0.4670889, 0.6209872, 0.41514403, -0.0720129, 0
748, 2852135496, -0.7212375, -0.28165466, 0.43009526, -0.46423715, 0.4178226, 0.22255453, -0.16760063, 0
749, 2852152163, -0.7208969, -0.283347, 0.43102252, -0.46287465, 0.20715448, 0.42126894, -0.22987556, 0
752, 2852202164, -0.7198566, -0.28885418, 0.43208256, -0.46009296, -0.102493204, 0.27564546, 0.109246254, 0
753, 2852218831, -0.71933854, -0.2899732, 0.43314204, -0.45920244, -0.39262083, 0.42515102, -0.11118317, 0
754, 2852235498, -0.7189075, -0.2907221, 0.43458715, -0.45803696, -0.7187714, 0.4088177, -0.34438515, 0
756, 2852268832, -0.71930563, -0.29171222, 0.4352966, -0.45610452, 0.23695883, 0.17298573, -0.28737354, 0
757, 2852285499, -0.7195516, -0.29261404, 0.43508834, -0.45533696, 0.8660919, -0.114322744, -0.028053284, 0
758, 2852302166, -0.71969247, -0.292934, 0.4352805, -0.45472455, 0.8481999, -0.056912433, 0.4735756, 0
760, 2852335500, -0.7207033, -0.28693974, 0.43750098, -0.4548146, -0.4795998, 0.7364099, 0.9107876, 0
762, 2852368834, -0.7251296, -0.27412334, 0.4374256, -0.4557559, -1.2801173, 0.83093745, -0.5973444, 0
764, 2852402168, -0.7319983, -0.26023692, 0.43083587, -0.45918024, 0.1343058, 0.3013518, -0.66753864, 0
765, 2852418835, -0.73589635, -0.25080538, 0.42575368, -0.46292317, 0.4651917, -1.2147081, -0.35351086, 0
768, 2852468836, -0.7521649, -0.21760064, 0.4115894, -0.4663723, -1.1106752, -0.40839756, -3.078041, 0
769, 2852485503, -0.7590148, -0.20884407, 0.40289867, -0.4668666, 0.091331415, 0.7471557, -3.3374596, 0
770, 2852502170, -0.76485, -0.20076594, 0.3905457, -0.47136253, 0.54397196, 0.09700502, -2.1842074, 0
772, 2852535504, -0.77769417, -0.18244845, 0.35801962, -0.48346382, -0.066651784, -2.3935547, -0.9892807, 0
773, 2852552171, -0.7863291, -0.17504206, 0.3372081, -0.4871843, 1.9165668, -1.674321, -4.241173, 0
775, 2852585505, -0.7985483, -0.17522302, 0.2858575, -0.49991393, 6.284434, 2.7280593, -1.389905, 0
776, 2852602172, -0.80032676, -0.17578904, 0.26539454, -0.5080867, 7.5803795, 2.4529746, 2.383936, 0
777, 2852618839, -0.79942167, -0.17565773, 0.2506938, -0.5169459, 5.6720023, 2.715468, 3.2218218, 0
779, 2852652173, -0.7893928, -0.16697735, 0.24029812, -0.5396717, 2.1714416, 4.005315, 1.6755295, 0
780, 2852668840, -0.78489673, -0.16131914, 0.24350658, -0.54646933, 1.8327143, 4.3378415, 0.077596664, 0
783, 2852718841, -0.7784813, -0.15572347, 0.2602983, -0.54952055, 0.21004832, 0.671985, 1.2363663, 0
784, 2852735508, -0.7768701, -0.15525827, 0.26530057, -0.54954004, -0.32037988, -2.2169929, 2.2962828, 0
785, 2852752175, -0.77566934, -0.1559232, 0.27061158, -0.54845726, -1.556754, -4.0143733, 2.1897173, 0
787, 2852785509, -0.7735735, -0.15568578, 0.2776435, -0.54797, 1.1056699, -1.7050643, 5.791668, 0
788, 2852802176, -0.7722726, -0.15471815, 0.27939913, -0.5491852, 1.2037654, -0.14905497, 5.570384, 0
789, 2852818843, -0.772065, -0.15290394, 0.2808182, -0.54926145, -0.057272736, -0.67829055, 3.9449997, 0
791, 2852852177, -0.77245057, -0.15523691, 0.282004, -0.5474545, 1.2717769, -1.4911973, 2.3232927, 0
792, 2852868844, -0.77203935, -0.15801784, 0.28222194, -0.54712653, 0.8612817, -1.4699509, 0.9282875, 0
793, 2852885511, -0.77123266, -0.1618776, 0.2832532, -0.5466026, 0.28699577, -1.5264707, -0.41862202, 0
795, 2852918845, -0.7705927, -0.1706646, 0.283305, -0.5448025, 0.881559, 1.3698182, -0.012989044, 0
797, 2852952179, -0.7709113, -0.18165189, 0.28447518, -0.5401697, 0.41106492, 1.4898258, 0.16780376, 0
799, 2852985513, -0.77156234, -0.18678042, 0.287798, -0.5357127, -0.53014946, 0.17423238, -0.6180477, 0
800, 2853002180, -0.77170366, -0.19162086, 0.28875694, -0.533278, -0.5598378, -0.6925938, -1.9967837, 0
801, 2853018847, -0.7711088, -0.19492033, 0.28980348, -0.5323743, 0.71314555, 0.2231606, -0.24190807, 0
803, 2853052181, -0.77089506, -0.2000725, 0.2951928, -0.5277916, 0.5416275, 0.45936552, -0.33369064, 0
804, 2853068848, -0.77082366, -0.2029551, 0.2994187, -0.524404, -0.6262234, -0.14348285, -1.1511745, 0
806, 2853102182, -0.7710074, -0.20708272, 0.30846682, -0.51722693, -0.45593962, -0.47406048, -0.8237858, 0
807, 2853118849, -0.77155936, -0.20836946, 0.3125174, -0.51344156, -0.3528398, -0.75886303, -0.20274639, 0
808, 2853135516, -0.7715235, -0.21253024, 0.31591153, -0.5096993, -0.18295385, -1.3470919, -1.5541553, 0
810, 2853168850, -0.7701971, -0.21744129, 0.32272056, -0.5053495, 0.7522843, -1.3226908, 0.21256256, 0
811, 2853185517, -0.76887363, -0.21988967, 0.32867426, -0.50246006, -0.06331965, -1.0724249, -1.2763262, 0
812, 2853202184, -0.76763254, -0.22262655, 0.33446735, -0.4993199, -0.58521277, -1.0900916, -1.7030182, 0
814, 2853235518, -0.7664443, -0.23008859, 0.34284186, -0.49202925, 0.11040847, -0.7364964, -1.4788189, 0
815, 2853252185, -0.7659873, -0.23280497, 0.34742987, -0.4882304, -0.22242847, -1.8023962, -1.6015415, 0
816, 2853268852, -0.7658489, -0.2361884, 0.35283613, -0.48291656, -0.33435705, -1.6654139, -2.0148, 0
818, 2853302186, -0.7646663, -0.24083796, 0.36283374, -0.4750214, -0.42250854, -1.1670637, -1.0868454, 0
819, 2853318853, -0.7634005, -0.24579602, 0.36682525, -0.47143865, -0.19186956, -1.1197624, -1.4193668, 0
820, 2853335520, -0.7616927, -0.24961166, 0.37060514, -0.46923447, 0.05114513, -1.2243809, -1.1091089, 0
822, 2853368854, -0.75829315, -0.25553936, 0.37858686, -0.46516037, -0.6191481, -0.6731391, 0.07348728, 0
824, 2853402188, -0.754475, -0.2597568, 0.3877761, -0.46144867, -0.93698174, 0.054082535, 0.8410492, 0
826, 2853435522, -0.7528009, -0.26261866, 0.39352185, -0.4576832, -0.85053855, 0.24678591, 0.966815, 0
827, 2853452189, -0.75155675, -0.26555926, 0.39602342, -0.4558699, -0.51545376, 0.41876537, 0.52052975, 0
829, 2853485523, -0.75038624, -0.2682967, 0.40271953, -0.45029473, 0.09345658, -0.82683927, 7.352829E-4, 0
830, 2853502190, -0.7497219, -0.2702635, 0.4055211, -0.44770348, -0.39062285, 0.44466147, 0.034355164, 0
831, 2853518857, -0.74969417, -0.2711768, 0.40686655, -0.4459737, -0.7160944, 0.92797023, 0.5302229, 0
833, 2853552191, -0.75001675, -0.2726755, 0.40572158, -0.44556022, 0.18481883, -0.32670698, 0.54619026, 0
834, 2853568858, -0.7495492, -0.27227354, 0.40794304, -0.4445634, 0.14534868, 0.07627, 0.13392544, 0
835, 2853585525, -0.74881375, -0.27326646, 0.41073343, -0.44262016, -0.16643691, -0.32562417, -0.41067028, 0
837, 2853618859, -0.7497796, -0.27471054, 0.41509533, -0.4359722, -1.4047791, 0.2488711, -1.7221518, 0
839, 2853652193, -0.7515229, -0.27711928, 0.41521153, -0.43131036, -0.6449084, -0.7356616, -1.4491491, 0
841, 2853685527, -0.7521584, -0.28016403, 0.41782144, -0.42567846, -0.52402544, -1.6224633, -1.1005058, 0
842, 2853702194, -0.75121236, -0.2812015, 0.42176712, -0.4227638, -0.40387762, -1.2742815, -0.5603113, 0
843, 2853718861, -0.7498036, -0.28122163, 0.42529893, -0.42171186, -0.0024322679, -0.82090044, -0.050361633, 0
845, 2853752195, -0.74479127, -0.28213978, 0.43307954, -0.42206216, -0.5738246, -0.33256638, 0.65114594, 0
846, 2853768862, -0.7419669, -0.28316063, 0.43695557, -0.42235756, -0.2613005, -0.81151354, 0.48103333, 0
847, 2853785529, -0.7390599, -0.28396654, 0.44104388, -0.42266387, -0.033074107, -1.1534408, 0.7785864, 0
849, 2853818863, -0.733, -0.28611898, 0.4477498, -0.42470947, 0.87811, 0.0606717, 1.5765123, 0
850, 2853835530, -0.73068315, -0.2860356, 0.44917536, -0.4272449, 0.779838, 0.5400918, 1.6289177, 0
851, 2853852197, -0.7290291, -0.28451395, 0.4501203, -0.43008274, -0.00586945, 0.76806784, 0.70426846, 0
854, 2853902198, -0.72505313, -0.27611458, 0.45733428, -0.43464354, -0.8024885, 0.72888017, -0.1292944, 0
856, 2853935532, -0.7273012, -0.26554665, 0.4616484, -0.43290833, -0.74179816, 1.3156075, -0.69949913, 0
857, 2853952199, -0.73055875, -0.25913343, 0.46081108, -0.4322013, 0.051023763, 1.8411013, -0.4404993, 0
858, 2853968866, -0.73364156, -0.25346604, 0.4573861, -0.43397486, 0.48055017, 0.766418, 0.1464014, 0
860, 2854002200, -0.74008524, -0.23844825, 0.44886598, -0.44039363, 0.3257858, -0.47633052, 0.2010622, 0
861, 2854018867, -0.74341094, -0.22837862, 0.44506356, -0.44397393, 0.21809009, 0.17585966, -0.72971916, 0
862, 2854035534, -0.7461934, -0.21936482, 0.44049966, -0.44838083, 0.6852411, 0.95601887, -2.0472164, 0
864, 2854068868, -0.75229174, -0.20465149, 0.4262682, -0.45878243, 1.022262, 0.80856407, -1.2540083, 0
865, 2854085535, -0.75594574, -0.19741084, 0.4178784, -0.46364188, 0.9113039, 0.22897752, -0.42246246, 0
866, 2854102202, -0.7601861, -0.1882774, 0.4093224, -0.46811855, 0.49964198, -0.22420707, 0.1348896, 0
869, 2854152203, -0.7757629, -0.15469235, 0.37600613, -0.4825896, 0.5425397, 2.2366972, -3.1311445, 0
870, 2854168870, -0.78081673, -0.14603883, 0.36124662, -0.48837477, 1.778054, 1.2448341, -2.8018327, 0
872, 2854202204, -0.7902695, -0.12091689, 0.3326319, -0.5002203, 1.1996883, 1.5553964, -1.483738, 0
873, 2854218871, -0.79550266, -0.10687372, 0.3171314, -0.50516546, -1.4357761, 0.45764193, -1.5204792, 0
874, 2854235538, -0.8018105, -0.09964727, 0.30112243, -0.50646484, -1.7768562, -0.61812687, -1.2213211, 0
876, 2854268872, -0.8059101, -0.08609044, 0.28306156, -0.51282007, 7.0824146, 2.594238, 4.3599586, 0
877, 2854285539, -0.8074721, -0.07968378, 0.27743715, -0.5144695, 7.52372, 5.241304, 4.450882, 0
880, 2854335540, -0.8054226, -0.07596037, 0.2729338, -0.5206177, 3.9779427, 1.9201491, 0.4353876, 0
881, 2854352207, -0.8048711, -0.07989702, 0.27774858, -0.5183298, 0.98784995, 2.916374, -1.0403051, 0
884, 2854402208, -0.80118954, -0.0913064, 0.28741938, -0.5168749, -2.9074745, -2.2637737, 1.5545063, 0
885, 2854418875, -0.7964011, -0.09266648, 0.29138282, -0.52179074, -1.0599136, -2.2134297, 4.4963884, 0
887, 2854452209, -0.7888929, -0.09342879, 0.29955465, -0.5283909, -1.8688046, 0.67440057, 4.429723, 0
888, 2854468876, -0.7896328, -0.091702744, 0.3032736, -0.52545863, -2.6598592, 0.77838457, 2.8471298, 0
889, 2854485543, -0.7942757, -0.088422455, 0.30743572, -0.5165287, -2.049449, 1.0080435, 1.3000145, 0
891, 2854518877, -0.80490434, -0.08493707, 0.31037146, -0.49859333, 0.8029788, -1.4773372, 1.0276785, 0
892, 2854535544, -0.8081628, -0.08671201, 0.3100951, -0.49315923, 1.4361912, -2.7892416, 1.2627649, 0
893, 2854552211, -0.80958676, -0.08927656, 0.31153315, -0.4894458, 2.0877776, -3.183649, 1.7298021, 0
895, 2854585545, -0.8081586, -0.09419906, 0.32023004, -0.48525268, 1.2462995, -2.4091268, 0.23727989, 0
896, 2854602212, -0.806814, -0.09734005, 0.32478124, -0.48384306, 0.12616591, -1.1435978, -1.3725462, 0
899, 2854652213, -0.8015398, -0.1152108, 0.33345646, -0.48278192, -0.37976685, -0.28240722, -0.6547394, 0
900, 2854668880, -0.79983604, -0.120132685, 0.33647332, -0.48231453, -0.20531587, -0.3612345, -0.601943, 0
901, 2854685547, -0.798353, -0.12860338, 0.3392253, -0.48065683, -0.19312212, -0.4658047, -1.7111845, 0
903, 2854718881, -0.79458797, -0.14593318, 0.34359878, -0.47883648, 0.16276264, -0.13419789, -0.9108362, 0
904, 2854735548, -0.79262984, -0.15386829, 0.3464918, -0.47751135, -0.09577351, -0.35763752, -0.7265167, 0
905, 2854752215, -0.7902295, -0.16250244, 0.35002404, -0.47605097, -0.53993446, -0.26826838, -1.7889299, 0
907, 2854785549, -0.78360605, -0.1790919, 0.35866517, -0.47461364, -1.0050579, 0.13912699, -1.3244963, 0
908, 2854802216, -0.77993375, -0.18702741, 0.36376297, -0.4737209, -0.043978184, -0.54014456, -1.8932519, 0
910, 2854835550, -0.7728936, -0.20144972, 0.3723984, -0.47263506, 0.20014423, 0.06034766, -1.3887053, 0
911, 2854852217, -0.76979154, -0.20691912, 0.37745786, -0.47131956, -0.96061, 1.2043731, -0.07904816, 0
914, 2854902218, -0.7586782, -0.22486869, 0.3932141, -0.46822548, -0.68685174, 0.5037891, 0.23444176, 0
915, 2854918885, -0.75595075, -0.22870839, 0.3984536, -0.466344, -0.73383015, 0.7089221, 0.34354305, 0
916, 2854935552, -0.7532268, -0.23228014, 0.40377995, -0.46440095, -0.15402032, 0.28939518, 0.08182716, 0
918, 2854968886, -0.7468154, -0.24169719, 0.41539854, -0.45967835, -0.024867157, -0.11949103, -0.936121, 0
919, 2854985553, -0.7445058, -0.2446411, 0.4233337, -0.4546003, -0.43672487, 0.4145069, -1.1812315, 0
920, 2855002220, -0.7416364, -0.2477737, 0.4313176, -0.4500665, -1.12557, 0.76351935, -1.335618, 0
922, 2855035554, -0.7388208, -0.2517463, 0.44340158, -0.4406516, -1.0359247, 0.18022442, -1.3393497, 0
923, 2855052221, -0.7375801, -0.2538713, 0.44779292, -0.4370556, -1.2836403, -0.18016742, -0.07457352, 0
924, 2855068888, -0.73638874, -0.2567848, 0.45187974, -0.43313843, -0.68230546, -1.118707, 0.11279106, 0
926, 2855102222, -0.7334766, -0.26222163, 0.45958304, -0.42666915, -0.6537754, -0.6538809, 0.83298683, 0
928, 2855135556, -0.7290211, -0.2657658, 0.4664865, -0.42461532, -0.10563133, -0.6439316, 0.71320724, 0
930, 2855168890, -0.72543347, -0.26706114, 0.4715341, -0.42437142, -0.7801143, -0.7284875, 0.6516638, 0
931, 2855185557, -0.7242629, -0.26832283, 0.4731233, -0.42380577, -1.1183698, -0.4384124, 0.46916294, 0
932, 2855202224, -0.723751, -0.26857808, 0.47490716, -0.42252147, -0.9557146, -0.097209476, -0.03470421, 0
934, 2855235558, -0.7226095, -0.27063915, 0.47713745, -0.42064366, 0.24862866, 0.6041268, 0.66536236, 0
935, 2855252225, -0.72238356, -0.2709343, 0.47841135, -0.41939276, -0.57103133, 0.43793753, 0.30178738, 0
936, 2855268892, -0.7233202, -0.27048308, 0.4792872, -0.41706344, -0.35082185, 0.1552944, -0.2247963, 0
938, 2855302226, -0.7258082, -0.26871863, 0.47999597, -0.41304687, -0.29737058, -0.21503846, 0.0650177, 0
939, 2855318893, -0.72642136, -0.26707166, 0.4805188, -0.4124288, -0.42803088, -0.21227238, -0.2274437, 0
941, 2855352227, -0.72830504, -0.26399338, 0.480288, -0.41135606, -0.085371666, -0.29905722, -0.19915581, 0
943, 2855385561, -0.72991884, -0.2590262, 0.4801318, -0.4118354, -0.39813647, -0.32837832, 9.1934204E-4, 0
945, 2855418895, -0.7327615, -0.24793622, 0.48086652, -0.41275492, -0.054780565, 0.53221375, -1.2629232, 0
946, 2855435562, -0.73419684, -0.24198887, 0.47988665, -0.41486877, 0.36543787, 0.9016335, -1.1526127, 0
947, 2855452229, -0.73556817, -0.23648305, 0.4773586, -0.4185152, 1.173167, 0.3793268, -0.9148903, 0
949, 2855485563, -0.73961693, -0.22576943, 0.47046018, -0.42505684, 0.8651914, -0.15609749, 0.3473091, 0
950, 2855502230, -0.7417098, -0.21948138, 0.4670186, -0.42848474, 0.273528, 0.11821701, 0.54334164, 0
953, 2855552231, -0.75111204, -0.19897537, 0.45039016, -0.4397717, 0.35766408, 0.7592941, -1.6686306, 0
954, 2855568898, -0.7545215, -0.19467269, 0.44126517, -0.4450798, 0.9139901, 0.99047965, -1.1939001, 0
955, 2855585565, -0.75752926, -0.19064464, 0.43150562, -0.45124036, 0.8583014, 0.15782563, -0.5774479, 0
957, 2855618899, -0.7623149, -0.178977, 0.41199583, -0.46595448, 0.2123125, 0.46741828, -0.28236103, 0
958, 2855635566, -0.7660295, -0.16940361, 0.40167528, -0.47240788, -0.12397593, 0.58747584, -1.9472418, 0
959, 2855652233, -0.7697507, -0.15971062, 0.39044142, -0.47910625, 5.0737443E-5, 1.4573814, -3.405788, 0
961, 2855685567, -0.778652, -0.13817811, 0.36353707, -0.49240184, 0.7312544, 1.4108586, -0.93740654, 0
962, 2855702234, -0.7842305, -0.12560996, 0.34752318, -0.4984409, 0.9882576, 1.1781821, 1.0709782, 0
964, 2855735568, -0.7934278, -0.10248075, 0.3179852, -0.5087892, 2.0252132, 1.6638713, -0.9163208, 0
965, 2855752235, -0.7953277, -0.09281851, 0.3098493, -0.5126823, 3.0372047, 4.510632, -2.4184856, 0
966, 2855768902, -0.7958108, -0.08225113, 0.30523574, -0.51649016, 2.1472218, 6.107775, -3.5276432, 0
969, 2855818903, -0.79806656, -0.057347875, 0.30737036, -0.51510704, 1.668193, 1.1878344, -0.8156738, 0
970, 2855835570, -0.7980615, -0.051339313, 0.3112303, -0.51342845, -0.69977814, -1.178046, 0.24137688, 0
973, 2855885571, -0.78967744, -0.049452987, 0.3195128, -0.52142733, 0.4655663, -6.3788524, 7.389168, 0
974, 2855902238, -0.78487724, -0.05012405, 0.32379434, -0.52595013, 0.1342906, -3.0908868, 7.618452, 0
976, 2855935572, -0.7816769, -0.052162338, 0.3289895, -0.52729225, -1.5110906, -0.5244545, 4.1738834, 0
977, 2855952239, -0.78181267, -0.05401404, 0.32953385, -0.52656424, -0.23510881, -0.32764557, 3.845173, 0
978, 2855968906, -0.7816725, -0.057458267, 0.3281501, -0.52727145, 0.68940425, -0.41419795, 3.3721027, 0
980, 2856002240, -0.7771764, -0.067495555, 0.32469782, -0.5348116, 2.2298694, -1.8085966, 3.319211, 0
981, 2856018907, -0.77369815, -0.07502378, 0.32469192, -0.53884023, 1.2321754, -1.2526988, 1.4657183, 0
982, 2856035574, -0.7697064, -0.08395198, 0.3261205, -0.54236573, -0.053405292, -0.13128287, 0.46745396, 0
984, 2856068908, -0.7614715, -0.10246626, 0.33016697, -0.54832715, -0.9991877, 1.4754839, -1.8232012, 0
985, 2856085575, -0.7585396, -0.11105766, 0.33269554, -0.5491892, -1.1219239, 2.069534, -1.9920073, 0
988, 2856135576, -0.75658303, -0.13567844, 0.33950597, -0.5421441, -0.17840648, 0.99023616, -1.7427311, 0
989, 2856152243, -0.75530106, -0.14524049, 0.3407363, -0.54068065, 0.34128103, 0.62467605, -1.2558479, 0
991, 2856185577, -0.75048894, -0.16159478, 0.34711286, -0.5386808, 0.36141196, -0.22932954, -0.4943943, 0
992, 2856202244, -0.748351, -0.16795576, 0.3523356, -0.5363138, -0.27350476, -0.57581, -1.3654766, 0
993, 2856218911, -0.7452765, -0.17788672, 0.3566838, -0.5345155, -0.84726465, -1.2271521, -2.1028972, 0
995, 2856252245, -0.73957986, -0.19403432, 0.36422688, -0.5317161, -0.09421384, -0.39374512, -1.5406771, 0
996, 2856268912, -0.73580843, -0.20325212, 0.36698836, -0.5316061, -0.69402516, 1.0555518, -0.050790787, 0
997, 2856285579, -0.7320897, -0.21099725, 0.37005213, -0.5315986, 0.21812026, 1.1783187, 0.30716038, 0
999, 2856318913, -0.7257079, -0.2255721, 0.3773036, -0.52926207, -0.108709104, -0.08086967, 1.0932465, 0
1000, 2856335580, -0.723469, -0.2322101, 0.38174295, -0.5262647, -0.57154274, 0.2850538, 0.3660946, 0
1003, 2856385581, -0.7192624, -0.2560219, 0.38961, -0.5151015, 0.1649282, 0.5851719, -0.09774494, 0
1004, 2856402248, -0.71820974, -0.26302472, 0.39180362, -0.5113648, 0.27282283, 0.123073384, -0.55861855, 0
1005, 2856418915, -0.7173865, -0.27024755, 0.3938818, -0.5071403, 0.4892388, -0.037082028, -1.4360933, 0
1007, 2856452249, -0.71509767, -0.28208485, 0.39952075, -0.49945724, -0.19090308, -0.33574742, -0.9607086, 0
1008, 2856468916, -0.7150184, -0.285505, 0.40262967, -0.49511197, -0.9156226, 0.1413725, -0.63174915, 0
1009, 2856485583, -0.71510214, -0.28884196, 0.40577027, -0.49046987, -1.1144747, -0.47363156, -1.2957363, 0
1011, 2856518917, -0.7153599, -0.2955903, 0.4109371, -0.48169315, -0.5583369, -0.41577947, -0.94022083, 0
1012, 2856535584, -0.7156657, -0.29836124, 0.41321287, -0.47756594, 0.019381925, -0.69855267, -0.9053297, 0
1013, 2856552251, -0.7162034, -0.29962268, 0.41572168, -0.47377783, -0.013766163, -0.72928107, -0.43657494, 0
1015, 2856585585, -0.71699506, -0.30199078, 0.4204993, -0.46680924, -1.1804783, -0.5235867, -0.06256008, 0
1017, 2856618919, -0.7167503, -0.3033451, 0.42736185, -0.46002555, -0.8962324, -0.96734315, -0.55119705, 0
1019, 2856652253, -0.71454906, -0.30401102, 0.4362673, -0.45461947, -0.63541186, -0.6807917, 0.19245243, 0
1020, 2856668920, -0.7133584, -0.3038416, 0.4399664, -0.4530351, -0.41472068, -0.5404225, 0.572422, 0
1022, 2856702254, -0.7112214, -0.30480254, 0.44611984, -0.44971955, 0.2376126, -0.6300262, 0.6801462, 0
1023, 2856718921, -0.7107387, -0.3049866, 0.44865504, -0.4478317, 0.58620566, -0.7816704, 0.7171316, 0
1024, 2856735588, -0.71060765, -0.30515167, 0.4513822, -0.4451791, 0.52357733, -0.4243939, 0.75482464, 0
1026, 2856768922, -0.71219057, -0.3049995, 0.45643637, -0.43753517, -0.2177946, 0.23142241, 0.41642666, 0
1027, 2856785589, -0.71347463, -0.304514, 0.45887217, -0.43321192, -0.5462165, 0.10767189, 0.116903305, 0
1028, 2856802256, -0.71486473, -0.30385146, 0.46154594, -0.42851958, -0.48942944, -0.08071455, -0.19401741, 0
1030, 2856835590, -0.7173984, -0.30281043, 0.4667784, -0.41925448, 0.08189873, -0.27177253, -0.85061264, 0
1031, 2856852257, -0.71853864, -0.30285728, 0.46771204, -0.41621625, 0.71080226, -0.3287269, -0.65383244, 0
1032, 2856868924, -0.7196209, -0.30194676, 0.4681032, -0.41456527, 1.3347567, -0.1607874, 0.2965393, 0
1034, 2856902258, -0.7217044, -0.29779017, 0.4689678, -0.4129697, 0.22752456, -0.18796848, 0.06152439, 0
1035, 2856918925, -0.7227679, -0.29409096, 0.4695804, -0.4130648, 0.05065036, -0.08295308, 0.20439339, 0
1036, 2856935592, -0.7238719, -0.28990436, 0.4700055, -0.41360715, -0.20388092, -0.16686471, -0.19477367, 0
1038, 2856968926, -0.726331, -0.28045234, 0.46844673, -0.41756254, 0.44442198, -0.030798744, -1.2809725, 0
1039, 2856985593, -0.72813785, -0.2750955, 0.46519282, -0.42159748, 0.66132724, -0.40331316, -0.66160107, 0
1040, 2857002260, -0.73044074, -0.2698921, 0.4602189, -0.4264084, 0.98033005, -0.71900195, 0.16363811, 0
1042, 2857035594, -0.73478556, -0.2562562, 0.4523805, -0.4356443, 0.05503023, -0.7985314, -0.6201649, 0
1045, 2857085595, -0.73886055, -0.23682855, 0.43867785, -0.45339823, 0.51072174, 0.72930425, -1.4022112, 0
1046, 2857102262, -0.7410997, -0.23109853, 0.43104345, -0.4599753, 0.5881225, 0.38025063, 0.27173615, 0
1047, 2857118929, -0.7437668, -0.22377627, 0.42305255, -0.46666116, 0.21988086, -0.31254476, 0.39675236, 0
1049, 2857152263, -0.75084037, -0.2073253, 0.4035917, -0.47997904, 0.36081585, 0.12525001, -1.5061674, 0
1050, 2857168930, -0.75382566, -0.19971317, 0.3917163, -0.48829404, 1.1226709, 0.6346385, -1.4234486, 0
1051, 2857185597, -0.75627404, -0.19077577, 0.3795202, -0.49762404, 1.1009526, 0.66591614, -0.5784588, 0
1053, 2857218931, -0.7632693, -0.16534945, 0.35872635, -0.511279, 0.89889246, 2.19016, -1.031043, 0
1054, 2857235598, -0.7686346, -0.15305042, 0.34679037, -0.51529026, -1.0691036, 1.4064307, -1.1131973, 0
1055, 2857252265, -0.7761391, -0.14667338, 0.33035684, -0.51669186, -0.5232559, 1.4605432, -0.8472805, 0
1057, 2857285599, -0.78520125, -0.13893995, 0.30437216, -0.5210791, 5.6161456, 1.3181478, 2.5914097, 0
1059, 2857318933, -0.7861576, -0.12134757, 0.29834267, -0.52747846, 3.8838425, 5.3532186, 1.547121, 0
1061, 2857352267, -0.7839098, -0.11228171, 0.3028678, -0.53024554, 2.2464263, 1.7016059, 0.99711514, 0
1062, 2857368934, -0.7831986, -0.110176, 0.30848268, -0.52849853, 1.5446044, 0.35777646, 1.0183601, 0
1063, 2857385601, -0.78275996, -0.11213745, 0.3150673, -0.5248388, -2.7239218, -3.0016928, -0.1568203, 0
1065, 2857418935, -0.78297734, -0.11430596, 0.32086006, -0.52051944, -0.92816126, -1.5569625, 3.268775, 0
1067, 2857452269, -0.78061557, -0.11481089, 0.31907532, -0.5250332, 0.9778249, -2.9286902, 6.9831066, 0
1069, 2857485603, -0.77541226, -0.119574904, 0.32600874, -0.52741534, -2.3307617, 1.1572455, 2.07625, 0
1070, 2857502270, -0.77607393, -0.11990201, 0.32732594, -0.5255487, -2.60572, 2.9577744, 0.55543995, 0
1072, 2857535604, -0.7819479, -0.11579354, 0.3278463, -0.5173751, 0.024335643, -0.80993396, -1.0267181, 0
1073, 2857552271, -0.7845954, -0.11626044, 0.32639706, -0.51416886, 2.0841653, -1.0605375, 0.3610363, 0
1076, 2857602272, -0.7837074, -0.121496335, 0.3335865, -0.50967884, 0.32592347, -1.1976237, -0.44735622, 0
1077, 2857618939, -0.78304255, -0.124130964, 0.33801937, -0.5071386, -1.2324626, -0.99507743, -1.354331, 0
1078, 2857635606, -0.7830031, -0.12663284, 0.34121883, -0.5044315, -1.6175551, -0.6941429, -1.9184518, 0
1080, 2857668940, -0.7847851, -0.13550265, 0.34305164, -0.49807447, -0.16610946, -0.6855608, -1.5900183, 0
1081, 2857685607, -0.78424037, -0.14215484, 0.34220436, -0.49766082, 0.40054348, -1.1976979, -0.5158386, 0
1082, 2857702274, -0.78275853, -0.14783756, 0.3432063, -0.497648, 0.33405888, -1.3120215, 0.08196068, 0
1084, 2857735608, -0.77881765, -0.15898609, 0.35009986, -0.49558812, -0.531014, -0.4460353, -1.4352369, 0
1085, 2857752275, -0.7760732, -0.16740367, 0.35270146, -0.49527693, -0.7622338, -1.1529884, -2.1843452, 0
1086, 2857768942, -0.77312404, -0.17427322, 0.35537875, -0.49560547, -0.9378988, -0.5015539, -1.3636036, 0
1088, 2857802276, -0.76585263, -0.18824854, 0.3619718, -0.49701083, -0.42753515, 0.13204715, -1.9867167, 0
1090, 2857835610, -0.75788903, -0.2010836, 0.37141022, -0.49722743, -1.2924858, 0.9118032, -1.1032972, 0
1092, 2857868944, -0.75058335, -0.21233681, 0.3839842, -0.49406976, -1.528306, 1.4656677, -0.59971905, 0
1093, 2857885611, -0.7475779, -0.2191351, 0.38816896, -0.4923851, -0.7443281, 1.4649267, -0.95919895, 0
1094, 2857902278, -0.74473417, -0.22643264, 0.39089504, -0.49123442, -0.22888575, 1.4233681, -0.4315691, 0
1096, 2857935612, -0.73999584, -0.23814002, 0.3987431, -0.48652905, 0.24604909, 0.26500276, 0.27739143, 0
1097, 2857952279, -0.7379652, -0.24237284, 0.4045346, -0.4827272, -0.16090876, 0.4465457, 0.35528564, 0
1099, 2857985613, -0.73510015, -0.24915576, 0.4166188, -0.47327486, -0.39455447, 0.053502407, 0.4105749, 0
1100, 2858002280, -0.735219, -0.25075155, 0.42199326, -0.46745008, -0.22038579, -0.0068260855, 0.526803, 0
1101, 2858018947, -0.7354514, -0.25249192, 0.42644474, -0.46207672, -0.6078629, 0.34778997, 0.8210087, 0
1103, 2858052281, -0.7339576, -0.25831914, 0.4337844, -0.45433408, 0.27411583, 0.173531, 0.14863682, 0
1104, 2858068948, -0.733756, -0.26009184, 0.43654945, -0.4509878, 0.7249719, -0.032842547, -0.2236309, 0
1105, 2858085615, -0.7328612, -0.26251674, 0.43889397, -0.44875664, -0.2760738, -0.6688414, -0.0032434464, 0
1107, 2858118949, -0.73114246, -0.26670298, 0.44383088, -0.4442131, -0.6451889, -0.715446, -0.74894905, 0
1108, 2858135616, -0.7303961, -0.26870033, 0.44575948, -0.44230235, -1.3220114, -0.8378214, -0.8217602, 0
1109, 2858152283, -0.73012686, -0.2702459, 0.44727457, -0.44027114, -1.4197581, -0.91547585, -0.71784306, 0
1111, 2858185617, -0.7292337, -0.27147156, 0.45022926, -0.43797934, -1.1490068, -0.29852602, 0.21864605, 0
1112, 2858202284, -0.7280216, -0.27375326, 0.4506245, -0.438169, -0.65931314, -0.3737209, 0.13844395, 0
1113, 2858218951, -0.7262587, -0.2774064, 0.4501077, -0.43932685, 0.36210528, -0.76180774, -0.3347664, 0
1115, 2858252285, -0.722782, -0.2831026, 0.4499874, -0.44154435, 0.09632425, -0.8804187, 0.046178818, 0
1117, 2858285619, -0.7198001, -0.2855749, 0.45302412, -0.44171813, -1.2166913, 0.31039268, 0.040467262, 0
1119, 2858318953, -0.7164999, -0.28786075, 0.45834523, -0.44010758, -0.6143428, 0.6277754, -0.11310005, 0
1120, 2858335620, -0.71532726, -0.2891116, 0.46057245, -0.43886858, -0.4236154, 0.27190843, -0.20281696, 0
1121, 2858352287, -0.71412635, -0.29045677, 0.46249813, -0.4379096, 0.19045137, 0.05359103, 0.14178562, 0
1123, 2858385621, -0.71072227, -0.29340369, 0.4665999, -0.43713135, 0.04541694, -0.29297832, 0.13379383, 0
1124, 2858402288, -0.7085134, -0.2941123, 0.46901143, -0.43765986, 0.52268726, 0.08095762, 0.828269, 0
1126, 2858435622, -0.7059011, -0.29244605, 0.47575822, -0.43571115, -0.9161948, 0.4494945, -0.32897186, 0
1127, 2858452289, -0.7051103, -0.29194272, 0.47988677, -0.43279183, -1.0054431, 0.42988113, -0.44310284, 0
1128, 2858468956, -0.7042197, -0.29092187, 0.4853211, -0.4288513, -1.0087395, 0.30548522, -0.6581602, 0
1130, 2858502290, -0.7037584, -0.2861343, 0.49775344, -0.41845435, 0.09150978, 0.6082441, -1.9074225, 0
1132, 2858535624, -0.70423037, -0.2814836, 0.5084888, -0.40777016, 0.62238723, 0.89108604, -0.7851429, 0
1134, 2858568958, -0.7038238, -0.27583736, 0.51651, -0.4022119, 0.36190656, 0.14757206, 0.7635622, 0
1135, 2858585625, -0.70399404, -0.27326763, 0.5190802, -0.4003548, 0.4781671, -0.23248638, -0.15422821, 0
1136, 2858602292, -0.7030511, -0.27198067, 0.5204589, -0.40109766, 1.1210548, -1.4222988, -0.32857704, 0
1138, 2858635626, -0.7017859, -0.2657926, 0.5215342, -0.40603453, 0.6536681, -0.36179566, 0.96606255, 0
1139, 2858652293, -0.70169723, -0.26174507, 0.5209526, -0.40954843, 0.17972632, -0.04132956, 0.9081869, 0
1140, 2858668960, -0.7030038, -0.25671527, 0.5185712, -0.41349465, -0.29784933, 0.607394, 0.7966118, 0
1142, 2858702294, -0.7076663, -0.24647829, 0.50925404, -0.42323542, -0.25652537, 1.3082262, 0.7649231, 0
1143, 2858718961, -0.71207714, -0.24207681, 0.5017524, -0.42731798, 0.9322207, 0.26946765, 0.615551, 0
1144, 2858735628, -0.7169701, -0.2365258, 0.49252948, -0.432938, 0.8319018, 0.42184538, 1.0071287, 0
1147, 2858785629, -0.73124516, -0.21371612, 0.45913604, -0.45695844, 0.12219163, 1.2135705, -2.3614945, 0
1148, 2858802296, -0.736862, -0.20613609, 0.44522142, -0.46511418, 1.3156219, 2.6531498, -3.183402, 0
1151, 2858852297, -0.75264084, -0.17594635, 0.4014418, -0.49135542, -0.7162729, 1.4487963, 1.1013002, 0
1152, 2858868964, -0.7594287, -0.16453972, 0.38621286, -0.49703664, 0.5620291, 1.2998824, 1.3459015, 0
1154, 2858902298, -0.7705019, -0.14499329, 0.35505933, -0.50916386, 4.2970257, 2.2855062, 2.278534, 0
1155, 2858918965, -0.7727409, -0.13936631, 0.34299374, -0.51557255, 6.346993, 3.3207638, 2.9635534, 0
1157, 2858952299, -0.7703076, -0.13168103, 0.33409017, -0.52695465, 3.361063, 2.8344924, -1.3338032, 0
1158, 2858968966, -0.76905483, -0.13168003, 0.3337002, -0.52902794, 2.6901326, 0.7619773, -0.508049, 0
1159, 2858985633, -0.7673712, -0.13219777, 0.33631083, -0.5296898, 0.64173764, -1.2410486, 0.538888, 0
1162, 2859035634, -0.75587946, -0.14386268, 0.34267977, -0.53900963, -3.2617993, -1.9535176, 1.1027412, 0
1165, 2859085635, -0.74939513, -0.14143506, 0.3404982, -0.54997754, -0.37090656, -0.057323474, 3.0542831, 0
1166, 2859102302, -0.75171983, -0.13993661, 0.34212795, -0.54616344, -0.4031539, -0.5527714, 1.2591124, 0
1167, 2859118969, -0.75368094, -0.13919854, 0.34352452, -0.54276216, -0.29918095, -0.7156681, 1.141223, 0
1169, 2859152303, -0.75565565, -0.1379442, 0.34664652, -0.53833365, 0.37253106, -1.1837956, 0.2177248, 0
1170, 2859168970, -0.7558749, -0.13886046, 0.34787655, -0.53699535, 0.55762416, -1.5422117, -0.69737816, 0
1171, 2859185637, -0.7553053, -0.14096965, 0.34859973, -0.5367781, 1.030435, -1.5340188, -0.4368124, 0
1173, 2859218971, -0.752053, -0.14681864, 0.35365275, -0.53647107, 0.22577514, -0.5458423, -0.57449245, 0
1174, 2859235638, -0.75092614, -0.15010056, 0.3561564, -0.5354841, -0.718342, 0.009565349, -1.3723288, 0
1175, 2859252305, -0.7502924, -0.15318447, 0.35711008, -0.5348637, -0.96677554, 0.07778156, -1.1843281, 0
1177, 2859285639, -0.7500481, -0.15939322, 0.35876492, -0.53227854, -0.91777194, 0.12854151, -0.21759033, 0
1178, 2859302306, -0.75013053, -0.16220431, 0.3604201, -0.530191, -0.5297499, 0.88196385, -0.35044765, 0
1180, 2859335640, -0.75091803, -0.17112733, 0.36386493, -0.5238808, -0.0900042, 0.3301506, -1.1693401, 0
1181, 2859352307, -0.7513831, -0.17653275, 0.36643812, -0.5196092, -0.55777836, 0.40723753, -1.1064558, 0
1182, 2859368974, -0.7516065, -0.18269807, 0.3705743, -0.51419336, -0.98195076, -0.058989372, -0.8161192, 0
1184, 2859402308, -0.7524541, -0.19116066, 0.3815707, -0.50168234, -0.810311, -0.28283215, -2.0274525, 0
1185, 2859418975, -0.7520789, -0.19960919, 0.38289842, -0.4979292, -0.9273244, -0.08941284, -1.4402695, 0
1186, 2859435642, -0.75171274, -0.20545535, 0.38407585, -0.49518973, -0.8685868, 0.19720693, 0.28171062, 0
1188, 2859468976, -0.7484583, -0.21640837, 0.3891835, -0.49145165, 0.14857443, -0.3105294, -0.37896252, 0
1189, 2859485643, -0.7460535, -0.22230774, 0.39288312, -0.48952764, -0.10360563, -0.27628672, -0.8434, 0
1192, 2859535644, -0.7429703, -0.23007962, 0.40596688, -0.47985452, -1.4242328, -0.3842303, -0.6937742, 0
1193, 2859552311, -0.7433267, -0.2311974, 0.4077221, -0.47727025, -0.4621021, 0.3101659, 0.0924778, 0
1194, 2859568978, -0.7429463, -0.23362155, 0.40900475, -0.47558185, -0.9778124, 1.0240977, 1.0013809, 0
1196, 2859602312, -0.74230933, -0.23925987, 0.4123659, -0.47084716, 0.26918605, -0.4124498, 0.40490723, 0
1197, 2859618979, -0.7426786, -0.23998113, 0.41561154, -0.4670288, -0.07985246, -0.2361638, -0.17999458, 0
1198, 2859635646, -0.74280727, -0.24073038, 0.41915575, -0.46325564, -0.2187633, -0.48482558, -0.83703136, 0
1200, 2859668980, -0.74376523, -0.24050334, 0.42535806, -0.4561283, -1.0344747, -0.42720217, -0.5133934, 0
1201, 2859685647, -0.7438353, -0.24044141, 0.42852342, -0.45307407, -0.80669355, -0.4734009, -0.42938137, 0
1202, 2859702314, -0.74363375, -0.24017783, 0.43227974, -0.44996524, -0.38638037, -0.116533175, -0.5907278, 0
1204, 2859735648, -0.7427162, -0.23956913, 0.440369, -0.4439207, -0.85653967, -0.43004048, 0.18179321, 0
1207, 2859785649, -0.7419056, -0.24475433, 0.44347286, -0.43933403, 0.8436425, -0.991846, 0.26338387, 0
1208, 2859802316, -0.7405531, -0.24929844, 0.4435007, -0.4390326, 0.81209093, -1.0968299, 0.420331, 0
1209, 2859818983, -0.73858327, -0.25434127, 0.4438008, -0.43915516, 1.2799715, -2.1055238, 0.3028431, 0
1211, 2859852317, -0.7360341, -0.25776374, 0.44730002, -0.43788725, -0.94153315, -0.54101545, -0.23385715, 0
1212, 2859868984, -0.73486966, -0.25931814, 0.44898614, -0.43719912, -1.4199157, 0.76284724, -0.6597471, 0
1213, 2859885651, -0.7331033, -0.26287484, 0.4499563, -0.4370432, -1.3694341, 0.6172174, -0.8654432, 0
1215, 2859918985, -0.7284163, -0.27311963, 0.4512963, -0.43721634, 0.8001406, -0.23434797, 0.108325005, 0
1216, 2859935652, -0.72617495, -0.27705112, 0.45234227, -0.43739027, 0.116568714, 0.35845822, 0.48096657, 0
1217, 2859952319, -0.7244633, -0.27986205, 0.45293152, -0.4378292, 0.10879779, 0.9589936, 0.5917082, 0
1219, 2859985653, -0.7233861, -0.28329253, 0.4517278, -0.4386469, -0.23239313, 1.1643635, 0.16047192, 0
1221, 2860018987, -0.72497493, -0.2852086, 0.45010173, -0.43644822, 0.71204185, 0.24276435, -0.54703236, 0
1223, 2860052321, -0.7264882, -0.28516793, 0.44830364, -0.43580857, 0.2787953, 0.16152398, 0.24451828, 0
1224, 2860068988, -0.72823817, -0.2817468, 0.44896188, -0.43443322, -0.5079001, 0.33434945, -0.34238625, 0
1225, 2860085655, -0.73065, -0.27725375, 0.4501513, -0.43203688, -0.4324694, 1.2008804, -0.97188187, 0
1227, 2860118989, -0.7358905, -0.2690687, 0.44998437, -0.4284767, 0.43086436, 0.76527137, -1.3527031, 0
1228, 2860135656, -0.7384424, -0.26468864, 0.44922924, -0.42760596, 0.7048812, 0.42021677, -0.710969, 0
1229, 2860152323, -0.7409158, -0.25932014, 0.4487376, -0.42713314, 1.2292227, 0.114835255, -0.9319525, 0
1231, 2860185657, -0.746253, -0.24624258, 0.44733065, -0.42705673, 0.34809616, -0.093475245, -0.5591326, 0
1232, 2860202324, -0.75016296, -0.23866987, 0.44554415, -0.42637283, -0.023296308, 0.3092959, -0.12348461, 0
1233, 2860218991, -0.7541776, -0.23205659, 0.4418873, -0.4267465, 0.17037682, -0.38599604, -0.044333458, 0
1236, 2860268992, -0.7653042, -0.21164271, 0.42422447, -0.43538684, 0.8130758, -0.968602, 0.061275482, 0
1238, 2860302326, -0.7743041, -0.19669595, 0.4036559, -0.44591153, 0.8598186, -0.7275551, 0.6643019, 0
1239, 2860318993, -0.7792807, -0.18815108, 0.38978454, -0.45321053, 1.4990296, -0.12609081, -0.11388302, 0
1240, 2860335660, -0.78358805, -0.18212393, 0.3736879, -0.46172404, 0.5123328, -0.29815197, -0.93590164, 0
1242, 2860368994, -0.79027516, -0.17078796, 0.3380669, -0.48168296, 1.3765283, 0.48371646, -2.0204377, 0
1243, 2860385661, -0.79205537, -0.16568261, 0.3208283, -0.49221754, 1.4758949, 1.0560802, -1.5112629, 0
1244, 2860402328, -0.79102683, -0.1592975, 0.30636567, -0.505027, 1.7380358, 1.4348309, -0.9758444, 0
1246, 2860435662, -0.790349, -0.14591798, 0.28321868, -0.52331114, 0.9958369, 0.8994113, 0.9473648, 0
1247, 2860452329, -0.78999066, -0.14149985, 0.2746284, -0.5296063, 2.1771402, 1.3623912, 1.6641665, 0
1248, 2860468996, -0.78846526, -0.13821086, 0.26897892, -0.53561336, 2.8776329, 2.0101266, 1.4035568, 0
1250, 2860502330, -0.78207344, -0.13327202, 0.2702558, -0.5455022, 1.699239, 1.8574076, 0.95189, 0
1251, 2860518997, -0.779392, -0.13219666, 0.2762675, -0.546589, 0.9541033, 0.27338362, 1.0417414, 0
1252, 2860535664, -0.7769482, -0.13123643, 0.28326437, -0.5467182, 0.047735214, -1.5708531, 1.4456835, 0
1254, 2860568998, -0.7714665, -0.13403678, 0.29403564, -0.5481129, -3.517897, -1.8859069, 1.2004709, 0
1255, 2860585665, -0.76979685, -0.1344074, 0.2970007, -0.5487704, -2.0622878, -0.8433063, 2.5132446, 0
1256, 2860602332, -0.7687582, -0.13427946, 0.30024448, -0.54849255, 0.13077542, 0.31300306, 3.2406569, 0
1258, 2860635666, -0.77002, -0.13206472, 0.30878225, -0.5424875, 0.5134218, -0.08339475, 3.0050936, 0
1259, 2860652333, -0.7714341, -0.13203174, 0.31198213, -0.538642, 0.5977968, -0.57424825, 2.075758, 0
1261, 2860685667, -0.7711899, -0.1357941, 0.3156516, -0.5359116, 1.6084499, -1.6459045, 0.6489334, 0
1263, 2860719001, -0.76770866, -0.14147967, 0.3184731, -0.53776675, 1.2483429, -1.0997291, 0.54622555, 0
1265, 2860752335, -0.76386696, -0.14993188, 0.32325104, -0.53809613, -1.6151948, -0.14329214, -1.6537914, 0
1266, 2860769002, -0.7626626, -0.15412045, 0.3243425, -0.5379643, -2.319399, 0.15197265, -2.566728, 0
1267, 2860785669, -0.7621702, -0.1574193, 0.32428956, -0.5377388, -1.8718898, 0.298184, -1.9194198, 0
1269, 2860819003, -0.7639326, -0.16559409, 0.3216749, -0.5343425, -0.8826028, 0.3161109, -0.77330303, 0
1270, 2860835670, -0.76441246, -0.170174, 0.32101303, -0.5326124, -0.3949505, -0.19318058, -0.6758919, 0
1271, 2860852337, -0.7641071, -0.17463408, 0.32196563, -0.53102946, -0.48058817, -0.15799779, -0.78816223, 0
1273, 2860885671, -0.7630791, -0.17951162, 0.33006257, -0.52588546, -1.7121187, -0.40157294, -0.979229, 0
1274, 2860902338, -0.7634515, -0.18267849, 0.3338223, -0.5218659, -2.171713, -0.25774822, -1.7347612, 0
1275, 2860919005, -0.7643374, -0.18654218, 0.33657965, -0.51741225, -1.888085, -0.8226198, -1.306777, 0
1278, 2860969006, -0.7652838, -0.19897103, 0.3428818, -0.5071435, 0.5189696, -0.29750475, -0.37691498, 0
1279, 2860985673, -0.7644833, -0.20319028, 0.34624508, -0.50438535, 0.5721147, -0.12205243, -0.008919716, 0
1281, 2861019007, -0.763532, -0.20695126, 0.35826266, -0.49583167, -0.21746895, -0.3562608, 0.20283222, 0
1282, 2861035674, -0.7629878, -0.20885488, 0.36392492, -0.4917308, -0.7986945, -0.108096786, -0.21519947, 0
1283, 2861052341, -0.76254225, -0.21156472, 0.36743882, -0.48864067, 0.048350997, -0.21519357, -0.27079678, 0
1285, 2861085675, -0.76172644, -0.21650487, 0.37279353, -0.4836679, 0.085247844, 0.2808741, 0.26128674, 0
1286, 2861102342, -0.76103765, -0.22033563, 0.37659732, -0.48006195, 0.41560736, 0.092856556, -0.0041160583, 0
1288, 2861135676, -0.7613244, -0.22475445, 0.388145, -0.468215, -0.03573793, -0.19324885, -0.032549858, 0
1289, 2861152343, -0.76172143, -0.22708294, 0.3933601, -0.46205288, -0.6833155, -0.015628248, -0.6459646, 0
1290, 2861169010, -0.7612096, -0.23093686, 0.39653194, -0.45825928, -0.8986676, -0.29100633, -0.41665268, 0
1293, 2861219011, -0.75781584, -0.24203187, 0.40378755, -0.45177722, 0.2525236, -0.4105225, -0.8015623, 0
1294, 2861235678, -0.7557218, -0.24623807, 0.40616685, -0.45087793, 0.20330113, -0.57975787, -0.77564335, 0
1296, 2861269012, -0.7528504, -0.2508319, 0.41162848, -0.44818816, -1.1852988, -0.8205714, -0.3423891, 0
1297, 2861285679, -0.7515484, -0.25266543, 0.41402093, -0.44713852, -0.6218399, -0.94412255, -0.667923, 0
1298, 2861302346, -0.7495865, -0.2556606, 0.41622055, -0.44668686, -1.5895079, -0.6318598, -0.32614994, 0
1300, 2861335680, -0.745201, -0.2617823, 0.42216018, -0.4449015, -0.682531, -0.5064678, 0.09175682, 0
1301, 2861352347, -0.74269265, -0.26464492, 0.42435047, -0.44531834, 0.21200383, -0.27287847, 0.14832115, 0
1302, 2861369014, -0.74099374, -0.26626623, 0.4259377, -0.4456666, -1.2174867, 0.22042948, 0.48128128, 0
1304, 2861402348, -0.73814714, -0.26959392, 0.42898986, -0.44546202, -0.36375168, 0.18550457, 0.5795574, 0
1305, 2861419015, -0.73686063, -0.27157098, 0.43092465, -0.4445228, -0.65330666, 0.008176216, 0.09275246, 0
1308, 2861469016, -0.7334325, -0.27763557, 0.4350354, -0.4424369, -0.31715283, 0.3172222, -0.35554218, 0
1309, 2861485683, -0.7337679, -0.27809447, 0.4363797, -0.44026342, -0.71354544, 0.36313042, -1.1194725, 0
1310, 2861502350, -0.73496777, -0.27843505, 0.43704167, -0.43738082, -0.12925263, 0.64898705, -7.009506E-4, 0
1312, 2861535684, -0.73707974, -0.2784121, 0.43898413, -0.43186137, -0.05307673, 0.5567938, 0.055545807, 0
1313, 2861552351, -0.7378939, -0.2771746, 0.44028077, -0.42994285, 0.29919243, 0.90988404, -0.50280094, 0
1314, 2861569018, -0.7378447, -0.27655452, 0.44153103, -0.42914358, 0.26755664, 0.47293666, -0.82232, 0
1316, 2861602352, -0.7374838, -0.27338618, 0.4431483, -0.4301257, 0.37435055, 0.5122421, -0.8232832, 0
1317, 2861619019, -0.7374026, -0.27076778, 0.4437153, -0.43133533, 0.41239995, 0.5084712, -0.8827534, 0
1319, 2861652353, -0.7369017, -0.264662, 0.44773594, -0.4318257, -0.24035063, 0.6874485, -0.42054844, 0
1320, 2861669020, -0.7362044, -0.2619311, 0.45110098, -0.43117774, -0.071684405, 1.1441892, -0.96217537, 0
1321, 2861685687, -0.7356094, -0.25888997, 0.45417607, -0.43080163, -0.25851867, 0.9596874, -0.84374523, 0
1323, 2861719021, -0.73692125, -0.24872047, 0.4599175, -0.42845327, -0.16550039, 0.9555447, -1.6827822, 0
1324, 2861735688, -0.7387589, -0.24297293, 0.46109083, -0.4273237, -0.106471516, 0.5774763, -1.453783, 0
1325, 2861752355, -0.7409503, -0.23765618, 0.46128386, -0.42631024, -0.06613123, -0.0636623, -0.487957, 0
1327, 2861785689, -0.74568534, -0.22446735, 0.46168914, -0.42476076, -0.27038988, -0.08249137, 1.0554485, 0
1328, 2861802356, -0.7484034, -0.21743757, 0.4610608, -0.42432007, 0.15283726, 0.4527653, 1.0495386, 0
1329, 2861819023, -0.7521108, -0.21123058, 0.45784855, -0.42437792, 0.30894676, 0.3706824, 1.1984768, 0
1331, 2861852357, -0.7597185, -0.20315272, 0.44388613, -0.42957294, 0.28374702, -0.51966006, 2.0061073, 0
1332, 2861869024, -0.7628252, -0.19993398, 0.43580636, -0.43382952, 0.1513883, -1.0877246, 1.7961159, 0
1335, 2861919025, -0.77117604, -0.18529448, 0.410384, -0.45005518, 0.53150576, 1.1987674, -0.47182083, 0
1336, 2861935692, -0.7747448, -0.17817488, 0.3994915, -0.4565543, 0.009835911, 1.8729614, -1.4537458, 0
1339, 2861985693, -0.7907928, -0.15476912, 0.35495248, -0.4740388, 2.463037, 0.9990247, -0.013736725, 0
1340, 2862002360, -0.79487634, -0.14837155, 0.33906245, -0.48083812, 4.369772, 0.6709754, 0.89744854, 0
1342, 2862035694, -0.7925522, -0.13349496, 0.3217655, -0.50051814, 4.069841, 3.4965794, -0.911911, 0
1343, 2862052361, -0.7904557, -0.12643711, 0.31830865, -0.507823, 2.0581014, 3.9964743, -2.5190263, 0
1344, 2862069028, -0.7888534, -0.12271844, 0.31653148, -0.51231754, 2.514128, 2.715679, -2.1950684, 0
1346, 2862102362, -0.78231573, -0.11810757, 0.32623318, -0.5173159, 0.92786014, -0.17404418, -1.8971858, 0
1347, 2862119029, -0.77695346, -0.120704986, 0.33372718, -0.52001053, -2.2642467, -3.1404912, -0.9788351, 0
1348, 2862135696, -0.7713388, -0.12530023, 0.34004492, -0.5231797, -5.4500093, -4.764436, -0.8543587, 0
1351, 2862185697, -0.7567523, -0.13137007, 0.34647822, -0.5385459, -0.61216533, 2.6577263, 5.7902536, 0
1352, 2862202364, -0.75674665, -0.12965839, 0.34786844, -0.5380723, -0.25758973, 0.19664603, 4.4490337, 0
1354, 2862235698, -0.75865686, -0.12871863, 0.34748894, -0.5358489, 0.7575395, -1.1077592, 3.4060001, 0
1355, 2862252365, -0.75919956, -0.12937368, 0.34700513, -0.5352354, 0.522643, -0.94273174, 2.332778, 0
1356, 2862269032, -0.75926316, -0.13082565, 0.34612924, -0.5353595, 0.16714008, -0.8414762, 1.5155516, 0
1358, 2862302366, -0.7577546, -0.136016, 0.34469527, -0.53712565, 0.27176762, 0.6005677, 0.20755959, 0
1359, 2862319033, -0.75703794, -0.13861679, 0.3446639, -0.5374912, -0.39396954, 0.36007607, -0.25621796, 0
1360, 2862335700, -0.75695425, -0.14272398, 0.3440735, -0.5369122, -0.4206639, -0.10726675, -1.1623621, 0
1362, 2862369034, -0.75617325, -0.14959334, 0.34449008, -0.5358746, -1.0870444, 0.2804125, -0.34710026, 0
1363, 2862385701, -0.7558446, -0.15361454, 0.34471807, -0.53505343, -0.86022985, 0.2589316, -1.3087769, 0
1366, 2862435702, -0.7544954, -0.16697434, 0.34528884, -0.5325813, -0.69208217, 0.4636422, -0.53083515, 0
1367, 2862452369, -0.75415885, -0.16989897, 0.34755403, -0.53065616, -0.56215006, 0.5544821, -0.5808182, 0
1368, 2862469036, -0.752582, -0.17715517, 0.34929046, -0.5293806, -0.5719106, -0.9657673, -1.8664713, 0
1370, 2862502370, -0.7499093, -0.18728729, 0.3553855, -0.52561575, -1.0509058, 0.012201292, -0.67402554, 0
1371, 2862519037, -0.74890286, -0.19179255, 0.35957628, -0.5225669, -1.4421589, -0.38211194, -0.9231167, 0
1373, 2862552371, -0.7463488, -0.20557827, 0.36285025, -0.51870203, -0.44083884, 0.7800091, -1.2745581, 0
1374, 2862569038, -0.74472356, -0.21198508, 0.36370718, -0.5178585, -0.58197725, 0.45842183, -0.78511333, 0
1375, 2862585705, -0.7428351, -0.2152644, 0.36723986, -0.5167235, -0.575618, -0.602951, 0.44953537, 0
1377, 2862619039, -0.7407092, -0.22092018, 0.37462163, -0.51206803, -0.040903542, 0.46097738, -0.34660244, 0
1378, 2862635706, -0.73975515, -0.22556983, 0.37571183, -0.5106194, -0.48222652, 0.79187286, 0.023540497, 0
1381, 2862685707, -0.73574674, -0.23532972, 0.38298526, -0.5065866, 0.41690686, -0.04123758, 0.03034401, 0
1382, 2862702374, -0.73527, -0.23700237, 0.38810384, -0.50258774, -0.08158091, 0.012901176, -0.11712456, 0
1383, 2862719041, -0.73559725, -0.23841043, 0.39310846, -0.49752825, -0.8132637, 0.538267, -0.45635414, 0
1385, 2862752375, -0.7366967, -0.24292189, 0.4003442, -0.48785493, -1.1498343, 0.5199499, -0.13952446, 0
1386, 2862769042, -0.7363581, -0.24704182, 0.40358806, -0.483606, -0.07721188, -1.0919583, -1.4790678, 0
1387, 2862785709, -0.7360796, -0.2495791, 0.40681732, -0.48000818, -0.4298246, -0.12801358, -0.7919445, 0
1389, 2862819043, -0.735494, -0.25291553, 0.4132659, -0.47360808, -0.4484374, -1.1261537, -0.27838516, 0
1390, 2862835710, -0.7347592, -0.25361437, 0.41598427, -0.47199234, -0.51811755, -0.8075814, -0.35845947, 0
1391, 2862852377, -0.73399895, -0.25457445, 0.41815653, -0.4707374, -0.25112933, -0.42204735, -0.38397884, 0
1393, 2862885711, -0.7312397, -0.25927714, 0.42288002, -0.46823865, -0.7567512, -0.539713, 0.72750664, 0
1394, 2862902378, -0.73003405, -0.26054817, 0.42707178, -0.46560246, -1.0656226, 0.26435345, 0.5056219, 0
1396, 2862935712, -0.7296805, -0.26205423, 0.43349782, -0.45933062, -1.0963567, 0.19069321, 0.19321251, 0
1397, 2862952379, -0.72974527, -0.26412064, 0.43577075, -0.45588052, -0.46314275, -0.09948282, -0.114868164, 0
1398, 2862969046, -0.7294405, -0.2673399, 0.43750727, -0.45281804, 0.38227427, -0.76152664, -0.39007473, 0
1400, 2863002380, -0.72842085, -0.27072147, 0.44307256, -0.4470018, 0.8975903, -0.7683395, -0.39581394, 0
1401, 2863019047, -0.7277319, -0.27135065, 0.44598863, -0.44483745, 0.5021223, 0.02522489, -0.058638573, 0
1402, 2863035714, -0.72709763, -0.27254447, 0.4479483, -0.4431727, -0.104921006, 0.47192413, 0.2991705, 0
1404, 2863069048, -0.7258501, -0.27518037, 0.45065874, -0.44083452, -0.019505082, 0.5877328, -0.008998871, 0
1405, 2863085715, -0.7252472, -0.27687564, 0.4510585, -0.44035637, 0.2657283, 0.03458673, 0.26614857, 0
1408, 2863135716, -0.72421414, -0.28017056, 0.45303717, -0.43793452, -0.67635334, 0.10102875, -0.5290146, 0
1409, 2863152383, -0.7238821, -0.28084376, 0.45315245, -0.43793315, -0.3029356, 0.3917962, 0.53877354, 0
1410, 2863169050, -0.72389555, -0.2816647, 0.4533848, -0.43714255, -0.3224845, 0.61985856, -0.056990623, 0
1412, 2863202384, -0.7245833, -0.27999339, 0.45400575, -0.43643185, 0.18775266, 0.623554, -0.29217148, 0
1413, 2863219051, -0.72555363, -0.27882543, 0.4533205, -0.43627945, 0.6591625, 0.86986583, 0.06223488, 0
1414, 2863235718, -0.7266679, -0.27752575, 0.45218858, -0.43642837, 0.42517528, 0.36537975, 0.11950493, 0
1416, 2863269052, -0.72859895, -0.27360278, 0.45010298, -0.43783936, -0.547115, -0.09267462, 0.36150265, 0
1417, 2863285719, -0.7295975, -0.26869053, 0.45053387, -0.4387746, -1.0352957, 0.82322145, 0.61932564, 0
1418, 2863302386, -0.7308371, -0.26486456, 0.4500757, -0.43950737, -0.39257124, 0.9234847, -0.49564266, 0
1420, 2863335720, -0.73522735, -0.25866315, 0.4427334, -0.44331956, 0.62788546, -0.6577917, 0.035256386, 0
1423, 2863385721, -0.7434329, -0.2474249, 0.42626634, -0.45210224, -0.6768102, -0.9155208, -0.95948505, 0
1424, 2863402388, -0.74688935, -0.24283332, 0.4224193, -0.4525053, -0.7547523, 0.6911728, -1.5418587, 0
1425, 2863419055, -0.74958307, -0.23992139, 0.4177525, -0.45393455, -0.2665155, 1.0757076, -2.163548, 0
1427, 2863452389, -0.7551355, -0.23129208, 0.40416905, -0.46144655, 0.24518098, 0.4261062, -0.28445435, 0
1429, 2863485723, -0.7637714, -0.21898012, 0.38298956, -0.47120172, -0.1128318, -0.24834178, -0.8943052, 0
1431, 2863519057, -0.77012104, -0.20362678, 0.36233407, -0.48391604, 0.8563269, 2.468897, -4.0601482, 0
1432, 2863535724, -0.771903, -0.19457173, 0.35312253, -0.49155188, 1.2535357, 2.950569, -4.0745873, 0
1433, 2863552391, -0.77373433, -0.18346818, 0.3444367, -0.49904817, 0.7915747, 2.732993, -1.4175777, 0
1435, 2863585725, -0.781311, -0.16154352, 0.32681355, -0.5066169, 2.581503, 0.81827325, 2.6121368, 0
1436, 2863602392, -0.7839211, -0.15449843, 0.3173925, -0.51075524, 3.5836217, 2.316715, 1.7549324, 0
1439, 2863652393, -0.7761817, -0.13852116, 0.31140447, -0.530464, 3.087624, 1.5672643, 0.6097269, 0
1440, 2863669060, -0.7720994, -0.13368788, 0.31733266, -0.53413576, 0.84203094, -0.0515194, 1.4652472, 0
1441, 2863685727, -0.76870596, -0.1314727, 0.3238088, -0.5356911, -1.0561275, -2.2413447, 0.7367163, 0
1444, 2863735728, -0.7607013, -0.1335254, 0.33304912, -0.5409193, -1.4670953, -1.5998304, 3.572238, 0
1445, 2863752395, -0.75846076, -0.13095707, 0.33478647, -0.5436144, -0.3024157, -1.3304126, 4.6548977, 0
1447, 2863785729, -0.7577319, -0.12554568, 0.3386397, -0.54352057, 0.15056995, -1.4355109, 3.4766607, 0
1448, 2863802396, -0.7589549, -0.1255326, 0.33854124, -0.54187626, 0.039538857, -1.2016072, 2.7429495, 0
1449, 2863819063, -0.75933105, -0.12651101, 0.33720872, -0.5419526, 0.6704378, -0.7593246, 1.7347822, 0
1452, 2863869064, -0.7564079, -0.13563915, 0.334324, -0.5456077, 0.6265971, -1.0882293, 0.49233723, 0
1454, 2863902398, -0.7518171, -0.14537835, 0.33407155, -0.54958475, -0.44073245, -0.71634465, -0.87445927, 0
1456, 2863935732, -0.7484535, -0.15512413, 0.33279407, -0.5522797, -1.2894427, 1.0784601, -1.624793, 0
1458, 2863969066, -0.7468655, -0.16321701, 0.33243585, -0.55231285, -1.0529217, 1.0004789, -1.1039877, 0
1459, 2863985733, -0.74661535, -0.16744706, 0.33361864, -0.5506693, -1.005602, 0.5302293, -1.2172966, 0
1460, 2864002400, -0.74690574, -0.16990817, 0.3359838, -0.54807746, -0.3867943, 0.79934657, -1.3727779, 0
1462, 2864035734, -0.7478988, -0.17758687, 0.3405372, -0.5414384, -0.5103217, 0.5842454, -0.61574745, 0
1463, 2864052401, -0.7485754, -0.18239535, 0.3435114, -0.5370082, -0.4561363, -1.6859913, -1.0036573, 0
1464, 2864069068, -0.7498612, -0.18441558, 0.34677354, -0.5324081, -0.6784568, -0.041940972, -0.0048513412, 0
1466, 2864102402, -0.7519203, -0.19418521, 0.3498939, -0.5239212, -0.27466413, 0.40383953, 0.4838953, 0
1467, 2864119069, -0.7513637, -0.20024729, 0.35121956, -0.5215454, 0.36007914, 0.012306176, 0.4184723, 0
1468, 2864135736, -0.75019526, -0.20564106, 0.35350046, -0.5195837, 1.1025411, -0.27218217, -0.08496189, 0
1470, 2864169070, -0.7458259, -0.21589422, 0.35956454, -0.5175498, 0.6645552, -0.24750377, 0.1972084, 0
1471, 2864185737, -0.7428232, -0.22199638, 0.36347663, -0.5165529, 0.61305, -0.9121728, -0.48208332, 0
1472, 2864202404, -0.740688, -0.22670323, 0.36736235, -0.51482296, -0.03880073, 0.18735258, 0.4492817, 0
1474, 2864235738, -0.73626626, -0.23805234, 0.3749908, -0.510525, -0.87816584, -0.053164456, 0.164361, 0
1475, 2864252405, -0.7348923, -0.24190593, 0.37899747, -0.50772697, -0.29321325, 0.36922798, 0.27296638, 0
1477, 2864285739, -0.7321533, -0.252968, 0.38484782, -0.50185835, -0.19295582, 0.37071836, -0.6221142, 0
1478, 2864302406, -0.731078, -0.25820565, 0.38732153, -0.49884644, 0.12518468, 0.20028068, -1.0324373, 0
1479, 2864319073, -0.73014987, -0.26271123, 0.3901982, -0.49560112, 0.17192103, 0.15472707, -1.1248131, 0
1481, 2864352407, -0.72994965, -0.26826876, 0.39614704, -0.48814327, -0.27629662, -0.43292242, -0.48612595, 0
1483, 2864385741, -0.72971845, -0.271641, 0.40486458, -0.47939306, -0.86626315, -0.15068361, -0.8603411, 0
1485, 2864419075, -0.73042727, -0.27556273, 0.4118291, -0.47005218, -0.50115335, -0.62025404, -0.71279144, 0
1486, 2864435742, -0.73141146, -0.2771744, 0.4146228, -0.46509206, -0.4059087, -0.96135294, -1.1898375, 0
1487, 2864452409, -0.7321802, -0.2794598, 0.41594106, -0.46132272, -0.8341593, -1.0826015, -0.9918127, 0
1489, 2864485743, -0.7327334, -0.28368017, 0.41889828, -0.45515126, -0.35061717, -1.6046904, -0.771925, 0
1490, 2864502410, -0.7322956, -0.2846187, 0.42214474, -0.4522612, -0.7193233, -1.3239604, -0.4672575, 0
1491, 2864519077, -0.7308301, -0.2864189, 0.42641518, -0.44948065, -1.0351589, -0.7379934, -0.07044697, 0
1493, 2864552411, -0.7266102, -0.2890034, 0.43603802, -0.44541758, -1.3985139, -0.07231851, 0.1617775, 0
1494, 2864569078, -0.723862, -0.29051602, 0.44005612, -0.44495618, -0.58638895, 0.12347034, 0.114993095, 0
1495, 2864585745, -0.72112507, -0.29230958, 0.44296202, -0.44534215, 0.53113294, 0.08572258, -0.001627922, 0
1498, 2864635746, -0.7146787, -0.29741675, 0.4517042, -0.4435677, 0.60533476, -0.46115115, 0.18085766, 0
1499, 2864652413, -0.7131685, -0.29903132, 0.45531425, -0.44121534, -0.12569296, -0.061725672, -0.2635088, 0
1501, 2864685747, -0.70955586, -0.30232167, 0.4643341, -0.43535852, -0.7588135, 0.60218245, -1.175991, 0
1502, 2864702414, -0.70728225, -0.30403322, 0.46876135, -0.433116, -0.91582376, 0.70566183, -1.0266237, 0
1504, 2864735748, -0.7023158, -0.30798134, 0.47647452, -0.4299807, 0.14247788, 0.15458971, 0.5426216, 0
1505, 2864752415, -0.700165, -0.30891493, 0.48006633, -0.4288218, 0.41793033, 0.2509601, 0.9222832, 0
1506, 2864769082, -0.69827294, -0.3097071, 0.48306593, -0.42796594, 0.25546414, 0.4347089, 0.90072155, 0
1508, 2864802416, -0.69692254, -0.30978608, 0.4887958, -0.42358148, 0.20370032, 0.62165457, 0.89577293, 0
1509, 2864819083, -0.697608, -0.30895284, 0.49034575, -0.42126378, 0.05481387, 0.4987733, 0.8912306, 0
1510, 2864835750, -0.69867766, -0.3083356, 0.4914429, -0.41865692, -0.07184198, 0.19159073, 0.42331314, 0
1513, 2864885751, -0.7034618, -0.3039789, 0.491091, -0.4142207, 0.069415525, 0.19799705, 0.28513145, 0
1514, 2864902418, -0.70439017, -0.30384526, 0.4893524, -0.4147986, 0.48655134, -0.49445173, -0.26062012, 0
1516, 2864935752, -0.70580477, -0.3004468, 0.48610225, -0.41867304, 0.30556098, -0.14527805, 0.25098896, 0
1517, 2864952419, -0.70670843, -0.29716516, 0.48421228, -0.42166984, -0.29016274, 0.057269942, -0.14153767, 0
1518, 2864969086, -0.70840746, -0.293143, 0.48135594, -0.4248925, -0.7809648, 0.0346815, -0.52480316, 0
1520, 2865002420, -0.71293485, -0.28282213, 0.47471446, -0.4317323, -0.7490905, -0.123380266, -1.2992887, 0
1521, 2865019087, -0.71557826, -0.27756298, 0.4706881, -0.435167, -0.3493941, 0.054849073, -1.5982971, 0
1522, 2865035754, -0.7189962, -0.2715294, 0.4664472, -0.43789765, -0.4301661, 0.14293876, -1.0621719, 0
1525, 2865085755, -0.7294659, -0.2530977, 0.4518732, -0.44681394, -0.5109048, 1.0818946, -0.35514164, 0
1526, 2865102422, -0.73432535, -0.2458365, 0.4417319, -0.45300615, 0.24652898, 0.71123344, -0.5617342, 0
1529, 2865152423, -0.7498414, -0.21111995, 0.4037012, -0.47979417, 1.7908003, 0.24669829, -2.6026187, 0
1530, 2865169090, -0.7531559, -0.20131588, 0.39141408, -0.48891118, 1.6027383, 1.5395485, -2.6451669, 0
1532, 2865202424, -0.7611612, -0.1804565, 0.3677068, -0.5028637, -0.12772357, 2.6823423, -0.19148731, 0
1533, 2865219091, -0.7677323, -0.16945656, 0.35524294, -0.50565326, -0.22942533, 2.8177626, 1.2391815, 0
1535, 2865252425, -0.78192747, -0.15430906, 0.32732135, -0.50759244, 3.2910495, 2.7492263, 2.887353, 0
1536, 2865269092, -0.787086, -0.15171476, 0.31369635, -0.50900286, 6.424998, 2.0047536, 4.1938887, 0
1537, 2865285759, -0.7876731, -0.14871085, 0.3060813, -0.5135965, 6.1258025, 0.17076781, 2.2700806, 0
1539, 2865319093, -0.78012025, -0.14386198, 0.30964136, -0.5242609, 1.7985061, -0.7384694, 1.513897, 0
1540, 2865335760, -0.7771372, -0.14324686, 0.3129257, -0.5269028, 0.3165748, -1.5152073, 1.0880585, 0
1541, 2865352427, -0.7747088, -0.14668247, 0.31498292, -0.5283059, -2.7225466, -2.6521955, -0.32909012, 0
1543, 2865385761, -0.7670469, -0.15331408, 0.31385827, -0.5381802, -2.2909443, -1.0109434, 2.0796432, 0
1544, 2865402428, -0.7624772, -0.1551306, 0.31143907, -0.54550874, 0.23882225, 1.0652254, 4.3171825, 0
1545, 2865419095, -0.75974554, -0.15554431, 0.3106896, -0.5496141, -1.3524699, 0.8996734, 3.9838285, 0
1547, 2865452429, -0.76035726, -0.15469491, 0.312207, -0.548146, -1.0327563, 0.32105017, 1.3032484, 0
1548, 2865469096, -0.7627145, -0.154726, 0.31194302, -0.54500383, -1.1197792, -0.11950908, -0.088757515, 0
1549, 2865485763, -0.76521015, -0.15513055, 0.31058303, -0.54215956, 0.3627043, -0.25843525, 0.35486317, 0
1551, 2865519097, -0.76810557, -0.15802655, 0.30814603, -0.53860795, 1.0835342, -1.2788799, -0.029877663, 0
1552, 2865535764, -0.76852316, -0.16041407, 0.30736873, -0.53775007, 0.883544, -1.0305821, -0.49671555, 0
1553, 2865552431, -0.7683221, -0.16336581, 0.30677664, -0.5374869, 0.5614256, -1.0342737, -0.34149742, 0
1556, 2865602432, -0.7684383, -0.17289466, 0.30701482, -0.53419375, -1.3875233, -0.36069536, -1.5486021, 0
1558, 2865635766, -0.76950896, -0.17942324, 0.30441716, -0.5319819, -0.67535, 0.026477344, -0.8246336, 0
1559, 2865652433, -0.7692361, -0.18356106, 0.30303264, -0.53175485, -0.19668089, 0.31621033, -0.10773373, 0
1560, 2865669100, -0.7685326, -0.18793797, 0.30383816, -0.53078276, 0.30979365, -0.050167594, -0.19258785, 0
1562, 2865702434, -0.7670251, -0.19722551, 0.30992267, -0.5260549, -1.1185473, 0.14617792, -1.5047607, 0
1563, 2865719101, -0.7651552, -0.20267099, 0.31423897, -0.52414405, -1.4528596, 0.35038385, -1.8312778, 0
1564, 2865735768, -0.7635958, -0.20708314, 0.31895724, -0.5218384, -1.1977694, 0.23267296, -1.3987713, 0
1566, 2865769102, -0.75991046, -0.21730141, 0.3298997, -0.51623005, -0.73608, -0.0026191247, -1.2468014, 0
1567, 2865785769, -0.75829273, -0.22107252, 0.33638933, -0.5128083, -0.33386353, 0.6092437, -0.6978655, 0
1568, 2865802436, -0.7563412, -0.22512756, 0.3432139, -0.50939274, -0.043967232, -0.31457365, -0.5975857, 0
1571, 2865852437, -0.75150996, -0.23257335, 0.36320263, -0.4992367, -0.5204848, 0.7891157, 0.2710905, 0
1572, 2865869104, -0.75040674, -0.23509312, 0.36924577, -0.4952671, -0.35131454, 0.31285343, 0.55366325, 0
1574, 2865902438, -0.7489607, -0.24015102, 0.37974855, -0.4870193, 0.037827108, -0.1288256, -0.5917549, 0
1575, 2865919105, -0.7489154, -0.24290863, 0.38409656, -0.4822882, -0.24243288, -0.54467976, -0.89580345, 0
1576, 2865935772, -0.74951744, -0.24369928, 0.38956746, -0.47653157, -0.82569104, -0.6204962, -0.80526733, 0
1578, 2865969106, -0.7514072, -0.24360298, 0.40127486, -0.463718, -1.4190648, 0.32218388, -0.70488167, 0
1579, 2865985773, -0.75197434, -0.24456304, 0.40611467, -0.45804533, -1.4280185, -0.03711969, -0.5861645, 0
1580, 2866002440, -0.7525682, -0.24593243, 0.40921363, -0.45355648, -0.3074113, -0.36692455, -0.7173834, 0
1582, 2866035774, -0.7525461, -0.24949324, 0.41253203, -0.44861552, 0.3858008, -1.1894597, -0.17055035, 0
1583, 2866052441, -0.7522201, -0.24888112, 0.41576535, -0.4465124, 0.37190276, -0.86348903, 0.01343441, 0
1586, 2866102442, -0.74537826, -0.24980637, 0.4298874, -0.44408977, -0.66912, -0.32512182, 0.22533035, 0
1587, 2866119109, -0.74295795, -0.25079852, 0.4337209, -0.44385904, -0.88377357, -0.50258654, 0.07059193, 0
1589, 2866152443, -0.73755956, -0.2562492, 0.43889883, -0.44465864, -0.36923358, -0.9870056, -0.28393936, 0
1590, 2866169110, -0.73365486, -0.2604375, 0.4412604, -0.4463446, -0.23070382, -0.7885413, -0.23348713, 0
1591, 2866185777, -0.72868514, -0.264988, 0.44377688, -0.4493022, 0.037003465, -0.6555801, -0.21764946, 0
1593, 2866219111, -0.7179708, -0.27303284, 0.45000914, -0.45549318, -0.7858027, 0.96055096, 0.16319561, 0
1594, 2866235778, -0.71363014, -0.2760464, 0.45252058, -0.45800298, -1.1321633, 1.3609399, 0.23970604, 0
1595, 2866252445, -0.7104664, -0.27938625, 0.4534442, -0.4599785, -1.1200784, 1.1853845, 0.39133072, 0
1597, 2866285779, -0.70604706, -0.2856686, 0.4557243, -0.4606707, -1.1428468, 0.9410469, 0.08290768, 0
1598, 2866302446, -0.7043071, -0.28841072, 0.45726418, -0.4600992, -0.7804849, 1.0445739, 0.10473156, 0
1601, 2866352447, -0.7008102, -0.29494107, 0.46387744, -0.45464683, -0.96544814, 1.3951329, 0.6790867, 0
1602, 2866369114, -0.70067024, -0.2957509, 0.46602023, -0.45213777, -0.55159557, 0.779656, 0.7033472, 0
1603, 2866385781, -0.7007461, -0.29581502, 0.46889073, -0.44899994, -0.823628, 0.4099546, 0.24668217, 0
1605, 2866419115, -0.70095533, -0.29698715, 0.47389296, -0.44260204, 0.20795198, 0.4731006, -0.3634243, 0
1606, 2866435782, -0.7020917, -0.29794273, 0.4750482, -0.43890506, 0.14091597, 0.15021926, -0.29843426, 0
1607, 2866452449, -0.7035667, -0.29855996, 0.47562942, -0.4354809, 0.34056, 0.16706587, 0.10669327, 0
1609, 2866485783, -0.7072906, -0.2975082, 0.47604832, -0.42967176, -0.4578426, -0.05830984, 0.44646263, 0
1610, 2866502450, -0.70974976, -0.2960882, 0.47586602, -0.42679006, -0.5491481, -0.15244634, 0.39339352, 0
1612, 2866535784, -0.7142045, -0.29457706, 0.47510087, -0.42122048, -0.032421, -0.25603184, -0.21997929, 0
1613, 2866552451, -0.71613663, -0.29518464, 0.47369584, -0.41909185, 0.3825932, -0.62976617, -0.2497015, 0
1614, 2866569118, -0.717776, -0.2949419, 0.47299936, -0.4172407, -0.07945349, -0.7345104, -0.18468189, 0
1616, 2866602452, -0.72094554, -0.29172504, 0.47230598, -0.41481555, -0.42310935, 0.0249398, -0.31942272, 0
1617, 2866619119, -0.7222245, -0.29007322, 0.47131547, -0.41487598, 0.19243482, 0.66527516, -0.01675415, 0
1618, 2866635786, -0.7234786, -0.28917393, 0.46877366, -0.41619653, 0.27073008, 0.24845722, -0.5529814, 0
1620, 2866669120, -0.72689605, -0.2855019, 0.45955524, -0.4230023, -0.05141826, -0.95367175, -0.1881876, 0
1621, 2866685787, -0.72859067, -0.2811207, 0.4557064, -0.42716438, -0.26245695, -0.529327, -0.15715122, 0
1622, 2866702454, -0.7302736, -0.27637768, 0.45081553, -0.43254164, -0.2342067, -0.31809983, -0.89306164, 0
1624, 2866735788, -0.7352816, -0.26561552, 0.43867373, -0.4431545, 0.14735673, 1.2124434, -1.7723427, 0
1625, 2866752455, -0.7385507, -0.2603582, 0.42863044, -0.45060316, 0.5443412, 1.227848, 0.100735664, 0
1628, 2866802456, -0.75062567, -0.24064182, 0.38978264, -0.47616518, 0.29680443, 0.046961524, -2.2309756, 0
1629, 2866819123, -0.7549116, -0.23438555, 0.37419763, -0.48493212, 1.0032016, 0.9736015, -3.278296, 0
1630, 2866835790, -0.7592563, -0.22938696, 0.3547997, -0.495015, 3.0481317, 3.1870308, -2.9570904, 0
1632, 2866869124, -0.76743436, -0.21013704, 0.3232097, -0.5122824, 1.1079776, 2.2571414, -0.19154358, 0
1633, 2866885791, -0.7705164, -0.19968292, 0.3128515, -0.51823366, -2.3190892, 3.302286, 2.1273813, 0
1634, 2866902458, -0.77548647, -0.19164251, 0.29915366, -0.52193093, -1.827087, 3.2987726, 2.6403341, 0
1636, 2866935792, -0.7843677, -0.17663771, 0.27135763, -0.52909595, 4.9219465, 2.026761, 4.3829556, 0
1637, 2866952459, -0.78453684, -0.17002319, 0.26433206, -0.53454065, 6.1685944, 3.4907289, 3.3988361, 0
1639, 2866985793, -0.77877164, -0.1609821, 0.2694597, -0.5431409, 2.136794, 0.83673674, 1.3393164, 0
1640, 2867002460, -0.77693707, -0.15662572, 0.27502626, -0.5442505, 2.0663695, -0.8855596, 2.0069437, 0
1643, 2867052461, -0.77219605, -0.16048622, 0.28678071, -0.5438062, -3.3768256, -2.4714556, -0.7310276, 0
1644, 2867069128, -0.77008355, -0.1607772, 0.28691676, -0.54663694, -1.0346544, -0.70325255, 1.8753834, 0
1645, 2867085795, -0.76811284, -0.159666, 0.28775373, -0.5492891, -0.11562258, 1.1469979, 3.5460749, 0
1647, 2867119129, -0.76727825, -0.15806098, 0.29269394, -0.54830825, -0.06105994, -0.4932788, 1.5082588, 0
1648, 2867135796, -0.7680067, -0.1578471, 0.29389066, -0.54670775, 0.22783324, -0.9423174, 0.6491289, 0
1649, 2867152463, -0.7688736, -0.15820491, 0.29527742, -0.5446344, 0.56010157, -0.8555018, 0.34035873, 0
1651, 2867185797, -0.7690173, -0.160719, 0.29744396, -0.54251254, 1.2499006, -1.3943454, 1.2180986, 0
1652, 2867202464, -0.7677907, -0.16249882, 0.29888752, -0.54292643, 0.88704914, -1.5134075, 0.71669006, 0
1653, 2867219131, -0.7658086, -0.16507217, 0.30081534, -0.5438839, 0.08322013, -1.0447345, -0.52666664, 0
1655, 2867252465, -0.7629146, -0.17014603, 0.30407137, -0.5445761, -1.4359832, 0.46451703, -0.8125677, 0
1657, 2867285799, -0.76243484, -0.17548712, 0.30532733, -0.5428479, -1.1001436, 0.699826, -1.0757751, 0
1659, 2867319133, -0.7624033, -0.18049613, 0.30798075, -0.539742, -0.1941143, -0.006690469, -5.0640106E-4, 0
1660, 2867335800, -0.76212156, -0.18351346, 0.31059155, -0.5376222, -0.18559644, 0.66717726, 0.054717064, 0
1661, 2867352467, -0.76119745, -0.18806973, 0.31387857, -0.5354433, -0.4678837, -0.55752444, -1.1707077, 0
1663, 2867385801, -0.7584917, -0.19770405, 0.3209085, -0.5316317, -0.6319782, -0.21286564, -0.71475697, 0
1664, 2867402468, -0.756739, -0.20126054, 0.32677582, -0.52921534, -0.8764046, -0.80054253, -0.77782345, 0
1665, 2867419135, -0.7553531, -0.2055247, 0.33206174, -0.52625793, -0.75678134, -1.0696212, -1.7119732, 0
1667, 2867452469, -0.7530813, -0.21679804, 0.33873898, -0.52070534, -0.7360709, 0.21152596, -1.1438999, 0
1668, 2867469136, -0.75143766, -0.22183007, 0.34264034, -0.51840293, -0.19514023, 0.41719252, -0.97264194, 0
1670, 2867502470, -0.7467717, -0.2325568, 0.35183588, -0.51426846, -0.41282687, -0.49814802, -0.5802355, 0
1672, 2867535804, -0.74328744, -0.24071077, 0.36188763, -0.5085572, -0.524696, -0.18439953, -0.32550907, 0
1674, 2867569138, -0.73971385, -0.24923006, 0.3703973, -0.50351244, -0.55949384, 0.12659259, -0.41140842, 0
1675, 2867585805, -0.7371831, -0.25534844, 0.37323302, -0.5020623, -0.07106125, -0.5234946, -0.32600403, 0
1676, 2867602472, -0.7350227, -0.26034674, 0.37714052, -0.4997372, -0.5725823, -0.28792703, -0.009353638, 0
