sep=,
DeviceTag:,Xsens_DOT_1,,,,,,,,,,,,,,,,,
FirmwareVersion:,3.0.0,,,,,,,,,,,,,,,,,
AppVersion:,2023.6.1,,,,,,,,,,,,,,,,,
SyncStatus:,Synced,,,,,,,,,,,,,,,,,
OutputRate:,60Hz,,,,,,,,,,,,,,,,,
FilterProfile:,General,,,,,,,,,,,,,,,,,
Measurement Mode:,Sensor fusion Mode - Extended (Quaternion),,,,,,,,,,,,,,,,,
StartTime:,2025-05-05 11:54:06.686 +0200,,,,,,,,,,,,,,,,,
 2025,,,,,,,,,,,,,,,,,,,

PacketCounter,SampleTimeFine,Quat_W,Quat_X,Quat_Y,Quat_Z,FreeAcc_X,FreeAcc_Y,FreeAcc_Z,Status
1, 2839685247, 0.8120638, -0.07547107, 0.23526609, 0.52874833, -0.09197997, -0.0396051, 0.3499384, 0
2, 2839701914, 0.81207514, -0.075441726, 0.23528777, 0.5287253, -0.058996692, -0.0414621, 0.3070507, 0
3, 2839718581, 0.8120818, -0.075410746, 0.23530194, 0.52871335, -0.082935125, -0.04795571, 0.3334551, 0
4, 2839735248, 0.81208473, -0.07536945, 0.23529707, 0.5287169, -0.10559053, -0.0071671666, 0.35852718, 0
5, 2839751915, 0.81208587, -0.07535408, 0.23530823, 0.5287123, -0.10867051, -0.04174462, 0.36671066, 0
6, 2839768582, 0.8120972, -0.07534378, 0.23531953, 0.5286914, -0.046036907, -0.030706657, 0.35059643, 0
7, 2839785249, 0.812068, -0.07533866, 0.23532818, 0.52873313, -0.06077897, -0.071028955, 0.3308401, 0
8, 2839801916, 0.8120683, -0.075319126, 0.23532814, 0.52873534, -0.09275687, -0.028410172, 0.34513378, 0
9, 2839818583, 0.812126, -0.07530075, 0.23532875, 0.5286492, -0.1025785, -0.058031116, 0.32060146, 0
10, 2839835250, 0.81212974, -0.07533147, 0.2353024, 0.52865076, -0.11240633, -0.08569386, 0.3355875, 0
11, 2839851917, 0.812102, -0.07535986, 0.23526856, 0.52870435, -0.091979265, -0.0740927, 0.33585358, 0
12, 2839868584, 0.81209904, -0.07534994, 0.23524828, 0.52871925, -0.096804716, -0.06238191, 0.35757446, 0
13, 2839885251, 0.8121127, -0.075312965, 0.23522775, 0.5287127, -0.089829944, -0.055784587, 0.36058617, 0
14, 2839901918, 0.81210876, -0.07528945, 0.23520449, 0.52873254, -0.10279588, -0.03249493, 0.37154102, 0
15, 2839918585, 0.81211114, -0.07528817, 0.23518145, 0.5287393, -0.13016964, -0.019533021, 0.33157063, 0
16, 2839935252, 0.8121289, -0.07526044, 0.23513198, 0.5287379, -0.09519515, -0.03894674, 0.34383488, 0
17, 2839951919, 0.81214076, -0.07524433, 0.23507753, 0.5287463, -0.066321805, -0.05974043, 0.3072796, 0
18, 2839968586, 0.8121465, -0.0752621, 0.23502825, 0.5287567, -0.026961196, -0.054082535, 0.36796665, 0
19, 2839985253, 0.81214535, -0.07526227, 0.2349801, 0.52877975, -0.074551165, -0.0367942, 0.37528706, 0
20, 2840001920, 0.81216305, -0.075252354, 0.2349387, 0.5287725, -0.1028041, 0.004796923, 0.36427784, 0
21, 2840018587, 0.8121936, -0.075271755, 0.23490609, 0.5287374, -0.11911911, -0.003838835, 0.33471966, 0
22, 2840035254, 0.81221426, -0.07527613, 0.23486911, 0.5287214, -0.11000744, -0.045109414, 0.3358984, 0
23, 2840051921, 0.81224, -0.07526086, 0.23481715, 0.52870727, -0.08403891, -0.05363171, 0.31406403, 0
24, 2840068588, 0.81226796, -0.075259075, 0.23476735, 0.5286863, -0.062376164, -0.028570767, 0.34515095, 0
25, 2840085255, 0.812305, -0.07524636, 0.2347184, 0.52865314, -0.08051931, -0.028782994, 0.3639078, 0
26, 2840101922, 0.8122979, -0.075238995, 0.23466723, 0.5286877, -0.09154816, -0.010685652, 0.3709364, 0
27, 2840118589, 0.81229985, -0.0752458, 0.23464274, 0.52869475, -0.08821901, -0.04297791, 0.36320877, 0
28, 2840135256, 0.8123267, -0.07521493, 0.23461874, 0.52866846, -0.08853177, -0.009256398, 0.350214, 0
29, 2840151923, 0.81235445, -0.07522867, 0.23459215, 0.5286358, -0.08715005, -0.018229047, 0.3047285, 0
30, 2840168590, 0.8123702, -0.0752341, 0.23453689, 0.52863526, -0.074813664, -0.03682488, 0.31328487, 0
31, 2840185257, 0.81238586, -0.0752666, 0.23446558, 0.52863824, -0.08037292, -0.013914352, 0.3478737, 0
32, 2840201924, 0.8124217, -0.07526715, 0.23441467, 0.52860564, -0.09948361, -0.03811695, 0.41518688, 0
33, 2840218591, 0.81243664, -0.07527499, 0.23437668, 0.52859837, -0.11261264, -0.047554504, 0.3864746, 0
34, 2840235258, 0.8124229, -0.075288035, 0.23436247, 0.5286241, -0.1084265, -0.03251672, 0.35028553, 0
35, 2840251925, 0.8123864, -0.07531804, 0.23433591, 0.52868766, -0.11874557, -0.040464506, 0.30477428, 0
36, 2840268592, 0.8124021, -0.07533702, 0.23429805, 0.52867746, -0.1033595, -0.05323548, 0.3274231, 0
37, 2840285259, 0.8124266, -0.07533749, 0.23425576, 0.52865845, -0.09003141, -0.08348237, 0.34644508, 0
38, 2840301926, 0.8124444, -0.07534736, 0.23422207, 0.52864456, -0.11327651, -0.054483462, 0.38091373, 0
39, 2840318593, 0.81243366, -0.07536923, 0.23419452, 0.5286701, -0.15039605, -0.049556844, 0.35568714, 0
40, 2840335260, 0.8124771, -0.07537693, 0.23419033, 0.5286042, -0.15128386, -0.04528093, 0.35824013, 0
41, 2840351927, 0.81248754, -0.07538566, 0.23418842, 0.5285879, -0.13783559, -0.06666989, 0.36287308, 0
42, 2840368594, 0.8124989, -0.07536317, 0.23419742, 0.52856946, -0.09361985, -0.10043951, 0.3789692, 0
43, 2840385261, 0.8125043, -0.075326726, 0.23421642, 0.5285581, -0.05653627, -0.09166534, 0.3453846, 0
44, 2840401928, 0.81248444, -0.07526925, 0.23426229, 0.5285763, -0.096783236, -0.06973688, 0.33013916, 0
45, 2840418595, 0.81249696, -0.07522293, 0.23431978, 0.5285383, -0.15418716, -0.043206785, 0.34631252, 0
47, 2840451929, 0.8124888, -0.07519789, 0.23440623, 0.52851605, -0.14119571, -0.042212937, 0.30107212, 0
48, 2840468596, 0.81245834, -0.07517623, 0.23446614, 0.5285394, -0.101640366, -0.06441448, 0.34185314, 0
50, 2840501930, 0.8123995, -0.07512784, 0.23459406, 0.52858007, -0.08473277, -0.06312324, 0.37892628, 0
51, 2840518597, 0.8123863, -0.07507755, 0.23468749, 0.5285661, -0.078118406, -0.042151302, 0.36139107, 0
53, 2840551931, 0.81232095, -0.074990585, 0.23489629, 0.528586, -0.12031772, -0.021452662, 0.325284, 0
54, 2840568598, 0.81231165, -0.0749432, 0.23499446, 0.5285633, -0.11338688, -0.032701176, 0.3320923, 0
55, 2840585265, 0.8122829, -0.07489338, 0.23508783, 0.528573, -0.05827874, -0.029760247, 0.3544054, 0
57, 2840618599, 0.8122556, -0.07473354, 0.23529518, 0.5285454, -0.0574904, 0.014001019, 0.36298656, 0
58, 2840635266, 0.8122548, -0.07470582, 0.23536076, 0.5285214, -0.062086124, -0.014712517, 0.32811165, 0
59, 2840651933, 0.81223744, -0.07466936, 0.2354343, 0.5285205, -0.025951313, -0.009585689, 0.34539127, 0
62, 2840701934, 0.8122579, -0.074678265, 0.23554227, 0.52843976, -0.11375741, -0.043164376, 0.32452488, 0
63, 2840718601, 0.81220895, -0.07467665, 0.23555243, 0.52851045, -0.038475335, -0.057645835, 0.35562897, 0
65, 2840751935, 0.812246, -0.074586764, 0.23557462, 0.5284564, -0.06809717, -0.05545742, 0.32383633, 0
66, 2840768602, 0.8122548, -0.074584424, 0.23555757, 0.5284508, -0.115698375, -0.04910239, 0.33294296, 0
67, 2840785269, 0.81226325, -0.074598745, 0.23553778, 0.5284444, -0.1432596, -0.03385629, 0.36291695, 0
69, 2840818603, 0.81230325, -0.07459028, 0.23554689, 0.52838016, -0.059097543, -0.05150096, 0.36830235, 0
70, 2840835270, 0.81230336, -0.07455078, 0.23557581, 0.52837276, -0.059606154, -0.06662348, 0.31416702, 0
71, 2840851937, 0.81229985, -0.07452741, 0.2355921, 0.52837414, -0.09787511, -0.0346183, 0.32407665, 0
74, 2840901938, 0.8122932, -0.07458249, 0.23559049, 0.52837753, -0.072761595, -0.070047565, 0.36017704, 0
75, 2840918605, 0.8122466, -0.07457553, 0.23560797, 0.5284424, -0.058130436, -0.072967425, 0.3428774, 0
77, 2840951939, 0.81229275, -0.07448836, 0.23564239, 0.5283681, -0.10770082, -0.01887701, 0.33654308, 0
78, 2840968606, 0.81231636, -0.07447182, 0.23563921, 0.52833575, -0.10331977, -0.023564914, 0.36157322, 0
80, 2841001940, 0.8123561, -0.07446509, 0.23563527, 0.52827716, -0.08218528, -0.051891103, 0.361001, 0
81, 2841018607, 0.8123778, -0.07445423, 0.23562717, 0.5282491, -0.09499903, -0.030972414, 0.34513092, 0
82, 2841035274, 0.8124217, -0.07445471, 0.23559207, 0.52819717, -0.10399135, -0.055266876, 0.34444427, 0
84, 2841068608, 0.81241155, -0.07450203, 0.23545049, 0.5282692, -0.06610437, -0.042234674, 0.35262585, 0
85, 2841085275, 0.81245023, -0.0745107, 0.2353477, 0.5282543, -0.08994784, -0.028841386, 0.36105824, 0
86, 2841101942, 0.8125052, -0.07454285, 0.23522991, 0.5282175, -0.075184606, -0.05858582, 0.3520975, 0
88, 2841135276, 0.81254756, -0.07467628, 0.23493157, 0.52826655, -0.04511427, -0.06089851, 0.33630466, 0
90, 2841168610, 0.81264174, -0.074763216, 0.23458609, 0.52826273, -0.04761639, -0.03831705, 0.38026047, 0
92, 2841201944, 0.81273186, -0.07491141, 0.2342369, 0.5282583, -0.10926786, -0.030510636, 0.30843544, 0
93, 2841218611, 0.81275046, -0.07500506, 0.23402204, 0.5283113, -0.042079765, -0.0030801203, 0.34630203, 0
94, 2841235278, 0.81281257, -0.075118355, 0.23378341, 0.5283055, 0.01737575, -0.01950296, 0.38698578, 0
96, 2841268612, 0.8129632, -0.075348556, 0.23333138, 0.5282408, -0.069501646, -0.029282432, 0.35541916, 0
97, 2841285279, 0.81304973, -0.07549188, 0.2330809, 0.5281979, -0.14855704, -0.014975312, 0.3512745, 0
98, 2841301946, 0.81317765, -0.07561775, 0.23278502, 0.52811325, -0.18050988, -0.012885466, 0.27718735, 0
100, 2841335280, 0.81340706, -0.075890854, 0.23216057, 0.5279955, -0.005734679, -0.10846424, 0.37020874, 0
101, 2841351947, 0.8134884, -0.07604913, 0.23184995, 0.52798396, -0.03144292, -0.05273369, 0.3878975, 0
102, 2841368614, 0.8135662, -0.076194726, 0.23157577, 0.5279634, -0.13763466, -0.043798536, 0.35641766, 0
105, 2841418615, 0.813803, -0.076544054, 0.2308335, 0.52787316, -0.1495471, -0.06457652, 0.31304073, 0
106, 2841435282, 0.8138797, -0.07660736, 0.23060744, 0.5278443, -0.0729793, -0.0814085, 0.32103157, 0
108, 2841468616, 0.8139936, -0.076683246, 0.23019043, 0.52783996, -0.07885301, 0.041080676, 0.38118935, 0
109, 2841485283, 0.814003, -0.07670213, 0.23004547, 0.52788585, -0.016378628, 0.12865205, 0.51061916, 0
111, 2841518617, 0.81404907, -0.076756865, 0.22990578, 0.5278678, 0.102159515, -0.0044716, 0.33125496, 0
112, 2841535284, 0.81405854, -0.0767993, 0.2298111, 0.52788794, -0.051231872, 0.051105343, 0.2917652, 0
115, 2841585285, 0.81422776, -0.07688704, 0.22916892, 0.5278935, 5.337594E-5, 0.119061604, 0.42943096, 0
116, 2841601952, 0.8142266, -0.07686896, 0.22902538, 0.52796006, 0.07082931, 0.124337465, 0.43407917, 0
117, 2841618619, 0.8142455, -0.0768227, 0.22896568, 0.52796364, 0.07133073, 0.10772671, 0.41662788, 0
119, 2841651953, 0.81423926, -0.07683552, 0.22886197, 0.52801657, -0.09077967, 0.131203, 0.23616982, 0
121, 2841685287, 0.8142397, -0.07690535, 0.22865589, 0.5280947, 0.13670845, 0.04369667, 0.49572086, 0
123, 2841718621, 0.81419176, -0.07684648, 0.2287564, 0.52813375, -0.061958477, 0.07842181, 0.4521122, 0
124, 2841735288, 0.8141749, -0.07681441, 0.22888984, 0.5281065, -0.1881015, 0.05772837, 0.30319118, 0
125, 2841751955, 0.8142152, -0.07686288, 0.22895892, 0.5280074, -0.20440154, -0.014304605, 0.0903635, 0
127, 2841785289, 0.8143328, -0.077014, 0.2288134, 0.5278672, -0.020937964, -0.08190571, 0.18201542, 0
128, 2841801956, 0.81438255, -0.07698829, 0.2287126, 0.5278379, -0.13767572, -0.058030054, 0.34516716, 0
129, 2841818623, 0.8143942, -0.07690733, 0.22870873, 0.52783346, -0.22537829, -0.05293122, 0.4953766, 0
131, 2841851957, 0.8143112, -0.07682005, 0.2289841, 0.52785474, -0.15484858, -0.13449305, 0.51720715, 0
132, 2841868624, 0.8142224, -0.07681673, 0.22920801, 0.52789485, -0.041856725, -0.23437999, 0.41686153, 0
134, 2841901958, 0.8140714, -0.076779366, 0.229664, 0.5279351, 0.042493753, -0.4645748, 0.33453178, 0
136, 2841935292, 0.8140895, -0.0768186, 0.22954375, 0.52795386, -0.4733943, -0.20121804, 0.114097595, 0
138, 2841968626, 0.8141636, -0.07670551, 0.22920871, 0.52800155, -0.30318576, -0.11528301, 0.58248806, 0
139, 2841985293, 0.81412446, -0.07659601, 0.22928156, 0.52804613, -0.15057607, -0.098961, 0.6998091, 0
140, 2842001960, 0.81403, -0.07650193, 0.22954246, 0.528092, -5.802868E-5, -0.14524442, 0.56511307, 0
142, 2842035294, 0.8137452, -0.07633788, 0.23047154, 0.52815, -0.047077972, -0.18826051, 0.23026371, 0
143, 2842051961, 0.8136869, -0.07629678, 0.23078553, 0.5281087, -0.06746607, -0.18848322, 0.018576622, 0
144, 2842068628, 0.8136846, -0.07629351, 0.23084497, 0.5280868, -0.18261985, -0.15301442, -0.19333649, 0
146, 2842101962, 0.81373525, -0.07628193, 0.23067725, 0.5280836, -0.22785969, 0.108214304, 0.6466608, 0
147, 2842118629, 0.8137318, -0.07626199, 0.23076485, 0.5280534, -0.107029274, 0.08576181, 0.71842766, 0
148, 2842135296, 0.81367743, -0.076266535, 0.23104312, 0.528015, 0.027876947, -0.07701944, 0.5580454, 0
150, 2842168630, 0.8134911, -0.076399595, 0.23188923, 0.527912, -0.23830183, -0.16046727, 0.21493053, 0
151, 2842185297, 0.81339777, -0.07647257, 0.23227322, 0.5278763, -0.35770226, -0.15026158, 0.21990108, 0
152, 2842201964, 0.81331784, -0.07649365, 0.23262765, 0.52784026, -0.32790008, -0.20980622, 0.31848812, 0
154, 2842235298, 0.8131675, -0.07630635, 0.23324989, 0.5278247, -0.21102412, -0.25341615, 0.14656353, 0
155, 2842251965, 0.8131531, -0.07615856, 0.2332744, 0.52785724, -0.15764634, -0.27592656, 0.08046627, 0
156, 2842268632, 0.81315607, -0.07596208, 0.23317859, 0.5279233, -0.15977006, -0.15366879, 0.20668507, 0
158, 2842301966, 0.81311566, -0.075768284, 0.23308077, 0.5280568, -0.0151991425, -0.07643059, 0.7962246, 0
159, 2842318633, 0.8130852, -0.07582855, 0.2332691, 0.52801174, 0.072050184, -0.15785228, 0.5843067, 0
161, 2842351967, 0.8130252, -0.07615588, 0.23381753, 0.5278145, -0.19517544, -0.2003158, 0.2302351, 0
163, 2842385301, 0.8130804, -0.076515354, 0.23432167, 0.5274537, -0.14958659, -0.323882, 0.41515732, 0
165, 2842418635, 0.81314194, -0.076989666, 0.2350197, 0.5269791, -0.25962353, -0.3428847, 0.35456944, 0
166, 2842435302, 0.81324285, -0.07725901, 0.23522246, 0.5266932, -0.4697604, -0.29535553, 0.1727848, 0
167, 2842451969, 0.813306, -0.07742636, 0.23530848, 0.5265328, -0.38422403, -0.2155398, 0.23562813, 0
169, 2842485303, 0.81334615, -0.07755894, 0.23535903, 0.5264287, -0.068701915, -0.3278653, 0.5107937, 0
170, 2842501970, 0.8133493, -0.07760622, 0.23549011, 0.52635825, -0.012726618, -0.17449637, 0.39700794, 0
171, 2842518637, 0.81331533, -0.07770487, 0.23563264, 0.5263324, -0.1196092, -0.13440585, 0.25948238, 0
173, 2842551971, 0.8133012, -0.07789661, 0.23546374, 0.5264014, -0.04992078, -0.108975194, 0.2681465, 0
174, 2842568638, 0.81334215, -0.07799691, 0.23526381, 0.52641267, 0.020766139, -0.17751807, 0.42433548, 0
175, 2842585305, 0.81337273, -0.07820228, 0.23512717, 0.526396, 0.051527303, -0.16918841, 0.48712063, 0
178, 2842635306, 0.81344354, -0.07896882, 0.23494945, 0.5262514, -0.29079902, 0.04791257, 0.14230633, 0
179, 2842651973, 0.81352365, -0.07898053, 0.23457056, 0.52629495, -0.2603815, -0.093603425, 0.13369656, 0
181, 2842685307, 0.813733, -0.07880362, 0.23361704, 0.52642196, -0.12138705, -0.116314575, 0.30502892, 0
182, 2842701974, 0.81379926, -0.07879731, 0.23325981, 0.52647877, -0.14127724, 0.01294168, 0.3133936, 0
183, 2842718641, 0.8138914, -0.078835346, 0.23285984, 0.52650774, -0.030295491, 0.047638156, 0.31284046, 0
185, 2842751975, 0.8141059, -0.078837216, 0.23164022, 0.5267137, 0.060185257, -0.14644173, 0.21087456, 0
186, 2842768642, 0.81420356, -0.07869952, 0.23094946, 0.5268869, -0.09811895, 0.021549443, 0.3004713, 0
188, 2842801976, 0.81432295, -0.078488074, 0.23001957, 0.5271405, -0.45164314, 0.0999066, 0.23234463, 0
189, 2842818643, 0.8142375, -0.078366846, 0.23010863, 0.5272517, -0.4981679, 0.14796753, 0.24547195, 0
190, 2842835310, 0.8141555, -0.0782804, 0.23014267, 0.5273763, -0.19374375, 0.092240214, 0.5167074, 0
193, 2842885311, 0.8142173, -0.07788035, 0.22913346, 0.52777934, 0.28644028, -0.26200697, 0.41473293, 0
194, 2842901978, 0.81433827, -0.077731855, 0.22854541, 0.52786976, -0.2788567, 0.11599546, 0.35720444, 0
196, 2842935312, 0.8146414, -0.07735067, 0.22751938, 0.5279011, -0.7924467, 0.25988266, 0.49341106, 0
197, 2842951979, 0.814747, -0.07713814, 0.22705905, 0.52796733, -0.016152201, -0.2511929, 0.44538975, 0
198, 2842968646, 0.814828, -0.0769261, 0.22666736, 0.5280416, 0.7413425, -0.6543501, 0.5069113, 0
200, 2843001980, 0.8152442, -0.07670615, 0.22558875, 0.52789295, -0.11882372, -0.16009612, 0.40726566, 0
201, 2843018647, 0.8155603, -0.07677373, 0.2247338, 0.5277596, -0.24022815, 0.017487487, 0.5700178, 0
202, 2843035314, 0.8158345, -0.07693327, 0.22377777, 0.52771866, -0.006390024, -0.19853309, 0.5996151, 0
204, 2843068648, 0.8163394, -0.077303976, 0.22167267, 0.52777225, -0.015739694, -0.2081953, 0.28184986, 0
205, 2843085315, 0.81662023, -0.07745871, 0.22067614, 0.527733, 0.030803697, -0.1618843, 0.6378584, 0
208, 2843135316, 0.8172138, -0.077779956, 0.21921375, 0.5273762, 0.13247228, 0.27272767, 0.75132847, 0
209, 2843151983, 0.8173393, -0.07790715, 0.21897121, 0.52726376, 0.034619384, 0.17091812, 0.2522459, 0
210, 2843168650, 0.8174628, -0.0780619, 0.21860285, 0.52720225, -0.2757845, 0.009687666, -0.31426144, 0
212, 2843201984, 0.8177093, -0.07844414, 0.21751814, 0.5272118, 0.30146727, -0.15456672, 0.64171314, 0
213, 2843218651, 0.8178061, -0.07873236, 0.21721879, 0.52714217, 0.38671976, -0.113695, 1.1291103, 0
214, 2843235318, 0.81783783, -0.079168625, 0.2172481, 0.5270152, 0.13479301, -0.26524913, 1.3937063, 0
216, 2843268652, 0.8175323, -0.08037901, 0.21857952, 0.52675545, -0.5918853, 0.0059785806, -0.09074974, 0
217, 2843285319, 0.8172332, -0.080907285, 0.21936888, 0.5268106, -0.37047747, 0.040955257, -0.58896637, 0
219, 2843318653, 0.8168658, -0.081466116, 0.21959944, 0.52719826, -0.13449118, -0.10974855, 0.20626068, 0
220, 2843335320, 0.816635, -0.08179344, 0.21970941, 0.52745956, 0.14438118, -0.27311084, 0.31486702, 0
221, 2843351987, 0.81637716, -0.082036376, 0.21999215, 0.5277027, -0.2376898, -0.4238776, 0.12899876, 0
223, 2843385321, 0.81639427, -0.08244193, 0.21957758, 0.527786, -0.7991393, 0.7288706, 0.4985466, 0
224, 2843401988, 0.8166212, -0.08274708, 0.21910001, 0.5275854, 0.71229595, 0.11983435, 0.64027596, 0
225, 2843418655, 0.8167166, -0.08296811, 0.21896209, 0.5274603, 0.7546971, -0.2525704, 0.5072336, 0
227, 2843451989, 0.81686836, -0.08338267, 0.21930258, 0.52701825, -0.8705588, 0.42690685, 0.47868252, 0
228, 2843468656, 0.81700706, -0.083548404, 0.21961899, 0.5266451, -0.51297486, 0.114275135, 0.12773895, 0
229, 2843485323, 0.8169683, -0.08367161, 0.22017941, 0.5264514, 0.13146618, -0.20246261, 0.001613617, 0
231, 2843518657, 0.81686664, -0.08342712, 0.2207425, 0.52641225, 0.09896812, 0.40086284, 0.1356926, 0
232, 2843535324, 0.8169757, -0.08322055, 0.22061461, 0.5263294, 0.32848847, 0.5633517, 0.46614075, 0
235, 2843585325, 0.8169398, -0.0832305, 0.2204862, 0.5264374, 0.3113008, 0.4278632, 0.2723837, 0
236, 2843601992, 0.8169582, -0.083449185, 0.22049989, 0.5263684, -0.018436505, 0.52689785, 0.12145519, 0
237, 2843618659, 0.81699985, -0.08366386, 0.22026934, 0.52636623, -0.117125265, 0.21313703, 0.14090824, 0
239, 2843651993, 0.81708866, -0.08380596, 0.21964584, 0.52646637, 0.014956223, 0.04636581, 0.31860065, 0
240, 2843668660, 0.81714857, -0.0837996, 0.21943377, 0.5264627, 0.1911036, 0.015528674, 0.7600746, 0
242, 2843701994, 0.8170712, -0.08395656, 0.21973425, 0.52643263, -0.024341779, 0.15184616, 0.6752558, 0
243, 2843718661, 0.81692964, -0.08409411, 0.22014019, 0.5264605, -0.2031889, 0.16430403, 0.3568039, 0
244, 2843735328, 0.8167905, -0.084204696, 0.22054948, 0.52648747, -0.14137785, 0.068852216, 0.15063953, 0
246, 2843768662, 0.816663, -0.08422963, 0.22093809, 0.52651834, 0.14157681, 0.24381977, 0.3472166, 0
247, 2843785329, 0.81662434, -0.08419638, 0.22103852, 0.5265415, 0.13177206, 0.40593344, 0.5637579, 0
250, 2843835330, 0.81653285, -0.08429915, 0.22172911, 0.5263766, 0.20505372, 0.16452777, 0.40199947, 0
251, 2843851997, 0.81650764, -0.08438447, 0.22194159, 0.52631253, 0.045631878, 0.066450514, 0.119841576, 0
252, 2843868664, 0.81653285, -0.08442477, 0.22203338, 0.5262281, -0.13637267, 0.14115189, 0.056393623, 0
254, 2843901998, 0.816629, -0.08432192, 0.22205032, 0.52608824, 0.025329528, 0.14935292, 0.49107265, 0
255, 2843918665, 0.81664747, -0.084288776, 0.22214426, 0.5260253, 0.22302695, 0.25927737, 0.56339645, 0
256, 2843935332, 0.8166428, -0.08432973, 0.22234298, 0.52594185, 0.32910547, 0.20692031, 0.49225235, 0
258, 2843968666, 0.81641465, -0.084744155, 0.22340983, 0.5257775, -0.0022372128, 0.116077036, 0.4557991, 0
259, 2843985333, 0.8162136, -0.08526271, 0.22426149, 0.52564305, -0.42021695, 0.0051182793, 0.5426855, 0
260, 2844002000, 0.8158595, -0.08599343, 0.22555268, 0.5255215, -0.3503234, -0.17736228, 0.5290241, 0
262, 2844035334, 0.8143991, -0.08796451, 0.23034935, 0.52537966, -0.56027776, -0.419178, 0.5070839, 0
264, 2844068668, 0.811673, -0.08977297, 0.23977993, 0.5250732, -0.21530351, -0.06716492, 1.0513248, 0
266, 2844102002, 0.80178064, -0.0955779, 0.25123385, 0.53381884, 1.4894588, -0.4694814, 1.4718933, 0
267, 2844118669, 0.7925418, -0.09763002, 0.2551825, 0.54524857, 0.9612719, 2.7935665, 1.5782852, 0
269, 2844152003, 0.7679737, -0.10067461, 0.25902012, 0.57711184, 5.171146, -3.96822, 0.9762888, 0
270, 2844168670, 0.7547546, -0.11031963, 0.25515848, 0.5942538, 0.30008623, 1.7377228, 0.34677887, 0
271, 2844185337, 0.74458295, -0.11902607, 0.25233805, 0.60648406, -2.4481492, 2.351996, -1.0587578, 0
273, 2844218671, 0.7340631, -0.13091722, 0.24431491, 0.61999243, -4.9792295, -4.7508106, -3.8415666, 0
274, 2844235338, 0.730115, -0.13252562, 0.24033086, 0.62584233, -2.7459826, -6.465189, -4.2689877, 0
275, 2844252005, 0.7235025, -0.13028297, 0.23904705, 0.6344253, 0.011108175, -6.5722637, -4.191783, 0
277, 2844285339, 0.7169768, -0.13289334, 0.22803798, 0.6452523, 1.8284903, 10.673607, 2.1106415, 0
279, 2844318673, 0.71936893, -0.1334198, 0.21531852, 0.6468493, -2.9355814, -1.390842, -1.2325668, 0
281, 2844352007, 0.720179, -0.13376276, 0.21315394, 0.64659387, -1.236597, -0.0908902, 2.2273493, 0
282, 2844368674, 0.72043663, -0.1331481, 0.21234652, 0.6466994, -0.30453306, 0.41157362, 0.08965206, 0
283, 2844385341, 0.720363, -0.13218097, 0.21193738, 0.6471138, 0.027237918, -0.5586838, 0.60943127, 0
285, 2844418675, 0.72077847, -0.13019854, 0.21008961, 0.6476555, 0.85846037, -0.5280658, 0.33499622, 0
286, 2844435342, 0.7210083, -0.1294738, 0.20916365, 0.64784455, 0.5815544, -0.084539205, 0.5171547, 0
287, 2844452009, 0.721038, -0.1290829, 0.20860632, 0.648069, 0.12934461, 0.52146345, 0.42209053, 0
289, 2844485343, 0.721047, -0.1289222, 0.20808001, 0.64826035, -0.0068701594, 0.4561862, 0.47942066, 0
290, 2844502010, 0.7210022, -0.1288237, 0.20813672, 0.6483113, 0.17802352, -0.19466704, 0.22853184, 0
291, 2844518677, 0.720947, -0.12862289, 0.20826373, 0.6483718, 0.039440874, -0.22316712, 0.2259531, 0
293, 2844552011, 0.7208576, -0.1279508, 0.20864134, 0.6484828, -0.10691502, 0.081263, 0.36469078, 0
294, 2844568678, 0.720859, -0.12762962, 0.20882058, 0.6484871, 0.1542217, 0.061752103, 0.33401585, 0
296, 2844602012, 0.7207818, -0.12691718, 0.20919344, 0.6485923, 0.13550995, -0.0022273625, 0.37592602, 0
297, 2844618679, 0.7209102, -0.12643391, 0.20882946, 0.64866126, 0.30151066, 0.2857726, -0.515213, 0
298, 2844635346, 0.72095287, -0.12605438, 0.20894733, 0.6486497, -0.223214, -0.48042372, 0.23916149, 0
300, 2844668680, 0.72121274, -0.12591556, 0.2085574, 0.6485134, 0.31781748, -0.28955233, -0.042951584, 0
301, 2844685347, 0.72121865, -0.12591055, 0.20855652, 0.6485081, -0.47700435, -0.070404455, -0.10322094, 0
302, 2844702014, 0.7213594, -0.1259233, 0.20838237, 0.64840513, -0.47629014, -0.10876325, 0.3332758, 0
304, 2844735348, 0.72154635, -0.12604406, 0.20818037, 0.6482383, 0.015506603, -0.7244647, 0.61426735, 0
306, 2844768682, 0.72155696, -0.12647338, 0.20846209, 0.64805245, -0.45604047, -0.30158877, 0.42618656, 0
308, 2844802016, 0.7215798, -0.12685458, 0.20846124, 0.6479527, 0.0052267946, -0.56630415, 0.102119446, 0
309, 2844818683, 0.7215842, -0.12690979, 0.20828591, 0.6479933, -0.22469226, -0.21744989, 0.22079659, 0
310, 2844835350, 0.7216457, -0.12697154, 0.2080307, 0.64799476, -0.19312258, -0.10206034, 0.47946167, 0
312, 2844868684, 0.72168094, -0.12704739, 0.20774189, 0.64803314, 0.17323758, 0.08957729, 0.533226, 0
313, 2844885351, 0.721652, -0.1270833, 0.20772688, 0.6480633, 0.019696241, 0.2520906, 0.3829422, 0
314, 2844902018, 0.72169226, -0.12717241, 0.20764183, 0.6480284, 0.009424983, 0.21584429, 0.28695774, 0
316, 2844935352, 0.7217081, -0.12737341, 0.20747246, 0.6480255, 0.084778704, -0.1423962, 0.2853241, 0
317, 2844952019, 0.72167623, -0.12748319, 0.20744084, 0.6480495, -0.05054103, -0.0020010555, 0.35721493, 0
318, 2844968686, 0.7217114, -0.12759745, 0.20742002, 0.6479944, -0.052768208, 0.17030676, 0.3733282, 0
321, 2845018687, 0.721768, -0.12800929, 0.20758787, 0.6477965, 0.08166757, 0.13778177, 0.40579224, 0
322, 2845035354, 0.72179, -0.12808728, 0.2076442, 0.6477383, 0.015024848, 0.049929272, 0.267107, 0
324, 2845068688, 0.72184646, -0.1281371, 0.20769925, 0.6476479, 0.054344423, 0.060041446, 0.32827282, 0
325, 2845085355, 0.7218312, -0.12817115, 0.20774633, 0.6476432, 0.006565386, 0.17231832, 0.37055492, 0
327, 2845118689, 0.72182727, -0.12832767, 0.20794144, 0.6475539, 0.022443354, -0.03628856, 0.42637157, 0
328, 2845135356, 0.72182935, -0.1284493, 0.20813192, 0.6474662, 0.03763483, -0.20476955, 0.38289452, 0
329, 2845152023, 0.72178954, -0.128497, 0.20835325, 0.64743006, -0.102874614, -0.18098733, 0.26189232, 0
331, 2845185357, 0.72176737, -0.12859365, 0.20860417, 0.6473547, -0.12507758, -0.17636195, 0.22943401, 0
332, 2845202024, 0.7217561, -0.12863745, 0.20867272, 0.6473364, 0.020706227, -0.18866633, 0.3599186, 0
333, 2845218691, 0.7217334, -0.12865812, 0.20874, 0.647336, -0.008550548, -0.14600705, 0.43554115, 0
336, 2845268692, 0.7217648, -0.12859283, 0.20876253, 0.6473067, -0.025314141, -0.15356211, 0.43779182, 0
337, 2845285359, 0.72175497, -0.12858427, 0.20879287, 0.64730966, -0.0076434445, -0.16192748, 0.43377876, 0
339, 2845318693, 0.7217483, -0.12865292, 0.20880964, 0.647298, -0.07961308, -0.15495734, 0.22127247, 0
340, 2845335360, 0.7217632, -0.12867358, 0.2087407, 0.64729947, -0.17504095, -0.18475178, 0.27611923, 0
341, 2845352027, 0.72177446, -0.12864204, 0.20868413, 0.64731145, -0.17038497, -0.12446917, 0.3904791, 0
343, 2845385361, 0.72180814, -0.12849459, 0.20863286, 0.6473197, 0.037321147, -0.07126549, 0.33710194, 0
344, 2845402028, 0.721799, -0.12843013, 0.20866865, 0.647331, 0.094775766, -0.08474767, 0.3673668, 0
345, 2845418695, 0.72178763, -0.1283957, 0.20868441, 0.6473454, 0.019922702, -0.047953308, 0.34246635, 0
347, 2845452029, 0.721774, -0.1283943, 0.20868671, 0.6473602, -0.1935984, -0.14332779, 0.36538315, 0
348, 2845468696, 0.7217802, -0.12834099, 0.20871018, 0.6473563, -0.14371137, -0.15943788, 0.35727596, 0
351, 2845518697, 0.7217323, -0.12822014, 0.20894492, 0.64735794, -0.036893915, -0.13158101, 0.44264317, 0
352, 2845535364, 0.72170544, -0.12824248, 0.2090838, 0.6473387, -0.07751678, -0.20252185, 0.36061954, 0
354, 2845568698, 0.72167397, -0.1282124, 0.20924781, 0.6473268, -0.18974584, -0.21756394, 0.21345711, 0
355, 2845585365, 0.7216661, -0.12813498, 0.20924564, 0.64735156, -0.19821836, -0.18479995, 0.27194023, 0
356, 2845602032, 0.7216538, -0.12806638, 0.20926584, 0.64737236, -0.10970301, -0.17071629, 0.40677738, 0
358, 2845635366, 0.7216381, -0.12790117, 0.2093687, 0.6473893, 0.032757066, -0.08596448, 0.38094234, 0
359, 2845652033, 0.7216321, -0.12783211, 0.2094248, 0.64739144, -0.02354526, -0.08525667, 0.26777935, 0
360, 2845668700, 0.7216489, -0.12775218, 0.20942935, 0.647387, -0.07804121, -0.08880958, 0.23048496, 0
362, 2845702034, 0.7216739, -0.12752731, 0.20936102, 0.6474255, -0.06627144, -0.1677571, 0.33444405, 0
363, 2845718701, 0.7216716, -0.12742575, 0.20935883, 0.64744866, -0.03305012, -0.12625487, 0.48300076, 0
364, 2845735368, 0.72165096, -0.12739831, 0.20939836, 0.6474644, -0.04033832, -0.13988033, 0.46232605, 0
366, 2845768702, 0.7216008, -0.12741631, 0.20962037, 0.64744496, -0.07854037, -0.12012894, 0.3249607, 0
367, 2845785369, 0.7215903, -0.12737128, 0.20958003, 0.6474785, 0.08665533, 0.16760801, -0.015195847, 0
368, 2845802036, 0.72158456, -0.12724294, 0.20946746, 0.64754665, -0.5178632, -0.5331559, -0.5272703, 0
370, 2845835370, 0.7216769, -0.12742709, 0.20949292, 0.6473992, 0.040323887, -0.5905, 0.25314045, 0
371, 2845852037, 0.7215534, -0.12748197, 0.20992441, 0.64738643, -0.10493386, -0.5765686, 0.028550148, 0
372, 2845868704, 0.7215359, -0.12743992, 0.21014182, 0.6473437, -0.7361581, -0.46887252, 0.2355566, 0
374, 2845902038, 0.72159785, -0.12756619, 0.21056943, 0.6471108, -0.3668794, -0.8461791, 0.3381443, 0
375, 2845918705, 0.7214999, -0.12764256, 0.21094273, 0.6470833, -0.22912523, -0.60026777, 0.34115505, 0
378, 2845968706, 0.7215699, -0.12763876, 0.21131073, 0.646886, 0.028045302, -0.29697713, 0.2746153, 0
379, 2845985373, 0.72156096, -0.12749448, 0.21127447, 0.64693624, 0.04382227, -0.17168209, 0.42574024, 0
381, 2846018707, 0.72164243, -0.12733693, 0.2111007, 0.6469331, 0.02897437, -0.10027117, 0.35280037, 0
382, 2846035374, 0.72168404, -0.12726614, 0.21099788, 0.6469339, 0.03897746, -0.15198031, 0.27515793, 0
383, 2846052041, 0.7216612, -0.12715092, 0.2109066, 0.6470119, -0.17035154, -0.11183515, 0.22218227, 0
385, 2846085375, 0.7216294, -0.12693968, 0.21070334, 0.64715505, -0.08490856, -0.074199766, 0.4490795, 0
386, 2846102042, 0.7216034, -0.12689285, 0.21064849, 0.6472112, 0.14098763, -0.21505009, 0.31050205, 0
387, 2846118709, 0.72148937, -0.12688348, 0.2106718, 0.64733255, 0.11016845, -0.13343416, 0.38754272, 0
389, 2846152043, 0.72131854, -0.12693512, 0.21071286, 0.64749944, -0.0044958233, 0.07669121, 0.4048996, 0
390, 2846168710, 0.7212947, -0.12688555, 0.21076679, 0.64751816, -0.066196226, 0.008817195, 0.2916336, 0
393, 2846218711, 0.72122365, -0.12643166, 0.21084763, 0.64765966, 0.021425156, 0.047412686, 0.2988844, 0
394, 2846235378, 0.7212089, -0.12625904, 0.21087345, 0.64770144, 0.10554676, 0.040057376, 0.4247179, 0
395, 2846252045, 0.72116715, -0.1260921, 0.21091568, 0.6477667, 0.09106531, 0.069940895, 0.35266972, 0
397, 2846285379, 0.72115254, -0.12577567, 0.21105264, 0.64779973, 0.07946039, 0.160104, 0.35829067, 0
398, 2846302046, 0.7211821, -0.12562804, 0.2111271, 0.6477715, 0.1620356, 0.09941499, 0.30056286, 0
399, 2846318713, 0.7211956, -0.12545219, 0.21122347, 0.64775896, 0.17442502, 0.10551661, 0.25699425, 0
401, 2846352047, 0.72123474, -0.12511472, 0.2112633, 0.64776766, 0.13024817, 0.14453684, 0.36873722, 0
402, 2846368714, 0.72125095, -0.12500751, 0.21124865, 0.64777505, 0.14955926, 0.102458954, 0.43941212, 0
404, 2846402048, 0.7212035, -0.12488672, 0.21136267, 0.6478138, 0.11806051, 0.054430433, 0.34204674, 0
405, 2846418715, 0.7211717, -0.124862336, 0.21140507, 0.6478404, 0.07585548, 0.08156465, 0.3017416, 0
408, 2846468716, 0.72116864, -0.12475829, 0.2115903, 0.6478032, 0.014239131, 0.0020232394, 0.31362915, 0
409, 2846485383, 0.7211576, -0.124742225, 0.21162684, 0.6478067, -0.025868664, -0.06709233, 0.3293724, 0
410, 2846502050, 0.7211529, -0.124747045, 0.21164434, 0.64780533, -0.009154742, -0.15260933, 0.34159374, 0
412, 2846535384, 0.7211254, -0.12476372, 0.21168241, 0.6478201, 0.00225973, -0.11345612, 0.39992046, 0
413, 2846552051, 0.72113186, -0.12474942, 0.21172872, 0.64780056, -0.007094371, -0.019352814, 0.39844322, 0
414, 2846568718, 0.7211817, -0.12471227, 0.21179871, 0.6477294, 0.019627009, -0.030483982, 0.40270042, 0
416, 2846602052, 0.72126305, -0.12460488, 0.21189898, 0.6476269, 0.048293285, 0.022788096, 0.30214596, 0
417, 2846618719, 0.72126013, -0.12460597, 0.21188556, 0.64763415, 0.08025962, -0.015429881, 0.30447865, 0
418, 2846635386, 0.72125894, -0.12461503, 0.21185598, 0.64764345, 0.052615955, 0.0011459509, 0.31952, 0
420, 2846668720, 0.72125834, -0.12471239, 0.21171686, 0.64767087, -0.056432273, -0.019106613, 0.39215374, 0
422, 2846702054, 0.72129613, -0.12473026, 0.21174388, 0.6476164, 0.04069274, -0.06147316, 0.30952358, 0
424, 2846735388, 0.7213201, -0.12476365, 0.21174414, 0.6475831, -0.0059613558, 0.004156391, 0.34998608, 0
425, 2846752055, 0.72131646, -0.12481318, 0.21171251, 0.6475881, -0.03991852, -0.0103084175, 0.34563828, 0
426, 2846768722, 0.72130215, -0.124861464, 0.21169367, 0.64760095, -0.07897876, -0.055647854, 0.39745903, 0
428, 2846802056, 0.7212957, -0.12491754, 0.2117018, 0.6475946, -0.024215072, -0.111742005, 0.36522293, 0
429, 2846818723, 0.721318, -0.12492895, 0.21170247, 0.6475673, 0.0018027053, -0.13055916, 0.31842995, 0
430, 2846835390, 0.7213301, -0.124920934, 0.21171394, 0.6475517, -0.017205091, -0.06587396, 0.32311058, 0
432, 2846868724, 0.7213323, -0.12496205, 0.21167883, 0.6475528, -0.090704404, -0.058669973, 0.34436512, 0
433, 2846885391, 0.72134227, -0.12500389, 0.21168542, 0.6475316, -0.06458463, -0.10817932, 0.43016624, 0
435, 2846918725, 0.7213673, -0.12501484, 0.21170165, 0.6474961, -0.0046440684, -0.11010114, 0.31947517, 0
436, 2846935392, 0.72138083, -0.12501422, 0.21167332, 0.64749044, -0.012050785, -0.095632866, 0.34245682, 0
437, 2846952059, 0.7214013, -0.12505116, 0.2116239, 0.6474768, -0.021761054, -0.07888901, 0.3918152, 0
439, 2846985393, 0.721423, -0.1251541, 0.2115882, 0.64744425, -0.07967473, -0.10190922, 0.34409237, 0
440, 2847002060, 0.72142404, -0.12520301, 0.21156749, 0.6474403, -0.099203095, -0.1428132, 0.33122253, 0
441, 2847018727, 0.72145355, -0.125227, 0.21154036, 0.6474117, -0.1045128, -0.16058473, 0.3337698, 0
443, 2847052061, 0.7215376, -0.12511517, 0.21121663, 0.64744556, -0.3404214, -0.07779324, 0.5634613, 0
444, 2847068728, 0.7216692, -0.12516725, 0.2108274, 0.6474155, -0.20586836, -0.1658122, 1.4313507, 0
445, 2847085395, 0.7216714, -0.12535031, 0.2109603, 0.64733434, 0.20394471, -0.4572164, 0.2771206, 0
447, 2847118729, 0.72171515, -0.12549, 0.21145225, 0.64709795, -0.8394477, -0.2563581, 0.4122305, 0
449, 2847152063, 0.72190297, -0.12577173, 0.21173587, 0.646741, -0.28415632, -1.0153327, 0.25801563, 0
451, 2847185397, 0.7219294, -0.1261158, 0.21186233, 0.64660287, -0.3702971, -0.5987932, 0.31469822, 0
452, 2847202064, 0.72210336, -0.1263131, 0.21160206, 0.6464553, -0.12393313, -0.55489445, 0.41114998, 0
453, 2847218731, 0.7222322, -0.12641507, 0.2112032, 0.646422, -0.049267597, -0.57295954, 0.26403236, 0
455, 2847252065, 0.72246885, -0.12663819, 0.21030259, 0.6464075, -0.22604084, -0.16883051, 0.35677242, 0
456, 2847268732, 0.7226224, -0.12677296, 0.20984839, 0.6463572, -0.15096343, -0.054707702, 0.40917587, 0
457, 2847285399, 0.7227325, -0.12687941, 0.20944104, 0.6463453, -0.10076855, 0.039375607, 0.3869505, 0
459, 2847318733, 0.72283196, -0.12718388, 0.208738, 0.6464015, 0.14113994, 0.0148847895, 0.36872673, 0
460, 2847335400, 0.7229138, -0.12739566, 0.20839082, 0.6463803, 0.2566693, -0.038749825, 0.37672806, 0
462, 2847368734, 0.72300273, -0.12784627, 0.20776828, 0.64639235, -0.030349385, 0.046133466, 0.37655258, 0
464, 2847402068, 0.72308403, -0.12843049, 0.2071381, 0.6463878, 0.102635585, -0.0038165397, 0.3396206, 0
466, 2847435402, 0.7232898, -0.1291028, 0.20646545, 0.64623886, 0.02190149, -0.027053561, 0.24020863, 0
467, 2847452069, 0.72341555, -0.12939875, 0.20599279, 0.6461897, -0.09782349, -0.071186304, 0.28819752, 0
468, 2847468736, 0.7235343, -0.12966022, 0.20550463, 0.6461598, -0.0676467, -0.20047514, 0.37723637, 0
470, 2847502070, 0.72372234, -0.13008223, 0.2047182, 0.64611405, -0.094816975, -0.013652674, 0.34338665, 0
471, 2847518737, 0.7238231, -0.13026372, 0.20438057, 0.6460717, -0.1335401, 0.18545619, 0.25787163, 0
472, 2847535404, 0.7239539, -0.13039847, 0.20398533, 0.64602286, 0.019466106, 0.20091775, 0.2892332, 0
474, 2847568738, 0.7241913, -0.13056646, 0.2031957, 0.6459714, 0.30183306, 0.09734442, 0.4333105, 0
475, 2847585405, 0.7242886, -0.13069142, 0.2028167, 0.64595616, 0.28333077, 0.23497291, 0.5129299, 0
476, 2847602072, 0.72441083, -0.13086843, 0.20240755, 0.6459118, 0.27941892, 0.27957636, 0.4557085, 0
479, 2847652073, 0.7248912, -0.13120943, 0.20066366, 0.64584774, 0.047285367, 0.21802041, 0.3441801, 0
480, 2847668740, 0.7250548, -0.1313295, 0.20004794, 0.64583063, 0.16606186, 0.18385002, 0.6339016, 0
482, 2847702074, 0.7252192, -0.13175802, 0.19922763, 0.6458124, 0.06950543, -0.18500145, 0.42907143, 0
483, 2847718741, 0.72526073, -0.13201243, 0.19903277, 0.6457738, -0.2864085, 0.0766289, 0.36337185, 0
485, 2847752075, 0.72550714, -0.13236712, 0.1983701, 0.6456283, -0.32059255, -0.24404284, 0.19083881, 0
486, 2847768742, 0.7255336, -0.13246815, 0.19808747, 0.6456647, 0.023297552, -0.5987901, 0.152565, 0
487, 2847785409, 0.7254737, -0.13264035, 0.19799578, 0.6457249, -0.07934316, -0.78971845, 0.4737568, 0
489, 2847818743, 0.7254895, -0.13323474, 0.19810276, 0.6455518, -0.8581572, -0.90704924, 0.7451248, 0
490, 2847835410, 0.72550803, -0.13362959, 0.19835842, 0.6453707, -1.0769176, -1.2977618, 0.46843243, 0
491, 2847852077, 0.72538817, -0.13389745, 0.19892316, 0.6452763, -1.1161932, -1.4203078, 0.43706703, 0
494, 2847902078, 0.7249493, -0.13432294, 0.20108792, 0.64500993, -0.8301473, -1.8195319, 0.57442, 0
495, 2847918745, 0.7246945, -0.13440557, 0.20196024, 0.64500654, -0.98739487, -1.8604922, 0.5135565, 0
497, 2847952079, 0.72439736, -0.13518576, 0.20340148, 0.64472425, -1.2593876, -2.0708604, -0.11087608, 0
498, 2847968746, 0.72412366, -0.13603988, 0.2041795, 0.6446061, -1.3013946, -2.2627022, 0.05400753, 0
499, 2847985413, 0.7237641, -0.13693656, 0.20497108, 0.64456886, -1.3721125, -2.1282032, 0.64264107, 0
501, 2848018747, 0.7232244, -0.13854782, 0.20751244, 0.6440171, -1.1050694, -2.169738, 0.83850765, 0
502, 2848035414, 0.722763, -0.13984708, 0.21011898, 0.6434087, -1.3275354, -2.5195205, -0.015404701, 0
503, 2848052081, 0.72193, -0.14141488, 0.21340908, 0.64291817, -1.7112771, -2.164904, -0.23386955, 0
505, 2848085415, 0.72003925, -0.1448961, 0.22001958, 0.6420345, -1.4801399, -1.5350202, 0.9301243, 0
506, 2848102082, 0.7185557, -0.14524454, 0.22379561, 0.64231277, -0.8217523, -1.5696337, 1.0015059, 0
507, 2848118749, 0.71659005, -0.1448978, 0.22752102, 0.6432774, -0.5941842, -1.3992984, 1.6566925, 0
509, 2848152083, 0.7123673, -0.13835791, 0.2350942, 0.64667547, -0.7159952, -0.07113512, 0.8814354, 0
510, 2848168750, 0.7110999, -0.13090053, 0.24082059, 0.6475153, 1.3621584, 2.0621893, -0.124874115, 0
512, 2848202084, 0.71682215, -0.12604035, 0.24473095, 0.6406677, 1.0414718, 4.1539645, -0.26613426, 0
513, 2848218751, 0.7244626, -0.12830539, 0.24567997, 0.6311903, 1.539251, 2.5291555, -1.489605, 0
514, 2848235418, 0.7315911, -0.1332303, 0.24757506, 0.62112725, 2.4840112, -0.4535991, -1.9902754, 0
516, 2848268752, 0.7379296, -0.1505948, 0.2581555, 0.6051488, 0.8048419, -3.8284798, -4.0521, 0
517, 2848285419, 0.73508924, -0.16483688, 0.26782328, 0.60067594, -0.8400468, -5.1052694, -7.5965157, 0
518, 2848302086, 0.7297648, -0.18078494, 0.26743415, 0.6027502, -5.9699187, -13.336558, 10.913197, 0
521, 2848352087, 0.72966844, -0.18309778, 0.25809327, 0.6062306, -1.8358569, -1.4784122, 0.7842808, 0
522, 2848368754, 0.729531, -0.18333265, 0.2563439, 0.60706663, 0.05459385, -3.5016086, 0.63409996, 0
524, 2848402088, 0.73019946, -0.18166415, 0.25352007, 0.6079498, -2.1792934, -2.1152143, 0.8095226, 0
525, 2848418755, 0.7311359, -0.18060231, 0.25195128, 0.60779274, -1.9611108, -2.909862, 0.314456, 0
526, 2848435422, 0.730609, -0.17967895, 0.25131947, 0.6089605, -2.0643253, -3.6532927, 0.7080841, 0
528, 2848468756, 0.7283193, -0.1791991, 0.25225675, 0.611452, -2.3064342, -3.1770499, -0.14389801, 0
529, 2848485423, 0.7276526, -0.17855677, 0.252796, 0.61221063, -1.6519876, -3.3828967, -0.26095867, 0
530, 2848502090, 0.7271944, -0.17709821, 0.2530764, 0.61306226, -1.363699, -2.8487566, 0.13690948, 0
532, 2848535424, 0.72557783, -0.1745173, 0.25395656, 0.61534935, -1.9050204, -3.3590972, 0.8226414, 0
533, 2848552091, 0.72391945, -0.17412084, 0.25554016, 0.61675763, -2.2405744, -3.040245, -0.118453026, 0
536, 2848602092, 0.7197784, -0.16644865, 0.25650424, 0.6232878, -0.3733836, -0.21836758, -1.7801523, 0
537, 2848618759, 0.7200285, -0.15686417, 0.25005743, 0.6280861, -0.31206173, -1.1634054, -2.3336287, 0
538, 2848635426, 0.72152895, -0.14518395, 0.24025917, 0.63297826, 0.53017384, -1.9716924, -0.09489918, 0
540, 2848668760, 0.7253859, -0.12833358, 0.22205721, 0.63883066, -2.2074664, -2.3419845, 1.8525915, 0
541, 2848685427, 0.72515225, -0.1241463, 0.2205645, 0.6404388, -0.6751781, -0.2353179, 4.1079407, 0
543, 2848718761, 0.72453576, -0.119354844, 0.22062369, 0.6420249, 0.42273638, 0.27168995, 0.732852, 0
544, 2848735428, 0.72382444, -0.11736646, 0.22168289, 0.6428285, 0.4080447, -0.4639466, -0.033459663, 0
545, 2848752095, 0.7229391, -0.115726426, 0.22319983, 0.64359653, -0.43495792, 0.10100472, 0.4723978, 0
547, 2848785429, 0.7210012, -0.11368263, 0.22693127, 0.6448287, 0.34668386, 2.0527844, 1.3662386, 0
548, 2848802096, 0.72020125, -0.11312136, 0.22846048, 0.6452812, 1.3188163, 1.0161984, 1.5048618, 0
551, 2848852097, 0.72040474, -0.113058046, 0.22991708, 0.64454734, 0.18392298, 1.3727918, 1.0720005, 0
552, 2848868764, 0.7208045, -0.11319216, 0.22971217, 0.6441498, -0.7274246, 1.8246839, 0.60972595, 0
553, 2848885431, 0.7212038, -0.11349164, 0.2295242, 0.6437172, -0.8334149, 2.1666348, -0.11119366, 0
555, 2848918765, 0.72249776, -0.114120886, 0.22832628, 0.6425799, 1.307647, 0.6258374, -0.22964287, 0
556, 2848935432, 0.7233113, -0.11441976, 0.22708748, 0.64205027, 0.71696174, 0.92263985, 0.03323555, 0
557, 2848952099, 0.72427, -0.114705764, 0.22530988, 0.6415446, 0.5672295, 1.850324, 0.45627785, 0
559, 2848985433, 0.7262798, -0.11527966, 0.22120738, 0.6405966, 1.2979263, 1.1145505, -0.2663784, 0
560, 2849002100, 0.72689265, -0.11541884, 0.21956424, 0.6404414, 0.894876, 0.6893118, -0.11835575, 0
561, 2849018767, 0.72751397, -0.1156638, 0.21778725, 0.6402987, 0.14256483, 0.21384434, -0.062395096, 0
563, 2849052101, 0.7288131, -0.11628307, 0.21478167, 0.639724, 0.8337634, -0.01032507, 0.8087635, 0
565, 2849085435, 0.72931963, -0.11688889, 0.21297675, 0.63964, 0.06975964, -0.3181546, -0.23944283, 0
567, 2849118769, 0.72959495, -0.11733553, 0.21097694, 0.6399069, -0.44266924, -2.015007, 0.23736858, 0
568, 2849135436, 0.72958326, -0.11772901, 0.21007574, 0.64014435, -0.013276013, -1.7234561, 0.7327728, 0
570, 2849168770, 0.72910947, -0.11870465, 0.2085884, 0.6409899, -0.4132319, -1.4209365, 0.2920122, 0
571, 2849185437, 0.7287122, -0.11928682, 0.20795402, 0.6415392, -0.9153982, -1.72458, -0.40947342, 0
572, 2849202104, 0.72804767, -0.119542584, 0.20755403, 0.64237505, -0.059933964, -1.4949993, 0.18548107, 0
574, 2849235438, 0.72595626, -0.11956521, 0.20786037, 0.6446349, -0.80885154, -1.6031995, -0.1871767, 0
575, 2849252105, 0.7247318, -0.11919612, 0.20904577, 0.64569676, -0.46399006, -0.9208282, -0.08923435, 0
576, 2849268772, 0.72325754, -0.11849825, 0.21106717, 0.64681983, -0.3868603, -1.2084649, 0.13951778, 0
578, 2849302106, 0.7209838, -0.11752297, 0.21367778, 0.6486763, -0.08791572, -0.21071126, 0.57092094, 0
579, 2849318773, 0.7202371, -0.11724968, 0.21404004, 0.6494353, 0.42640886, -0.4067473, 0.64980125, 0
580, 2849335440, 0.7195027, -0.1170667, 0.21439302, 0.65016574, 0.06617136, 0.39978465, 0.8335953, 0
582, 2849368774, 0.71829927, -0.11679139, 0.21497199, 0.65135354, -0.25234658, 0.5841478, 0.86741257, 0
583, 2849385441, 0.71772057, -0.11687781, 0.21620716, 0.65156686, -0.4661192, -0.32779035, 0.012831688, 0
584, 2849402108, 0.7171819, -0.1169837, 0.21758932, 0.65168095, -0.28542516, -0.087937705, 0.2526884, 0
586, 2849435442, 0.71706736, -0.11818257, 0.21692887, 0.6518109, -0.5578897, -1.4691021, 0.93287945, 0
587, 2849452109, 0.7172678, -0.11866033, 0.21577851, 0.6518854, -0.67792594, -1.3891135, 0.786747, 0
588, 2849468776, 0.7175677, -0.11944131, 0.21490875, 0.6517, -0.61696523, -0.2635989, 1.3834667, 0
590, 2849502110, 0.7181497, -0.121130764, 0.21444744, 0.65089864, -1.9408175, -3.0854921, -1.0964956, 0
593, 2849552111, 0.71887285, -0.12205548, 0.21311213, 0.6503659, -0.99691284, -3.9469473, -0.31320858, 0
594, 2849568778, 0.71869427, -0.12176429, 0.21302432, 0.65064657, -1.5620883, -1.9775058, 0.64794254, 0
595, 2849585445, 0.7185199, -0.12142615, 0.21358725, 0.650718, -1.6796404, -1.1644399, 1.4001245, 0
597, 2849618779, 0.7186946, -0.12219229, 0.21521293, 0.64984524, -2.6845567, -3.606481, -0.85999584, 0
598, 2849635446, 0.7188157, -0.122139886, 0.21497759, 0.6497992, -0.98408943, -4.291921, 0.3224802, 0
599, 2849652113, 0.7186, -0.12201084, 0.21558455, 0.64986086, 0.03659537, -3.1066248, 2.1312838, 0
601, 2849685447, 0.71822786, -0.12431863, 0.22008255, 0.64832526, -2.5175784, -1.781662, 1.8220329, 0
602, 2849702114, 0.71834946, -0.12615791, 0.22402981, 0.6464808, -3.1716719, -1.4649565, -1.9586143, 0
603, 2849718781, 0.71854365, -0.12559989, 0.22601868, 0.64568067, -2.0781, -2.855432, -5.9853344, 0
605, 2849752115, 0.71814054, -0.11879331, 0.22416149, 0.64806044, 0.47128278, -4.4044003, 3.1022692, 0
607, 2849785449, 0.71732104, -0.11791496, 0.22748253, 0.64797103, -1.4650087, 4.769112, 0.9256458, 0
609, 2849818783, 0.7178876, -0.120451875, 0.22829862, 0.6465885, 0.102608636, -2.013601, -1.3373051, 0
610, 2849835450, 0.71824265, -0.12019841, 0.22792055, 0.6463748, 0.8825566, -2.1164165, 1.2668371, 0
611, 2849852117, 0.71870226, -0.1201722, 0.22855903, 0.645643, -1.0454049, 1.2796563, 0.04560566, 0
613, 2849885451, 0.7191314, -0.11968261, 0.23187402, 0.64407206, -2.8167741, 1.5785109, -1.1496344, 0
614, 2849902118, 0.71886015, -0.119353965, 0.23466511, 0.6434247, -0.9436003, -0.32707357, -2.417046, 0
615, 2849918785, 0.71870136, -0.11838939, 0.23732245, 0.64280534, -0.43605897, -2.5102994, -2.0368295, 0
617, 2849952119, 0.7198769, -0.113256454, 0.23817046, 0.6421008, -1.1527816, -2.113001, 0.84045124, 0
618, 2849968786, 0.72045296, -0.110628515, 0.23815042, 0.6419202, -2.0615232, 0.23346151, 1.5779648, 0
620, 2850002120, 0.7215363, -0.106952995, 0.23956977, 0.6407974, -1.833844, -2.3023243, 2.1888685, 0
622, 2850035454, 0.72337365, -0.10581818, 0.24026689, 0.6386494, -0.26349953, -0.7482422, 0.76174927, 0
624, 2850068788, 0.7264819, -0.10556174, 0.24026808, 0.63515395, -0.9434682, 3.524397, 2.4309282, 0
625, 2850085455, 0.7280359, -0.10570247, 0.2404264, 0.63328826, 0.33144355, 3.0257335, 1.2199783, 0
626, 2850102122, 0.7292918, -0.1055365, 0.24096243, 0.63166535, 0.9802991, 3.0214138, 0.9485388, 0
628, 2850135456, 0.7313293, -0.10487737, 0.2424556, 0.62884176, 2.3307695, 1.7022951, 0.11135292, 0
629, 2850152123, 0.7320498, -0.10426202, 0.24291693, 0.627927, 1.9219508, 1.6843793, -0.29248905, 0
630, 2850168790, 0.73268366, -0.103434, 0.24263127, 0.6274351, 1.6478835, 2.2455976, 0.3215742, 0
632, 2850202124, 0.7343481, -0.102275394, 0.2403554, 0.6265545, 1.7659421, 2.0917864, -0.07867432, 0
633, 2850218791, 0.7353939, -0.10202288, 0.23836905, 0.62612784, 1.7068018, 0.3870691, -0.23102474, 0
634, 2850235458, 0.7361418, -0.101681456, 0.23667155, 0.62594825, 0.9936414, -0.5250428, -0.7985201, 0
637, 2850285459, 0.73692477, -0.10223, 0.23564427, 0.6253247, 0.5949219, 0.68679595, 0.5394068, 0
638, 2850302126, 0.73737824, -0.10257913, 0.2346121, 0.62512106, 1.0661552, 0.9729635, 1.2320423, 0
640, 2850335460, 0.73842627, -0.10391249, 0.23147625, 0.62483275, 0.6392583, 0.21564887, 0.6940737, 0
641, 2850352127, 0.7389062, -0.10482831, 0.22985367, 0.6247114, 0.83206785, -0.12144923, 0.23328018, 0
642, 2850368794, 0.7391746, -0.10546006, 0.2283075, 0.62485456, 0.43343973, -0.17891212, 0.3960371, 0
644, 2850402128, 0.7387366, -0.10651869, 0.2273887, 0.62552726, -0.7928392, 0.21976018, 0.14343643, 0
645, 2850418795, 0.7384434, -0.10702613, 0.22730383, 0.625818, -0.44426554, -0.2836751, 0.1312828, 0
646, 2850435462, 0.7381648, -0.10738809, 0.22689871, 0.62623143, 0.14432047, -1.3684357, -0.12112808, 0
648, 2850468796, 0.7375685, -0.10823152, 0.2252812, 0.6273719, 0.9436594, 0.07652223, 0.40303993, 0
649, 2850485463, 0.7371978, -0.10848916, 0.22461326, 0.62800217, 0.26884955, -0.03692121, 0.6636362, 0
651, 2850518797, 0.7365396, -0.10852104, 0.22326115, 0.6292498, -0.9094911, -1.1173983, 0.1039772, 0
652, 2850535464, 0.7360571, -0.1085447, 0.22266656, 0.63002074, -0.58702415, -1.8467481, -0.3813429, 0
653, 2850552131, 0.7354791, -0.10903485, 0.22227806, 0.6307478, 0.5665692, -0.63915765, 0.24271297, 0
655, 2850585465, 0.7345117, -0.10990156, 0.22127707, 0.6320753, 1.4479294, -0.1393833, 1.6439991, 0
656, 2850602132, 0.7337645, -0.110067286, 0.22159109, 0.6328038, -0.6782441, 0.34433797, 0.3251524, 0
657, 2850618799, 0.73298776, -0.11029816, 0.22213583, 0.6334727, -1.9741015, -0.54300755, -0.3928089, 0
659, 2850652133, 0.73196435, -0.111308426, 0.22199792, 0.6345264, 1.1862001, -1.6610124, 0.032553673, 0
660, 2850668800, 0.73132604, -0.111658506, 0.22181575, 0.6352642, 1.0484589, -1.2105627, 0.42593956, 0
661, 2850685467, 0.7307435, -0.11202362, 0.22159609, 0.6359465, -0.67423826, -0.45462534, 0.44153118, 0
664, 2850735468, 0.7305898, -0.1145757, 0.21873954, 0.6366571, -0.9074778, -3.3819106, 0.7377825, 0
665, 2850752135, 0.730772, -0.11516678, 0.21724583, 0.63685286, -0.6617668, -4.4358716, -0.07760906, 0
667, 2850785469, 0.7314294, -0.11553336, 0.21407676, 0.63710475, -1.2688147, -2.6309521, 1.5345774, 0
668, 2850802136, 0.7315254, -0.1159883, 0.21324843, 0.63718975, -1.1032611, -1.0772451, 0.81412506, 0
669, 2850818803, 0.7315743, -0.11679532, 0.21277726, 0.63714373, -2.4074697, -1.9483889, -0.041996002, 0
671, 2850852137, 0.73109907, -0.11812979, 0.21138881, 0.63790494, -0.35508424, -3.677742, -0.70338345, 0
672, 2850868804, 0.7304611, -0.11793792, 0.20993201, 0.639151, 0.78710175, -4.0509176, 1.1131458, 0
673, 2850885471, 0.7297952, -0.11766149, 0.20863801, 0.64038515, 0.8151218, -2.4701812, 1.9864683, 0
675, 2850918805, 0.72867805, -0.1184869, 0.20804417, 0.64169717, -3.4892585, -2.0646496, -0.5864191, 0
676, 2850935472, 0.7279823, -0.11860943, 0.20821793, 0.6424074, -4.1286197, -1.5100068, -1.8543658, 0
679, 2850985473, 0.725235, -0.111520976, 0.20927565, 0.6464281, 1.5324107, -2.7855468, 2.7406797, 0
680, 2851002140, 0.72403514, -0.10807088, 0.2116246, 0.6475934, 0.5372204, 0.0045930794, 1.8479719, 0
682, 2851035474, 0.7222699, -0.10571561, 0.21693413, 0.64819616, -3.2230077, -2.262659, -3.1415496, 0
683, 2851052141, 0.7212882, -0.105561, 0.21788968, 0.6489936, 0.05726652, -4.983999, -2.757378, 0
684, 2851068808, 0.7198349, -0.10799165, 0.21936812, 0.6497088, 2.5744061, -3.7268407, 3.1027088, 0
686, 2851102142, 0.71716213, -0.11125348, 0.22249195, 0.65105045, -0.72718966, 5.2414117, 4.601082, 0
687, 2851118809, 0.7168212, -0.11178172, 0.22330876, 0.651056, -3.3105912, -0.18327783, -4.225705, 0
688, 2851135476, 0.7164899, -0.11185862, 0.22430998, 0.6510632, -2.0092518, -0.33391958, -3.611185, 0
690, 2851168810, 0.7148019, -0.10998871, 0.22797334, 0.65196407, 1.5575792, 1.9673997, 1.1838722, 0
691, 2851185477, 0.7140657, -0.1088946, 0.23011652, 0.6522016, -0.5624562, 4.109166, 1.7371655, 0
694, 2851235478, 0.7156758, -0.109744966, 0.23291472, 0.6492944, -0.9573187, -1.9767703, -1.3804893, 0
695, 2851252145, 0.71718246, -0.10934936, 0.23223405, 0.64794135, -0.41529852, -2.5156236, -1.7953119, 0
696, 2851268812, 0.718698, -0.108695336, 0.23173884, 0.6465478, -0.9276318, 0.080128275, -0.15577316, 0
698, 2851302146, 0.7215963, -0.106522925, 0.23002389, 0.6442894, 0.9867653, 2.9042392, 2.529212, 0
699, 2851318813, 0.7229233, -0.10637598, 0.22947134, 0.64302206, 1.8348352, 4.692263, 3.7784529, 0
701, 2851352147, 0.7250696, -0.106614344, 0.22830155, 0.6409792, 1.8236363, 1.3510672, -0.47623062, 0
702, 2851368814, 0.7254772, -0.10659117, 0.22800812, 0.64062595, 1.2111548, 1.0118974, -0.8596144, 0
703, 2851385481, 0.7255955, -0.106427565, 0.22787276, 0.6405674, 1.1291993, 1.2869898, -0.29943657, 0
705, 2851418815, 0.7253877, -0.105928995, 0.22851482, 0.6406567, 1.6053917, 1.6884365, 0.42422104, 0
706, 2851435482, 0.72506773, -0.10543215, 0.22897246, 0.64093745, 1.5280143, 1.7177575, 0.40119743, 0
709, 2851485483, 0.7251571, -0.106222995, 0.22849366, 0.64087653, 1.369816, 1.3347362, 0.42861557, 0
710, 2851502150, 0.72536224, -0.10670033, 0.2283356, 0.6406214, 0.20007119, 0.8845877, -0.19517803, 0
711, 2851518817, 0.7254481, -0.10698937, 0.22801033, 0.640592, 0.021931615, 1.0315368, 0.58893204, 0
713, 2851552151, 0.725407, -0.106562115, 0.22784227, 0.6407695, -0.27436665, 0.29263338, -0.37191772, 0
714, 2851568818, 0.7252884, -0.106244385, 0.22822407, 0.64082056, -0.23434563, 0.49409896, -1.4319687, 0
715, 2851585485, 0.7252438, -0.10619496, 0.22805277, 0.64094007, 0.66261, 0.7838435, 0.32602406, 0
717, 2851618819, 0.72583795, -0.10664737, 0.22606777, 0.64089584, 0.5692706, -0.48811507, 1.1433191, 0
718, 2851635486, 0.726502, -0.10719773, 0.22430971, 0.6406692, 0.71572137, 0.35218808, 0.26960278, 0
719, 2851652153, 0.727078, -0.10776349, 0.22269404, 0.6404845, 0.470611, 0.14621384, 0.50505066, 0
721, 2851685487, 0.72752, -0.10858581, 0.21979372, 0.6408453, 0.1072565, 0.36009082, -0.374547, 0
722, 2851702154, 0.72748655, -0.10899031, 0.21849233, 0.6412597, -0.019335192, -0.18765108, -0.7382717, 0
723, 2851718821, 0.7272793, -0.10900358, 0.21713398, 0.64195347, 0.33725584, -1.2504164, 0.65594196, 0
725, 2851752155, 0.7268152, -0.109354466, 0.21513973, 0.6430898, 0.12770967, 0.038971104, 0.9370327, 0
726, 2851768822, 0.7268294, -0.10981048, 0.21397124, 0.6433859, -0.86006844, -0.014641384, 0.48434925, 0
728, 2851802156, 0.72687185, -0.11094265, 0.21195623, 0.64381063, 0.01578503, -0.82784504, 0.6228094, 0
729, 2851818823, 0.72698045, -0.111126944, 0.21082495, 0.6440275, 0.011108091, -0.7408213, 1.1957006, 0
730, 2851835490, 0.72690666, -0.111259356, 0.21008429, 0.64432997, -0.04851881, -1.2334499, 0.09936428, 0
732, 2851868824, 0.7259959, -0.11200194, 0.20937091, 0.6454593, -0.9670611, -0.81806177, -0.26634884, 0
733, 2851885491, 0.72559386, -0.112403676, 0.20879102, 0.646029, -0.0936538, -1.2455398, 0.38643932, 0
736, 2851935492, 0.7240706, -0.11304173, 0.20708564, 0.6481722, 0.56367075, -0.7967973, 0.47546864, 0
737, 2851952159, 0.72326046, -0.113601, 0.20703557, 0.64899445, -0.070012875, 0.6216809, 0.3644476, 0
738, 2851968826, 0.72260725, -0.11399768, 0.20686875, 0.6497054, -0.47187698, -0.47304752, 0.1929636, 0
740, 2852002160, 0.7216111, -0.11442937, 0.2064891, 0.6508564, 0.7634395, -0.65481627, 0.54130363, 0
741, 2852018827, 0.72098786, -0.11441007, 0.20638235, 0.651584, 1.0037874, -0.03839208, 1.7231865, 0
742, 2852035494, 0.7203438, -0.11435726, 0.2063922, 0.6523019, 0.23225977, 0.81058335, 2.0430317, 0
744, 2852068828, 0.7190245, -0.11434523, 0.20686425, 0.6536089, -0.6874154, -0.37805378, 0.005168915, 0
745, 2852085495, 0.7180586, -0.11400734, 0.20765136, 0.6544795, -1.0312026, -0.80635035, -0.8992195, 0
746, 2852102162, 0.71727324, -0.11402829, 0.20828696, 0.6551349, 0.63890857, 0.26661018, 0.47913742, 0
748, 2852135496, 0.71598494, -0.11320773, 0.21000716, 0.6561364, 0.43415052, 0.3265779, -0.09065437, 0
750, 2852168830, 0.71504474, -0.11263454, 0.2110311, 0.6569314, -0.42706993, -0.743139, -0.037657738, 0
752, 2852202164, 0.7146089, -0.11191632, 0.21161292, 0.6573409, -0.94714534, -0.61637723, 0.76980114, 0
753, 2852218831, 0.7145451, -0.1115469, 0.21182361, 0.65740526, -0.41270018, -0.10131993, 0.11059284, 0
754, 2852235498, 0.7145589, -0.111694306, 0.21214403, 0.65726197, -0.22009335, -0.35069674, 0.050016403, 0
756, 2852268832, 0.7148438, -0.11161889, 0.2124691, 0.65685964, -1.1586549, -0.8978534, 0.20584965, 0
757, 2852285499, 0.7151425, -0.11146343, 0.21257827, 0.65652555, -1.4874848, -1.1634477, 0.05845356, 0
759, 2852318833, 0.71662426, -0.11122957, 0.21209145, 0.6551056, -0.1590955, -0.49313575, 1.1342459, 0
760, 2852335500, 0.7174484, -0.11123413, 0.21181178, 0.6542926, -0.7239755, -0.48468062, 0.77348995, 0
761, 2852352167, 0.71821547, -0.11143463, 0.21158002, 0.65349144, -1.1478131, 0.03944674, 0.4196596, 0
763, 2852385501, 0.7196611, -0.112181544, 0.21179675, 0.65170074, -2.0400035, -1.8550433, -0.192873, 0
765, 2852418835, 0.7211814, -0.112698264, 0.21162611, 0.649984, -1.5311401, -2.8863523, 0.13403416, 0
767, 2852452169, 0.7224935, -0.113468215, 0.21178474, 0.6483393, -1.311244, -1.7844814, 1.2741327, 0
768, 2852468836, 0.7231736, -0.11432407, 0.21221705, 0.6472883, -1.8002803, -3.526396, 0.16277313, 0
769, 2852485503, 0.72384, -0.11472208, 0.21291973, 0.6462414, -3.520244, -3.5727143, -4.0040135, 0
771, 2852518837, 0.72477996, -0.11401942, 0.21276516, 0.6453625, -0.8336796, -6.098045, 3.5441742, 0
772, 2852535504, 0.7246393, -0.11325434, 0.21394725, 0.6452646, -0.61373883, -2.46514, 6.475809, 0
773, 2852552171, 0.72400284, -0.11297712, 0.21698189, 0.6450143, -1.4472033, 2.7545373, 5.8269405, 0
775, 2852585505, 0.7232596, -0.11422765, 0.22761273, 0.64195675, -1.8356193, -0.7858924, -8.630964, 0
776, 2852602172, 0.72267485, -0.11407148, 0.22922438, 0.6420696, 2.9506755, -2.888412, -1.4530516, 0
777, 2852618839, 0.7225522, -0.1129501, 0.22978806, 0.6422044, 2.8241365, -1.8209807, 0.83444786, 0
780, 2852668840, 0.72250485, -0.10814649, 0.23218031, 0.6422242, -0.66103995, 5.0305614, -2.025897, 0
781, 2852685507, 0.72265667, -0.10738049, 0.23297463, 0.64189386, 0.65224165, 0.97045034, -3.045774, 0
783, 2852718841, 0.7225696, -0.104386464, 0.23535424, 0.641618, 0.6820975, -1.068518, 0.7631397, 0
784, 2852735508, 0.72320294, -0.10315467, 0.23522139, 0.6411521, -0.16875806, 0.43553746, 3.538804, 0
786, 2852768842, 0.72429156, -0.10179753, 0.23475403, 0.640311, -0.294657, 2.3595333, 3.9612093, 0
787, 2852785509, 0.7243731, -0.100808926, 0.2347775, 0.64036644, -1.0728257, 0.19184044, 0.05497074, 0
788, 2852802176, 0.7242817, -0.0996379, 0.23557016, 0.640362, 0.48902768, 1.1400323, -0.97462845, 0
790, 2852835510, 0.72336066, -0.096978605, 0.23880088, 0.64061457, 0.47459367, 1.6767389, 0.65752983, 0
791, 2852852177, 0.72227377, -0.09560813, 0.24137123, 0.6410835, 0.5321685, 2.8346474, 0.41040802, 0
792, 2852868844, 0.7213228, -0.09436002, 0.24401498, 0.64133835, 1.8134317, 3.2899954, 1.0627193, 0
794, 2852902178, 0.71936935, -0.091883026, 0.25020117, 0.64150834, 1.4741234, 2.9709668, -0.6048498, 0
795, 2852918845, 0.7184705, -0.090700686, 0.25355938, 0.6413656, -0.7020813, 2.3251276, -0.96236706, 0
796, 2852935512, 0.71780246, -0.08964487, 0.25685662, 0.6409494, -0.9550872, 2.215362, 0.011048317, 0
798, 2852968846, 0.7170909, -0.08816855, 0.26308027, 0.6394248, 2.0308392, 2.6993139, 2.0286837, 0
799, 2852985513, 0.71659666, -0.08738771, 0.26626202, 0.63876885, 0.81052905, 1.066525, -0.26191902, 0
800, 2853002180, 0.7162445, -0.08675426, 0.26930964, 0.63797194, 0.309528, 3.0331628, 0.45155048, 0
802, 2853035514, 0.7170241, -0.08526929, 0.273578, 0.6354757, -1.0020761, 0.0760856, -0.2955866, 0
803, 2853052181, 0.71759385, -0.08512345, 0.27583608, 0.63387364, -1.0545776, 1.9457369, 0.10273552, 0
804, 2853068848, 0.71890616, -0.08484597, 0.27696192, 0.6319299, -1.4832346, 1.7038313, 1.1031265, 0
807, 2853118849, 0.7238535, -0.08388965, 0.27927017, 0.62535983, -0.8845737, 0.22752367, 0.8374071, 0
809, 2853152183, 0.72701454, -0.08286516, 0.28109476, 0.6209971, -1.1447245, 1.0565397, 1.7596989, 0
810, 2853168850, 0.7294532, -0.08174875, 0.28000072, 0.6187754, -1.7712455, -0.9904943, 0.35583878, 0
811, 2853185517, 0.7313013, -0.08124962, 0.28000826, 0.6166529, 0.31220582, 0.8363699, -0.7210598, 0
813, 2853218851, 0.73528504, -0.08116643, 0.27783245, 0.61289936, -0.23393896, -0.4122125, 0.0092868805, 0
814, 2853235518, 0.73703945, -0.08121853, 0.27741203, 0.6109725, -0.5482155, -1.7136117, -2.1808605, 0
815, 2853252185, 0.7383126, -0.08099215, 0.27651197, 0.60987234, -0.266481, 0.5020676, 2.798235, 0
817, 2853285519, 0.7417708, -0.08102936, 0.2751347, 0.6062834, -0.11229384, -2.957117, -1.3596306, 0
818, 2853302186, 0.74230534, -0.08106542, 0.27469417, 0.60582393, -0.89140517, -0.5008093, 0.2382021, 0
819, 2853318853, 0.7430012, -0.08104478, 0.2738312, 0.60536414, -1.7036531, 1.047356, 1.144537, 0
822, 2853368854, 0.747142, -0.08135151, 0.269436, 0.6021903, 1.0869579, 0.336213, 1.5270882, 0
823, 2853385521, 0.74772805, -0.08148425, 0.26829872, 0.601953, -0.64468426, -0.033876963, 0.5209398, 0
825, 2853418855, 0.75022256, -0.08363339, 0.2662052, 0.5994785, -0.18724522, -0.9297611, 0.8264656, 0
826, 2853435522, 0.75107306, -0.08457003, 0.26553565, 0.5985784, 0.08644982, -0.040788207, 0.81563854, 0
827, 2853452189, 0.7514705, -0.085064285, 0.26507896, 0.59821206, -1.4207369, 0.27146918, -0.10029411, 0
829, 2853485523, 0.75257427, -0.08531126, 0.26452184, 0.59703493, 0.35813034, -0.30609226, 0.45008087, 0
830, 2853502190, 0.7526597, -0.085421994, 0.2651468, 0.596634, 0.47742838, 1.0513057, 0.58559513, 0
831, 2853518857, 0.75288343, -0.085852906, 0.2650515, 0.5963321, -0.2083422, 1.6358455, 1.0315514, 0
833, 2853552191, 0.75352377, -0.087886795, 0.26580197, 0.59489125, 0.72283167, 0.44265735, 0.4894333, 0
834, 2853568858, 0.7540268, -0.08889413, 0.2657258, 0.59413785, -0.33679733, -1.1758674, 0.11389446, 0
837, 2853618859, 0.7582907, -0.091369964, 0.25792694, 0.59176755, 1.4029472, 0.0848934, 2.0200405, 0
838, 2853635526, 0.7608681, -0.09172642, 0.25199673, 0.5909587, 0.21685784, -1.4639549, -0.8323059, 0
840, 2853668860, 0.76409733, -0.09435432, 0.24290998, 0.5901825, 0.1580119, 0.40445814, -0.671628, 0
841, 2853685527, 0.764918, -0.095413335, 0.23952001, 0.5903348, 0.08796444, -0.85157436, 0.27173805, 0
842, 2853702194, 0.76516145, -0.0963005, 0.23725574, 0.59078974, -0.20279442, -1.2765085, 0.044143677, 0
844, 2853735528, 0.7654822, -0.0986628, 0.2326731, 0.5918058, 0.6268618, -1.4468503, -0.2687683, 0
845, 2853752195, 0.76511014, -0.09984952, 0.23079573, 0.5928221, 1.6292747, -0.41878834, 0.87825394, 0
846, 2853768862, 0.7647679, -0.10077636, 0.22882727, 0.5938692, 0.7423927, -0.8990017, 0.42040825, 0
848, 2853802196, 0.76397884, -0.10223149, 0.2255412, 0.5958899, 0.42654487, -1.3299804, 0.48421, 0
849, 2853818863, 0.76313543, -0.1029344, 0.22465596, 0.5971824, 0.63131076, 0.063634306, 1.1554747, 0
852, 2853868864, 0.7611556, -0.10631822, 0.22227767, 0.59999967, 0.44217435, -0.99115247, 0.9203243, 0
853, 2853885531, 0.7606925, -0.10714897, 0.22113799, 0.60085976, -0.18616319, -1.2346029, -0.16166401, 0
854, 2853902198, 0.76022136, -0.10768905, 0.22001405, 0.60177165, -0.9583676, -1.1222746, -0.6615677, 0
856, 2853935532, 0.7587385, -0.10935957, 0.21900062, 0.60370815, 0.11613083, -1.8382243, 0.39954567, 0
857, 2853952199, 0.75774354, -0.11067815, 0.21957979, 0.6045067, -1.0098703, -1.2877415, 0.24200058, 0
858, 2853968866, 0.7566064, -0.111441895, 0.21972118, 0.60573816, -1.7690092, -2.283129, 0.32865906, 0
860, 2854002200, 0.75400513, -0.112113394, 0.22018895, 0.6086806, -0.10386962, -1.9609648, 0.4137087, 0
861, 2854018867, 0.75288415, -0.11202052, 0.22022928, 0.6100693, -0.20868655, -2.2281349, 0.5739355, 0
862, 2854035534, 0.7517631, -0.112184584, 0.22113459, 0.6110929, -1.0732696, -0.94219506, -0.038719177, 0
864, 2854068868, 0.7502957, -0.11185868, 0.22062434, 0.61313736, -0.9004155, -1.9177918, -0.4121666, 0
865, 2854085535, 0.7495448, -0.111116126, 0.21966201, 0.61453456, 0.09235002, -3.2170444, 0.49078465, 0
867, 2854118869, 0.7483144, -0.10992737, 0.21774922, 0.616924, 0.13824648, -1.0238199, 1.4771671, 0
868, 2854135536, 0.74782145, -0.1102795, 0.21786031, 0.61741936, -1.659608, 0.17558317, -0.001572609, 0
869, 2854152203, 0.747548, -0.11080647, 0.21764126, 0.61773336, -3.3482075, -0.70921636, -1.3021955, 0
871, 2854185537, 0.7464325, -0.11009676, 0.21653478, 0.6195952, 0.4995519, -3.331322, 0.58619976, 0
872, 2854202204, 0.7459205, -0.10955344, 0.21624981, 0.62040716, 0.33960715, -5.7165284, 2.3714638, 0
873, 2854218871, 0.74500793, -0.11028405, 0.21842839, 0.6206111, 1.7891116, 2.219507, 4.314967, 0
875, 2854252205, 0.74210554, -0.11171958, 0.22547719, 0.62131035, -4.3309035, -1.5305965, -2.4175768, 0
876, 2854268872, 0.7407881, -0.113190226, 0.22908606, 0.621296, -0.9434169, 0.64698863, -6.6107244, 0
879, 2854318873, 0.73853016, -0.106459886, 0.23214832, 0.6240313, -1.3207083, 4.479778, 1.431262, 0
880, 2854335540, 0.73741865, -0.104572825, 0.23553978, 0.6243937, -3.2486684, 5.7579064, 1.3992739, 0
881, 2854352207, 0.7363282, -0.102848105, 0.23971654, 0.62437767, -0.7478738, 2.5631323, -0.64022255, 0
883, 2854385541, 0.732986, -0.09810427, 0.24961431, 0.6251945, 2.617686, -2.3848162, 0.05121422, 0
884, 2854402208, 0.7331725, -0.096024275, 0.2515753, 0.62451226, 0.5130138, -0.10908058, 2.2575035, 0
885, 2854418875, 0.7345377, -0.09465843, 0.25228986, 0.622826, -1.6660516, 3.5750487, 2.694234, 0
887, 2854452209, 0.73770994, -0.09388171, 0.25255072, 0.6190773, -2.256242, 2.7345316, 2.5541544, 0
888, 2854468876, 0.73924017, -0.09388699, 0.25272647, 0.61717653, -1.0162158, 1.4283688, 1.889761, 0
889, 2854485543, 0.74080753, -0.09369107, 0.25310957, 0.6151668, 0.5283082, 0.8433019, 1.1675358, 0
891, 2854518877, 0.7434811, -0.09280036, 0.25368515, 0.6118302, 1.6491958, 2.5862877, -0.25270844, 0
894, 2854568878, 0.74706537, -0.090327546, 0.24992836, 0.6093755, 2.3263078, 0.9382715, 0.37749386, 0
895, 2854585545, 0.747867, -0.08991354, 0.2486995, 0.6089562, 1.6891681, 1.3111708, -1.7695055, 0
896, 2854602212, 0.7483485, -0.089978956, 0.24812135, 0.6085905, 1.9939243, 1.98637, -1.9994187, 0
898, 2854635546, 0.7486991, -0.08976928, 0.24750166, 0.60844266, 0.37196907, -0.1839482, 0.4737625, 0
899, 2854652213, 0.74877006, -0.08961961, 0.24720334, 0.6084985, 1.0046089, 1.1240335, 1.2433624, 0
900, 2854668880, 0.748904, -0.08966825, 0.24684882, 0.6084707, 0.13825405, 0.53388023, 0.18292618, 0
902, 2854702214, 0.7489549, -0.089756615, 0.24638902, 0.60858107, 0.043760937, 0.44421768, -0.54687214, 0
903, 2854718881, 0.74927455, -0.08968966, 0.24520734, 0.6086749, 0.4415253, -0.6444503, 1.3957405, 0
904, 2854735548, 0.7495111, -0.08958324, 0.24421686, 0.6087976, 0.39014784, -0.7092944, 0.12259102, 0
906, 2854768882, 0.7493678, -0.08974939, 0.2436331, 0.6091833, -0.509496, 0.00648629, 0.044309616, 0
908, 2854802216, 0.7492704, -0.09007883, 0.24339975, 0.6093477, 0.41024354, 0.5937461, 0.5727873, 0
910, 2854835550, 0.74878323, -0.090173155, 0.24367012, 0.6098244, 0.18893804, 0.28507596, -0.3341198, 0
911, 2854852217, 0.7484117, -0.09019944, 0.24404073, 0.61012834, -0.27234733, -0.3380529, 1.2548094, 0
912, 2854868884, 0.74825126, -0.09044967, 0.2445576, 0.61008096, 0.14123257, 0.34779453, 0.6832819, 0
914, 2854902218, 0.7483317, -0.0915006, 0.24536397, 0.6095015, -0.012951596, 0.82853246, 1.3611317, 0
915, 2854918885, 0.74840605, -0.092267334, 0.24532256, 0.6093112, -0.7141791, -0.32301557, 0.19775295, 0
917, 2854952219, 0.7487832, -0.09343798, 0.2452001, 0.60871875, -0.2254068, -0.48708367, -0.3936386, 0
918, 2854968886, 0.74911386, -0.093771696, 0.24479838, 0.6084219, -0.8506474, -0.83766073, -0.37921143, 0
919, 2854985553, 0.7494427, -0.094226934, 0.2443999, 0.60810685, -0.19919838, -0.051576845, -0.5856323, 0
921, 2855018887, 0.7507924, -0.0960836, 0.24193434, 0.60713637, 0.23028094, -0.21838613, 0.17090034, 0
923, 2855052221, 0.7523345, -0.09816514, 0.23768996, 0.60657096, 0.20794801, -0.812077, 1.2665024, 0
925, 2855085555, 0.7527102, -0.09941524, 0.23581526, 0.6066327, -1.100044, -0.8854269, -0.890831, 0
926, 2855102222, 0.7528963, -0.10032502, 0.23544705, 0.6063953, -0.13102916, -0.065685876, 1.2738323, 0
927, 2855118889, 0.75268775, -0.100790516, 0.23553382, 0.6065432, -0.093816236, -2.3671048, 0.5968094, 0
929, 2855152223, 0.7522311, -0.10138983, 0.2350182, 0.6072093, 0.15435942, -0.93222755, 0.789876, 0
930, 2855168890, 0.7522362, -0.1019184, 0.2343056, 0.60739005, 0.11998018, -0.69666076, 0.26169777, 0
931, 2855185557, 0.7521218, -0.10250135, 0.2337253, 0.6076571, -0.46737888, 0.22892661, 0.017736435, 0
933, 2855218891, 0.7520749, -0.10382908, 0.23222083, 0.60806644, 0.63202, -0.8799062, 0.88428116, 0
934, 2855235558, 0.75233346, -0.10456765, 0.23088004, 0.6081307, 0.02118847, -1.0706139, 1.1893873, 0
935, 2855252225, 0.75290364, -0.10546113, 0.22888644, 0.6080241, -0.5249431, -1.2516216, -0.4471693, 0
937, 2855285559, 0.7542795, -0.1074621, 0.22396499, 0.60780144, 0.109179646, -0.58698386, 1.307085, 0
938, 2855302226, 0.7548628, -0.108085304, 0.22158688, 0.60783815, 0.17534076, -1.6586074, -0.1939249, 0
939, 2855318893, 0.7552223, -0.10900064, 0.21983214, 0.6078655, -0.035124592, -0.6229076, -0.08033371, 0
941, 2855352227, 0.7561159, -0.11063374, 0.21569213, 0.6079427, -0.6782647, -2.1456165, 0.15900993, 0
942, 2855368894, 0.75637937, -0.1110227, 0.21391074, 0.60817325, -0.4987458, -1.897535, 0.5384464, 0
944, 2855402228, 0.7560398, -0.111649506, 0.2119197, 0.609177, -0.169702, -0.6818494, -0.08943272, 0
945, 2855418895, 0.75552756, -0.11191462, 0.2115882, 0.6098788, -0.80089575, -1.1727774, 0.7501831, 0
946, 2855435562, 0.75516194, -0.11240159, 0.21166022, 0.61021686, -0.60291225, -1.5395048, 0.72239494, 0
948, 2855468896, 0.7534331, -0.1121518, 0.2121352, 0.61223173, -0.8271594, -0.5786685, -0.04623127, 0
950, 2855502230, 0.75144815, -0.11145898, 0.21220225, 0.6147691, 0.8054805, -0.9758816, 1.0811825, 0
952, 2855535564, 0.74967396, -0.11167894, 0.21298364, 0.61662227, 0.6419782, -0.6447739, 0.87362003, 0
953, 2855552231, 0.74892247, -0.112096176, 0.2133781, 0.61732316, -0.0038221902, -0.48705915, 0.35392857, 0
954, 2855568898, 0.74822557, -0.112459145, 0.213861, 0.6179346, -1.5596377, -1.1006366, -1.6206055, 0
956, 2855602232, 0.7469786, -0.112360455, 0.21329993, 0.61965287, -0.28386548, -3.098055, -0.15564156, 0
957, 2855618899, 0.7463102, -0.1123129, 0.21310548, 0.62053305, 0.56117517, -1.866993, 2.1594734, 0
958, 2855635566, 0.7456968, -0.11279519, 0.21342467, 0.6210732, -0.23926045, -0.64744884, 1.9871264, 0
960, 2855668900, 0.7451718, -0.1149919, 0.21423064, 0.6210228, -2.121893, -1.2624735, -0.8486471, 0
961, 2855685567, 0.7450463, -0.11545363, 0.21413052, 0.62112236, -1.9670671, -2.375602, -2.1518054, 0
962, 2855702234, 0.7448995, -0.115332246, 0.21378548, 0.6214398, -0.55796325, -3.2149048, 0.13705921, 0
965, 2855752235, 0.74335074, -0.114006266, 0.21575455, 0.6228566, -0.8964169, 3.8695376, 0.29969406, 0
966, 2855768902, 0.7428106, -0.11452748, 0.21709293, 0.62294054, -1.878518, 3.3557117, -5.3876276, 0
968, 2855802236, 0.7430168, -0.11253452, 0.21584892, 0.62348986, 1.2514498, -1.7932384, -2.372406, 0
969, 2855818903, 0.74290466, -0.112005256, 0.21589878, 0.62370145, 2.9128852, 2.8823476, 0.5203209, 0
970, 2855835570, 0.74309546, -0.11131111, 0.21483593, 0.6239654, -0.14761214, 1.4600157, 2.3613977, 0
972, 2855868904, 0.7439611, -0.11064546, 0.21238077, 0.62389266, 3.8607764, 2.7353904, 1.2432823, 0
973, 2855885571, 0.7436657, -0.11063051, 0.21172377, 0.6244706, 4.371459, 0.12821877, 1.664382, 0
975, 2855918905, 0.7421734, -0.110002935, 0.21145709, 0.6264441, 1.92189, 0.20446406, 1.4456835, 0
976, 2855935572, 0.7412673, -0.10987717, 0.21124063, 0.62761104, 1.5114905, 1.5646135, 0.9059191, 0
977, 2855952239, 0.7396513, -0.10941011, 0.21177506, 0.6294165, 0.38591874, 1.2198099, 0.42741394, 0
980, 2856002240, 0.7336683, -0.10868637, 0.2150649, 0.6354002, 0.83099014, -0.08347399, -0.01905346, 0
981, 2856018907, 0.7316769, -0.108742855, 0.21593766, 0.63738775, 1.501949, 1.2036014, -0.1631689, 0
983, 2856052241, 0.7283918, -0.10862302, 0.21616843, 0.6410818, 0.7251895, 1.2614577, -0.14377594, 0
984, 2856068908, 0.72698176, -0.10866332, 0.2161779, 0.6426704, 0.7697888, 2.2078679, -0.0070142746, 0
985, 2856085575, 0.72525364, -0.1084007, 0.21646768, 0.6445669, 0.0752089, 1.0739107, -0.70133877, 0
987, 2856118909, 0.7213017, -0.106868714, 0.21885638, 0.6484391, 0.19494821, 0.46495837, -1.0694094, 0
988, 2856135576, 0.7194113, -0.10593471, 0.22063547, 0.65008736, 1.4749666, 0.2471247, -0.34797764, 0
989, 2856152243, 0.7173695, -0.1048327, 0.22318076, 0.65165156, 1.1217432, -0.102175094, 0.12855625, 0
991, 2856185577, 0.71423334, -0.10263609, 0.22816464, 0.6537168, -0.03306629, 0.40771714, 0.21201706, 0
992, 2856202244, 0.7132069, -0.10148299, 0.23020282, 0.6543027, -0.021230133, 0.46627232, 0.27631474, 0
995, 2856252245, 0.7107755, -0.098015, 0.23630422, 0.6553014, -1.0384715, -0.09234343, 0.21372509, 0
996, 2856268912, 0.71015507, -0.09690024, 0.23897068, 0.6551728, -0.5346805, 0.27851513, 1.0634079, 0
997, 2856285579, 0.7094244, -0.096066944, 0.24200363, 0.654974, -1.1450385, 0.37605312, -0.56787014, 0
999, 2856318913, 0.71001804, -0.09534335, 0.24390891, 0.6537285, -0.017525898, -0.4587783, 2.2151613, 0
1000, 2856335580, 0.7104424, -0.09521027, 0.24474327, 0.6529746, 0.4966354, 1.4329718, 0.26843357, 0
1002, 2856368914, 0.7114968, -0.09479731, 0.24616677, 0.6513493, 0.017129445, 1.1164094, 0.94828033, 0
1003, 2856385581, 0.712037, -0.09488474, 0.24738613, 0.65028346, -0.026441611, 1.2187966, 0.20726681, 0
1004, 2856402248, 0.71256125, -0.09454446, 0.2484168, 0.6493651, -0.8550724, -0.2113363, -0.45699692, 0
1006, 2856435582, 0.7138033, -0.09481323, 0.2498734, 0.6474004, 0.841847, 1.0653427, 0.91419125, 0
1007, 2856452249, 0.71496516, -0.09467889, 0.24946411, 0.6462946, 1.0038763, -0.534589, 0.9634571, 0
1008, 2856468916, 0.7159979, -0.09449463, 0.24944818, 0.64518344, 0.46321046, 0.3680124, -0.053229332, 0
1010, 2856502250, 0.71817726, -0.09415852, 0.24923699, 0.6428878, -1.492968, 0.43559417, -0.35676765, 0
1011, 2856518917, 0.71898663, -0.093951546, 0.24972461, 0.64182353, -0.6651679, 0.05584505, 0.11398888, 0
1012, 2856535584, 0.7199018, -0.09394776, 0.24967049, 0.64081836, -0.34308434, -1.171037, 0.51622486, 0
1014, 2856568918, 0.72189707, -0.09404369, 0.2486514, 0.6389532, -0.53572536, -1.1872221, 0.24523544, 0
1015, 2856585585, 0.72275907, -0.09368918, 0.24813056, 0.63823277, -1.2621002, -0.9598929, 0.12840176, 0
1016, 2856602252, 0.72351485, -0.09323592, 0.24788013, 0.63754, -1.4388784, -0.41643572, -0.12406731, 0
1018, 2856635586, 0.7251224, -0.09250598, 0.24700475, 0.63615805, 0.5028075, -0.9888584, 1.7095547, 0
1019, 2856652253, 0.7256099, -0.09192768, 0.24731635, 0.6355647, -0.27233326, -0.57454586, 0.73084164, 0
1022, 2856702254, 0.72645015, -0.09032864, 0.25004938, 0.6337621, -0.30032516, -0.365497, 0.6571703, 0
1023, 2856718921, 0.7268317, -0.09030715, 0.2502973, 0.63322985, -0.4789415, -0.9896454, 0.8275566, 0
1025, 2856752255, 0.72853833, -0.09117231, 0.24948996, 0.6314607, -0.25806838, -0.3446005, 0.7334995, 0
1026, 2856768922, 0.7296258, -0.0920113, 0.2486826, 0.630401, -0.89081013, -0.4549529, -0.32405853, 0
1027, 2856785589, 0.7307597, -0.09253864, 0.24762325, 0.62942666, -0.1677129, 0.113714784, 1.4461193, 0
1029, 2856818923, 0.7330256, -0.09322415, 0.24568073, 0.62744886, -0.75084853, -0.40750936, -0.79875183, 0
1030, 2856835590, 0.733755, -0.09393625, 0.24557574, 0.6265305, -0.15853086, 0.26191723, -0.17640018, 0
1031, 2856852257, 0.73445153, -0.09412274, 0.24540146, 0.62575436, -0.64178693, -1.234161, 1.197711, 0
1033, 2856885591, 0.7357515, -0.094331205, 0.24611472, 0.6239128, -1.1735861, -0.2989472, 0.03482628, 0
1034, 2856902258, 0.7363709, -0.0943224, 0.24590425, 0.62326634, -0.995463, -0.5913025, 0.96436596, 0
1037, 2856952259, 0.73814356, -0.09483069, 0.24517253, 0.62137747, -0.5183547, -1.551388, 0.102562904, 0
1038, 2856968926, 0.7386117, -0.09539489, 0.24533302, 0.62067115, 0.22956924, -0.38506767, 0.85619545, 0
1039, 2856985593, 0.7392444, -0.09448672, 0.24488999, 0.6202316, -1.8813783, -2.459309, 0.17852306, 0
1041, 2857018927, 0.74057543, -0.09225612, 0.24459511, 0.619095, -0.2945973, 0.3631136, 1.0589972, 0
1042, 2857035594, 0.74047244, -0.09154456, 0.24523874, 0.6190692, 0.65030277, 1.0998623, 0.96674347, 0
1043, 2857052261, 0.74009, -0.09156641, 0.24628899, 0.6191062, -0.5226715, -0.36454618, 0.24673843, 0
1045, 2857085595, 0.74022806, -0.09095739, 0.24671935, 0.6188594, -1.0473616, -2.318485, -0.920887, 0
1046, 2857102262, 0.7402121, -0.089665696, 0.24637529, 0.61920416, -1.9237479, -3.6546228, 0.8740549, 0
1047, 2857118929, 0.74004304, -0.08888704, 0.24629517, 0.6195503, -1.0653987, -2.0899587, 0.5655613, 0
1049, 2857152263, 0.73923343, -0.08947883, 0.24792379, 0.6197821, -1.0647861, -1.4158103, 0.3449831, 0
1052, 2857202264, 0.7394694, -0.089811616, 0.24624266, 0.6201223, -1.9882678, -2.7390158, 0.4537363, 0
1053, 2857218931, 0.73983043, -0.089688346, 0.24488562, 0.6202469, -0.71134573, -2.3687747, 2.1541948, 0
1054, 2857235598, 0.73977077, -0.09000689, 0.24471863, 0.62033796, -0.6564908, 0.6049931, 3.2333326, 0
1056, 2857268932, 0.7400357, -0.09243401, 0.24509455, 0.6195159, -0.38149682, -0.51792496, -1.4513597, 0
1057, 2857285599, 0.74030757, -0.0933394, 0.24420074, 0.6194085, 1.2394049, -0.5754434, -4.643419, 0
1058, 2857302266, 0.74059945, -0.093293086, 0.24296267, 0.6195533, 2.051991, -1.0581162, -4.6052365, 0
1060, 2857335600, 0.74053633, -0.090926826, 0.24030755, 0.62101424, 2.3303237, 4.073002, 0.9923029, 0
1061, 2857352267, 0.73998016, -0.08962939, 0.24059647, 0.6217536, -1.5593973, 4.127805, 1.7708511, 0
1062, 2857368934, 0.7394033, -0.090095215, 0.24242331, 0.6216629, 0.4557068, 7.121434, 2.3854628, 0
1064, 2857402268, 0.7372943, -0.08897258, 0.24555877, 0.6230973, 0.2526909, -2.6514487, -0.21487236, 0
1066, 2857435602, 0.73669916, -0.0888118, 0.24686457, 0.6233081, 0.15886281, -2.0736325, -0.17970943, 0
1068, 2857468936, 0.738825, -0.0888298, 0.24516833, 0.6214561, -1.8084959, 3.45116, 4.16485, 0
1069, 2857485603, 0.74033046, -0.089539036, 0.24449337, 0.6198265, -0.9950598, 6.947789, 1.6595182, 0
1070, 2857502270, 0.74158084, -0.09029242, 0.24422261, 0.61832726, -1.8574703, 3.2536721, -0.05701542, 0
1072, 2857535604, 0.74285793, -0.0914253, 0.24530834, 0.6161946, 1.0298487, 2.186004, -1.7918091, 0
1073, 2857552271, 0.7437839, -0.09164237, 0.24536856, 0.61502033, 0.9721781, 1.5934078, -0.726614, 0
1074, 2857568938, 0.74496317, -0.09187185, 0.24475084, 0.6138035, 0.98675334, 2.2191057, -0.042035103, 0
1076, 2857602272, 0.7472141, -0.09287237, 0.24190763, 0.6120417, 2.1325932, 2.4517655, -0.010807991, 0
1077, 2857618939, 0.7480544, -0.093366824, 0.24025556, 0.6115905, 3.072982, 1.5973331, 0.9097223, 0
1078, 2857635606, 0.74842757, -0.09317193, 0.2384648, 0.6118645, 1.5887089, -0.98435384, 0.876915, 0
1080, 2857668940, 0.74845564, -0.09357694, 0.2358853, 0.6127676, 1.680373, -0.26981735, -0.3651266, 0
1081, 2857685607, 0.7481361, -0.09379701, 0.23499441, 0.6134659, 1.4373354, -0.99984664, 0.90347767, 0
1083, 2857718941, 0.74651915, -0.0941237, 0.23502089, 0.61537254, 0.1037257, -0.2724668, 0.22205639, 0
1084, 2857735608, 0.74560976, -0.09416521, 0.23519115, 0.61640275, 0.24746542, -0.5029046, -0.48380184, 0
1085, 2857752275, 0.7446208, -0.09428621, 0.23547065, 0.6174723, 1.215657, -0.27221516, 0.07439327, 0
1087, 2857785609, 0.74233264, -0.09362306, 0.236158, 0.6200602, -0.019981246, -0.98964316, -0.19860554, 0
1088, 2857802276, 0.7409666, -0.09324215, 0.23738351, 0.62128234, -0.6432031, -0.36345688, -0.9519205, 0
1089, 2857818943, 0.7397568, -0.09302479, 0.23851396, 0.6223228, -0.87119997, -0.91946757, 0.73520374, 0
1091, 2857852277, 0.7379256, -0.0920526, 0.24011733, 0.6240225, -0.17047255, -0.6490661, 2.1840525, 0
1093, 2857885611, 0.7366424, -0.0913934, 0.2414578, 0.62511736, 0.5702281, 2.0775104, -1.1416016, 0
1095, 2857918945, 0.7363843, -0.09170753, 0.24165002, 0.62530136, 0.24308437, 0.55029196, 0.32151222, 0
1096, 2857935612, 0.73653805, -0.09185328, 0.24151862, 0.6251495, 0.96131057, 0.66091305, 0.6633444, 0
1097, 2857952279, 0.7368018, -0.09220874, 0.24106008, 0.62496316, -0.6031525, 0.5067895, 0.29509163, 0
1099, 2857985613, 0.73847866, -0.09431402, 0.23766014, 0.6239715, 0.6497548, 0.45209172, 1.7303934, 0
1100, 2858002280, 0.7396308, -0.09566397, 0.23538478, 0.6232633, 1.3851234, 0.102428384, 1.4209747, 0
1101, 2858018947, 0.74048346, -0.09679217, 0.23369251, 0.6227132, 0.7385866, 1.0108001, 1.0332537, 0
1103, 2858052281, 0.7413582, -0.09824231, 0.23203318, 0.62206554, -1.1641688, 0.26895648, -0.8683319, 0
1104, 2858068948, 0.7416189, -0.09892981, 0.23176111, 0.62174714, -0.113307774, -0.37392497, -0.3349476, 0
1105, 2858085615, 0.74174964, -0.09932752, 0.23107186, 0.6217843, 0.38357478, -1.6163462, -0.09183216, 0
1108, 2858135616, 0.7422354, -0.099631, 0.22798076, 0.6222968, -0.08907787, -0.21816139, 0.27137756, 0
1110, 2858168950, 0.74232745, -0.10017723, 0.22594427, 0.6228418, 0.86809605, 0.4659793, 1.6568556, 0
1111, 2858185617, 0.7420618, -0.100594744, 0.22548352, 0.62325776, -0.10875105, 0.07321396, 0.026659966, 0
1112, 2858202284, 0.74180394, -0.100987025, 0.22511311, 0.6236353, -0.5364329, -0.77555925, -0.97620773, 0
1114, 2858235618, 0.74084663, -0.101256624, 0.22501755, 0.624763, -0.05862411, -1.70975, -0.43363762, 0
1115, 2858252285, 0.74025923, -0.101304956, 0.22521204, 0.62538105, 0.7468452, -0.938909, 1.3053961, 0
1116, 2858268952, 0.7398458, -0.10147859, 0.22500646, 0.62591577, 0.38927075, -0.52764237, 1.0645437, 0
1118, 2858302286, 0.7391543, -0.10161094, 0.22486545, 0.62676156, -0.4793701, -0.05796814, 0.6059103, 0
1119, 2858318953, 0.7387305, -0.10186644, 0.22504482, 0.62715536, 0.033695627, 0.12394978, 0.1721592, 0
1120, 2858335620, 0.738293, -0.10174369, 0.22525442, 0.627615, 0.38640413, -0.6288478, 1.234807, 0
1123, 2858385621, 0.73634803, -0.10193938, 0.22890922, 0.62854505, -0.04400813, -0.34548068, 1.3845005, 0
1124, 2858402288, 0.7362605, -0.10228714, 0.22872378, 0.62865853, 0.35299277, -0.7454197, 0.23933029, 0
1126, 2858435622, 0.73690146, -0.10456767, 0.22740649, 0.62801015, -0.62015593, -0.09040132, 0.85248184, 0
1127, 2858452289, 0.7377295, -0.10550575, 0.22612616, 0.62734294, -0.31382433, -0.6042423, 0.2076931, 0
1128, 2858468956, 0.7384461, -0.10573448, 0.22524053, 0.6267795, -0.52188414, -1.3327166, -0.101099014, 0
1130, 2858502290, 0.73892754, -0.10552113, 0.22464123, 0.62646323, -0.023240913, -0.17403316, 0.2846632, 0
1131, 2858518957, 0.7390049, -0.105065525, 0.22442009, 0.62652767, -0.71056426, -1.3016294, -0.9277859, 0
1133, 2858552291, 0.7387216, -0.10431821, 0.22440758, 0.626991, 0.4531938, -1.0087584, 0.62572575, 0
1134, 2858568958, 0.7380567, -0.10434141, 0.22528999, 0.6274535, 0.49249905, 0.37270284, 0.4552307, 0
1135, 2858585625, 0.7375281, -0.10466109, 0.22625697, 0.62767404, -1.1881702, -0.5356859, -0.092350006, 0
1138, 2858635626, 0.7368484, -0.10436137, 0.22723924, 0.62816715, -0.2426457, -2.197898, 1.6440172, 0
1139, 2858652293, 0.73664, -0.104070246, 0.22723219, 0.62846255, -0.29088166, -1.8828512, 0.8211765, 0
1141, 2858685627, 0.73695064, -0.10405032, 0.22653583, 0.62835276, -1.9858632, -2.0775216, -0.6300163, 0
1142, 2858702294, 0.73702574, -0.10406849, 0.22641954, 0.62830365, -2.3334334, 0.13386962, -1.3276157, 0
1143, 2858718961, 0.7372983, -0.10337132, 0.22559366, 0.628396, -2.5312533, -1.1155835, 0.36622334, 0
1145, 2858752295, 0.7376519, -0.1004857, 0.22440666, 0.6288737, 1.1937505, -0.5252972, 2.791628, 0
1146, 2858768962, 0.7376866, -0.09942886, 0.22419448, 0.6290766, 0.9589291, -1.1126646, 2.553752, 0
1147, 2858785629, 0.73769957, -0.0999109, 0.22461525, 0.62883496, 0.20761277, -0.1724408, 1.2320404, 0
1149, 2858818963, 0.7378471, -0.101830296, 0.22534336, 0.6280933, -3.2680285, -1.4546733, -4.49251, 0
1150, 2858835630, 0.7379585, -0.10291024, 0.22442566, 0.6281148, -2.1985009, -4.243167, 0.33139896, 0
1151, 2858852297, 0.73778534, -0.103424445, 0.22429696, 0.62827975, -1.8533947, -3.5670755, 2.0326214, 0
1153, 2858885631, 0.73729706, -0.10345805, 0.22531582, 0.6284827, -0.31299984, 1.5526499, 3.3639288, 0
1154, 2858902298, 0.73736376, -0.10430015, 0.22616912, 0.62795866, 2.812659, 5.0739837, -1.1260576, 0
1155, 2858918965, 0.7377167, -0.10480977, 0.22512119, 0.62783587, 3.0670106, 2.3552806, -1.2453794, 0
1157, 2858952299, 0.7375143, -0.10446942, 0.22393988, 0.6285523, 2.930908, 3.0370576, -2.5848484, 0
1158, 2858968966, 0.73677874, -0.10400322, 0.2251657, 0.6290544, -0.36944622, 1.1444443, -1.5127754, 0
1160, 2859002300, 0.73473233, -0.10120116, 0.22903705, 0.63050544, 0.8394833, 0.3574187, 0.7882471, 0
1161, 2859018967, 0.73374724, -0.09963542, 0.23090644, 0.63121986, 2.1981852, 2.9669816, 1.7268286, 0
1162, 2859035634, 0.7333927, -0.09885691, 0.23159848, 0.6315007, 0.114209585, -0.28865704, 1.5233536, 0
1165, 2859085635, 0.7333253, -0.09858178, 0.23064832, 0.63196945, -1.4643766, 0.36640826, -0.10690498, 0
1166, 2859102302, 0.733449, -0.098718435, 0.23009694, 0.6320056, 0.26364455, 1.507318, 0.68696785, 0
1168, 2859135636, 0.733273, -0.09888144, 0.22903141, 0.632571, 2.129913, 2.9173858, 1.0844231, 0
1169, 2859152303, 0.73317826, -0.09905339, 0.22836871, 0.6328933, 1.269575, 2.1402745, -0.21525002, 0
1170, 2859168970, 0.7331702, -0.09921686, 0.22768193, 0.6331245, 1.6127294, 1.9371783, -0.93220806, 0
1172, 2859202304, 0.7333001, -0.09970871, 0.22555216, 0.633659, 1.9004246, 0.7413824, 0.38578796, 0
1173, 2859218971, 0.7331017, -0.09974505, 0.22431187, 0.63432276, 1.6644366, 1.3982639, 0.036647797, 0
1174, 2859235638, 0.7329438, -0.099726245, 0.22304338, 0.63495535, 1.0381849, 1.3659974, 0.4526024, 0
1176, 2859268972, 0.732043, -0.09996605, 0.22202842, 0.6363107, 1.4141319, 1.7390296, 1.1150665, 0
1177, 2859285639, 0.7310332, -0.09999939, 0.22256294, 0.63727915, 1.1382648, 1.0237582, 0.98806, 0
1180, 2859335640, 0.72720295, -0.09826368, 0.22651479, 0.6405307, -0.22936656, -0.88940525, -0.7991352, 0
1181, 2859352307, 0.72616816, -0.09837773, 0.22729695, 0.6414094, 0.5463677, 0.49448258, -0.5184803, 0
1182, 2859368974, 0.72574264, -0.098674305, 0.22682527, 0.64201206, 0.8010813, 0.16762902, 1.8007565, 0
1184, 2859402308, 0.72550863, -0.099301636, 0.22556518, 0.64262354, 0.3441162, 0.26570925, -0.036492348, 0
1185, 2859418975, 0.7252806, -0.0991769, 0.22491881, 0.6431266, -0.99341685, -1.3085796, 1.3530931, 0
1186, 2859435642, 0.72519165, -0.0988056, 0.22411561, 0.64356446, -1.1769927, -1.6343292, 0.48349476, 0
1188, 2859468976, 0.7245561, -0.098111965, 0.22477946, 0.6441545, -1.0900973, -0.008130955, -2.0106354, 0
1189, 2859485643, 0.7242594, -0.09829008, 0.22535291, 0.6442606, 0.79720515, 2.6208673, 0.041147232, 0
1191, 2859518977, 0.7247447, -0.09872718, 0.22459875, 0.64391124, 0.75551397, 0.027019028, 1.4615431, 0
1192, 2859535644, 0.7251275, -0.09913352, 0.22401012, 0.6436229, -0.2770675, -0.30575997, 0.85593605, 0
1195, 2859585645, 0.72629386, -0.1000112, 0.22214475, 0.64281803, -0.37725377, -0.9098912, 0.19946861, 0
1196, 2859602312, 0.72693014, -0.10027617, 0.22118436, 0.6423886, 0.49549323, 0.10821731, 0.44316006, 0
1197, 2859618979, 0.72740054, -0.10031591, 0.2206263, 0.6420417, 0.05758098, 0.089165635, 0.3386879, 0
1199, 2859652313, 0.72901607, -0.100629404, 0.21862882, 0.64084256, 0.23188268, -0.05067234, -0.1050787, 0
1200, 2859668980, 0.7295805, -0.1005585, 0.2178269, 0.64048433, -0.5845355, -0.69381523, 0.9802809, 0
1201, 2859685647, 0.7300223, -0.10039128, 0.21689539, 0.64032304, -0.91316754, -0.6561521, -0.2682724, 0
1203, 2859718981, 0.73070663, -0.10080101, 0.21584879, 0.6398318, 1.4993751, 0.88689214, 0.79818726, 0
1204, 2859735648, 0.7308581, -0.1009356, 0.21557218, 0.6397308, 1.3041502, 0.62531954, 0.905673, 0
1205, 2859752315, 0.7307724, -0.10125237, 0.21555792, 0.6397834, 0.75444925, 0.93415266, 0.8889952, 0
1207, 2859785649, 0.7300955, -0.10143367, 0.21588781, 0.64041597, -0.48416126, -1.3450973, -0.82948494, 0
1209, 2859818983, 0.72902995, -0.10102602, 0.2158387, 0.6417097, 1.5883821, -1.3415884, 1.1174812, 0
1212, 2859868984, 0.72664994, -0.10013699, 0.21791796, 0.6438421, -0.6113973, 0.6678656, -0.6848335, 0
1213, 2859885651, 0.7253854, -0.09971335, 0.21967688, 0.64473534, -0.024044177, -0.8147031, 0.13921356, 0
1215, 2859918985, 0.722696, -0.09876885, 0.22468677, 0.646173, 0.0015540436, -0.87857264, 0.13899708, 0
1216, 2859935652, 0.7215254, -0.098165914, 0.22719711, 0.646695, -0.5292346, 0.29421043, 0.7464237, 0
1218, 2859968986, 0.7193672, -0.096410826, 0.23257913, 0.64744973, -0.52200884, 0.8244501, 1.1168051, 0
1219, 2859985653, 0.71840787, -0.09529425, 0.2352279, 0.6477234, -1.3865792, -0.8064875, -0.6170225, 0
1220, 2860002320, 0.7170849, -0.09423402, 0.23880823, 0.6480343, -0.34496373, -0.07855607, -0.73403645, 0
1222, 2860035654, 0.7157984, -0.09222145, 0.24317314, 0.6481228, 0.00506984, -0.41045198, 0.5523157, 0
1223, 2860052321, 0.71590114, -0.092083715, 0.24405442, 0.64769745, 0.7180765, 0.24559045, 1.3787146, 0
1224, 2860068988, 0.7160372, -0.09217455, 0.24494854, 0.6471965, -0.47741395, 0.7943713, 1.2953491, 0
1226, 2860102322, 0.7170027, -0.09305277, 0.24671279, 0.645329, -1.8123986, 1.1141797, 0.016449928, 0
1227, 2860118989, 0.71770763, -0.09311479, 0.2474182, 0.64426565, -2.0716836, -0.7576044, -0.01796627, 0
1228, 2860135656, 0.71842206, -0.093356155, 0.24798125, 0.643217, -0.90860647, -0.025674878, -0.45050526, 0
1230, 2860168990, 0.7213283, -0.09500801, 0.24675655, 0.6401863, -0.046593573, -0.6317879, 0.4503355, 0
1231, 2860185657, 0.7232039, -0.095453136, 0.24544436, 0.63850635, -1.3353008, -0.6011079, 0.2868414, 0
1232, 2860202324, 0.72468793, -0.09577563, 0.24471958, 0.6370517, -1.412257, -0.084466554, 0.28391075, 0
1234, 2860235658, 0.72715855, -0.09575538, 0.24355811, 0.63468015, -1.9702249, -1.5721405, -0.21385956, 0
1235, 2860252325, 0.72802377, -0.095728084, 0.24356826, 0.6336879, -0.07353438, -0.88576305, 0.45010567, 0
1238, 2860302326, 0.7296946, -0.09454655, 0.24365996, 0.6319057, -2.071517, -1.6656266, 0.03854847, 0
1239, 2860318993, 0.72980404, -0.09367365, 0.24382797, 0.6318446, -2.3879094, -1.006573, 0.39048862, 0
1241, 2860352327, 0.729765, -0.09177858, 0.24417624, 0.6320332, -0.836876, -1.5782084, 1.6898117, 0
1242, 2860368994, 0.7296298, -0.091022275, 0.24535254, 0.63184315, -0.38248792, -2.230914, -1.8828516, 0
1243, 2860385661, 0.7297901, -0.089858934, 0.24560472, 0.63172656, -0.96183735, -1.538505, 0.5641346, 0
1245, 2860418995, 0.72970545, -0.08798046, 0.24780078, 0.63123095, -0.6732221, 2.5484478, 1.3646154, 0
1246, 2860435662, 0.7299191, -0.08703576, 0.24862036, 0.6307925, -1.7513423, -0.38213238, 1.6575956, 0
1247, 2860452329, 0.73036844, -0.08656499, 0.24927802, 0.63007724, 0.19577825, 3.8748121, 0.51273537, 0
1249, 2860485663, 0.7322538, -0.08625338, 0.2486334, 0.62818366, 1.2954082, 2.3257618, -1.0176363, 0
1250, 2860502330, 0.7334374, -0.0856956, 0.24771255, 0.6272422, 0.8667193, 0.26481014, 0.5608263, 0
1253, 2860552331, 0.73628914, -0.08437191, 0.2461775, 0.62467957, 0.9901273, 2.1121545, 1.3515711, 0
1254, 2860568998, 0.7368018, -0.08389427, 0.24604483, 0.62419164, 1.1392835, 1.9025278, 1.8220243, 0
1255, 2860585665, 0.737368, -0.083591886, 0.2456516, 0.62371826, 0.57827926, 0.8379089, 1.6925611, 0
1257, 2860618999, 0.7383151, -0.08346397, 0.24497768, 0.62287956, 2.065528, 1.8819996, 1.3275146, 0
1258, 2860635666, 0.73849076, -0.08350862, 0.24477647, 0.6227443, 1.6449785, 2.0143542, 0.59620285, 0
1259, 2860652333, 0.73825264, -0.08318496, 0.24454229, 0.6231617, 1.0645331, 1.205917, 0.024269104, 0
1261, 2860685667, 0.73632175, -0.08229754, 0.24605758, 0.62496513, 1.9683853, 2.4433858, -1.025342, 0
1262, 2860702334, 0.7351762, -0.08172405, 0.24714558, 0.62595904, 1.1266834, 1.1961819, 0.5190277, 0
1263, 2860719001, 0.7339844, -0.08126395, 0.24843633, 0.62690556, 1.2284876, 1.7147691, 0.18392658, 0
1265, 2860752335, 0.7320922, -0.080793425, 0.250961, 0.62817204, 0.821441, 1.1675383, 0.55549145, 0
1268, 2860802336, 0.73077923, -0.080857374, 0.25481585, 0.62814087, -0.9499738, 0.3636941, -0.97544765, 0
1269, 2860819003, 0.73054534, -0.08110643, 0.2563633, 0.62775123, -0.29951954, 1.4002281, 0.14322186, 0
1270, 2860835670, 0.7307037, -0.081036665, 0.25732133, 0.6271838, -1.1846395, -0.6652331, -0.22348213, 0
1272, 2860869004, 0.73173, -0.08089896, 0.2581839, 0.62564856, -1.038983, -0.041967798, 1.7621536, 0
1273, 2860885671, 0.7325988, -0.08109638, 0.25760865, 0.624843, -0.840171, -0.30129182, 0.5364971, 0
1274, 2860902338, 0.7336471, -0.08192174, 0.2567287, 0.62386644, -0.017766835, 1.8218027, 0.1599493, 0
1276, 2860935672, 0.73654866, -0.08308607, 0.25247496, 0.6220268, 0.078299165, -1.1845115, 0.39263153, 0
1277, 2860952339, 0.7380773, -0.083501756, 0.25027844, 0.6210463, -0.37346292, -0.32294393, 0.46277714, 0
1278, 2860969006, 0.73953116, -0.084015705, 0.24841751, 0.6199937, -0.28713578, 0.75369555, -0.8017092, 0
1280, 2861002340, 0.74140817, -0.08431948, 0.24583933, 0.6187371, 0.029665869, -0.33322027, 1.406971, 0
1282, 2861035674, 0.7424442, -0.08487723, 0.24553213, 0.6175394, -0.038696356, 0.33221257, 0.89007473, 0
1284, 2861069008, 0.7425148, -0.08443882, 0.24619284, 0.6172513, 0.11968001, 0.10149779, 0.6136503, 0
1285, 2861085675, 0.7428563, -0.08447025, 0.2459221, 0.6169439, 0.2987449, 0.2496005, -0.56592655, 0
1286, 2861102342, 0.74318486, -0.0846226, 0.2454207, 0.6167271, 1.0119594, 0.32289124, -1.1094322, 0
1288, 2861135676, 0.7438984, -0.08501291, 0.24316165, 0.61670804, 0.856604, -0.16741657, 0.71724606, 0
1289, 2861152343, 0.74428904, -0.08562663, 0.24244912, 0.6164323, 0.64231396, 1.0106367, 0.22389698, 0
1290, 2861169010, 0.7445757, -0.085914694, 0.24146388, 0.61643255, 0.47237122, 0.4226892, 1.4531279, 0
1292, 2861202344, 0.7437225, -0.08674564, 0.2423491, 0.6169987, -0.55413437, 0.6495485, -0.16442585, 0
1293, 2861219011, 0.743322, -0.08709755, 0.24284892, 0.6172352, -0.49388036, -1.1785127, -0.23758984, 0
1294, 2861235678, 0.742769, -0.08708349, 0.2432273, 0.6177535, 1.2370458, -1.0989044, -0.11170483, 0
1296, 2861269012, 0.7418511, -0.08724937, 0.24348204, 0.618732, 0.24675928, 0.26943642, 0.5192747, 0
1297, 2861285679, 0.7415517, -0.08741421, 0.2434473, 0.61908114, -0.9736649, 0.3438084, -0.5828495, 0
1299, 2861319013, 0.7411549, -0.087722465, 0.2426588, 0.61982197, -0.14258388, -1.2819364, 1.0618029, 0
1300, 2861335680, 0.7410349, -0.08786721, 0.24224426, 0.6201072, 0.23289576, -0.7070308, 1.1830263, 0
1301, 2861352347, 0.74119127, -0.08826461, 0.24138334, 0.6201995, -0.12105529, -0.79903704, 0.36059284, 0
1303, 2861385681, 0.7420292, -0.09009834, 0.23957254, 0.6196356, -0.2511945, 1.408236, 1.2307034, 0
1304, 2861402348, 0.74245375, -0.09060775, 0.2387472, 0.6193713, -1.5114676, -0.3958472, -0.35167694, 0
1305, 2861419015, 0.74262184, -0.091381036, 0.23852493, 0.6191418, -0.61673737, 0.81380045, -0.15675354, 0
1307, 2861452349, 0.7435068, -0.092997186, 0.23627606, 0.6187012, 0.86979145, -0.99932486, 0.38354588, 0
1309, 2861485683, 0.74480635, -0.09452741, 0.23410755, 0.6177298, -0.36881775, -1.0889988, 0.17032242, 0
1311, 2861519017, 0.7458242, -0.094257146, 0.2315311, 0.617514, -0.73582596, -1.7026305, 0.869544, 0
1312, 2861535684, 0.74593407, -0.09421252, 0.23124225, 0.61749625, 0.16316357, -0.31375733, -0.2338705, 0
1313, 2861552351, 0.74565905, -0.094834276, 0.23174156, 0.61754626, 0.45083258, 0.85206544, -0.28738594, 0
1315, 2861585685, 0.7447725, -0.09568583, 0.23273677, 0.6181102, 0.521038, -0.70853305, -0.08274174, 0
1316, 2861602352, 0.74452484, -0.09590521, 0.23313595, 0.618224, 0.7289179, -0.64709926, 0.9804487, 0
1317, 2861619019, 0.74426943, -0.09566585, 0.23356108, 0.61840826, -0.5483974, -1.6315358, 0.6535473, 0
1319, 2861652353, 0.7445899, -0.096635625, 0.2325624, 0.61824787, -1.3082654, -0.71638423, 1.3845577, 0
1320, 2861669020, 0.745161, -0.09755101, 0.23159799, 0.61777794, -0.15193543, -0.6522136, -0.22823429, 0
1321, 2861685687, 0.74562085, -0.098140165, 0.23040394, 0.61757636, 0.18097158, -1.6466613, -0.29119778, 0
1324, 2861735688, 0.7470199, -0.099372074, 0.22850037, 0.61639476, -1.4989699, -1.606661, -0.77185726, 0
1326, 2861769022, 0.74716747, -0.099189386, 0.22710602, 0.61676025, -0.8882631, -1.7941872, 1.0552588, 0
1327, 2861785689, 0.74734855, -0.09927951, 0.22622284, 0.6168512, 0.5731822, -1.6784836, 2.236683, 0
1328, 2861802356, 0.7472496, -0.099834956, 0.22645636, 0.61679584, 0.48253715, -0.59309596, 0.9998722, 0
1330, 2861835690, 0.74679863, -0.100345366, 0.22644669, 0.61726236, -3.0016742, -2.0326564, -1.9292464, 0
1331, 2861852357, 0.746713, -0.09999579, 0.22516431, 0.61789155, -1.4311584, -3.3659575, 0.17194176, 0
1332, 2861869024, 0.74645656, -0.10012045, 0.22444278, 0.6184435, -0.22565323, -3.842308, 1.0252848, 0
1334, 2861902358, 0.7468294, -0.10047898, 0.22246438, 0.6186501, -1.1730263, -2.360984, 2.5872345, 0
1335, 2861919025, 0.74714303, -0.10112278, 0.22206575, 0.6183094, -0.9160445, 0.46747142, 0.97380257, 0
1336, 2861935692, 0.7470957, -0.101661414, 0.22188647, 0.61834276, -2.6127434, -1.6900847, -0.15749454, 0
1339, 2861985693, 0.7460529, -0.102373496, 0.22297318, 0.61909294, 0.5345334, 0.23883857, 1.316534, 0
1340, 2862002360, 0.74517983, -0.1013783, 0.22372943, 0.6200347, 1.4365939, 0.43207332, 2.5349665, 0
1342, 2862035694, 0.7434957, -0.10057657, 0.226177, 0.6212977, 1.6017228, 3.5698855, -3.856245, 0
1343, 2862052361, 0.74296343, -0.100265406, 0.22624731, 0.62195873, 2.467429, 2.5723226, -2.400724, 0
1344, 2862069028, 0.7423441, -0.09829607, 0.22552548, 0.6232735, 1.8950124, 0.53052723, -0.483119, 0
1346, 2862102362, 0.74132246, -0.09669718, 0.22550549, 0.6247449, 1.4248725, 3.3234966, -1.7734108, 0
1347, 2862119029, 0.74125594, -0.09605278, 0.22449848, 0.62528574, 1.4058858, 1.2043121, 2.6008253, 0
1348, 2862135696, 0.7411616, -0.09533688, 0.22328426, 0.6259415, 1.6436845, -0.05297, 3.2492962, 0
1350, 2862169030, 0.74036187, -0.09464519, 0.22138709, 0.6276647, 1.6685531, 0.4327236, -0.020938873, 0
1351, 2862185697, 0.739927, -0.095188774, 0.22074705, 0.6283202, 2.106252, 1.5780754, -0.023021698, 0
1354, 2862235698, 0.73773116, -0.09611195, 0.22047341, 0.6308527, 1.3345839, 2.6174822, 0.67037296, 0
1355, 2862252365, 0.7368803, -0.09663452, 0.22072291, 0.63167936, 1.3677927, 2.6913664, 0.3427229, 0
1357, 2862285699, 0.7346019, -0.09671778, 0.22107086, 0.6341939, 0.6565761, -1.2380731, 3.8362226, 0
1358, 2862302366, 0.73322004, -0.09708583, 0.22250807, 0.63523316, 0.6496984, 2.2290032, -3.086028, 0
1359, 2862319033, 0.7322177, -0.096971385, 0.22269145, 0.6363417, 1.7654557, 0.96328706, -0.015003204, 0
1361, 2862352367, 0.73012906, -0.09779019, 0.22389309, 0.63819176, 2.958824, 3.1222568, 1.5090199, 0
1362, 2862369034, 0.7292551, -0.09772901, 0.22398295, 0.639168, -0.22048235, -1.7014123, 1.7832546, 0
1363, 2862385701, 0.7283603, -0.09737464, 0.22435935, 0.64010996, 0.9339746, 1.7009586, -0.7570019, 0
1365, 2862419035, 0.72619635, -0.0970171, 0.22561572, 0.64217794, -0.22266541, -1.3915457, 0.90453434, 0
1366, 2862435702, 0.7252291, -0.096676864, 0.22662984, 0.64296484, 0.984192, 0.18193854, 0.6561041, 0
1367, 2862452369, 0.72426665, -0.09636605, 0.22798215, 0.6436181, -0.55127203, -0.017814709, -0.4049263, 0
1369, 2862485703, 0.7229448, -0.09558257, 0.22988641, 0.64454275, -0.9874484, -0.8769323, 0.40110302, 0
1370, 2862502370, 0.7228136, -0.095154405, 0.2298943, 0.6447504, -0.40535164, -1.1653256, 1.6718521, 0
1371, 2862519037, 0.7229465, -0.094812706, 0.22922383, 0.6448904, -0.6744825, -0.9219388, 0.6816635, 0
1373, 2862552371, 0.7229964, -0.0942334, 0.22867638, 0.6451137, -0.37042877, 0.24152984, -0.988266, 0
1374, 2862569038, 0.7232516, -0.09413858, 0.2281798, 0.6450174, -0.026107686, 0.6742177, 1.0314407, 0
1376, 2862602372, 0.7241482, -0.094004616, 0.2271763, 0.6443849, 1.0453111, 0.7727584, 1.001152, 0
1377, 2862619039, 0.7244203, -0.09415338, 0.22745265, 0.6439597, -1.0016828, 1.5512917, -0.3453226, 0
1378, 2862635706, 0.7247761, -0.09399654, 0.22714683, 0.64369005, -0.91780037, -0.26900378, -0.41943932, 0
1381, 2862685707, 0.7253099, -0.09384124, 0.22701417, 0.6431582, 0.81913555, 1.6948451, 0.92493343, 0
1382, 2862702374, 0.72603416, -0.09448807, 0.22625293, 0.64251405, 0.728657, 1.5019566, 0.09079647, 0
1384, 2862735708, 0.72718906, -0.09555654, 0.22453105, 0.6416535, 0.32334033, 0.4020593, 0.30255318, 0
1385, 2862752375, 0.7277932, -0.096141756, 0.22354092, 0.6412266, 0.37241927, -0.5124471, 0.679574, 0
1386, 2862769042, 0.72832817, -0.09659171, 0.22265512, 0.6408597, 0.1447423, -0.5234781, -0.010810852, 0
1388, 2862802376, 0.7292455, -0.09774474, 0.22120366, 0.64014393, 1.0096394, 0.5470817, 0.6248064, 0
1389, 2862819043, 0.7296442, -0.09830081, 0.22077236, 0.6397534, 0.01644111, 0.8741454, 0.88323784, 0
1390, 2862835710, 0.7298001, -0.098482296, 0.22066955, 0.6395831, -1.2948062, -0.060109228, -0.3231125, 0
1392, 2862869044, 0.73017305, -0.09978134, 0.2200124, 0.6391823, 0.29554033, -1.0660305, 1.3495264, 0
1393, 2862885711, 0.73063403, -0.100151554, 0.2187625, 0.6390265, 1.2665752, -1.7441796, 2.262516, 0
1396, 2862935712, 0.7317204, -0.10130518, 0.21735312, 0.6380819, -1.4104266, 0.5335512, -0.17713833, 0
1397, 2862952379, 0.73173594, -0.10148657, 0.21729064, 0.63805664, -0.8865571, -0.25567737, -0.09854698, 0
1398, 2862969046, 0.73165846, -0.10136545, 0.2170947, 0.6382314, 0.23211664, -1.5841274, 0.23155212, 0
1400, 2863002380, 0.73094416, -0.100910366, 0.21749559, 0.6389849, 0.9753585, -1.8555053, 1.2222261, 0
1401, 2863019047, 0.7306174, -0.10044462, 0.21765001, 0.6393794, 0.10721779, -1.2084682, 0.3906994, 0
1402, 2863035714, 0.73021156, -0.10033665, 0.2179978, 0.63974136, -0.81193453, -0.17607619, 0.5184326, 0
1404, 2863069048, 0.7286874, -0.10008934, 0.21905898, 0.64115393, -1.2761159, -0.56589365, -0.5333433, 0
1405, 2863085715, 0.72832316, -0.10027437, 0.21910504, 0.641523, 0.1420074, -0.87373465, 0.6938925, 0
1407, 2863119049, 0.7280401, -0.09999114, 0.21871068, 0.64202297, 0.2696766, -0.83323294, 0.104810715, 0
1408, 2863135716, 0.7280662, -0.09970972, 0.21835461, 0.64215827, -0.8818243, 0.015798958, 0.7751465, 0
1411, 2863185717, 0.7279116, -0.09941146, 0.2185157, 0.6423249, -0.7253237, -0.55869305, 0.17040348, 0
1412, 2863202384, 0.72773767, -0.09923594, 0.21897775, 0.64239156, -0.5465745, 0.27529728, 0.1330843, 0
1413, 2863219051, 0.72754705, -0.09914187, 0.21942213, 0.64247066, -0.8944179, -1.6748238, -0.63159275, 0
1415, 2863252385, 0.7267915, -0.098704234, 0.22096622, 0.6428638, 0.7952522, -0.08918368, 0.8470478, 0
1416, 2863269052, 0.7266186, -0.09862609, 0.22164296, 0.6428384, 0.22334702, 0.5253571, 2.0979042, 0
1417, 2863285719, 0.72674733, -0.09861972, 0.22189035, 0.64260817, -0.7349846, 0.35300386, 1.5502939, 0
1419, 2863319053, 0.7270282, -0.0991622, 0.22249117, 0.6419991, -1.3690498, -0.97036517, -0.40248394, 0
1420, 2863335720, 0.72738355, -0.09934558, 0.22231585, 0.64162886, -0.8538859, -1.7931492, -0.31702328, 0
1421, 2863352387, 0.7276601, -0.09943336, 0.22233082, 0.6412964, -0.32543752, -2.0987635, -0.24536991, 0
1423, 2863385721, 0.7280477, -0.09964323, 0.22241536, 0.64079446, -1.3309228, -1.2843803, 1.8114014, 0
1425, 2863419055, 0.72918034, -0.10136369, 0.22224492, 0.63929427, -1.8978771, -3.0543067, -2.1526432, 0
1427, 2863452389, 0.72991174, -0.10082682, 0.22065732, 0.63909423, -0.95044535, -2.1677852, 0.84388256, 0
1428, 2863469056, 0.7302177, -0.100482106, 0.2201979, 0.6389575, -0.7023655, -0.7451295, 1.2009754, 0
1429, 2863485723, 0.7302963, -0.10048061, 0.22036126, 0.6388116, -0.024506066, 1.4765515, 3.9529457, 0
1431, 2863519057, 0.72989833, -0.10139267, 0.22212195, 0.6385125, -1.2348475, 0.4751943, -2.135026, 0
1432, 2863535724, 0.72991616, -0.10199666, 0.22275868, 0.63817394, -1.5644867, -2.309488, -4.3830767, 0
1434, 2863569058, 0.7312361, -0.102521785, 0.2222366, 0.6367593, -1.2767787, -1.600469, 3.7734957, 0
1435, 2863585725, 0.73171186, -0.10252416, 0.22258087, 0.6360918, 0.7155049, 3.8913512, 3.2077398, 0
1436, 2863602392, 0.7321166, -0.102623045, 0.22307044, 0.6354383, 0.23161836, 4.4794726, 0.37116718, 0
1438, 2863635726, 0.7338413, -0.10302546, 0.22270115, 0.63351035, 1.7366669, 1.643559, -2.1486683, 0
1439, 2863652393, 0.7346121, -0.10232085, 0.22238721, 0.6328409, 0.5126891, 0.031992026, -1.3514442, 0
1440, 2863669060, 0.73531306, -0.10137979, 0.22200598, 0.632312, -0.4048616, 1.7891129, 0.20183659, 0
1442, 2863702394, 0.73653656, -0.09963217, 0.22163829, 0.631294, 1.454233, 0.84356004, 1.6482534, 0
1443, 2863719061, 0.736795, -0.09906326, 0.22162284, 0.6310873, 2.8400176, 0.20698288, -0.16719246, 0
1444, 2863735728, 0.73669857, -0.09856969, 0.22158116, 0.6312917, 3.357521, 1.7242376, 2.4250221, 0
1446, 2863769062, 0.7366336, -0.0981111, 0.22036275, 0.63186514, 1.370833, 1.545472, 0.78136444, 0
1447, 2863785729, 0.7364405, -0.098056726, 0.2198547, 0.6322758, 2.068375, 1.8137722, 0.9226589, 0
1448, 2863802396, 0.7357662, -0.09752177, 0.21955477, 0.6332469, 0.1706177, -0.63224995, 0.24514484, 0
1450, 2863835730, 0.7331387, -0.09743273, 0.22201723, 0.6354457, 1.4907341, 1.9015709, 0.051128387, 0
1452, 2863869064, 0.7289464, -0.096144915, 0.22773045, 0.638436, 1.9156176, 1.89654, -0.38243198, 0
1454, 2863902398, 0.7252891, -0.09440911, 0.23280817, 0.64102376, -0.26981184, 1.129404, 0.2687254, 0
1455, 2863919065, 0.7239007, -0.094057605, 0.23483023, 0.6419065, -0.9157303, 0.8533882, -1.1739988, 0
1456, 2863935732, 0.72250944, -0.09331843, 0.23658317, 0.6429375, 0.37270287, -0.18058343, -0.049408913, 0
1458, 2863969066, 0.7190794, -0.091088414, 0.24194205, 0.6451048, -1.0038072, 0.12918635, 0.110281944, 0
1459, 2863985733, 0.7177965, -0.089904524, 0.24451126, 0.64573073, -0.7845085, 1.6976956, 0.5856724, 0
1461, 2864019067, 0.71582854, -0.087436505, 0.24881919, 0.64660794, -0.3835001, 0.5389909, -1.0158253, 0
1462, 2864035734, 0.71568024, -0.08696105, 0.24971205, 0.64649194, 0.034613874, -0.27858415, 0.027602196, 0
1463, 2864052401, 0.7160089, -0.08619152, 0.24970292, 0.64623475, 0.7543183, -0.52720183, 2.5553932, 0
1465, 2864085735, 0.7168417, -0.08537079, 0.2496863, 0.64542615, 0.522135, 2.4723978, 1.2669125, 0
1467, 2864119069, 0.7181053, -0.08525755, 0.24961683, 0.6440618, 0.247341, 1.1747671, 0.3173628, 0
1469, 2864152403, 0.71852523, -0.084566675, 0.25140998, 0.64298636, -0.9794924, 1.2580777, -0.72003365, 0
1470, 2864169070, 0.719336, -0.084537126, 0.25193956, 0.6418754, -0.026239675, 0.619728, 0.07668972, 0
1471, 2864185737, 0.7201506, -0.08412357, 0.25242585, 0.64082444, 0.17510508, 0.5652591, 0.45906353, 0
1473, 2864219071, 0.722303, -0.08393771, 0.25207618, 0.63856006, -0.6303471, 1.5265611, 1.610527, 0
1474, 2864235738, 0.72377384, -0.08412527, 0.2514599, 0.6371112, 0.34966493, 2.1337454, 1.7061787, 0
1475, 2864252405, 0.72505546, -0.08388182, 0.2511724, 0.6357982, -1.0217935, -0.023327153, 0.71054745, 0
1477, 2864285739, 0.7268187, -0.08426751, 0.25267923, 0.63313127, -0.6843038, 2.5189369, -0.9378662, 0
1478, 2864302406, 0.72767466, -0.08452757, 0.2537365, 0.63168895, -0.414057, 0.8663664, -0.37976837, 0
1479, 2864319073, 0.7285524, -0.08454078, 0.25451338, 0.63036144, 0.17284875, -0.5623087, -0.5244074, 0
1482, 2864369074, 0.7325866, -0.08499728, 0.2528968, 0.62626195, -0.6519893, 0.26554617, 0.018125534, 0
1484, 2864402408, 0.7352081, -0.086242825, 0.2513891, 0.623621, -0.63950616, 0.1316971, 0.8612881, 0
1485, 2864419075, 0.73661417, -0.08729136, 0.25006554, 0.62234676, -0.00788462, -0.71775234, -0.66538143, 0
1486, 2864435742, 0.73806626, -0.088215664, 0.2483697, 0.62117404, 0.5934967, -0.31834197, 0.51454353, 0
1488, 2864469076, 0.7407168, -0.09040352, 0.2448132, 0.6191129, 0.13320524, -0.6990434, 0.92951965, 0
1489, 2864485743, 0.7418031, -0.09090558, 0.24302867, 0.61844146, -1.0904534, -1.8893327, 0.30447006, 0
1490, 2864502410, 0.74263406, -0.091564834, 0.24166925, 0.61787933, -0.5485945, -0.5238794, 0.7703848, 0
1492, 2864535744, 0.74358505, -0.09252417, 0.23996222, 0.61725783, -0.13940495, -0.023883533, 0.3853407, 0
1493, 2864552411, 0.74389374, -0.09319281, 0.23956871, 0.6169379, 1.2123744, 0.9863373, 1.6785688, 0
1494, 2864569078, 0.7439754, -0.093423694, 0.23935279, 0.6168884, -0.29379192, -1.3658835, 0.6802025, 0
1497, 2864619079, 0.7440328, -0.094459414, 0.23902036, 0.6167903, -0.54672647, -2.277255, -0.8443165, 0
1498, 2864635746, 0.7441384, -0.09518673, 0.23857386, 0.61672384, 1.2013415, 0.53348815, 1.184701, 0
1500, 2864669080, 0.744658, -0.09627465, 0.2373158, 0.61641324, 0.28477103, 0.839397, 0.26562786, 0
1501, 2864685747, 0.7449929, -0.09672664, 0.23674639, 0.6161566, -1.381337, -0.16388752, 0.16313648, 0
1502, 2864702414, 0.74517125, -0.09740968, 0.23646918, 0.61593974, -1.1028435, 0.03195481, -0.64661694, 0
1504, 2864735748, 0.74549615, -0.098346524, 0.23563986, 0.6157156, 0.23994829, -0.64098895, 0.8193474, 0
1505, 2864752415, 0.7457321, -0.0987389, 0.23516965, 0.6155468, 0.23947363, -0.47398365, 0.4559021, 0
1506, 2864769082, 0.74607235, -0.099218614, 0.23431942, 0.61538154, -0.784551, -0.99144894, 0.7091274, 0
1508, 2864802416, 0.74698347, -0.100703135, 0.23223956, 0.61482346, -0.04024028, -0.9055668, 0.35731125, 0
1509, 2864819083, 0.7474559, -0.10122943, 0.23094608, 0.61464983, 0.017827442, -0.21422543, 0.9450922, 0
1510, 2864835750, 0.74752074, -0.1017863, 0.23023754, 0.614745, 0.24379556, 0.01280813, -0.3606758, 0
1512, 2864869084, 0.7480185, -0.102898955, 0.2275888, 0.6149406, -0.055747017, -1.6152664, 0.32250404, 0
1513, 2864885751, 0.7484329, -0.10453573, 0.22694553, 0.6143979, 0.6606857, 0.4327507, 0.16848755, 0
1515, 2864919085, 0.7486218, -0.1061935, 0.22479141, 0.61467505, -1.4984143, -2.2748098, -0.5941849, 0
1516, 2864935752, 0.74865395, -0.10661569, 0.22333336, 0.6150943, -0.40483335, -1.4166368, 1.082284, 0
1517, 2864952419, 0.74843466, -0.10697703, 0.22284874, 0.615474, 0.16406341, -2.6359367, -1.1291351, 0
1519, 2864985753, 0.74743277, -0.10743339, 0.22235323, 0.61678994, -1.1463985, -2.246696, 0.21158886, 0
1520, 2865002420, 0.7469713, -0.10778474, 0.22255701, 0.61721385, -1.3946493, -0.71394014, 0.75035954, 0
1521, 2865019087, 0.7462406, -0.10761601, 0.22285399, 0.6180195, -1.8210015, -2.2228487, -0.68183994, 0
1524, 2865069088, 0.7427078, -0.10613855, 0.22446527, 0.62193537, -0.1662837, -2.4929245, 0.20630741, 0
1525, 2865085755, 0.741458, -0.10542875, 0.22594854, 0.6230093, -0.36748293, -1.0831118, 1.1113892, 0
1527, 2865119089, 0.738892, -0.10364021, 0.22904737, 0.62522244, -0.11960393, -0.42137071, 0.70886135, 0
1528, 2865135756, 0.7375281, -0.10264867, 0.230298, 0.6265358, -0.47273704, -2.615538, -0.32374763, 0
1529, 2865152423, 0.73632026, -0.10188519, 0.23182248, 0.6275179, -0.5518861, -1.5837508, -1.3611135, 0
1531, 2865185757, 0.7346794, -0.10000749, 0.23334761, 0.62917566, -2.0293498, -1.2700531, -0.0026760101, 0
1532, 2865202424, 0.73416376, -0.099210374, 0.23377292, 0.6297455, -1.2043157, -0.4706794, 3.172534, 0
1533, 2865219091, 0.73396116, -0.09872471, 0.2345488, 0.62976956, 0.25998726, 0.1910154, 4.118352, 0
1535, 2865252425, 0.7337695, -0.098239474, 0.23676199, 0.62924045, -0.503289, 1.2483178, -2.7017474, 0
1536, 2865269092, 0.7338853, -0.097511634, 0.23652674, 0.62930715, 1.196594, 2.171939, -1.2320995, 0
1539, 2865319093, 0.73374283, -0.09309488, 0.23767012, 0.6297111, 0.23057032, 2.1617222, 1.6881142, 0
1540, 2865335760, 0.7329014, -0.09137663, 0.23967563, 0.63018215, -0.84693307, 3.956385, 0.6153631, 0
1542, 2865369094, 0.73157364, -0.08824962, 0.24326412, 0.6307955, 0.93911594, -1.1660924, 1.0892038, 0
1543, 2865385761, 0.7314216, -0.08730905, 0.24440299, 0.63066256, 1.4655826, 1.0722926, 0.8111105, 0
1544, 2865402428, 0.7317384, -0.08696685, 0.24531624, 0.62998724, -0.34959868, 1.30857, -0.27356434, 0
1546, 2865435762, 0.73321027, -0.08662863, 0.24582161, 0.62812275, -1.2319719, 1.6428509, 1.7606592, 0
1547, 2865452429, 0.7340821, -0.08681766, 0.24599506, 0.6270095, 0.2571102, 3.7630687, 1.1268692, 0
1548, 2865469096, 0.7344256, -0.08671305, 0.24674676, 0.6263261, 0.633819, 1.1895802, -1.3777704, 0
1550, 2865502430, 0.7344628, -0.08620561, 0.24791335, 0.6258917, 1.0819983, 1.2382404, 0.3588066, 0
1551, 2865519097, 0.7348491, -0.085964985, 0.24779214, 0.6255192, 1.4524454, 1.1812713, -0.5452709, 0
1554, 2865569098, 0.7356116, -0.08586996, 0.24647874, 0.62515473, 1.5567882, 1.9909606, 0.036646843, 0
1555, 2865585765, 0.7356645, -0.08582966, 0.24618232, 0.62521493, 1.761803, 1.5178381, 1.3115425, 0
1556, 2865602432, 0.73512894, -0.08538248, 0.24659428, 0.62574345, -0.14746207, -0.07176961, -0.99773693, 0
1558, 2865635766, 0.7333245, -0.085424796, 0.24922636, 0.6268115, -0.6839867, -1.5028166, -0.50476456, 0
1559, 2865652433, 0.73266053, -0.085053444, 0.2500395, 0.6273142, 0.51308244, -0.07940963, 1.2536306, 0
1560, 2865669100, 0.7323124, -0.08491179, 0.25095195, 0.6273757, -0.49728784, 0.09888778, 0.080779076, 0
1562, 2865702434, 0.7326256, -0.084882036, 0.25139108, 0.6268379, -0.97355306, 0.89588046, 0.46073246, 0
1563, 2865719101, 0.73313725, -0.08490602, 0.25115007, 0.62633276, -1.1310847, 0.7526166, 0.8624973, 0
1564, 2865735768, 0.7341298, -0.08524386, 0.2503324, 0.6254511, -0.6522788, -0.30957276, 0.2564211, 0
1566, 2865769102, 0.7363429, -0.08556004, 0.2483359, 0.6235994, -0.9894905, 0.16044219, 0.2056799, 0
1569, 2865819103, 0.7403888, -0.08689442, 0.24526285, 0.6198294, -0.8219989, 0.5239669, 0.97898674, 0
1570, 2865835770, 0.7417937, -0.087657556, 0.24414876, 0.6184802, -0.1758718, 1.9467056, 0.26577377, 0
1571, 2865852437, 0.7431953, -0.08852416, 0.24243373, 0.61734796, -0.67779136, 0.13453178, 0.95744133, 0
1573, 2865885771, 0.7463738, -0.090090804, 0.23831737, 0.6148845, 0.25530782, 0.5786327, 0.00992775, 0
1574, 2865902438, 0.7479067, -0.091333225, 0.23623027, 0.6136428, -0.00485738, 0.2026064, -1.1939287, 0
1575, 2865919105, 0.7493729, -0.092998564, 0.23366581, 0.6125847, 1.1721756, 1.4667006, 0.1629219, 0
1577, 2865952439, 0.75283635, -0.09567133, 0.22647008, 0.6106261, 1.5965399, -0.021960372, 0.89218235, 0
1578, 2865969106, 0.75421035, -0.09652232, 0.22315593, 0.61001635, 0.509267, -0.95322955, 0.28460503, 0
1579, 2865985773, 0.7549565, -0.0969871, 0.22050357, 0.6099842, -0.058782622, -0.40721, 0.1975689, 0
1581, 2866019107, 0.75531995, -0.09846125, 0.21757819, 0.61034846, 0.034294218, -0.8846366, -0.1294775, 0
1582, 2866035774, 0.75507474, -0.099185914, 0.21655723, 0.6108974, 1.332027, -0.7313724, 0.09521961, 0
1583, 2866052441, 0.75452864, -0.1000155, 0.21594097, 0.61165464, 1.4299506, 0.14620218, 1.4353247, 0
1585, 2866085775, 0.7537916, -0.100980885, 0.21352851, 0.61324954, 1.0390996, -1.0640022, 0.30098057, 0
1586, 2866102442, 0.75306356, -0.101040795, 0.21245904, 0.61450434, 0.558942, -1.490453, 0.4517641, 0
1587, 2866119109, 0.75194645, -0.10156415, 0.21198325, 0.6159487, 0.61132705, -0.66513497, -0.2194109, 0
1589, 2866152443, 0.74951756, -0.10267089, 0.2114127, 0.6189146, 0.50132024, -0.7143922, 0.18013954, 0
1590, 2866169110, 0.74822557, -0.103258006, 0.21160278, 0.62031364, 0.69225794, -0.597568, 0.29978943, 0
1592, 2866202444, 0.7453739, -0.104210325, 0.2131089, 0.62306553, -0.16242085, -1.3955885, 0.19528103, 0
1593, 2866219111, 0.74400014, -0.10452434, 0.21362646, 0.6244763, -0.65103304, -0.8754975, 0.06471443, 0
1596, 2866269112, 0.7406418, -0.105131365, 0.21431448, 0.62811995, 0.47979447, -0.29393765, 0.7662754, 0
1597, 2866285779, 0.7398434, -0.10504876, 0.21424493, 0.6290977, 0.18497016, -0.6471699, 0.4756918, 0
1598, 2866302446, 0.73899966, -0.105120175, 0.21485227, 0.6298699, -0.17073546, -0.3421456, 0.23499107, 0
1600, 2866335780, 0.73774123, -0.10439834, 0.21467139, 0.6315248, -0.6703591, -1.3435987, -0.31486034, 0
1601, 2866352447, 0.7371137, -0.1047599, 0.21501485, 0.63208044, 0.5613093, 1.3584188, 0.43724346, 0
1602, 2866369114, 0.736714, -0.105137095, 0.21478923, 0.6325605, 0.5677619, 0.6704066, 0.9666929, 0
1604, 2866402448, 0.7359889, -0.10624971, 0.21453145, 0.63330555, 0.20093845, -0.88406044, 0.29391003, 0
1605, 2866419115, 0.7356801, -0.10704197, 0.2145095, 0.6335385, 0.1469302, -0.6756249, -0.6470194, 0
1606, 2866435782, 0.7355945, -0.10779847, 0.21400939, 0.63367856, 0.44604725, -0.9759038, 0.39638615, 0
1608, 2866469116, 0.7352776, -0.108348206, 0.21268512, 0.63439816, -0.46901998, -0.7601235, -0.12928581, 0
1610, 2866502450, 0.73460716, -0.10905975, 0.21196489, 0.6352931, -0.06470501, -0.44484738, 0.49075413, 0
1612, 2866535784, 0.73358977, -0.109782994, 0.21160807, 0.6364623, -0.13201456, -0.94906974, -0.1816349, 0
1613, 2866552451, 0.7328326, -0.10998686, 0.21176331, 0.6372472, -0.15376025, -1.0989944, 0.8554821, 0
1614, 2866569118, 0.73201483, -0.11019638, 0.21219596, 0.63800645, 0.3968714, -1.7399057, -0.40524864, 0
1616, 2866602452, 0.73036444, -0.11092485, 0.21309239, 0.6394712, -0.055379134, -0.9171833, 0.9536352, 0
1617, 2866619119, 0.729719, -0.111533985, 0.21370141, 0.6398988, -0.5354819, -1.0759304, 0.04466915, 0
1619, 2866652453, 0.7281753, -0.111470416, 0.21511059, 0.64119506, -1.5323834, -2.2015097, -1.0505342, 0
1620, 2866669120, 0.7272, -0.11069547, 0.2155101, 0.64230096, -0.05871142, -1.6446222, 0.8530197, 0
1621, 2866685787, 0.7259566, -0.10993163, 0.21688762, 0.64337397, 0.51765317, -1.7520512, 1.5165834, 0
1623, 2866719121, 0.7237571, -0.10882571, 0.22033118, 0.6448683, -0.49762613, 0.09140825, 0.3088007, 0
1625, 2866752455, 0.7209478, -0.10680056, 0.22607113, 0.6463654, -1.168711, -1.4594494, -0.0334692, 0
1627, 2866785789, 0.71845853, -0.10440993, 0.23212822, 0.6473799, 0.46287456, 1.2205297, 3.2206316, 0
1628, 2866802456, 0.71790665, -0.10357957, 0.23442957, 0.6472963, -1.220427, -0.13699259, 3.7450333, 0
1629, 2866819123, 0.718035, -0.1035908, 0.23646787, 0.6464101, -2.893377, -0.9828824, -2.3988748, 0
1631, 2866852457, 0.7197062, -0.10219699, 0.23624715, 0.6448523, -4.5123477, -4.106448, -2.2199473, 0
1632, 2866869124, 0.7213676, -0.101356834, 0.23491897, 0.6436125, -1.6413857, 0.033541135, 2.24362, 0
1633, 2866885791, 0.72284156, -0.1007587, 0.23485367, 0.6420749, -1.4597068, 1.9296374, 3.3989515, 0
1635, 2866919125, 0.72609836, -0.10061079, 0.23497443, 0.63836837, -1.3662206, 3.6406624, 2.7663298, 0
1636, 2866935792, 0.7281354, -0.10141606, 0.23433799, 0.6361507, 0.014938787, 4.4751725, -4.7200694, 0
1637, 2866952459, 0.73008746, -0.10146064, 0.23281877, 0.6344619, 1.4025372, 0.9025604, -6.10425, 0
1640, 2867002460, 0.734579, -0.097647026, 0.23020354, 0.6308198, -0.46709913, 4.158425, 1.5107365, 0
1641, 2867019127, 0.73508316, -0.09636525, 0.23076819, 0.63022286, 0.4323375, 3.0941043, 2.2743912, 0
1643, 2867052461, 0.73525506, -0.09475135, 0.2319353, 0.62983847, 3.2169359, 0.93751657, 1.6496792, 0
1644, 2867069128, 0.7355888, -0.09421228, 0.2318203, 0.62957203, 1.2844573, -1.7249832, 0.5552082, 0
1645, 2867085795, 0.7360708, -0.094183326, 0.23125868, 0.6292194, 1.6886286, 1.1306944, 0.38528633, 0
1647, 2867119129, 0.73628575, -0.09394301, 0.23043597, 0.6293056, 0.32589936, 1.779542, 0.9287739, 0
1648, 2867135796, 0.73605764, -0.09385039, 0.23049325, 0.62956536, 0.6641906, 1.3434696, 0.51288223, 0
1650, 2867169130, 0.73515743, -0.09399454, 0.23078293, 0.6304889, 1.910135, 1.9362721, 0.61106396, 0
1651, 2867185797, 0.7348349, -0.09447907, 0.23085615, 0.63076544, 1.6346, 1.3931417, 1.2152443, 0
1652, 2867202464, 0.7346887, -0.09485094, 0.23081887, 0.6308936, 1.2241555, 1.3921827, 0.3717327, 0
1654, 2867235798, 0.73455894, -0.09637497, 0.23018357, 0.63104606, 0.60465884, 1.6078216, -1.3945808, 0
1655, 2867252465, 0.7346115, -0.09711248, 0.22938123, 0.63116395, 1.3722202, 0.12895636, 1.1827517, 0
1656, 2867269132, 0.73465466, -0.09760197, 0.22873467, 0.6312726, 1.0265279, 0.11989626, 1.2529392, 0
1658, 2867302466, 0.73432505, -0.09846035, 0.228188, 0.6317207, -0.07935439, 0.032554105, 1.464694, 0
1659, 2867319133, 0.7340521, -0.09804534, 0.22739425, 0.6323881, -0.45918202, -1.2830389, 0.7989025, 0
1660, 2867335800, 0.7338483, -0.09773495, 0.22666295, 0.63293505, 0.3147645, 0.5633297, -0.047122, 0
1662, 2867369134, 0.7330956, -0.09816507, 0.22616684, 0.63391757, 2.3495069, 1.8785136, -0.6013832, 0
1663, 2867385801, 0.7325355, -0.09803758, 0.22560112, 0.63478565, 1.0689712, -0.49875468, 1.2841225, 0
1664, 2867402468, 0.73210645, -0.09818591, 0.2250587, 0.63545, 1.4862785, 0.9018479, 1.1330471, 0
1667, 2867452469, 0.7305791, -0.09897626, 0.2236562, 0.63757706, 0.25978634, 0.6032647, -0.991868, 0
1668, 2867469136, 0.73019004, -0.09943297, 0.22291423, 0.6382109, 0.90014774, -1.0067377, 0.5645876, 0
1670, 2867502470, 0.72952354, -0.09989573, 0.22152503, 0.6393835, 1.5052851, 1.0181303, 0.9234791, 0
1671, 2867519137, 0.72907263, -0.10004667, 0.22125311, 0.63996816, -0.25557652, 0.40076867, 0.45717144, 0
1672, 2867535804, 0.7285532, -0.10019599, 0.22115739, 0.64056915, -0.32510498, 1.6155753, 0.72000885, 0
1674, 2867569138, 0.7274828, -0.10076697, 0.22139493, 0.64161325, 0.46325654, -0.26437598, -0.23942757, 0
1675, 2867585805, 0.727084, -0.100860536, 0.22110385, 0.64215076, 0.95333195, -0.88084894, 0.23714256, 0
1677, 2867619139, 0.72622204, -0.101496674, 0.22138715, 0.64292777, 1.0886025, 1.4634689, 1.4602337, 0
1678, 2867635806, 0.72590137, -0.10199335, 0.221744, 0.6430883, 0.4453731, 1.8161616, 2.1860838, 0
