sep=,
DeviceTag:,Xsens_DOT_1,,,,,,,,,,,,,,,,,
FirmwareVersion:,3.0.0,,,,,,,,,,,,,,,,,
AppVersion:,2023.6.1,,,,,,,,,,,,,,,,,
SyncStatus:,Synced,,,,,,,,,,,,,,,,,
OutputRate:,60Hz,,,,,,,,,,,,,,,,,
FilterProfile:,General,,,,,,,,,,,,,,,,,
Measurement Mode:,Sensor fusion Mode - Extended (Quaternion),,,,,,,,,,,,,,,,,
StartTime:,2025-05-05 12:00:10.425 +0200,,,,,,,,,,,,,,,,,
 2025,,,,,,,,,,,,,,,,,,,

PacketCounter,SampleTimeFine,Quat_W,Quat_X,Quat_Y,Quat_Z,FreeAcc_X,FreeAcc_Y,FreeAcc_Z,Status
1, 3203442522, -0.6825207, -0.2385501, -0.1385696, 0.6768514, 0.052562423, -0.047834903, 0.29695415, 0
2, 3203459189, -0.6824485, -0.2383917, -0.13858257, 0.6769774, 0.04883199, 0.077058636, 0.33682346, 0
3, 3203475856, -0.6823963, -0.23830311, -0.13864726, 0.67704785, 0.107582375, 0.10351505, 0.37478352, 0
4, 3203492523, -0.6822969, -0.23828374, -0.13876686, 0.6771304, 0.28292695, 0.17446303, 0.3647356, 0
5, 3203509190, -0.6821399, -0.238341, -0.13891025, 0.6772392, 0.31604463, 0.33347446, 0.3045187, 0
6, 3203525857, -0.68203706, -0.23836803, -0.13895306, 0.6773244, 0.26664066, 0.2687907, 0.22901917, 0
7, 3203542524, -0.6820234, -0.23836769, -0.1388438, 0.67736053, 0.27920726, 0.31546253, 0.20921898, 0
8, 3203559191, -0.6820406, -0.23827288, -0.13861966, 0.67742246, 0.29198167, 0.28935257, 0.3450203, 0
9, 3203575858, -0.68204105, -0.23821437, -0.13838613, 0.67749035, 0.18891226, 0.3643923, 0.40791893, 0
10, 3203592525, -0.68204087, -0.23825584, -0.138154, 0.6775233, 0.14754, 0.36186406, 0.42738533, 0
11, 3203609192, -0.6820439, -0.23834689, -0.13796584, 0.6775266, 0.32050326, 0.2830509, 0.2723751, 0
12, 3203625859, -0.682012, -0.2383026, -0.13766122, 0.6776363, 0.362365, 0.34735283, 0.09403801, 0
13, 3203642526, -0.682081, -0.23815654, -0.13719976, 0.67771184, 0.34694105, 0.35789835, 0.10253143, 0
14, 3203659193, -0.682248, -0.23802114, -0.1365933, 0.67771375, 0.19845514, 0.2960202, 0.5319061, 0
15, 3203675860, -0.6824095, -0.23788574, -0.13603885, 0.67771006, 0.18993327, 0.2825121, 0.6119566, 0
16, 3203692527, -0.68249595, -0.23789407, -0.13568565, 0.677691, 0.13490437, 0.39491454, 0.48095322, 0
17, 3203709194, -0.6825088, -0.23799485, -0.13550103, 0.6776796, 0.10667893, 0.37852633, 0.47476864, 0
18, 3203725861, -0.6824579, -0.23815694, -0.13544343, 0.6776856, 0.19952779, 0.30197075, 0.32365227, 0
19, 3203742528, -0.6824181, -0.23817432, -0.135373, 0.6777334, 0.26932865, 0.26024544, 0.07784176, 0
20, 3203759195, -0.68244016, -0.23805597, -0.13524581, 0.6777781, 0.32765704, 0.3464031, 0.050388336, 0
21, 3203775862, -0.68251145, -0.23780593, -0.13501664, 0.6778399, 0.23285826, 0.386701, 0.3314848, 0
22, 3203792529, -0.68258905, -0.23759638, -0.13476022, 0.67788625, 0.17362843, 0.34506097, 0.5055666, 0
23, 3203809196, -0.6826576, -0.23747754, -0.13449076, 0.6779125, 0.11704971, 0.3061238, 0.5658417, 0
24, 3203825863, -0.6827036, -0.23748443, -0.13432077, 0.6778976, 0.1890267, 0.27766174, 0.44965172, 0
25, 3203842530, -0.6827216, -0.23759916, -0.13422373, 0.6778585, 0.19746564, 0.2622792, 0.3984251, 0
26, 3203859197, -0.68272984, -0.23770745, -0.13414364, 0.67782784, 0.24379429, 0.20517053, 0.2758255, 0
27, 3203875864, -0.68273115, -0.23774369, -0.13404368, 0.67783374, 0.28141466, 0.2629636, 0.12351799, 0
28, 3203892531, -0.68275756, -0.23766422, -0.1338879, 0.67786586, 0.17641722, 0.21138547, 0.20645714, 0
29, 3203909198, -0.6828414, -0.23752278, -0.13363437, 0.6778809, 0.11109801, 0.1020323, 0.3881054, 0
30, 3203925865, -0.6829609, -0.23727359, -0.1333029, 0.6779131, 0.169841, 0.112929784, 0.08641338, 0
31, 3203942532, -0.6829115, -0.23747087, -0.13325007, 0.67790407, 0.16697942, 0.01734348, 0.89006996, 0
32, 3203959199, -0.6828167, -0.23760411, -0.13326697, 0.67794955, 0.25702918, 0.08023531, 0.40664768, 0
33, 3203975866, -0.6826967, -0.23799914, -0.13334683, 0.67791617, 0.18075337, 0.097374424, 0.114910126, 0
34, 3203992533, -0.68263423, -0.23822841, -0.13332352, 0.67790306, 0.37431714, 0.32035142, 0.18128681, 0
35, 3204009200, -0.6825205, -0.23839381, -0.1333438, 0.6779555, 0.2653119, 0.39092386, 0.35182, 0
36, 3204025867, -0.68237275, -0.23856287, -0.13345055, 0.6780239, 0.19867374, 0.59573925, 0.22410774, 0
37, 3204042534, -0.68215156, -0.23893638, -0.13371181, 0.67806333, 0.21786031, 0.72822505, 0.20050716, 0
38, 3204059201, -0.68196034, -0.23933932, -0.13401607, 0.6780535, 0.4124804, 0.7279474, 0.28721905, 0
39, 3204075868, -0.6817136, -0.23986699, -0.13424799, 0.6780693, 0.3430269, 0.52840227, 0.71027946, 0
40, 3204092535, -0.68163955, -0.24027365, -0.13415337, 0.6780187, 0.44843873, 0.44344053, 0.39073277, 0
41, 3204109202, -0.68167806, -0.24077472, -0.13395308, 0.67784166, 0.38916197, 0.56913817, 0.23158073, 0
42, 3204125869, -0.681841, -0.24114859, -0.13355324, 0.6776236, 0.32855353, 0.39637873, 0.32912445, 0
43, 3204142536, -0.68199974, -0.24142335, -0.13309295, 0.67745674, 0.19230093, 0.3599715, 0.26408195, 0
44, 3204159203, -0.68216896, -0.24163297, -0.1326286, 0.6773028, 0.023481824, 0.26942298, 0.36489677, 0
45, 3204175870, -0.6823504, -0.24186403, -0.13226093, 0.6771092, 0.042055305, 0.12365013, 0.3755188, 0
46, 3204192537, -0.68246555, -0.24210873, -0.1320467, 0.6769475, 0.11311499, -0.0882832, 0.4918537, 0
47, 3204209204, -0.68249524, -0.2422709, -0.13195512, 0.67687744, -0.009824065, -0.1258472, 0.3635559, 0
48, 3204225871, -0.6825093, -0.24233799, -0.13190122, 0.6768497, -0.13609682, 4.2288651E-4, 0.081264496, 0
49, 3204242538, -0.68259585, -0.24224205, -0.13178071, 0.6768201, -0.15035427, -0.14096808, 0.14330387, 0
50, 3204259205, -0.6827235, -0.24200542, -0.13163358, 0.6768047, -0.052045662, -0.27165526, 0.35525322, 0
51, 3204275872, -0.682832, -0.24173671, -0.1315096, 0.67681545, -0.012772424, -0.29051247, 0.44770718, 0
53, 3204309206, -0.6829161, -0.2414921, -0.1315183, 0.6768162, -0.021081742, -0.33003816, 0.29458904, 0
54, 3204325873, -0.68294555, -0.24143219, -0.13160333, 0.6767913, 0.015612827, -0.30265838, 0.25401974, 0
55, 3204342540, -0.6829426, -0.24130356, -0.13167275, 0.6768267, -0.057776194, -0.3028205, 0.30798626, 0
57, 3204375874, -0.68289924, -0.24098869, -0.13188821, 0.6769407, -0.049080763, -0.19591902, 0.2933941, 0
60, 3204425875, -0.6826596, -0.2404394, -0.13242686, 0.6772723, 0.06729551, -0.016608605, 0.42713356, 0
61, 3204442542, -0.68257093, -0.2403472, -0.13261047, 0.6773587, 0.13375664, -0.031446904, 0.36213112, 0
62, 3204459209, -0.682468, -0.24023515, -0.132758, 0.67747325, 0.15508379, 0.08243557, 0.23380756, 0
64, 3204492543, -0.68238425, -0.24000981, -0.13290149, 0.6776094, 0.16382651, 0.14599396, 0.32714462, 0
65, 3204509210, -0.6823993, -0.23989367, -0.13293727, 0.6776284, 0.25039396, 0.10592564, 0.4022665, 0
66, 3204525877, -0.68233967, -0.2397934, -0.13303564, 0.6777047, 0.18368809, 0.13456123, 0.39059925, 0
68, 3204559211, -0.6822046, -0.23970787, -0.13325924, 0.67782676, 0.07941348, 0.2440733, 0.34685707, 0
69, 3204575878, -0.6821631, -0.23966256, -0.13339238, 0.67785835, 0.19143729, 0.21371683, 0.33914948, 0
70, 3204592545, -0.6820938, -0.23955168, -0.13353783, 0.6779387, 0.25641003, 0.2632605, 0.29983044, 0
72, 3204625879, -0.68194234, -0.23934193, -0.1338473, 0.678104, 0.19431122, 0.3403542, 0.36479568, 0
73, 3204642546, -0.68188536, -0.23926708, -0.13398635, 0.67816025, 0.23051561, 0.27768508, 0.37189007, 0
74, 3204659213, -0.68184304, -0.23920263, -0.13407333, 0.6782085, 0.22097541, 0.29809707, 0.31926727, 0
76, 3204692547, -0.68181175, -0.23909381, -0.13419312, 0.67825454, 0.22000425, 0.27031708, 0.32000923, 0
77, 3204709214, -0.6818391, -0.23901296, -0.13420746, 0.6782528, 0.28461984, 0.2356275, 0.25855255, 0
78, 3204725881, -0.6818741, -0.23889917, -0.13418345, 0.67826235, 0.25655755, 0.20878267, 0.24625587, 0
80, 3204759215, -0.6819495, -0.23878165, -0.13407235, 0.6782498, 0.16264144, 0.16917047, 0.43919086, 0
81, 3204775882, -0.68195885, -0.23884754, -0.13405344, 0.67822087, 0.1825504, 0.12103037, 0.36120796, 0
83, 3204809216, -0.6819345, -0.2390524, -0.13413277, 0.6781577, 0.097218305, 0.19099367, 0.24329567, 0
84, 3204825883, -0.68193734, -0.23907168, -0.1341635, 0.67814195, 0.14370228, 0.14304572, 0.24660492, 0
87, 3204875884, -0.68194103, -0.23897824, -0.13409655, 0.6781844, 0.18193172, 0.123258285, 0.38012886, 0
88, 3204892551, -0.68190736, -0.23906752, -0.13410683, 0.67818475, 0.14575526, 0.09449362, 0.38512325, 0
89, 3204909218, -0.68188155, -0.23915905, -0.13410741, 0.6781783, 0.18432644, 0.15836638, 0.23987103, 0
91, 3204942552, -0.6818836, -0.23929916, -0.13403185, 0.6781419, 0.17307591, 0.12823439, 0.25070667, 0
92, 3204959219, -0.6819146, -0.23931225, -0.1339428, 0.67812353, 0.14921635, 0.1421349, 0.33109665, 0
93, 3204975886, -0.68195605, -0.23931965, -0.13380486, 0.6781065, 0.1538699, 0.13865417, 0.34212494, 0
95, 3205009220, -0.68199956, -0.23943223, -0.13359445, 0.6780645, 0.15078005, 0.14110428, 0.338192, 0
96, 3205025887, -0.68204534, -0.23951907, -0.1335106, 0.6780043, 0.11973075, 0.14265332, 0.32193947, 0
97, 3205042554, -0.68207693, -0.2395684, -0.13343018, 0.67797095, 0.12331523, 0.1818716, 0.29249668, 0
99, 3205075888, -0.6821413, -0.23949707, -0.133168, 0.6779828, 0.10578511, 0.1377866, 0.3249855, 0
101, 3205109222, -0.68220973, -0.2393954, -0.13300824, 0.67798126, 0.052658983, 0.14807224, 0.40355015, 0
103, 3205142556, -0.68217003, -0.23936911, -0.1330767, 0.678017, 0.079344794, 0.13995893, 0.31647778, 0
104, 3205159223, -0.6821504, -0.23931469, -0.13316481, 0.67803866, 0.14078924, 0.11130585, 0.2527094, 0
105, 3205175890, -0.682131, -0.23919693, -0.13328123, 0.6780769, 0.12472671, 0.13041417, 0.28812504, 0
107, 3205209224, -0.68207717, -0.2388795, -0.13353354, 0.6781932, 0.035647634, 0.13997029, 0.34141636, 0
108, 3205225891, -0.68203783, -0.23873413, -0.1336955, 0.6782521, 0.058527984, 0.11988922, 0.36723328, 0
110, 3205259225, -0.68191385, -0.23846976, -0.1341221, 0.67838556, 0.1888794, 0.061859947, 0.34711647, 0
111, 3205275892, -0.68188095, -0.23831776, -0.13436058, 0.6784249, 0.17685463, 0.15896809, 0.26985168, 0
112, 3205292559, -0.681851, -0.2381077, -0.13460034, 0.6784813, 0.07731827, 0.16515042, 0.32322788, 0
114, 3205325893, -0.68175983, -0.23753762, -0.135067, 0.67868, 0.04406245, 0.2109339, 0.39083672, 0
116, 3205359227, -0.6816168, -0.23704298, -0.13567407, 0.6788755, 0.27794775, 0.11507271, 0.3964882, 0
118, 3205392561, -0.681429, -0.23675793, -0.13646731, 0.6790044, 0.10983583, 0.19189501, 0.31431007, 0
119, 3205409228, -0.6813222, -0.23667452, -0.13688523, 0.6790567, 0.080586255, 0.25618008, 0.29451466, 0
120, 3205425895, -0.681226, -0.23658726, -0.13725866, 0.679108, 0.16362736, 0.21047464, 0.2830267, 0
122, 3205459229, -0.6810923, -0.23632911, -0.13783793, 0.6792146, 0.23673554, 0.2092933, 0.3307228, 0
123, 3205475896, -0.6810204, -0.23620783, -0.13804767, 0.6792865, 0.13235834, 0.16249637, 0.3256321, 0
124, 3205492563, -0.68100315, -0.2361448, -0.13822865, 0.6792887, 0.1745701, 0.1598442, 0.27659416, 0
126, 3205525897, -0.68093073, -0.23601574, -0.13862982, 0.6793246, 0.17904237, 0.045216784, 0.3933277, 0
127, 3205542564, -0.68085396, -0.23605259, -0.13892293, 0.6793288, 0.13447006, 0.14112002, 0.3674326, 0
128, 3205559231, -0.68074954, -0.23618065, -0.13927147, 0.6793175, 0.09450977, 0.109305575, 0.34776688, 0
131, 3205609232, -0.68043613, -0.23636127, -0.14017983, 0.6793821, 0.16597223, 0.035815716, 0.33965397, 0
132, 3205625899, -0.68035066, -0.23640656, -0.14047208, 0.6793914, 0.12172359, 0.10007726, 0.3605175, 0
134, 3205659233, -0.6801193, -0.23658288, -0.14105484, 0.67944086, 0.12745401, 0.07219782, 0.30046368, 0
135, 3205675900, -0.6800025, -0.23666026, -0.14131115, 0.6794775, 0.1690518, 0.03992908, 0.25617218, 0
137, 3205709234, -0.67981625, -0.23682687, -0.14171463, 0.67952186, 0.09935777, 0.059714895, 0.28501892, 0
138, 3205725901, -0.67974806, -0.23703057, -0.14186907, 0.6794869, 0.10776632, 0.031029744, 0.31147003, 0
139, 3205742568, -0.67968166, -0.23721966, -0.14198817, 0.67946255, 0.12287111, 0.03826754, 0.23492718, 0
141, 3205775902, -0.6796375, -0.23758219, -0.14213267, 0.67934966, 0.10294157, 0.055111032, 0.34633255, 0
142, 3205792569, -0.679639, -0.23775615, -0.14219403, 0.6792747, 0.039136, 0.030685646, 0.39050293, 0
143, 3205809236, -0.679615, -0.23794918, -0.14230824, 0.67920697, -0.0141617805, 0.15168992, 0.32966805, 0
145, 3205842570, -0.6795572, -0.23819146, -0.14263599, 0.679111, 0.10768854, 0.12573433, 0.27784443, 0
146, 3205859237, -0.6795224, -0.23817381, -0.14278312, 0.67912126, 0.20378682, 0.12547699, 0.36556625, 0
147, 3205875904, -0.6794938, -0.23814876, -0.14297143, 0.67911905, 0.19316638, 0.17125088, 0.3798437, 0
149, 3205909238, -0.67936796, -0.23842555, -0.14364669, 0.67900527, 0.09917113, 0.21830799, 0.42327118, 0
150, 3205925905, -0.6792457, -0.23869011, -0.14418268, 0.67892104, 0.12754275, 0.30627897, 0.28057098, 0
151, 3205942572, -0.67907286, -0.23902267, -0.14481653, 0.67884207, 0.1422579, 0.2680283, 0.26252174, 0
153, 3205975906, -0.6787074, -0.23937094, -0.14601864, 0.6788272, 0.09052207, 0.31136164, 0.23452282, 0
154, 3205992573, -0.67854995, -0.23943613, -0.14652123, 0.6788534, 0.114167064, 0.23240153, 0.355999, 0
155, 3206009240, -0.6784264, -0.23939736, -0.14690378, 0.6789077, 0.19684763, 0.26129138, 0.38472557, 0
158, 3206059241, -0.6782132, -0.23900835, -0.14777836, 0.6790682, 0.195334, 0.3023088, 0.2897005, 0
159, 3206075908, -0.6782056, -0.23876463, -0.14791933, 0.6791308, 0.27951458, 0.21322739, 0.34065247, 0
161, 3206109242, -0.67826796, -0.23835173, -0.1480272, 0.6791901, 0.21124634, 0.13133839, 0.32193756, 0
162, 3206125909, -0.678311, -0.23827338, -0.14804274, 0.6791711, 0.2520122, 0.1250431, 0.31435966, 0
164, 3206159243, -0.67827237, -0.23831615, -0.1481185, 0.67917824, 0.11072407, 0.13589917, 0.32299614, 0
165, 3206175910, -0.6782662, -0.2384366, -0.14815447, 0.67913425, 0.15972795, 0.08197489, 0.34225082, 0
166, 3206192577, -0.6782801, -0.23855634, -0.14817348, 0.679074, 0.22016093, 0.012416257, 0.37009525, 0
168, 3206225911, -0.6782545, -0.23886451, -0.14823052, 0.678979, 0.09996371, 0.1152197, 0.272974, 0
169, 3206242578, -0.67827725, -0.23896924, -0.14815335, 0.67893624, 0.017577507, 0.054894168, 0.29530525, 0
170, 3206259245, -0.67833865, -0.2389032, -0.14794073, 0.6789446, 0.043275684, -0.0074098455, 0.23991585, 0
173, 3206309246, -0.6787612, -0.2374784, -0.14654922, 0.6793237, 0.07626106, 0.005277197, 0.3734188, 0
174, 3206325913, -0.6789465, -0.236843, -0.14604816, 0.6794684, 0.0992963, -0.027533555, 0.41617775, 0
176, 3206359247, -0.6791003, -0.23617707, -0.14555992, 0.67965126, 0.066690005, 0.062761486, 0.3857584, 0
177, 3206375914, -0.679055, -0.23627053, -0.14563264, 0.6796483, 0.16121699, 0.010146315, 0.4141302, 0
178, 3206392581, -0.67895603, -0.23650302, -0.14583021, 0.6796239, 0.14036435, -0.025565803, 0.3622198, 0
180, 3206425915, -0.67875445, -0.23700738, -0.14637463, 0.6795324, -0.050124343, 0.121741585, 0.295372, 0
181, 3206442582, -0.67864907, -0.23713516, -0.14661103, 0.67954224, -0.013114623, 0.16906883, 0.27628517, 0
182, 3206459249, -0.6784874, -0.23728026, -0.14687662, 0.67959577, 0.06242426, 0.15023518, 0.38706017, 0
184, 3206492583, -0.67824113, -0.23755272, -0.14739688, 0.6796338, 0.16960365, 0.13992353, 0.28646183, 0
185, 3206509250, -0.6781199, -0.23771814, -0.14765622, 0.67964053, 0.16673508, 0.20294781, 0.24949932, 0
188, 3206559251, -0.67808145, -0.23782812, -0.14806005, 0.6795526, 0.18306606, 0.17967312, 0.3759985, 0
189, 3206575918, -0.67811525, -0.23781146, -0.14811039, 0.6795137, 0.22172754, 0.19639446, 0.3824644, 0
191, 3206609252, -0.6781085, -0.23799983, -0.14825466, 0.67942303, 0.19144757, 0.1739736, 0.30634308, 0
192, 3206625919, -0.67815006, -0.23809084, -0.14832082, 0.6793352, 0.14802414, 0.17136286, 0.2887354, 0
193, 3206642586, -0.6781914, -0.238071, -0.14830822, 0.6793036, 0.071312256, 0.14670476, 0.28656292, 0
195, 3206675920, -0.6783539, -0.23763883, -0.1479789, 0.67936444, 0.05778592, 0.096717075, 0.27126503, 0
196, 3206692587, -0.6784758, -0.23732834, -0.14773473, 0.67940456, 0.14221145, 0.05122358, 0.2940693, 0
197, 3206709254, -0.67859507, -0.23700216, -0.14754039, 0.67944133, 0.17875025, 0.03997859, 0.36770153, 0
199, 3206742588, -0.67882144, -0.2368025, -0.14734203, 0.6793279, 0.12040367, 0.018549958, 0.3961773, 0
200, 3206759255, -0.67887056, -0.23684219, -0.14731334, 0.6792712, 0.17748158, -0.033857074, 0.3559227, 0
203, 3206809256, -0.6791446, -0.23666808, -0.14693055, 0.6791408, 0.060193155, -0.07527324, 0.2755041, 0
204, 3206825923, -0.6792933, -0.23631024, -0.14659724, 0.6791887, 0.117259145, -0.014419659, 0.28499794, 0
205, 3206842590, -0.679417, -0.23599747, -0.14628273, 0.6792415, 0.07366786, 0.086305894, 0.3310337, 0
207, 3206875924, -0.679621, -0.23580068, -0.14588597, 0.67919105, 0.16420089, 0.04569957, 0.4396057, 0
208, 3206892591, -0.67962587, -0.23589838, -0.1458011, 0.67917055, 0.18570082, 0.055994466, 0.35575104, 0
209, 3206909258, -0.6796675, -0.23605675, -0.14576787, 0.6790809, 0.09288796, 0.15306687, 0.28148556, 0
211, 3206942592, -0.67974555, -0.23626415, -0.14551702, 0.67898464, 0.099893525, 0.12781812, 0.32868385, 0
212, 3206959259, -0.6797991, -0.23623088, -0.1453026, 0.67898864, 0.14733103, 0.11352474, 0.31574726, 0
214, 3206992593, -0.67998254, -0.23604244, -0.14478685, 0.67898065, 0.13834715, 0.14604454, 0.3352661, 0
215, 3207009260, -0.68006194, -0.23602118, -0.14453024, 0.678963, 0.20102018, 0.10703326, 0.38012218, 0
216, 3207025927, -0.6801178, -0.23605455, -0.14433068, 0.67893803, 0.1466806, 0.09393238, 0.35164547, 0
218, 3207059261, -0.68023443, -0.23616217, -0.14401342, 0.678851, 0.034960333, 0.13242964, 0.24589157, 0
219, 3207075928, -0.6803966, -0.23605396, -0.14382704, 0.67876565, 0.1234956, 0.03439898, 0.25863552, 0
220, 3207092595, -0.68053186, -0.23584102, -0.14361496, 0.678749, 0.16118123, 0.104437545, 0.394948, 0
222, 3207125929, -0.6806791, -0.23559289, -0.1430597, 0.6788048, 0.068763435, 0.14096667, 0.31732845, 0
223, 3207142596, -0.68070054, -0.23552683, -0.1427652, 0.6788684, 0.12077701, -0.013026671, 0.34570408, 0
224, 3207159263, -0.6807941, -0.23538128, -0.14253491, 0.6788733, 0.14991349, -0.01901285, 0.28249645, 0
226, 3207192597, -0.6810597, -0.23497838, -0.14205572, 0.67884684, 0.031686984, 0.04338437, 0.29043674, 0
227, 3207209264, -0.68123305, -0.23468465, -0.14177673, 0.6788329, 0.08251674, -0.012918155, 0.29744244, 0
230, 3207259265, -0.68163943, -0.2341985, -0.14087768, 0.67878, 0.09272838, -0.07805676, 0.40566158, 0
231, 3207275932, -0.6817397, -0.23429917, -0.1406315, 0.6786956, 0.06682389, -0.0666866, 0.3562374, 0
232, 3207292599, -0.6817868, -0.23448518, -0.14039676, 0.67863274, 0.040565144, -0.06849024, 0.33093357, 0
234, 3207325933, -0.6818069, -0.23488227, -0.14003785, 0.6785495, 0.0077990377, -0.05079483, 0.31907177, 0
235, 3207342600, -0.68187517, -0.23503777, -0.13988613, 0.6784582, 0.086491466, -0.07396753, 0.34524155, 0
236, 3207359267, -0.6819216, -0.23519476, -0.1397699, 0.6783811, 0.118967004, -0.03027997, 0.36285305, 0
238, 3207392601, -0.68191236, -0.23554528, -0.13960406, 0.6783028, -0.027872736, 0.12320945, 0.35271263, 0
239, 3207409268, -0.681925, -0.2357333, -0.13951819, 0.67824256, 0.05251303, 0.07953971, 0.31861687, 0
240, 3207425935, -0.681939, -0.23584282, -0.13940357, 0.678214, 0.15071881, 0.0626404, 0.30290794, 0
242, 3207459269, -0.6820221, -0.2359606, -0.13922018, 0.67812717, 0.081665374, 0.11618932, 0.35550308, 0
245, 3207509270, -0.68202806, -0.2363499, -0.13901138, 0.67802835, 0.076765075, 0.13823706, 0.27401066, 0
246, 3207525937, -0.68204856, -0.23636506, -0.13893554, 0.6780179, 0.029111486, 0.13556083, 0.27307796, 0
247, 3207542604, -0.6820999, -0.23627305, -0.13884807, 0.6780163, 0.07633481, 0.13235529, 0.32458496, 0
249, 3207575938, -0.68205583, -0.23612171, -0.1387516, 0.67813325, 0.10094181, 0.0943413, 0.39866734, 0
250, 3207592605, -0.6820462, -0.23616254, -0.13877307, 0.6781242, 0.12699537, 0.10215358, 0.35577202, 0
251, 3207609272, -0.6819885, -0.23630296, -0.13879812, 0.6781282, 0.13986793, 0.073258884, 0.3422308, 0
253, 3207642606, -0.68200135, -0.23651135, -0.13884251, 0.6780335, 0.13650338, 0.10527293, 0.25204659, 0
254, 3207659273, -0.6819809, -0.23654102, -0.13879997, 0.67805225, 0.081313565, 0.071157865, 0.32719803, 0
255, 3207675940, -0.68201935, -0.2365339, -0.13877892, 0.6780204, 0.10918876, 0.099966586, 0.3245573, 0
257, 3207709274, -0.6819595, -0.23663074, -0.13878894, 0.6780448, 0.12192341, 0.09420957, 0.3632679, 0
259, 3207742608, -0.68191475, -0.23690806, -0.13885364, 0.6779798, 0.13876042, 0.067797124, 0.314497, 0
261, 3207775942, -0.68189, -0.23702627, -0.13880819, 0.67797256, 0.08162648, 0.102620445, 0.2748518, 0
262, 3207792609, -0.68182003, -0.23702578, -0.13868594, 0.6780682, 0.103876755, 0.0933111, 0.3451891, 0
263, 3207809276, -0.68180394, -0.23703746, -0.13858119, 0.6781018, 0.14534935, 0.077342466, 0.37647247, 0
265, 3207842610, -0.68168914, -0.23725036, -0.13847758, 0.678164, 0.14175348, 0.096743196, 0.36114216, 0
266, 3207859277, -0.6816934, -0.23738769, -0.13846692, 0.67811376, 0.0820782, 0.09923964, 0.33049393, 0
267, 3207875944, -0.6816901, -0.23749715, -0.13843611, 0.67808497, 0.0312898, 0.104269885, 0.26917934, 0
269, 3207909278, -0.6817473, -0.23747596, -0.13829806, 0.67806304, 0.14661244, 0.06895084, 0.32609463, 0
270, 3207925945, -0.68176925, -0.23741066, -0.1382092, 0.67808217, 0.14209631, 0.084605195, 0.32951355, 0
272, 3207959279, -0.68179727, -0.23739722, -0.13804157, 0.6780926, 0.08923576, 0.053172365, 0.36402988, 0
274, 3207992613, -0.6818067, -0.23750463, -0.13791496, 0.6780715, 0.094278656, 0.105985545, 0.32283783, 0
276, 3208025947, -0.68189025, -0.2375278, -0.13776171, 0.67801046, 0.14022353, 0.08359142, 0.28624249, 0
277, 3208042614, -0.6819378, -0.23751667, -0.13766053, 0.677987, 0.12608075, 0.05563802, 0.327363, 0
278, 3208059281, -0.68198884, -0.23755439, -0.1375935, 0.677936, 0.1030055, 0.0856329, 0.38028526, 0
280, 3208092615, -0.6821009, -0.23764578, -0.13740082, 0.67783046, 0.09245546, 0.08736258, 0.29526234, 0
281, 3208109282, -0.6821269, -0.23768348, -0.13730377, 0.6778108, 0.1092129, 0.09722433, 0.3488741, 0
282, 3208125949, -0.6821386, -0.23774688, -0.13724825, 0.6777877, 0.07111757, 0.097574696, 0.3798828, 0
284, 3208159283, -0.68212175, -0.23795669, -0.13714005, 0.677753, 0.17202117, 0.11256822, 0.26218987, 0
285, 3208175950, -0.68213916, -0.2380252, -0.13708748, 0.677722, 0.1574204, 0.12865461, 0.3051939, 0
286, 3208192617, -0.6821147, -0.23809211, -0.13699527, 0.6777419, 0.12681991, 0.14410126, 0.3757305, 0
288, 3208225951, -0.68211997, -0.23816568, -0.13677567, 0.67775524, 0.06370834, 0.12452628, 0.2984314, 0
289, 3208242618, -0.68218493, -0.23816745, -0.13666803, 0.6777108, 0.12617977, 0.13873819, 0.3335495, 0
290, 3208259285, -0.6822043, -0.23818989, -0.13659446, 0.6776983, 0.18348446, 0.10879968, 0.3466978, 0
292, 3208292619, -0.68216586, -0.2383358, -0.13643071, 0.67771864, 0.153447, 0.12227961, 0.3244381, 0
293, 3208309286, -0.6822002, -0.23841256, -0.13634884, 0.67767334, 0.10735662, 0.13935547, 0.2929821, 0
294, 3208325953, -0.68217385, -0.23846242, -0.13620085, 0.67771226, 0.105863236, 0.11779141, 0.2462492, 0
296, 3208359287, -0.6822411, -0.2384855, -0.13590461, 0.67769593, 0.11797081, 0.10893234, 0.34834194, 0
297, 3208375954, -0.6822965, -0.23852189, -0.13575828, 0.67765665, 0.11386175, 0.08240512, 0.32138157, 0
299, 3208409288, -0.68237257, -0.23858243, -0.13542552, 0.67762536, 0.10919412, 0.022375826, 0.30736065, 0
301, 3208442622, -0.6824832, -0.2385503, -0.13508888, 0.6775924, 0.062132355, 0.05200241, 0.30311298, 0
303, 3208475956, -0.68270695, -0.2384645, -0.13471378, 0.6774719, 0.079388, 0.015042562, 0.31650257, 0
304, 3208492623, -0.68272865, -0.23844832, -0.13452229, 0.6774937, 0.06068064, 0.027691998, 0.32473755, 0
305, 3208509290, -0.6827731, -0.2384239, -0.13436806, 0.67748815, 0.053477485, -0.010052021, 0.3741312, 0
307, 3208542624, -0.6827886, -0.23839359, -0.13416092, 0.67752415, 0.0066986834, 0.017853377, 0.27312756, 0
308, 3208559291, -0.68282, -0.23832561, -0.13408057, 0.67753243, 0.051240567, 0.048982974, 0.26199055, 0
309, 3208575958, -0.6828391, -0.23824547, -0.13400108, 0.6775572, 0.11283113, 0.007445049, 0.34507942, 0
311, 3208609292, -0.6828536, -0.23811036, -0.13392901, 0.6776042, 0.018991224, 0.08021701, 0.33345032, 0
312, 3208625959, -0.6828042, -0.2381613, -0.13391872, 0.6776382, 0.028177831, 0.060753755, 0.34129906, 0
313, 3208642626, -0.6827785, -0.23820554, -0.13393058, 0.67764604, 0.15247115, 0.009674731, 0.2779045, 0
316, 3208692627, -0.68269956, -0.23815818, -0.13400577, 0.67772746, 0.026832506, 0.092655115, 0.39715195, 0
317, 3208709294, -0.6826679, -0.23816949, -0.13405144, 0.6777463, 0.07682274, 0.0822685, 0.39359283, 0
319, 3208742628, -0.68261504, -0.23830229, -0.13426459, 0.6777107, 0.09941432, 0.106577344, 0.32658005, 0
320, 3208759295, -0.6826124, -0.23834613, -0.13434033, 0.677683, 0.13621037, 0.13542181, 0.28953743, 0
321, 3208775962, -0.68256986, -0.2383919, -0.13437875, 0.677702, 0.13477316, 0.10073916, 0.3626585, 0
323, 3208809296, -0.6824876, -0.23844557, -0.13437372, 0.67776704, 0.07892176, 0.09283292, 0.34502316, 0
324, 3208825963, -0.6824782, -0.23844028, -0.13432498, 0.67778796, 0.11048737, 0.10660892, 0.2725382, 0
326, 3208859297, -0.6824501, -0.23837292, -0.1342451, 0.67785573, 0.1333894, 0.06411427, 0.3100052, 0
327, 3208875964, -0.68243873, -0.23830849, -0.13421965, 0.67789483, 0.11060919, 0.050916195, 0.31651783, 0
328, 3208892631, -0.6824305, -0.23823227, -0.13422114, 0.6779296, 0.08154066, 0.105688244, 0.31419563, 0
331, 3208942632, -0.68237954, -0.23802236, -0.13419668, 0.6780597, 0.098294295, 0.03262043, 0.37184715, 0
332, 3208959299, -0.6823677, -0.23795685, -0.13423954, 0.67808616, 0.12471442, 0.0866817, 0.36658955, 0
334, 3208992633, -0.68218434, -0.23781286, -0.13438171, 0.6782929, 0.048809864, 0.15087259, 0.3155203, 0
335, 3209009300, -0.6821906, -0.23770252, -0.13451388, 0.67829895, 0.061312955, 0.13149258, 0.31077957, 0
336, 3209025967, -0.6821461, -0.23757112, -0.13462152, 0.67836857, 0.13010779, 0.10856421, 0.33372402, 0
338, 3209059301, -0.6822141, -0.23726726, -0.13487925, 0.6783552, 0.13823964, 0.17108282, 0.3532877, 0
339, 3209075968, -0.6821923, -0.23715228, -0.13499151, 0.6783951, 0.10680455, 0.15070753, 0.34054852, 0
340, 3209092635, -0.68211967, -0.23706561, -0.13508375, 0.67848, 0.11385437, 0.122328, 0.34728718, 0
342, 3209125969, -0.68209255, -0.23692039, -0.13529944, 0.6785151, 0.1689138, 0.12241201, 0.31810284, 0
343, 3209142636, -0.6820705, -0.23686285, -0.13540113, 0.678537, 0.15359654, 0.10393799, 0.32534027, 0
346, 3209192637, -0.6820389, -0.23679805, -0.13570613, 0.6785305, 0.11101822, 0.11958555, 0.35020447, 0
347, 3209209304, -0.68201613, -0.23674761, -0.13581619, 0.678549, 0.065890275, 0.14206511, 0.3158617, 0
348, 3209225971, -0.68199825, -0.23671122, -0.13590202, 0.67856246, 0.12152265, 0.09077361, 0.33942795, 0
350, 3209259305, -0.68192685, -0.2366114, -0.13607077, 0.6786351, 0.1415465, 0.03633354, 0.28552532, 0
351, 3209275972, -0.68190336, -0.2365173, -0.1361376, 0.67867815, 0.063114695, 0.07707129, 0.25376225, 0
353, 3209309306, -0.6818991, -0.23620737, -0.13623118, 0.67877173, 0.06308497, -0.021671118, 0.35437775, 0
354, 3209325973, -0.6818981, -0.2360936, -0.13631946, 0.6787944, 0.095470205, -0.03358299, 0.41902637, 0
355, 3209342640, -0.6819436, -0.23602824, -0.13646993, 0.6787412, 0.085405864, -0.034687284, 0.33839703, 0
357, 3209375974, -0.681965, -0.23598686, -0.13677868, 0.67867196, 0.06782366, 0.0064719017, 0.28072834, 0
358, 3209392641, -0.6819657, -0.23592016, -0.13692284, 0.6786656, 0.04411073, -0.030979063, 0.2750702, 0
359, 3209409308, -0.681939, -0.23583855, -0.13705745, 0.6786934, 0.01185088, -0.016481481, 0.30265427, 0
361, 3209442642, -0.6818475, -0.23569226, -0.13738419, 0.67877, 0.0525394, 0.029296849, 0.33927536, 0
362, 3209459309, -0.68175256, -0.23567607, -0.1376105, 0.67882514, 0.11499116, 0.014773759, 0.3669176, 0
363, 3209475976, -0.68163824, -0.2357187, -0.13789357, 0.6788678, 0.09443199, 0.08254381, 0.35446548, 0
365, 3209509310, -0.68143827, -0.23588839, -0.13854356, 0.6788772, 0.053297557, 0.09853918, 0.2986126, 0
366, 3209525977, -0.68135977, -0.23584124, -0.13881804, 0.67891645, 0.0745999, 0.09493819, 0.26134396, 0
367, 3209542644, -0.6812538, -0.23570089, -0.13905546, 0.6790227, 0.05136909, 0.091197364, 0.32938004, 0
369, 3209575978, -0.68110824, -0.23522028, -0.13949992, 0.6792442, 0.22708939, 0.17793871, 0.18771267, 0
370, 3209592645, -0.6809322, -0.23530957, -0.13995607, 0.679296, 0.18661387, 0.045589883, 0.64396286, 0
373, 3209642646, -0.67979133, -0.23729086, -0.14208415, 0.6793077, 0.14492424, 0.06417627, 0.31372356, 0
374, 3209659313, -0.6793339, -0.23827519, -0.1430077, 0.679227, 0.18099253, 0.053007886, 0.25479698, 0
375, 3209675980, -0.6788379, -0.23922694, -0.14401942, 0.67917454, 0.20715962, -0.011431905, 0.1814146, 0
377, 3209709314, -0.67806995, -0.24061258, -0.1458813, 0.679055, -0.03814338, 0.12898028, 0.26753807, 0
378, 3209725981, -0.6778229, -0.24092269, -0.14651063, 0.67905617, -0.03902022, 0.09642737, 0.40390778, 0
380, 3209759315, -0.67762417, -0.2416623, -0.14758736, 0.67875844, 0.24184996, 0.16310835, 0.50614834, 0
381, 3209775982, -0.6775603, -0.24237163, -0.1482638, 0.67842156, 0.30820426, 0.07112774, 0.4431343, 0
382, 3209792649, -0.6774734, -0.2432507, -0.14907631, 0.6780156, 0.29959655, 0.100029364, 0.2858734, 0
384, 3209825983, -0.6771776, -0.24530317, -0.151009, 0.67714334, 0.090528555, 0.17285539, 0.27366734, 0
385, 3209842650, -0.6769222, -0.24635608, -0.15212117, 0.6767674, 0.11501083, 0.16098896, 0.31424046, 0
388, 3209892651, -0.6756609, -0.24998187, -0.15620384, 0.6757678, 0.035376064, 0.025696894, 0.36678505, 0
389, 3209909318, -0.6751443, -0.25136462, -0.15778494, 0.67540365, 0.09826546, -0.0846291, 0.30057907, 0
390, 3209925985, -0.67463374, -0.252624, -0.1593346, 0.67507994, 0.06063073, -0.12760673, 0.23865986, 0
392, 3209959319, -0.67378694, -0.25457767, -0.16191965, 0.6745765, -0.074154444, -0.085954085, 0.17442131, 0
393, 3209975986, -0.67345226, -0.25511765, -0.16282016, 0.67449003, -0.015650153, -0.14973971, 0.25098038, 0
394, 3209992653, -0.67321104, -0.25537217, -0.16347748, 0.6744756, 0.004502445, -0.10475057, 0.2274828, 0
396, 3210025987, -0.6727644, -0.25578845, -0.16457313, 0.6744967, 0.038250443, 0.022229593, 0.40518856, 0
397, 3210042654, -0.67250824, -0.25606227, -0.16518475, 0.67449915, 0.13166411, 0.022910412, 0.39616108, 0
398, 3210059321, -0.672222, -0.25644627, -0.165894, 0.6744643, 0.14994746, 0.083559535, 0.3214016, 0
400, 3210092655, -0.6716963, -0.25687614, -0.1670419, 0.6745413, 0.07409521, 0.1423949, 0.22651577, 0
402, 3210125989, -0.6715325, -0.2563932, -0.16724095, 0.67483866, 0.12515227, 0.15267482, 0.32936, 0
404, 3210159323, -0.6715877, -0.25580144, -0.167117, 0.6750391, 0.2891453, 0.26835686, 0.3646822, 0
405, 3210175990, -0.67158204, -0.2556529, -0.16719106, 0.67508245, 0.26502803, 0.25285506, 0.41811943, 0
407, 3210209324, -0.6714655, -0.25555602, -0.167458, 0.6751689, 0.09885799, 0.22858262, 0.2762289, 0
408, 3210225991, -0.6714524, -0.25536072, -0.16746846, 0.6752533, 0.16150399, 0.20553894, 0.25042915, 0
409, 3210242658, -0.67150944, -0.25500074, -0.16731495, 0.67537063, 0.18738231, 0.15698098, 0.24716663, 0
411, 3210275992, -0.6717789, -0.25406986, -0.16660306, 0.6756294, 0.25650078, 0.12582348, 0.33066177, 0
412, 3210292659, -0.67190695, -0.2537057, -0.1662158, 0.67573434, 0.24194182, 0.14301851, 0.36427116, 0
413, 3210309326, -0.6719954, -0.25350866, -0.16590525, 0.6757967, 0.17936781, 0.14152153, 0.38460064, 0
415, 3210342660, -0.67209494, -0.2534433, -0.16545796, 0.6758318, 0.13043456, 0.031720456, 0.33854103, 0
417, 3210375994, -0.67209363, -0.25366256, -0.165153, 0.6758255, 0.17940134, 0.012365854, 0.2990303, 0
419, 3210409328, -0.67207783, -0.25401202, -0.16490786, 0.67576975, 0.1132938, -0.03694317, 0.32719707, 0
420, 3210425995, -0.67208004, -0.25423604, -0.16477367, 0.67571616, 0.029698614, 0.05868595, 0.30782127, 0
421, 3210442662, -0.6720741, -0.25447106, -0.1646766, 0.6756571, 0.0884747, 0.06598332, 0.29747868, 0
423, 3210475996, -0.6721033, -0.25477052, -0.16437978, 0.67558753, 0.14993472, 0.006408284, 0.2707281, 0
424, 3210492663, -0.6721638, -0.25479683, -0.16412346, 0.67557967, 0.054887407, 0.05014893, 0.2770567, 0
425, 3210509330, -0.6722586, -0.2547761, -0.16381773, 0.6755675, 0.027075242, 0.17233369, 0.30845737, 0
427, 3210542664, -0.6723778, -0.2547128, -0.16327235, 0.6756048, 0.16114613, 0.13228318, 0.3115921, 0
428, 3210559331, -0.6724273, -0.25470316, -0.16304064, 0.67561495, 0.14394435, 0.16297665, 0.3459015, 0
429, 3210575998, -0.67247653, -0.25472668, -0.1628424, 0.675605, 0.114241496, 0.18258232, 0.30470562, 0
431, 3210609332, -0.67255104, -0.25484657, -0.16248102, 0.67557245, 0.15829791, 0.15350406, 0.30012035, 0
432, 3210625999, -0.6726289, -0.25481555, -0.16221339, 0.6755711, 0.15122238, 0.109610416, 0.27109337, 0
434, 3210659333, -0.6729616, -0.2543916, -0.1613825, 0.6755986, 0.061619617, 0.1746447, 0.26891804, 0
435, 3210676000, -0.673153, -0.25406656, -0.16094047, 0.67563576, 0.06815647, 0.20752, 0.3467722, 0
436, 3210692667, -0.67332596, -0.25380465, -0.1605626, 0.67565167, 0.16498698, 0.2009857, 0.3647213, 0
438, 3210726001, -0.67356634, -0.25353804, -0.160072, 0.67562854, 0.16623315, 0.14942788, 0.31311035, 0
439, 3210742668, -0.67366195, -0.25349283, -0.15995279, 0.6755785, 0.14301968, 0.17049439, 0.3136387, 0
440, 3210759335, -0.67377985, -0.25344786, -0.15987563, 0.67549574, 0.12666054, 0.12998044, 0.31957054, 0
442, 3210792669, -0.6739605, -0.25333062, -0.15970436, 0.6754001, 0.106743306, 0.10812423, 0.330904, 0
444, 3210826003, -0.6742116, -0.25308296, -0.15930241, 0.67533726, 0.11370506, 0.031185254, 0.26937485, 0
446, 3210859337, -0.67464876, -0.25247124, -0.15859292, 0.67529666, 0.12808633, 0.04295908, 0.3055334, 0
447, 3210876004, -0.674909, -0.252134, -0.15823767, 0.67524606, 0.054433227, 0.08340733, 0.312212, 0
448, 3210892671, -0.67519593, -0.25177082, -0.15788937, 0.6751764, 0.034578796, 0.072375454, 0.3620987, 0
450, 3210926005, -0.6756538, -0.2511724, -0.15731281, 0.6750754, 0.14614774, 0.01557103, 0.29612827, 0
451, 3210942672, -0.67585194, -0.2509166, -0.15704644, 0.6750343, 0.10620106, -0.014809745, 0.2963314, 0
452, 3210959339, -0.67607117, -0.2506245, -0.15671085, 0.6750014, 0.057836883, -0.039082304, 0.2843399, 0
454, 3210992673, -0.67655295, -0.2497284, -0.15565279, 0.6750958, -0.046742372, -0.18743081, 0.10896587, 0
455, 3211009340, -0.67683446, -0.24904664, -0.15493289, 0.6752308, 0.12129735, 0.078793846, 0.18372917, 0
456, 3211026007, -0.677062, -0.2484344, -0.15429187, 0.6753751, 0.06762675, -0.004155106, 0.5076103, 0
459, 3211076008, -0.67749506, -0.24764092, -0.15296729, 0.67553353, 0.304563, 0.22211337, 0.34078407, 0
461, 3211109342, -0.67749184, -0.24798416, -0.15303046, 0.67539656, 0.17467739, 0.3349449, 0.45184994, 0
462, 3211126009, -0.6773927, -0.24836034, -0.15329911, 0.67529684, 0.06607563, 0.42858234, 0.37185955, 0
463, 3211142676, -0.67724097, -0.24875122, -0.15352392, 0.675254, 0.15185985, 0.357497, 0.26974583, 0
465, 3211176010, -0.6774413, -0.2489244, -0.1531066, 0.67508405, 0.29069045, 0.14462797, 0.17457294, 0
466, 3211192677, -0.6777812, -0.24856718, -0.15233949, 0.6750481, 0.16281846, 0.21949978, 0.169034, 0
467, 3211209344, -0.67816854, -0.2478663, -0.15126821, 0.6751575, 0.027280204, 0.2394304, 0.2527809, 0
469, 3211242678, -0.67900383, -0.24583972, -0.14867477, 0.6756348, -0.02775271, 0.19857095, 0.3523178, 0
470, 3211259345, -0.67938113, -0.24477562, -0.14758405, 0.6758809, 0.103912964, 0.16954908, 0.4419899, 0
471, 3211276012, -0.67970824, -0.24392483, -0.14673407, 0.6760449, 0.18268138, 0.042236406, 0.46279716, 0
474, 3211326013, -0.68033063, -0.24270044, -0.14535874, 0.67615646, -0.045568928, -0.1025217, 0.29344177, 0
475, 3211342680, -0.6804271, -0.24230523, -0.14495917, 0.676287, -0.033977322, -0.15309939, 0.30887508, 0
477, 3211376014, -0.6804428, -0.24167678, -0.14432219, 0.6766321, -0.041490935, -0.12639435, 0.32137203, 0
478, 3211392681, -0.68033564, -0.24164364, -0.14419776, 0.6767782, -0.060802452, -0.18025152, 0.39988995, 0
479, 3211409348, -0.68014765, -0.24170135, -0.14417094, 0.67695224, -0.040702604, -0.2534211, 0.37662125, 0
481, 3211442682, -0.68000484, -0.24151063, -0.14433822, 0.6771283, -0.101726554, -0.18474475, 0.245574, 0
482, 3211459349, -0.67995405, -0.24121882, -0.14441474, 0.677267, -0.083780035, -0.22903523, 0.3285818, 0
483, 3211476016, -0.67990386, -0.2409063, -0.14452337, 0.67740536, -0.010048025, -0.2128943, 0.34146595, 0
485, 3211509350, -0.6795786, -0.24084157, -0.14510112, 0.67763126, 0.01351024, -0.14801821, 0.40220642, 0
486, 3211526017, -0.6793073, -0.24113518, -0.1455892, 0.6776941, 0.022061417, -0.14339921, 0.37606525, 0
489, 3211576018, -0.6785726, -0.24231863, -0.14734605, 0.67762834, 0.051448435, -0.033838745, 0.261734, 0
490, 3211592685, -0.6784166, -0.2424633, -0.14784318, 0.67762446, 0.02519058, -0.044247966, 0.24640465, 0
492, 3211626019, -0.6783749, -0.24252327, -0.14859222, 0.6774808, 0.12887868, 0.090983294, 0.36411858, 0
493, 3211642686, -0.6781334, -0.24275675, -0.14891988, 0.6775671, 0.18350123, 0.056534026, 0.43117523, 0
494, 3211659353, -0.67798513, -0.24311224, -0.14932853, 0.6774982, 0.19045226, 0.09951087, 0.3629532, 0
496, 3211692687, -0.6775171, -0.2442694, -0.1503866, 0.67731607, 0.1206248, 0.104884736, 0.33396816, 0
497, 3211709354, -0.67720723, -0.24488433, -0.15093866, 0.67728114, 0.1392204, 0.063230306, 0.2590723, 0
498, 3211726021, -0.6770474, -0.2452518, -0.15141395, 0.6772017, 0.07815757, 0.01679901, 0.23671246, 0
500, 3211759355, -0.67692286, -0.24528529, -0.15180016, 0.6772278, 0.06346919, 0.17121238, 0.28908634, 0
501, 3211776022, -0.6768495, -0.24520276, -0.15189824, 0.6773089, 0.10069795, 0.07889281, 0.3944502, 0
502, 3211792689, -0.6767714, -0.24519046, -0.15202993, 0.67736197, 0.16683565, 0.13496555, 0.3850069, 0
504, 3211826023, -0.6765864, -0.24571367, -0.15269315, 0.67720795, 0.21063548, 0.12251544, 0.37667656, 0
505, 3211842690, -0.6763966, -0.24614432, -0.15312582, 0.67714345, 0.1406538, 0.04811893, 0.34479523, 0
506, 3211859357, -0.6762694, -0.24652827, -0.15351386, 0.6770431, 0.16449817, 0.07583985, 0.24588776, 0
508, 3211892691, -0.6761301, -0.2470052, -0.15396507, 0.67690575, 0.117791995, 0.05226001, 0.33596802, 0
510, 3211926025, -0.67606044, -0.24737114, -0.15411487, 0.67680764, 0.13675512, 0.11920359, 0.30659008, 0
512, 3211959359, -0.67594504, -0.24793884, -0.15444477, 0.67663985, 0.16430303, 0.068929106, 0.3323574, 0
513, 3211976026, -0.67585266, -0.24823229, -0.15460728, 0.6765876, 0.063516125, 0.08382155, 0.2923479, 0
515, 3212009360, -0.67580354, -0.24856526, -0.15468945, 0.67649543, 0.15896219, -0.019854544, 0.26254082, 0
517, 3212042694, -0.67583025, -0.24862778, -0.1544407, 0.67650247, 0.10979001, 0.08456076, 0.31703758, 0
519, 3212076028, -0.6759102, -0.24880515, -0.15419853, 0.6764128, 0.102831155, 0.055803698, 0.3088894, 0
520, 3212092695, -0.6759348, -0.2487979, -0.15405579, 0.67642355, 0.11665677, 0.051526945, 0.27219582, 0
521, 3212109362, -0.675959, -0.24871033, -0.15384912, 0.67647856, 0.076422654, 0.05297268, 0.290308, 0
523, 3212142696, -0.67616546, -0.24838707, -0.15328693, 0.67651844, 0.14056641, 0.036212843, 0.32531166, 0
524, 3212159363, -0.67629695, -0.24826169, -0.15305723, 0.67648506, 0.17091477, 0.09906256, 0.2832632, 0
527, 3212209364, -0.67663926, -0.24825889, -0.1526369, 0.6762389, 0.10041074, 0.088681504, 0.30098248, 0
528, 3212226031, -0.6767405, -0.2483009, -0.15252472, 0.67614746, 0.122819476, 0.079127274, 0.31950283, 0
529, 3212242698, -0.6768039, -0.24831992, -0.15238711, 0.67610776, 0.12447056, 0.074060515, 0.31747437, 0
531, 3212276032, -0.676933, -0.24836856, -0.15208213, 0.6760295, 0.10547867, 0.09906256, 0.32766628, 0
533, 3212309366, -0.6771008, -0.2483705, -0.15175204, 0.67593485, 0.1342079, 0.06525293, 0.2979803, 0
535, 3212342700, -0.6774662, -0.2481795, -0.15126091, 0.67574894, 0.14353265, 0.035419818, 0.29344368, 0
536, 3212359367, -0.677655, -0.24805833, -0.15088616, 0.6756879, 0.10381149, 0.0409402, 0.2948084, 0
537, 3212376034, -0.6778608, -0.24779043, -0.15035594, 0.67569816, -0.036539897, -0.12495464, 0.1613369, 0
540, 3212426035, -0.6781404, -0.24729061, -0.14907973, 0.67588335, 0.20031925, 0.0057321014, 0.49053955, 0
542, 3212459369, -0.677935, -0.24839543, -0.14932486, 0.6756302, 0.31249323, 0.2504426, 0.3637123, 0
543, 3212476036, -0.67781377, -0.24898621, -0.14957112, 0.6754799, 0.22673914, 0.25920683, 0.3333273, 0
544, 3212492703, -0.6776507, -0.24949226, -0.14981577, 0.67540246, 0.089325614, 0.43191767, 0.33793545, 0
546, 3212526037, -0.67738235, -0.2500496, -0.15018292, 0.6753841, 0.065906145, 0.37502566, 0.32630157, 0
547, 3212542704, -0.677372, -0.25004998, -0.1501895, 0.6753927, 0.14956236, 0.21381183, 0.32580566, 0
551, 3212609372, -0.67858803, -0.24859549, -0.14792493, 0.6752089, 0.06645487, 0.040997975, 0.2701969, 0
552, 3212626039, -0.6790006, -0.24784003, -0.1469823, 0.6752775, -0.076331906, 0.027331164, 0.26844215, 0
554, 3212659373, -0.6797304, -0.24637693, -0.14531288, 0.67544, 0.0835288, -0.12023321, 0.39336967, 0
555, 3212676040, -0.6798884, -0.24591377, -0.14476785, 0.67556673, 0.11296076, -0.1683223, 0.4105158, 0
556, 3212692707, -0.6800511, -0.24572714, -0.14446281, 0.6755363, 0.077807546, -0.16475531, 0.348032, 0
558, 3212726041, -0.68023086, -0.24564669, -0.14408708, 0.67546505, -5.860158E-4, -0.21164401, 0.3252945, 0
559, 3212742708, -0.68027115, -0.24553743, -0.14390755, 0.6755021, -0.031119261, -0.19448555, 0.3217554, 0
560, 3212759375, -0.680285, -0.24539326, -0.14370295, 0.67558426, -0.04873432, -0.18679027, 0.27603436, 0
562, 3212792709, -0.6805234, -0.24482603, -0.14314324, 0.67566884, 0.012593167, -0.22557922, 0.27419853, 0
563, 3212809376, -0.68068516, -0.24448852, -0.14278129, 0.67570454, 0.033661053, -0.22536415, 0.3223133, 0
566, 3212859377, -0.681127, -0.24333972, -0.14154607, 0.6759337, 0.040189195, -0.13552378, 0.2695694, 0
567, 3212876044, -0.6812562, -0.2429209, -0.14108479, 0.6760509, 0.08508065, -0.124305725, 0.36318302, 0
569, 3212909378, -0.6813787, -0.24253824, -0.1405118, 0.676184, 0.095211156, -0.023970256, 0.39093018, 0
570, 3212926045, -0.681385, -0.24264947, -0.14041078, 0.67615885, 0.12089592, -2.5463713E-4, 0.36580276, 0
571, 3212942712, -0.6813605, -0.24287987, -0.14037693, 0.6761078, 0.104004376, -0.03491725, 0.34601116, 0
573, 3212976046, -0.6813224, -0.24337375, -0.1403234, 0.67597973, 0.08311687, 0.03647078, 0.31814194, 0
574, 3212992713, -0.6812905, -0.24362561, -0.1403074, 0.67592436, 0.110605165, 0.06484387, 0.3461876, 0
575, 3213009380, -0.68118817, -0.24392973, -0.14032471, 0.67591417, 0.09916465, 0.09106711, 0.3674593, 0
577, 3213042714, -0.68103313, -0.24460346, -0.14050584, 0.67578924, 0.09487946, 0.14782289, 0.3140726, 0
578, 3213059381, -0.680969, -0.24491554, -0.1405872, 0.67572397, 0.13004789, 0.12643988, 0.32755184, 0
579, 3213076048, -0.68083686, -0.24514204, -0.1406048, 0.67577124, 0.14192782, 0.1456976, 0.2923622, 0
581, 3213109382, -0.6808229, -0.24544746, -0.14053217, 0.67568964, 0.15539493, 0.1380615, 0.32715893, 0
582, 3213126049, -0.6808171, -0.2455209, -0.1404259, 0.6756908, 0.15928276, 0.1405968, 0.30699062, 0
583, 3213142716, -0.6808051, -0.2456231, -0.14032121, 0.67568755, 0.08052635, 0.124569274, 0.30679417, 0
585, 3213176050, -0.68078625, -0.24587399, -0.14015481, 0.67564976, 0.15684955, 0.08800834, 0.34432697, 0
586, 3213192717, -0.6807649, -0.24599312, -0.14011204, 0.6756367, 0.14266631, 0.07159139, 0.3256836, 0
587, 3213209384, -0.68076545, -0.24600878, -0.14000624, 0.6756525, 0.0812293, 0.0945868, 0.27802086, 0
589, 3213242718, -0.68085897, -0.24582154, -0.13967244, 0.67569566, 0.09271698, 0.06634672, 0.36258125, 0
590, 3213259385, -0.6808877, -0.24572416, -0.1395254, 0.67573243, 0.1450275, 0.034780182, 0.36277962, 0
593, 3213309386, -0.68110096, -0.24559423, -0.13919845, 0.6756321, 0.09400217, 0.0019452611, 0.3210144, 0
594, 3213326053, -0.6811222, -0.24551208, -0.13901082, 0.67567927, 0.0744991, 0.0024677506, 0.30153942, 0
596, 3213359387, -0.6812651, -0.24533239, -0.13856718, 0.67569166, 0.13916029, -0.0011567075, 0.32863045, 0
597, 3213376054, -0.6812993, -0.2453016, -0.13837034, 0.67570853, 0.13745734, -0.030035838, 0.35991478, 0
598, 3213392721, -0.68134767, -0.24530831, -0.13819851, 0.67569256, 0.10216509, 0.001989405, 0.32108688, 0
600, 3213426055, -0.68146783, -0.24540873, -0.13792254, 0.6755913, 0.103688106, -0.0366105, 0.3332882, 0
601, 3213442722, -0.6815264, -0.2454194, -0.13774344, 0.67556477, 0.12103942, -0.021562798, 0.3211298, 0
602, 3213459389, -0.6816064, -0.24538036, -0.13751689, 0.6755445, 0.08460457, 0.0042143925, 0.28839207, 0
604, 3213492723, -0.6818357, -0.24517012, -0.13687241, 0.67552036, 0.10310675, -0.050455954, 0.32324982, 0
605, 3213509390, -0.6819563, -0.24503921, -0.13648446, 0.6755247, 0.10578913, 0.0013068803, 0.30990028, 0
608, 3213559391, -0.682292, -0.24452479, -0.13532996, 0.67560434, 0.09451894, -0.007493188, 0.26691818, 0
609, 3213576058, -0.68241036, -0.24419041, -0.13486809, 0.67569804, 0.07295597, -0.0033792923, 0.3604679, 0
610, 3213592725, -0.6825547, -0.24390432, -0.13437903, 0.6757532, 0.09137835, 0.03724754, 0.37160873, 0
612, 3213626059, -0.6828152, -0.24346398, -0.13345173, 0.6758323, 0.12524302, -0.031432796, 0.3075924, 0
613, 3213642726, -0.6829134, -0.24329132, -0.13301139, 0.6758821, 0.102992535, 0.0037947192, 0.33684826, 0
614, 3213659393, -0.6829835, -0.24318649, -0.13262889, 0.6759242, 0.06268309, 0.023155915, 0.34333038, 0
616, 3213692727, -0.6831527, -0.24311058, -0.13198194, 0.67590725, 0.10198762, -0.012834338, 0.3141966, 0
617, 3213709394, -0.6831598, -0.24307474, -0.13161728, 0.675984, 0.13390237, -0.0063331556, 0.3121004, 0
618, 3213726061, -0.68320596, -0.24297865, -0.13125694, 0.6760421, 0.09595344, -0.012839506, 0.2928934, 0
620, 3213759395, -0.68335414, -0.2427235, -0.13047688, 0.6761347, -1.8775088E-4, 0.05268259, 0.38749695, 0
623, 3213809396, -0.6833412, -0.24285989, -0.1298159, 0.676226, 0.15099373, -0.0574, 0.25678444, 0
624, 3213826063, -0.6832931, -0.24291821, -0.12962976, 0.67628956, 0.106762975, -0.01710296, 0.29570484, 0
625, 3213842730, -0.6832557, -0.24294408, -0.12940326, 0.6763614, 0.05112747, 0.057715878, 0.338665, 0
627, 3213876064, -0.68305314, -0.24306877, -0.12891594, 0.6766143, 0.07783436, 0.007834129, 0.3024187, 0
628, 3213892731, -0.68291396, -0.24313344, -0.1286611, 0.67678, 0.11775713, 0.049481492, 0.2934103, 0
629, 3213909398, -0.68279696, -0.2431668, -0.12836626, 0.67694205, 0.13376826, -0.043553706, 0.30171967, 0
631, 3213942732, -0.6826603, -0.2431156, -0.12763706, 0.6772361, 0.11955038, 0.029496362, 0.29655933, 0
632, 3213959399, -0.6826247, -0.24300064, -0.12727222, 0.6773817, 0.12043928, 0.11359501, 0.2987442, 0
633, 3213976066, -0.68256295, -0.24283656, -0.12689072, 0.6775744, 0.11306559, 0.122035086, 0.3650055, 0
635, 3214009400, -0.68254584, -0.24230431, -0.12596394, 0.67795485, 0.15547718, 0.11536738, 0.32288837, 0
637, 3214042734, -0.6826457, -0.24146262, -0.12508547, 0.67831725, 0.07921389, 0.13752964, 0.4034624, 0
639, 3214076068, -0.6827005, -0.2406859, -0.1247286, 0.67860395, 0.11826674, 0.097022615, 0.36050606, 0
640, 3214092735, -0.68264985, -0.24031848, -0.12475066, 0.67878103, 0.13556775, 0.11535023, 0.34758663, 0
641, 3214109402, -0.6826233, -0.23984773, -0.1248035, 0.6789645, 0.07928608, 0.18303926, 0.19713783, 0
643, 3214142736, -0.68265986, -0.23871975, -0.124890104, 0.6793091, 0.09017339, 0.2309422, 0.3449831, 0
644, 3214159403, -0.6826886, -0.23818213, -0.12494886, 0.67945826, 0.21289319, 0.1420529, 0.38380718, 0
645, 3214176070, -0.6827047, -0.23780608, -0.12503631, 0.6795575, 0.19994843, 0.069695726, 0.4480667, 0
647, 3214209404, -0.6827023, -0.23743363, -0.12530372, 0.679641, 0.0862123, 0.2051876, 0.31796265, 0
648, 3214226071, -0.68269217, -0.23734175, -0.1254808, 0.67965055, 0.087492585, 0.17531043, 0.28509903, 0
650, 3214259405, -0.6826958, -0.237153, -0.12573658, 0.67966557, 0.21202104, 0.10846944, 0.23153114, 0
651, 3214276072, -0.6826973, -0.23706317, -0.1258744, 0.67967, 0.1789058, 0.12902777, 0.29412746, 0
652, 3214292739, -0.6826979, -0.236961, -0.12601982, 0.6796779, 0.10482288, 0.15637198, 0.36505985, 0
654, 3214326073, -0.68268347, -0.23681729, -0.12630679, 0.6796893, 0.18708275, 0.1941581, 0.32679176, 0
655, 3214342740, -0.6827143, -0.23668623, -0.12642848, 0.67968136, 0.2816138, 0.186083, 0.29619408, 0
656, 3214359407, -0.6827642, -0.23649214, -0.12652937, 0.67968, 0.2576244, 0.18347546, 0.34918594, 0
658, 3214392741, -0.68276584, -0.23621505, -0.12691335, 0.67970324, 0.19219723, 0.10720469, 0.41840744, 0
659, 3214409408, -0.6827546, -0.2361895, -0.12712163, 0.67968446, 0.1672514, 0.053931747, 0.3212452, 0
660, 3214426075, -0.6827591, -0.23623185, -0.12728842, 0.67963386, 0.17300372, -0.020473005, 0.29800415, 0
662, 3214459409, -0.682877, -0.23609133, -0.12732226, 0.6795578, 0.04346053, 0.018068675, 0.16154099, 0
664, 3214492743, -0.6830331, -0.23579691, -0.12707132, 0.6795502, 0.061443713, -0.17621101, 0.47665882, 0
666, 3214526077, -0.68308914, -0.23584129, -0.12691903, 0.679507, 0.07421837, -0.2153816, 0.36725712, 0
667, 3214542744, -0.68311405, -0.23595355, -0.12683055, 0.67945945, 0.05432639, -0.18441348, 0.22555923, 0
668, 3214559411, -0.6831651, -0.23601875, -0.12673049, 0.67940426, 0.075657345, -0.17052002, 0.18527985, 0
670, 3214592745, -0.6832768, -0.23597316, -0.12643409, 0.67936295, 0.030782875, -0.14715984, 0.24262428, 0
671, 3214609412, -0.6833644, -0.23594624, -0.12624371, 0.6793196, 0.008576192, -0.18616232, 0.42998695, 0
673, 3214642746, -0.6834255, -0.23631442, -0.12596685, 0.6791816, 0.052993134, -0.10787752, 0.43435383, 0
678, 3214726081, -0.6835202, -0.237021, -0.12531805, 0.67896014, 0.023941942, -0.040115822, 0.42161846, 0
679, 3214742748, -0.68352187, -0.23717338, -0.12515642, 0.67893493, 0.010152405, -0.03711237, 0.4988346, 0
681, 3214776082, -0.6834903, -0.2376505, -0.12503967, 0.6788213, 0.052945748, 0.010727029, 0.30893135, 0
683, 3214809416, -0.68348444, -0.23783056, -0.1250619, 0.6787601, 0.0329923, 0.06103862, 0.1688652, 0
685, 3214842750, -0.68351984, -0.23765382, -0.12495279, 0.67880654, 0.058343362, 0.025612768, 0.48496723, 0
686, 3214859417, -0.68351114, -0.23759595, -0.12498088, 0.6788303, 0.020541959, 0.055481754, 0.4931574, 0
687, 3214876084, -0.6834787, -0.23757604, -0.1250891, 0.6788499, 0.008024115, 0.05147358, 0.35083866, 0
689, 3214909418, -0.6834053, -0.2373612, -0.12547058, 0.67892873, 0.04157609, 0.0061785406, 0.23287964, 0
690, 3214926085, -0.68337995, -0.23711634, -0.1256418, 0.679008, -0.020927742, -0.017587675, 0.2939949, 0
691, 3214942752, -0.68339336, -0.2368184, -0.12577437, 0.6790742, 0.031838078, 0.006450444, 0.3319254, 0
693, 3214976086, -0.68331194, -0.23625821, -0.12618096, 0.6792758, 0.025336757, -0.08530542, 0.39821625, 0
694, 3214992753, -0.6832272, -0.23605259, -0.12648721, 0.6793753, -0.010975827, -0.072675265, 0.32799244, 0
695, 3215009420, -0.68315893, -0.23586498, -0.12679538, 0.6794516, 0.014082657, -0.10097553, 0.30030918, 0
698, 3215059421, -0.6830577, -0.23484494, -0.12739614, 0.6797945, 0.10204015, -0.016892578, 0.28397942, 0
699, 3215076088, -0.68302524, -0.23449433, -0.12757199, 0.679915, 0.015295215, -0.08042276, 0.48727417, 0
702, 3215126089, -0.68283284, -0.23396744, -0.12827477, 0.6801573, 0.14741829, 0.020104622, 0.19369793, 0
704, 3215159423, -0.68268335, -0.23346877, -0.12862822, 0.680412, 0.055674396, 0.021283044, 0.266263, 0
705, 3215176090, -0.68268436, -0.2331032, -0.12880191, 0.6805034, -0.09798808, 0.062687956, 0.40201473, 0
706, 3215192757, -0.6826745, -0.23278363, -0.12899345, 0.68058634, -0.060507864, 0.08704983, 0.4571514, 0
709, 3215242758, -0.6824907, -0.23214477, -0.12969218, 0.68085647, 0.2704042, 0.015428876, 0.24581909, 0
710, 3215259425, -0.6824512, -0.23188706, -0.12987027, 0.68094987, 0.1678238, 0.028668527, 0.2267046, 0
712, 3215292759, -0.6824208, -0.23124494, -0.13003668, 0.68116677, 0.093170926, -0.060089026, 0.30754375, 0
713, 3215309426, -0.682433, -0.230965, -0.13004836, 0.6812471, 0.1274187, -0.085348256, 0.40544605, 0
716, 3215359427, -0.6823938, -0.23098794, -0.13029516, 0.6812316, 0.16387366, 0.005071481, 0.2742262, 0
717, 3215376094, -0.6823671, -0.23104769, -0.13036008, 0.68122566, 0.05472737, 0.1146154, 0.13224697, 0
718, 3215392761, -0.6823989, -0.2310305, -0.13027559, 0.6812158, 0.091022074, 0.049853504, 0.1625824, 0
720, 3215426095, -0.68247473, -0.23087932, -0.12993413, 0.6812563, 0.15757418, -0.025383696, 0.35448265, 0
721, 3215442762, -0.6825416, -0.23094, -0.1298294, 0.6811886, 0.028190572, -0.029554699, 0.43467426, 0
722, 3215459429, -0.68260777, -0.23111695, -0.12976684, 0.68107426, 0.03961879, -0.03221956, 0.4064169, 0
724, 3215492763, -0.6826242, -0.23157431, -0.12973876, 0.6809078, 0.12145337, 0.07862403, 0.31173038, 0
725, 3215509430, -0.6825999, -0.23175362, -0.1297929, 0.6808609, 0.093588226, 0.20076859, 0.3738413, 0
726, 3215526097, -0.6825947, -0.23182426, -0.12987377, 0.68082666, 0.059738744, 0.2469613, 0.35340405, 0
728, 3215559431, -0.6825931, -0.23148851, -0.1300416, 0.68091065, -0.022800557, 0.21527818, 0.30052662, 0
729, 3215576098, -0.682587, -0.23122124, -0.13012248, 0.6809919, -0.004953271, 0.050915275, 0.5260906, 0
731, 3215609432, -0.6825917, -0.23085643, -0.13045305, 0.6810478, 0.2906768, 0.08564698, 0.35340786, 0
732, 3215626099, -0.6825819, -0.23071715, -0.1306868, 0.6810601, 0.19578618, 0.18170168, 0.22366714, 0
733, 3215642766, -0.68252933, -0.23059358, -0.1309084, 0.68111175, 0.037060235, 0.14806822, 0.3360405, 0
735, 3215676100, -0.68237656, -0.23034362, -0.13127974, 0.681278, 0.11394668, 0.06803941, 0.27167606, 0
736, 3215692767, -0.68232083, -0.23020405, -0.13150293, 0.681338, 0.20843478, 0.046724714, 0.21565628, 0
737, 3215709434, -0.6823255, -0.22995852, -0.13169959, 0.6813784, 0.1802965, 0.07753078, 0.13291359, 0
739, 3215742768, -0.6823971, -0.22909983, -0.13183776, 0.681569, 0.03833605, 0.103421904, 0.3265972, 0
740, 3215759435, -0.6823875, -0.22873661, -0.13197744, 0.68167365, 0.07412673, 0.027496396, 0.6686516, 0
744, 3215826103, -0.68187237, -0.2284337, -0.13324302, 0.68204427, 0.097194165, 0.23372783, 0.06430054, 0
747, 3215876104, -0.68168175, -0.22724807, -0.13364981, 0.6825512, 0.3059725, 0.16826913, 0.66804504, 0
748, 3215892771, -0.68149483, -0.22708502, -0.1340365, 0.68271625, 0.07513321, 0.28881496, 0.6205406, 0
749, 3215909438, -0.68122596, -0.2270724, -0.13453993, 0.6828898, 0.033163287, 0.37927607, 0.33810806, 0
751, 3215942772, -0.6807845, -0.22692326, -0.13553616, 0.6831825, 0.5587013, 0.3734804, 0.17438507, 0
752, 3215959439, -0.6805462, -0.22665206, -0.1359424, 0.6834293, 0.5306174, 0.38960752, 0.3198347, 0
753, 3215976106, -0.6803073, -0.22637576, -0.13637865, 0.6836717, 0.36492848, 0.44622067, 0.44077492, 0
755, 3216009440, -0.6798103, -0.22573596, -0.1372256, 0.6842079, 0.22749573, 0.29477075, 0.13761616, 0
756, 3216026107, -0.6795897, -0.2253329, -0.13760118, 0.68448436, 0.21949174, 0.2102445, 0.35641098, 0
758, 3216059441, -0.6792296, -0.22488506, -0.13829784, 0.68484867, 0.23187234, 0.42417553, 0.6487713, 0
760, 3216092775, -0.6785565, -0.22546913, -0.13969396, 0.68504035, 0.3597763, 0.5834532, 0.38257217, 0
762, 3216126109, -0.67757225, -0.22635752, -0.14141834, 0.6853678, 0.57290214, 0.12214469, 0.04860592, 0
763, 3216142776, -0.6771398, -0.22646207, -0.141949, 0.6856511, 0.45721507, -0.2032172, 0.25983143, 0
764, 3216159443, -0.6768997, -0.22584276, -0.14196943, 0.6860879, 0.13486324, -0.07894986, -0.08557987, 0
766, 3216192777, -0.676924, -0.22326754, -0.14071754, 0.6871639, 0.27815473, 0.019968983, 0.07400608, 0
767, 3216209444, -0.676847, -0.22231047, -0.14021152, 0.68765336, 0.28893787, 0.06855366, 1.0741749, 0
768, 3216226111, -0.6766162, -0.22193988, -0.14006495, 0.68803006, 0.09505581, 0.20751333, 1.2023764, 0
770, 3216259445, -0.6759074, -0.22277519, -0.14079933, 0.68830675, 0.45191234, 0.27466753, 0.24224949, 0
771, 3216276112, -0.67540586, -0.22306739, -0.14120856, 0.68862045, 0.6584401, 0.5217291, -0.20764256, 0
772, 3216292779, -0.6748905, -0.22298086, -0.14144517, 0.68910503, 0.39715, 0.5906019, -0.073355675, 0
775, 3216342780, -0.67356706, -0.22240111, -0.14186, 0.6905007, 0.2861737, 0.46165976, 1.0564804, 0
776, 3216359447, -0.6728288, -0.22345138, -0.14258172, 0.6907325, 0.58406526, 0.6913905, 0.5831833, 0
778, 3216392781, -0.6713277, -0.226814, -0.14452055, 0.6906942, 0.8953247, 0.3627082, 0.057224274, 0
779, 3216409448, -0.67067194, -0.22704582, -0.1448702, 0.6911815, 0.5353447, 0.14802928, 0.40782166, 0
780, 3216426115, -0.67018586, -0.2266922, -0.1448875, 0.69176537, 0.20364086, 1.0086963, 0.23414612, 0
782, 3216459449, -0.66921866, -0.22675034, -0.14496645, 0.69266546, 0.77149475, 0.7112237, 0.5950632, 0
783, 3216476116, -0.6684236, -0.22740835, -0.14536878, 0.69313294, 1.1781076, 0.39280412, 0.5854111, 0
785, 3216509450, -0.6666543, -0.23021129, -0.14629897, 0.6937157, 1.0223743, 0.91237754, 0.05081272, 0
786, 3216526117, -0.665709, -0.23203328, -0.14654239, 0.6939651, 1.0166115, 0.978567, 0.31418228, 0
787, 3216542784, -0.66460204, -0.23365551, -0.14661556, 0.6944661, 0.91148853, 0.91345394, 0.4860916, 0
790, 3216592785, -0.66106784, -0.2407972, -0.14622784, 0.6954809, 0.75708497, 0.67821324, 0.5643883, 0
791, 3216609452, -0.6602875, -0.2427877, -0.14584085, 0.6956112, 1.3069221, 0.9860415, -0.04246521, 0
793, 3216642786, -0.6590176, -0.24471354, -0.14445694, 0.69642895, 0.53445745, 2.002907, 1.2082777, 0
794, 3216659453, -0.6583351, -0.24356085, -0.1436422, 0.6976462, 0.9465387, 2.2859738, 0.26643658, 0
795, 3216676120, -0.6573894, -0.24335258, -0.14327148, 0.698686, 1.4353685, 2.3825421, 0.113544464, 0
797, 3216709454, -0.6552048, -0.24192819, -0.14277719, 0.7013291, 1.7273786, 1.9886287, 0.33542824, 0
798, 3216726121, -0.65397555, -0.2410672, -0.14255178, 0.7028171, 2.2853825, 1.9618065, -0.48962593, 0
799, 3216742788, -0.65296745, -0.23978421, -0.14207458, 0.7042882, 2.2330985, 2.3698876, 0.80893517, 0
801, 3216776122, -0.6508645, -0.23637842, -0.14074937, 0.7076441, 2.435852, 2.7908814, 0.521842, 0
802, 3216792789, -0.6495896, -0.23578332, -0.14048824, 0.70906466, 1.8617206, 3.0752757, 0.69947815, 0
803, 3216809456, -0.64806235, -0.23610768, -0.1404535, 0.71036, 1.7667457, 2.9463415, 0.6254568, 0
805, 3216842790, -0.64483863, -0.23754457, -0.13960993, 0.7129761, 3.7969155, 3.2068355, -0.70055676, 0
806, 3216859457, -0.64319515, -0.24105582, -0.13910028, 0.71338165, 2.262569, 1.8709961, 0.2100439, 0
807, 3216876124, -0.6417688, -0.24403119, -0.13863604, 0.7137448, 1.9553568, 1.8862795, 1.047513, 0
809, 3216909458, -0.6383276, -0.25070256, -0.1378357, 0.7146729, 1.7686143, 2.962816, -0.2313757, 0
810, 3216926125, -0.6365074, -0.25395042, -0.1370906, 0.7152929, 2.2509954, 2.4103012, -0.68268967, 0
812, 3216959459, -0.63383627, -0.2555031, -0.13614798, 0.717289, 1.941042, 2.1257906, -0.90169334, 0
813, 3216976126, -0.6330615, -0.25524738, -0.1351161, 0.7182588, 1.4910629, 2.349783, -1.6623211, 0
814, 3216992793, -0.63244534, -0.25383055, -0.13282976, 0.71972877, 1.1536634, 1.6042275, -0.9388981, 0
817, 3217042794, -0.63237464, -0.24346927, -0.11790761, 0.72594273, 2.365898, 1.4120765, 0.5242882, 0
818, 3217059461, -0.6320187, -0.24249627, -0.11461626, 0.7271046, 0.6017787, -0.27270627, 3.946334, 0
820, 3217092795, -0.6302264, -0.24456558, -0.1117663, 0.72840995, -1.5247477, -1.1323329, 1.3314447, 0
821, 3217109462, -0.6292721, -0.24575758, -0.11093238, 0.728961, -0.58422244, -0.5172535, 0.4027567, 0
822, 3217126129, -0.62800777, -0.24615394, -0.11025031, 0.73002005, -0.23897845, -0.6802676, 0.4988556, 0
824, 3217159463, -0.6257242, -0.24603336, -0.10870189, 0.7322506, -1.4798818, -2.3524024, 1.864296, 0
825, 3217176130, -0.6249732, -0.24641846, -0.10780946, 0.7328942, -0.32439286, -2.3866937, 0.6249056, 0
826, 3217192797, -0.6244072, -0.24700604, -0.10682283, 0.733323, -0.35644886, -1.8091398, 0.31749058, 0
828, 3217226131, -0.623531, -0.24801387, -0.10468631, 0.7340363, -1.6335961, -1.159014, 0.40276718, 0
829, 3217242798, -0.6229385, -0.24784012, -0.103954494, 0.7347016, -1.1894164, -1.0141782, 0.70092964, 0
832, 3217292799, -0.62025833, -0.24299486, -0.10473755, 0.7384668, -1.2824621, -0.73216903, -0.37589645, 0
833, 3217309466, -0.61932254, -0.24042289, -0.10562074, 0.73996675, -0.96227425, 0.1307252, 0.24454308, 0
834, 3217326133, -0.61824054, -0.23813592, -0.106856614, 0.74143225, -0.8394425, 1.0245042, 0.21313667, 0
836, 3217359467, -0.61614454, -0.23400275, -0.10943186, 0.7441124, 0.7983588, -0.27750206, -0.018442154, 0
837, 3217376134, -0.6152661, -0.2319128, -0.11055443, 0.7453266, 1.1661443, -0.2123621, 0.70098114, 0
839, 3217409468, -0.6137842, -0.22857526, -0.112474084, 0.7472899, 0.46473595, 1.0103792, 0.39057064, 0
840, 3217426135, -0.61345166, -0.22699139, -0.11299744, 0.7479663, 1.1334552, 2.6027527, -0.8370924, 0
841, 3217442802, -0.61337405, -0.22553864, -0.11348605, 0.7483952, 0.6525177, 1.0799013, 0.4089508, 0
843, 3217476136, -0.6133276, -0.22274524, -0.1144542, 0.74912226, 0.22476888, 0.792625, 1.1461096, 0
844, 3217492803, -0.6133652, -0.2217213, -0.11494087, 0.74932075, 0.98108923, 2.2532554, 0.1894598, 0
847, 3217542804, -0.61379874, -0.21838419, -0.11730324, 0.7495795, 0.86571753, 2.560675, 0.7130785, 0
848, 3217559471, -0.6139496, -0.21681125, -0.118514314, 0.7497221, 0.8576176, 2.3650863, 0.5035095, 0
849, 3217576138, -0.61422455, -0.21514536, -0.11974497, 0.74978137, 1.2737575, 2.5617545, -0.34990883, 0
851, 3217609472, -0.6152519, -0.21138337, -0.12240882, 0.74957883, 1.2346178, 3.0399117, 0.7275858, 0
852, 3217626139, -0.6159375, -0.20983723, -0.123977095, 0.74919236, 0.08153731, 2.2228622, 1.8218746, 0
853, 3217642806, -0.61664873, -0.20873877, -0.12573728, 0.7486206, 0.7428129, 1.876128, 1.8256483, 0
855, 3217676140, -0.61750245, -0.20744872, -0.12907389, 0.74770707, 2.5602036, 3.0835688, -1.2213249, 0
856, 3217692807, -0.6185261, -0.20676501, -0.12942648, 0.7469891, 2.0151882, 3.3607829, -1.3732405, 0
857, 3217709474, -0.6201981, -0.20636865, -0.12858276, 0.7458572, 0.74217856, 2.7388682, 1.4502773, 0
859, 3217742808, -0.6230916, -0.2084882, -0.12820408, 0.74291563, 1.8975168, -0.6901666, 2.735423, 0
861, 3217776142, -0.62205064, -0.21201292, -0.1331351, 0.74192226, 2.1086593, 3.1990585, -4.685953, 0
863, 3217809476, -0.6255285, -0.20995662, -0.1293415, 0.74025214, 0.004787871, 2.4371123, 0.69548416, 0
864, 3217826143, -0.6272266, -0.20970163, -0.12704326, 0.7392849, 0.7505632, 1.229635, 6.1049013, 0
866, 3217859477, -0.6283229, -0.21464203, -0.12781547, 0.7367988, 2.1026125, -0.7567798, -0.14508724, 0
867, 3217876144, -0.6269589, -0.21909758, -0.1292743, 0.73639446, 3.3358092, 1.1775796, -6.527789, 0
868, 3217892811, -0.623099, -0.22190817, -0.12699716, 0.73922, -0.25786546, 2.6442745, -2.0852718, 0
870, 3217926145, -0.6250834, -0.22430298, -0.12222062, 0.73762536, 1.5487438, 0.6577174, 2.6784678, 0
871, 3217942812, -0.6253749, -0.22789791, -0.12140161, 0.73641056, 1.8473213, -2.5879085, 3.9620104, 0
872, 3217959479, -0.6251912, -0.23257469, -0.12308267, 0.73482347, 1.9261917, -0.5172487, 0.3415146, 0
874, 3217992813, -0.6226033, -0.24291584, -0.12662743, 0.7330707, -3.150449, 0.23015548, -3.186915, 0
875, 3218009480, -0.6240245, -0.23767923, -0.12005046, 0.7346835, 2.0260606, 2.079349, -5.953103, 0
876, 3218026147, -0.62573266, -0.23705661, -0.11309665, 0.7345351, 3.7008533, 2.7334287, -2.626605, 0
878, 3218059481, -0.62735987, -0.2393938, -0.10506283, 0.7335816, 0.62587225, -1.504795, 7.1708145, 0
879, 3218076148, -0.6273706, -0.24116474, -0.103535146, 0.7332098, -1.0739202, -1.9651875, 3.3926716, 0
880, 3218092815, -0.62694484, -0.24206127, -0.1030554, 0.73334605, -1.8129991, 0.1281814, -1.393755, 0
882, 3218126149, -0.6262242, -0.24091771, -0.102036774, 0.73447967, -0.5338889, 0.98598695, 1.0911322, 0
883, 3218142816, -0.6258437, -0.24022381, -0.101456694, 0.73511153, 1.4650253, -1.8126713, 2.3332415, 0
884, 3218159483, -0.6254773, -0.23973855, -0.101255104, 0.7356093, 0.38504264, -3.4195578, 1.4772816, 0
886, 3218192817, -0.62545776, -0.24011847, -0.101217374, 0.73550725, -2.1836207, -0.7474516, -0.72876835, 0
888, 3218226151, -0.62560284, -0.24137935, -0.10008564, 0.73512584, -0.8803165, -1.7602137, 0.8412981, 0
890, 3218259485, -0.6258715, -0.24182618, -0.09962107, 0.73481333, 0.14588647, -1.0723937, -0.31081486, 0
891, 3218276152, -0.6258833, -0.24103127, -0.09950641, 0.73508, -1.1723884, -0.1596802, 0.22055912, 0
893, 3218309486, -0.6263058, -0.2403257, -0.09887724, 0.735036, -1.9459778, -2.2313964, 0.53330326, 0
894, 3218326153, -0.6267635, -0.24067175, -0.098661356, 0.7345615, 0.66368186, -2.121645, -0.54103947, 0
895, 3218342820, -0.6269975, -0.24092028, -0.09868361, 0.7342773, 0.60728335, -1.5340772, -0.08304024, 0
897, 3218376154, -0.62677866, -0.2412783, -0.0990128, 0.7343024, -0.6543203, 0.4942856, 1.0705252, 0
898, 3218392821, -0.62651086, -0.24144576, -0.09927662, 0.7344401, 0.085649274, 0.2491746, -0.17271519, 0
899, 3218409488, -0.6259931, -0.24104917, -0.0998082, 0.7349397, 0.3141839, -0.42871222, 0.66442966, 0
901, 3218442822, -0.6252414, -0.23971575, -0.10089672, 0.73586667, -0.16395502, 0.048648734, 0.27619457, 0
903, 3218476156, -0.624305, -0.23752679, -0.10229343, 0.73717725, 1.4525626, 2.0076993, -0.040560722, 0
905, 3218509490, -0.6229027, -0.23449652, -0.1040433, 0.73908645, 1.6971408, 0.57994056, 1.2782812, 0
906, 3218526157, -0.6222813, -0.23303798, -0.104953155, 0.7399419, 1.3835269, 0.07517885, 0.9771986, 0
907, 3218542824, -0.6217117, -0.23154551, -0.10569014, 0.740784, 1.1718854, 1.107827, 0.010422707, 0
909, 3218576158, -0.62078035, -0.2285512, -0.10697198, 0.7423092, 0.8782265, 2.9309747, 0.08783054, 0
910, 3218592825, -0.62034106, -0.22718543, -0.10779478, 0.7429766, 1.2147769, 2.761002, 0.6694279, 0
911, 3218609492, -0.61975825, -0.22609459, -0.1089318, 0.7436296, 0.87235004, 1.5053177, 0.813735, 0
913, 3218642826, -0.61910486, -0.22382303, -0.110765666, 0.7445895, 1.7501689, 2.3948789, -0.38775444, 0
914, 3218659493, -0.61904114, -0.22292197, -0.11159266, 0.7447892, 2.434154, 2.5633533, -0.58516026, 0
915, 3218676160, -0.6191787, -0.221743, -0.11220254, 0.7449352, 2.426775, 3.7062347, -0.1752739, 0
918, 3218726161, -0.6198, -0.2196445, -0.113105625, 0.7449037, 2.146444, 2.0868952, 5.2547455E-4, 0
920, 3218759495, -0.62119144, -0.21980622, -0.111451, 0.7439457, 1.7169601, 0.837281, -0.17960358, 0
921, 3218776162, -0.62206995, -0.22054246, -0.11055951, 0.74312645, 0.5312789, 1.0641217, 1.9048471, 0
922, 3218792829, -0.62260556, -0.22247371, -0.11058763, 0.74209726, 0.54226995, 0.91222745, 2.5301552, 0
924, 3218826163, -0.62186503, -0.22746706, -0.112737775, 0.7408797, 0.80827785, 2.4340465, -1.3738661, 0
925, 3218842830, -0.6220666, -0.22961633, -0.11288513, 0.7400246, 0.7288511, 2.5519047, -2.8668995, 0
926, 3218859497, -0.6229777, -0.23128796, -0.11208601, 0.7388582, -0.3292006, 1.0340347, 0.56457806, 0
928, 3218892831, -0.6245917, -0.23585933, -0.110280015, 0.7363179, 0.41065544, -2.3827398, 1.1462307, 0
929, 3218909498, -0.6248843, -0.23836905, -0.11025313, 0.7352648, 1.0235375, -1.4109936, -1.3452425, 0
930, 3218926165, -0.6251416, -0.24096416, -0.11025558, 0.7341988, -0.11859921, -0.1479563, -3.4826097, 0
933, 3218976166, -0.6272436, -0.24495195, -0.10501779, 0.7318507, 0.029488511, -2.170698, -3.196679, 0
934, 3218992833, -0.62763965, -0.24651079, -0.10294855, 0.7312814, -1.0575068, -3.8461313, -1.017107, 0
936, 3219026167, -0.62840486, -0.24990484, -0.099125095, 0.7299995, -3.5026114, -2.8415182, 2.5933313, 0
937, 3219042834, -0.62820417, -0.2521095, -0.09846685, 0.72950304, -2.8038805, -4.936282, 2.4015217, 0
938, 3219059501, -0.62771034, -0.2532824, -0.09822968, 0.7295537, -0.51453644, -2.5445228, 1.5417376, 0
940, 3219092835, -0.6274386, -0.2553017, -0.09719211, 0.7292228, -0.8954101, -0.7105251, -0.17679119, 0
941, 3219109502, -0.6275065, -0.25708768, -0.09674664, 0.7285956, -0.7028193, -1.1691904, 1.4721823, 0
942, 3219126169, -0.6274953, -0.25968567, -0.096493445, 0.7277169, 0.5542943, -0.37889388, 0.16365719, 0
944, 3219159503, -0.62809384, -0.26651704, -0.09638912, 0.7247386, 0.9030754, -0.72844225, 0.28966045, 0
945, 3219176170, -0.628284, -0.2699292, -0.09712676, 0.7232111, 0.70271826, -0.42053443, -0.31443024, 0
947, 3219209504, -0.6275742, -0.27737978, -0.09824244, 0.7208534, -0.15446869, 0.7730431, 0.82573605, 0
948, 3219226171, -0.627954, -0.28130114, -0.0980786, 0.719023, 0.6353118, -0.2193105, -0.9438257, 0
949, 3219242838, -0.6290003, -0.2853232, -0.09749631, 0.716599, 0.9815377, -1.2169644, 0.648304, 0
951, 3219276172, -0.6309464, -0.29490554, -0.09835828, 0.7108678, 1.1533196, -0.7511225, 0.63309956, 0
952, 3219292839, -0.63074756, -0.3011152, -0.100037105, 0.70820165, 2.4720027, 0.37554133, 0.72211933, 0
953, 3219309506, -0.62886244, -0.3076309, -0.10176771, 0.70683014, 0.75284684, 0.20724067, -0.369771, 0
955, 3219342840, -0.6225649, -0.31601954, -0.1042244, 0.70834446, 1.2187266, 2.1281955, -2.1659799, 0
956, 3219359507, -0.6208985, -0.31691337, -0.103912055, 0.7094528, 0.7196583, -0.42078078, -0.9078741, 0
957, 3219376174, -0.6195606, -0.31580314, -0.103040956, 0.71124226, 0.6924885, -1.5269246, 1.5687141, 0
960, 3219426175, -0.60937905, -0.31490403, -0.107171945, 0.7197755, 1.563797, -0.87963706, -1.7469788, 0
961, 3219442842, -0.6048917, -0.3145394, -0.10968317, 0.72333306, 1.3313059, -1.2986469, -2.28091, 0
963, 3219476176, -0.6006563, -0.30975115, -0.10965015, 0.7289123, -1.2626343, -0.6158797, 1.5738153, 0
964, 3219492843, -0.5988506, -0.30596417, -0.109291084, 0.7320447, -1.09581, 0.4441591, 1.5850468, 0
965, 3219509510, -0.5958785, -0.30330163, -0.11037879, 0.7354073, 0.005193459, -0.8654011, 0.6734934, 0
967, 3219542844, -0.58865047, -0.29790252, -0.11380156, 0.7428756, -0.1699769, -0.7104563, 0.124607086, 0
968, 3219559511, -0.5861217, -0.29803455, -0.11522093, 0.7446012, 0.36564037, -0.2994634, 0.21695614, 0
969, 3219576178, -0.58415836, -0.30186003, -0.11726746, 0.74428356, 0.6992632, -1.0341783, 1.235918, 0
971, 3219609512, -0.5809344, -0.3205373, -0.1238294, 0.73790765, 3.4570282, -0.37713334, 2.2335577, 0
972, 3219626179, -0.57947755, -0.33609244, -0.12815389, 0.7313649, 8.059126, 0.6227746, 5.0866194, 0
975, 3219676180, -0.579283, -0.43716127, -0.119255766, 0.67762023, 4.3642592, -9.512902, 7.7976418, 0
976, 3219692847, -0.57740104, -0.4732571, -0.09672499, 0.65829325, 5.8031206, -7.811657, 5.891552, 0
978, 3219726181, -0.54523635, -0.51853585, -0.09250454, 0.65218943, 3.001399, -41.02807, 9.234455, 0
979, 3219742848, -0.50622016, -0.5107447, -0.1119607, 0.68586874, -3.5581627, -1.4329195, 9.0105915, 0
980, 3219759515, -0.47555506, -0.4951124, -0.14440888, 0.7126902, -4.180814, 5.007173, 5.6455536, 0
982, 3219792849, -0.44952708, -0.47248664, -0.2064133, 0.7294828, -1.1959177, 14.569015, -23.391407, 0
983, 3219809516, -0.44948074, -0.4829462, -0.2202268, 0.7185403, -0.7537447, 13.417434, -18.065063, 0
984, 3219826183, -0.45896906, -0.49372602, -0.22894874, 0.70230675, 2.1904883, 11.711381, -7.259197, 0
986, 3219859517, -0.47378588, -0.5011348, -0.2297228, 0.6867958, 6.1846232, -1.4340472, -0.49703217, 0
987, 3219876184, -0.47279194, -0.49757108, -0.22841857, 0.69049686, 4.5124426, -0.25566506, 2.3655796, 0
990, 3219926185, -0.47056055, -0.45804194, -0.23656559, 0.7161544, 0.49572492, 5.3755126, 1.1094408, 0
991, 3219942852, -0.47147015, -0.44457337, -0.23725206, 0.7237762, 0.54174, 4.844869, -0.8851595, 0
992, 3219959519, -0.47232914, -0.43322212, -0.23523864, 0.73072344, 1.3889774, 4.460886, -1.875092, 0
994, 3219992853, -0.47729725, -0.4130814, -0.22347063, 0.742753, 2.561042, 4.4917912, -1.2554703, 0
995, 3220009520, -0.48142734, -0.4028673, -0.21611822, 0.747856, 3.156, 4.4005795, -0.17524624, 0
996, 3220026187, -0.4854319, -0.39298218, -0.20634843, 0.75326705, 3.6633263, 4.180709, 1.8351908, 0
998, 3220059521, -0.4946375, -0.37126917, -0.17902529, 0.76518834, 1.6449912, 0.78891915, 2.039404, 0
999, 3220076188, -0.4995729, -0.36149365, -0.16104268, 0.7706391, -0.37652993, 0.06620993, 1.7901268, 0
1001, 3220109522, -0.5143682, -0.33994615, -0.1308927, 0.7764016, -3.282024, 1.6695111, 3.0958948, 0
1002, 3220126189, -0.52530456, -0.32948598, -0.11842024, 0.7755908, -3.3011293, 0.41398808, 1.5841093, 0
1005, 3220176190, -0.56362695, -0.3175117, -0.08896651, 0.7574075, -5.5457034, -3.1109495, 0.31474972, 0
1006, 3220192857, -0.57510984, -0.3184021, -0.08262092, 0.7490747, -7.514688, -2.7701476, 1.453083, 0
1007, 3220209524, -0.5877106, -0.31906104, -0.07696311, 0.7395561, -8.651457, -2.437379, 1.3244114, 0
1009, 3220242858, -0.6120113, -0.3183334, -0.06928982, 0.7206767, -7.1619773, -6.577369, -3.858676, 0
1010, 3220259525, -0.61961085, -0.32064658, -0.067945376, 0.71324724, -7.1042876, -6.2679834, -3.9432526, 0
1011, 3220276192, -0.62568825, -0.3237969, -0.070278645, 0.70625836, -7.2396607, -5.736002, -3.8366213, 0
1013, 3220309526, -0.6379297, -0.32850587, -0.08442806, 0.6914273, -7.9225726, -7.647635, -2.8743987, 0
1014, 3220326193, -0.6418035, -0.3289128, -0.097188406, 0.6859514, -7.614357, -9.197852, -5.7423577, 0
1015, 3220342860, -0.6441114, -0.3354875, -0.110542476, 0.6785418, -11.884698, -6.7912, -8.346067, 0
1017, 3220376194, -0.6597818, -0.37430775, -0.14160098, 0.63608235, -16.467451, -15.03545, -6.8670444, 0
1018, 3220392861, -0.6573354, -0.40667805, -0.16349612, 0.61307585, -33.382053, -34.308773, 7.146349, 0
1019, 3220409528, -0.63331604, -0.40979362, -0.20907488, 0.6223646, -5.357634, -52.133774, 26.128395, 0
1021, 3220442862, -0.6092987, -0.39015144, -0.25137204, 0.6429767, -1.7142128, -4.523624, 1.5973978, 0
1022, 3220459529, -0.60227436, -0.38237846, -0.25845465, 0.6514013, 1.8336625, -4.4234715, 1.211813, 0
1024, 3220492863, -0.59469044, -0.3831619, -0.2713182, 0.6526766, 3.1629822, 4.6911907, 0.087739944, 0
1025, 3220509530, -0.5822196, -0.40085262, -0.29349902, 0.64363503, 3.656034, 5.9460573, -0.8846674, 0
1026, 3220526197, -0.5606434, -0.43519932, -0.33034453, 0.62227243, 3.6321676, 6.947503, -1.7603998, 0
1028, 3220559531, -0.47103363, -0.5478247, -0.43837646, 0.53470707, 8.674617, 4.1709313, 7.870672, 0
1029, 3220576198, -0.4092982, -0.61679286, -0.46740225, 0.48337027, 9.842666, 5.5112066, 18.822456, 0
1032, 3220626199, -0.24622925, -0.74849045, -0.48198128, 0.38327196, -1.1663407, 41.263287, 24.143932, 0
1033, 3220642866, -0.24318796, -0.7598906, -0.489023, 0.35263652, 8.480836, -14.915009, 7.0996246, 0
1034, 3220659533, -0.20234255, -0.7777829, -0.49182063, 0.33510312, 9.699881, 11.084569, 5.196478, 0
1036, 3220692867, -0.15261531, -0.79356843, -0.5064318, 0.30092326, 17.61375, 7.643367, -6.2950253, 0
1037, 3220709534, -0.12522376, -0.79448426, -0.5177271, 0.29179192, 16.687065, 8.976031, -14.617905, 0
1038, 3220726201, -0.10420681, -0.7913063, -0.5311267, 0.2845166, 14.223005, 9.779336, -22.55001, 0
1040, 3220759535, -0.086970545, -0.77927375, -0.5474553, 0.29245758, 13.547171, 7.0336614, -19.689693, 0
1041, 3220776202, -0.08744574, -0.77006674, -0.55033386, 0.31073025, 10.779621, 8.680515, -15.162102, 0
1042, 3220792869, -0.09395678, -0.7586183, -0.551515, 0.33402357, 7.0940638, 7.6012526, -11.031754, 0
1044, 3220826203, -0.12065075, -0.7287301, -0.5612657, 0.37342545, 2.8597164, 7.2331867, -8.753862, 0
1046, 3220859537, -0.1582565, -0.6970874, -0.57666034, 0.39567286, 3.6460292, 4.8208156, -7.479131, 0
1048, 3220892871, -0.19397593, -0.6720654, -0.57650137, 0.4223954, 2.2264838, 6.896563, -6.06621, 0
1049, 3220909538, -0.21464342, -0.66067624, -0.57265455, 0.43539885, 0.7306011, 7.9635205, -5.078126, 0
1050, 3220926205, -0.23823792, -0.6477222, -0.5702157, 0.44567117, 0.094307266, 7.5814457, -3.9026976, 0
1052, 3220959539, -0.28624275, -0.6168606, -0.56682616, 0.465109, 0.3517526, 3.8346946, -1.4422693, 0
1053, 3220976206, -0.30670875, -0.60328966, -0.55810547, 0.48016638, 0.40593126, 4.725232, 0.7349539, 0
1055, 3221009540, -0.34699064, -0.57954776, -0.5290534, 0.5137066, -0.9638379, 3.1955907, 0.90274715, 0
1056, 3221026207, -0.36653763, -0.5704921, -0.5092181, 0.5300526, 0.616379, 2.6102376, 1.7882938, 0
1057, 3221042874, -0.38588876, -0.5614379, -0.4860279, 0.5474707, 1.1074164, 2.0992668, 2.6806488, 0
1059, 3221076208, -0.42154777, -0.5404626, -0.44000936, 0.58022374, 0.292367, -1.0847119, 1.8623924, 0
1061, 3221109542, -0.4503582, -0.51543444, -0.3968992, 0.6115932, 1.4672834, 0.0013805566, 3.4566793, 0
1063, 3221142876, -0.47798792, -0.4881895, -0.34747183, 0.6422865, 2.264276, -1.1955446, 3.9442253, 0
1064, 3221159543, -0.49166203, -0.47468454, -0.31824237, 0.6570654, 2.0783253, -2.4402301, 5.669689, 0
1065, 3221176210, -0.50499016, -0.4603372, -0.28958067, 0.6702895, 0.49822915, -4.422834, 4.766364, 0
1067, 3221209544, -0.5284395, -0.4321008, -0.2449231, 0.688566, -0.66695285, -5.9323196, 3.2420607, 0
1068, 3221226211, -0.5378216, -0.4191241, -0.22650078, 0.69559354, -0.024231039, -6.017929, 4.363557, 0
1069, 3221242878, -0.54579175, -0.40651602, -0.20526975, 0.7034136, 0.22515175, -6.603586, 5.4760427, 0
1071, 3221276212, -0.556723, -0.3833691, -0.16059208, 0.7192829, -1.1746875, -5.7061334, 2.5437403, 0
1072, 3221292879, -0.56199634, -0.3735152, -0.14126071, 0.72440463, -1.4339787, -5.06545, 1.7624178, 0
1073, 3221309546, -0.567819, -0.3659609, -0.12360482, 0.72694314, -1.572976, -4.809548, 0.29836464, 0
1076, 3221359547, -0.5938579, -0.34423238, -0.07875189, 0.7229835, -4.4195824, -3.7595983, 4.3926744, 0
1077, 3221376214, -0.6055305, -0.32945007, -0.071686625, 0.72092074, -2.8446314, -5.9524364, -0.4215231, 0
1079, 3221409548, -0.6237949, -0.30753464, -0.05945435, 0.71612686, -1.9091132, -7.073326, -1.8857179, 0
1080, 3221426215, -0.6294776, -0.30116025, -0.05460423, 0.7142469, -2.0729568, -6.8918123, -2.3775768, 0
1082, 3221459549, -0.63658, -0.28648213, -0.047065333, 0.71452695, -4.2944794, -6.6470747, 0.31528568, 0
1083, 3221476216, -0.6389344, -0.27866364, -0.044301577, 0.71569335, -3.7463524, -5.904304, -2.8584018, 0
1084, 3221492883, -0.6406871, -0.27393013, -0.043198433, 0.71602106, -3.6793966, -5.058871, -3.8189788, 0
1086, 3221526217, -0.64434016, -0.272171, -0.046358112, 0.71321076, -2.3090117, -4.8256435, -3.7332406, 0
1087, 3221542884, -0.64592326, -0.27310693, -0.04805058, 0.71130663, -2.919533, -5.9792786, 0.14870644, 0
1088, 3221559551, -0.6475499, -0.27055448, -0.04815348, 0.7107959, -2.447946, -5.57111, 0.44673347, 0
1090, 3221592885, -0.6466439, -0.2654715, -0.048482686, 0.7135096, -1.9527137, -5.7894845, -3.1774402, 0
1091, 3221609552, -0.6434499, -0.26628557, -0.048444387, 0.7160918, -3.0932248, -5.6445556, -2.9712315, 0
1092, 3221626219, -0.63875794, -0.26920307, -0.046960462, 0.71929324, -4.3093557, -6.15817, -2.5148501, 0
1094, 3221659553, -0.6270459, -0.28168678, -0.034364615, 0.72550327, -6.6544824, -4.575063, -3.06102, 0
1095, 3221676220, -0.62260807, -0.28941166, -0.025728188, 0.7266418, -7.652891, -3.485322, -2.0498443, 0
1096, 3221692887, -0.6206144, -0.29588568, -0.018336222, 0.7259638, -9.169613, -2.8540719, -1.6023388, 0
1098, 3221726221, -0.62579685, -0.30716732, -0.014771357, 0.71685314, -12.518217, -2.691935, -3.8834114, 0
1099, 3221742888, -0.6338264, -0.31302765, -0.021407776, 0.70702875, -14.239926, -2.1416109, -5.847718, 0
1100, 3221759555, -0.6434319, -0.32199407, -0.035493635, 0.6936322, -14.279203, -5.9230695, -8.375577, 0
1103, 3221809556, -0.64585185, -0.4004195, -0.0780285, 0.64538455, -19.115505, -19.338007, -1.728713, 0
1104, 3221826223, -0.6369513, -0.40570974, -0.12172771, 0.64416236, -18.062365, -23.149628, 38.792526, 0
1106, 3221859557, -0.6210366, -0.36885265, -0.19272932, 0.66421884, 6.780846, -2.4075162, 9.232349, 0
1107, 3221876224, -0.61221117, -0.36828685, -0.20832203, 0.66800773, 7.2765384, -2.2325847, -0.025755882, 0
1109, 3221909558, -0.59938717, -0.39880657, -0.24160486, 0.6506807, -0.20515604, 2.2181315, -0.22355843, 0
1110, 3221926225, -0.58704746, -0.42483917, -0.26549768, 0.635978, 0.4534374, 3.531125, -0.6603861, 0
1111, 3221942892, -0.56779855, -0.46288556, -0.2976278, 0.6122332, 3.1375723, 3.2131498, -1.3635473, 0
1113, 3221976226, -0.5005276, -0.5718156, -0.38103938, 0.52666664, 5.2252536, 2.661514, 2.073124, 0
1114, 3221992893, -0.4538716, -0.6333489, -0.41569155, 0.46919098, 8.353289, 3.5339458, 7.3030148, 0
1115, 3222009560, -0.4005826, -0.6933268, -0.43770385, 0.40904397, 12.401421, 9.323421, 16.513498, 0
1118, 3222059561, -0.2607981, -0.77537364, -0.48349318, 0.3115838, -10.567076, 44.005497, 19.803528, 0
1119, 3222076228, -0.2697148, -0.7788791, -0.4913181, 0.28156334, 7.3114057, -1.121986, 3.8820467, 0
1121, 3222109562, -0.20514998, -0.79761446, -0.50333, 0.2616365, 8.616194, 24.256653, -1.4644527, 0
1122, 3222126229, -0.18689997, -0.7992317, -0.51314586, 0.25109452, 13.636572, 10.90938, -4.643758, 0
1123, 3222142896, -0.16346619, -0.79863656, -0.52386934, 0.24716304, 14.777646, 10.627149, -8.106164, 0
1125, 3222176230, -0.13485418, -0.7901205, -0.5468575, 0.24195217, 6.7567115, 12.368631, -13.177517, 0
1126, 3222192897, -0.13073863, -0.7858092, -0.55480003, 0.24016306, 6.3641014, 7.540959, -11.896663, 0
1127, 3222209564, -0.12596887, -0.7831081, -0.55783993, 0.24445458, 6.8364205, 5.7279205, -9.600996, 0
1129, 3222242898, -0.11440151, -0.7789416, -0.5546785, 0.26937732, 4.3960686, 3.4904535, -10.695537, 0
1130, 3222259565, -0.11403011, -0.7751499, -0.55366564, 0.28224865, 3.5301378, 4.843013, -11.397307, 0
1133, 3222309566, -0.1542939, -0.7528264, -0.55406594, 0.32019812, 4.8057256, 3.5677464, -5.7266645, 0
1134, 3222326233, -0.17400901, -0.7424799, -0.5517261, 0.33780608, 3.4205148, 2.3339598, -2.7086344, 0
1136, 3222359567, -0.20763865, -0.71675897, -0.5529234, 0.3707947, 1.0687587, -1.3220909, -0.36989307, 0
1137, 3222376234, -0.2176458, -0.7057353, -0.55202025, 0.38718444, 0.3797912, -1.1345019, -0.34426498, 0
1138, 3222392901, -0.22573319, -0.6971131, -0.5487778, 0.4024809, -0.4879565, 1.2829514, -0.66481876, 0
1140, 3222426235, -0.25416267, -0.6815692, -0.5368103, 0.4275157, -0.31533208, 4.3478074, 1.8075962, 0
1141, 3222442902, -0.2745522, -0.6724322, -0.5304705, 0.43718123, -1.4939468, 0.0056834873, 1.782917, 0
1142, 3222459569, -0.29135144, -0.66293275, -0.525597, 0.4466011, -0.98914564, -4.2251287, 1.8157148, 0
1144, 3222492903, -0.30298132, -0.6495797, -0.51152873, 0.47397992, -0.1276373, -3.55216, 0.48255157, 0
1145, 3222509570, -0.3044139, -0.64520955, -0.49988502, 0.49114373, -1.1489431, -0.48684743, -0.09006405, 0
1148, 3222559571, -0.33306217, -0.6067733, -0.53505325, 0.4844421, 18.347769, -17.920221, 23.097168, 0
1149, 3222576238, -0.3351078, -0.60733485, -0.50145733, 0.5171631, 12.6370325, -7.1163197, 6.7306805, 0
1150, 3222592905, -0.3306995, -0.61227155, -0.4604932, 0.55116004, -14.28823, 4.420937, -10.181279, 0
1152, 3222626239, -0.3461511, -0.59570146, -0.47015864, 0.5516703, 3.2120528, -1.9191753, 1.279479, 0
1153, 3222642906, -0.35458553, -0.59052455, -0.46396473, 0.55709666, 4.196958, -4.836275, -0.67447376, 0
1154, 3222659573, -0.356116, -0.5793606, -0.46578008, 0.5662523, 5.6483316, -4.337195, 1.8020668, 0
1156, 3222692907, -0.34798715, -0.54479975, -0.47053385, 0.6006382, 1.2063383, -0.35964286, 1.2159281, 0
1157, 3222709574, -0.347279, -0.5275225, -0.4739015, 0.6136814, -3.7070913, 2.5499983, -1.8056154, 0
1158, 3222726241, -0.35012323, -0.51502794, -0.4763897, 0.62071145, -4.5220566, 1.6232188, -2.7728887, 0
1160, 3222759575, -0.3614623, -0.50779456, -0.46530655, 0.6285298, -4.0890646, 5.4763937, -2.2954574, 0
1161, 3222776242, -0.37191087, -0.50594497, -0.4572804, 0.62981486, -2.4251792, 5.2810717, -2.3804169, 0
1163, 3222809576, -0.39227024, -0.4991117, -0.4396218, 0.63546383, 0.75028336, 0.81700444, -1.3790998, 0
1164, 3222826243, -0.40079853, -0.49476945, -0.42942053, 0.64049345, 0.549208, 1.0597111, -2.0036287, 0
1165, 3222842910, -0.4090038, -0.4900417, -0.41852587, 0.6461279, 0.72590905, 1.2886118, -2.080728, 0
1167, 3222876244, -0.4265079, -0.47713426, -0.39201146, 0.66093194, 1.767953, 2.4118443, -0.9240589, 0
1168, 3222892911, -0.43489203, -0.46677858, -0.37998384, 0.6698275, 1.5448757, 2.4314754, -1.294075, 0
1169, 3222909578, -0.44268876, -0.45411703, -0.36952427, 0.67921, 1.3938724, 2.3385568, -1.0273304, 0
1171, 3222942912, -0.4608233, -0.4279927, -0.34693795, 0.6958221, -0.20859616, 4.319572, -0.49128342, 0
1172, 3222959579, -0.47389504, -0.41461724, -0.33456063, 0.70118135, -0.2782057, 4.530648, 0.07117367, 0
1175, 3223009580, -0.5111799, -0.37568206, -0.28124982, 0.7200882, -0.4840857, 0.59333616, 3.9316988, 0
1176, 3223026247, -0.5187921, -0.3609164, -0.2651629, 0.7282534, -1.9010376, 0.6385483, 3.5956068, 0
1177, 3223042914, -0.52543473, -0.34745696, -0.24970627, 0.735465, -2.9243648, 0.70787203, 2.8315105, 0
1179, 3223076248, -0.54403436, -0.32517964, -0.2156283, 0.7428725, -4.494624, 2.2308514, 4.6151943, 0
1180, 3223092915, -0.55809987, -0.31355053, -0.1975533, 0.7424643, -3.3505821, 0.4909476, 3.2300797, 0
1181, 3223109582, -0.5734879, -0.3029878, -0.17916758, 0.7397831, -1.7512686, -2.1931806, 2.8947697, 0
1183, 3223142916, -0.6007968, -0.28273997, -0.14480953, 0.7336223, -1.3558468, -5.295307, 2.647622, 0
1184, 3223159583, -0.6100622, -0.2740732, -0.12808295, 0.7323748, -1.403165, -6.872267, 2.072421, 0
1185, 3223176250, -0.6164984, -0.26699007, -0.11048385, 0.732468, -2.3269088, -6.21212, 0.96767235, 0
1187, 3223209584, -0.6255226, -0.25202045, -0.08048324, 0.73402977, -4.1475224, -4.983182, 0.106087685, 0
1190, 3223259585, -0.6383208, -0.24106091, -0.051053263, 0.7293147, -4.352914, -6.0836697, -3.4183187, 0
1191, 3223276252, -0.6417491, -0.24399966, -0.042366065, 0.72587717, -5.1480126, -6.813316, -2.8105006, 0
1192, 3223292919, -0.64514947, -0.24743673, -0.034706123, 0.7220961, -5.3924046, -6.43397, -3.9418025, 0
1194, 3223326253, -0.65060717, -0.25679624, -0.031186938, 0.7140473, -6.9949875, -7.533464, -6.1974773, 0
1195, 3223342920, -0.651958, -0.26418453, -0.034730524, 0.7099444, -7.1923385, -8.363343, -6.9587946, 0
1196, 3223359587, -0.6528237, -0.27522296, -0.038473308, 0.7047436, -7.157673, -9.090962, -6.3222466, 0
1198, 3223392921, -0.656559, -0.3042921, -0.038930465, 0.68912363, -7.737236, -9.200396, -2.961979, 0
1199, 3223409588, -0.65986574, -0.3160082, -0.039230116, 0.6806226, -9.3461075, -8.651654, -1.7103081, 0
1200, 3223426255, -0.66233814, -0.3206022, -0.047581058, 0.6755209, -10.491437, -9.379565, -1.4761724, 0
1202, 3223459589, -0.66197467, -0.3207583, -0.07148862, 0.67369384, -11.8510275, -9.052656, -2.8759122, 0
1204, 3223492923, -0.6511843, -0.35053656, -0.09875891, 0.6658827, -13.9863405, -15.494407, -6.8702517, 0
1206, 3223526257, -0.615716, -0.35143405, -0.15904838, 0.68714017, 2.6984665, -30.045889, 22.41787, 0
1207, 3223542924, -0.6064292, -0.33725163, -0.17825875, 0.6977098, 15.611691, 1.0928112, 7.181814, 0
1208, 3223559591, -0.5986718, -0.3380991, -0.19677344, 0.6990217, 5.699585, -1.5297258, -0.10229969, 0
1210, 3223592925, -0.58533967, -0.3682802, -0.23583198, 0.68278867, -1.4607095, 3.7552636, -0.14199352, 0
1211, 3223609592, -0.57382417, -0.39442098, -0.2642414, 0.6673865, 3.1641314, 4.198458, -0.9172163, 0
1212, 3223626259, -0.55367804, -0.4369229, -0.30411994, 0.64040625, 2.8998733, 5.7149234, -1.3316917, 0
1214, 3223659593, -0.47100174, -0.5606753, -0.41062087, 0.5433793, 9.929635, 5.083323, 10.726751, 0
1215, 3223676260, -0.41737223, -0.6211106, -0.4511966, 0.48632702, 12.669622, 9.719983, 19.09565, 0
1217, 3223709594, -0.29589954, -0.7127358, -0.49943954, 0.39380372, -7.5505323, 27.489262, 23.137318, 0
1219, 3223742928, -0.28806436, -0.72853726, -0.5673442, 0.25385588, 30.58548, 16.13138, 0.56103706, 0
1221, 3223776262, -0.2074177, -0.74757415, -0.56949764, 0.27175924, 12.515444, 22.779228, -7.1985464, 0
1222, 3223792929, -0.18076792, -0.7466081, -0.5746535, 0.2823877, 10.294438, 28.549284, -13.26241, 0
1223, 3223809596, -0.1779986, -0.73809487, -0.58292615, 0.28948173, 12.554717, 21.21563, -13.90905, 0
1225, 3223842930, -0.19929184, -0.7039913, -0.5966515, 0.3297819, 11.590901, 12.730706, -11.926775, 0
1226, 3223859597, -0.21162891, -0.6816216, -0.59922373, 0.36277574, 5.86366, 9.68704, -12.081559, 0
1227, 3223876264, -0.22162014, -0.66079783, -0.59718955, 0.3970713, 1.1865022, 7.888196, -12.788759, 0
1229, 3223909598, -0.25511223, -0.63371205, -0.56905186, 0.45779565, 0.93463886, 12.247771, -9.863456, 0
1230, 3223926265, -0.28688008, -0.62129986, -0.54717124, 0.48203743, 0.6609001, 9.714616, -7.5931025, 0
1231, 3223942932, -0.32081366, -0.603431, -0.53136015, 0.5006758, 2.4473283, -0.0034989836, -5.2054706, 0
1233, 3223976266, -0.35901856, -0.57062244, -0.48996696, 0.55271894, 2.5401661, -4.980578, -0.57378006, 0
1234, 3223992933, -0.36868566, -0.55635744, -0.46864182, 0.5787764, -0.4507085, -3.3317325, -2.466838, 0
1235, 3224009600, -0.37781447, -0.5467048, -0.4438326, 0.6012094, -0.16410455, -1.6240609, -0.43231297, 0
1237, 3224042934, -0.3998786, -0.5325332, -0.39131767, 0.6351742, -3.7206795, -5.1738687, 2.9760714, 0
1238, 3224059601, -0.40687585, -0.5244672, -0.37116474, 0.649379, -7.245372, -5.6302032, 3.7599688, 0
1239, 3224076268, -0.41148973, -0.5198365, -0.35283616, 0.6603203, -10.052231, -4.739175, 1.4142408, 0
1241, 3224109602, -0.42596507, -0.5357785, -0.30359387, 0.6628696, -8.433189, -6.8583655, -3.0939116, 0
1242, 3224126269, -0.4338436, -0.55309415, -0.27746022, 0.65494466, -4.533384, -9.293932, -2.9229689, 0
1244, 3224159603, -0.46075833, -0.55631304, -0.26946214, 0.6369284, 12.436065, -32.85659, 3.4486628, 0
1246, 3224192937, -0.43468177, -0.55484694, -0.22404711, 0.6731045, -3.881717, 5.9875364, 1.4089069, 0
1248, 3224226271, -0.44167423, -0.5368096, -0.2088934, 0.6878902, -2.2703173, -4.6731286, -4.998413, 0
1249, 3224242938, -0.44294852, -0.53933007, -0.19505665, 0.68916094, -3.5761094, -3.760162, -5.8178506, 0
1250, 3224259605, -0.44115013, -0.54836667, -0.18493296, 0.68596673, -3.739192, 0.5130556, -1.6808481, 0
1252, 3224292939, -0.45675397, -0.5467157, -0.16075864, 0.6831578, -1.520834, 1.3691639, 12.967199, 0
1253, 3224309606, -0.46520054, -0.5275527, -0.16064785, 0.69248766, -2.0989397, -16.949123, 2.2405062, 0
1254, 3224326273, -0.46171072, -0.5194269, -0.14828259, 0.7036343, -8.415134, -8.144374, -1.7129974, 0
1256, 3224359607, -0.4579376, -0.5075298, -0.12870333, 0.7184791, -3.1611495, -4.4092784, 6.296274, 0
1257, 3224376274, -0.45865518, -0.4956631, -0.11628042, 0.728356, -0.88458425, 2.0726945, 6.955471, 0
1258, 3224392941, -0.46305335, -0.47844845, -0.10794927, 0.7382993, -0.86796874, 5.116072, 0.95909595, 0
1261, 3224442942, -0.4572972, -0.4591669, -0.078678586, 0.7575783, 1.244892, 4.286993, -5.069671, 0
1262, 3224459609, -0.45803422, -0.45866913, -0.088374615, 0.7563646, -1.180158, 12.511607, -11.984735, 0
1264, 3224492943, -0.4826951, -0.47612652, -0.0881958, 0.729795, -2.8884687, -11.095833, 11.4061985, 0
1265, 3224509610, -0.486006, -0.47382456, -0.079606995, 0.730083, -3.9946375, 2.3857224, 5.645859, 0
1266, 3224526277, -0.49480093, -0.46141636, -0.090182625, 0.7308928, -5.661055, 0.26800528, 5.6166162, 0
1268, 3224559611, -0.50264174, -0.4419148, -0.091728136, 0.7373727, 0.7403449, 3.2549977, -2.2020268, 0
1269, 3224576278, -0.5032509, -0.42971098, -0.09450267, 0.74379176, 3.6705477, 3.0825355, -2.3751044, 0
1271, 3224609612, -0.51264596, -0.40590093, -0.09972991, 0.7500418, -0.4557798, 2.0102549, 0.15818405, 0
1272, 3224626279, -0.52680045, -0.39430124, -0.10492617, 0.7456998, 2.7107894, -1.3303851, -4.190349, 0
1273, 3224642946, -0.5334473, -0.3872362, -0.106113866, 0.744508, 2.4622478, 2.347333, 1.3970089, 0
1276, 3224692947, -0.5432395, -0.36675298, -0.12431164, 0.74498284, -2.0499423, -1.2667825, 3.2938423, 0
1277, 3224709614, -0.54424834, -0.3585212, -0.13061157, 0.74717265, -2.7646356, -2.2532477, 1.4713516, 0
1279, 3224742948, -0.54743683, -0.34123147, -0.13538477, 0.7520738, 2.5072467, -1.0981416, -3.342967, 0
1280, 3224759615, -0.54917073, -0.33754468, -0.1341226, 0.75269943, 2.5803113, -1.4085183, 0.7292156, 0
1281, 3224776282, -0.5513513, -0.33472925, -0.13194577, 0.75274736, 1.3938708, -0.490256, 1.7366819, 0
1283, 3224809616, -0.5541655, -0.33500236, -0.13042858, 0.75082123, -3.2365458, -1.6075225, 2.890874, 0
1284, 3224826283, -0.5551981, -0.3349211, -0.12972143, 0.7502168, -2.258811, -0.101716384, 2.4803267, 0
1285, 3224842950, -0.55592465, -0.33394194, -0.1293082, 0.75018656, 9.6714054E-4, 0.3590547, -1.047349, 0
1287, 3224876284, -0.555856, -0.3346789, -0.12952001, 0.74987245, 2.4526763, -2.5350199, -1.1560011, 0
1288, 3224892951, -0.55477774, -0.3355397, -0.13028836, 0.75015324, 0.16066827, -1.9499371, 0.9803457, 0
1291, 3224942952, -0.5529825, -0.33757427, -0.13072309, 0.7504901, 0.31232157, -0.4642719, 0.7809019, 0
1292, 3224959619, -0.5522303, -0.3367295, -0.13069066, 0.7514286, -0.22885424, -1.164112, 1.6284618, 0
1293, 3224976286, -0.5521002, -0.33577314, -0.1309522, 0.7519065, 0.08124204, -0.5483784, -0.038015366, 0
1295, 3225009620, -0.5519115, -0.3342509, -0.13040085, 0.75281847, 1.8829288, 0.56648505, -2.3637218, 0
1296, 3225026287, -0.5516988, -0.33495465, -0.12982818, 0.7527607, 1.3770628, 1.4731296, -2.8359928, 0
1298, 3225059621, -0.55221957, -0.3336882, -0.1284248, 0.753182, -1.4054008, -1.4547423, 1.474206, 0
1299, 3225076288, -0.5522607, -0.33117056, -0.12840874, 0.7542649, -2.5317678, -1.8259265, 2.1412077, 0
1300, 3225092955, -0.551759, -0.32832533, -0.1286159, 0.7558391, -0.94638157, -0.22737846, 1.164197, 0
1302, 3225126289, -0.5494869, -0.32407728, -0.13023645, 0.7590435, 1.6854117, -0.14463651, 0.12337971, 0
1303, 3225142956, -0.54938674, -0.3213199, -0.13022043, 0.76028967, 0.46644092, -0.17030638, -0.0071439743, 0
1304, 3225159623, -0.5493911, -0.31937855, -0.12983952, 0.76116925, -0.1383248, -0.5707989, -0.32066345, 0
1306, 3225192957, -0.5485793, -0.3207686, -0.12988596, 0.7611622, 0.67787945, -0.42432845, 0.13632011, 0
1307, 3225209624, -0.54827464, -0.32250968, -0.12994768, 0.7606354, 1.2420319, 0.7128072, 1.3744755, 0
1308, 3225226291, -0.5481863, -0.32315043, -0.12998915, 0.76042, 0.840145, 1.6998358, 0.3375225, 0
1310, 3225259625, -0.5480368, -0.32232282, -0.12976903, 0.7609164, -0.43242717, 0.87245005, 2.0535564, 0
1311, 3225276292, -0.54772395, -0.32072535, -0.12984194, 0.7618037, -0.111822635, 0.7448684, 0.38281536, 0
1312, 3225292959, -0.5472189, -0.32105014, -0.13008332, 0.76198864, 1.5620506, 0.5696513, -2.2333875, 0
1314, 3225326293, -0.546249, -0.3213038, -0.13009888, 0.7625748, 2.446448, 2.1577506, -0.20824337, 0
1315, 3225342960, -0.5448794, -0.32246813, -0.13090421, 0.7629252, 0.13372959, 0.060077462, -1.2661915, 0
1318, 3225392961, -0.54205966, -0.32217583, -0.13066736, 0.7650949, 1.9335592, 0.82314444, 0.58866405, 0
1319, 3225409628, -0.5406202, -0.32356125, -0.12987931, 0.7656627, 3.6432018, 2.1655471, -1.4422426, 0
1320, 3225426295, -0.54011923, -0.3246081, -0.128551, 0.76579744, 2.0512333, 0.6636986, -1.0287046, 0
1322, 3225459629, -0.54112476, -0.32553673, -0.123134516, 0.7655834, 0.57653046, 0.49110955, 1.6126547, 0
1323, 3225476296, -0.5412761, -0.32607937, -0.12113218, 0.7655648, 1.2836698, 2.1932583, 1.8924208, 0
1325, 3225509630, -0.53510296, -0.34090734, -0.119299576, 0.76373076, 2.0702374, -0.22825623, -0.3283453, 0
1326, 3225526297, -0.5297235, -0.34942695, -0.12191633, 0.763217, 3.2973137, -1.5361273, -1.0838242, 0
1327, 3225542964, -0.5227367, -0.3562595, -0.12065147, 0.7650744, -0.50597525, -1.6831576, 0.35066128, 0
1329, 3225576298, -0.51255906, -0.3590127, -0.113427736, 0.7717496, -1.6957079, -2.521624, -3.195137, 0
1330, 3225592965, -0.50982547, -0.3558564, -0.109271, 0.7756121, 0.9359777, -4.0603046, -3.2641149, 0
1333, 3225642966, -0.51213723, -0.31848803, -0.081486695, 0.7935432, -1.0999439, -1.0448784, 0.62948036, 0
1334, 3225659633, -0.5128491, -0.30145004, -0.07317571, 0.80051804, -1.565445, 1.5265735, 3.6197252, 0
1335, 3225676300, -0.5121861, -0.28988263, -0.068056375, 0.80564994, -0.76020867, -0.28039762, 3.417924, 0
1337, 3225709634, -0.51034594, -0.2838893, -0.06539056, 0.8091649, 0.95176107, -4.614688, 2.8069057, 0
1338, 3225726301, -0.5099323, -0.2830075, -0.06517959, 0.8097516, 0.74753034, -3.5498347, 0.520854, 0
1339, 3225742968, -0.5098344, -0.28250548, -0.06507081, 0.8099973, -0.30121052, -0.06983313, -0.989378, 0
1341, 3225776302, -0.5094979, -0.2827368, -0.06393789, 0.81021845, -0.7944565, -1.3863138, 1.4838228, 0
1342, 3225792969, -0.5090104, -0.28344667, -0.06347974, 0.81031275, -0.9193946, -2.7238982, 0.3645916, 0
1343, 3225809636, -0.50879204, -0.28376564, -0.0631922, 0.81036085, -0.16610432, -2.2521312, 0.60405064, 0
1345, 3225842970, -0.508072, -0.28133366, -0.062480316, 0.8117146, -1.5468305, -0.488571, -0.7415533, 0
1347, 3225876304, -0.50728106, -0.27768356, -0.061700195, 0.81352377, -0.43292737, -0.56836295, 2.1856966, 0
1349, 3225909638, -0.5068507, -0.2741089, -0.061068326, 0.8150506, 0.022634245, -2.2775958, -0.75441647, 0
1350, 3225926305, -0.50700736, -0.2723957, -0.060852088, 0.8155435, -0.16672368, -0.6096851, -1.6107225, 0
1352, 3225959639, -0.50769913, -0.26791897, -0.060235135, 0.81664115, -0.06381004, 1.1457493, 0.8473244, 0
1353, 3225976306, -0.50805664, -0.26585683, -0.05998791, 0.8171109, -0.09106991, -0.25386396, -0.35076523, 0
1354, 3225992973, -0.5087156, -0.26408565, -0.059814867, 0.81728786, -0.6485224, -0.13697293, 0.8783026, 0
1356, 3226026307, -0.50992537, -0.26101077, -0.06028932, 0.8174868, -1.0521117, 0.049243145, 0.5153818, 0
1357, 3226042974, -0.5101916, -0.259434, -0.060921133, 0.81777585, -0.21513301, 0.11866504, -0.09860611, 0
1358, 3226059641, -0.51055175, -0.25750366, -0.061416157, 0.8181241, -0.69346416, -0.9680764, 1.6294365, 0
1360, 3226092975, -0.51230824, -0.25593, -0.061929803, 0.8174808, -0.6016676, -1.3704127, 1.3213453, 0
1362, 3226126309, -0.5141531, -0.25575042, -0.062274292, 0.8163518, -0.8011527, -0.08317204, -0.4750538, 0
1364, 3226159643, -0.51637805, -0.25647217, -0.062253013, 0.814721, 0.4591166, 0.22576652, 0.4781456, 0
1365, 3226176310, -0.51728594, -0.2576668, -0.0622813, 0.81376547, -0.024619728, -0.74635345, -0.20313072, 0
1366, 3226192977, -0.51846635, -0.25851464, -0.062198978, 0.81275105, -0.05662209, 0.5643084, 0.5450783, 0
1368, 3226226311, -0.52071756, -0.2606309, -0.06170097, 0.81067127, -0.026350837, 0.56503755, -0.6069126, 0
1369, 3226242978, -0.5214733, -0.26158613, -0.061395936, 0.8099006, 0.65963, 0.19915646, 0.023461342, 0
1370, 3226259645, -0.5222876, -0.2626304, -0.06094765, 0.8090713, 0.54228467, 0.047098875, 0.14566517, 0
1372, 3226292979, -0.5240706, -0.265078, -0.060240872, 0.8071709, -0.3747463, -0.7068327, 1.9702654, 0
1373, 3226309646, -0.52442527, -0.2659339, -0.059812136, 0.8066909, 0.44073865, 0.04645491, 0.3637886, 0
1375, 3226342980, -0.5250818, -0.26762187, -0.058528487, 0.805799, 1.4742032, -0.07639047, 0.30016136, 0
1376, 3226359647, -0.5248816, -0.26890558, -0.058285743, 0.8055197, 0.7906893, -0.9291824, -0.81774616, 0
1377, 3226376314, -0.5246131, -0.26950282, -0.05792845, 0.8055209, 0.23931845, -0.18107435, 1.1526995, 0
1379, 3226409648, -0.5238356, -0.27053753, -0.05704252, 0.805743, 0.8301509, 0.18441361, -0.6890297, 0
1380, 3226426315, -0.52287024, -0.2712213, -0.056703787, 0.80616397, 0.8049663, -0.3279443, 0.53056145, 0
1381, 3226442982, -0.5220276, -0.27056822, -0.055955943, 0.80698144, 1.1545459, 0.27139723, 1.0127468, 0
1383, 3226476316, -0.5205994, -0.26903757, -0.054602366, 0.8085071, 0.15411934, -0.32522652, 1.0450563, 0
1384, 3226492983, -0.51976055, -0.26872852, -0.054045863, 0.8091867, 0.4766785, -0.639874, -0.17085457, 0
1385, 3226509650, -0.5190508, -0.26854023, -0.053388003, 0.8097484, 0.19922939, -0.5253427, 1.1921892, 0
1387, 3226542984, -0.51751864, -0.26749715, -0.052873902, 0.81110674, -0.53112465, 0.27756208, 0.6078062, 0
1389, 3226576318, -0.5164276, -0.26748702, -0.052671652, 0.8118185, -0.27412298, 0.19614922, 0.48548126, 0
1391, 3226609652, -0.5153958, -0.267557, -0.052898917, 0.812436, 0.38499302, -0.62954867, 0.110131264, 0
1392, 3226626319, -0.5148333, -0.2679341, -0.052905098, 0.8126679, -0.23441547, -0.53557307, 0.57899475, 0
1393, 3226642986, -0.5143617, -0.26909807, -0.05294099, 0.8125796, 0.18597619, -1.155595, -0.44410515, 0
1395, 3226676320, -0.513716, -0.2714736, -0.05270293, 0.81221324, 0.04063443, -1.1034995, 0.29478168, 0
1396, 3226692987, -0.5135582, -0.27311382, -0.052543484, 0.81177354, -0.3859313, -0.54781294, 0.44357014, 0
1397, 3226709654, -0.51367295, -0.27427933, -0.052120414, 0.81133515, 0.1795517, -0.3749014, -0.06495285, 0
1399, 3226742988, -0.51302844, -0.2772985, -0.051101558, 0.810781, 0.15785939, -0.9197658, 0.42902565, 0
1400, 3226759655, -0.5126771, -0.27938727, -0.05068297, 0.8103124, 0.47822228, -0.52831364, -0.8624687, 0
1401, 3226776322, -0.51234174, -0.28036425, -0.050503902, 0.8101984, 0.48384744, -0.037521426, 0.86676025, 0
1404, 3226826323, -0.5098368, -0.28162447, -0.04975751, 0.8113867, 0.1361793, -0.55648905, 0.9050865, 0
1406, 3226859657, -0.50752604, -0.28007618, -0.04904967, 0.8134118, 0.47172344, -0.94754046, 0.25682354, 0
1407, 3226876324, -0.5061498, -0.2788441, -0.04892207, 0.8146993, 0.40249923, -1.1045897, 0.54900646, 0
1408, 3226892991, -0.504791, -0.2775593, -0.048931275, 0.8159796, 0.51428074, -1.386825, 1.0488777, 0
1410, 3226926325, -0.50153637, -0.2764348, -0.049151707, 0.81835145, 0.74768883, -0.7802036, 1.2679634, 0
1411, 3226942992, -0.5001335, -0.27459195, -0.049138483, 0.81982994, 0.7314095, 0.19531356, -0.21985912, 0
1412, 3226959659, -0.49870986, -0.27400362, -0.04900403, 0.82090145, 0.45000678, 0.6618858, -0.9951916, 0
1414, 3226992993, -0.49602294, -0.27175307, -0.04907384, 0.8232699, 0.15835066, -0.41120663, 1.6302729, 0
1415, 3227009660, -0.49480647, -0.2703434, -0.049041715, 0.824467, 0.7270509, -0.05578076, -0.8666153, 0
1416, 3227026327, -0.4939589, -0.2698861, -0.048984535, 0.8251283, 0.29959878, 0.0743693, 0.17718315, 0
1419, 3227076328, -0.49217397, -0.26733106, -0.049077235, 0.8270189, 0.3227004, 0.823869, 0.8240099, 0
1420, 3227092995, -0.49164903, -0.266878, -0.049267348, 0.82746613, 0.38192955, 0.21553478, -0.17282009, 0
1422, 3227126329, -0.49106157, -0.26554972, -0.050080806, 0.8281932, -0.47384277, -0.20320588, 0.53830814, 0
1423, 3227142996, -0.49058825, -0.265367, -0.05059704, 0.8285007, -0.8461423, 0.5340151, 0.43779564, 0
1424, 3227159663, -0.4900704, -0.26475814, -0.0513476, 0.82895577, -0.36032525, -0.03514867, 1.7469435, 0
1426, 3227192997, -0.48913968, -0.26406175, -0.052142218, 0.8296776, 1.168584, 0.7412464, -0.27895164, 0
1427, 3227209664, -0.4886784, -0.26487577, -0.052657448, 0.8296575, 1.5447603, 0.87857777, -1.5442076, 0
1428, 3227226331, -0.48813242, -0.2662587, -0.053362627, 0.8294912, 0.105873615, -0.44350603, -0.54252815, 0
1430, 3227259665, -0.48836216, -0.26737487, -0.05361452, 0.8289805, -0.35394529, 1.1713057, 1.4917383, 0
1431, 3227276332, -0.48866954, -0.26777223, -0.053339593, 0.82868874, 0.60089827, 1.0252036, 0.90318966, 0
1434, 3227326333, -0.48952457, -0.27146682, -0.05253645, 0.82703173, 1.4525404, 0.7305017, -0.7089176, 0
1435, 3227343000, -0.4895187, -0.27333802, -0.052294265, 0.82643414, -0.39150327, -0.28300136, 1.3570156, 0
1437, 3227376334, -0.48822665, -0.27725077, -0.052518997, 0.8258805, 1.0460474, 0.34778026, 0.9770489, 0
1438, 3227393001, -0.48705027, -0.2782396, -0.052867517, 0.82622033, 1.4566153, 1.4908999, 0.7688017, 0
1439, 3227409668, -0.4857887, -0.27872095, -0.052949704, 0.82679516, 2.4880083, 2.3387117, -0.49489212, 0
1441, 3227443002, -0.4837279, -0.27767408, -0.052467745, 0.82838494, 1.7950802, 1.2030134, -0.24290562, 0
1442, 3227459669, -0.48202178, -0.27866843, -0.052768447, 0.8290264, 1.9856297, -1.149652, 2.8578615, 0
1443, 3227476336, -0.48031318, -0.28097242, -0.05347294, 0.82919514, 4.164157, 0.11722086, 2.6473484, 0
1445, 3227509670, -0.47629523, -0.2956951, -0.05813469, 0.82607365, 2.688838, 1.0816207, -1.2043667, 0
1446, 3227526337, -0.47608054, -0.29776165, -0.057908133, 0.82547086, 1.7717835, 3.5319483, -2.2998748, 0
1447, 3227543004, -0.47569835, -0.297896, -0.056724947, 0.82572484, 0.44248325, 1.2557715, -1.9407325, 0
1449, 3227576338, -0.47463924, -0.29374385, -0.054565355, 0.82796425, -1.6066995, -2.0253415, 0.8199434, 0
1450, 3227593005, -0.47391257, -0.28889802, -0.053395208, 0.830159, -2.4936721, -2.060675, 0.5773182, 0
1451, 3227609672, -0.47344083, -0.28076008, -0.051157102, 0.83335507, -2.544432, -1.2859273, -3.923976, 0
1453, 3227643006, -0.47388768, -0.26786366, -0.046247717, 0.83762217, -0.5863784, -1.3590213, 1.5976067, 0
1454, 3227659673, -0.47334766, -0.26443982, -0.04570944, 0.8390436, -2.013123, -4.312562, 3.4647303, 0
1455, 3227676340, -0.47335678, -0.26343906, -0.045790516, 0.839349, -3.0711887, -4.0985656, 3.5814753, 0
1457, 3227709674, -0.4747594, -0.2637539, -0.04625343, 0.83843195, -2.2225986, -1.528587, 0.8099146, 0
1458, 3227726341, -0.47524437, -0.26363316, -0.046677835, 0.8381716, -2.9833212, 0.6019651, -0.6139679, 0
1461, 3227776342, -0.47861445, -0.2636934, -0.047159508, 0.8362057, -0.9576122, -3.5957494, 1.3348875, 0
1462, 3227793009, -0.47999233, -0.2647336, -0.0471819, 0.8350854, -0.4986677, -2.6086075, 0.35054016, 0
1464, 3227826343, -0.48339736, -0.26854062, -0.047277413, 0.8318941, -2.341721, -0.5107201, -0.6061497, 0
1465, 3227843010, -0.4849667, -0.27024662, -0.047181163, 0.8304325, -1.9705893, -0.23140064, -0.32353306, 0
1466, 3227859677, -0.48616672, -0.2708839, -0.047157716, 0.82952404, -1.1171919, -1.6055005, -0.73194313, 0
1468, 3227893011, -0.48843253, -0.2712414, -0.047223262, 0.82807136, -1.190731, -1.8643749, 1.993803, 0
1469, 3227909678, -0.48922467, -0.2718504, -0.047289986, 0.82739985, -0.9124842, -1.7712812, -0.1309948, 0
1470, 3227926345, -0.49011248, -0.27228865, -0.047268655, 0.826731, -1.2208368, -2.1042378, 0.7621622, 0
1472, 3227959679, -0.49200833, -0.27422047, -0.047346786, 0.82496023, -0.62741095, -0.23940724, -1.9392481, 0
1473, 3227976346, -0.49275967, -0.2743415, -0.047444515, 0.82446575, 0.015542197, 0.94584984, -0.08010578, 0
1476, 3228026347, -0.49435163, -0.27218238, -0.04680527, 0.8242649, -1.4674251, -1.8886523, 1.3919725, 0
1477, 3228043014, -0.49472964, -0.2704918, -0.04669293, 0.82460105, -0.18488902, -0.5322567, 2.5459023, 0
1478, 3228059681, -0.49487203, -0.26931235, -0.04696363, 0.8248861, -0.32516778, -0.7771988, 0.24073124, 0
1480, 3228093015, -0.49529713, -0.26725748, -0.047804266, 0.825251, 0.33584633, 0.37456232, -0.7421093, 0
1481, 3228109682, -0.49551058, -0.26671043, -0.048146337, 0.8252798, -0.9249288, -0.44143382, 0.32301712, 0
1483, 3228143016, -0.49573344, -0.26436162, -0.048923697, 0.82585573, -0.32466307, -0.9065348, -0.1577034, 0
1484, 3228159683, -0.4959793, -0.2634709, -0.049409386, 0.8259639, -0.51639855, -0.29896685, 0.3879404, 0
1485, 3228176350, -0.49621475, -0.26255593, -0.049941164, 0.826082, -0.25548157, -0.39065605, 0.64316463, 0
1487, 3228209684, -0.49646905, -0.2608557, -0.050996378, 0.82640314, -0.4496372, -0.24662344, 0.42478466, 0
1488, 3228226351, -0.49678743, -0.25999972, -0.051523164, 0.8264489, -0.23684171, -5.540048E-4, 0.26067734, 0
1491, 3228276352, -0.49806654, -0.25671855, -0.052438907, 0.82664716, 0.97302765, 0.87108105, -0.2709446, 0
1492, 3228293019, -0.49853882, -0.2561508, -0.052657828, 0.8265247, 0.619493, -0.1434703, -0.66298866, 0
1493, 3228309686, -0.49932408, -0.25522462, -0.052777156, 0.8263295, 0.14142537, 0.19918193, 1.0809355, 0
1495, 3228343020, -0.5009842, -0.25305092, -0.05287613, 0.8259869, -0.223365, 1.5554897, -0.35122204, 0
1496, 3228359687, -0.5019799, -0.25285614, -0.053124085, 0.82542604, 0.13250853, 0.7169854, 0.20395279, 0
1497, 3228376354, -0.50304127, -0.25275972, -0.053373076, 0.824793, 1.1887954, 0.71412134, -0.396533, 0
1499, 3228409688, -0.5048163, -0.25299928, -0.053674903, 0.82361454, 0.573551, 1.3239338, 0.9507961, 0
1500, 3228426355, -0.50565434, -0.25320417, -0.05354645, 0.82304585, 0.2982233, 1.1058125, 0.46151066, 0
1501, 3228443022, -0.50643504, -0.25352558, -0.053432867, 0.8224739, 0.6051723, 0.4084338, -0.055031776, 0
1503, 3228476356, -0.50752264, -0.25436702, -0.053226203, 0.8215566, 0.22577111, 0.03451621, -0.34801102, 0
1505, 3228509690, -0.50828135, -0.25470558, -0.053217966, 0.8209831, -0.5527943, -0.62021255, 1.3090343, 0
1507, 3228543024, -0.5083549, -0.25448924, -0.053824343, 0.82096505, -0.14467904, -0.5214736, 0.20052528, 0
1508, 3228559691, -0.5086546, -0.25399497, -0.053926744, 0.8209258, -0.20930536, -0.21307673, 1.2546711, 0
1509, 3228576358, -0.50887585, -0.25365973, -0.053774852, 0.8209023, 0.13866498, 0.33450118, -0.10032368, 0
1511, 3228609692, -0.5090387, -0.25332582, -0.054369822, 0.82086515, -1.141377, -0.5498774, 1.2110538, 0
1512, 3228626359, -0.5093889, -0.25279883, -0.05433307, 0.8208128, -0.5771042, -0.15328373, 0.4424286, 0
1514, 3228659693, -0.5098896, -0.2520593, -0.054731842, 0.82070285, 0.8531373, 0.6574478, 0.1925087, 0
1515, 3228676360, -0.51022565, -0.2522962, -0.05497119, 0.82040524, -1.289522, 0.026770426, 0.21302891, 0
1516, 3228693027, -0.51071954, -0.25214562, -0.05511956, 0.8201342, -0.5445462, 0.4590662, 1.2066698, 0
1518, 3228726361, -0.5112445, -0.25150138, -0.055596776, 0.81997275, 0.7676554, 1.3225182, -0.46512032, 0
1519, 3228743028, -0.51151943, -0.25107235, -0.05597806, 0.81990683, 0.21807109, 1.0933006, 1.1399727, 0
1520, 3228759695, -0.51193285, -0.25048608, -0.0563273, 0.8198041, -0.37042177, 0.68455815, 1.0289993, 0
1522, 3228793029, -0.5126858, -0.2510942, -0.05643909, 0.81913954, 1.7358584, -0.045874275, 0.41805935, 0
1523, 3228809696, -0.51331586, -0.25142702, -0.055956677, 0.8186758, 1.4780681, 1.364173, -0.36572456, 0
1524, 3228826363, -0.51398826, -0.25267032, -0.055648044, 0.8178919, 0.74035144, 0.9235414, -0.33965492, 0
1526, 3228859697, -0.5152333, -0.2546956, -0.0547269, 0.81654143, 0.08638083, 1.0816883, 0.18451118, 0
1527, 3228876364, -0.5156537, -0.25582445, -0.054179404, 0.81595945, 0.17526992, 1.2229619, 0.66821, 0
1528, 3228893031, -0.51596063, -0.25694185, -0.053846166, 0.8154364, 1.398278, 1.5930966, -0.8763399, 0
1530, 3228926365, -0.5161637, -0.25945917, -0.05333333, 0.81454384, 1.334345, 0.5111196, 0.07197285, 0
1532, 3228959699, -0.51531374, -0.2626183, -0.053455785, 0.81406134, 1.0999706, 1.3154532, 0.026565552, 0
1534, 3228993033, -0.5142951, -0.26423687, -0.05334171, 0.81418926, 1.4129608, 2.0446332, -0.071248055, 0
1535, 3229009700, -0.51348054, -0.265646, -0.053196143, 0.8142544, 1.1964946, 0.32070446, 1.2963915, 0
1536, 3229026367, -0.5123291, -0.2680584, -0.05311597, 0.81419444, 2.331415, 0.8145301, 2.9043903, 0
1538, 3229059701, -0.5083162, -0.27912238, -0.05501532, 0.8128644, 5.4612546, 1.0427417, -1.836021, 0
1539, 3229076368, -0.50546145, -0.2850623, -0.056736693, 0.81246495, 3.5800607, 0.7571269, -2.4096923, 0
1541, 3229109702, -0.5034574, -0.2836242, -0.054255772, 0.81437975, 2.3448122, 4.8145757, 0.25338078, 0
1542, 3229126369, -0.5019955, -0.2853702, -0.053496312, 0.8147225, -0.7060946, -2.0705662, 3.247263, 0
1543, 3229143036, -0.50041527, -0.28752154, -0.05293743, 0.81497467, 1.5117352, -3.4728377, 3.1481, 0
1545, 3229176370, -0.4967419, -0.29052922, -0.053274695, 0.8161325, 0.5204408, -1.3437774, -4.985721, 0
1547, 3229209704, -0.49393046, -0.2787004, -0.049110044, 0.8222027, -2.6920938, -1.044206, -0.938323, 0
1549, 3229243038, -0.4909573, -0.26867542, -0.04576406, 0.82749635, -2.6047382, -6.200726, 5.3980246, 0
1550, 3229259705, -0.48963553, -0.2655461, -0.045705695, 0.8292909, -2.2691398, -5.3998423, 3.4131956, 0
1551, 3229276372, -0.48831034, -0.26377082, -0.04635404, 0.8306019, -2.3557725, -3.022972, 2.0369673, 0
1553, 3229309706, -0.48677093, -0.26076084, -0.047630016, 0.8323817, -1.1762902, 0.88474405, -0.8256216, 0
1554, 3229326373, -0.48643923, -0.2597794, -0.048029214, 0.8328595, -1.0017842, -1.2725155, 0.8679867, 0
1555, 3229343040, -0.48648039, -0.26015657, -0.048144158, 0.832711, -0.9132719, -3.4742138, 1.2702026, 0
1557, 3229376374, -0.48843926, -0.26232168, -0.047708776, 0.8309081, -2.5643141, -2.117965, 1.2102566, 0
1558, 3229393041, -0.4897486, -0.2650843, -0.046986543, 0.82930034, -2.6623862, -1.8338459, -0.7638769, 0
1559, 3229409708, -0.49117777, -0.2680409, -0.046321366, 0.82754046, -1.3890407, -1.1594605, -1.9150138, 0
1562, 3229459709, -0.49578345, -0.2757689, -0.044642713, 0.8223304, -2.2581034, -2.05347, 0.8064537, 0
1563, 3229476376, -0.4969327, -0.27720615, -0.043946974, 0.82119036, -0.59569645, -0.49733588, -0.32169724, 0
1565, 3229509710, -0.4983175, -0.27959234, -0.043193657, 0.81958044, -0.38919607, -0.8890145, -0.17673302, 0
1566, 3229526377, -0.4986691, -0.2797789, -0.04285118, 0.81932086, -0.21360575, -0.3050638, 1.1462507, 0
1568, 3229559711, -0.4987254, -0.27990416, -0.042941704, 0.8192392, -0.2637397, -1.4302621, 0.7204914, 0
1569, 3229576378, -0.49855727, -0.27924097, -0.043103192, 0.8195594, 0.40383738, -0.24156381, 0.2302494, 0
1570, 3229593045, -0.4983455, -0.27874354, -0.043471564, 0.81983787, -0.44708627, -0.32858062, -0.08371544, 0
1572, 3229626379, -0.49799526, -0.27702612, -0.043575317, 0.820627, 1.3842348, 0.93416643, 0.19133186, 0
1573, 3229643046, -0.49756372, -0.27701917, -0.04383456, 0.82087725, 0.8104715, 0.5891529, -1.2255859, 0
1574, 3229659713, -0.49728134, -0.2766337, -0.043680977, 0.82118636, 0.25037542, -0.31483144, 2.0184345, 0
1577, 3229709714, -0.49650288, -0.2755666, -0.04267383, 0.8220687, 0.7855224, 0.43446967, 0.38402748, 0
1578, 3229726381, -0.4962872, -0.27597713, -0.04249959, 0.82207036, 1.0001101, 0.5286296, -0.98636246, 0
1580, 3229759715, -0.49597856, -0.27702907, -0.042278726, 0.8219141, 0.92894334, 1.3690977, 0.8791628, 0
1581, 3229776382, -0.49555463, -0.27732912, -0.042013526, 0.8220823, -0.2037381, 1.0818453, 0.108924866, 0
1582, 3229793049, -0.49522334, -0.2770129, -0.041940924, 0.8223921, -0.112017766, 0.82231855, 0.8425503, 0
1584, 3229826383, -0.49417967, -0.27660316, -0.042143375, 0.82314706, 0.33050972, -1.1497086, 0.75417614, 0
1585, 3229843050, -0.49347925, -0.27599296, -0.04252949, 0.8237521, 0.33329022, -1.3311754, 0.6491375, 0
1586, 3229859717, -0.49299258, -0.2751935, -0.042559348, 0.8243094, -0.60851645, -0.4192136, 0.9263277, 0
1588, 3229893051, -0.49197757, -0.27431783, -0.04291549, 0.82518864, 0.2156567, -0.6198881, 0.84931564, 0
1589, 3229909718, -0.49135372, -0.2743006, -0.043081447, 0.82555735, 0.32400995, -0.65186703, -0.39127254, 0
1591, 3229943052, -0.49036554, -0.27399182, -0.0431739, 0.8262422, 3.3873398, 2.0239046, 0.40489292, 0
1592, 3229959719, -0.48919225, -0.27455014, -0.043474816, 0.8267365, 1.6166078, 0.6918625, -0.9628687, 0
1593, 3229976386, -0.48933315, -0.27520856, -0.043201514, 0.82644844, -3.6054413, 0.119665146, 2.0900946, 0
1595, 3230009720, -0.48909366, -0.27667877, -0.042057343, 0.82615846, 0.62885594, -2.4163733, 0.11130333, 0
1596, 3230026387, -0.48810607, -0.27731305, -0.041886862, 0.8265384, 1.6456289, 0.35835552, -0.77798176, 0
1597, 3230043054, -0.48797232, -0.2781532, -0.041673344, 0.8263458, 0.5582826, -0.660094, -0.30595493, 0
1599, 3230076388, -0.48716572, -0.2795256, -0.041613422, 0.8263615, -1.4883516, -0.5343645, 1.8152237, 0
1600, 3230093055, -0.48585123, -0.27962014, -0.041877244, 0.82708967, -0.67195797, 0.8857851, -0.6870575, 0
1601, 3230109722, -0.48514608, -0.279532, -0.042356968, 0.8275088, -0.38863897, 0.08093388, -0.2993307, 0
1604, 3230159723, -0.4835298, -0.28137052, -0.04249527, 0.8278248, -0.10643821, -1.5475231, 1.0721254, 0
1605, 3230176390, -0.48307997, -0.28155077, -0.042532414, 0.8280242, -0.2731733, -0.25984964, 0.9044485, 0
1607, 3230209724, -0.48272264, -0.28439572, -0.042158373, 0.82727903, -1.3849741, -1.6163007, 0.21872997, 0
1608, 3230226391, -0.48212886, -0.2844622, -0.041958604, 0.82761276, -0.50971794, -1.2850509, 1.7410078, 0
1609, 3230243058, -0.48154724, -0.28489944, -0.04197944, 0.8277997, 2.003252, 0.08666953, -1.2313595, 0
1611, 3230276392, -0.48122263, -0.28864026, -0.042367615, 0.82667214, -2.0794442, -0.17436352, -0.241683, 0
1612, 3230293059, -0.4811309, -0.29119942, -0.04278078, 0.8258063, -0.7247108, -1.2250072, 0.2709837, 0
1613, 3230309726, -0.4801081, -0.29345208, -0.043448053, 0.82556915, 0.77307576, -0.62899655, 0.28019428, 0
1615, 3230343060, -0.4772981, -0.29936945, -0.04616342, 0.82492644, 0.8724918, -1.710864, 0.49697113, 0
1616, 3230359727, -0.476338, -0.303189, -0.047288373, 0.8240222, -0.53455895, -1.0252957, 1.086052, 0
1619, 3230409728, -0.4722004, -0.3180816, -0.051057693, 0.8205572, 0.41175467, -0.34637913, 0.41042805, 0
1620, 3230426395, -0.47082716, -0.32538083, -0.05229008, 0.81840396, 0.60428715, -0.46523362, -0.15128708, 0
1622, 3230459729, -0.46783763, -0.3416318, -0.05598066, 0.81323534, -0.37592712, -0.38572997, 1.2070808, 0
1623, 3230476396, -0.4660665, -0.35157803, -0.058410212, 0.8098353, 0.67814344, -0.65303874, -0.64362717, 0
1624, 3230493063, -0.46447673, -0.36219245, -0.061388016, 0.805841, 0.4499461, -0.7186204, 0.69382286, 0
1626, 3230526397, -0.46218944, -0.38423958, -0.069217235, 0.7962536, -0.5175398, -1.2238535, 0.50974655, 0
1627, 3230543064, -0.4615211, -0.39708734, -0.07350111, 0.78992873, -0.35706776, -0.6944341, 1.843544, 0
1628, 3230559731, -0.46070853, -0.41225827, -0.07751736, 0.7822095, 1.6610166, -0.5579104, -0.9479189, 0
1630, 3230593065, -0.455749, -0.45009306, -0.087750144, 0.7629411, 1.7095464, 0.039951824, 1.4648466, 0
1631, 3230609732, -0.4516052, -0.47147912, -0.09275089, 0.75181615, 1.9448906, 0.17938748, 0.6228361, 0
1634, 3230659733, -0.43576646, -0.5380483, -0.11380299, 0.71255213, 3.0786378, 1.330713, 1.8006878, 0
1635, 3230676400, -0.4322434, -0.5543107, -0.12646277, 0.69998753, 3.4693687, 2.3274121, 3.3836117, 0
1636, 3230693067, -0.43369073, -0.56347895, -0.14381744, 0.6883244, 3.157603, 2.529748, 3.2360992, 0
1638, 3230726401, -0.44385815, -0.5687688, -0.17742275, 0.66939026, 8.45284, -3.3901296, -1.0510187, 0
1639, 3230743068, -0.44614875, -0.5650655, -0.18964592, 0.66765016, 8.986932, 0.84176195, -1.0665522, 0
1640, 3230759735, -0.44818324, -0.5564598, -0.20327364, 0.66950303, 7.583226, 1.5579017, -3.6092863, 0
1642, 3230793069, -0.45197296, -0.53090507, -0.21970206, 0.6823937, 5.9682674, 3.0073268, -2.9931135, 0
1643, 3230809736, -0.45490837, -0.5151797, -0.22318648, 0.69130754, 4.5362163, 3.3578498, -3.3602238, 0
1644, 3230826403, -0.45907336, -0.4978996, -0.22489947, 0.70059824, 3.3514833, 4.032564, -2.3972902, 0
1646, 3230859737, -0.47311407, -0.4605802, -0.22197998, 0.71751255, 1.1484815, 4.7862973, -1.1008682, 0
1649, 3230909738, -0.5122665, -0.40564844, -0.20119059, 0.7298115, -2.0515203, 3.0982966, 1.1998615, 0
1650, 3230926405, -0.52789104, -0.38917893, -0.19124593, 0.7303192, -2.7457242, 1.9228625, 1.0380182, 0
1651, 3230943072, -0.5426638, -0.37454364, -0.18148673, 0.72963417, -3.0320206, 1.0511651, -0.25670147, 0
1653, 3230976406, -0.5670532, -0.35720688, -0.16699845, 0.7232118, -2.7381473, 1.333049, -1.7559605, 0
1654, 3230993073, -0.57744503, -0.35632202, -0.1617072, 0.71659815, -2.951888, 1.1396703, 0.5075245, 0
1655, 3231009740, -0.58814126, -0.35852614, -0.1561106, 0.707989, -4.462758, 0.8121383, 2.7280369, 0
1657, 3231043074, -0.6136831, -0.36156294, -0.14251298, 0.68733215, -7.76506, -4.347857, 3.873662, 0
1658, 3231059741, -0.62648433, -0.35949767, -0.13293794, 0.67873156, -8.287917, -7.8732824, 2.5579166, 0
1659, 3231076408, -0.6377698, -0.35561463, -0.12004892, 0.67264134, -8.159975, -10.302478, 0.44578743, 0
1661, 3231109742, -0.651971, -0.34424338, -0.09641619, 0.6687334, -10.362162, -13.040817, -4.9980216, 0
1662, 3231126409, -0.6547016, -0.3380079, -0.087099805, 0.67052233, -11.898782, -15.286398, -6.8446493, 0
1663, 3231143076, -0.65462255, -0.33305812, -0.08009793, 0.6739408, -12.929957, -15.411859, -10.075979, 0
1665, 3231176410, -0.64306176, -0.33692983, -0.08583668, 0.68238693, -16.103148, -14.197483, -9.042788, 0
