sep=,
DeviceTag:,Xsens_DOT_5,,,,,,,,,,,,,,,,,
FirmwareVersion:,3.0.0,,,,,,,,,,,,,,,,,
AppVersion:,2023.6.1,,,,,,,,,,,,,,,,,
SyncStatus:,Synced,,,,,,,,,,,,,,,,,
OutputRate:,60Hz,,,,,,,,,,,,,,,,,
FilterProfile:,General,,,,,,,,,,,,,,,,,
Measurement Mode:,Sensor fusion Mode - Extended (Quaternion),,,,,,,,,,,,,,,,,
StartTime:,2025-05-05 12:00:10.424 +0200,,,,,,,,,,,,,,,,,
 2025,,,,,,,,,,,,,,,,,,,

PacketCounter,SampleTimeFine,Quat_W,Quat_X,Quat_Y,Quat_Z,FreeAcc_X,FreeAcc_Y,FreeAcc_Z,Status
1, 3203425855, -0.31486744, 0.3618321, -0.057571277, -0.87557006, 0.09663701, 0.041580226, -0.0918293, 0
2, 3203442522, -0.3148436, 0.3616971, -0.05760973, -0.87563205, 0.053445272, -0.03907297, -0.079538345, 0
3, 3203459189, -0.31484324, 0.3615816, -0.057557866, -0.8756833, 0.0853515, -0.024814967, -0.084617615, 0
4, 3203475856, -0.3148575, 0.36149618, -0.057486884, -0.8757182, 0.06737643, 0.0019031011, -0.092134476, 0
5, 3203492523, -0.3148662, 0.36145037, -0.05740628, -0.87573916, 0.056082502, -0.011760805, -0.083771706, 0
6, 3203509190, -0.31488642, 0.36144263, -0.057318565, -0.8757408, 0.069468275, 0.034433175, -0.100299835, 0
7, 3203525857, -0.31488413, 0.3614431, -0.057240576, -0.87574655, 0.083192684, 0.033647195, -0.06916523, 0
8, 3203542524, -0.31488955, 0.36137965, -0.057188615, -0.8757741, 0.14294061, 0.03577224, -0.06763744, 0
9, 3203559191, -0.3148915, 0.3612713, -0.057039082, -0.8758278, 0.079947524, -0.07425793, -0.024353027, 0
10, 3203575858, -0.31489736, 0.3611023, -0.05682258, -0.87590957, 0.039253723, 0.051107466, -0.10674381, 0
11, 3203592525, -0.3149073, 0.36095837, -0.05664672, -0.87597674, 0.10855059, 0.06422717, -0.118294716, 0
12, 3203609192, -0.31490797, 0.36085013, -0.056526124, -0.8760287, 0.11409304, 0.07466003, -0.10429573, 0
13, 3203625859, -0.31493348, 0.36071914, -0.056390814, -0.8760823, 0.121647306, 8.5080205E-4, -0.03590679, 0
14, 3203642526, -0.31496283, 0.3605771, -0.056228057, -0.8761405, 0.033314697, -0.043321393, -0.07455635, 0
15, 3203659193, -0.31498727, 0.36043096, -0.055904202, -0.87621266, 0.034698676, -0.10477851, 0.0797863, 0
16, 3203675860, -0.3150248, 0.36018908, -0.055283114, -0.8763381, 0.04969131, -0.09563136, -0.001996994, 0
17, 3203692527, -0.31504375, 0.359924, -0.05468523, -0.8764777, 0.12065565, 0.13661039, -0.17120934, 0
18, 3203709194, -0.31505972, 0.3597178, -0.054219007, -0.87658536, 0.07367098, 0.01575174, -0.1960907, 0
19, 3203725861, -0.31512603, 0.35952064, -0.05379891, -0.8766683, 0.101326555, -0.0043379394, -0.14165497, 0
20, 3203742528, -0.31523666, 0.3593265, -0.05344117, -0.87673014, 0.13570046, 0.06504462, -0.09095478, 0
21, 3203759195, -0.31536758, 0.3591154, -0.05307363, -0.87679183, 0.04609052, -0.0024485844, -0.12529469, 0
22, 3203775862, -0.31548834, 0.3589656, -0.05267617, -0.8768337, 0.015553589, -0.022174608, -0.1011343, 0
23, 3203792529, -0.31557098, 0.3588815, -0.052322086, -0.87685955, 0.057613146, 0.023321118, -0.10691452, 0
24, 3203809196, -0.31561795, 0.35877612, -0.05205444, -0.8769016, 0.12112708, 0.10839646, -0.2057476, 0
25, 3203825863, -0.31561038, 0.35869417, -0.051988356, -0.8769418, 0.09034223, 0.08847559, -0.16677856, 0
26, 3203842530, -0.31561378, 0.35864627, -0.05196875, -0.87696123, 0.085398786, 0.014349084, -0.07274151, 0
27, 3203859197, -0.31565633, 0.35855612, -0.05179248, -0.8769932, 0.06196299, -0.08280283, 0.0023069382, 0
28, 3203875864, -0.31571168, 0.35844353, -0.051486168, -0.8770374, 0.029037742, -0.028726667, -0.099059105, 0
29, 3203892531, -0.31573644, 0.35836282, -0.05120314, -0.87707794, 0.061566677, 0.020243457, -0.09038448, 0
30, 3203909198, -0.3157546, 0.3582686, -0.050937455, -0.8771253, 0.092983074, 0.046658106, -0.12823582, 0
31, 3203925865, -0.31575564, 0.3581465, -0.050769474, -0.87718457, 0.031823605, -0.051395018, -0.14483833, 0
32, 3203942532, -0.31581804, 0.3580162, -0.050579976, -0.8772262, 0.2805613, 0.26696476, -0.124959946, 0
33, 3203959199, -0.31587908, 0.3579526, -0.05041983, -0.87723935, -0.021966588, -0.15239985, -9.1934204E-4, 0
34, 3203975866, -0.3159532, 0.3579498, -0.050283805, -0.8772216, 0.13225934, 0.2299859, -0.21338367, 0
35, 3203992533, -0.315926, 0.35802174, -0.050429106, -0.8771937, 0.07685465, 0.19648789, -0.28113842, 0
36, 3204009200, -0.3157224, 0.35812974, -0.05086612, -0.87719786, 0.056665935, 0.25056377, -0.35420418, 0
38, 3204042534, -0.31434736, 0.35864013, -0.05346776, -0.8773283, -0.019821458, 0.4186771, -0.46647167, 0
39, 3204059201, -0.31352076, 0.35926044, -0.054926917, -0.87727994, -0.07378224, -0.3482381, 0.36081314, 0
40, 3204075868, -0.31308973, 0.3597124, -0.055443633, -0.87721634, 0.20177014, -0.51432824, 0.38917446, 0
42, 3204109202, -0.3127663, 0.36020365, -0.05554864, -0.87712336, 0.060257625, 0.006725952, -0.079463005, 0
44, 3204142536, -0.3126237, 0.36051223, -0.055519413, -0.87704927, 0.10453206, 0.006340839, -0.0878849, 0
46, 3204175870, -0.31270367, 0.36064783, -0.05524666, -0.8769822, 0.116008356, -0.009771652, -0.10030079, 0
47, 3204192537, -0.31282526, 0.36063826, -0.05497695, -0.87695986, 0.10346648, -0.046303168, -0.062232018, 0
50, 3204242538, -0.3130978, 0.36035237, -0.05450318, -0.8770095, 0.0672808, 0.15027866, -0.18966866, 0
51, 3204259205, -0.31296223, 0.36029103, -0.05487199, -0.8770601, 0.031599376, 0.15965268, -0.13570786, 0
53, 3204292539, -0.31269935, 0.36037576, -0.055665907, -0.8770691, 0.056932718, -0.07769389, -0.03241253, 0
54, 3204309206, -0.31267512, 0.360412, -0.05590055, -0.87704766, 0.064626865, -0.083386205, -0.073412895, 0
55, 3204325873, -0.31268147, 0.360427, -0.056042187, -0.87703043, 0.11719798, -0.04539537, 9.813309E-4, 0
57, 3204359207, -0.31281793, 0.36027312, -0.055937964, -0.87705165, 0.047919203, -0.008474493, -0.084988594, 0
59, 3204392541, -0.31302512, 0.36013713, -0.055606104, -0.8770546, 0.07382476, 0.0040487135, -0.09446335, 0
61, 3204425875, -0.31329787, 0.36002418, -0.055160865, -0.87703156, 0.07360486, 0.0052777, -0.06025219, 0
62, 3204442542, -0.31345809, 0.35997018, -0.054845925, -0.87701637, 0.104811914, 0.0015225703, -0.059803963, 0
63, 3204459209, -0.31363422, 0.35989547, -0.054542504, -0.877003, 0.05990097, 0.07127649, -0.094656944, 0
66, 3204509210, -0.31393158, 0.3597336, -0.05413611, -0.8769882, 0.05715153, 0.05053762, -0.09776497, 0
67, 3204525877, -0.3139973, 0.35970774, -0.054057494, -0.87698007, 0.06800851, 0.020216076, -0.10714531, 0
69, 3204559211, -0.3141513, 0.35968265, -0.053817336, -0.87695, 0.066163674, -0.048843727, -0.0592165, 0
70, 3204575878, -0.3142897, 0.35965362, -0.05356874, -0.87692744, 0.07721476, 0.0052831755, -0.092573166, 0
71, 3204592545, -0.31443208, 0.35960472, -0.05339466, -0.8769073, 0.08640741, 0.033827122, -0.11944294, 0
74, 3204642546, -0.31482214, 0.3593708, -0.05279963, -0.8768991, 0.09409359, 0.019526763, -0.09393978, 0
75, 3204659213, -0.31497157, 0.35925886, -0.052532762, -0.87690735, 0.06738047, 0.017961388, -0.11062145, 0
77, 3204692547, -0.3152935, 0.35911956, -0.051853143, -0.8768893, 0.073107705, 0.03179025, -0.09050083, 0
78, 3204709214, -0.3154691, 0.35909867, -0.051444564, -0.87685865, 0.06816232, 0.040647507, -0.11325073, 0
80, 3204742548, -0.31583536, 0.35908568, -0.050509136, -0.87678665, 0.07329536, 0.012122784, -0.07363129, 0
81, 3204759215, -0.316025, 0.35906592, -0.050005283, -0.87675524, 0.05962903, 0.05728559, -0.12864399, 0
82, 3204775882, -0.31615672, 0.35906145, -0.04961339, -0.87673163, 0.05817107, 0.078419186, -0.19691467, 0
84, 3204809216, -0.31627572, 0.3590682, -0.049358662, -0.8767004, 0.07992255, 0.008836809, -0.10184574, 0
85, 3204825883, -0.3163396, 0.3590601, -0.049250983, -0.8766868, 0.09474705, 0.050340928, -0.09635067, 0
86, 3204842550, -0.31635436, 0.35905477, -0.0492108, -0.87668604, 0.06088667, 0.059568103, -0.1252327, 0
89, 3204892551, -0.31644654, 0.3590789, -0.049092103, -0.8766497, 0.08508623, 9.129387E-4, -0.05903721, 0
90, 3204909218, -0.31650117, 0.35907027, -0.04897653, -0.8766399, 0.08498003, 0.018630698, -0.08887768, 0
92, 3204942552, -0.31660914, 0.35904285, -0.048738033, -0.8766254, 0.046027206, 0.0038582806, -0.12024689, 0
93, 3204959219, -0.31663823, 0.3590416, -0.048692867, -0.87661785, 0.082471564, 0.041388787, -0.117295265, 0
96, 3205009220, -0.31664482, 0.3590389, -0.04861605, -0.876621, 0.0931045, 0.045282047, -0.1071558, 0
97, 3205025887, -0.316676, 0.35902303, -0.048504867, -0.87662244, 0.089974165, -0.008586027, -0.085196495, 0
98, 3205042554, -0.31671214, 0.35900965, -0.04839678, -0.87662077, 0.06584777, 0.02369729, -0.10213661, 0
100, 3205075888, -0.31682673, 0.35893378, -0.048069984, -0.87662864, 0.087269485, 0.050340258, -0.11287212, 0
101, 3205092555, -0.31688055, 0.35889116, -0.047912005, -0.8766352, 0.040996104, 0.0012382618, -0.11868191, 0
104, 3205142556, -0.3171307, 0.35868865, -0.047114506, -0.8766709, 0.036432877, 0.02604563, -0.13743877, 0
105, 3205159223, -0.3172007, 0.35865393, -0.04684514, -0.8766742, 0.06337171, 0.043725282, -0.15674686, 0
106, 3205175890, -0.31727153, 0.35863462, -0.04661878, -0.8766685, 0.08235817, 0.0027194822, -0.08150387, 0
108, 3205209224, -0.31740838, 0.3585422, -0.04605973, -0.8766865, 0.07152624, -0.057601746, 0.022839546, 0
109, 3205225891, -0.317536, 0.35843283, -0.04557794, -0.8767101, 0.04679857, -0.016745815, -0.12070656, 0
112, 3205275892, -0.31768203, 0.35833377, -0.04476047, -0.8767399, 0.08450769, 0.0876995, -0.13095284, 0
113, 3205292559, -0.3176843, 0.35834092, -0.044675034, -0.87674046, 0.07180555, 0.0134479925, -0.118227005, 0
115, 3205325893, -0.31768745, 0.35840154, -0.0445708, -0.87671995, 0.060497526, -0.035473853, -0.070791245, 0
116, 3205342560, -0.31770587, 0.35842782, -0.04444327, -0.876709, 0.05902236, -0.0075337277, -0.06014633, 0
119, 3205392561, -0.31772617, 0.3585277, -0.04416621, -0.87667495, 0.08266032, -0.00849718, -0.07719898, 0
120, 3205409228, -0.31776172, 0.35853392, -0.04406394, -0.8766646, 0.04231401, 0.014025326, -0.09166145, 0
121, 3205425895, -0.31780452, 0.35852218, -0.043929607, -0.8766607, 0.0828821, 0.027674591, -0.085865974, 0
123, 3205459229, -0.31791157, 0.3584949, -0.04363199, -0.8766478, 0.06286783, 0.04634597, -0.15154839, 0
124, 3205475896, -0.317904, 0.35853142, -0.043588236, -0.876638, 0.09023377, 0.11287315, -0.157197, 0
125, 3205492563, -0.31792435, 0.3585452, -0.043506496, -0.87662894, 0.05999212, -0.04524517, -0.013566017, 0
128, 3205542564, -0.31795156, 0.35865733, -0.043366726, -0.87658024, 0.06659121, 0.07126789, -0.15585518, 0
129, 3205559231, -0.31790802, 0.35882097, -0.043391455, -0.8765279, 0.046431445, 0.0133974785, -0.095355034, 0
131, 3205592565, -0.3177936, 0.3592582, -0.043525558, -0.8763837, 0.043513425, 0.16045973, -0.28744888, 0
134, 3205642566, -0.31683853, 0.360492, -0.04529122, -0.8761335, 0.06581488, 0.09432861, -0.19635296, 0
135, 3205659233, -0.31633335, 0.36109805, -0.046177916, -0.87602013, 0.056700844, 0.12284847, -0.09378338, 0
136, 3205675900, -0.3159529, 0.3615543, -0.046826944, -0.8759348, 0.08533963, -0.2108781, 0.10956192, 0
138, 3205709234, -0.3153206, 0.36198407, -0.04785821, -0.8759294, 0.061085943, 0.0037532295, -0.032896996, 0
139, 3205725901, -0.3150848, 0.3621224, -0.048256844, -0.8759353, 0.061287034, -0.024604864, -0.066122055, 0
140, 3205742568, -0.31488097, 0.36228046, -0.048573367, -0.8759257, 0.08500871, 0.054833204, -0.110191345, 0
142, 3205775902, -0.31458747, 0.36263183, -0.04900661, -0.87586176, 0.029167302, -0.15779077, 0.08694649, 0
146, 3205842570, -0.31458825, 0.3626513, -0.04901406, -0.8758531, 0.050723843, 0.014144235, -0.11743164, 0
148, 3205875904, -0.31443536, 0.36266357, -0.049363792, -0.8758834, 0.031695813, 0.054234076, -0.08086681, 0
150, 3205909238, -0.31431916, 0.36272734, -0.04961191, -0.8758846, 0.06634645, 0.03811276, -0.059009552, 0
151, 3205925905, -0.31429413, 0.36273423, -0.049689382, -0.8758863, 0.06317423, 0.01961751, -0.07579517, 0
152, 3205942572, -0.31421947, 0.36273444, -0.049794685, -0.8759071, 0.105139434, 0.065815404, -0.13920498, 0
154, 3205975906, -0.31405172, 0.36277744, -0.050095525, -0.8759324, 0.049779158, 0.06275618, -0.10313988, 0
155, 3205992573, -0.3139481, 0.36284974, -0.05026481, -0.87592983, 0.052410737, 0.015914122, -0.08451176, 0
156, 3206009240, -0.31385803, 0.3629246, -0.050314065, -0.8759286, 0.06551864, -4.9374014E-4, -0.05362892, 0
158, 3206042574, -0.31369555, 0.36306897, -0.050436486, -0.8759198, 0.07427542, 0.047786623, -0.10450745, 0
159, 3206059241, -0.3136212, 0.3631116, -0.050556503, -0.87592185, 0.021602185, 0.017438145, -0.099217415, 0
161, 3206092575, -0.31349447, 0.36323458, -0.050729755, -0.8759064, 0.09105581, -9.5697073E-4, -0.089487076, 0
163, 3206125909, -0.31342125, 0.36332676, -0.050876826, -0.8758858, 0.057989772, 0.029901788, -0.10655022, 0
165, 3206159243, -0.3133468, 0.36344016, -0.050985552, -0.87585914, 0.031887684, -0.0063346922, -0.07414913, 0
166, 3206175910, -0.3133187, 0.36348215, -0.05102756, -0.87584937, 0.05068113, 0.057516254, -0.09159374, 0
167, 3206192577, -0.31326643, 0.36353892, -0.05105889, -0.87584275, 0.09055285, 0.0694723, -0.10467148, 0
170, 3206242578, -0.31297415, 0.3638147, -0.051438726, -0.87581056, 0.06998042, 0.0735713, -0.10941696, 0
171, 3206259245, -0.31281936, 0.36388186, -0.05169923, -0.8758227, 0.02152082, 0.03651274, -0.14031315, 0
173, 3206292579, -0.3123508, 0.36376685, -0.052900616, -0.8759661, 0.07688105, 0.04309654, -0.09963608, 0
175, 3206325913, -0.31199053, 0.36374992, -0.05379322, -0.8760471, 0.08368126, -0.03037161, -0.052018166, 0
181, 3206425915, -0.31147557, 0.36422208, -0.05453228, -0.87598866, 0.08232135, 0.028328814, -0.101984024, 0
182, 3206442582, -0.3114368, 0.3643299, -0.05455201, -0.87595624, 0.048454918, 3.3750455E-4, -0.08378887, 0
183, 3206459249, -0.31141332, 0.3644248, -0.054540776, -0.87592596, 0.065229066, 0.018916236, -0.0863657, 0
185, 3206492583, -0.31135464, 0.36464158, -0.05443798, -0.8758631, 0.07101829, 0.044041663, -0.08953762, 0
186, 3206509250, -0.3113307, 0.36472198, -0.054410417, -0.8758398, 0.0387116, 0.023238307, -0.090106964, 0
187, 3206525917, -0.3113089, 0.36478758, -0.05438841, -0.87582165, 0.057204228, 0.029892512, -0.097631454, 0
189, 3206559251, -0.3112409, 0.36488998, -0.054416765, -0.8758014, 0.074944235, 0.046122905, -0.11932564, 0
190, 3206575918, -0.31116813, 0.36494464, -0.05451623, -0.87579846, 0.029073091, 0.06976901, -0.08602619, 0
193, 3206625919, -0.31097415, 0.36501613, -0.0548898, -0.8758143, 0.046791438, 0.034752242, -0.091545105, 0
194, 3206642586, -0.31091732, 0.36501926, -0.055040937, -0.87582374, 0.057341244, 0.023278426, -0.090800285, 0
197, 3206692587, -0.31075156, 0.36504316, -0.055424806, -0.8758485, 0.012274074, 0.12647402, -0.1550045, 0
198, 3206709254, -0.31059286, 0.3650597, -0.055807922, -0.87587357, 0.030499704, 0.11358359, -0.1608429, 0
200, 3206742588, -0.31003818, 0.3651337, -0.057011005, -0.8759619, 0.054960355, 0.043152977, -0.07345772, 0
201, 3206759255, -0.309815, 0.3652625, -0.05748236, -0.87595654, 0.06559042, -0.027903693, -0.057588577, 0
202, 3206775922, -0.30965316, 0.36542046, -0.05780619, -0.8759264, 0.059375785, -0.044313904, -0.049054146, 0
204, 3206809256, -0.3094852, 0.36565378, -0.058188684, -0.8758632, 0.0770209, 0.0075031063, -0.08079529, 0
205, 3206825923, -0.30942094, 0.3657192, -0.05835418, -0.8758475, 0.050571553, 0.037335493, -0.10375595, 0
208, 3206875924, -0.30935866, 0.36575553, -0.058486357, -0.8758456, 0.06511201, -0.008762378, -0.0755949, 0
209, 3206892591, -0.3094075, 0.36573985, -0.05842171, -0.87583923, 0.0618803, 0.037373826, -0.085721016, 0
210, 3206909258, -0.3094574, 0.36569068, -0.05838062, -0.875845, 0.0645944, 0.0025774396, -0.09316921, 0
215, 3206992593, -0.3094797, 0.3657279, -0.05831139, -0.8758263, 0.043179754, 0.056212503, -0.10674381, 0
216, 3207009260, -0.30944833, 0.36572698, -0.058353037, -0.875835, 0.05125514, 0.02997387, -0.07089043, 0
217, 3207025927, -0.30943412, 0.36568716, -0.058380015, -0.87585485, 0.064574696, -0.010777012, -0.07346153, 0
219, 3207059261, -0.309446, 0.36557668, -0.058435477, -0.8758931, 0.063351355, 0.06868726, -0.116993904, 0
220, 3207075928, -0.30943906, 0.36557, -0.058479372, -0.8758955, 0.057853997, 0.047491584, -0.10169411, 0
223, 3207125929, -0.30944002, 0.36556342, -0.058479503, -0.87589806, 0.049734678, 0.00971432, -0.08598709, 0
224, 3207142596, -0.3094988, 0.36554378, -0.058443543, -0.87588793, 0.03812318, 0.020706687, -0.07707214, 0
225, 3207159263, -0.3095384, 0.3654924, -0.058390483, -0.8758988, 0.06580961, 0.017535709, -0.09259224, 0
227, 3207192597, -0.3095978, 0.36536452, -0.058370575, -0.8759327, 0.05661779, 0.059068438, -0.08291626, 0
228, 3207209264, -0.3096021, 0.36532104, -0.05839066, -0.875948, 0.028031724, 0.039606944, -0.09247017, 0
231, 3207259265, -0.30963743, 0.36526364, -0.058405623, -0.8759585, 0.045308396, 0.023515798, -0.08093071, 0
232, 3207275932, -0.3096421, 0.36524504, -0.058412742, -0.87596405, 0.056452066, 0.028914195, -0.095500946, 0
233, 3207292599, -0.30964732, 0.36520982, -0.058435082, -0.87597543, 0.054090343, 0.017680656, -0.074412346, 0
235, 3207325933, -0.3096834, 0.3651123, -0.058451056, -0.8760024, 0.054238226, -6.476288E-4, -0.07874012, 0
237, 3207359267, -0.30975783, 0.36499202, -0.05835712, -0.8760326, 0.0426784, 0.027656376, -0.09132576, 0
239, 3207392601, -0.30983835, 0.36487022, -0.05830337, -0.87605834, 0.06624759, 0.020173274, -0.10900116, 0
240, 3207409268, -0.3098811, 0.36481574, -0.058264375, -0.8760686, 0.059179023, 0.026326586, -0.08372688, 0
242, 3207442602, -0.31001827, 0.3646852, -0.058150943, -0.8760821, 0.040600248, 0.02322702, -0.075330734, 0
243, 3207459269, -0.3100813, 0.3646204, -0.058071107, -0.87609196, 0.04172681, 0.048230633, -0.08460331, 0
244, 3207475936, -0.3101532, 0.3645416, -0.057973914, -0.8761059, 0.048713364, 0.026210917, -0.08445835, 0
246, 3207509270, -0.31033313, 0.36434576, -0.057717726, -0.8761407, 0.07290516, 0.030902008, -0.09828663, 0
247, 3207525937, -0.31042075, 0.36421707, -0.057591047, -0.87617135, 0.057686277, 0.02937262, -0.085808754, 0
248, 3207542604, -0.3105094, 0.36410105, -0.057472426, -0.87619615, 0.014903747, 0.051754314, -0.085902214, 0
250, 3207575938, -0.3106607, 0.3639973, -0.057172824, -0.8762052, 0.029167043, 0.020707246, -0.06841946, 0
252, 3207609272, -0.31083453, 0.36391637, -0.056715533, -0.87620693, 0.04699026, 0.013904629, -0.09327507, 0
254, 3207642606, -0.31092733, 0.3637343, -0.05643829, -0.8762675, 0.057629213, 0.03488568, -0.102677345, 0
255, 3207659273, -0.31099463, 0.36364883, -0.056372747, -0.87628335, 0.036092047, 0.033477437, -0.10235119, 0
256, 3207675940, -0.31105295, 0.36357883, -0.056320265, -0.87629515, 0.04221731, 0.039089624, -0.091599464, 0
258, 3207709274, -0.31114835, 0.36349958, -0.056199454, -0.876302, 0.049816273, 0.057424165, -0.089365005, 0
260, 3207742608, -0.31122988, 0.36343306, -0.056091666, -0.87630755, 0.029538633, 0.07522379, -0.13136482, 0
262, 3207775942, -0.31120893, 0.36346617, -0.056072384, -0.8763026, 0.055603053, 0.075375, -0.12019253, 0
263, 3207792609, -0.3111904, 0.36350393, -0.056088686, -0.8762924, 0.051033806, 0.038278382, -0.07716656, 0
264, 3207809276, -0.31118563, 0.36352444, -0.056096874, -0.876285, 0.04375202, 0.02240561, -0.05463791, 0
267, 3207859277, -0.31120545, 0.36354777, -0.05601094, -0.8762737, 0.05741805, 0.044329546, -0.08676243, 0
269, 3207892611, -0.31121233, 0.36351055, -0.05596543, -0.8762895, 0.052232414, 0.021845821, -0.088394165, 0
270, 3207909278, -0.31122032, 0.3634758, -0.055955887, -0.8763017, 0.047371805, 0.021348728, -0.085998535, 0
271, 3207925945, -0.31124422, 0.36342886, -0.05592867, -0.87631434, 0.049614303, 0.043765847, -0.10978031, 0
273, 3207959279, -0.31126294, 0.3633591, -0.0558609, -0.876341, 0.033410583, 0.029701073, -0.094304085, 0
274, 3207975946, -0.31127816, 0.36333746, -0.055836778, -0.87634605, 0.04151256, 0.028822107, -0.075712204, 0
277, 3208025947, -0.3113697, 0.36321533, -0.05576696, -0.8763685, 0.035586603, 0.037792016, -0.10207558, 0
278, 3208042614, -0.31138232, 0.36316592, -0.05577062, -0.8763842, 0.03944037, -0.0013252083, -0.07041645, 0
279, 3208059281, -0.3114136, 0.3630949, -0.055760555, -0.87640315, 0.042913113, 0.029885918, -0.07906914, 0
282, 3208109282, -0.31144038, 0.36293727, -0.055765823, -0.8764585, 0.04830847, 0.02423685, -0.09622002, 0
283, 3208125949, -0.3114677, 0.36289558, -0.055764537, -0.87646604, 0.023932392, 0.02003693, -0.06700611, 0
285, 3208159283, -0.31153762, 0.36283615, -0.055703532, -0.8764696, 0.039291117, 0.03822284, -0.10517597, 0
286, 3208175950, -0.3115572, 0.36280498, -0.055682763, -0.8764769, 0.060775165, 0.046139557, -0.10742283, 0
287, 3208192617, -0.31157604, 0.36279264, -0.055654105, -0.8764771, 0.07187079, 0.049999848, -0.09736538, 0
289, 3208225951, -0.31161365, 0.36273608, -0.05560356, -0.8764903, 0.05276839, 0.022536363, -0.097875595, 0
290, 3208242618, -0.31164157, 0.3627081, -0.055587173, -0.8764929, 0.038402565, 0.03283696, -0.10039425, 0
293, 3208292619, -0.3116969, 0.36259112, -0.055561937, -0.8765232, 0.044461265, 0.035663057, -0.069376945, 0
294, 3208309286, -0.31172484, 0.36256033, -0.055555083, -0.8765264, 0.04446674, 0.03152002, -0.0882206, 0
297, 3208359287, -0.3118021, 0.36246097, -0.055492226, -0.87654394, 0.021426449, 0.061507523, -0.096321106, 0
298, 3208375954, -0.31181443, 0.3624203, -0.055496637, -0.8765561, 0.05030748, 0.05823552, -0.10410309, 0
300, 3208409288, -0.31182066, 0.36232203, -0.05553028, -0.87659234, 0.04167077, 0.028694034, -0.078061104, 0
301, 3208425955, -0.3118507, 0.3622683, -0.055507865, -0.8766052, 0.046393957, 0.031146083, -0.073563576, 0
302, 3208442622, -0.3118701, 0.3622216, -0.05547545, -0.8766195, 0.052451875, 0.037432607, -0.10303974, 0
304, 3208475956, -0.3118655, 0.36218613, -0.055470638, -0.8766362, 0.042781428, 0.05413551, -0.11178875, 0
305, 3208492623, -0.31186357, 0.3621604, -0.05550268, -0.8766453, 0.031778604, 0.03934845, -0.107525826, 0
306, 3208509290, -0.31185275, 0.36215252, -0.055500403, -0.8766526, 0.034772832, 0.027582727, -0.06923485, 0
309, 3208559291, -0.31187856, 0.36206815, -0.055418372, -0.8766834, 0.023774674, 0.05707884, -0.11545658, 0
312, 3208609292, -0.3118784, 0.36207107, -0.055404898, -0.8766831, 0.05231087, 0.021397231, -0.05763054, 0
313, 3208625959, -0.31190705, 0.36203226, -0.055341564, -0.8766928, 0.057524033, 0.025539596, -0.082048416, 0
314, 3208642626, -0.3119465, 0.3619881, -0.055271417, -0.8767015, 0.05776094, 0.043140013, -0.10151291, 0
316, 3208675960, -0.31201208, 0.3619123, -0.055151157, -0.87671685, 0.033134874, 0.046987116, -0.10281277, 0
317, 3208692627, -0.31202564, 0.36188835, -0.05510692, -0.8767247, 0.027078016, 0.033253364, -0.106562614, 0
318, 3208709294, -0.31205434, 0.3618579, -0.0550486, -0.8767307, 0.031394742, 0.027855525, -0.08449173, 0
320, 3208742628, -0.3121258, 0.36176363, -0.054800674, -0.87675965, 0.034146555, 0.03892992, -0.08137798, 0
321, 3208759295, -0.31216356, 0.36172685, -0.054652557, -0.8767706, 0.04589655, 0.059275523, -0.11712456, 0
323, 3208792629, -0.3122828, 0.36175004, -0.05432824, -0.87673867, 0.04129299, -0.0063887825, -0.025961876, 0
324, 3208809296, -0.3123947, 0.36174124, -0.053988636, -0.8767236, 0.053241163, 1.4126019E-4, -0.027598381, 0
327, 3208859297, -0.31273362, 0.36165702, -0.05296724, -0.8766997, 0.045238316, 0.05465294, -0.11755085, 0
328, 3208875964, -0.31281254, 0.36158958, -0.052771438, -0.876711, 0.046683986, 0.10360815, -0.15024853, 0
329, 3208892631, -0.31284705, 0.36155084, -0.052680932, -0.87672013, 0.050067417, 0.07659018, -0.15198517, 0
331, 3208925965, -0.31294355, 0.36146963, -0.052554507, -0.87672657, 0.039090578, -0.009869214, -0.004500389, 0
332, 3208942632, -0.31300324, 0.36139172, -0.05240248, -0.8767466, 0.024895886, 0.025155153, -0.08769417, 0
333, 3208959299, -0.3130536, 0.36131904, -0.052287944, -0.8767653, 0.052069593, 0.0938432, -0.16041946, 0
335, 3208992633, -0.3130668, 0.36128527, -0.052362174, -0.87677014, 0.048448667, 0.06357703, -0.120910645, 0
336, 3209009300, -0.31305945, 0.36129624, -0.05247489, -0.87676144, 0.039278373, 0.07007556, -0.107378006, 0
339, 3209059301, -0.31312624, 0.3613172, -0.052660055, -0.87671787, 0.03380949, 0.04605596, -0.11774826, 0
341, 3209092635, -0.31318232, 0.3613577, -0.052770127, -0.8766745, 0.040161394, 0.05406577, -0.09776974, 0
343, 3209125969, -0.31320032, 0.36138558, -0.052876312, -0.87665015, 0.023822743, 0.020772288, -0.08165932, 0
344, 3209142636, -0.3132463, 0.36140144, -0.0528921, -0.8766263, 0.024792476, 0.015678652, -0.08373642, 0
345, 3209159303, -0.31328073, 0.36143768, -0.052870102, -0.8766004, 0.046871107, 0.022980597, -0.08787346, 0
347, 3209192637, -0.31334645, 0.36150432, -0.052872762, -0.8765492, 0.025676059, 0.058011334, -0.087664604, 0
348, 3209209304, -0.31335333, 0.3615303, -0.05291188, -0.8765337, 0.031935133, 0.037485804, -0.109731674, 0
350, 3209242638, -0.31337887, 0.36156136, -0.052990254, -0.8765071, 0.050798237, 0.06911524, -0.11574745, 0
351, 3209259305, -0.31339034, 0.36158025, -0.053037528, -0.87649226, 0.04884106, 0.053769507, -0.10759926, 0
352, 3209275972, -0.3133829, 0.36159733, -0.05309662, -0.87648433, 0.03910786, 0.061683986, -0.11106014, 0
356, 3209342640, -0.31335637, 0.36169645, -0.053295717, -0.8764409, 0.025035756, 0.054457366, -0.08477211, 0
358, 3209375974, -0.31335175, 0.36174387, -0.053339157, -0.8764203, 0.043872025, 0.01759818, -0.06622219, 0
359, 3209392641, -0.31336734, 0.3617451, -0.053294927, -0.87641686, 0.045792557, 0.042618446, -0.08974457, 0
360, 3209409308, -0.31340203, 0.361744, -0.053286724, -0.87640536, 0.037153225, 0.065670006, -0.11004448, 0
362, 3209442642, -0.31344786, 0.3617927, -0.053284034, -0.87636906, 0.03710928, 0.030018795, -0.09004307, 0
363, 3209459309, -0.31348288, 0.36180767, -0.05325886, -0.87635183, 0.04907504, 0.03231461, -0.10201931, 0
364, 3209475976, -0.31349176, 0.36183786, -0.053272374, -0.87633544, 0.050842665, 0.058327492, -0.12350941, 0
367, 3209525977, -0.3133777, 0.36205423, -0.053477637, -0.8762744, 0.032973953, 0.08237536, -0.090613365, 0
368, 3209542644, -0.31334, 0.3621234, -0.053528566, -0.8762562, 0.06545064, 0.05561427, -0.10381031, 0
371, 3209592645, -0.31328362, 0.3624286, -0.05355597, -0.8761484, 0.07807931, 0.055624105, -0.048480034, 0
374, 3209642646, -0.31317228, 0.36311385, -0.053408258, -0.87591356, -0.032126587, 0.3577605, -0.32052135, 0
375, 3209659313, -0.3128751, 0.3637409, -0.053544823, -0.87575126, -0.042349774, 0.10145728, -0.18030834, 0
377, 3209692647, -0.31188783, 0.36466697, -0.054538805, -0.8756569, -0.06019767, 0.0369924, -0.0809288, 0
378, 3209709314, -0.31132156, 0.3650394, -0.05529439, -0.87565595, 0.047290035, -0.019697415, 0.021763802, 0
379, 3209725981, -0.31086096, 0.3654689, -0.05599253, -0.8755959, 0.009781227, -0.13103011, 0.008654594, 0
381, 3209759315, -0.31013384, 0.36639002, -0.057493843, -0.87537146, 0.038054742, 0.034329914, -0.063344955, 0
382, 3209775982, -0.30979738, 0.36686203, -0.058219254, -0.875245, 0.06480924, -0.031506944, -0.063302994, 0
383, 3209792649, -0.30952582, 0.36728722, -0.058871925, -0.8751192, 0.07600494, -0.011721914, -0.070176125, 0
386, 3209842650, -0.3089467, 0.36794344, -0.060252838, -0.8749541, -0.024706243, 0.08853773, -0.08163166, 0
387, 3209859317, -0.30876407, 0.36812332, -0.06057595, -0.8749206, 0.076891154, 0.059381023, -0.069888115, 0
390, 3209909318, -0.30841908, 0.36853734, -0.061063495, -0.87483406, 0.0707743, 0.01241078, -0.052646637, 0
391, 3209925985, -0.30840567, 0.36856776, -0.061043672, -0.8748273, 0.075148545, -0.012183021, -0.04695034, 0
393, 3209959319, -0.3084915, 0.3683508, -0.060945597, -0.8748953, 0.06893334, 0.04293181, -0.058657646, 0
394, 3209975986, -0.30854928, 0.36818692, -0.0609191, -0.87494576, 0.03626925, 0.02256218, -0.08781433, 0
395, 3209992653, -0.30866694, 0.36801738, -0.06085676, -0.8749799, 0.04563932, 0.036770787, -0.070607185, 0
397, 3210025987, -0.30902034, 0.36756656, -0.060560457, -0.87506527, 0.04599845, -6.743386E-4, -0.066978455, 0
398, 3210042654, -0.30923077, 0.3673528, -0.060293153, -0.8750992, 0.022981547, 0.048288297, -0.07398987, 0
401, 3210092655, -0.309694, 0.3668241, -0.05983334, -0.87518865, 0.0357124, 0.04055542, -0.07325745, 0
402, 3210109322, -0.30984974, 0.36667994, -0.059705332, -0.8752027, 0.017369932, 0.021604985, -0.06590176, 0
404, 3210142656, -0.3102046, 0.36634737, -0.059376903, -0.87523866, 0.030584339, 0.055237427, -0.116508484, 0
405, 3210159323, -0.31033337, 0.36621502, -0.059257194, -0.8752564, 0.02433542, 0.14730163, -0.13477707, 0
406, 3210175990, -0.31043375, 0.36611715, -0.059174072, -0.87526745, 0.029875733, 0.057611693, -0.09360218, 0
408, 3210209324, -0.31065756, 0.36586025, -0.05879874, -0.87532073, 0.043587472, 0.053844716, -0.087020874, 0
409, 3210225991, -0.31076372, 0.36571553, -0.058569953, -0.8753588, 0.034833334, 0.06941441, -0.10966396, 0
410, 3210242658, -0.31089973, 0.36559707, -0.05836781, -0.87537354, 0.017547136, 0.038277153, -0.112091064, 0
412, 3210275992, -0.31113982, 0.36533192, -0.05816389, -0.8754125, 0.04042194, 0.06331038, -0.099928856, 0
413, 3210292659, -0.31122518, 0.3651997, -0.058104336, -0.8754413, 0.022505086, 0.05559002, -0.10566521, 0
416, 3210342660, -0.31149378, 0.3649122, -0.05788283, -0.8754803, 0.0053484417, 0.062186, -0.09197807, 0
417, 3210359327, -0.31156573, 0.36487857, -0.057833493, -0.875472, 0.028382527, 0.069580704, -0.10327053, 0
420, 3210409328, -0.31173813, 0.36486548, -0.05761793, -0.87543035, 0.020472236, 0.057049, -0.0807457, 0
421, 3210425995, -0.3118033, 0.36485946, -0.057532974, -0.8754152, 0.02488392, 0.065462366, -0.098389626, 0
422, 3210442662, -0.31183732, 0.3648588, -0.057455998, -0.87540835, 0.024726205, 0.043928567, -0.07569218, 0
424, 3210475996, -0.31186062, 0.36486515, -0.05741305, -0.8754002, 0.032480553, 0.061858103, -0.09465504, 0
425, 3210492663, -0.3118706, 0.3648678, -0.057414237, -0.8753955, 0.039742142, 0.041241605, -0.10735893, 0
426, 3210509330, -0.31188944, 0.36486304, -0.057411022, -0.87539107, 0.013255827, 0.026997125, -0.07519245, 0
428, 3210542664, -0.31196558, 0.3648535, -0.05740215, -0.8753684, 0.01913148, 0.06348662, -0.09602642, 0
431, 3210592665, -0.3120733, 0.36483857, -0.057390615, -0.87533706, 0.04060962, 0.015616179, -0.08562279, 0
432, 3210609332, -0.31211686, 0.36481524, -0.057380363, -0.8753319, 0.012665627, 0.0659314, -0.08355236, 0
433, 3210625999, -0.31217778, 0.36478677, -0.057362746, -0.8753231, 0.014405983, 0.03658527, -0.06940174, 0
436, 3210676000, -0.31229043, 0.36469725, -0.057448633, -0.8753146, 0.016078042, 0.026308928, -0.089123726, 0
437, 3210692667, -0.312339, 0.3646443, -0.05746348, -0.8753184, 0.0276218, 0.038252678, -0.0950079, 0
439, 3210726001, -0.31244382, 0.36455005, -0.057515975, -0.87531674, 0.024186868, 0.04767509, -0.09818268, 0
440, 3210742668, -0.31248754, 0.3645052, -0.05752463, -0.8753193, 0.02030847, 0.062894195, -0.113227844, 0
441, 3210759335, -0.31252307, 0.3644873, -0.05755397, -0.8753121, 0.021519031, 0.053870756, -0.0935421, 0
443, 3210792669, -0.31251633, 0.36451024, -0.0576158, -0.8753009, 0.030648125, 0.049942963, -0.10852909, 0
445, 3210826003, -0.31251436, 0.36452568, -0.05772661, -0.87528783, 0.02402563, 0.058158293, -0.10512447, 0
447, 3210859337, -0.31253093, 0.36451674, -0.057846755, -0.8752777, 0.040460076, 0.059241664, -0.08878422, 0
448, 3210876004, -0.3125453, 0.36449993, -0.057907406, -0.8752755, 0.024992855, 0.056827273, -0.11097908, 0
449, 3210892671, -0.3125309, 0.3645014, -0.0579911, -0.87527466, 0.011600322, 0.075642705, -0.100494385, 0
452, 3210942672, -0.31255916, 0.36453876, -0.058215067, -0.87523395, 0.030846547, 0.054820575, -0.111263275, 0
453, 3210959339, -0.31254673, 0.36451864, -0.058363087, -0.875237, 0.04389395, 0.051704805, -0.115921974, 0
455, 3210992673, -0.3124886, 0.3644106, -0.05868212, -0.87528145, 0.015425774, -0.002622254, -0.09867954, 0
456, 3211009340, -0.3125416, 0.3643051, -0.058786355, -0.87529945, 0.064580575, 0.050288405, -0.07921314, 0
458, 3211042674, -0.31254455, 0.3642347, -0.05913265, -0.8753044, 0.019417437, 0.051700894, -0.11030388, 0
460, 3211076008, -0.31231627, 0.36435357, -0.05986742, -0.87528646, 0.017451193, 0.10849576, -0.15254498, 0
462, 3211109342, -0.31181344, 0.3644864, -0.061077125, -0.8753268, 0.019988889, 0.051568463, -0.0710659, 0
463, 3211126009, -0.31156126, 0.3646529, -0.061632928, -0.8753082, 0.026310688, -0.05089334, -0.034417152, 0
464, 3211142676, -0.31140003, 0.3648835, -0.06209046, -0.87523735, 0.042547997, 0.016188595, -0.044734, 0
466, 3211176010, -0.3111739, 0.3653381, -0.06272404, -0.87508297, 0.05156508, -0.008033615, -0.066013336, 0
468, 3211209344, -0.31110254, 0.36545902, -0.0631222, -0.87502915, 0.028958535, -0.0012757002, -0.056077957, 0
470, 3211242678, -0.311224, 0.36528087, -0.0631916, -0.87505525, 0.053191878, 0.04118092, -0.07528591, 0
471, 3211259345, -0.31131867, 0.36513203, -0.063179, -0.8750847, 0.045922607, 0.0168588, -0.093958855, 0
472, 3211276012, -0.3114039, 0.3649611, -0.06316503, -0.8751267, 0.04562651, 0.06486346, -0.11734772, 0
475, 3211326013, -0.31166393, 0.36461374, -0.06310052, -0.8751834, 0.0038063, 0.0012582662, -0.06103134, 0
476, 3211342680, -0.31176868, 0.36455923, -0.06299673, -0.8751764, 0.020364378, 0.016232517, -0.08488846, 0
478, 3211376014, -0.3119971, 0.3644124, -0.062738866, -0.8751746, 0.023096362, 0.049526785, -0.10008907, 0
479, 3211392681, -0.31208587, 0.3643501, -0.06261754, -0.8751776, 0.020176236, 0.03533874, -0.09333992, 0
480, 3211409348, -0.3121977, 0.3642611, -0.06249243, -0.8751839, 0.012520763, 0.04107956, -0.09280872, 0
482, 3211442682, -0.31238884, 0.3640883, -0.06237486, -0.87519586, 0.015466859, 0.069315165, -0.09617901, 0
483, 3211459349, -0.31243667, 0.3640617, -0.062354703, -0.8751913, 0.0082232095, 0.06613145, -0.09297371, 0
486, 3211509350, -0.31254545, 0.36410075, -0.062376115, -0.8751347, 0.023019837, 0.04501607, -0.092993736, 0
487, 3211526017, -0.31258446, 0.36411652, -0.06237039, -0.87511456, 0.02580675, 0.06816709, -0.10639286, 0
490, 3211576018, -0.3125356, 0.3643215, -0.062370453, -0.87504673, 0.030880969, 0.0134220645, -0.063773155, 0
491, 3211592685, -0.31250757, 0.36443245, -0.062391985, -0.875009, 0.021249978, 0.03996691, -0.06668568, 0
493, 3211626019, -0.31252554, 0.36457303, -0.062390085, -0.87494427, 0.0046954625, 0.03041866, -0.0488863, 0
494, 3211642686, -0.3125555, 0.36459583, -0.062323358, -0.87492865, 0.02621075, 0.0037347898, -0.071777344, 0
495, 3211659353, -0.31262776, 0.36457992, -0.06224026, -0.8749154, 0.05185794, 0.04477825, -0.10149765, 0
497, 3211692687, -0.31275666, 0.36449817, -0.062031794, -0.87491834, 0.019946422, 0.04118986, -0.060813904, 0
499, 3211726021, -0.3129531, 0.36437318, -0.061737254, -0.87492085, 0.017916463, 0.046515618, -0.117222786, 0
501, 3211759355, -0.31311584, 0.3643541, -0.061482787, -0.8748885, 0.03346401, 0.08201367, -0.099318504, 0
502, 3211776022, -0.3131944, 0.3643518, -0.061393473, -0.8748675, 0.030574938, 0.04239594, -0.09957409, 0
505, 3211826023, -0.31339604, 0.3645153, -0.06093491, -0.8747594, 0.02606439, 0.12551409, -0.119781494, 0
506, 3211842690, -0.31343314, 0.3645864, -0.060830325, -0.87472373, 0.02648282, 0.025873078, -0.08246708, 0
507, 3211859357, -0.3134524, 0.3646355, -0.060816687, -0.8746973, 0.025025027, 0.054699656, -0.08612633, 0
509, 3211892691, -0.31350225, 0.36468944, -0.06080243, -0.87465787, 0.04437643, 0.036824767, -0.090304375, 0
512, 3211942692, -0.3136675, 0.3646143, -0.060652863, -0.8746404, 0.038254242, 0.016388752, -0.09715366, 0
513, 3211959359, -0.3137239, 0.36460346, -0.06057249, -0.87463015, -6.053429E-4, 0.124737106, -0.10392094, 0
514, 3211976026, -0.31376427, 0.3646218, -0.060515128, -0.8746121, 0.05356034, 0.06557825, -0.09817219, 0
517, 3212026027, -0.3138918, 0.36467505, -0.060363848, -0.8745546, 0.018371131, 0.031920668, -0.07493305, 0
520, 3212076028, -0.31403738, 0.36464182, -0.060205363, -0.874527, 0.025982544, 0.08259642, -0.09744263, 0
521, 3212092695, -0.314074, 0.36461747, -0.06021341, -0.8745235, 0.033244506, 0.07901719, -0.096951485, 0
522, 3212109362, -0.3140903, 0.36461562, -0.060243133, -0.8745165, 0.019405507, 0.052241795, -0.10169506, 0
524, 3212142696, -0.3141554, 0.36462972, -0.060228445, -0.874488, 0.03803281, 0.040263064, -0.11357403, 0
526, 3212176030, -0.31422147, 0.3646388, -0.060253978, -0.87445885, 0.036152117, 0.061009426, -0.09528446, 0
528, 3212209364, -0.3142923, 0.36461952, -0.060285985, -0.8744391, 0.005256131, 0.035115004, -0.06623936, 0
529, 3212226031, -0.31433976, 0.364593, -0.06026595, -0.87443453, 0.018871939, 0.052174963, -0.0916481, 0
530, 3212242698, -0.31437236, 0.3645745, -0.06025666, -0.87443125, 0.010400519, 0.073231004, -0.10199833, 0
532, 3212276032, -0.31442544, 0.3645495, -0.060248204, -0.87442315, 0.015130095, 0.062356204, -0.09700298, 0
536, 3212342700, -0.3145515, 0.36449218, -0.0602771, -0.87439966, 0.013932261, 0.055128578, -0.073280334, 0
537, 3212359367, -0.31457782, 0.36446908, -0.06028223, -0.8743996, 0.0301045, 0.06716922, -0.1041069, 0
539, 3212392701, -0.31466764, 0.3643819, -0.060260408, -0.8744051, 0.02756866, -0.06372041, -0.05062294, 0
540, 3212409368, -0.3147086, 0.3643116, -0.060280778, -0.8744182, 0.02652107, 0.17985462, -0.13072777, 0
541, 3212426035, -0.31472898, 0.36433417, -0.060320377, -0.8743988, 0.0312666, 0.17772186, -0.13952255, 0
543, 3212459369, -0.3145432, 0.36464128, -0.060598224, -0.87431836, -0.0062359, 0.14183204, -0.15021706, 0
544, 3212476036, -0.31433666, 0.36491212, -0.060829416, -0.8742637, 0.03591803, 0.09614801, -0.17597675, 0
545, 3212492703, -0.3140264, 0.3652959, -0.061133824, -0.8741936, -0.061565917, 0.23238072, -0.15765762, 0
549, 3212559371, -0.3130023, 0.36708924, -0.06233654, -0.87372476, 0.036352858, -0.036614105, -0.06315708, 0
551, 3212592705, -0.31282532, 0.36761326, -0.06268264, -0.87354296, 0.05517307, 0.0011049364, -0.07819176, 0
553, 3212626039, -0.31285185, 0.3677328, -0.06279188, -0.87347525, 0.07167283, -0.02615247, -0.06553936, 0
555, 3212659373, -0.3130588, 0.36741555, -0.06270971, -0.87354046, 0.036050446, -0.0059097945, -0.057341576, 0
556, 3212676040, -0.31320614, 0.3671238, -0.06263045, -0.87361604, 0.050791267, -0.0058720205, -0.052534103, 0
557, 3212692707, -0.31339353, 0.36675155, -0.062500894, -0.8737143, 0.016716534, 0.006891575, -0.08419037, 0
559, 3212726041, -0.31366873, 0.36622635, -0.062349215, -0.87384695, -0.02188133, 0.08468202, -0.11656952, 0
560, 3212742708, -0.3137396, 0.36609083, -0.062332112, -0.87387943, 0.033026975, 0.100209124, -0.11029911, 0
561, 3212759375, -0.31381232, 0.3659973, -0.062328517, -0.87389255, 0.039531633, 0.06916642, -0.07416344, 0
564, 3212809376, -0.3140302, 0.36569417, -0.062424153, -0.8739346, 0.0101652015, 0.03623067, -0.09854221, 0
566, 3212842710, -0.31418747, 0.36545345, -0.06251165, -0.8739724, 0.007943958, 0.09717394, -0.1080637, 0
567, 3212859377, -0.31423372, 0.36537164, -0.062585406, -0.87398463, 0.033777975, 0.054111034, -0.106066704, 0
568, 3212876044, -0.3142738, 0.36530992, -0.06263819, -0.8739923, 0.026702212, 0.036952056, -0.09824562, 0
570, 3212909378, -0.31441057, 0.36520287, -0.06262638, -0.8739887, 0.03594791, 0.033964917, -0.087402344, 0
571, 3212926045, -0.31449416, 0.36512902, -0.062605254, -0.87399095, 0.037495065, 0.025014006, -0.09162426, 0
572, 3212942712, -0.31457236, 0.36504564, -0.06255111, -0.87400156, 0.021010218, 0.045952253, -0.09223747, 0
574, 3212976046, -0.31476644, 0.36484846, -0.06246224, -0.8740204, 0.024306195, 0.09034528, -0.109760284, 0
575, 3212992713, -0.3148495, 0.36476457, -0.062400326, -0.8740298, 0.023541851, 0.024911636, -0.10139656, 0
576, 3213009380, -0.31494054, 0.3646917, -0.062322773, -0.874033, 0.01428266, 0.04612324, -0.09493446, 0
579, 3213059381, -0.31521243, 0.3644416, -0.061964113, -0.8740648, 0.013724199, 0.030017454, -0.068291664, 0
580, 3213076048, -0.31531438, 0.36436883, -0.061770037, -0.8740722, 0.018273875, 0.035683397, -0.085121155, 0
583, 3213126049, -0.31561315, 0.36411324, -0.06133663, -0.8741014, 0.046661165, 0.036599576, -0.090518, 0
584, 3213142716, -0.31571183, 0.36400074, -0.061182316, -0.87412345, 0.012002269, 0.042879283, -0.09661007, 0
586, 3213176050, -0.31598264, 0.36384702, -0.06077855, -0.87411773, 0.020743176, 0.061289825, -0.10816383, 0
587, 3213192717, -0.31611425, 0.36374602, -0.06063935, -0.87412184, 0.0137334885, 0.06202317, -0.109007835, 0
588, 3213209384, -0.31623974, 0.36361817, -0.06057074, -0.87413436, 0.0030745883, 0.08788172, -0.08298206, 0
590, 3213242718, -0.31641164, 0.36344013, -0.060562663, -0.87414676, -1.8389529E-4, 0.07910269, -0.11763573, 0
591, 3213259385, -0.3164559, 0.36341476, -0.060561944, -0.87414134, 0.015131981, 0.07783995, -0.11746025, 0
594, 3213309386, -0.3164961, 0.36341807, -0.060673032, -0.87411773, 0.0036134082, 0.06465727, -0.08153534, 0
595, 3213326053, -0.3165001, 0.36342084, -0.060732614, -0.87411094, 0.012999471, 0.04995034, -0.08108616, 0
597, 3213359387, -0.31657213, 0.36340737, -0.06081905, -0.8740845, 0.030519199, 0.033383, -0.09732628, 0
599, 3213392721, -0.31664678, 0.3633367, -0.0608434, -0.87408507, 0.019104812, 0.057728257, -0.09204006, 0
601, 3213426055, -0.31671762, 0.3632631, -0.060900904, -0.8740861, 0.019297717, 0.0697214, -0.09075928, 0
602, 3213442722, -0.31673044, 0.36324435, -0.06093751, -0.87408656, 0.016515959, 0.06831059, -0.09352684, 0
603, 3213459389, -0.31673804, 0.36322972, -0.060999453, -0.87408555, 0.034172866, 0.052234195, -0.07550526, 0
605, 3213492723, -0.31677225, 0.3632006, -0.061098456, -0.87407845, 0.022135815, 0.040270664, -0.078645706, 0
606, 3213509390, -0.3168071, 0.36318797, -0.061112992, -0.87407005, 0.02982128, 0.052969888, -0.10485554, 0
609, 3213559391, -0.31689414, 0.363095, -0.061190873, -0.87407166, 0.030760873, 0.059844587, -0.07078934, 0
610, 3213576058, -0.31692618, 0.36303574, -0.061221864, -0.87408245, 0.01726984, 0.024096038, -0.09388447, 0
611, 3213592725, -0.31696898, 0.36298436, -0.061222237, -0.8740883, 0.02639505, 0.053998496, -0.07043266, 0
613, 3213626059, -0.31707594, 0.36287504, -0.0612421, -0.87409353, 0.032489676, 0.05065195, -0.12262535, 0
615, 3213659393, -0.31715792, 0.36279258, -0.06127626, -0.87409556, 0.021169415, 0.03357712, -0.10309124, 0
617, 3213692727, -0.31726614, 0.3627134, -0.061259724, -0.87409025, 0.01912951, 0.051585674, -0.08990288, 0
618, 3213709394, -0.31731978, 0.36264765, -0.06124032, -0.8740996, 0.018937401, 0.04120059, -0.071035385, 0
620, 3213742728, -0.31741542, 0.3624921, -0.061181664, -0.8741333, 0.020858383, 0.07100493, -0.08980751, 0
621, 3213759395, -0.31745723, 0.36243626, -0.06116136, -0.87414277, 0.006564436, 0.036631092, -0.1004982, 0
624, 3213809396, -0.31765833, 0.36224827, -0.061090726, -0.8741526, 0.008593696, 0.06355278, -0.07726097, 0
625, 3213826063, -0.31771302, 0.36219355, -0.06108345, -0.8741558, 0.01182688, 0.044435494, -0.092666626, 0
626, 3213842730, -0.31777513, 0.36213955, -0.061057765, -0.8741575, 0.015868917, 0.04795571, -0.10180187, 0
628, 3213876064, -0.3178998, 0.36203954, -0.060986508, -0.87415856, 0.01739864, 0.046098877, -0.08797932, 0
629, 3213892731, -0.31798548, 0.36194852, -0.060911424, -0.8741703, 0.040494595, -0.014727157, -0.038469315, 0
632, 3213942732, -0.31827536, 0.36172435, -0.06050109, -0.8741861, 0.014021778, 0.06296706, -0.09570217, 0
633, 3213959399, -0.31836388, 0.3616448, -0.060403414, -0.87419355, 0.023543905, 0.045041215, -0.089084625, 0
634, 3213976066, -0.31845355, 0.36156866, -0.060325924, -0.87419766, 0.03831638, 0.051294994, -0.09889126, 0
636, 3214009400, -0.3186594, 0.36138022, -0.060047004, -0.87422, 0.08596624, -0.03556281, 0.043190002, 0
638, 3214042734, -0.31900302, 0.3608864, -0.05926011, -0.8743523, 0.005146777, 0.06362934, -0.12810135, 0
640, 3214076068, -0.3192216, 0.3605018, -0.0588129, -0.8744613, -0.0118263075, 0.08093706, -0.17055035, 0
641, 3214092735, -0.31926858, 0.36041036, -0.058738023, -0.8744868, 0.011085195, 0.07917891, -0.14387608, 0
642, 3214109402, -0.31935725, 0.36029688, -0.05865511, -0.87450683, 0.040112056, -0.020279331, -0.059396744, 0
644, 3214142736, -0.31957603, 0.3601293, -0.058447063, -0.8745098, 0.018440057, 0.09745545, -0.1518364, 0
645, 3214159403, -0.31964168, 0.36015895, -0.058425266, -0.8744751, 0.0062928395, 0.11047463, -0.1446352, 0
647, 3214192737, -0.31969187, 0.3602931, -0.05856949, -0.87439185, -0.015203491, 0.0423547, -0.10372543, 0
648, 3214209404, -0.3197176, 0.3603644, -0.05856671, -0.8743532, 0.012165628, 0.024861347, -0.07382202, 0
649, 3214226071, -0.3197592, 0.36043552, -0.0585697, -0.8743084, -0.027269544, 0.08601818, -0.08771896, 0
651, 3214259405, -0.31975785, 0.36058444, -0.058627456, -0.8742437, 0.0048602894, 0.053240452, -0.10167122, 0
653, 3214292739, -0.3197443, 0.36068565, -0.05880077, -0.8741954, 0.021718852, 0.044805296, -0.09781933, 0
655, 3214326073, -0.31975752, 0.36077043, -0.058918368, -0.87414753, 0.05789673, 0.034657136, -0.06692982, 0
656, 3214342740, -0.3197439, 0.36078066, -0.058966465, -0.874145, 0.040175475, 0.099589325, -0.117666245, 0
657, 3214359407, -0.31971687, 0.3608232, -0.059073865, -0.8741301, -0.0055714375, 0.07546949, -0.12775898, 0
659, 3214392741, -0.31953192, 0.3610287, -0.059393425, -0.8740912, 0.02071905, 0.042680692, -0.09048176, 0
661, 3214426075, -0.3194174, 0.3611662, -0.05962825, -0.8740602, 0.015541121, 0.019386508, -0.06681728, 0
663, 3214459409, -0.31940603, 0.3612214, -0.05977676, -0.8740315, 0.036243044, 0.038779274, -0.03941822, 0
664, 3214476076, -0.31941006, 0.3612317, -0.059871294, -0.87401927, 0.011576882, 0.0710094, -0.11861324, 0
665, 3214492743, -0.31941497, 0.36125147, -0.059977163, -0.87400216, 0.003546969, 0.03982733, -0.09778023, 0
668, 3214542744, -0.31941393, 0.36125174, -0.060129452, -0.87399185, 0.01813946, 0.062306583, -0.097990036, 0
669, 3214559411, -0.31940916, 0.36124396, -0.060163043, -0.87399447, 0.015030911, 0.0743584, -0.102853775, 0
671, 3214592745, -0.31938672, 0.36127156, -0.060331717, -0.8739798, 0.008207493, 0.04035292, -0.09856224, 0
672, 3214609412, -0.31939515, 0.36126104, -0.060376503, -0.873978, 0.011014495, 0.0055095945, -0.06289387, 0
674, 3214642746, -0.3194793, 0.36123818, -0.060354352, -0.8739581, 0.009104731, 0.07771244, -0.1067543, 0
675, 3214659413, -0.3195026, 0.36123508, -0.060361072, -0.87395036, 0.010573573, 0.08019533, -0.10738754, 0
678, 3214709414, -0.3196243, 0.36122632, -0.060399376, -0.8739069, 0.027078148, 0.038814366, -0.07145977, 0
679, 3214726081, -0.31969535, 0.36121967, -0.060363073, -0.87388617, 0.01074512, 0.049155753, -0.07108593, 0
680, 3214742748, -0.3197589, 0.3612045, -0.06030046, -0.8738735, 0.020429127, 0.04869766, -0.097548485, 0
683, 3214792749, -0.31988338, 0.3612929, -0.060121387, -0.8738037, 0.019821618, 0.033955194, -0.09760666, 0
684, 3214809416, -0.31990558, 0.36134526, -0.060092457, -0.8737759, 0.011129031, 0.040217914, -0.0895834, 0
686, 3214842750, -0.31997427, 0.3614297, -0.060028456, -0.8737203, 0.020436851, 0.033077125, -0.11525059, 0
688, 3214876084, -0.32001904, 0.36150753, -0.05995768, -0.87367654, 0.015063013, 0.07075548, -0.096940994, 0
690, 3214909418, -0.32005683, 0.3617406, -0.05990747, -0.8735697, -0.0054053394, 0.040351912, -0.09148216, 0
691, 3214926085, -0.32007894, 0.36187336, -0.059893653, -0.8735076, 0.058711544, 0.07717645, -0.07922268, 0
694, 3214976086, -0.3201602, 0.36213392, -0.05981446, -0.8733751, 0.028856836, 0.030894408, -0.082387924, 0
698, 3215042754, -0.32039985, 0.36272386, -0.059201986, -0.8730841, -0.003983867, 0.05365976, -0.09450817, 0
699, 3215059421, -0.3204313, 0.36284417, -0.059161253, -0.87302536, -0.0059908875, 0.028577026, -0.08057213, 0
702, 3215109422, -0.3206169, 0.36301506, -0.058916748, -0.87290275, 0.031474758, 0.0441561, -0.09467888, 0
703, 3215126089, -0.3206806, 0.36301708, -0.058786616, -0.8728872, 0.054725625, 0.038507037, -0.10495186, 0
705, 3215159423, -0.32081887, 0.36301157, -0.058358952, -0.87286747, 0.025682058, 0.034326673, -0.084854126, 0
706, 3215176090, -0.32090634, 0.36303735, -0.058106326, -0.8728415, -0.018149043, 0.02152318, -0.08623886, 0
709, 3215226091, -0.32109264, 0.36324847, -0.05781755, -0.87270427, 0.016418451, 0.06276445, -0.087781906, 0
710, 3215242758, -0.32112944, 0.36330724, -0.057800718, -0.8726673, 0.04911126, 0.072995305, -0.118382454, 0
713, 3215292759, -0.32122588, 0.3632982, -0.05769118, -0.87264276, -0.0030112225, 0.017314207, -0.09755516, 0
714, 3215309426, -0.32123604, 0.36332634, -0.057671126, -0.8726287, -0.008999595, 0.08185894, -0.109051704, 0
717, 3215359427, -0.3212515, 0.36356497, -0.05772337, -0.87252015, 0.007995618, 0.047482647, -0.088217735, 0
718, 3215376094, -0.32126844, 0.36367503, -0.057733487, -0.8724674, 0.014780395, 0.06265906, -0.102417946, 0
719, 3215392761, -0.32125613, 0.36382136, -0.057773, -0.8724084, -0.027348053, 0.051975142, -0.10742283, 0
721, 3215426095, -0.32117903, 0.3640391, -0.05795918, -0.87233347, 0.058955606, 0.036592536, -0.119050026, 0
722, 3215442762, -0.3211388, 0.36411282, -0.058058757, -0.8723109, 0.036336444, 0.026009867, -0.09045315, 0
723, 3215459429, -0.32112938, 0.36412343, -0.05811569, -0.87230605, 0.043761685, 0.008119108, -0.06447506, 0
725, 3215492763, -0.32117558, 0.36413094, -0.058160987, -0.8722829, -0.016104206, 0.088602886, -0.10891533, 0
727, 3215526097, -0.32109037, 0.36442718, -0.05828953, -0.872182, 0.015161205, 0.13106476, -0.13208103, 0
729, 3215559431, -0.32091722, 0.36466676, -0.058435068, -0.872136, 0.030636515, 0.054525875, -0.07763386, 0
730, 3215576098, -0.3208701, 0.3647804, -0.058488145, -0.87210226, -0.011151453, 0.019256871, -0.044867516, 0
732, 3215609432, -0.3208359, 0.36507216, -0.05858542, -0.87198615, 0.0018084573, 0.09131834, -0.11556721, 0
733, 3215626099, -0.32078835, 0.36524853, -0.058671307, -0.87192404, 0.0055213287, 0.09246217, -0.086312294, 0
734, 3215642766, -0.3207522, 0.3654081, -0.058763836, -0.8718643, 0.016451728, 0.052335225, -0.08059788, 0
736, 3215676100, -0.32073605, 0.36559257, -0.058905713, -0.87178326, 0.053233884, 0.04269399, -0.10594845, 0
737, 3215692767, -0.32073593, 0.36555475, -0.058962665, -0.8717953, 0.043984905, 0.07470574, -0.09051514, 0
738, 3215709434, -0.32074457, 0.36546516, -0.059005342, -0.87182677, 0.026777871, 0.039150305, -0.090206146, 0
740, 3215742768, -0.3208497, 0.3652446, -0.0588852, -0.87188864, -0.030647399, -0.010946882, -0.048247337, 0
742, 3215776102, -0.3209842, 0.36524874, -0.058738116, -0.8718474, -0.00515928, 0.119683474, -0.1227684, 0
744, 3215809436, -0.32104102, 0.36528176, -0.05854156, -0.87182593, 0.026993757, 0.0052397023, -0.02740097, 0
746, 3215842770, -0.32121104, 0.3652143, -0.058083512, -0.8718222, -0.019059075, 0.025191363, -0.082868576, 0
748, 3215876104, -0.32137924, 0.36536914, -0.057660192, -0.8717234, 0.010590253, 0.18243429, -0.17286873, 0
749, 3215892771, -0.3214125, 0.36555132, -0.0575956, -0.871639, 0.048770513, 0.113418356, -0.1275816, 0
750, 3215909438, -0.32147196, 0.36569747, -0.05758336, -0.87155664, 0.022303058, 0.04855953, -0.082219124, 0
752, 3215942772, -0.3216515, 0.36580005, -0.057152946, -0.87147546, 0.021393836, 0.02384112, -0.013001442, 0
753, 3215959439, -0.32176328, 0.3657423, -0.056879286, -0.8714765, 0.05101109, 0.066696934, -0.12219238, 0
755, 3215992773, -0.3218943, 0.36562344, -0.056554604, -0.871499, 0.052975476, 0.16014569, -0.21772099, 0
757, 3216026107, -0.32189453, 0.36569113, -0.05669285, -0.8714616, -0.032323424, 0.034118917, -0.08220959, 0
759, 3216059441, -0.32194832, 0.3662439, -0.05643718, -0.87122613, 0.005909976, 0.10592938, -0.10542011, 0
760, 3216076108, -0.32192224, 0.36673808, -0.056375574, -0.871032, -0.022060687, 0.11164092, -0.14938545, 0
763, 3216126109, -0.32130653, 0.36897147, -0.056866143, -0.8702839, 0.054766208, 0.030662177, -0.121878624, 0
764, 3216142776, -0.32108924, 0.36962664, -0.05701536, -0.8700762, 0.0164567, -0.070604056, -0.06363678, 0
765, 3216159443, -0.32094866, 0.3701773, -0.05712718, -0.8698867, 0.068507515, -0.047467783, -0.02170086, 0
767, 3216192777, -0.32072586, 0.37112588, -0.057123784, -0.8695648, 0.05607419, 0.1586794, -0.09452438, 0
768, 3216209444, -0.32057273, 0.37144214, -0.057190932, -0.8694818, -0.0050016055, 0.08828929, -0.12787437, 0
769, 3216226111, -0.32040662, 0.37180045, -0.05732593, -0.86938107, 0.022302276, 0.15197283, -0.110339165, 0
772, 3216276112, -0.31999657, 0.37307388, -0.05789578, -0.8689486, -0.0049335454, 0.020349067, -0.06701851, 0
773, 3216292779, -0.31993288, 0.37335363, -0.057991404, -0.8688455, 0.04870333, 0.0033847685, -0.14605045, 0
775, 3216326113, -0.31990483, 0.37379158, -0.05797619, -0.8686686, -0.016245648, 0.020930983, -0.08440685, 0
776, 3216342780, -0.3198871, 0.37415415, -0.057947434, -0.86852103, 0.007884475, 0.12741256, -0.106282234, 0
779, 3216392781, -0.31973383, 0.3756358, -0.05789109, -0.86794144, 0.005002318, 0.15978572, -0.120230675, 0
780, 3216409448, -0.3196073, 0.37615824, -0.05800528, -0.86775404, 0.022320786, 0.05042307, -0.12840176, 0
782, 3216442782, -0.31930345, 0.3772888, -0.058190044, -0.8673626, 0.015361026, 0.0640207, -0.096987724, 0
783, 3216459449, -0.31914333, 0.37794927, -0.058245417, -0.86713034, 0.049586028, 0.04665766, -0.104953766, 0
784, 3216476116, -0.31902236, 0.37859082, -0.058254845, -0.8668942, -0.006079203, -0.040027145, -0.11868572, 0
787, 3216526117, -0.31792486, 0.38162178, -0.058654837, -0.8659409, -0.1544217, 0.010560093, -0.08485794, 0
788, 3216542784, -0.31735545, 0.3835069, -0.05861695, -0.86531925, -0.14039803, -0.08022886, 0.004611969, 0
790, 3216576118, -0.3163015, 0.3880224, -0.05831628, -0.863711, -0.16620515, -0.034049965, -0.04191017, 0
791, 3216592785, -0.31584182, 0.3905009, -0.05832543, -0.8627611, -0.07830874, -0.09165752, -0.0013494492, 0
792, 3216609452, -0.31539974, 0.39308062, -0.05845807, -0.8617417, -0.097418375, 0.1533139, -0.050427437, 0
795, 3216659453, -0.31368256, 0.40259418, -0.059543714, -0.85789347, -0.010374312, 0.08460032, -0.12343407, 0
796, 3216676120, -0.31310883, 0.40623173, -0.06007359, -0.85635, 0.0011412152, 0.12404455, -0.10192776, 0
798, 3216709454, -0.3122515, 0.41457307, -0.06138396, -0.85256416, -0.043464582, 0.1047546, 3.5953522E-4, 0
799, 3216726121, -0.3117698, 0.41925633, -0.062193464, -0.85038877, -0.16243167, 0.23532975, -0.10235691, 0
802, 3216776122, -0.30999368, 0.4334375, -0.06529332, -0.8436694, 0.0469248, 0.06497723, -0.08189201, 0
803, 3216792789, -0.3095584, 0.4379513, -0.06631101, -0.8414158, 0.04524834, 0.018836778, -0.05820465, 0
804, 3216809456, -0.30899635, 0.44262594, -0.06730143, -0.8390942, 0.07734706, 0.09595691, -0.093351364, 0
806, 3216842790, -0.30767953, 0.45246089, -0.06847059, -0.83422405, -0.17008881, 0.25796, -0.21414089, 0
807, 3216859457, -0.30646893, 0.4589491, -0.06872062, -0.8310988, -0.42213225, -0.1955755, -0.09969902, 0
808, 3216876124, -0.30525038, 0.46644002, -0.068797074, -0.8273623, -0.46931332, 0.05220525, -0.14109993, 0
810, 3216909458, -0.3023285, 0.4847343, -0.07054359, -0.81771564, -0.06140162, 0.6396603, -0.17103672, 0
811, 3216926125, -0.30013013, 0.49535155, -0.07310237, -0.8119177, -0.2810194, 0.697853, -0.20727158, 0
813, 3216959459, -0.29112116, 0.52235043, -0.08218291, -0.79727656, -0.8052837, 1.3110306, -0.21491814, 0
814, 3216976126, -0.28288603, 0.5400214, -0.08960097, -0.78760993, -1.0390773, 1.6983166, -0.45778656, 0
817, 3217026127, -0.24175017, 0.6228526, -0.13834769, -0.7310792, -0.5203517, 2.6001942, -0.048464775, 0
818, 3217042794, -0.22521621, 0.6601926, -0.17266233, -0.6954252, -0.5959571, 3.0113842, 2.2358713, 0
819, 3217059461, -0.20442946, 0.69493437, -0.21203327, -0.65598935, -1.3807068, 4.201926, 4.8909273, 0
821, 3217092795, -0.14891034, 0.7392596, -0.28624555, -0.59109193, -2.076252, 7.697702, 9.562534, 0
822, 3217109462, -0.119548395, 0.7484048, -0.31206605, -0.5729038, -1.6179298, 7.4999433, 7.7420044, 0
825, 3217159463, -0.06065709, 0.78845054, -0.39182445, -0.47026092, -9.728817, 38.787334, 13.623312, 0
826, 3217176130, -0.07663633, 0.7999533, -0.4060912, -0.43508255, -8.331581, 20.04123, -0.1715231, 0
827, 3217192797, -0.088782854, 0.81111133, -0.4161505, -0.4012981, -9.969487, 13.271898, -3.4658575, 0
829, 3217226131, -0.09799054, 0.82429236, -0.43309173, -0.35125068, -13.048556, 12.97129, -7.584709, 0
831, 3217259465, -0.1047002, 0.8254933, -0.43953282, -0.3382528, -9.808088, 15.711147, -9.891546, 0
833, 3217292799, -0.13592988, 0.81533015, -0.43670303, -0.35504305, -5.1030087, 8.7463, -11.08266, 0
834, 3217309466, -0.15701821, 0.8063114, -0.43497944, -0.36878935, -4.8255086, 8.063017, -10.625991, 0
836, 3217342800, -0.2014773, 0.7802902, -0.42748848, -0.40964997, -5.361043, 5.7637215, -10.043967, 0
837, 3217359467, -0.22030658, 0.7643789, -0.418888, -0.4378679, -6.424196, 6.0593047, -8.718462, 0
838, 3217376134, -0.23609747, 0.7456532, -0.4050697, -0.47347972, -7.3108196, 6.2254663, -5.877432, 0
841, 3217426135, -0.28245807, 0.67174184, -0.33335322, -0.59821504, -1.2182494, 3.5159333, -0.21673775, 0
842, 3217442802, -0.30729073, 0.64467394, -0.304463, -0.6302981, -3.008094, 2.3829377, 1.0485725, 0
844, 3217476136, -0.35936385, 0.58915836, -0.22797433, -0.68686473, -4.3976254, -6.900628, 10.429787, 0
846, 3217509470, -0.40058357, 0.5184667, -0.1708319, -0.7358986, 6.881462, -16.618198, 11.984989, 0
848, 3217542804, -0.42917252, 0.46644053, -0.13220859, -0.76208293, 9.557462, -22.505556, 4.9721746, 0
849, 3217559471, -0.43691793, 0.45987073, -0.10582826, -0.7657855, 9.857161, -24.233849, 0.77045345, 0
850, 3217576138, -0.43903553, 0.45820358, -0.083608195, -0.76831776, 14.429104, -25.055582, 0.22119617, 0
852, 3217609472, -0.43291554, 0.45407426, -0.06431286, -0.7760604, 15.017258, -24.744236, -5.408388, 0
853, 3217626139, -0.42292166, 0.45689267, -0.06091059, -0.7801806, 15.241366, -22.977745, -9.784162, 0
854, 3217642806, -0.40673968, 0.46959668, -0.059779115, -0.78132814, 16.653645, -21.54436, -10.82173, 0
857, 3217692807, -0.3827715, 0.46021238, -0.11431774, -0.79286027, -21.195097, 1.9156467, 6.5240765, 0
858, 3217709474, -0.37823048, 0.4634521, -0.118850514, -0.79248565, 0.55864453, 0.59118706, 1.5921745, 0
861, 3217759475, -0.37145007, 0.4779043, -0.12699418, -0.78581816, -0.46883005, -0.4883813, -0.07298756, 0
863, 3217792809, -0.36530316, 0.49277937, -0.1334036, -0.7784157, 0.010287295, 1.962627, -0.2796135, 0
864, 3217809476, -0.35896787, 0.5040505, -0.14032967, -0.77290905, -1.3514817, 1.0180435, -0.32307053, 0
865, 3217826143, -0.35252842, 0.5185281, -0.14830834, -0.76476306, -2.2261758, -0.07472295, -0.4153347, 0
868, 3217876144, -0.3325072, 0.5689387, -0.16925402, -0.73287535, 0.69731367, 0.38645178, -0.11731529, 0
871, 3217926145, -0.3053397, 0.6208774, -0.18695311, -0.6973756, 1.1655873, -1.116515, 0.1015625, 0
872, 3217942812, -0.2972933, 0.6361281, -0.19128191, -0.6858383, 0.9485045, -0.09685397, 0.2809887, 0
873, 3217959479, -0.2894167, 0.6518698, -0.19795896, -0.67239964, -0.65763396, 1.5044574, 0.19892025, 0
877, 3218026147, -0.21482626, 0.7550094, -0.3071096, -0.5380518, -3.1698246, 9.996599, 11.479626, 0
879, 3218059481, -0.1637078, 0.76590186, -0.3671323, -0.5018101, 6.7115645, 14.2665205, 27.888645, 0
880, 3218076148, -0.1629508, 0.7652088, -0.37694207, -0.49580505, 33.65768, 7.847263, 18.853344, 0
881, 3218092815, -0.17093784, 0.78010917, -0.39641094, -0.45285046, 8.799078, 17.34885, 20.660576, 0
884, 3218142816, -0.1686643, 0.8277104, -0.43403763, -0.31315276, -20.11613, 16.449245, -1.0332861, 0
885, 3218159483, -0.14953755, 0.84336007, -0.43593323, -0.2763152, -21.31746, 16.767605, -5.203301, 0
887, 3218192817, -0.09314273, 0.86266553, -0.44656444, -0.21844485, -18.133562, 14.91883, -19.457827, 0
888, 3218209484, -0.07108495, 0.86434954, -0.4564043, -0.1988649, -10.548581, 13.70465, -21.518536, 0
892, 3218276152, -0.0702971, 0.8504737, -0.48146752, -0.19986828, -3.9563522, 6.8442283, -18.115881, 0
894, 3218309486, -0.10284224, 0.83354723, -0.49118364, -0.23101227, -3.2721949, 5.6410885, -15.444979, 0
895, 3218326153, -0.12257522, 0.8230946, -0.49284026, -0.25417352, -5.9307375, 9.471955, -14.215265, 0
896, 3218342820, -0.14447892, 0.8100772, -0.48986813, -0.28798524, -7.169455, 11.206445, -11.344699, 0
898, 3218376154, -0.18332662, 0.7759636, -0.46910718, -0.37975746, -6.6668563, 8.017131, -3.6908016, 0
899, 3218392821, -0.19872387, 0.75672376, -0.4505844, -0.4299502, -3.414284, 6.775674, -1.1426144, 0
900, 3218409488, -0.21723677, 0.73641604, -0.4295377, -0.47539687, -2.559127, 7.531117, 0.7830143, 0
902, 3218442822, -0.26159543, 0.69011617, -0.376494, -0.5599691, -8.566978, 3.651762, 5.1342106, 0
903, 3218459489, -0.27896032, 0.66372055, -0.34513518, -0.6021155, -6.7507744, 3.2696934, 9.882353, 0
906, 3218509490, -0.33033088, 0.5694798, -0.26012325, -0.7063396, 2.0530453, -2.7236714, 8.799364, 0
907, 3218526157, -0.35415515, 0.5440293, -0.22857985, -0.72550863, -3.435701, -4.5926013, 9.55138, 0
910, 3218576158, -0.41848361, 0.45787817, -0.1511489, -0.7696613, 5.0158267, -17.01225, 10.100182, 0
911, 3218592825, -0.4276015, 0.4298699, -0.1343508, -0.7837882, 9.394416, -17.248144, 7.4671307, 0
912, 3218609492, -0.4336374, 0.4072572, -0.11837801, -0.79504216, 10.503045, -16.174437, 3.3275166, 0
914, 3218642826, -0.4442733, 0.39058396, -0.07830845, -0.8024579, 10.213843, -18.203962, -1.190341, 0
915, 3218659493, -0.44762284, 0.38989067, -0.055180084, -0.8028573, 12.996215, -23.652777, -0.8949671, 0
917, 3218692827, -0.44041103, 0.38527817, -0.019391268, -0.81069624, 14.60461, -25.702862, -18.734222, 0
918, 3218709494, -0.42530385, 0.39465585, -0.013922489, -0.8143555, 17.71683, -25.95466, -16.148825, 0
921, 3218759495, -0.37441486, 0.4507933, -0.026117187, -0.80989033, 26.761475, -17.262905, -2.9031477, 0
922, 3218776162, -0.36016205, 0.45467845, -0.0642678, -0.81205034, 36.752163, -8.39466, 24.327019, 0
923, 3218792829, -0.35858697, 0.4345763, -0.09441983, -0.82076114, -33.401924, -33.27493, 29.226894, 0
926, 3218842830, -0.350698, 0.42508945, -0.10372325, -0.8279836, -4.558433, -0.63021725, 0.13514137, 0
927, 3218859497, -0.346835, 0.44122437, -0.10855628, -0.8205165, -2.0260172, 1.6260523, -0.1596365, 0
929, 3218892831, -0.3303187, 0.49450725, -0.12620118, -0.79399675, -1.3254802, 0.031915303, -0.4647112, 0
930, 3218909498, -0.31999287, 0.52222973, -0.13401558, -0.77905464, 1.108413, -0.65177375, -0.71538925, 0
931, 3218926165, -0.30869067, 0.5471562, -0.14029145, -0.7652802, 2.6494913, 0.12531276, -0.18238068, 0
933, 3218959499, -0.28089547, 0.5949966, -0.1639916, -0.73497546, -0.5481156, 2.8252215, -0.5273342, 0
935, 3218992833, -0.24043183, 0.67519736, -0.23810872, -0.6554469, -3.0414717, 5.621043, 2.593874, 0
937, 3219026167, -0.16594796, 0.7477495, -0.3311344, -0.55107826, -5.9072666, 17.06077, 20.058773, 0
938, 3219042834, -0.13643081, 0.75412655, -0.3570727, -0.53402656, -4.873687, 25.607937, 19.61237, 0
939, 3219059501, -0.12062951, 0.7583477, -0.37437242, -0.5198153, 17.981674, 30.745537, 14.28907, 0
942, 3219109502, -0.14051521, 0.80156356, -0.42198956, -0.39960182, -14.245785, 17.550308, 3.9585419, 0
944, 3219142836, -0.10886686, 0.8252023, -0.42066646, -0.36088017, -15.951429, 21.386997, -8.8458395, 0
945, 3219159503, -0.09614059, 0.8295684, -0.42248678, -0.352255, -14.825153, 19.267056, -13.303463, 0
946, 3219176170, -0.08898605, 0.8304525, -0.42385057, -0.35040897, -13.1337805, 17.195908, -16.543379, 0
948, 3219209504, -0.09388073, 0.8264806, -0.41449735, -0.36920682, -7.7309303, 6.753251, -18.127426, 0
950, 3219242838, -0.118879355, 0.8078808, -0.41498432, -0.40123522, -6.2369256, 5.605027, -15.979515, 0
952, 3219276172, -0.15808494, 0.7773376, -0.41479436, -0.44576532, -6.887343, 2.988849, -13.53668, 0
953, 3219292839, -0.17080513, 0.75482446, -0.420562, -0.47349623, -10.231938, -14.286502, -11.178376, 0
954, 3219309506, -0.18678696, 0.7305995, -0.42179722, -0.5034159, -14.8503685, 12.227592, -4.1302395, 0
956, 3219342840, -0.22539398, 0.6870276, -0.39610836, -0.5659454, 2.3560183, 6.0677795, -0.6217184, 0
958, 3219376174, -0.28529063, 0.64135534, -0.37028047, -0.6084161, 2.4006774, 1.1254787, 4.679967, 0
960, 3219409508, -0.33764574, 0.5937702, -0.34665963, -0.6428568, 8.112365, -7.686573, 10.64575, 0
961, 3219426175, -0.36227304, 0.57208425, -0.34004462, -0.652574, 13.615448, -9.207696, 8.818596, 0
962, 3219442842, -0.3894768, 0.5560218, -0.3346309, -0.6535863, 12.60986, -8.113917, 5.9261656, 0
965, 3219492843, -0.46919036, 0.5245586, -0.31039232, -0.6390312, 4.747443, -6.746685, 2.3990135, 0
966, 3219509510, -0.48872137, 0.518098, -0.29944906, -0.6348712, 3.8370326, -10.680279, 3.9360142, 0
968, 3219542844, -0.52185833, 0.50966203, -0.2861494, -0.62131494, 7.5724006, -9.502721, 1.5345755, 0
969, 3219559511, -0.5411736, 0.50962204, -0.2794208, -0.60773844, 5.564754, -6.005367, 1.6288481, 0
971, 3219592845, -0.57556355, 0.50490266, -0.26426715, -0.58648777, -1.8089638, -7.2585816, 2.0998354, 0
972, 3219609512, -0.583787, 0.5036558, -0.2563667, -0.58292794, -0.7112363, -10.873803, 0.48973083, 0
973, 3219626179, -0.5764319, 0.51731795, -0.26182005, -0.5758161, 0.1797413, -28.868975, -0.96267414, 0
975, 3219659513, -0.58267033, 0.53359854, -0.2730589, -0.54882765, 26.031528, -3.4657815, -7.830421, 0
976, 3219676180, -0.6001883, 0.5368206, -0.29002482, -0.51719284, -1.5219607, 4.725738, -1.7599363, 0
977, 3219692847, -0.611651, 0.545259, -0.28313014, -0.49841592, -32.92617, 14.182699, 3.6149712, 0
980, 3219742848, -0.5962799, 0.52522624, -0.30250722, -0.526386, -8.315689, 1.3631817, 0.20210457, 0
981, 3219759515, -0.58845747, 0.51508254, -0.30670038, -0.54253834, 5.688837, 8.799893, -0.468606, 0
983, 3219792849, -0.58049375, 0.49218225, -0.31157678, -0.5689541, -13.671542, 3.2957466, -0.08056831, 0
984, 3219809516, -0.5830903, 0.48067164, -0.3082805, -0.5778658, -6.167765, -0.23961438, 3.0914345, 0
985, 3219826183, -0.5897027, 0.46790165, -0.30097798, -0.5854367, 0.9486688, 1.511902, 3.138709, 0
988, 3219876184, -0.60625374, 0.4257719, -0.28526646, -0.6081141, 2.7492754, 5.84499, -2.3514585, 0
989, 3219892851, -0.6096133, 0.41357955, -0.28051135, -0.61533916, 2.9997835, 3.5914803, -0.53675747, 0
991, 3219926185, -0.6217544, 0.39242825, -0.26156813, -0.6253072, -8.356307, -1.6911513, 0.5004997, 0
992, 3219942852, -0.6286244, 0.38441396, -0.2473825, -0.62917763, -7.266246, -0.3079861, 0.5692787, 0
993, 3219959519, -0.63571864, 0.3774942, -0.22980812, -0.63289285, -3.0198557, 0.9042758, 0.6220293, 0
995, 3219992853, -0.649381, 0.36430764, -0.19925147, -0.63709384, 3.375574, -4.900759, 1.2946749, 0
996, 3220009520, -0.6540409, 0.35584608, -0.18731706, -0.6407195, 4.236847, -0.52931666, 2.6451845, 0
998, 3220042854, -0.65722126, 0.34993938, -0.17792118, -0.6433911, -2.7341862, -1.8155046, 2.8469563, 0
999, 3220059521, -0.6561302, 0.35054195, -0.17754047, -0.64428127, -3.5878882, -3.2457528, 0.1381979, 0
1000, 3220076188, -0.65409184, 0.35217533, -0.17804325, -0.64532346, -0.22567628, -2.4970858, -2.743597, 0
1003, 3220126189, -0.6536416, 0.34954247, -0.17210354, -0.6488131, -2.2901106, -2.5836887, 2.2873392, 0
1004, 3220142856, -0.6519946, 0.34831375, -0.17182286, -0.6512012, -3.0677264, -3.5443728, 0.7485113, 0
1006, 3220176190, -0.6479012, 0.3487951, -0.17292652, -0.6547274, 0.65020055, 0.18125604, -0.33441353, 0
1007, 3220192857, -0.6464455, 0.3497891, -0.17387216, -0.65538514, 1.0771031, 1.4797683, -0.6944599, 0
1008, 3220209524, -0.64501613, 0.350083, -0.17450157, -0.6564683, 0.44138512, 2.3867943, -1.740571, 0
1010, 3220242858, -0.64086825, 0.34855157, -0.17622381, -0.6608708, -2.3411632, 1.5648993, 0.23402882, 0
1011, 3220259525, -0.63837343, 0.34744832, -0.17925353, -0.6630478, -2.3540545, 0.83294886, 1.6446505, 0
1012, 3220276192, -0.6354317, 0.34639812, -0.18357767, -0.66523623, -1.4352309, 0.9866773, 1.0043831, 0
1014, 3220309526, -0.62367857, 0.35022277, -0.19285041, -0.6717016, 2.643125, 1.6605661, -0.061317444, 0
1015, 3220326193, -0.61864114, 0.35143796, -0.19574058, -0.6748817, 1.2191494, 3.4278672, -2.5273976, 0
1018, 3220376194, -0.6112105, 0.35211846, -0.19538738, -0.6813685, -1.1333867, -0.00764079, 6.258621, 0
1019, 3220392861, -0.60733914, 0.35494867, -0.196293, -0.6830994, -2.2001085, 2.2355154, 4.77806, 0
1020, 3220409528, -0.5939037, 0.36835125, -0.19853972, -0.6871554, -3.0408125, 4.0505967, -1.9468246, 0
1022, 3220442862, -0.56031966, 0.40227005, -0.1998755, -0.6958992, 0.36275613, 3.4392538, -4.564178, 0
1023, 3220459529, -0.550323, 0.40918458, -0.1982873, -0.7002855, -2.2111094, -1.0937902, 0.070833206, 0
1025, 3220492863, -0.5329389, 0.40972427, -0.18877892, -0.7158699, -1.958516, -3.1732209, 2.3548822, 0
1026, 3220509530, -0.52506906, 0.407598, -0.18224853, -0.7245393, -1.9225187, 0.41870728, 0.15225792, 0
1027, 3220526197, -0.52083683, 0.4058062, -0.1770369, -0.7298721, -1.3564306, -0.38370457, -3.1158924, 0
1029, 3220559531, -0.52392995, 0.39532852, -0.1615463, -0.73696715, -5.7870774, -2.2930639, -3.868998, 0
1030, 3220576198, -0.5284295, 0.38482082, -0.14772137, -0.7421986, -4.8874087, -0.067353174, -1.8644266, 0
1033, 3220626199, -0.5296411, 0.37324932, -0.12967671, -0.7505691, 3.7741163, -1.3070146, 5.7352467, 0
1034, 3220642866, -0.52771837, 0.3710539, -0.12959747, -0.7530216, 1.4824233, -4.165793, 2.530486, 0
1035, 3220659533, -0.52530366, 0.36909044, -0.13041349, -0.75553006, -0.06094701, -4.3861284, -1.1261272, 0
1037, 3220692867, -0.5205743, 0.364215, -0.13077402, -0.7610867, -0.7967557, -0.82026863, -2.0568714, 0
1038, 3220709534, -0.5181996, 0.36290327, -0.13009077, -0.7634473, -0.031413265, -3.717404, -0.5968666, 0
1039, 3220726201, -0.5159231, 0.3623933, -0.12918589, -0.76538247, -0.09356241, -4.3577905, 1.8901911, 0
1041, 3220759535, -0.51188767, 0.36091888, -0.12978911, -0.7686796, 2.90664, -1.0242238, -0.42019463, 0
1042, 3220776202, -0.5100551, 0.35991094, -0.13112172, -0.7701428, 2.4363823, 0.62254864, -0.7959757, 0
1043, 3220792869, -0.50835794, 0.35825092, -0.13285205, -0.77174073, 2.0015864, 0.91145396, -0.6554432, 0
1045, 3220826203, -0.50536853, 0.35301286, -0.13829319, -0.7751545, 1.6092987, -1.3457161, -0.5234451, 0
1046, 3220842870, -0.50398505, 0.34966043, -0.14204292, -0.7768948, 2.1189003, -1.8926063, 0.3975973, 0
1047, 3220859537, -0.50244564, 0.34660625, -0.14593552, -0.77853745, 2.0229664, -0.90773326, 0.3453045, 0
1049, 3220892871, -0.50022787, 0.3416033, -0.15235297, -0.7809435, 1.3236588, -0.56517386, -0.24228191, 0
1050, 3220909538, -0.49999216, 0.33909038, -0.15502097, -0.7816645, 1.2000489, 0.020057159, -0.3509941, 0
1052, 3220942872, -0.5001509, 0.33570382, -0.15976515, -0.78206897, 1.9200549, -0.040547263, 0.2217722, 0
1053, 3220959539, -0.5010221, 0.33423305, -0.16134545, -0.78181696, 1.3858021, 0.31552887, 0.70962906, 0
1054, 3220976206, -0.502252, 0.33298665, -0.16262183, -0.7812951, 0.8266203, 0.6150222, 0.17688179, 0
1056, 3221009540, -0.50574183, 0.33158803, -0.16431054, -0.7792827, 1.3598907, 0.72976065, -0.27734947, 0
1057, 3221026207, -0.5077875, 0.3313796, -0.16504712, -0.77788424, 1.1776303, 0.7255683, 0.020581245, 0
1060, 3221076208, -0.51287466, 0.3302862, -0.16977413, -0.7739847, 1.7323468, 1.3034061, -0.41150856, 0
1061, 3221092875, -0.51500225, 0.32998905, -0.17130218, -0.77236027, 0.42758894, 1.6812513, -1.1100101, 0
1062, 3221109542, -0.5173157, 0.32958362, -0.17238957, -0.7707438, -0.2616522, 0.74828726, -0.55312634, 0
1064, 3221142876, -0.52180386, 0.3296872, -0.17419118, -0.7672611, 0.87169373, -0.23660903, 1.0984049, 0
1065, 3221159543, -0.52359873, 0.33000618, -0.17552978, -0.7655942, 0.4712808, 0.5047354, 0.52920246, 0
1066, 3221176210, -0.525127, 0.33050275, -0.17703699, -0.76398456, 0.43727073, 1.8975521, -0.35927677, 0
1068, 3221209544, -0.5280651, 0.33227125, -0.18001786, -0.76048774, -0.67044145, 2.2175426, -1.0499401, 0
1069, 3221226211, -0.5298562, 0.3330074, -0.18103111, -0.7586774, -0.7723048, 1.52809, -1.0032301, 0
1070, 3221242878, -0.5320887, 0.33375418, -0.18132213, -0.7567146, 0.7601426, 0.94757694, 0.086652756, 0
1072, 3221276212, -0.53672326, 0.33503255, -0.18096338, -0.7529531, -0.7679318, 1.5516747, -0.89186287, 0
1074, 3221309546, -0.54029065, 0.33607802, -0.18113105, -0.7498893, 0.05921093, 1.7724665, -0.003399849, 0
1076, 3221342880, -0.5432457, 0.33666453, -0.18222335, -0.74722207, 0.9438619, 0.49313015, 0.30077934, 0
1077, 3221359547, -0.5444428, 0.33684325, -0.18299285, -0.7460813, 0.56890136, 1.2291069, 0.41029358, 0
1079, 3221392881, -0.54600567, 0.33744365, -0.18603866, -0.74391145, -0.038253516, -0.02155749, 0.22488594, 0
1080, 3221409548, -0.546781, 0.337595, -0.18781556, -0.7428259, 0.9152269, 0.597371, 0.38571262, 0
1081, 3221426215, -0.5476469, 0.3379884, -0.18947177, -0.7415875, 1.2611375, 0.44678518, 0.23649693, 0
1083, 3221459549, -0.54902273, 0.34009126, -0.19353612, -0.73855317, 0.65977746, 0.58795387, -0.6646023, 0
1084, 3221476216, -0.54972786, 0.341651, -0.1955184, -0.73678446, 0.41558883, 0.22158895, 0.2246294, 0
1085, 3221492883, -0.5506055, 0.34436098, -0.19718716, -0.734419, -0.30878347, 1.0353943, -1.7464476, 0
1087, 3221526217, -0.5537438, 0.34894648, -0.1987645, -0.7294532, -0.40443316, 2.0272543, 0.76017857, 0
1089, 3221559551, -0.5565967, 0.35432667, -0.2007913, -0.72411364, 0.79718167, 0.6861936, -0.012683868, 0
1091, 3221592885, -0.5592785, 0.35748115, -0.2016134, -0.720258, -1.5222182, 1.9893476, -1.0398722, 0
1092, 3221609552, -0.55964905, 0.36054528, -0.20266193, -0.7181456, -0.7220384, 3.0464523, -0.21369553, 0
1093, 3221626219, -0.5596744, 0.36367753, -0.20422398, -0.71610105, -1.2108753, 2.7118785, -0.5518818, 0
1095, 3221659553, -0.5588101, 0.36307648, -0.2060043, -0.7165709, 1.0940835, 0.5793496, 2.1543293, 0
1096, 3221676220, -0.5594391, 0.35858625, -0.20406753, -0.71889174, -0.678238, 3.5531933, -1.3834295, 0
1097, 3221692887, -0.5593159, 0.35572705, -0.20314197, -0.72066796, -2.1289487, 1.6489346, 0.99486923, 0
1099, 3221726221, -0.558541, 0.35638976, -0.20316714, -0.72093445, -3.3491995, 2.3256109, -0.24391174, 0
1100, 3221742888, -0.55549395, 0.36483684, -0.20811619, -0.7176443, -1.4407835, 2.6775324, 0.47759628, 0
1101, 3221759555, -0.5523175, 0.37378222, -0.2133569, -0.713944, -0.14483103, 4.3154244, -1.133873, 0
1104, 3221809556, -0.55303293, 0.37969103, -0.20896032, -0.71156865, 0.16912231, 1.7604696, 0.3218279, 0
1106, 3221842890, -0.5570044, 0.37495947, -0.19996966, -0.71356016, -1.4478208, 3.1095395, 2.65139, 0
1107, 3221859557, -0.55547774, 0.37922063, -0.20168817, -0.71201324, -2.4912608, 3.2030833, 0.28402138, 0
1108, 3221876224, -0.55095845, 0.3886875, -0.20668577, -0.70898, -2.1241705, 0.4871742, 0.8541889, 0
1110, 3221909558, -0.5370486, 0.4059968, -0.21102667, -0.70867354, -0.33734447, -1.1146634, -2.6156807, 0
1111, 3221926225, -0.5325543, 0.4085788, -0.20777725, -0.71153533, -0.42524725, -1.8818991, -2.478538, 0
1112, 3221942892, -0.5322386, 0.40472606, -0.2013013, -0.71582216, -0.49035484, -2.60301, -1.6447983, 0
1114, 3221976226, -0.5372793, 0.3857492, -0.18425238, -0.727038, -0.97473395, -0.55785716, -0.99460983, 0
1115, 3221992893, -0.54001874, 0.37247357, -0.17534669, -0.73409915, -0.82679284, 1.0669234, -1.1947136, 0
1116, 3222009560, -0.5416114, 0.36365482, -0.1669116, -0.73929536, -4.1367106, 3.634507, -0.026183128, 0
1118, 3222042894, -0.5411873, 0.359459, -0.15800375, -0.7436029, -0.7693534, -0.7021242, 3.8608494, 0
1119, 3222059561, -0.5411588, 0.35841206, -0.15518081, -0.7447226, 1.4264159, -0.09849121, 1.7499704, 0
1120, 3222076228, -0.54153895, 0.35804045, -0.15265402, -0.7451473, 1.4728093, -3.8391118, 0.7916279, 0
1122, 3222109562, -0.54175484, 0.35696754, -0.14721435, -0.7465979, 1.7747494, -3.4010723, -0.8115673, 0
1123, 3222126229, -0.54217625, 0.3564992, -0.14462768, -0.74702144, 2.317484, -4.100193, -0.72297573, 0
1124, 3222142896, -0.5425783, 0.35646832, -0.14269514, -0.74711585, 0.97284216, -3.962604, -1.2177715, 0
1126, 3222176230, -0.54221284, 0.3548559, -0.1399238, -0.74867135, 2.2302628, -2.7793849, 0.37324905, 0
1127, 3222192897, -0.5415558, 0.35431778, -0.13967626, -0.7494476, 2.114066, -5.561542, -0.4049387, 0
1128, 3222209564, -0.54057264, 0.35349953, -0.14026485, -0.75043315, -0.15824376, -3.3568351, 1.0837088, 0
1131, 3222259565, -0.5365306, 0.35038024, -0.14272675, -0.7543225, 0.21215972, -0.12111686, -0.17703915, 0
1133, 3222292899, -0.5351162, 0.3483209, -0.1435324, -0.7561261, -0.60457444, -0.8192808, 0.078998566, 0
1134, 3222309566, -0.5346056, 0.34756583, -0.1436764, -0.7568069, -0.01391927, -0.6695743, -0.12819481, 0
1135, 3222326233, -0.5342444, 0.34715927, -0.14374308, -0.7572359, 0.32764006, -0.8203635, -1.226284, 0
1137, 3222359567, -0.53458506, 0.34663743, -0.14288421, -0.75739706, 0.60797954, 0.8574306, -0.057574272, 0
1138, 3222376234, -0.53487307, 0.34692043, -0.14230515, -0.75717306, 1.1734486, -1.1954926, -0.20569992, 0
1139, 3222392901, -0.5352368, 0.34745067, -0.14153822, -0.75681674, 1.1410271, -0.6366011, -0.26695156, 0
1141, 3222426235, -0.53706014, 0.3490821, -0.13887793, -0.7552655, -0.5606072, -0.34366593, -0.2577982, 0
1142, 3222442902, -0.5379411, 0.35074168, -0.1371184, -0.7541903, -0.037982784, -0.88173884, 0.44391632, 0
1143, 3222459569, -0.53885317, 0.35302335, -0.13467264, -0.75291413, -0.48968223, 0.8607455, -0.10424423, 0
1146, 3222509570, -0.54158306, 0.35874268, -0.1274591, -0.7495001, -0.16668998, 0.45972145, 0.80901146, 0
1147, 3222526237, -0.54205894, 0.35996762, -0.12546828, -0.74890447, -0.62302274, 0.023460591, 0.06202793, 0
1149, 3222559571, -0.54296386, 0.36174828, -0.12182754, -0.74799156, -3.158898, 0.05170514, -0.2128315, 0
1150, 3222576238, -0.5425362, 0.36335167, -0.120238625, -0.7477819, -0.6071612, -0.8861132, -0.8378811, 0
1151, 3222592905, -0.54130554, 0.3644477, -0.11855662, -0.74840856, 0.47187048, 1.2163532, -0.124920845, 0
1153, 3222626239, -0.540711, 0.3658781, -0.115720406, -0.74858433, -2.7734177, 0.38200107, 0.012663841, 0
1154, 3222642906, -0.5397881, 0.36529127, -0.115276635, -0.74960476, -1.7100306, -1.3480505, 0.9126015, 0
1155, 3222659573, -0.5383088, 0.36459148, -0.11469787, -0.7510964, -0.7058419, 0.6778036, 1.0651722, 0
1157, 3222692907, -0.53721696, 0.36552694, -0.11209595, -0.75181603, -1.3126212, -0.11506134, -0.8282528, 0
1158, 3222709574, -0.5366172, 0.36657086, -0.11091517, -0.7519113, -2.1903133, -1.0418013, -1.3499908, 0
1161, 3222759575, -0.53227514, 0.37068263, -0.106833965, -0.75357074, -1.6207051, 0.582568, 0.15603161, 0
1162, 3222776242, -0.5311604, 0.37214723, -0.10465434, -0.7539412, -4.4708576, -0.28301054, -0.3985262, 0
1164, 3222809576, -0.5269842, 0.3736658, -0.101266876, -0.7565788, -0.46925014, -0.042407785, 0.6672554, 0
1165, 3222826243, -0.52477527, 0.37362933, -0.10054185, -0.75822705, -0.18774946, -0.5571788, -0.5878105, 0
1166, 3222842910, -0.5222434, 0.37244478, -0.10092072, -0.7605041, -1.033682, -1.9274101, 0.11187935, 0
1168, 3222876244, -0.5161243, 0.36975804, -0.1019613, -0.7658351, 0.43782207, -0.546552, 0.03100586, 0
1169, 3222892911, -0.51290196, 0.36800167, -0.103763975, -0.76859874, -0.7690691, 0.80887675, 0.18119907, 0
1170, 3222909578, -0.5096173, 0.36650106, -0.10617487, -0.7711671, -1.3072579, -0.21939674, -0.8905468, 0
1172, 3222942912, -0.50357556, 0.3636625, -0.10980147, -0.7759574, -0.5939278, 0.31986046, -0.55188847, 0
1173, 3222959579, -0.5009722, 0.362601, -0.11113091, -0.7779473, 1.0147913, -0.8131503, -0.31265736, 0
1176, 3223009580, -0.4952377, 0.36052835, -0.11407035, -0.78214556, -0.21142599, 0.33269265, 0.45795918, 0
1177, 3223026247, -0.49400756, 0.36024517, -0.11423746, -0.78302914, -1.291692, 1.4403671, -0.054244995, 0
1178, 3223042914, -0.49298155, 0.359844, -0.11426216, -0.7838564, -0.6135811, 0.8552255, -0.3850355, 0
1180, 3223076248, -0.49174505, 0.35986543, -0.11407664, -0.78464967, 0.93562835, -0.26613295, 0.14210224, 0
1181, 3223092915, -0.49120814, 0.3600999, -0.11431928, -0.7848431, 1.0272247, 0.015283927, 0.19923115, 0
1182, 3223109582, -0.49045354, 0.3598348, -0.11529336, -0.7852938, 0.65642685, 0.8843478, -0.007314682, 0
1184, 3223142916, -0.48854208, 0.3583615, -0.118348844, -0.7867033, -1.3668427, 0.87932694, -0.7570572, 0
1185, 3223159583, -0.48767114, 0.3576198, -0.119816475, -0.7873588, -0.8872895, 0.63756615, -0.18738365, 0
1187, 3223192917, -0.4864873, 0.35558113, -0.12249, -0.788602, -0.17365174, 0.88493085, -0.92414856, 0
1188, 3223209584, -0.48582533, 0.35486957, -0.12417752, -0.7890665, 1.2147866, 0.033130765, 0.039381027, 0
1189, 3223226251, -0.48528802, 0.3538973, -0.12581801, -0.78957385, 0.42427582, 1.7372139, 0.3125925, 0
1191, 3223259585, -0.48440194, 0.35298425, -0.12846057, -0.7901011, -1.1278682, 0.91052836, -0.11986351, 0
1192, 3223276252, -0.48395732, 0.35267323, -0.12988766, -0.790279, -0.45722845, 0.51877266, -0.24028206, 0
1193, 3223292919, -0.4835995, 0.35231677, -0.13130134, -0.7904235, 1.3653164, -0.18980865, 1.0610676, 0
1195, 3223326253, -0.48234877, 0.35260615, -0.13558498, -0.7903354, -0.6999836, 1.6176006, -1.4758081, 0
1196, 3223342920, -0.48102832, 0.35340217, -0.13814422, -0.7903416, -2.1839848, 1.1221501, -1.7623615, 0
1197, 3223359587, -0.4805429, 0.352773, -0.13958804, -0.79066414, -1.1040277, 1.9121368, -0.98664, 0
1199, 3223392921, -0.48128137, 0.3508277, -0.1414986, -0.7907407, 1.3392131, 1.3124032, 2.576027, 0
1200, 3223409588, -0.4813124, 0.3506976, -0.14325836, -0.7904628, 1.7908316, 0.3644305, 2.8011951, 0
1203, 3223459589, -0.47713467, 0.35855561, -0.15018252, -0.78818184, -3.2133415, 2.574307, -4.414974, 0
1204, 3223476256, -0.47868913, 0.35737053, -0.14847222, -0.78810143, -1.6322314, 2.42246, -0.85939026, 0
1205, 3223492923, -0.48132116, 0.3548491, -0.14581428, -0.788134, 0.66653216, 5.734043, -0.3407278, 0
1207, 3223526257, -0.48469752, 0.35671508, -0.14485426, -0.78539467, -0.41230607, 1.3550421, 4.7178764, 0
1208, 3223542924, -0.4836744, 0.36161968, -0.1475102, -0.7832852, -2.6562319, -0.23335154, -0.9040613, 0
1209, 3223559591, -0.4807528, 0.36993292, -0.15058984, -0.78061116, -3.165349, 1.635502, -5.7242765, 0
1211, 3223592925, -0.48174673, 0.37024188, -0.15037785, -0.77989256, 1.5630574, 0.06922655, -2.0737915, 0
1212, 3223609592, -0.48351228, 0.36235937, -0.14836942, -0.78288126, 1.1192672, -2.37318, -1.9753375, 0
1214, 3223642926, -0.48584327, 0.3549464, -0.14619413, -0.78523976, 1.5011214, -4.63543, 3.172988, 0
1215, 3223659593, -0.48647735, 0.35359815, -0.14611536, -0.78547007, 0.7383727, -2.734296, -1.188921, 0
1218, 3223709594, -0.4882968, 0.3498407, -0.1463047, -0.78598833, 4.731702, -0.57968307, 0.8444567, 0
1219, 3223726261, -0.48947713, 0.34845388, -0.14679508, -0.7857787, 4.9119906, -2.9935243, 3.554595, 0
1220, 3223742928, -0.49076706, 0.34665093, -0.1473137, -0.7856746, 2.5049706, -3.076834, 4.384864, 0
1222, 3223776262, -0.49258608, 0.34435883, -0.14922854, -0.78518265, 1.0752356, -3.547163, -1.6803408, 0
1223, 3223792929, -0.49375206, 0.344174, -0.15007702, -0.7843692, 1.6327959, -2.614048, -2.3408618, 0
1224, 3223809596, -0.4955285, 0.34446564, -0.15020508, -0.7830953, 2.0173414, -0.9063465, -0.6711664, 0
1226, 3223842930, -0.4994106, 0.34696794, -0.1490675, -0.7797348, 1.6189102, -2.2515953, 0.20801163, 0
1227, 3223859597, -0.50126195, 0.34788966, -0.14895776, -0.77815545, 1.2013923, -1.527953, 0.32392216, 0
1228, 3223876264, -0.5029959, 0.3480263, -0.14945059, -0.77687985, 0.76600575, 0.26546142, 0.2725935, 0
1230, 3223909598, -0.5061367, 0.34899426, -0.15036453, -0.7742248, 0.82076967, 1.8753948, -0.72678375, 0
1232, 3223942932, -0.50977325, 0.35095888, -0.15014099, -0.7709876, -0.5545551, 0.3628752, 0.4884262, 0
1234, 3223976266, -0.5141147, 0.35570332, -0.14769606, -0.7663889, -0.31716534, -0.94398874, -0.057131767, 0
1235, 3223992933, -0.5161222, 0.35960847, -0.14552252, -0.7636279, -0.2521458, 1.2889023, -0.1425209, 0
1236, 3224009600, -0.51858413, 0.36366427, -0.14251976, -0.7605997, 0.3350818, 1.5683197, 0.5559683, 0
1238, 3224042934, -0.5228494, 0.3724831, -0.13742316, -0.75432396, 0.06427232, 0.38483992, 0.51364994, 0
1239, 3224059601, -0.52474755, 0.37619704, -0.13449594, -0.75168574, -0.60887367, 1.9995196, 0.109825134, 0
1241, 3224092935, -0.5286423, 0.38381863, -0.12833083, -0.7461614, -1.2198519, 0.4256906, 0.56648064, 0
1242, 3224109602, -0.53006786, 0.3878536, -0.1253412, -0.7435671, -1.5896899, 1.200527, 0.19040966, 0
1243, 3224126269, -0.53119147, 0.3936634, -0.121889696, -0.7402787, -1.2408057, 0.028621392, -0.22006035, 0
1245, 3224159603, -0.5342838, 0.40791157, -0.11355871, -0.7316136, -3.6861014, 0.3016039, 0.26099396, 0
1247, 3224192937, -0.5368513, 0.427049, -0.10085335, -0.7205923, -0.88660973, 0.74764335, -0.07581329, 0
1249, 3224226271, -0.5400642, 0.44577715, -0.090455174, -0.70812154, -0.38835672, -0.6147261, -0.8122015, 0
1250, 3224242938, -0.5423242, 0.45570558, -0.08566604, -0.70063055, -1.4685456, 0.3757977, 0.15210915, 0
1251, 3224259605, -0.54331446, 0.46577814, -0.0823803, -0.6935981, -1.8672105, -0.15528764, -1.2300625, 0
1253, 3224292939, -0.5456022, 0.48436508, -0.07826478, -0.6794028, 3.6009653, -2.2541592, 1.4598551, 0
1254, 3224309606, -0.5473589, 0.48861864, -0.07988623, -0.6747394, -5.4754515, 2.5470004, -2.2102747, 0
1255, 3224326273, -0.54730976, 0.49646294, -0.081682935, -0.6688119, 1.9152807, 0.86593926, -0.09950352, 0
1257, 3224359607, -0.54631275, 0.50621885, -0.09209483, -0.66091496, -1.7953734, -0.59769285, 0.29967976, 0
1258, 3224376274, -0.5432738, 0.5116805, -0.09625888, -0.6586166, -1.9599138, 0.24011147, 1.1963825, 0
1259, 3224392941, -0.53933835, 0.51766014, -0.10030411, -0.6565715, -1.0028983, 0.19464223, -0.7195015, 0
1261, 3224426275, -0.52992153, 0.5290145, -0.11115478, -0.6534343, -2.029557, -1.1514348, 0.7812996, 0
1262, 3224442942, -0.52536446, 0.5346362, -0.11637537, -0.6516273, -1.5827068, -1.7555532, 0.7438612, 0
1263, 3224459609, -0.5213694, 0.54395926, -0.11782114, -0.6468427, -6.823208, -0.7442443, 1.1756783, 0
1265, 3224492943, -0.51526934, 0.5719934, -0.116609834, -0.6274775, -5.129681, -2.0473397, -1.1924028, 0
1266, 3224509610, -0.5121871, 0.5855912, -0.116473936, -0.6174028, -4.4781904, -0.4856553, -2.4722629, 0
1268, 3224542944, -0.50722545, 0.60976756, -0.118361175, -0.59741247, 1.9347968, -1.4658009, 2.8636951, 0
1269, 3224559611, -0.49977267, 0.61656564, -0.12019334, -0.5963493, 0.3011274, -0.14054115, -0.88181305, 0
1270, 3224576278, -0.49017042, 0.6222365, -0.12320317, -0.5978134, -0.538452, -0.26280048, -0.5188942, 0
1272, 3224609612, -0.47902617, 0.627566, -0.12554742, -0.60078084, -1.9804759, -1.4847571, -1.5249615, 0
1274, 3224642946, -0.47556517, 0.6265252, -0.121824846, -0.6053656, -0.57795244, 0.597074, 0.4161358, 0
1276, 3224676280, -0.4789935, 0.6321667, -0.10768321, -0.59944946, -2.6479533, -0.1474611, 0.91671085, 0
1277, 3224692947, -0.48148453, 0.6373228, -0.0988522, -0.59348595, -0.8066817, -2.6495843, 1.7288675, 0
1278, 3224709614, -0.48483974, 0.6424983, -0.09146274, -0.5863155, 1.0375767, -3.54461, 1.0707064, 0
1280, 3224742948, -0.49442258, 0.6482981, -0.0925831, -0.57156724, -0.025732012, 3.5245697, -3.255982, 0
1281, 3224759615, -0.49761316, 0.6531604, -0.10001074, -0.5619301, 0.16786021, 2.1976752, -0.27519417, 0
1282, 3224776282, -0.5019249, 0.65808034, -0.106822625, -0.550995, -0.14898849, 0.15529457, 2.411232, 0
1284, 3224809616, -0.5093607, 0.6679844, -0.1192966, -0.5292653, -0.075172216, -3.5557034, 3.0565386, 0
1285, 3224826283, -0.5160259, 0.667331, -0.12767494, -0.52162284, -1.5333848, -3.8221288, 6.2591515, 0
1286, 3224842950, -0.5266643, 0.6588915, -0.13530922, -0.5197913, -2.4467862, -1.1445321, 3.9909258, 0
1289, 3224892951, -0.533238, 0.61662066, -0.14620948, -0.56041396, -8.775268, -2.4652982, 2.4815092, 0
1290, 3224909618, -0.5184859, 0.59920794, -0.15109193, -0.59101474, -1.3720315, -2.520408, -6.8632474, 0
1292, 3224942952, -0.47871307, 0.5800799, -0.17147878, -0.6363498, 3.2988489, 1.3664715, -1.0648232, 0
1293, 3224959619, -0.46285522, 0.569318, -0.18688768, -0.65323794, 1.6006478, 2.7623634, -3.1539135, 0
1295, 3224992953, -0.43859562, 0.5520577, -0.20895189, -0.6776506, -2.0353768, 5.611528, -0.8604193, 0
1296, 3225009620, -0.43199873, 0.54087263, -0.21274245, -0.6896227, -3.559583, 5.8153663, -0.89798164, 0
1297, 3225026287, -0.4273081, 0.5276626, -0.21324182, -0.70250463, -2.8569171, 5.2642508, -0.56293774, 0
1299, 3225059621, -0.4208237, 0.49724582, -0.21199647, -0.7285027, -0.86981875, 2.83234, -1.2752838, 0
1300, 3225076288, -0.41680458, 0.48582453, -0.20963341, -0.73912597, -0.20149508, 1.9353924, -4.266454, 0
1301, 3225092955, -0.41270208, 0.47980645, -0.20688403, -0.746101, 1.6053834, 2.9845295, -2.0406795, 0
1304, 3225142956, -0.42473307, 0.46569642, -0.18964759, -0.75283957, 1.7201067, 0.17273305, 5.883686, 0
1305, 3225159623, -0.43565843, 0.45645756, -0.17717801, -0.7552887, 1.3093613, -3.012305, 7.2416286, 0
1307, 3225192957, -0.45116025, 0.4318934, -0.15192392, -0.766059, 1.0758184, -8.01359, -1.9729228, 0
1308, 3225209624, -0.449749, 0.42818987, -0.14138547, -0.77096975, 2.0075672, -8.983858, -5.058784, 0
1309, 3225226291, -0.4451092, 0.43162167, -0.13181329, -0.7734408, 4.8457685, -8.517924, -3.6355271, 0
1311, 3225259625, -0.4411461, 0.44017953, -0.11794346, -0.7731278, 7.5295186, -7.2869024, -0.3130331, 0
1312, 3225276292, -0.44287273, 0.4399657, -0.112963006, -0.77300596, 7.369271, -7.515421, -0.55426216, 0
1313, 3225292959, -0.4454891, 0.43794352, -0.10850613, -0.7732893, 7.556887, -7.4070826, -1.917141, 0
1315, 3225326293, -0.4547046, 0.42986003, -0.09915257, -0.7737168, 8.258215, -8.776317, -0.88846207, 0
1316, 3225342960, -0.45976034, 0.42161816, -0.097145736, -0.77551687, 7.768832, -9.172627, -1.3673143, 0
1319, 3225392961, -0.44402823, 0.4255226, -0.09213808, -0.783125, 7.253891, -11.500544, -6.1830626, 0
1320, 3225409628, -0.42799032, 0.4419808, -0.09093403, -0.78307915, 16.243477, -8.404247, -4.9162693, 0
1322, 3225442962, -0.40870896, 0.48375955, -0.121884614, -0.764253, 17.02673, -13.132869, -2.9684782, 0
1323, 3225459629, -0.40443927, 0.51179713, -0.14392406, -0.7441662, 23.296782, -11.835816, 5.663973, 0
1324, 3225476296, -0.38057083, 0.52799433, -0.1743093, -0.73892426, -6.5616546, -51.279808, 30.684723, 1024
1327, 3225526297, -0.35177162, 0.56787765, -0.22102736, -0.7105797, -0.3796662, -0.4583816, -1.402709, 0
1328, 3225542964, -0.34296572, 0.58946854, -0.22888996, -0.69463325, -0.2014111, -1.4293262, 0.6677313, 0
1330, 3225576298, -0.31313583, 0.6402117, -0.25450292, -0.6536878, -1.866849, 3.6212757, 0.17581272, 0
1331, 3225592965, -0.28551775, 0.6782367, -0.27747226, -0.61764747, -4.5645614, 5.9602494, 0.4545393, 0
1332, 3225609632, -0.24841717, 0.72490895, -0.3075419, -0.56410855, -6.072792, 6.483368, 5.14077, 0
1334, 3225642966, -0.1837321, 0.78878355, -0.37815538, -0.44840434, -10.618686, 23.933264, 25.962772, 0
1335, 3225659633, -0.17414579, 0.79179275, -0.3960179, -0.43117523, 0.926075, 22.45313, 37.233353, 0
1336, 3225676300, -0.16157357, 0.7959813, -0.41022345, -0.4147643, 14.350246, 15.123344, 28.513783, 0
1338, 3225709634, -0.12992458, 0.82829607, -0.43388692, -0.32983667, -8.970838, 25.97237, 12.952095, 0
1339, 3225726301, -0.11526328, 0.8423405, -0.44427395, -0.28249323, -13.843295, 29.666828, 4.3384275, 0
1340, 3225742968, -0.10073337, 0.85367864, -0.45259872, -0.2371596, -19.395405, 27.026224, -3.9117484, 0
1342, 3225776302, -0.060750164, 0.87238383, -0.4562283, -0.1646704, -17.287855, 17.313145, -22.174667, 0
1343, 3225792969, -0.04032372, 0.8771826, -0.4570642, -0.14149837, -13.965335, 11.0533285, -26.514997, 0
1344, 3225809636, -0.025087763, 0.8782764, -0.45969105, -0.12918961, -9.458704, 6.9704585, -25.938799, 0
1347, 3225859637, -0.016729018, 0.8654619, -0.4788668, -0.14624341, -4.4938917, 4.07389, -18.255093, 0
1348, 3225876304, -0.022736402, 0.8594129, -0.48343116, -0.1648979, -3.527019, 2.4251223, -15.904787, 0
1350, 3225909638, -0.03359784, 0.8469948, -0.48356262, -0.2182727, -6.671226, 1.9495317, -12.645159, 0
1351, 3225926305, -0.038949255, 0.839569, -0.4776656, -0.25582668, -5.4227448, 5.4752293, -9.434575, 0
1353, 3225959639, -0.07030475, 0.81957793, -0.46173224, -0.33189937, -2.5494576, 4.07189, -2.9176111, 0
1354, 3225976306, -0.095530584, 0.8079015, -0.45220512, -0.3656288, -2.4289918, 3.4778612, 1.8261213, 0
1355, 3225992973, -0.12609825, 0.79437107, -0.44469053, -0.3941183, -1.3626487, 0.89939857, 4.3784695, 0
1357, 3226026307, -0.18201742, 0.7571789, -0.4457593, -0.4414219, -4.6856346, -1.5080895, 7.3622227, 0
1358, 3226042974, -0.20113233, 0.7358926, -0.4464112, -0.46768534, 0.13542192, -0.29245105, 9.39419, 0
1359, 3226059641, -0.21989222, 0.71541786, -0.447629, -0.48934433, 6.4775095, -0.5872195, 6.7031174, 0
1362, 3226109642, -0.29123777, 0.67391413, -0.44303846, -0.514531, -1.9403642, -1.3418739, 3.2900486, 0
1363, 3226126309, -0.30796567, 0.66588145, -0.43225354, -0.5243287, -3.2307673, -1.3263333, 2.529251, 0
1365, 3226159643, -0.33094692, 0.63462514, -0.42415738, -0.55481577, 0.70170397, -0.024473775, 3.3101664, 0
1366, 3226176310, -0.3411902, 0.6142309, -0.42384842, -0.5715477, 2.5351965, -0.18218653, 1.7282763, 0
1367, 3226192977, -0.35242093, 0.5955746, -0.421661, -0.58591574, 4.393148, 0.5871138, 0.793252, 0
1369, 3226226311, -0.37973076, 0.56551105, -0.40833667, -0.60767394, 2.8852966, -0.6536102, 1.3558998, 0
1370, 3226242978, -0.39143145, 0.55349475, -0.3980067, -0.61807805, 1.0801176, -1.2686964, 1.0142574, 0
1371, 3226259645, -0.400226, 0.5422801, -0.38602626, -0.629873, 0.26197293, -0.81095684, 1.6285372, 0
1373, 3226292979, -0.41342106, 0.51519185, -0.36184618, -0.65782404, 0.9250437, 0.8513052, 2.3798018, 0
1374, 3226309646, -0.42090017, 0.49989986, -0.34859338, -0.671886, 2.957035, 0.5411608, 2.1426592, 0
1377, 3226359647, -0.4453534, 0.46206412, -0.30313396, -0.7044655, 1.0613406, -4.5484033, 1.2451878, 0
1378, 3226376314, -0.44999117, 0.45432675, -0.28758648, -0.71301764, 0.8503498, -4.1317315, 1.5497904, 0
1380, 3226409648, -0.45638147, 0.43785357, -0.26015398, -0.72960603, 0.8549374, -2.1616592, 3.5695724, 0
1381, 3226426315, -0.4598582, 0.42708382, -0.24663815, -0.73844707, 0.3095601, -2.1815622, 2.6922798, 0
1382, 3226442982, -0.46276215, 0.41642022, -0.23313619, -0.7470594, 0.18900429, -2.3343673, -0.32571888, 0
1384, 3226476316, -0.46726373, 0.398202, -0.21015808, -0.7608799, 1.4799864, -1.1960925, 0.9798298, 0
1385, 3226492983, -0.47112566, 0.3893744, -0.20222878, -0.76520365, 2.2935305, -0.8754783, 1.2903452, 0
1386, 3226509650, -0.4762692, 0.38038385, -0.19684538, -0.7679405, 2.4190712, -0.78329915, 1.0690222, 0
1388, 3226542984, -0.49006727, 0.3630445, -0.18881916, -0.76966554, 2.4853556, -1.1627408, 1.6202393, 0
1390, 3226576318, -0.5075674, 0.3490435, -0.18278028, -0.7662507, 1.7366563, -1.6325525, -0.222435, 0
1393, 3226626319, -0.53104174, 0.34998456, -0.17751639, -0.75099826, 0.9022945, -1.494274, 1.4619513, 0
1394, 3226642986, -0.53867495, 0.34756973, -0.17520805, -0.74721587, 0.6008559, -2.9155142, 6.264494, 0
1396, 3226676320, -0.5501952, 0.32957685, -0.16628334, -0.74901205, -3.0104556, -1.5100635, -0.8528452, 0
1397, 3226692987, -0.55097383, 0.32376736, -0.15880471, -0.75258774, -2.5621905, -2.221993, -0.2377243, 0
1399, 3226726321, -0.5480314, 0.31648213, -0.13880557, -0.761734, -0.33006626, -1.9086368, -0.97845554, 0
1400, 3226742988, -0.5457175, 0.31316918, -0.12975231, -0.7663463, 0.65985966, -2.5209844, 0.090639114, 0
1401, 3226759655, -0.5442818, 0.30774897, -0.12025027, -0.77109843, 1.1973126, -3.2603986, 0.9031267, 0
1403, 3226792989, -0.5425096, 0.294308, -0.10537908, -0.77972174, 1.1284635, -2.1676822, -3.1355128, 0
1404, 3226809656, -0.54215264, 0.28949806, -0.10087971, -0.7823615, 1.6624049, -2.3223894, -2.7977085, 0
1405, 3226826323, -0.54305464, 0.2856547, -0.09784793, -0.78353286, 1.745221, -2.2419696, -2.6474085, 0
1407, 3226859657, -0.5468753, 0.27959308, -0.09720654, -0.7831417, 0.90620583, -2.562252, -2.3691783, 0
1408, 3226876324, -0.5480612, 0.27755582, -0.09756592, -0.78299266, 0.69888556, -3.2490723, -1.6152973, 0
1409, 3226892991, -0.54821956, 0.27610007, -0.09688285, -0.7834812, 0.7395905, -2.779039, -2.0405674, 0
1411, 3226926325, -0.5456592, 0.2759351, -0.095434785, -0.7855017, 1.8205762, -2.2116666, -2.3014302, 0
1412, 3226942992, -0.5443191, 0.2763024, -0.095509924, -0.78629297, 2.5157156, -2.2424178, -2.3419433, 0
1413, 3226959659, -0.5431727, 0.27722663, -0.09712085, -0.78656304, 2.697286, -2.152283, -2.7379637, 0
1415, 3226992993, -0.54222816, 0.28234053, -0.10565975, -0.78429157, 2.897247, -0.79304165, -1.9569879, 0
1416, 3227009660, -0.54361165, 0.2853589, -0.11179924, -0.781385, 2.3160613, -0.44972974, -0.7816229, 0
1417, 3227026327, -0.5461306, 0.28841302, -0.117754415, -0.7776235, 1.7783847, -0.61425185, 0.4024725, 0
1420, 3227076328, -0.5547766, 0.29561603, -0.12615238, -0.76741415, -0.6671541, -1.2301873, -0.2593727, 0
1421, 3227092995, -0.5555998, 0.2991174, -0.12706883, -0.7653079, -0.7037127, -1.7721794, -0.035250664, 0
1423, 3227126329, -0.55226415, 0.30820936, -0.12625343, -0.7642488, -0.48901695, -2.2516305, -0.23722458, 0
1424, 3227142996, -0.5488047, 0.31454277, -0.12381402, -0.76455957, 0.26478454, -2.8848128, -0.40310287, 0
1425, 3227159663, -0.54489744, 0.321453, -0.12114345, -0.7649076, 1.1320015, -3.382308, -0.7943592, 0
1427, 3227192997, -0.5373441, 0.33228803, -0.119735695, -0.76584214, 2.8737075, -4.032002, 0.07232475, 0
1428, 3227209664, -0.5338118, 0.3355986, -0.12127149, -0.7666268, 2.4416225, -3.7068706, -0.7014408, 0
1430, 3227242998, -0.52822065, 0.3452809, -0.12295806, -0.76593095, 2.0112216, -4.7053905, -1.1439972, 0
1431, 3227259665, -0.52693975, 0.35061496, -0.12317272, -0.7643539, 1.2847406, -5.2306004, -1.8747568, 0
1432, 3227276332, -0.5254504, 0.3563516, -0.12422185, -0.76255435, 0.8974876, -5.7865057, -2.2112937, 0
1435, 3227326333, -0.5103637, 0.3805173, -0.13986076, -0.75840557, 3.279653, -6.7705784, -1.7602911, 0
1436, 3227343000, -0.50429577, 0.39199895, -0.14573543, -0.75550556, 4.0648136, -7.2510614, 0.51629066, 0
1438, 3227376334, -0.49507058, 0.4114651, -0.15580478, -0.74922055, 4.52892, -7.1676283, -0.5302677, 0
1439, 3227393001, -0.48989457, 0.42169005, -0.1607394, -0.74588776, 3.914893, -9.263039, 0.98100185, 0
1440, 3227409668, -0.48334327, 0.43139288, -0.16338865, -0.7440353, 5.7900734, -9.867983, 1.6282272, 0
1442, 3227443002, -0.46707195, 0.44953862, -0.17696859, -0.7405711, 10.095534, -10.620585, 1.4655848, 0
1443, 3227459669, -0.4611073, 0.45987454, -0.1904772, -0.7345874, 12.842973, -11.896551, -0.92298317, 0
1444, 3227476336, -0.45523328, 0.47896785, -0.20871648, -0.72096795, 10.388063, -17.682652, -6.659138, 0
1446, 3227509670, -0.43453303, 0.53357583, -0.24092405, -0.6844254, -9.613406, -18.1871, 14.855177, 0
1447, 3227526337, -0.4352551, 0.5426172, -0.25643972, -0.67109096, -6.3104115, 3.1685688, 9.390274, 0
1450, 3227576338, -0.4065529, 0.5879434, -0.28867197, -0.6369542, -4.064361, 4.5551343, -0.10861969, 0
1451, 3227593005, -0.37995747, 0.62817365, -0.31049922, -0.60384196, -3.8102753, 6.007712, 1.3309355, 0
1452, 3227609672, -0.3445335, 0.6761297, -0.33888125, -0.5561561, -5.797328, 6.9271116, 5.037856, 0
1454, 3227643006, -0.27545702, 0.7510008, -0.4200127, -0.42862022, -7.881504, 4.894964, 30.06734, 0
1455, 3227659673, -0.25623274, 0.7664132, -0.43363228, -0.39865196, -10.034712, 11.201142, 49.436874, 0
1457, 3227693007, -0.20650974, 0.7890266, -0.47125053, -0.33573577, 1.9007676, 17.476326, 14.09417, 0
1458, 3227709674, -0.18230599, 0.80375046, -0.48852703, -0.2865242, -11.177871, 32.5933, 10.17153, 0
1459, 3227726341, -0.16207406, 0.8134346, -0.5027206, -0.24358383, -13.251919, 31.507778, -0.5536032, 0
1461, 3227759675, -0.11189698, 0.82940274, -0.51839846, -0.17560773, -12.439176, 24.552328, -16.175097, 0
1463, 3227793009, -0.07058702, 0.8342883, -0.5299259, -0.13477345, -6.944791, 13.387191, -21.061966, 0
1467, 3227859677, -0.024646636, 0.83390296, -0.5408498, -0.10716693, 0.07853106, 3.7643998, -19.18339, 0
1469, 3227893011, -0.029201403, 0.83290094, -0.5396792, -0.11905654, -1.4762715, 3.5005486, -18.573505, 0
1470, 3227909678, -0.0368069, 0.8322831, -0.536229, -0.13569519, -2.0297966, 3.5991178, -17.276812, 0
1471, 3227926345, -0.047520086, 0.8311887, -0.5311685, -0.15726362, -1.9234654, 4.122618, -15.191071, 0
1473, 3227959679, -0.082928896, 0.82568854, -0.5179139, -0.20768045, -3.4029987, 4.7341814, -9.264657, 0
1474, 3227976346, -0.10350327, 0.82057714, -0.50973916, -0.23687744, -4.516314, 4.227578, -6.225853, 0
1475, 3227993013, -0.12469897, 0.8135711, -0.50058115, -0.2682828, -3.7028918, 4.7098346, -3.0104065, 0
1477, 3228026347, -0.17778894, 0.7921612, -0.4807737, -0.33125976, -0.24169573, 6.9292583, 6.4632797, 0
1478, 3228043014, -0.21294399, 0.776896, -0.473686, -0.35596892, 0.2675479, 1.9326553, 7.179165, 0
1479, 3228059681, -0.24301374, 0.76225406, -0.467214, -0.37633592, -4.804352, -1.8097099, 5.6484213, 0
1481, 3228093015, -0.26712686, 0.7409359, -0.44586772, -0.42528126, -4.9522505, 1.1466751, 7.059845, 0
1482, 3228109682, -0.2733583, 0.72738427, -0.43668875, -0.45331568, -1.3577954, 2.3408418, 7.315542, 0
1484, 3228143016, -0.29362908, 0.69431055, -0.4239657, -0.501969, 3.9033825, -0.2435348, 7.2981586, 0
1485, 3228159683, -0.3070241, 0.681283, -0.4162916, -0.51797277, 2.2390866, -1.9862878, 4.387865, 0
1486, 3228176350, -0.31864294, 0.6727238, -0.40617684, -0.5300325, -0.17321086, -2.2387977, 1.7444963, 0
1488, 3228209684, -0.33453482, 0.6590903, -0.38514996, -0.5525853, -2.8533556, 2.9975324, 2.375824, 0
1489, 3228226351, -0.34305567, 0.64631444, -0.37551063, -0.5688468, -3.1731827, 4.8394322, 3.5738668, 0
1490, 3228243018, -0.35261706, 0.6296038, -0.36458355, -0.58851, -2.4693036, 4.001547, 2.6074696, 0
1492, 3228276352, -0.37118974, 0.5946448, -0.33711448, -0.62846977, -0.9657072, 2.1526053, 2.392827, 0
1494, 3228309686, -0.3882076, 0.56089664, -0.30622402, -0.66401917, 1.1676601, 1.7631457, 3.9210472, 0
1496, 3228343020, -0.4122024, 0.5250305, -0.27643493, -0.6913904, 0.6867765, 0.88761175, 5.0668325, 0
1497, 3228359687, -0.4260928, 0.5074848, -0.25965294, -0.70248795, -0.016099637, 0.028696157, 5.468026, 0
1498, 3228376354, -0.44058746, 0.49032873, -0.24234387, -0.71185297, 0.18061244, -0.58012295, 5.6560507, 0
1500, 3228409688, -0.4717015, 0.45389324, -0.21271503, -0.7254211, 0.5270687, -2.7753534, 5.925788, 0
1501, 3228426355, -0.48745584, 0.4345428, -0.19978407, -0.73051363, 0.3206176, -4.4058094, 7.1223755, 0
1502, 3228443022, -0.5022482, 0.41375765, -0.18610956, -0.73615175, -0.254113, -6.375141, 8.064499, 0
1504, 3228476356, -0.52471036, 0.3701688, -0.15269412, -0.75122774, -0.22524314, -8.211093, 2.8960085, 0
1505, 3228493023, -0.53108275, 0.35136276, -0.13655779, -0.75884914, 0.5817062, -8.30899, 0.9293537, 0
1506, 3228509690, -0.53472024, 0.33449146, -0.12268584, -0.7662524, 1.7957861, -8.127645, 0.38166523, 0
1509, 3228559691, -0.5383336, 0.29487205, -0.091216944, -0.7841757, 2.8932593, -6.624425, -2.1826625, 0
1511, 3228593025, -0.54335976, 0.27316332, -0.08025936, -0.78975016, 3.0205147, -4.9119635, -2.9038568, 0
1512, 3228609692, -0.54667217, 0.26219645, -0.07954372, -0.79125214, 1.9801947, -4.461565, -3.133617, 0
1513, 3228626359, -0.5498695, 0.2527605, -0.07932314, -0.7921289, 1.6863911, -4.6450047, -2.3907423, 0
1515, 3228659693, -0.55468214, 0.23956515, -0.07563104, -0.7932346, 1.8397651, -5.396732, -3.1145658, 0
1516, 3228676360, -0.5558526, 0.23535067, -0.07333652, -0.79389185, 1.8233018, -6.0804815, -3.567706, 0
1517, 3228693027, -0.55617523, 0.2326608, -0.070521444, -0.79471344, 1.4906493, -6.243252, -4.3640924, 0
1519, 3228726361, -0.5547746, 0.23082016, -0.06627722, -0.79659224, 2.119726, -5.687203, -5.127083, 0
1520, 3228743028, -0.5536464, 0.23102033, -0.066361256, -0.7973121, 2.0447364, -5.8483067, -5.3257008, 0
1521, 3228759695, -0.5530726, 0.23280868, -0.06687756, -0.7971468, 2.066464, -6.332893, -5.689893, 0
1524, 3228809696, -0.5493195, 0.24229187, -0.073458016, -0.7963363, 2.1474376, -8.8354, -5.688642, 0
1525, 3228826363, -0.54600435, 0.24770889, -0.075033315, -0.79680234, 1.8677943, -8.945835, -6.34508, 0
1527, 3228859697, -0.53427315, 0.26536357, -0.08010596, -0.79857504, 3.2225597, -9.043538, -6.150495, 0
1528, 3228876364, -0.5257159, 0.27757236, -0.08406491, -0.7996963, 3.9346402, -8.979775, -5.7194157, 0
1529, 3228893031, -0.5160917, 0.29230833, -0.08831602, -0.80025643, 4.4615436, -8.855333, -5.5157537, 0
1531, 3228926365, -0.49369916, 0.32756352, -0.09937706, -0.79943234, 5.9127007, -8.4741955, -3.5188313, 0
1532, 3228943032, -0.48199055, 0.34809986, -0.10399072, -0.79730934, 6.361745, -8.370043, -2.2588172, 0
1533, 3228959699, -0.47103387, 0.37063047, -0.10727362, -0.79325736, 7.8038664, -7.686898, -1.2392063, 0
1535, 3228993033, -0.4505557, 0.41372114, -0.11279406, -0.7830174, 10.700624, -10.682017, 4.8856993, 0
1536, 3229009700, -0.44141376, 0.42892167, -0.11531134, -0.77967185, 13.677981, -10.576505, 3.745143, 0
1539, 3229059701, -0.41058654, 0.5076483, -0.1502781, -0.7423835, 22.619894, -17.982176, 3.9006329, 0
1540, 3229076368, -0.41045487, 0.51042575, -0.19300796, -0.7305786, -20.204166, -9.918756, 47.64136, 0
1542, 3229109702, -0.41481668, 0.50447774, -0.19723481, -0.7311172, -1.8157218, 3.1133468, 0.48884583, 0
1543, 3229126369, -0.41093606, 0.512388, -0.2007081, -0.72685003, -2.7692552, 2.211642, -0.48733807, 0
1544, 3229143036, -0.40290782, 0.5283457, -0.20714828, -0.71806014, -1.2692357, 3.8339431, -0.86329174, 0
1546, 3229176370, -0.36529848, 0.5913352, -0.2431546, -0.67657965, -1.113788, 4.2083907, -0.84353733, 0
1547, 3229193037, -0.33330843, 0.64248586, -0.28034568, -0.63049865, -2.7476578, 6.3154454, 2.795559, 0
1548, 3229209704, -0.2912547, 0.6962661, -0.32071817, -0.5723012, -6.6220016, 9.5428, 12.272785, 0
1550, 3229243038, -0.2070166, 0.766323, -0.37153316, -0.48151946, 0.112866, 1.9721156, 44.914234, 0
1551, 3229259705, -0.18121777, 0.77817893, -0.3877249, -0.45964333, 23.350466, 12.121328, 39.030376, 0
1552, 3229276372, -0.17106242, 0.7968068, -0.41156396, -0.40799093, -5.8527026, 34.36339, 23.594631, 0
1554, 3229309706, -0.13266763, 0.8358248, -0.44677672, -0.29015765, -21.964685, 36.305023, 0.4148016, 0
1555, 3229326373, -0.10714553, 0.8506258, -0.45469674, -0.2412699, -23.484098, 32.04438, -19.621096, 0
1556, 3229343040, -0.08556661, 0.85963947, -0.46044928, -0.20418033, -18.502232, 27.977804, -30.575478, 0
1558, 3229376374, -0.062260386, 0.8634669, -0.46876112, -0.17554612, -11.692306, 14.156434, -30.24767, 0
1559, 3229393041, -0.057527754, 0.86018574, -0.47441027, -0.17807528, -7.848065, 11.113663, -26.769747, 0
1560, 3229409708, -0.0589936, 0.85335, -0.48295462, -0.1872778, -4.9064813, 9.50289, -23.22816, 0
1562, 3229443042, -0.074985355, 0.8349964, -0.49730635, -0.2232697, -2.8125958, 12.393348, -17.355167, 0
1563, 3229459709, -0.0916509, 0.8242532, -0.49938908, -0.25064322, -1.9058784, 11.45752, -14.130623, 0
1566, 3229509710, -0.14810032, 0.78639644, -0.4834362, -0.3548818, -4.369908, 9.814644, -2.9640656, 0
1567, 3229526377, -0.16815542, 0.7700096, -0.4723486, -0.39458913, -3.0371327, 7.4139366, 0.36465645, 0
1569, 3229559711, -0.2114031, 0.7291813, -0.4512208, -0.4690498, -1.5743276, 4.0394936, 6.057788, 0
1570, 3229576378, -0.23217282, 0.70987934, -0.4383356, -0.50003386, -1.8213257, -0.33977768, 4.0136833, 0
1571, 3229593045, -0.2483928, 0.69291574, -0.42386082, -0.52774566, -3.624416, 1.4276477, 5.9057636, 0
1573, 3229626379, -0.28348535, 0.65137595, -0.3957907, -0.5819794, 3.1486497, 1.669784, 7.590822, 0
1574, 3229643046, -0.30300376, 0.62801915, -0.38731155, -0.6031377, 5.078355, -0.25137565, 7.168564, 0
1575, 3229659713, -0.32434675, 0.6065148, -0.37829807, -0.6195436, 7.5589356, -0.38062915, 7.5258846, 0
1577, 3229693047, -0.3771745, 0.5699759, -0.3580839, -0.6361192, 8.317706, -4.0890594, 5.9645023, 0
1578, 3229709714, -0.4074008, 0.5528819, -0.349104, -0.6375556, 8.542678, -5.8842244, 5.255721, 0
1581, 3229759715, -0.49566814, 0.5037468, -0.33296406, -0.6242532, 2.8770049, -9.499292, 2.7819757, 0
1582, 3229776382, -0.5228161, 0.49081945, -0.32377717, -0.61719733, 6.783203, -8.812033, -0.7754774, 0
1585, 3229826383, -0.5821849, 0.45937654, -0.29360637, -0.6031866, -1.3350047, -5.9409785, -1.9780545, 0
1586, 3229843050, -0.5935043, 0.44691467, -0.28340048, -0.60638994, 0.33456594, -5.2480416, -1.1655502, 0
1587, 3229859717, -0.6047128, 0.43213725, -0.27522373, -0.6097839, 3.0296779, -5.755514, -0.52923584, 0
1589, 3229893051, -0.6277067, 0.40590844, -0.25622034, -0.6128446, 1.2744728, -5.079531, 1.1940136, 0
1590, 3229909718, -0.6366027, 0.3955128, -0.24299146, -0.61584616, -0.17543638, -4.75689, -0.30879116, 0
1592, 3229943052, -0.64205515, 0.38913912, -0.21837871, -0.6234191, 0.20151928, -28.82635, -1.4837055, 0
1593, 3229959719, -0.63499147, 0.4088138, -0.21838626, -0.6180363, 2.7354476, -18.257841, 0.4933796, 0
1594, 3229976386, -0.63514453, 0.39680248, -0.21930724, -0.6253384, -0.09816595, -7.582976, -2.9800086, 0
1597, 3230026387, -0.599211, 0.40717587, -0.22496316, -0.65157515, -0.4465269, -0.41188097, 3.681366, 0
1598, 3230043054, -0.588512, 0.41042888, -0.22394574, -0.6595869, 4.5157948, 1.1835926, 3.4707165, 0
1600, 3230076388, -0.58733463, 0.40174022, -0.22125766, -0.6668527, -2.4767277, 7.3032637, 2.2821264, 0
1601, 3230093055, -0.5848786, 0.4018649, -0.21558288, -0.67078334, -2.8894875, 1.2442499, -0.92691517, 0
1602, 3230109722, -0.5817234, 0.4017152, -0.21194337, -0.6747649, 0.1754732, -1.5523129, 0.48152924, 0
1604, 3230143056, -0.5831961, 0.39825237, -0.20914645, -0.67641693, -0.9233844, 1.406507, 0.81088924, 0
1605, 3230159723, -0.58502257, 0.40053153, -0.20725946, -0.67407066, 1.9108703, 1.8498437, -0.39839745, 0
1606, 3230176390, -0.5885948, 0.403436, -0.20634827, -0.6694929, 0.3989999, 0.39298317, 2.2253218, 0
1608, 3230209724, -0.607615, 0.41051328, -0.19825312, -0.65037173, 2.1141832, 4.92454, 0.8498125, 0
1609, 3230226391, -0.6184867, 0.4132367, -0.19136927, -0.6403846, -0.7664798, 5.671397, -0.778327, 0
1612, 3230276392, -0.61610407, 0.42172343, -0.19121349, -0.6371872, -0.56138784, 0.78555685, -2.8884583, 0
1613, 3230293059, -0.612926, 0.41914728, -0.19621816, -0.6404224, 1.8387961, -0.23651694, -2.0995364, 0
1614, 3230309726, -0.6101196, 0.413522, -0.20247087, -0.6447977, 4.7884774, -0.5897859, -2.3523607, 0
1616, 3230343060, -0.606862, 0.40009806, -0.21666129, -0.6516921, -4.7798567, -1.5915991, 3.339858, 0
1617, 3230359727, -0.6075349, 0.39588726, -0.21748929, -0.653359, -1.1082691, -0.5011288, 1.850255, 0
1619, 3230393061, -0.6096366, 0.39353037, -0.2162143, -0.65324825, -0.44112775, -0.23730259, 0.94080067, 0
1620, 3230409728, -0.61077857, 0.39425215, -0.21513063, -0.6521031, -0.3748377, 0.09781799, 0.31660652, 0
1621, 3230426395, -0.61126024, 0.39562082, -0.21465297, -0.6509794, -0.57486314, 0.5063371, -0.8896408, 0
1623, 3230459729, -0.61225146, 0.39799583, -0.21450765, -0.64864373, 1.0073302, -0.40849653, 0.26683712, 0
1624, 3230476396, -0.6120267, 0.39848518, -0.2152863, -0.6482974, 0.45660332, -0.112506144, -1.105586, 0
1625, 3230493063, -0.6107282, 0.39933679, -0.21725291, -0.6483418, 0.53541845, -0.072916634, 0.8185406, 0
1627, 3230526397, -0.6075846, 0.4021639, -0.22256173, -0.64774716, 0.04237392, -1.4183452, -0.36420727, 0
1628, 3230543064, -0.6065772, 0.40320638, -0.22474875, -0.6472877, -0.6096022, -1.8043941, 1.6933956, 0
1629, 3230559731, -0.6060661, 0.40390807, -0.22616221, -0.64683634, -0.6737713, -0.24001983, -1.3467894, 0
1631, 3230593065, -0.6055229, 0.40717128, -0.22877248, -0.64437693, 0.387317, 0.5757193, 0.42217827, 0
1632, 3230609732, -0.6052421, 0.40849435, -0.22985992, -0.64341545, -0.113956966, 0.26787648, -0.16580296, 0
1633, 3230626399, -0.60436517, 0.40971237, -0.23185037, -0.6427507, -0.16918075, 0.5870814, -0.4003048, 0
1635, 3230659733, -0.60284615, 0.4113232, -0.23593724, -0.6416602, 0.15402244, 1.6371905, -1.5912867, 0
1636, 3230676400, -0.6016213, 0.4127003, -0.2384927, -0.6409808, -0.6536004, 1.0033845, -0.0029392242, 0
1639, 3230726401, -0.6021177, 0.4122041, -0.23958373, -0.64042675, -1.6579614, 1.5255362, 0.4052124, 0
1640, 3230743068, -0.603437, 0.4109041, -0.2379412, -0.64063275, -0.6889838, 2.1748312, 0.31628418, 0
1641, 3230759735, -0.6049764, 0.4092268, -0.23553331, -0.6411441, -0.18122609, 2.165111, -1.2216263, 0
1643, 3230793069, -0.6073921, 0.40476042, -0.23134251, -0.64321774, -0.42934805, -0.4821923, 2.7673893, 0
1644, 3230809736, -0.60909283, 0.40055323, -0.22837083, -0.6453017, -0.9580487, 1.4721177, -1.0560179, 0
1646, 3230843070, -0.6105633, 0.39589342, -0.22558558, -0.6477629, -0.88733494, 0.8703567, -0.24914932, 0
1647, 3230859737, -0.61013335, 0.39507115, -0.22598033, -0.6485319, -1.0198781, 0.087238, -1.4600296, 0
1648, 3230876404, -0.6099911, 0.39409366, -0.22592023, -0.649281, -0.44190714, -0.21039945, 1.7480049, 0
1650, 3230909738, -0.60889906, 0.39239928, -0.2270427, -0.6509386, -0.2818182, -0.07582141, 0.44441605, 0
1651, 3230926405, -0.6080522, 0.39063337, -0.22807199, -0.65243065, -0.71993643, 0.18260382, -0.23275375, 0
1654, 3230976406, -0.60351396, 0.38766283, -0.23383854, -0.65636307, -1.3952731, 1.0820972, -0.66920376, 0
1655, 3230993073, -0.6007908, 0.38917044, -0.23735142, -0.6567081, -2.5692885, 2.2516448, -1.1728477, 0
1656, 3231009740, -0.5972591, 0.3921991, -0.24206436, -0.6564076, -0.7120592, 0.49873674, 1.2128134, 0
1658, 3231043074, -0.590233, 0.39383018, -0.2489945, -0.6591881, 0.46086696, 1.348353, -0.77256775, 0
1659, 3231059741, -0.5855072, 0.39381012, -0.25175902, -0.662357, 0.5805687, 1.1020136, 0.84742546, 0
1660, 3231076408, -0.5788976, 0.3952045, -0.25477725, -0.6661712, -1.2128776, 2.8019593, -2.7470937, 0
1662, 3231109742, -0.5671749, 0.40108123, -0.26112482, -0.6702722, -2.8397796, 1.5323247, -0.01086235, 0
1663, 3231126409, -0.5633288, 0.40333328, -0.2631388, -0.67137593, -1.9330657, 0.92330986, -1.0503378, 0
1664, 3231143076, -0.56145746, 0.40383762, -0.26320657, -0.6726125, -0.16590317, 1.450657, -0.19274807, 0
1666, 3231176410, -0.5561202, 0.40379345, -0.26282674, -0.67720604, -0.4602011, 1.0592834, 1.86096, 0
1668, 3231209744, -0.5429065, 0.4042917, -0.25906423, -0.6889782, -1.2081394, 1.2924048, 0.16346645, 0
1670, 3231243078, -0.52429026, 0.4061117, -0.24861835, -0.705965, -1.3955919, -0.81460917, -3.3266668, 0
1671, 3231259745, -0.5160295, 0.4071977, -0.23663479, -0.7154805, -1.4733098, -2.362889, 1.8736868, 0
1673, 3231293079, -0.50358677, 0.40354022, -0.21463704, -0.733138, 0.064394504, 0.4506434, -5.95109, 0
1674, 3231309746, -0.49910617, 0.40067583, -0.20701393, -0.73993355, 0.62525254, -1.0537905, 2.3877163, 0
1675, 3231326413, -0.49992505, 0.3934748, -0.1978695, -0.7457245, 0.2896385, 0.30451393, -0.6898203, 0
1677, 3231359747, -0.5022266, 0.38273457, -0.18561845, -0.7528833, -1.9125631, -2.2280204, 0.15676212, 0
1678, 3231376414, -0.5034466, 0.3769362, -0.18034601, -0.7562674, -0.91691697, -2.8012955, 0.6950226, 0
1679, 3231393081, -0.5053807, 0.37316588, -0.17519157, -0.75805676, -1.5961025, 0.8846173, -2.4121575, 0
1681, 3231426415, -0.50877124, 0.36687428, -0.16617087, -0.76088554, -0.04677841, 1.6993954, -0.0462389, 0
1683, 3231459749, -0.5106978, 0.36155954, -0.16020475, -0.7634143, 2.8300357, 0.19009575, 3.139308, 0
1685, 3231493083, -0.5110148, 0.35704502, -0.15869276, -0.7656396, 0.36576796, -2.8554966, 1.9039354, 0
1686, 3231509750, -0.5110876, 0.3546751, -0.15831548, -0.7667696, 0.10508908, -2.3222504, -0.6924114, 0
1687, 3231526417, -0.51130086, 0.35275474, -0.15778035, -0.7676231, 1.6078174, -2.353474, -2.6896987, 0
1689, 3231559751, -0.5131861, 0.3491474, -0.15461715, -0.7686573, 0.9346525, -1.8018763, 0.029096603, 0
1690, 3231576418, -0.51409507, 0.34803233, -0.15329133, -0.7688213, 2.1296575, -3.4276655, 0.7749376, 0
1691, 3231593085, -0.5149067, 0.34719318, -0.15226164, -0.7688623, 1.8819829, -1.407469, 0.038075447, 0
1693, 3231626419, -0.516656, 0.3456712, -0.15114887, -0.76859397, 0.6794273, 0.46932837, -0.71613026, 0
1694, 3231643086, -0.5176309, 0.34475332, -0.15054783, -0.768468, 0.34996775, 1.0080175, -0.82028675, 0
1695, 3231659753, -0.5187101, 0.34378406, -0.1496855, -0.76834315, 0.9202035, 0.1875685, -0.70085907, 0
1697, 3231693087, -0.52181876, 0.34204724, -0.14733359, -0.7674675, 0.05316831, -1.0533056, 0.21384048, 0
1698, 3231709754, -0.5233316, 0.3416834, -0.14643924, -0.7667702, 0.18805665, -1.6178349, 0.046560287, 0
1700, 3231743088, -0.5261183, 0.3415269, -0.14454162, -0.7652917, 0.4456736, 0.5478326, -0.64970493, 0
1701, 3231759755, -0.5276809, 0.34150338, -0.1433472, -0.7644504, -0.06815888, 0.07035271, -0.39128685, 0
1702, 3231776422, -0.5292482, 0.3414825, -0.14211264, -0.7636064, -0.0042062346, 1.3464745, -0.3507614, 0
1704, 3231809756, -0.5321761, 0.3423162, -0.13948107, -0.76168084, 0.122124515, -1.2845194, -0.5491686, 0
1705, 3231826423, -0.5334539, 0.34270868, -0.13816608, -0.7608497, -0.4706761, 0.27325532, 0.8166628, 0
1706, 3231843090, -0.53459466, 0.3432089, -0.136682, -0.7600913, -0.28460485, -0.17150585, -0.61477375, 0
1708, 3231876424, -0.5362393, 0.34583563, -0.1332422, -0.758351, -0.89999443, -0.03282936, -0.5445814, 0
1710, 3231909758, -0.53667283, 0.348683, -0.13115978, -0.75710255, -0.8733806, 1.0139341, 0.15325356, 0
1712, 3231943092, -0.5360547, 0.35040185, -0.13027114, -0.7569002, -0.3252964, -0.5563737, 0.57401943, 0
1713, 3231959759, -0.5354155, 0.35102487, -0.12993097, -0.7571224, -1.2973633, -0.5480518, 0.49847317, 0
1714, 3231976426, -0.5346475, 0.35186788, -0.12970048, -0.7573132, -0.8394872, -0.88753563, 0.9226589, 0
1716, 3232009760, -0.5328651, 0.3539377, -0.12897396, -0.7577289, -1.2386205, -0.038721494, -0.06654358, 0
1717, 3232026427, -0.5317748, 0.35452503, -0.12854978, -0.7582924, -1.3708723, 0.3097476, -0.49111557, 0
1718, 3232043094, -0.53051037, 0.35458526, -0.12878467, -0.75910926, -0.720904, 0.82414293, -0.83679676, 0
1720, 3232076428, -0.52786946, 0.35433224, -0.1301231, -0.76083845, 0.22261198, 0.11183135, 0.54658794, 0
1721, 3232093095, -0.52625465, 0.35400343, -0.13126673, -0.76191294, -0.79111516, 0.22840866, -0.3218689, 0
1722, 3232109762, -0.5247176, 0.35403454, -0.13228875, -0.7627812, -1.1185932, -0.34054166, -0.6301193, 0
1725, 3232159763, -0.521721, 0.35404578, -0.1340854, -0.76451576, 0.39752555, 0.5480996, -0.43851662, 0
1727, 3232193097, -0.5209991, 0.35478792, -0.13377938, -0.76471764, -0.21965222, 0.53548354, -0.58769226, 0
1728, 3232209764, -0.52074444, 0.35481068, -0.1337324, -0.76488876, -0.22136332, 0.75434047, -0.9793873, 0
1729, 3232226431, -0.52062243, 0.35491595, -0.1336933, -0.7649298, 0.5330777, 0.8360778, 0.16860771, 0
1731, 3232259765, -0.5207041, 0.35504425, -0.1331773, -0.76490474, -0.2688539, -0.006753332, 0.15765, 0
1732, 3232276432, -0.5207236, 0.35515398, -0.13281274, -0.7649038, -0.7504431, 1.147941, -0.57525253, 0
1733, 3232293099, -0.52059555, 0.3555829, -0.1326196, -0.7648253, -1.0068915, -0.44147274, -0.84889126, 0
1735, 3232326433, -0.5206489, 0.35602567, -0.13203195, -0.7646845, -0.8216499, 2.0245454, -0.11107826, 0
1736, 3232343100, -0.5201777, 0.35635975, -0.13209969, -0.764838, -0.37987915, -0.2857287, -0.64011955, 0
1737, 3232359767, -0.5195522, 0.35651162, -0.13241893, -0.76513696, -0.13493997, 0.4600584, 1.1011038, 0
1740, 3232409768, -0.5179304, 0.35746428, -0.13320547, -0.7656552, -1.6562731, 0.2832793, -0.7340517, 0
1741, 3232426435, -0.5168653, 0.3578113, -0.13391295, -0.7660895, -0.26412717, -0.9694672, -0.33141422, 0
1743, 3232459769, -0.51590246, 0.35811716, -0.13461791, -0.76647204, 0.6447083, 0.31970286, 0.2093916, 0
1744, 3232476436, -0.5154647, 0.35816652, -0.13491406, -0.7666914, -0.54489, 0.29819745, -0.2886095, 0
1745, 3232493103, -0.51486784, 0.35810584, -0.13524109, -0.76706314, -0.47592375, -0.41703504, -0.02511406, 0
1747, 3232526437, -0.5144561, 0.35809866, -0.13567065, -0.7672667, 0.18219553, 0.047407545, 0.21946812, 0
1748, 3232543104, -0.5142788, 0.3580401, -0.13587122, -0.76737744, 0.48963463, 0.36638278, -0.0814724, 0
1749, 3232559771, -0.51397485, 0.3579043, -0.13597943, -0.7676253, 0.18601157, 0.60748106, -0.29197598, 0
1751, 3232593105, -0.5141793, 0.35777315, -0.13564593, -0.76760834, -0.32801053, 0.16044363, -0.36634445, 0
1752, 3232609772, -0.514444, 0.35769314, -0.13518617, -0.7675495, -0.7121596, -0.7259693, -0.45785618, 0
