sep=,
DeviceTag:,Xsens_DOT_3,,,,,,,,,,,,,,,,,
FirmwareVersion:,3.0.0,,,,,,,,,,,,,,,,,
AppVersion:,2023.6.1,,,,,,,,,,,,,,,,,
SyncStatus:,Synced,,,,,,,,,,,,,,,,,
OutputRate:,60Hz,,,,,,,,,,,,,,,,,
FilterProfile:,General,,,,,,,,,,,,,,,,,
Measurement Mode:,Sensor fusion Mode - Extended (Quaternion),,,,,,,,,,,,,,,,,
StartTime:,2025-05-05 12:00:10.424 +0200,,,,,,,,,,,,,,,,,
 2025,,,,,,,,,,,,,,,,,,,

PacketCounter,SampleTimeFine,Quat_W,Quat_X,Quat_Y,Quat_Z,FreeAcc_X,FreeAcc_Y,FreeAcc_Z,Status
1, 3203425855, 0.5591186, -0.46208885, -0.24842772, -0.64199454, -0.23759566, 0.034842987, -0.0047302246, 0
2, 3203442522, 0.55989087, -0.46164674, -0.24931931, -0.6412936, -0.21366987, 0.01610299, 0.017848015, 0
3, 3203459189, 0.56080353, -0.46117008, -0.25023088, -0.6404836, -0.15273501, -0.043760035, 0.16162777, 0
4, 3203475856, 0.56170344, -0.460669, -0.2512148, -0.6396699, -0.11322302, 0.023006596, 0.07142067, 0
5, 3203492523, 0.5626037, -0.46026945, -0.2521955, -0.6387797, -0.05008121, -0.07287774, 0.016480446, 0
6, 3203509190, 0.56333435, -0.4600305, -0.25296795, -0.6380021, 0.0539016, -0.14594792, -0.01596737, 0
7, 3203525857, 0.5640875, -0.4597377, -0.25369328, -0.63725936, 0.09328369, -0.173784, -0.05111122, 0
8, 3203542524, 0.5648728, -0.45936227, -0.25454128, -0.6364956, 0.04568046, 0.00791884, -0.106225014, 0
9, 3203559191, 0.56519026, -0.4587775, -0.25563174, -0.63619846, 0.14719082, -0.058142647, -0.13168049, 0
10, 3203575858, 0.56590915, -0.4583701, -0.2562877, -0.635589, 0.05364149, -0.045895927, -0.052433968, 0
11, 3203592525, 0.5665868, -0.45793334, -0.2567715, -0.6351046, -0.0032744647, -0.06495689, 0.08347416, 0
12, 3203609192, 0.5671793, -0.4575656, -0.2572147, -0.6346614, -0.009946941, -0.15367141, 0.13788795, 0
13, 3203625859, 0.56786555, -0.45713037, -0.25757575, -0.63421476, -0.017663894, -0.22222842, 0.17063522, 0
14, 3203642526, 0.5687673, -0.4567969, -0.25799307, -0.6334769, -0.023018481, -0.057340685, 0.21592522, 0
15, 3203659193, 0.56975234, -0.4566493, -0.25838226, -0.632539, 0.052680217, 0.053373553, 0.16552448, 0
16, 3203675860, 0.5706554, -0.4566379, -0.25879747, -0.63156235, 0.23155876, -0.024467293, 0.008895874, 0
17, 3203692527, 0.5711622, -0.4564408, -0.25959414, -0.6309195, 0.3765935, -0.05498195, -0.34148502, 0
18, 3203709194, 0.5718528, -0.4560843, -0.25966918, -0.6305208, 0.26634893, -0.20772009, -0.12715626, 0
19, 3203725861, 0.5722489, -0.45585847, -0.25970507, -0.63031006, 0.12729505, -0.24061796, -0.0880785, 0
20, 3203742528, 0.57237256, -0.4558254, -0.25977403, -0.63019305, 0.088763624, -0.24376446, -0.21236229, 0
22, 3203775862, 0.5729522, -0.45535898, -0.26048052, -0.6297117, 0.10962405, -0.06010554, -0.043494225, 0
24, 3203809196, 0.5734601, -0.45480838, -0.2610628, -0.6294059, 0.23823212, -0.19134922, 0.16598797, 0
25, 3203825863, 0.5735036, -0.45475155, -0.26115108, -0.62937075, 0.24269238, -0.27725753, 0.22288513, 0
27, 3203859197, 0.5736635, -0.45465246, -0.26088852, -0.62940586, -0.059843805, -0.101839654, -0.016918182, 0
28, 3203875864, 0.5738789, -0.4546743, -0.26078588, -0.6292363, -0.13192551, -0.046276122, -0.13038254, 0
29, 3203892531, 0.57402873, -0.45477995, -0.26084894, -0.6289968, -0.15888485, -0.07904737, -0.07672691, 0
31, 3203925865, 0.5518271, -0.4746644, -0.22541337, -0.6475975, -22.522995, 22.777296, -2.2626295, 0
33, 3203959199, 0.5390321, -0.48089105, -0.2557924, -0.6424728, 0.9903119, 3.6459062, -9.114454, 0
35, 3203992533, 0.5424199, -0.47433612, -0.25690648, -0.6440482, 1.5017284, -1.0524642, -0.6872072, 0
36, 3204009200, 0.54925746, -0.4688037, -0.25636703, -0.6425172, 0.20568444, -1.1592565, 2.0830011, 0
37, 3204025867, 0.5559931, -0.46367142, -0.25806263, -0.6397634, -1.1712625, -0.9732211, 3.5353718, 0
40, 3204075868, 0.56433946, -0.45273548, -0.25760308, -0.64047295, 0.0023392865, 0.039513737, 0.4079218, 0
43, 3204125869, 0.563336, -0.45494816, -0.25875086, -0.63932437, 0.3304116, 0.42855904, -0.8449812, 0
44, 3204142536, 0.56412894, -0.4546218, -0.25849718, -0.63895994, 0.07993041, 0.30334708, -0.35983658, 0
45, 3204159203, 0.5650011, -0.45413443, -0.25857508, -0.63850427, -0.058281507, 0.24427418, 0.068683624, 0
47, 3204192537, 0.56553, -0.4539872, -0.25833833, -0.6382365, -0.09073201, -0.08168102, 0.19842339, 0
48, 3204209204, 0.56531066, -0.45431447, -0.2581434, -0.6382769, -0.015368695, -0.11910335, -0.14414692, 0
51, 3204259205, 0.56486374, -0.45433927, -0.25785527, -0.63877106, -0.24396741, 0.10592838, 0.107893944, 0
54, 3204309206, 0.5648384, -0.4541575, -0.2580451, -0.63884604, -0.064197056, -0.25650817, 0.24872494, 0
55, 3204325873, 0.56494683, -0.45433855, -0.2578051, -0.63871837, -0.10799442, -0.12853873, 0.023615837, 0
56, 3204342540, 0.5650948, -0.454635, -0.25754303, -0.6384822, -0.14395419, 0.034724303, -0.18056583, 0
58, 3204375874, 0.5654773, -0.45468876, -0.25729895, -0.6382038, -0.13609615, 0.14120364, -0.27200603, 0
59, 3204392541, 0.5656152, -0.45448744, -0.25737864, -0.6381927, -0.069337405, 0.024246462, -0.051480293, 0
60, 3204409208, 0.56566346, -0.4543501, -0.25750113, -0.63819826, -0.034313038, -0.093253404, 0.12744808, 0
62, 3204442542, 0.56526697, -0.45455202, -0.25745422, -0.63842475, 0.06376875, -0.1049932, 0.020409584, 0
63, 3204459209, 0.56510806, -0.45462784, -0.25723857, -0.6385983, 0.018986309, -0.047978397, -0.087016106, 0
64, 3204475876, 0.5649831, -0.45466542, -0.2570666, -0.6387513, -0.08011515, 0.032678265, -0.021335602, 0
67, 3204525877, 0.56506985, -0.45494732, -0.25692126, -0.6385323, -0.053355, -0.04937781, 0.01934719, 0
68, 3204542544, 0.5650465, -0.45513657, -0.2568222, -0.638458, -0.049007226, -0.054866172, 0.010334969, 0
70, 3204575878, 0.56475323, -0.45546278, -0.25649223, -0.6386174, -0.05738295, 0.07051522, -0.08991146, 0
71, 3204592545, 0.5646455, -0.45546886, -0.2563892, -0.6387497, -0.10294029, 0.05776804, -0.06091118, 0
72, 3204609212, 0.5645546, -0.4555293, -0.25633776, -0.6388077, -0.042052288, 0.0314552, -0.008957863, 0
74, 3204642546, 0.56440556, -0.45576394, -0.2561764, -0.6388366, 0.0052035493, -0.08460166, 0.08580494, 0
75, 3204659213, 0.5643435, -0.45584017, -0.2560392, -0.63889205, 0.011598646, -0.11319769, 0.025527, 0
76, 3204675880, 0.5641818, -0.45595974, -0.25584403, -0.6390278, -0.04541666, -0.05931654, -0.032639503, 0
78, 3204709214, 0.563829, -0.45623982, -0.25568545, -0.6392028, -0.11546126, -0.072432056, -0.009837151, 0
79, 3204725881, 0.5637236, -0.45632756, -0.25565597, -0.6392449, -0.16547525, -0.10545855, 0.039596558, 0
81, 3204759215, 0.56354797, -0.4567792, -0.25566852, -0.6390723, -0.06883115, -0.08287458, 0.022548676, 0
82, 3204775882, 0.563366, -0.45709008, -0.25557512, -0.6390476, 0.003342692, -0.1289434, -0.09909344, 0
83, 3204792549, 0.56318986, -0.45727023, -0.25538826, -0.6391487, -0.03973021, -0.13486414, -0.122611046, 0
85, 3204825883, 0.5625306, -0.45761988, -0.2551533, -0.63957256, -0.1967807, 0.015016941, -0.03925419, 0
86, 3204842550, 0.56223184, -0.45770264, -0.2550836, -0.6398038, -0.17584139, 0.006586308, 5.540848E-4, 0
87, 3204859217, 0.5619724, -0.45780253, -0.25499755, -0.6399946, -0.14373252, -0.04802556, 0.087114334, 0
89, 3204892551, 0.56143767, -0.45819056, -0.25455144, -0.6403638, -0.047829594, -0.113734566, 0.053779602, 0
90, 3204909218, 0.5611125, -0.4583715, -0.25426668, -0.6406322, -0.11664163, -0.094325595, -0.017516136, 0
91, 3204925885, 0.56071496, -0.45851257, -0.2540128, -0.6409802, -0.13082476, 0.04102491, -0.040070534, 0
94, 3204975886, 0.5595252, -0.45915315, -0.2535906, -0.64172816, -0.118297085, -0.06704651, 0.09034729, 0
95, 3204992553, 0.55926144, -0.45943528, -0.25346404, -0.6418058, -0.064714655, -0.03829783, 0.02300167, 0
97, 3205025887, 0.55869687, -0.4599394, -0.25303888, -0.6421045, -0.11860491, -0.07707844, -0.053772926, 0
98, 3205042554, 0.55836743, -0.4601342, -0.25280595, -0.64234287, -0.11292864, -0.11837503, -0.019460678, 0
99, 3205059221, 0.5580026, -0.46029842, -0.2526312, -0.6426108, -0.12983432, -0.13879775, 0.05215168, 0
101, 3205092555, 0.557104, -0.46077162, -0.25221604, -0.64321446, -0.068709835, -0.029587751, -6.198883E-4, 0
102, 3205109222, 0.55675054, -0.4610211, -0.252025, -0.6434163, -0.079089895, -0.012662903, -0.0016469955, 0
103, 3205125889, 0.5563837, -0.4612277, -0.2518562, -0.6436518, -0.15589216, 0.0045339116, -0.027785301, 0
105, 3205159223, 0.5558442, -0.4614885, -0.2517556, -0.6439704, -0.14567915, -0.015238666, -0.10195446, 0
106, 3205175890, 0.5557371, -0.46149072, -0.25179744, -0.6440448, -0.16279113, -0.0063260873, 0.11192608, 0
109, 3205225891, 0.5555422, -0.46195284, -0.25212568, -0.6437531, -0.02645801, -0.17322086, 0.06986904, 0
110, 3205242558, 0.555579, -0.46200323, -0.25214332, -0.64367825, -0.026481116, -0.12029937, 0.033467293, 0
112, 3205275892, 0.55570394, -0.46193177, -0.25220507, -0.6435975, -0.07861683, -0.007031271, -0.033856392, 0
113, 3205292559, 0.55570126, -0.4619384, -0.25232056, -0.6435498, -0.10164844, -0.034532305, 0.036450386, 0
114, 3205309226, 0.5556631, -0.4620896, -0.2524396, -0.6434276, -0.043761376, -0.1416044, 0.085515976, 0
116, 3205342560, 0.5556189, -0.46236458, -0.25219023, -0.643366, -0.09398052, -0.16166413, 0.11601925, 0
117, 3205359227, 0.5554652, -0.4625305, -0.2520072, -0.64345133, -0.08474784, -0.073217705, 0.0483675, 0
118, 3205375894, 0.55531347, -0.46264565, -0.25183105, -0.64356816, -0.046151653, -0.08191471, -0.0781908, 0
120, 3205409228, 0.5550822, -0.46285897, -0.25133294, -0.6438091, -0.116522275, -0.022358, -0.045775414, 0
121, 3205425895, 0.55493987, -0.46295577, -0.25122637, -0.6439039, -0.08876739, -0.10605612, -0.031324387, 0
125, 3205492563, 0.55480707, -0.4629802, -0.25053853, -0.6442685, -0.1527487, -0.13772209, 0.12542343, 0
126, 3205509230, 0.5547492, -0.46313936, -0.2504733, -0.64422935, -0.122571066, -0.15557116, 0.050473213, 0
128, 3205542564, 0.55412537, -0.46384233, -0.24979499, -0.6445239, 0.035247743, -0.1291954, -0.021151543, 0
129, 3205559231, 0.5537739, -0.4640295, -0.24914202, -0.6449438, -0.014887136, -0.18196882, 0.0109910965, 0
130, 3205575898, 0.5534635, -0.46407944, -0.2487632, -0.6453205, -0.12671098, -0.15218282, 0.10519886, 0
132, 3205609232, 0.5526936, -0.4645429, -0.24801666, -0.64593375, -0.23578063, 0.17078938, 0.16339111, 0
133, 3205625899, 0.55245054, -0.46499294, -0.24775787, -0.6459172, -0.2108539, 0.19318582, 0.022424698, 0
135, 3205659233, 0.55189353, -0.46610934, -0.24683492, -0.6459421, -0.1783497, -0.06629215, 0.046416283, 0
137, 3205692567, 0.5507408, -0.4671137, -0.24533173, -0.64677274, -0.10994756, 0.101268806, -0.22199154, 0
140, 3205742568, 0.54987895, -0.46680832, -0.24402566, -0.6482187, -0.39115125, 0.19629645, -0.012721062, 0
143, 3205792569, 0.5510086, -0.46562952, -0.24473712, -0.6478391, -0.4547451, -0.055433895, 0.22180176, 0
144, 3205809236, 0.5519528, -0.46521276, -0.2447511, -0.6473293, -0.431307, 0.14428611, -0.12891674, 0
145, 3205825903, 0.55285394, -0.46474513, -0.24502805, -0.64679134, -0.42757598, 0.16781174, -0.22243786, 0
147, 3205859237, 0.5547931, -0.46386594, -0.24641457, -0.64523315, -0.15882194, -0.11759989, 0.101584435, 0
148, 3205875904, 0.5557324, -0.46361613, -0.24706912, -0.6443535, -0.16042808, -0.12857471, 0.17183113, 0
151, 3205925905, 0.558416, -0.46326053, -0.24802482, -0.6419174, -0.03262236, -0.18685158, -0.055148125, 0
152, 3205942572, 0.5590131, -0.46316433, -0.24815166, -0.641418, -0.044233885, -0.19135092, -0.07865524, 0
153, 3205959239, 0.5594108, -0.46297815, -0.24828047, -0.6411557, -0.0130957635, -0.11616013, -0.10902977, 0
155, 3205992573, 0.55998886, -0.4624103, -0.24828875, -0.6410577, -0.04708063, -0.10452874, 0.05821991, 0
156, 3206009240, 0.5599735, -0.46229923, -0.2483537, -0.6411261, -0.050786417, -0.010430008, 0.11425114, 0
157, 3206025907, 0.55996037, -0.46216908, -0.24830192, -0.6412514, 0.06692799, -0.027265228, -0.048549652, 0
159, 3206059241, 0.5603742, -0.4615382, -0.24806696, -0.64143497, -0.016910907, -0.031021364, 0.0025787354, 0
164, 3206142576, 0.5613968, -0.46070158, -0.24872771, -0.64088625, -0.050045192, -0.05539612, -0.039200783, 0
166, 3206175910, 0.5619498, -0.46032414, -0.2489469, -0.64058775, -0.028875249, 0.08968055, -0.032151222, 0
167, 3206192577, 0.56215596, -0.46022353, -0.24906927, -0.64043146, -0.030410279, 0.051371995, 0.08524132, 0
168, 3206209244, 0.56232965, -0.46011984, -0.24925771, -0.6402801, -0.026225781, -0.0565756, 0.097421646, 0
170, 3206242578, 0.5622663, -0.4601405, -0.24948013, -0.6402345, 0.02136647, -0.112445794, -0.020640373, 0
172, 3206275912, 0.5622133, -0.45995602, -0.24924529, -0.6405049, -0.09949179, -0.10929828, 0.0513916, 0
174, 3206309246, 0.5623306, -0.45937446, -0.2488932, -0.64095604, -0.14376974, -0.024535464, 0.07117081, 0
176, 3206342580, 0.56231374, -0.45933, -0.248752, -0.64105743, 0.009455827, 0.030100042, 0.052127838, 0
178, 3206375914, 0.5621401, -0.45947158, -0.24846901, -0.64121807, -0.006385681, -0.020486973, -0.04526329, 0
179, 3206392581, 0.56194186, -0.4594434, -0.24817225, -0.6415268, -0.052262273, -0.015569689, -0.113345146, 0
182, 3206442582, 0.56153584, -0.45910278, -0.24782905, -0.6422584, -0.135585, 0.0018965075, -0.051112175, 0
183, 3206459249, 0.5615672, -0.45895964, -0.247888, -0.6423106, -0.16960323, 0.04450188, -0.012205124, 0
184, 3206475916, 0.56159, -0.4587855, -0.24787822, -0.6424188, -0.14838338, 0.05082439, 0.09689617, 0
186, 3206509250, 0.5614273, -0.45845753, -0.24795736, -0.64276457, -0.08926314, -0.04506781, 0.09447861, 0
187, 3206525917, 0.5612941, -0.4583591, -0.24785697, -0.6429897, -0.0874241, -0.061021943, -0.06099415, 0
188, 3206542584, 0.56135935, -0.45821553, -0.24798757, -0.6429846, -0.13699466, 0.09413293, -0.00941658, 0
190, 3206575918, 0.5619179, -0.4579716, -0.24825993, -0.6425654, -0.095415615, 0.07938174, 0.036481857, 0
194, 3206642586, 0.56292367, -0.45748144, -0.24839133, -0.6419833, -0.18386997, -0.013262365, -0.029429436, 0
195, 3206659253, 0.563187, -0.45721388, -0.248501, -0.6419004, -0.18288869, 0.0151257925, -0.02234459, 0
197, 3206692587, 0.56373394, -0.4567436, -0.24902806, -0.6415508, -0.034725364, 0.015397584, -0.027920723, 0
199, 3206725921, 0.5644939, -0.4560152, -0.24937975, -0.64126396, -0.027011931, 0.09099246, 0.13739777, 0
201, 3206759255, 0.5652892, -0.4552914, -0.24969988, -0.64095294, 0.033460505, -0.07271949, 0.09455395, 0
205, 3206825923, 0.56671584, -0.4545091, -0.24980989, -0.6402052, -0.06358502, 0.022764571, -0.15657139, 0
214, 3206975926, 0.5671763, -0.45326015, -0.2510121, -0.6402127, -0.024871347, -0.010077529, 0.041176796, 0
217, 3207025927, 0.5670058, -0.45341074, -0.25104284, -0.64024484, 0.034538843, -0.010316017, 0.011422157, 0
220, 3207075928, 0.566388, -0.453498, -0.25087625, -0.64079505, 0.005567149, 6.7143294E-4, -0.012440681, 0
221, 3207092595, 0.56612945, -0.45345774, -0.25094518, -0.6410248, 0.032498505, 0.030466603, 0.007461548, 0
224, 3207142596, 0.5655801, -0.45338804, -0.2511282, -0.6414874, 0.030399885, -0.05657046, -0.02391243, 0
225, 3207159263, 0.5652339, -0.45362255, -0.25112534, -0.6416281, -0.045455605, -0.113736354, 0.06352234, 0
226, 3207175930, 0.5648165, -0.45396397, -0.25114334, -0.6417469, -0.04990927, -0.026035013, -0.028517723, 0
228, 3207209264, 0.5639199, -0.45434153, -0.25106728, -0.64229774, -0.047601778, 0.042084247, -0.0854311, 0
229, 3207225931, 0.5636846, -0.454358, -0.25117525, -0.6424505, -0.0903274, 0.049208723, 0.025424004, 0
230, 3207242598, 0.5635834, -0.45428833, -0.25116804, -0.6425911, -0.118687615, 0.075934954, 0.13474083, 0
232, 3207275932, 0.5636363, -0.45444402, -0.25118417, -0.6424284, -0.10625739, -0.058809165, 0.070866585, 0
234, 3207309266, 0.56358254, -0.45482206, -0.2509609, -0.64229536, -0.025464049, -0.021409636, -0.086833954, 0
236, 3207342600, 0.5638027, -0.45493436, -0.25133738, -0.64187527, -0.0033632554, 0.07872618, -0.0503397, 0
240, 3207409268, 0.5639195, -0.4548934, -0.25165325, -0.64167786, 0.04193986, -0.024520488, 0.014838219, 0
248, 3207542604, 0.56218904, -0.45556256, -0.25080052, -0.6430538, -0.12169051, -0.07151397, -0.03668213, 0
249, 3207559271, 0.56210583, -0.45556802, -0.25085676, -0.64310086, -0.14743322, -0.025204439, 0.08621693, 0
251, 3207592605, 0.5614743, -0.45604196, -0.25080314, -0.6433375, -0.028776348, -0.06466121, -0.0069475174, 0
252, 3207609272, 0.5611268, -0.45632273, -0.25081423, -0.64343727, -0.016750507, -0.027658612, -0.11513615, 0
253, 3207625939, 0.5608419, -0.45647866, -0.25082138, -0.64357233, -0.07460251, -0.025362909, -0.1509428, 0
255, 3207659273, 0.5605134, -0.45654085, -0.25101462, -0.64373916, -0.21020181, -0.036341418, 0.1978035, 0
256, 3207675940, 0.5604329, -0.45670673, -0.2512043, -0.64361733, -0.09716438, -0.0923265, 0.12223816, 0
257, 3207692607, 0.5603361, -0.4569029, -0.25115287, -0.6435826, -0.04191639, -0.12329221, 0.09282398, 0
259, 3207725941, 0.55993104, -0.45730355, -0.25096673, -0.64372325, -0.038924865, -0.050663345, -0.116345406, 0
260, 3207742608, 0.5597367, -0.45731902, -0.25100705, -0.6438652, -0.099405654, -0.002640694, -0.101023674, 0
261, 3207759275, 0.5594431, -0.45730948, -0.2510025, -0.6441288, -0.06902354, -0.05436014, -0.018255234, 0
264, 3207809276, 0.55920357, -0.45728633, -0.25096732, -0.6443671, -0.17995352, -0.013097859, 0.18156719, 0
267, 3207859277, 0.5589737, -0.45768213, -0.25105283, -0.6442521, -0.040897842, -0.010479069, -0.085632324, 0
268, 3207875944, 0.5588482, -0.45777315, -0.2512421, -0.64422256, -0.120518774, -0.024426153, -0.07824993, 0
271, 3207925945, 0.55855757, -0.4579589, -0.251633, -0.64419013, -0.14924815, -0.025835639, 0.0773077, 0
272, 3207942612, 0.55840564, -0.4581228, -0.25167364, -0.6441896, -0.122454144, -9.483655E-4, 0.056077003, 0
274, 3207975946, 0.558342, -0.45824245, -0.25176898, -0.64412206, -0.061204497, 0.030932628, 0.004087448, 0
275, 3207992613, 0.55828613, -0.45826516, -0.25178206, -0.64414954, -0.067855656, -0.04153217, -0.07522488, 0
276, 3208009280, 0.55821216, -0.45826092, -0.25170746, -0.64424574, -0.066948615, -0.13866822, -0.028622627, 0
279, 3208059281, 0.55839014, -0.45820177, -0.2516437, -0.64415836, -0.09011853, 0.040233895, -0.02085495, 0
280, 3208075948, 0.55849403, -0.45823124, -0.25187445, -0.64395726, -7.919064E-4, -0.08377981, -0.0883131, 0
282, 3208109282, 0.5586304, -0.4581493, -0.2519758, -0.64385736, -0.0881615, -0.08227937, 0.014903069, 0
283, 3208125949, 0.55867845, -0.45806822, -0.25200897, -0.64386046, -0.13301452, -0.03995093, 0.10023975, 0
286, 3208175950, 0.5585754, -0.45799014, -0.25210795, -0.6439669, -0.03610578, -0.06476802, -0.024194717, 0
288, 3208209284, 0.5585582, -0.4579984, -0.25224978, -0.64392024, -0.10695894, -0.09111215, -0.02038002, 0
290, 3208242618, 0.55856466, -0.45792174, -0.2525206, -0.6438629, -0.08111872, -0.10484043, 0.035660744, 0
291, 3208259285, 0.5584785, -0.45794347, -0.2525106, -0.64392614, -0.05154846, -0.040309556, -0.010268211, 0
294, 3208309286, 0.5582051, -0.45797244, -0.25260252, -0.6441064, -0.034719553, -0.079676785, -0.0071964264, 0
295, 3208325953, 0.55813956, -0.45797002, -0.25266653, -0.64414006, -0.086059585, -0.083961524, 0.11425686, 0
298, 3208375954, 0.5577208, -0.4581458, -0.25259876, -0.6444043, -0.0036097341, -0.056791514, -0.040501595, 0
299, 3208392621, 0.55752313, -0.4581924, -0.25259006, -0.6445456, -0.04708418, -0.08745995, -0.024582863, 0
301, 3208425955, 0.5573844, -0.45800602, -0.25241655, -0.64486575, -0.05610587, -0.04182995, 0.029319763, 0
302, 3208442622, 0.55728614, -0.45801648, -0.25246808, -0.64492315, -0.047229126, -0.06537408, 0.042936325, 0
303, 3208459289, 0.5571849, -0.45811334, -0.25251693, -0.6449228, -0.045218796, -0.09207862, 0.059431076, 0
305, 3208492623, 0.5567892, -0.45819545, -0.2522269, -0.6453197, -0.06790927, -0.07795998, 0.0073871613, 0
306, 3208509290, 0.55655813, -0.45817375, -0.25198516, -0.64562863, -0.06475628, -0.007477961, -0.02993393, 0
307, 3208525957, 0.556227, -0.45827958, -0.2518629, -0.6458866, -0.050382446, -0.028025508, -0.08409119, 0
309, 3208559291, 0.5559053, -0.4583298, -0.25175226, -0.6461711, -0.05478596, -0.14613791, -0.025913239, 0
310, 3208575958, 0.55576116, -0.45831513, -0.25164062, -0.6463488, -0.11388393, -0.07040736, 0.091747284, 0
313, 3208625959, 0.55512434, -0.45846385, -0.2514367, -0.6468697, -0.05731836, -0.012015721, -0.048197746, 0
317, 3208692627, 0.5541495, -0.45868233, -0.2515978, -0.6474879, -0.10407359, -0.070913166, 0.055574417, 0
318, 3208709294, 0.55395013, -0.45876274, -0.25171334, -0.64755654, -0.0073815715, -0.09729351, 0.054761887, 0
319, 3208725961, 0.5537842, -0.45882487, -0.25171316, -0.64765453, -0.027052583, -0.020580402, 0.0015487671, 0
321, 3208759295, 0.55375767, -0.4588673, -0.2517575, -0.64762974, -0.13735335, 0.0718574, -0.01952076, 0
322, 3208775962, 0.5538865, -0.45874888, -0.2518228, -0.6475781, -0.15910736, 0.074113764, 0.093587875, 0
323, 3208792629, 0.5540081, -0.45867333, -0.25193077, -0.6474856, -0.1689873, 0.04661899, 0.036068916, 0
325, 3208825963, 0.5543843, -0.45856112, -0.25231525, -0.64709353, -0.07073257, -0.040715232, -0.02415371, 0
326, 3208842630, 0.554513, -0.45852357, -0.252564, -0.6469127, -0.037013132, -0.07627704, -0.016734123, 0
328, 3208875964, 0.5546305, -0.4584505, -0.252912, -0.6467277, -0.011271562, -0.18415456, 0.018058777, 0
330, 3208909298, 0.554665, -0.45836946, -0.2528463, -0.6467812, -0.059422288, -0.15099697, 0.021512032, 0
332, 3208942632, 0.554603, -0.45845133, -0.25278002, -0.6468022, -0.09627927, -0.06013851, 0.012143135, 0
333, 3208959299, 0.55454576, -0.4585274, -0.2528181, -0.6467824, -0.061920073, -0.0776902, 0.007777214, 0
334, 3208975966, 0.55442333, -0.45861238, -0.2528567, -0.6468121, -0.030701406, -0.07964462, -0.04309082, 0
336, 3209009300, 0.5543463, -0.45860526, -0.25293767, -0.6468516, -0.018969936, -0.07869165, -0.019536018, 0
337, 3209025967, 0.5542521, -0.45859504, -0.2529481, -0.64693534, -0.0038435287, -0.1054257, 0.003121376, 0
338, 3209042634, 0.5543144, -0.45855862, -0.2529925, -0.6468905, -0.08105278, -0.11202503, 0.071128845, 0
340, 3209075968, 0.5543215, -0.45856944, -0.2530862, -0.64684004, 0.0066105356, -0.037712447, -0.047050476, 0
342, 3209109302, 0.5544572, -0.45849794, -0.25330058, -0.6466906, -0.021551399, -0.049827743, 0.032086372, 0
344, 3209142636, 0.55463386, -0.4584241, -0.25357872, -0.64648247, -0.04234196, -0.060946506, 0.038392067, 0
345, 3209159303, 0.55480736, -0.45831892, -0.25374064, -0.64634454, -0.033174798, -0.05533387, 0.055505753, 0
346, 3209175970, 0.5550176, -0.45826766, -0.25379348, -0.64617956, -7.610616E-5, -0.05218167, 0.018336296, 0
348, 3209209304, 0.5553243, -0.4582708, -0.2537805, -0.6459187, 0.0025822453, -0.07170933, 9.1552734E-4, 0
349, 3209225971, 0.5555489, -0.45820183, -0.2539536, -0.64570653, -0.037953954, -0.019951437, 0.011338234, 0
351, 3209259305, 0.5555899, -0.45832223, -0.2540288, -0.6455562, -0.07434091, -0.08920916, -0.030146599, 0
352, 3209275972, 0.5556575, -0.45829257, -0.25394756, -0.6455512, -0.0755231, -0.18967578, 0.012426376, 0
353, 3209292639, 0.5558149, -0.45813784, -0.25384486, -0.64556587, -0.076948024, -0.15992643, 0.021339417, 0
355, 3209325973, 0.5559522, -0.45805258, -0.25359392, -0.6456069, -0.050300527, -0.10211692, 0.027558327, 0
356, 3209342640, 0.5559905, -0.45811456, -0.2535308, -0.64555466, -0.05550313, -0.13933384, 0.03728485, 0
360, 3209409308, 0.5558764, -0.45852795, -0.2529119, -0.6456023, -0.08970776, -0.074571855, -0.030365944, 0
361, 3209425975, 0.5559167, -0.45853397, -0.25274, -0.64563054, -0.08808461, -0.08721185, 0.016347885, 0
363, 3209459309, 0.55638164, -0.45833194, -0.25233084, -0.6455334, -0.051037338, -0.018308394, 0.020834923, 0
364, 3209475976, 0.5565038, -0.45830172, -0.25215876, -0.6455169, -0.046473343, -0.023805695, -0.07845116, 0
368, 3209542644, 0.55625355, -0.45841902, -0.25200522, -0.645709, 0.1844525, -2.181014, 3.0692692, 0
369, 3209559311, 0.5257097, -0.49402523, -0.2688241, -0.63821244, -4.845553, -10.8632145, 5.6314774, 1024
371, 3209592645, 0.5155305, -0.4910584, -0.2521448, -0.6553824, -0.31764913, 3.063153, -4.7113705, 0
372, 3209609312, 0.51046205, -0.492133, -0.2587653, -0.6559629, 1.7723123, -0.0321781, -6.3109426, 0
373, 3209625979, 0.51345205, -0.48741603, -0.26014405, -0.6566055, 0.5126453, -0.33031648, -1.7630692, 0
375, 3209659313, 0.5236941, -0.4767873, -0.26057607, -0.65614873, -0.25956225, -0.15281625, -0.44076538, 0
378, 3209709314, 0.54328966, -0.45819342, -0.2598735, -0.6537385, -0.9307883, -1.4500877, 3.3714914, 0
379, 3209725981, 0.54647595, -0.45398867, -0.2559808, -0.6555494, -1.3614823, -0.44091418, 2.610694, 0
380, 3209742648, 0.547752, -0.4539076, -0.25720596, -0.6540593, -0.8557597, 0.5957129, 0.51789284, 0
382, 3209775982, 0.5525933, -0.45267776, -0.25881785, -0.6501923, 0.18723427, 0.45005843, -0.92438126, 0
383, 3209792649, 0.55591077, -0.45158282, -0.25973475, -0.64775544, 0.13779758, 0.34907487, -0.73987293, 0
384, 3209809316, 0.55912757, -0.450399, -0.26060957, -0.64545554, 0.021255244, 0.21842065, -0.565505, 0
386, 3209842650, 0.56436723, -0.44836798, -0.2627166, -0.6414427, 0.087936476, -0.100650676, -0.043632507, 0
390, 3209909318, 0.5700449, -0.44554543, -0.2662486, -0.63691646, 0.08417207, -0.17850024, -0.07303524, 0
391, 3209925985, 0.57088923, -0.44524938, -0.2669435, -0.6360759, -0.026501708, -0.20553872, 0.054566383, 0
392, 3209942652, 0.57162476, -0.44507864, -0.2674349, -0.635328, -0.03794574, -0.26814145, 0.03167343, 0
395, 3209992653, 0.5729716, -0.44478616, -0.2688635, -0.63371485, 0.033676587, -0.2218014, -0.055042267, 0
396, 3210009320, 0.573049, -0.44477966, -0.26918897, -0.63351095, 0.092953116, -0.17463057, -0.063230515, 0
398, 3210042654, 0.57281977, -0.44477114, -0.2693751, -0.6336451, 0.11114249, -0.1432166, -0.022621155, 0
399, 3210059321, 0.57242477, -0.44481283, -0.2693898, -0.63396657, 0.06075054, -0.17656517, 0.020776749, 0
402, 3210109322, 0.5717555, -0.44466943, -0.26960284, -0.6345802, -0.119464375, -0.003599229, 0.1448288, 0
403, 3210125989, 0.5717129, -0.44482628, -0.26972103, -0.6344584, -0.007563902, -0.041266527, 0.038398743, 0
405, 3210159323, 0.57152814, -0.44506636, -0.26989764, -0.6343814, 0.20951009, -0.13107504, -0.012335777, 0
406, 3210175990, 0.57131, -0.4451249, -0.269792, -0.6345819, 0.17461927, -0.16199616, 0.03338337, 0
410, 3210242658, 0.5706513, -0.4452428, -0.2693425, -0.6352823, -0.14731191, -0.098477796, 0.0042819977, 0
417, 3210359327, 0.5682837, -0.4461395, -0.26811624, -0.63729113, -0.24808183, -0.099288926, 0.13515186, 0
418, 3210375994, 0.5678942, -0.44643238, -0.26798582, -0.63748795, -0.17348416, -0.16841902, 0.06165123, 0
419, 3210392661, 0.56751037, -0.44668627, -0.26784635, -0.63771045, -0.13835731, -0.20964375, -0.025075912, 0
425, 3210492663, 0.56604326, -0.44753838, -0.26704878, -0.63875073, -0.2122573, -0.22173245, 0.08403492, 0
426, 3210509330, 0.565755, -0.4477084, -0.26688707, -0.6389546, -0.18366568, -0.12754901, 0.038463593, 0
429, 3210559331, 0.5649214, -0.44806528, -0.2663238, -0.63967645, -0.13354535, -0.11335571, -0.011927605, 0
430, 3210575998, 0.56457275, -0.4482585, -0.26611257, -0.6399366, -0.17447236, -0.10637529, -0.02706623, 0
432, 3210609332, 0.5639347, -0.44848534, -0.2657652, -0.6404846, -0.18502374, -0.14715679, 1.8310547E-4, 0
434, 3210642666, 0.56357276, -0.4485091, -0.26556852, -0.64086795, -0.27101326, -0.17487307, 0.02700615, 0
436, 3210676000, 0.56340426, -0.44860598, -0.26540917, -0.64101446, -0.21522689, -0.093052246, -0.010643959, 0
437, 3210692667, 0.5632528, -0.4486575, -0.26542753, -0.6411037, -0.1087899, -0.11305419, -0.07525158, 0
438, 3210709334, 0.5629994, -0.44869843, -0.26546508, -0.64128196, -0.07642014, -0.16502431, -0.088768005, 0
440, 3210742668, 0.56251484, -0.4487233, -0.26550817, -0.64167196, -0.11007957, -0.13302352, -0.08665943, 0
442, 3210776002, 0.56216484, -0.44864285, -0.26553592, -0.64202327, -0.21156473, -0.09397468, 0.120443344, 0
445, 3210826003, 0.56178707, -0.44861633, -0.26571852, -0.6422969, -0.15177406, -0.20005818, 0.023103714, 0
448, 3210876004, 0.56191313, -0.4485933, -0.26575118, -0.6421892, -0.087128036, -0.109163165, -0.05533123, 0
449, 3210892671, 0.56189555, -0.44850346, -0.26572156, -0.64227957, -0.08817034, -0.15458234, -0.026904106, 0
450, 3210909338, 0.56191325, -0.44834074, -0.26571506, -0.64238054, -0.12201824, -0.12779197, 0.026083946, 0
452, 3210942672, 0.56174374, -0.44819868, -0.2657957, -0.64259446, -0.07163713, -0.19378327, 0.012586594, 0
456, 3211009340, 0.5563101, -0.47496668, -0.22988364, -0.6419441, -2.0579798, 3.8167071, -3.7316623, 0
458, 3211042674, 0.5464891, -0.4729013, -0.2395352, -0.6483441, 1.3846327, -1.7359786, -3.050939, 0
460, 3211076008, 0.55224484, -0.4644821, -0.2504008, -0.6454412, 0.23814738, -2.5376565, 3.212119, 0
461, 3211092675, 0.55558974, -0.46132562, -0.2590225, -0.6414197, -0.73264766, -1.0278988, 3.104659, 0
469, 3211226011, 0.5623025, -0.44948655, -0.2609777, -0.64318085, 0.12853499, -0.11733324, 0.12636948, 0
470, 3211242678, 0.56257606, -0.4489951, -0.26095402, -0.6432942, 0.08464447, -0.06365716, 0.16322422, 0
471, 3211259345, 0.56253415, -0.44866818, -0.26053557, -0.6437285, 0.21517067, -0.073420316, -0.014528275, 0
475, 3211326013, 0.5615772, -0.448502, -0.25907946, -0.6452659, -0.08789798, -0.1937284, -0.024071693, 0
476, 3211342680, 0.561374, -0.4483103, -0.2588846, -0.64565367, -0.23074031, -0.13860676, 0.13120747, 0
477, 3211359347, 0.56111705, -0.44836164, -0.25872305, -0.6459062, -0.24826942, -0.17931852, 0.14301682, 0
479, 3211392681, 0.5609189, -0.44848618, -0.25830215, -0.6461603, -0.11601882, -0.105369486, 0.03510475, 0
481, 3211426015, 0.56086016, -0.448706, -0.2579968, -0.64618075, -0.055373713, -0.14066096, -0.18346691, 0
483, 3211459349, 0.5611169, -0.44843677, -0.25799918, -0.6461437, -0.18042447, -0.104275055, 0.12432861, 0
484, 3211476016, 0.5612831, -0.4483143, -0.25802654, -0.6460734, -0.21757114, -0.11914135, 0.17926598, 0
486, 3211509350, 0.5616549, -0.44835216, -0.25832647, -0.64560395, 0.00534263, -0.20900495, 0.0022850037, 0
487, 3211526017, 0.56166375, -0.44848332, -0.25844097, -0.6454595, 0.023600174, -0.15745907, -0.17598629, 0
488, 3211542684, 0.5616003, -0.44850564, -0.25849223, -0.6454786, 0.0032007056, -0.11391338, -0.15214634, 0
492, 3211609352, 0.5614473, -0.44852293, -0.2585415, -0.64558, -0.17731255, -0.13845712, 0.21737003, 0
494, 3211642686, 0.56154215, -0.4488989, -0.25810498, -0.64541066, -0.047650225, -0.0121753095, -0.13174534, 0
495, 3211659353, 0.5615727, -0.44904956, -0.25791556, -0.6453552, -0.024696002, -6.9680164E-4, -0.14823055, 0
496, 3211676020, 0.56151557, -0.4491591, -0.2577477, -0.6453957, 0.005140519, -0.093632706, -0.17905903, 0
506, 3211842690, 0.56116354, -0.45020938, -0.2570899, -0.64523244, -0.07576564, -0.18041933, -0.08233261, 0
507, 3211859357, 0.5610738, -0.45027545, -0.25703982, -0.6452843, -0.1659754, -0.23139559, 5.2452087E-5, 0
510, 3211909358, 0.56123835, -0.45074213, -0.25661367, -0.64498496, -0.13909401, -0.05359025, -0.008161545, 0
512, 3211942692, 0.56115866, -0.45101997, -0.2563556, -0.64496255, -0.08351903, -0.15482485, 0.011166573, 0
514, 3211976026, 0.5605897, -0.45133346, -0.25585032, -0.64543843, -0.11957474, -0.1925543, -0.015229225, 0
517, 3212026027, 0.5599457, -0.4516125, -0.2549827, -0.64614516, -0.18338104, -0.14071682, 0.058214188, 0
518, 3212042694, 0.55988187, -0.45173562, -0.25477183, -0.6461976, -0.20161226, -0.035794035, -0.010129929, 0
519, 3212059361, 0.55974483, -0.45196953, -0.25459307, -0.6462233, -0.26746246, -0.09301559, -0.039150238, 0
521, 3212092695, 0.5592747, -0.45233315, -0.25429183, -0.6464945, -0.19397125, -0.22204962, -0.0019426346, 0
522, 3212109362, 0.5593376, -0.45226568, -0.2542613, -0.64649934, -0.23267184, -0.19922705, 0.031741142, 0
530, 3212242698, 0.5581035, -0.45319036, -0.25274834, -0.6475109, -0.23745866, -0.040612414, -0.0072927475, 0
533, 3212292699, 0.55784094, -0.4533103, -0.2528969, -0.64759505, -0.06697345, -0.23000611, 0.018907547, 0
534, 3212309366, 0.5576858, -0.45339817, -0.252706, -0.64774173, -0.10510423, -0.20093234, 0.05780983, 0
535, 3212326033, 0.5575144, -0.45352578, -0.25254303, -0.6478635, -0.16721506, -0.11852914, 0.049981117, 0
540, 3212409368, 0.55115914, -0.48486, -0.2178289, -0.6431936, -2.6242921, 14.956776, -9.356994, 0
541, 3212426035, 0.54268986, -0.48691386, -0.21697474, -0.6491052, 1.306834, 1.632899, -5.7218447, 0
542, 3212442702, 0.540816, -0.48627898, -0.21987204, -0.65016925, 1.5931143, -0.4782452, -1.2629213, 0
544, 3212476036, 0.5506785, -0.47557443, -0.2297083, -0.6463972, -0.37275842, -0.64580625, 2.13982, 0
545, 3212492703, 0.5540481, -0.46987855, -0.23635814, -0.6452851, -0.7869483, -1.4184527, 3.5877619, 0
546, 3212509370, 0.55459774, -0.46786475, -0.23722889, -0.6459562, 0.47603628, -1.2025034, 0.314847, 0
548, 3212542704, 0.5543844, -0.46721184, -0.23823181, -0.6462427, -0.21640064, 0.41732818, 0.2914009, 0
549, 3212559371, 0.5541788, -0.4675791, -0.23935461, -0.6457384, -0.07070676, 0.6632065, -0.7408705, 0
552, 3212609372, 0.5572507, -0.46540117, -0.24192867, -0.64370567, 0.063293085, 0.18106337, -0.15424728, 0
553, 3212626039, 0.5582821, -0.4646714, -0.24225974, -0.6432146, -0.03904584, -0.041840732, 0.14871597, 0
557, 3212692707, 0.5595699, -0.46373898, -0.24302953, -0.6424776, 0.09167208, -0.08351338, -0.32819176, 0
558, 3212709374, 0.55969584, -0.4632319, -0.24296978, -0.6427563, -0.03755543, -0.008612401, -0.165061, 0
560, 3212742708, 0.5595188, -0.46260053, -0.2435719, -0.643137, -0.3169857, -0.047264498, 0.42390537, 0
561, 3212759375, 0.55928385, -0.4627201, -0.24388194, -0.64313775, -0.22075407, -0.17168656, 0.35525703, 0
562, 3212776042, 0.55907965, -0.46293277, -0.24406227, -0.64309376, -0.07070357, -0.26271623, 0.19617939, 0
565, 3212826043, 0.55894303, -0.46309668, -0.24392767, -0.64314574, 0.08015914, 0.0058912244, -0.121398926, 0
567, 3212859377, 0.5588502, -0.4631782, -0.24410886, -0.64309907, -0.035741035, -0.11454458, 0.1755619, 0
568, 3212876044, 0.558826, -0.46328408, -0.24419978, -0.6430092, -0.09113171, -0.02212063, 0.1763668, 0
569, 3212892711, 0.5588224, -0.4634688, -0.24428901, -0.64284545, 0.058647007, 0.07998456, -0.02584362, 0
571, 3212926045, 0.5588311, -0.46360418, -0.24436098, -0.6427128, 0.17554794, -0.050844952, -0.13126278, 0
572, 3212942712, 0.5586778, -0.4636069, -0.24432422, -0.642858, 0.119922526, -0.15154022, -0.074484825, 0
573, 3212959379, 0.55841327, -0.4636534, -0.24422048, -0.64309376, 0.10364212, -0.147827, -0.021095276, 0
575, 3212992713, 0.5576959, -0.46373612, -0.24393572, -0.64376426, 0.03315488, -0.05317619, 0.018169403, 0
577, 3213026047, 0.55691314, -0.46396673, -0.24362788, -0.6443921, 0.014926167, -0.017856674, 0.032660484, 0
579, 3213059381, 0.5560738, -0.46427813, -0.2433655, -0.64499134, -0.03996775, -0.017694402, 0.015514374, 0
581, 3213092715, 0.55520487, -0.4647415, -0.24320951, -0.64546496, -0.019355228, -0.05931387, -0.0019159317, 0
583, 3213126049, 0.55441463, -0.46515462, -0.24305743, -0.645904, -0.07611734, -0.0018424173, 0.02366066, 0
585, 3213159383, 0.5536623, -0.4656744, -0.24290061, -0.6462333, -0.010291654, -0.043471146, -0.016208649, 0
587, 3213192717, 0.55285484, -0.46602306, -0.24277472, -0.64672065, -0.060560387, -0.05980313, 0.041181564, 0
588, 3213209384, 0.5523148, -0.4663325, -0.24266374, -0.64700055, -0.03891176, -0.15220618, 0.0056295395, 0
589, 3213226051, 0.55186987, -0.46659797, -0.24259955, -0.64721304, -0.114409216, -0.10632232, 0.050873756, 0
591, 3213259385, 0.55122715, -0.46700707, -0.24248835, -0.64750695, -0.103131674, 0.046566576, 0.06225109, 0
592, 3213276052, 0.55101, -0.46716508, -0.24249905, -0.6475739, -0.097287476, 0.051571816, 0.036854744, 0
595, 3213326053, 0.55074507, -0.46733162, -0.24267289, -0.64761406, -0.09749875, 0.017394226, 0.052241325, 0
596, 3213342720, 0.55076456, -0.46735698, -0.24279, -0.6475352, -0.09755083, -0.05168614, -0.026601791, 0
599, 3213392721, 0.55080426, -0.467317, -0.24315809, -0.6473921, -0.014883895, 0.0065535116, -0.12600422, 0
602, 3213442722, 0.5508098, -0.46703056, -0.24377641, -0.64736164, -0.07400441, -0.050981294, 0.14641953, 0
604, 3213476056, 0.5508898, -0.4670474, -0.2440483, -0.6471789, -0.029113624, -0.07609744, 0.07687187, 0
606, 3213509390, 0.5509002, -0.4671116, -0.24419269, -0.6470693, -0.012313804, 0.043032948, -0.043468475, 0
607, 3213526057, 0.5508143, -0.46716753, -0.24432105, -0.6470537, -0.025339523, -0.004339616, -0.06334782, 0
608, 3213542724, 0.5506303, -0.46723926, -0.24441108, -0.64712435, 0.00819974, -0.06781316, -0.064600945, 0
610, 3213576058, 0.5503695, -0.46711513, -0.24434716, -0.6474599, -0.0051698545, -0.109431945, 0.08902645, 0
611, 3213592725, 0.55026853, -0.46713746, -0.24425972, -0.6475627, -0.0134201925, -0.069225766, 0.114935875, 0
615, 3213659393, 0.5497395, -0.4674622, -0.24361736, -0.64801955, -0.030492643, 0.104444586, -0.08172321, 0
618, 3213709394, 0.54898804, -0.4677982, -0.2436343, -0.6484075, -0.022213276, -0.08049305, -0.0098314285, 0
621, 3213759395, 0.5482811, -0.46808046, -0.24344835, -0.6488716, -0.025942143, -0.048041318, 0.063819885, 0
625, 3213826063, 0.546993, -0.4685249, -0.2434954, -0.6496199, -0.07247031, 0.006398841, -0.072496414, 0
627, 3213859397, 0.54681265, -0.46842492, -0.24378575, -0.6497349, -0.0924496, 0.012006558, 0.033420563, 0
629, 3213892731, 0.5468443, -0.46839857, -0.24414948, -0.6495907, -0.039959114, -0.10952638, 0.06733322, 0
630, 3213909398, 0.54694, -0.46833968, -0.24433818, -0.64948165, -0.0821269, -0.026498355, 0.06771183, 0
631, 3213926065, 0.54707307, -0.46827042, -0.24455032, -0.6493397, -0.1086127, 0.061760187, 0.03399849, 0
634, 3213976066, 0.5478271, -0.46766853, -0.24551876, -0.648772, 0.014615596, -0.06494672, 0.06895447, 0
635, 3213992733, 0.54830945, -0.46741807, -0.24572432, -0.64846724, 0.055405397, -0.12920703, 0.17864418, 0
637, 3214026067, 0.5494554, -0.46713907, -0.24549675, -0.6477841, 0.12819064, -0.09068882, 0.19404411, 0
638, 3214042734, 0.5499265, -0.4670597, -0.24514213, -0.64757586, 0.085011505, -0.0864823, 0.03852272, 0
642, 3214109402, 0.5506407, -0.4667109, -0.24410456, -0.6476123, 0.0674735, -0.3680771, -0.1463995, 0
643, 3214126069, 0.55076504, -0.4664582, -0.24367465, -0.6478506, 0.035513528, -0.48818627, -0.008354187, 0
645, 3214159403, 0.551086, -0.46586663, -0.24245434, -0.64846075, -0.08029438, -0.38377142, 0.19600868, 0
646, 3214176070, 0.55108875, -0.465859, -0.24192616, -0.64866126, -0.1589934, -0.30798554, 0.08426857, 0
647, 3214192737, 0.55100846, -0.46593705, -0.24151823, -0.64882535, -0.16346695, -0.23982798, -0.17064095, 0
650, 3214242738, 0.55104506, -0.46546048, -0.24137098, -0.64919096, -0.27852404, -0.14478163, -0.09670162, 0
652, 3214276072, 0.5514848, -0.4652236, -0.24187143, -0.6488011, -0.27083582, -0.039701153, -0.057305336, 0
654, 3214309406, 0.55184734, -0.46525514, -0.24293298, -0.64807326, -0.20500489, 0.03738802, -0.028292656, 0
656, 3214342740, 0.55191964, -0.46558237, -0.24401802, -0.64736867, -0.04316088, -0.2862135, 0.25493526, 0
661, 3214426075, 0.5513485, -0.46846718, -0.24253166, -0.64633185, 0.08699118, -0.037051294, -0.27396107, 0
662, 3214442742, 0.5508048, -0.4688122, -0.24216288, -0.6466836, -0.053749416, -0.06392918, -0.15775013, 0
664, 3214476076, 0.54977834, -0.46924233, -0.24164635, -0.64743775, -0.12803574, -0.13562019, 0.2732544, 0
665, 3214492743, 0.5494767, -0.46961832, -0.24134141, -0.6475347, -0.037089124, -0.0814403, 0.2814083, 0
669, 3214559411, 0.54888797, -0.4712222, -0.2403852, -0.64722455, -0.04045981, 0.037198927, -0.17224312, 0
670, 3214576078, 0.5488564, -0.47114852, -0.24052557, -0.6472528, -0.04040033, -0.00624484, -0.024155617, 0
672, 3214609412, 0.54900277, -0.47110397, -0.24098712, -0.6469894, 0.07197807, -0.22183795, 0.11937237, 0
673, 3214626079, 0.54910123, -0.4712394, -0.2410166, -0.6467962, 0.13823444, -0.16962175, 0.17149258, 0
675, 3214659413, 0.5488865, -0.4718521, -0.24082264, -0.6466039, 0.14404988, -0.09525586, -0.071712494, 0
676, 3214676080, 0.5488065, -0.47192574, -0.24077077, -0.6466373, 0.087355316, -0.017111594, -0.119924545, 0
679, 3214726081, 0.54943585, -0.47172856, -0.24092454, -0.64618975, 0.032858275, -0.020083087, 0.1040678, 0
680, 3214742748, 0.5497508, -0.4718168, -0.24096236, -0.64584285, 0.09962372, 0.012787303, 0.05812359, 0
681, 3214759415, 0.55001444, -0.4718876, -0.24094999, -0.6455713, 0.16057532, -0.069595344, -0.092274666, 0
688, 3214876084, 0.55213463, -0.47093725, -0.24187216, -0.64410883, 0.22381936, -0.22925389, -0.094174385, 0
689, 3214892751, 0.5525069, -0.47062096, -0.24159667, -0.64412427, 0.10879119, -0.13124502, -0.074090004, 0
691, 3214926085, 0.552974, -0.47002265, -0.24137276, -0.6442444, -0.22449993, -0.017276434, 0.09745884, 0
692, 3214942752, 0.5530819, -0.4700608, -0.24144945, -0.64409506, -0.1715137, -0.13471931, 0.19126415, 0
693, 3214959419, 0.55310607, -0.47037205, -0.24135983, -0.6438806, 0.0039927238, -0.27498966, 0.10933018, 0
695, 3214992753, 0.5534546, -0.4708653, -0.24063432, -0.64349204, 0.038390446, -0.19880114, -0.07928848, 0
696, 3215009420, 0.5537406, -0.4708719, -0.24036092, -0.6433432, -0.10455863, -0.08464212, 0.022697449, 0
699, 3215059421, 0.5543444, -0.4714413, -0.24004984, -0.64252186, -0.23482531, 0.049925864, 0.1128912, 0
700, 3215076088, 0.55462015, -0.47182503, -0.23995163, -0.64203876, -0.15830338, 0.030162627, 0.10294914, 0
702, 3215109422, 0.55529267, -0.47248518, -0.23990244, -0.64098966, -0.060831007, 0.29332688, -0.28361225, 0
703, 3215126089, 0.5556404, -0.4725496, -0.24004155, -0.6405885, -0.032002527, 0.31038114, -0.4413309, 0
704, 3215142756, 0.5560307, -0.4722906, -0.24033019, -0.64033246, 8.377545E-4, 0.24818587, -0.28293037, 0
706, 3215176090, 0.5566097, -0.47154683, -0.24097028, -0.640137, 0.12467547, -0.09762643, 0.13832664, 0
707, 3215192757, 0.556856, -0.47123888, -0.24115407, -0.64008033, 0.08325028, -0.087883286, 0.43490982, 0
708, 3215209424, 0.5570375, -0.4712967, -0.24131107, -0.6398208, 0.012182658, -0.14608873, 0.6330261, 0
710, 3215242758, 0.55703217, -0.47236812, -0.24155077, -0.6389444, 0.023717351, -0.08842921, -0.09637451, 0
711, 3215259425, 0.5569819, -0.47286737, -0.24132535, -0.6387039, 0.14845213, -0.111719154, 0.066646576, 0
714, 3215309426, 0.5560816, -0.4735416, -0.23800132, -0.6402343, 0.06836077, -0.004407899, -0.10172653, 0
715, 3215326093, 0.555953, -0.47369114, -0.23686987, -0.640655, -0.12207007, -0.03107143, 0.39709473, 0
716, 3215342760, 0.5560162, -0.47427836, -0.23647648, -0.64031076, -0.3232856, 0.14740658, 0.48296738, 0
718, 3215376094, 0.554999, -0.47636417, -0.23548579, -0.64000994, 0.03155307, -0.37935668, -0.06537056, 0
719, 3215392761, 0.5542273, -0.47695932, -0.23485383, -0.6404675, -0.17226507, -0.090773195, -0.47313595, 0
720, 3215409428, 0.5535106, -0.47702822, -0.23460211, -0.64112794, -0.49156165, 0.4856217, -0.37011528, 0
724, 3215476096, 0.55452675, -0.4739882, -0.23588231, -0.6420342, -0.65081304, 0.38080326, 0.31902504, 0
727, 3215526097, 0.5567395, -0.47303683, -0.23934153, -0.63953555, 0.05171165, -0.21234447, 0.32777405, 0
729, 3215559431, 0.55793494, -0.47299632, -0.23958468, -0.63843185, 0.15895315, -0.13933228, -0.28520203, 0
731, 3215592765, 0.5613689, -0.47118226, -0.24053404, -0.636403, -0.2534161, -0.0059876884, 0.16794586, 0
733, 3215626099, 0.56531566, -0.4701133, -0.24002641, -0.63388646, 0.18948364, -1.2255328, 0.43259907, 0
734, 3215642766, 0.5666934, -0.46958694, -0.23878714, -0.6335145, -0.09176867, -0.48022687, -0.06355286, 0
735, 3215659433, 0.5674842, -0.4693499, -0.23764384, -0.63341206, -0.1740856, 0.04730942, -0.18020153, 0
737, 3215692767, 0.5684652, -0.46922374, -0.23740256, -0.6327159, -0.33747712, 0.90066254, -0.5677681, 0
738, 3215709434, 0.56869054, -0.46921852, -0.23808192, -0.63226193, -0.10601697, 0.27164972, -0.5753031, 0
741, 3215759435, 0.569033, -0.46822822, -0.24018931, -0.6318907, -0.1615925, -0.15219891, 0.5371361, 0
742, 3215776102, 0.56934303, -0.467655, -0.24160677, -0.6314955, -0.51360154, 0.4384962, 0.81009483, 0
743, 3215792769, 0.56991863, -0.46792838, -0.24273272, -0.6303408, -0.3305642, 0.23082563, 0.48974037, 0
745, 3215826103, 0.5724304, -0.46911013, -0.24332356, -0.6269497, -0.1550281, -1.0409167, 0.2840004, 0
747, 3215859437, 0.5758068, -0.4679045, -0.24207526, -0.6252395, 0.6651273, -0.88112396, -0.47287273, 0
749, 3215892771, 0.57691586, -0.46567243, -0.23825714, -0.62734663, 0.42778075, -0.6333761, -0.007539749, 0
750, 3215909438, 0.5768293, -0.4644237, -0.23572499, -0.6293053, -0.012373594, -0.4974663, 0.15640259, 0
751, 3215926105, 0.57653505, -0.46337408, -0.23299824, -0.6313609, -0.30755824, -0.38477084, 0.1741066, 0
753, 3215959439, 0.5759946, -0.46199763, -0.22718628, -0.6349706, -0.08879231, -0.3061743, -0.020580292, 0
754, 3215976106, 0.5760014, -0.46144164, -0.22432107, -0.63638586, -0.24122675, 0.017431105, -0.058766365, 0
756, 3216009440, 0.5761733, -0.46046382, -0.21892469, -0.63881326, -0.24256772, -0.5197988, 0.08631611, 0
757, 3216026107, 0.5763011, -0.45976356, -0.21645212, -0.6400438, -0.047897205, -0.68767047, 0.2672081, 0
758, 3216042774, 0.57664716, -0.4589268, -0.21465003, -0.6409391, -0.06411064, -0.12838584, 0.38383007, 0
760, 3216076108, 0.5777322, -0.45847866, -0.21246111, -0.64101183, -0.49627733, 0.9632676, 0.024317741, 0
765, 3216159443, 0.57782215, -0.4613909, -0.21322626, -0.6385825, -0.69101065, -1.1351697, -0.49800968, 0
766, 3216176110, 0.57882726, -0.46140185, -0.21321614, -0.63766706, -0.94553936, -0.80585384, 0.11168289, 0
768, 3216209444, 0.5791661, -0.45967674, -0.20820099, -0.64025724, -0.439825, -0.055852983, 0.032730103, 0
769, 3216226111, 0.57970166, -0.45906413, -0.20741302, -0.64046776, -0.4378282, -0.419144, 0.66503143, 0
770, 3216242778, 0.5801141, -0.45863014, -0.2067188, -0.64062965, -0.26581827, -1.1719537, 0.27741814, 0
772, 3216276112, 0.5800334, -0.45727226, -0.20263621, -0.6429733, -1.0519764, -0.41797996, -0.44871712, 0
773, 3216292779, 0.5794083, -0.45687744, -0.20034719, -0.6445333, -0.54525876, -0.44284835, -0.8304472, 0
774, 3216309446, 0.5788801, -0.4563227, -0.19769685, -0.64621717, -0.36906573, -0.18716942, -0.67052174, 0
776, 3216342780, 0.57925886, -0.45399767, -0.19170892, -0.649312, -0.14039485, -0.49363965, -0.035028458, 0
777, 3216359447, 0.57960963, -0.45248508, -0.18875173, -0.6509192, -0.4826754, -0.63304704, 0.48146152, 0
780, 3216409448, 0.5794593, -0.44793123, -0.17907368, -0.6569095, -1.0343994, -0.5029088, -0.04473114, 0
781, 3216426115, 0.5802194, -0.44625837, -0.17647992, -0.65807813, -1.0216854, 0.28707188, 0.065143585, 0
782, 3216442782, 0.5810428, -0.44515458, -0.17430046, -0.6586799, -0.69221777, 0.12309238, -0.08120632, 0
784, 3216476116, 0.5806372, -0.44335538, -0.16953301, -0.6614892, -0.017634697, -0.56691736, -0.38185215, 0
785, 3216492783, 0.57924765, -0.4425382, -0.16669759, -0.66397065, -0.06603886, -0.6417767, -0.5063362, 0
787, 3216526117, 0.57500803, -0.440601, -0.15870668, -0.6708665, -0.36924744, -0.97876143, -0.3340187, 0
788, 3216542784, 0.57276565, -0.4384869, -0.15480039, -0.6750694, -0.83656895, -0.76937854, 0.23769855, 0
789, 3216559451, 0.5709921, -0.43633285, -0.150136, -0.6790095, -1.1604187, -0.28022724, 0.50911236, 0
791, 3216592785, 0.56928194, -0.43078545, -0.14236657, -0.68562865, -1.5686251, -0.58208275, 0.7160063, 0
792, 3216609452, 0.5694477, -0.42806894, -0.13948491, -0.68778133, -1.436726, 0.4975861, -0.41766357, 0
795, 3216659453, 0.572698, -0.41783336, -0.13028301, -0.69316065, -1.2029327, -1.0222677, 0.015797615, 0
796, 3216676120, 0.57389295, -0.41414267, -0.1272203, -0.69495386, -1.1734188, -0.23879127, -0.89745045, 0
797, 3216692787, 0.57502997, -0.40986368, -0.12402375, -0.6971252, -1.5642722, -0.9400587, -0.5071831, 0
799, 3216726121, 0.5774171, -0.399464, -0.119074374, -0.70203453, -2.2085745, -1.3337984, -0.33611107, 0
800, 3216742788, 0.5787679, -0.39422464, -0.11662189, -0.70429194, -2.030085, -1.1349256, -0.9021778, 0
801, 3216759455, 0.57984227, -0.38912743, -0.11441003, -0.70660186, -1.7617424, -1.330355, -1.0731783, 0
803, 3216792789, 0.58166826, -0.3796865, -0.10742286, -0.71131825, -1.4690907, -1.6697813, -1.8971734, 0
804, 3216809456, 0.58265996, -0.37521434, -0.10220497, -0.7136447, -1.7976617, -1.5546622, -2.2560778, 0
805, 3216826123, 0.5826429, -0.37094444, -0.09747767, -0.7165463, -2.1646807, -1.6781662, -1.3928671, 0
807, 3216859457, 0.5812574, -0.36161798, -0.08654538, -0.723806, -2.5721123, -1.0370265, -2.2442555, 0
808, 3216876124, 0.5803853, -0.35629195, -0.081947416, -0.7276721, -3.004844, -0.6208541, -1.9760904, 0
810, 3216909458, 0.58135355, -0.3439918, -0.07705817, -0.73332983, -3.6404831, -1.6383623, -1.6580763, 0
811, 3216926125, 0.5829636, -0.33829004, -0.07596492, -0.73481673, -3.5231767, -1.889142, -1.4813242, 0
812, 3216942792, 0.5849088, -0.33391815, -0.07475534, -0.73539454, -3.7785404, -2.2416673, -0.9466114, 0
814, 3216976126, 0.5901934, -0.32629636, -0.074828535, -0.7345858, -4.7123475, -3.2627876, 0.7417822, 0
815, 3216992793, 0.59358823, -0.32307795, -0.07634203, -0.73311555, -4.6299205, -3.4874883, 2.0820036, 0
816, 3217009460, 0.598335, -0.31917506, -0.07814697, -0.7307726, -5.2430296, -3.8025973, 3.7135487, 0
818, 3217042794, 0.60621655, -0.31617707, -0.08420176, -0.7248839, -2.7057285, -2.3142602, 4.289098, 0
822, 3217109462, 0.60447145, -0.32833043, -0.0959789, -0.7194542, 1.3081441, -0.61430436, 4.170786, 0
824, 3217142796, 0.6012914, -0.32836783, -0.09583874, -0.72211564, 1.4488786, 0.33282062, 4.632965, 0
826, 3217176130, 0.59356606, -0.3294248, -0.09972198, -0.72748005, 2.0572567, -1.6076779, 3.3210363, 0
827, 3217192797, 0.59000045, -0.32982844, -0.10101916, -0.7300143, 1.9112144, -1.4639175, 2.422573, 0
828, 3217209464, 0.5854949, -0.3302483, -0.10233671, -0.7332611, 1.2304281, -0.8560343, 1.7498751, 0
830, 3217242798, 0.5768204, -0.3314757, -0.10750258, -0.73882234, 0.12348864, -0.25012475, 0.7445965, 0
831, 3217259465, 0.5716505, -0.33329713, -0.11046675, -0.7415786, 0.1277752, 0.026407944, -0.026424408, 0
832, 3217276132, 0.5659502, -0.33504137, -0.1139926, -0.74462485, -0.6749384, 0.11869611, 0.059181213, 0
834, 3217309466, 0.556131, -0.33812207, -0.1242193, -0.7489822, -1.717636, 0.9444423, -0.18906116, 0
835, 3217326133, 0.5527911, -0.3398957, -0.13036817, -0.7496067, -0.49313194, 0.17177004, -0.6058521, 0
837, 3217359467, 0.5458586, -0.34342462, -0.14405738, -0.75057197, -0.0507184, 0.21354975, -1.7136908, 0
839, 3217392801, 0.5386081, -0.3495909, -0.15698662, -0.7503703, 0.3316184, 0.17192863, -2.267048, 0
841, 3217426135, 0.5305756, -0.3574171, -0.16760504, -0.75010943, 0.004308226, -1.0280681, -1.228342, 0
842, 3217442802, 0.527051, -0.36142454, -0.17212945, -0.7496493, -0.28257072, -0.95229083, -0.8045063, 0
843, 3217459469, 0.5242069, -0.3659502, -0.17637414, -0.7484603, -0.7645597, -0.16038921, -1.1406775, 0
845, 3217492803, 0.5207615, -0.3790082, -0.18243155, -0.7428944, 0.2132005, -0.80579674, -1.4186554, 0
847, 3217526137, 0.5131411, -0.39258847, -0.18684147, -0.74004316, 1.3488111, -1.2008394, -2.1269546, 0
849, 3217559471, 0.5093692, -0.40204766, -0.18819827, -0.73722124, 3.020909, -0.17560904, -2.4210043, 0
850, 3217576138, 0.50905645, -0.40547624, -0.18726936, -0.7357946, 2.4365635, -0.119936384, -2.4211912, 0
851, 3217592805, 0.5101438, -0.40743744, -0.1864134, -0.73417366, 1.360763, 0.4409177, -1.545042, 0
853, 3217626139, 0.51698625, -0.40524912, -0.18418747, -0.731154, 0.5020492, 1.9515408, -0.5058298, 0
855, 3217659473, 0.52673, -0.3985772, -0.17853414, -0.7292668, 1.6673118, 0.31681815, -1.1511755, 0
857, 3217692807, 0.53663933, -0.3868612, -0.17211662, -0.7298942, 0.28335387, -0.42329052, -0.9991808, 0
858, 3217709474, 0.5412953, -0.37880924, -0.16544804, -0.73221767, -0.34739375, -0.0062722205, -0.38803673, 0
859, 3217726141, 0.54639155, -0.36843327, -0.15871087, -0.7352123, -0.39979193, 1.1282506, -0.57162094, 0
861, 3217759475, 0.556833, -0.34346083, -0.15031533, -0.7412085, -0.9408101, -0.3780468, -4.0237927, 0
862, 3217776142, 0.56244963, -0.32968482, -0.15028304, -0.743227, -1.59231, -1.7995101, -2.7506356, 0
864, 3217809476, 0.5770515, -0.30193642, -0.14513047, -0.74484634, -2.4804142, -1.9114121, -0.07839012, 0
865, 3217826143, 0.58332074, -0.28920892, -0.13962333, -0.7460654, -2.271562, -0.5231571, 0.12437439, 0
866, 3217842810, 0.58883715, -0.27638203, -0.13608721, -0.7472465, -2.9470913, -2.3436263, -1.7515583, 0
868, 3217876144, 0.59877527, -0.2536177, -0.13530144, -0.7475646, -3.851298, -6.2918506, -0.65000343, 0
870, 3217909478, 0.6103151, -0.24501492, -0.123311, -0.74316263, -5.7783227, -5.163225, 1.0378599, 0
872, 3217942812, 0.61657655, -0.24274175, -0.1145405, -0.74013734, -4.3595567, -7.76766, 1.4914703, 0
873, 3217959479, 0.618339, -0.24082832, -0.11162171, -0.73973805, -4.7745085, -7.3971214, 2.3656893, 0
874, 3217976146, 0.62118924, -0.23911501, -0.110642664, -0.7380509, -6.541391, -5.907298, 3.3360558, 0
876, 3218009480, 0.6296948, -0.24192074, -0.110578746, -0.7298933, -3.7619045, -2.873441, 2.96552, 0
877, 3218026147, 0.6311492, -0.25052336, -0.10928169, -0.7259197, -2.8890374, -0.58100474, 3.5591402, 0
878, 3218042814, 0.63072556, -0.2613594, -0.10932024, -0.7224533, -1.5728767, 1.809633, 4.7905293, 0
880, 3218076148, 0.6296459, -0.27483335, -0.121265955, -0.7164638, 4.7535768, 9.139716, -1.4421482, 0
881, 3218092815, 0.6322523, -0.27493238, -0.12554649, -0.7133867, 3.1491435, 3.0131907, 1.7152958, 0
882, 3218109482, 0.6346222, -0.2735955, -0.12862657, -0.7112441, 2.3713777, -1.8361638, 4.597595, 0
885, 3218159483, 0.61598706, -0.28466383, -0.1353992, -0.7219463, 2.589545, -0.43726712, 1.5950441, 0
886, 3218176150, 0.60854673, -0.28846505, -0.1340755, -0.7269769, 1.06064, -0.47222632, 1.3414812, 0
888, 3218209484, 0.5992908, -0.2922404, -0.133997, -0.7331465, -1.8923608, 1.754674, 2.9232264, 0
889, 3218226151, 0.59641236, -0.29382378, -0.1369463, -0.734315, -2.0028625, 1.9079137, 2.673211, 0
891, 3218259485, 0.5889437, -0.30229655, -0.14403635, -0.7355463, -0.06799831, 0.7612486, 0.58027077, 0
892, 3218276152, 0.58445305, -0.30634606, -0.14715055, -0.73683554, 0.084427536, 0.18853933, -0.3881626, 0
893, 3218292819, 0.5814605, -0.3089534, -0.15254933, -0.73701626, 0.16047834, 0.5889535, -0.9781132, 0
895, 3218326153, 0.57909465, -0.3136061, -0.16279846, -0.7347178, 0.4139897, -0.4393876, -1.6852016, 0
896, 3218342820, 0.5799816, -0.31513765, -0.16870065, -0.7320264, 0.65830564, -0.25775424, -1.779438, 0
899, 3218392821, 0.5764747, -0.32243642, -0.18865457, -0.7267283, -0.14488915, 0.5366892, -1.246624, 0
900, 3218409488, 0.5738865, -0.32520506, -0.19563848, -0.7256959, 0.20324615, -0.22215389, -1.2630548, 0
901, 3218426155, 0.57187736, -0.3278902, -0.20264184, -0.7241502, 0.73798615, 0.6388941, -1.5755854, 0
903, 3218459489, 0.57036746, -0.33556035, -0.21566704, -0.71803975, 0.6906513, 0.4324679, -2.597517, 0
904, 3218476156, 0.56792575, -0.34127438, -0.2216838, -0.7154448, 0.7948749, -0.18982151, -2.3416586, 0
905, 3218492823, 0.5642145, -0.34742352, -0.22629312, -0.713977, 0.82189244, -0.62256855, -2.4103413, 0
907, 3218526157, 0.5566857, -0.35750535, -0.22992015, -0.7137512, 2.439972, -0.454177, -1.285924, 0
908, 3218542824, 0.552506, -0.36312088, -0.22968015, -0.71424097, 2.020562, -0.9786507, -0.8513193, 0
909, 3218559491, 0.5466026, -0.37141654, -0.22938904, -0.71461093, 1.8672037, -0.5983072, -1.206564, 0
911, 3218592825, 0.534526, -0.38390502, -0.22305536, -0.7191371, 0.4855686, -0.8218533, -1.1401024, 0
913, 3218626159, 0.5261519, -0.39044133, -0.2102371, -0.72562605, 1.1280793, 0.73481977, -0.9143934, 0
915, 3218659493, 0.5204849, -0.39855692, -0.19523218, -0.7294829, 1.243935, 0.8713435, -1.2335815, 0
916, 3218676160, 0.51839674, -0.40247884, -0.18833886, -0.73062783, 0.12756902, 0.856489, -1.1398945, 0
917, 3218692827, 0.51739657, -0.40456977, -0.18122137, -0.7319808, 0.8964922, 0.51965034, -1.3194399, 0
919, 3218726161, 0.52160615, -0.40235457, -0.16901118, -0.7331344, 0.7487648, -0.6893072, -1.9911318, 0
920, 3218742828, 0.5255881, -0.39863977, -0.16229749, -0.73383653, -0.17396413, -0.81159633, -1.5183144, 0
922, 3218776162, 0.53566605, -0.38447717, -0.14739478, -0.7372427, -0.55042493, -1.0069474, -0.15137863, 0
923, 3218792829, 0.54049814, -0.37236726, -0.14131734, -0.7411119, -0.9607018, 0.21833673, -1.0245962, 0
924, 3218809496, 0.5472193, -0.35690814, -0.13776909, -0.74444634, -2.5083222, 1.2867666, -1.0572062, 0
926, 3218842830, 0.56386983, -0.32634184, -0.13435344, -0.74666864, -3.8744836, 0.40293095, -0.503705, 0
928, 3218876164, 0.5791909, -0.29525504, -0.13583907, -0.74761164, -2.5280533, -3.2428129, 0.19571114, 0
930, 3218909498, 0.59214765, -0.2750958, -0.14221758, -0.7439562, -4.593848, -5.722353, 1.6380949, 0
931, 3218926165, 0.5971624, -0.27206415, -0.14196432, -0.74110556, -3.669662, -6.771455, 2.0164595, 0
932, 3218942832, 0.5990428, -0.27058476, -0.14105295, -0.74030316, -2.7216723, -6.4620523, 2.5468397, 0
934, 3218976166, 0.595558, -0.26972947, -0.14236282, -0.7431705, -4.786408, -3.3170075, 2.4710455, 0
935, 3218992833, 0.5943627, -0.2704265, -0.14704978, -0.7429616, -4.9671173, -2.108645, 2.8858528, 0
936, 3219009500, 0.5934043, -0.2734368, -0.15212625, -0.7416024, -3.3473608, 0.20795645, 2.932251, 0
938, 3219042834, 0.58927363, -0.28367645, -0.16222067, -0.7389057, 0.2485905, 4.5607553, 2.4174461, 0
939, 3219059501, 0.5876391, -0.28684485, -0.16975456, -0.73729014, 2.4135835, 4.7923636, 1.5294399, 0
940, 3219076168, 0.58775264, -0.28864056, -0.17507118, -0.73525274, 3.0022523, 3.2516134, 2.5396976, 0
943, 3219126169, 0.5810809, -0.29005176, -0.18343136, -0.7379573, 1.8962886, 1.340428, 1.7308817, 0
945, 3219159503, 0.5801924, -0.28219482, -0.19357052, -0.7391117, 0.054642938, 1.3999708, 0.9901571, 0
946, 3219176170, 0.5807198, -0.27840102, -0.1975281, -0.7390893, -0.51576704, 0.89067423, 0.692811, 0
947, 3219192837, 0.58091205, -0.27532157, -0.20006692, -0.73940897, -1.2626684, 0.7495055, 0.30319595, 0
949, 3219226171, 0.5845572, -0.2703277, -0.20797998, -0.73618835, -0.86141235, 1.5520525, -1.1870403, 0
950, 3219242838, 0.58670664, -0.26856095, -0.21134037, -0.7341651, 1.1355987, 0.40228197, -1.5789175, 0
951, 3219259505, 0.5899557, -0.2658286, -0.21664153, -0.73100394, 1.1960139, 1.2839249, -1.8200183, 0
953, 3219292839, 0.5928526, -0.26403856, -0.22577043, -0.726533, 1.49402, -0.38459024, -3.1105833, 0
954, 3219309506, 0.59274596, -0.26307365, -0.23014677, -0.7255963, 1.2090176, -1.3529954, -2.323923, 0
955, 3219326173, 0.58955145, -0.2616351, -0.23400524, -0.72748244, 1.5473611, -1.8773072, -1.9535904, 0
957, 3219359507, 0.5762327, -0.26124883, -0.23907122, -0.7365888, 0.35684556, -1.732947, -1.3257284, 0
958, 3219376174, 0.5684363, -0.2630864, -0.23905969, -0.7419765, 1.5807441, -1.8902891, -1.4928865, 0
959, 3219392841, 0.5619891, -0.2649834, -0.23969817, -0.7459959, 0.9660658, -1.5466692, -2.0616055, 0
961, 3219426175, 0.544383, -0.27340633, -0.24060948, -0.75565624, 0.5203582, 0.055472083, -3.6051016, 0
962, 3219442842, 0.53342587, -0.2782639, -0.24157663, -0.7613672, -0.8328643, 0.16502917, -2.0051317, 0
963, 3219459509, 0.5231039, -0.28092846, -0.24337646, -0.76695657, -2.1303806, -1.1576865, 1.278965, 0
965, 3219492843, 0.50588655, -0.2881689, -0.24377173, -0.7756455, -1.4368842, -0.9461282, 1.9479351, 0
966, 3219509510, 0.49786967, -0.29212928, -0.2440677, -0.77924985, -2.1099212, 0.54811823, 2.5624905, 0
967, 3219526177, 0.49017552, -0.29660335, -0.24406485, -0.78243214, -2.550649, 1.461883, 3.5733433, 0
970, 3219576178, 0.4702248, -0.30575866, -0.24329916, -0.79134, -1.3232495, -0.41448867, 7.128111, 0
972, 3219609512, 0.46584064, -0.31258792, -0.23392045, -0.7940879, -0.74368143, 0.68787485, 5.8629417, 0
973, 3219626179, 0.46519798, -0.3185258, -0.22573616, -0.7944736, 0.60771346, -0.51584363, 5.0799074, 0
974, 3219642846, 0.4624617, -0.3253123, -0.2153272, -0.79620856, 2.2134, -2.076658, 4.3404884, 0
976, 3219676180, 0.45432514, -0.33733368, -0.19098186, -0.80208087, 2.514459, -2.0853038, -2.4146113, 0
977, 3219692847, 0.44699448, -0.34507182, -0.17751968, -0.8059908, 1.5274304, -1.3222339, -6.6758156, 0
978, 3219709514, 0.43935174, -0.35335958, -0.1679424, -0.8086505, 0.9885793, -0.93244934, -9.938839, 0
980, 3219742848, 0.4345398, -0.35474312, -0.16627309, -0.81098616, 0.75236666, 2.8473275, -10.779138, 0
981, 3219759515, 0.43754786, -0.35476288, -0.16576618, -0.8094626, 0.81932336, 6.638585, -10.227447, 0
982, 3219776182, 0.43861276, -0.35796386, -0.16155618, -0.80832756, 1.8354471, 7.990134, -8.2144575, 0
985, 3219826183, 0.44260788, -0.37522173, -0.15050362, -0.8004177, 1.1094568, 1.1262715, -0.9489708, 0
986, 3219842850, 0.44495428, -0.37788656, -0.14785261, -0.7983545, -1.357963, -2.08111, 3.0675745, 0
988, 3219876184, 0.4511481, -0.3793793, -0.15026611, -0.79370654, 0.7240722, -0.9166729, 1.2194786, 0
989, 3219892851, 0.45483547, -0.37722987, -0.15082341, -0.79251987, 1.2005436, -0.6498703, 1.7080126, 0
990, 3219909518, 0.4576173, -0.37556776, -0.15206493, -0.79146993, 1.7600561, 0.3542747, 1.6622219, 0
992, 3219942852, 0.45811826, -0.36950806, -0.15777875, -0.79291254, -0.20606548, 3.577813, 1.2944813, 0
993, 3219959519, 0.45597607, -0.3674971, -0.16104706, -0.79442346, -0.090344995, 2.6062393, 0.49304104, 0
994, 3219976186, 0.45440337, -0.36586586, -0.16337404, -0.7956015, 0.5183802, -0.8515606, 0.10829544, 0
996, 3220009520, 0.45548025, -0.36130396, -0.1655585, -0.79661834, 2.3564653, -3.5853472, 2.8854923, 0
997, 3220026187, 0.45520782, -0.35744712, -0.1666553, -0.7982834, 1.2554, -0.87745476, 2.7861414, 0
1000, 3220076188, 0.45135832, -0.35103792, -0.16789946, -0.80303836, -1.8250867, -0.13371646, -0.10538769, 0
1001, 3220092855, 0.45094323, -0.35111114, -0.16693807, -0.8034401, -0.9063154, -1.9172883, 0.50959015, 0
1003, 3220126189, 0.45540884, -0.34876677, -0.16980085, -0.8013397, 0.38017002, 0.7518501, 0.8894415, 0
1004, 3220142856, 0.45846725, -0.34637585, -0.17398308, -0.799734, -0.83452564, 2.64316, 0.69423676, 0
1005, 3220159523, 0.46134883, -0.34324828, -0.17783998, -0.7985762, -0.71272457, 2.7502167, 0.10085297, 0
1007, 3220192857, 0.47022903, -0.34017235, -0.17906746, -0.7944276, 0.79153514, -1.3801442, -1.1427412, 0
1008, 3220209524, 0.47733834, -0.33941552, -0.17771012, -0.7908082, 1.1701312, -2.5172715, -1.2424154, 0
1009, 3220226191, 0.48246896, -0.33640313, -0.17785493, -0.7889469, 0.7383252, -1.4372544, -0.9005699, 0
1011, 3220259525, 0.4923897, -0.32455012, -0.1800035, -0.7872936, -0.04563475, 1.4775919, -1.2369986, 0
1012, 3220276192, 0.49972206, -0.3179751, -0.18121767, -0.78507507, -0.6961691, 1.4310182, -2.5718846, 0
1015, 3220326193, 0.5258999, -0.30589116, -0.17348278, -0.77445245, 0.9139155, -1.3244376, -3.4655685, 0
1016, 3220342860, 0.5302576, -0.3027808, -0.16988826, -0.7734997, 0.5714745, -2.2133236, -3.8721585, 0
1017, 3220359527, 0.53354937, -0.29850614, -0.16804619, -0.7732998, 0.96730137, -1.0747868, -4.724031, 0
1019, 3220392861, 0.5371723, -0.28791788, -0.16725323, -0.77497655, 0.23716122, -1.2863762, -7.1751814, 0
1020, 3220409528, 0.5379247, -0.28048277, -0.17311257, -0.7758938, -1.791055, -0.21307923, -6.6817284, 0
1021, 3220426195, 0.5351717, -0.27823243, -0.1784779, -0.77739096, -1.9875052, 1.3751098, -3.7059464, 0
1023, 3220459529, 0.52410734, -0.27794817, -0.18548149, -0.78336835, -3.9583447, -6.3409357, 8.0558815, 0
1024, 3220476196, 0.52257144, -0.27551633, -0.18791547, -0.7846724, -3.935689, -7.2099986, 10.358622, 0
1026, 3220509530, 0.51918304, -0.26392493, -0.19590145, -0.78894126, -7.3797503, -5.3833237, 12.168072, 0
1027, 3220526197, 0.5210194, -0.25635108, -0.20002866, -0.7891924, -8.217233, -3.371431, 9.574768, 0
1028, 3220542864, 0.5241521, -0.2517149, -0.20126545, -0.7882954, -5.200648, -3.3517807, 6.6418877, 0
1030, 3220576198, 0.52735174, -0.24401599, -0.19926819, -0.78908896, 1.1157925, -5.5205674, 5.5865316, 0
1031, 3220592865, 0.5270391, -0.2384831, -0.2066349, -0.7890948, 5.0471206, -2.4113553, 4.1380415, 0
1032, 3220609532, 0.53003526, -0.2372624, -0.21848339, -0.7842494, 9.392723, 3.219934, 2.1105757, 0
1034, 3220642866, 0.53818274, -0.23514065, -0.21917242, -0.7791306, -0.5218158, 6.3248553, -1.3557558, 0
1035, 3220659533, 0.5453019, -0.23207836, -0.21341941, -0.77669215, -2.8198946, 1.1488731, 1.0863056, 0
1036, 3220676200, 0.55230546, -0.23381616, -0.2046251, -0.7735827, 0.0061276914, -2.5310688, 1.4832935, 0
1038, 3220709534, 0.56201494, -0.23772919, -0.20391393, -0.765543, 0.95130074, -3.0144212, -1.0718231, 0
1039, 3220726201, 0.5675969, -0.23826969, -0.21017006, -0.75954133, 0.50289965, -0.5827235, -0.8728771, 0
1042, 3220776202, 0.58210456, -0.24186558, -0.21710914, -0.7453401, 1.2082176, -0.54633844, -0.9293804, 0
1043, 3220792869, 0.58477694, -0.24353617, -0.2193552, -0.7420394, 2.2184162, -0.86433315, -1.0412312, 0
1044, 3220809536, 0.587993, -0.24625535, -0.22217047, -0.7377506, 1.9258072, -0.6450884, -1.2495728, 0
1046, 3220842870, 0.5911467, -0.25496462, -0.22862294, -0.73026246, 1.1317694, 0.7518481, -1.3581743, 0
1047, 3220859537, 0.59028876, -0.2610256, -0.23054036, -0.72820956, 2.471036, 0.41341698, -1.2901993, 0
1048, 3220876204, 0.5889747, -0.26603237, -0.23246112, -0.72684956, 2.078293, -0.33286762, -1.6898861, 0
1050, 3220909538, 0.5826777, -0.2785591, -0.23526037, -0.7263311, 0.4020642, -0.19218874, -0.6219349, 0
1051, 3220926205, 0.5786835, -0.28607136, -0.2357881, -0.72643346, -0.35065052, 0.23624939, -0.64939594, 0
1053, 3220959539, 0.56893045, -0.29885045, -0.23860112, -0.7280723, -0.19412419, 0.9815301, -0.9475317, 0
1054, 3220976206, 0.56388605, -0.30413392, -0.2405523, -0.72916573, 0.23938434, 0.8722976, -0.5958414, 0
1057, 3221026207, 0.5518775, -0.3242495, -0.2402646, -0.72978044, -0.44864744, 0.13192248, 0.3274498, 0
1058, 3221042874, 0.5495861, -0.33102274, -0.24013299, -0.72851104, -0.63071764, 0.39500338, -0.2965765, 0
1059, 3221059541, 0.5484764, -0.33621636, -0.24030904, -0.72690904, -0.71203846, 0.9099578, -1.1309805, 0
1061, 3221092875, 0.5447804, -0.34528488, -0.24125934, -0.72512037, -0.5114649, 0.2746298, -0.6534176, 0
1062, 3221109542, 0.54350066, -0.35017642, -0.24159463, -0.7236217, -0.6810854, 0.95020175, 0.14767933, 0
1063, 3221126209, 0.5414733, -0.35563862, -0.24138361, -0.7225474, -0.36992395, 0.46990672, 0.02693367, 0
1065, 3221159543, 0.5360025, -0.36446482, -0.24327222, -0.7215944, 0.4726892, 0.57988393, -0.8876152, 0
1066, 3221176210, 0.5333684, -0.36711928, -0.24532911, -0.7215042, -0.41014364, 1.0373254, -1.0364275, 0
1067, 3221192877, 0.52987385, -0.37034383, -0.2463288, -0.7220901, -0.67214715, 0.86753124, -0.92192173, 0
1069, 3221226211, 0.5254057, -0.37792578, -0.24744433, -0.72104454, 0.0010918049, 0.31838146, -0.8820677, 0
1071, 3221259545, 0.5197513, -0.38614514, -0.24690488, -0.72097254, 0.90084374, 1.0140159, -1.2008734, 0
1073, 3221292879, 0.5133628, -0.39238536, -0.24774666, -0.7218913, -0.028945878, 1.414871, -0.44797802, 0
1074, 3221309546, 0.51007533, -0.39519018, -0.24867485, -0.7223722, -0.51319456, 1.0933843, 0.39944363, 0
1075, 3221326213, 0.506938, -0.3976454, -0.24974182, -0.7228652, -0.590032, 0.87716705, 0.88739395, 0
1077, 3221359547, 0.5018293, -0.40195432, -0.25101298, -0.7236059, -0.64031935, 0.86576784, 0.45587254, 0
1078, 3221376214, 0.5002214, -0.4041091, -0.2516236, -0.723307, -0.7149177, 0.608936, 0.42476463, 0
1080, 3221409548, 0.5011853, -0.40743586, -0.2546551, -0.7197035, -1.0734828, 0.78329504, 0.72575665, 0
1081, 3221426215, 0.5027994, -0.40886095, -0.2561741, -0.7172262, -0.71832365, 0.83158034, 0.50555134, 0
1082, 3221442882, 0.5048685, -0.409905, -0.25803792, -0.7145033, -0.34608462, 0.8383894, 0.3724413, 0
1084, 3221476216, 0.50830024, -0.41290972, -0.2607258, -0.7093457, 0.47092694, 0.13195188, -0.28789902, 0
1086, 3221509550, 0.508872, -0.41597092, -0.2610359, -0.7070295, 1.2070007, -0.30862737, -0.8529577, 0
1088, 3221542884, 0.50599396, -0.41723725, -0.2605483, -0.7085273, 0.7011006, 0.36908537, -0.6833582, 0
1089, 3221559551, 0.50389457, -0.41697797, -0.26110715, -0.7099688, 0.37471876, 0.94843477, -0.68395233, 0
1090, 3221576218, 0.50169325, -0.4163255, -0.2611114, -0.7119065, 0.60652375, 1.2582011, -0.46154594, 0
1092, 3221609552, 0.49660468, -0.41362876, -0.2595515, -0.7175942, 0.41182747, 1.0965166, -0.12548828, 0
1093, 3221626219, 0.49332273, -0.41216156, -0.2577402, -0.7213449, 0.21672113, 0.4623505, -0.13876343, 0
1094, 3221642886, 0.4899393, -0.40999553, -0.2559151, -0.72552305, 0.10400142, 0.03626699, -0.38059616, 0
1096, 3221676220, 0.4868974, -0.39893812, -0.25305265, -0.7346813, 0.30858618, 1.033727, -0.07230663, 0
1097, 3221692887, 0.48790443, -0.38954303, -0.25338405, -0.7389282, 0.16687924, 1.8808235, -0.3520527, 0
1098, 3221709554, 0.49166614, -0.37734553, -0.25474772, -0.74228793, 0.0801432, 2.5585337, -0.8242159, 0
1100, 3221742888, 0.5036234, -0.34984744, -0.2561235, -0.7472508, 0.62127435, 1.9744643, -3.6017008, 0
1101, 3221759555, 0.5096421, -0.3384572, -0.25218618, -0.7497512, -0.54553443, 0.5196762, -3.3753276, 0
1102, 3221776222, 0.5141797, -0.32953873, -0.24609753, -0.7526436, -0.0145311365, -1.1582128, -3.917852, 0
1104, 3221809556, 0.52410215, -0.3078262, -0.2389197, -0.75729156, 0.36277017, -1.6090227, -4.938438, 0
1105, 3221826223, 0.5299059, -0.2936696, -0.23952219, -0.7586832, -0.004577769, 0.21399818, -4.9867377, 0
1106, 3221842890, 0.53418815, -0.28008685, -0.24061774, -0.7604672, -0.332596, 2.345252, -4.006388, 0
1108, 3221876224, 0.53421724, -0.26313013, -0.23698317, -0.7676109, -1.8980224, -1.6793793, -1.9309068, 0
1109, 3221892891, 0.53070396, -0.25735867, -0.23450567, -0.7727483, -3.3378375, -5.0247746, 1.2863026, 0
1111, 3221926225, 0.5261031, -0.24962394, -0.23129934, -0.7793697, -5.815551, -6.6068788, 4.8077593, 0
1113, 3221959559, 0.5152327, -0.24119496, -0.23070848, -0.7893966, -4.262935, -5.970547, 5.1661854, 0
1115, 3221992893, 0.5075468, -0.2337639, -0.23690155, -0.79475874, -1.8906094, -1.1857498, 5.4050655, 0
1116, 3222009560, 0.50446904, -0.2316739, -0.24339224, -0.7953688, 0.65967065, 2.3056612, 3.6254272, 0
1117, 3222026227, 0.50369453, -0.23001571, -0.24694051, -0.7952471, 2.5851588, 3.4031065, 2.2221813, 0
1119, 3222059561, 0.5079765, -0.22955051, -0.2412562, -0.79440224, 5.4090977, 1.7075675, 4.4808397, 0
1120, 3222076228, 0.5101752, -0.2286291, -0.23668033, -0.79463536, 2.7116275, -0.5647019, 4.346492, 0
1121, 3222092895, 0.5107113, -0.22625133, -0.23618524, -0.7951187, 0.56973875, 0.15745325, 4.342805, 0
1123, 3222126229, 0.51158583, -0.22376639, -0.23486961, -0.79564923, 0.6222964, -0.6283856, 1.6146832, 0
1124, 3222142896, 0.51182455, -0.22418265, -0.23331875, -0.79583484, 1.0186932, -1.5578128, 0.85513306, 0
1125, 3222159563, 0.5115043, -0.22557828, -0.23249981, -0.79588604, 1.060724, -1.9163876, 1.279582, 0
1128, 3222209564, 0.50887644, -0.23395005, -0.23242676, -0.795175, 0.32117096, -1.0626646, 0.5667362, 0
1129, 3222226231, 0.5090883, -0.23742881, -0.23421042, -0.7934829, -0.34617263, -0.47967675, 0.19210243, 0
1131, 3222259565, 0.5127604, -0.24664676, -0.23660167, -0.7875753, -0.023170974, 0.46998093, -0.09846687, 0
1132, 3222276232, 0.51456404, -0.2525668, -0.23622915, -0.784629, 0.13867973, 0.45187575, -0.28928566, 0
1134, 3222309566, 0.51531273, -0.26533493, -0.23251082, -0.78102624, 0.9849209, -0.87967765, -0.4655428, 0
1136, 3222342900, 0.5135318, -0.27944958, -0.23163205, -0.77752984, 0.8638017, -0.879296, -0.8677168, 0
1138, 3222376234, 0.5118319, -0.2936437, -0.23369, -0.7727895, 0.70922977, 0.17315386, -1.4747458, 0
1139, 3222392901, 0.51020193, -0.30183613, -0.23311156, -0.7708833, 0.46607727, 0.46200916, -1.2750845, 0
1140, 3222409568, 0.5081985, -0.30996197, -0.23201394, -0.7693116, 0.7328241, 0.16463535, -0.7313156, 0
1142, 3222442902, 0.50289094, -0.32638794, -0.2298705, -0.7666447, -4.410484E-4, -0.15243194, -0.5590992, 0
1144, 3222476236, 0.4958613, -0.34455264, -0.22793028, -0.7638494, 0.4375649, -0.84380877, -1.1312275, 0
1146, 3222509570, 0.49092293, -0.36096275, -0.22897172, -0.7591347, -0.4992695, 0.16709755, -1.0493279, 0
1147, 3222526237, 0.48714334, -0.36994806, -0.22807181, -0.75751305, 0.3004689, 0.08325103, -1.3616705, 0
1148, 3222542904, 0.48372716, -0.3782277, -0.22699055, -0.75593656, -0.091334045, 0.467288, -1.1103106, 0
1150, 3222576238, 0.47784457, -0.3950821, -0.22423106, -0.7518697, 0.51002747, 0.15666218, -1.0969639, 0
1151, 3222592905, 0.47506845, -0.40382153, -0.22256413, -0.7494773, 0.749635, 0.40439776, -0.7131262, 0
1152, 3222609572, 0.47273654, -0.4131651, -0.22040832, -0.7464905, 0.64779073, -0.11647372, -1.1168032, 0
1154, 3222642906, 0.46993712, -0.4262794, -0.218285, -0.7414916, 0.2568229, 0.31946233, -0.6977997, 0
1155, 3222659573, 0.47070324, -0.42938823, -0.22015703, -0.7386528, 0.2632572, 1.1902952, 0.20925045, 0
1156, 3222676240, 0.46924472, -0.4344715, -0.22062984, -0.7364642, 1.0941637, 0.96614796, -0.55931664, 0
1159, 3222726241, 0.46638143, -0.45148307, -0.22132671, -0.7277905, 1.5924759, -0.78592736, -1.0238094, 0
1161, 3222759575, 0.46862394, -0.45547578, -0.22414714, -0.7229831, 0.91854966, 1.008849, -1.4227629, 0
1162, 3222776242, 0.472202, -0.45458308, -0.22611436, -0.72060037, 0.13447827, 2.2091131, -0.39312172, 0
1163, 3222792909, 0.47573155, -0.45482436, -0.2275236, -0.7176771, -0.46380544, 2.4343967, 1.2643232, 0
1165, 3222826243, 0.48024625, -0.46009603, -0.23164898, -0.7099487, 0.08602919, 0.085949674, 1.1421394, 0
1166, 3222842910, 0.48308796, -0.46183178, -0.23490983, -0.70581, 0.62612873, -0.6675592, 0.21358204, 0
1167, 3222859577, 0.48617822, -0.46217835, -0.23697075, -0.7027659, 0.3635416, -0.53452533, -0.17954636, 0
1169, 3222892911, 0.49561796, -0.45933035, -0.24064654, -0.6967645, 0.6223362, -0.12186898, 0.25654602, 0
1170, 3222909578, 0.5005339, -0.45800066, -0.24360356, -0.6930883, 0.41381747, 0.32282335, 0.6182375, 0
1171, 3222926245, 0.50477844, -0.45736462, -0.24656144, -0.689374, 0.9188272, 0.20191579, 0.011106491, 0
1173, 3222959579, 0.5106335, -0.45917568, -0.2515188, -0.682028, 1.8006808, -0.34302288, -2.1268077, 0
1174, 3222976246, 0.5143042, -0.45718676, -0.2536565, -0.6798109, 1.0138, 0.42172134, -1.2587261, 0
1175, 3222992913, 0.51770693, -0.4544576, -0.25606614, -0.67815256, 0.8215387, 0.8522555, -1.1978788, 0
1177, 3223026247, 0.52237844, -0.4495413, -0.26176077, -0.67566824, 0.4866524, 0.2092173, 1.0795555, 0
1178, 3223042914, 0.5229093, -0.44889736, -0.26502666, -0.67441154, 0.9179887, -0.6401649, 1.4645338, 0
1179, 3223059581, 0.5226649, -0.44883472, -0.26729736, -0.6737462, 1.5047891, -1.0549648, 0.8890276, 0
1181, 3223092915, 0.5208763, -0.44772083, -0.26833415, -0.675458, 1.3344685, -0.085809305, -0.2543068, 0
1182, 3223109582, 0.519951, -0.44594586, -0.26712215, -0.6778214, 1.290215, 0.09356487, -0.34119797, 0
1183, 3223126249, 0.5194712, -0.44354868, -0.26648164, -0.6800108, 0.55731344, 0.19006257, 0.11131573, 0
1186, 3223176250, 0.5214945, -0.4365192, -0.26655683, -0.68297505, 0.121641785, 0.60387313, 0.019581795, 0
1188, 3223209584, 0.5261884, -0.42894933, -0.26699144, -0.6840008, 0.6052259, 1.8973181, -0.85031223, 0
1189, 3223226251, 0.5287782, -0.42495942, -0.2676079, -0.6842531, 0.6256865, 1.5895547, -0.8572521, 0
1190, 3223242918, 0.5307222, -0.4221538, -0.26815546, -0.68427026, 0.67005384, 0.74212, -0.6615305, 0
1192, 3223276252, 0.5345645, -0.415905, -0.26809138, -0.6851307, 0.084919654, -0.35176313, 0.16727829, 0
1193, 3223292919, 0.5366945, -0.41015744, -0.26725775, -0.6872527, 0.048945036, 0.33062384, 0.2855463, 0
1194, 3223309586, 0.5387788, -0.4036759, -0.26707023, -0.68952847, 0.4764163, 0.7557566, -0.74331284, 0
1196, 3223342920, 0.5425378, -0.394684, -0.26697838, -0.6918185, -0.030668491, -0.307968, -2.7371979, 0
1197, 3223359587, 0.5432457, -0.39210123, -0.26550436, -0.6932973, 0.030848531, -1.084349, -1.4212132, 0
1198, 3223376254, 0.54453284, -0.38590282, -0.2657287, -0.69567543, -1.0026362, -1.0146029, -0.08187008, 0
1201, 3223426255, 0.55857307, -0.34667712, -0.27788568, -0.70043105, -0.66890115, 1.7481773, -3.724424, 0
1202, 3223442922, 0.5639256, -0.33369276, -0.2792404, -0.701908, -1.9434997, 1.2832962, -4.218957, 0
1204, 3223476256, 0.56893384, -0.3196002, -0.2706284, -0.70777345, 0.4927704, -0.8059543, -2.4657516, 0
1205, 3223492923, 0.5710607, -0.3107282, -0.27051222, -0.710052, 0.6569904, -1.5197148, -1.9564791, 0
1206, 3223509590, 0.57649326, -0.29607153, -0.2780614, -0.70900786, -0.18086098, -0.41935483, -2.9118428, 0
1208, 3223542924, 0.5841122, -0.2762533, -0.2876137, -0.7069572, -1.7087655, 2.4035857, -3.9764962, 0
1209, 3223559591, 0.5839712, -0.27150655, -0.2875879, -0.70892036, -3.5968525, -1.8148056, -1.2313232, 0
1210, 3223576258, 0.5813998, -0.2646888, -0.28911793, -0.71297836, -5.3585525, -7.948269, 5.643443, 0
1212, 3223609592, 0.581636, -0.25487557, -0.29028088, -0.7158826, -1.9443493, -6.6043253, 6.9875813, 0
1213, 3223626259, 0.5782673, -0.24840224, -0.29126316, -0.72047347, -1.9031001, -5.376264, 5.82333, 0
1216, 3223676260, 0.5648235, -0.24215421, -0.2945304, -0.7318474, 1.8410121, -0.8231372, 4.2453985, 0
1217, 3223692927, 0.55913913, -0.24273285, -0.29317945, -0.73654807, 5.456028, 0.62816477, 4.197872, 0
1219, 3223726261, 0.5527653, -0.2448464, -0.2868191, -0.74313444, 2.2035108, 3.3685124, 5.8810215, 0
1220, 3223742928, 0.54924816, -0.24631314, -0.28311267, -0.7466703, 1.3801382, 3.2630334, 3.8601437, 0
1221, 3223759595, 0.5467411, -0.24683812, -0.28103143, -0.74911916, -0.46776935, 2.5034442, 1.9301586, 0
1223, 3223792929, 0.5449945, -0.25503027, -0.26830634, -0.75230664, 0.008199852, 0.026724886, 0.45377254, 0
1224, 3223809596, 0.5428363, -0.26234102, -0.25939745, -0.7544746, 0.2061322, -1.3814765, 0.98134995, 0
1225, 3223826263, 0.5405947, -0.26783428, -0.25469625, -0.7557546, 0.5348953, -1.7562969, 0.79471016, 0
1227, 3223859597, 0.53158736, -0.28231478, -0.24490666, -0.76009685, 1.6241353, -0.6234553, -0.8224859, 0
1228, 3223876264, 0.52640754, -0.2906429, -0.2394396, -0.76230145, 2.2108922, 0.19722347, -1.7321863, 0
1231, 3223926265, 0.5058094, -0.31497946, -0.21331382, -0.7742449, -0.70780843, 0.640466, -2.577361, 0
1232, 3223942932, 0.49956825, -0.32320595, -0.2036612, -0.7774989, -1.5024322, 1.1522614, -2.16434, 0
1233, 3223959599, 0.49344903, -0.33130607, -0.19531593, -0.78013396, -1.8144103, 1.138228, -2.1911902, 0
1235, 3223992933, 0.48190337, -0.34700653, -0.18217897, -0.7836961, 0.72529685, 0.20536247, -3.3842344, 0
1236, 3224009600, 0.4759565, -0.3528942, -0.17798251, -0.7856631, 0.9734261, 1.6651787, -3.181727, 0
1237, 3224026267, 0.46855944, -0.35955444, -0.1743666, -0.78789717, -0.09092521, 1.5651977, -3.2060428, 0
1239, 3224059601, 0.4567278, -0.37385756, -0.16886374, -0.7893846, -0.91429466, -0.1570744, -0.83077526, 0
1240, 3224076268, 0.452284, -0.38055468, -0.16816556, -0.78889215, -1.1039535, -0.03442368, 0.098480225, 0
1241, 3224092935, 0.44769347, -0.38774914, -0.16779768, -0.7880851, -0.8213602, 0.76320136, -0.15540123, 0
1243, 3224126269, 0.4409899, -0.39934167, -0.1687885, -0.7858611, -1.1329048, 0.7817298, 0.5302992, 0
1244, 3224142936, 0.44116372, -0.4033644, -0.1702734, -0.78338486, -1.2737589, 0.9180189, 1.2444601, 0
1246, 3224176270, 0.44497505, -0.4090631, -0.17435068, -0.77735424, -1.2572378, 1.2279671, 1.2810249, 0
1247, 3224192937, 0.4469015, -0.41203573, -0.17574295, -0.7743599, -0.6984218, 0.48958954, 0.7796078, 0
1248, 3224209604, 0.44793263, -0.41504896, -0.17667934, -0.7719378, 0.14215516, -0.29433158, 0.6022196, 0
1250, 3224242938, 0.4489662, -0.41882172, -0.17952839, -0.76863533, 0.8521272, -0.5543121, -0.16921425, 0
1251, 3224259605, 0.4502444, -0.41979495, -0.18091327, -0.76703024, 0.5810729, -0.27660868, -0.62777996, 0
1252, 3224276272, 0.45101672, -0.42049864, -0.18233967, -0.7658525, 0.5040909, 0.0128936805, -0.82779884, 0
1254, 3224309606, 0.45105767, -0.4225812, -0.18557009, -0.7639037, 0.56399274, 0.12566641, -0.3679123, 0
1255, 3224326273, 0.45065713, -0.42410064, -0.1869553, -0.76295966, 0.7156792, -0.33820182, -0.45362854, 0
1258, 3224376274, 0.44989693, -0.42440605, -0.19336466, -0.76163995, 0.77015835, 0.07359572, 0.115753174, 0
1259, 3224392941, 0.45106342, -0.42321303, -0.19645178, -0.7608234, 0.5580972, 0.8077905, 1.1850405, 0
1260, 3224409608, 0.45302922, -0.4223759, -0.19932693, -0.7593715, -0.03575341, 1.3348647, 1.3232479, 0
1262, 3224442942, 0.4605943, -0.4190835, -0.2047709, -0.75518465, 0.22702013, 1.0409291, -0.0695467, 0
1263, 3224459609, 0.46707863, -0.41301367, -0.21109352, -0.75280136, -0.13540585, 1.4813315, -0.08980751, 0
1264, 3224476276, 0.47431207, -0.40635127, -0.21946466, -0.7495034, -0.13632654, 1.4337678, -0.012891769, 0
1266, 3224509610, 0.4867403, -0.40056548, -0.22954142, -0.74158937, 0.38193253, 0.4138746, -1.081398, 0
1267, 3224526277, 0.49107775, -0.40019634, -0.23249376, -0.73800075, 1.3828413, -1.1807382, -2.1917605, 0
1269, 3224559611, 0.5008726, -0.39395428, -0.24299282, -0.73136455, 1.6728722, -1.894087, -2.4067135, 0
1270, 3224576278, 0.5066602, -0.38919628, -0.25164425, -0.72698694, 0.4517087, -0.038625386, -1.9424362, 0
1273, 3224626279, 0.51323533, -0.38310677, -0.26454657, -0.721004, 2.2774699, -0.22155622, -0.80033016, 0
1274, 3224642946, 0.51368433, -0.37931648, -0.26925686, -0.7209447, 3.2681336, -0.2183452, -0.51522255, 0
1275, 3224659613, 0.515165, -0.37393525, -0.2746023, -0.72068304, 2.8376217, 0.48095673, -0.06499863, 0
1277, 3224692947, 0.51337206, -0.36896086, -0.28050664, -0.72225076, 1.8841431, 0.863579, 0.82099724, 0
1278, 3224709614, 0.5113338, -0.37011737, -0.28055504, -0.72308564, 1.2424066, -0.45311037, 0.22339916, 0
1279, 3224726281, 0.51061654, -0.3708897, -0.28111225, -0.7229803, -0.3521614, -1.1088308, -1.2450714, 0
1281, 3224759615, 0.51132125, -0.36521277, -0.28617448, -0.723386, -0.5529827, -0.87097335, 0.86359215, 0
1282, 3224776282, 0.5124117, -0.36297822, -0.28892845, -0.72264403, -0.58716, -0.06834266, 2.9008007, 0
1283, 3224792949, 0.51407266, -0.36333403, -0.2901663, -0.72078717, 0.36352476, 0.5863394, 2.1596527, 0
1285, 3224826283, 0.52096874, -0.3635484, -0.29317117, -0.7144843, 0.08294314, 1.0104942, -0.22997856, 0
1287, 3224859617, 0.5248455, -0.36610216, -0.2944528, -0.70980066, 0.5622637, -1.060635, -0.114762306, 0
1289, 3224892951, 0.527437, -0.36999974, -0.29402694, -0.7060251, 1.5982836, -2.2124104, 1.0013943, 0
1290, 3224909618, 0.5270155, -0.37083137, -0.29459548, -0.7056666, 1.6716825, -0.9221912, 0.8090944, 0
1291, 3224926285, 0.52501386, -0.3721528, -0.2954895, -0.7060889, 1.1717745, 0.1225819, -0.6530647, 0
1293, 3224959619, 0.51935476, -0.37323415, -0.29666921, -0.7092018, -0.4948517, 0.3960149, 0.26348305, 0
1294, 3224976286, 0.51752764, -0.37364715, -0.29651836, -0.7103822, -0.9565418, 0.1846197, 0.53276634, 0
1296, 3225009620, 0.5171819, -0.37542477, -0.29405925, -0.7107188, -0.5051538, -0.01788506, 0.5767994, 0
1297, 3225026287, 0.51721656, -0.3762941, -0.2927258, -0.71078444, -0.12864076, 0.15252289, -0.03423786, 0
1298, 3225042954, 0.5168318, -0.37671247, -0.29170966, -0.71126026, 0.4394806, 0.7083291, -0.5841713, 0
1300, 3225076288, 0.5149897, -0.37909842, -0.29094633, -0.7116413, 1.4480957, 0.94263417, -0.9777651, 0
1302, 3225109622, 0.5115872, -0.38685384, -0.29010463, -0.71026397, 0.7192614, -0.061610788, -0.4556036, 0
1304, 3225142956, 0.5058228, -0.39721096, -0.2873688, -0.7097882, -0.017723907, -0.39075127, 0.30757427, 0
1305, 3225159623, 0.5027958, -0.40079445, -0.28472614, -0.71098834, 0.45429572, -0.7919407, 0.2781887, 0
1306, 3225176290, 0.5004053, -0.4028239, -0.28211543, -0.7125667, 0.95160955, -0.20863314, 0.251338, 0
1308, 3225209624, 0.49704778, -0.4048305, -0.27734154, -0.71564686, 0.4604901, 0.85933185, -0.5558157, 0
1309, 3225226291, 0.49484706, -0.40523455, -0.27567035, -0.7175864, 0.0026054347, 1.5225362, -0.8006897, 0
1310, 3225242958, 0.49472892, -0.40547448, -0.27308142, -0.71852154, 0.22081745, 1.8275907, -0.5295763, 0
1312, 3225276292, 0.49812168, -0.40420297, -0.267702, -0.7189181, 0.6177984, 0.9121654, -0.39572906, 0
1314, 3225309626, 0.5029102, -0.39929235, -0.26388022, -0.71974105, 0.9654488, 0.9586397, -0.10633373, 0
1316, 3225342960, 0.5092496, -0.39234403, -0.2614868, -0.7199783, -0.0051388424, 0.4506304, -0.5482197, 0
1317, 3225359627, 0.51365423, -0.3870392, -0.25800657, -0.7209757, 0.05012169, -0.18341249, -0.08488178, 0
1318, 3225376294, 0.5178243, -0.38100427, -0.2543816, -0.72249335, 0.6104201, 0.33813924, -0.02090168, 0
1320, 3225409628, 0.5261098, -0.36764774, -0.24443144, -0.7268492, -0.09819863, -0.4525686, -1.4934196, 0
1321, 3225426295, 0.53048724, -0.35993946, -0.23880544, -0.72939134, 0.11483, -1.2102829, -2.082376, 0
1323, 3225459629, 0.54023767, -0.34263292, -0.22443455, -0.7351109, 1.2666231, -1.4628075, -3.3589191, 0
1324, 3225476296, 0.54400176, -0.33409333, -0.21584854, -0.7388276, 1.231222, -1.211085, -4.0386424, 0
1325, 3225492963, 0.54646975, -0.32558665, -0.20528576, -0.7437976, -0.05916656, -2.4556599, -4.2097945, 0
1327, 3225526297, 0.5493543, -0.30885816, -0.18606347, -0.75379694, -2.8120673, -4.5919304, -3.3136888, 0
1328, 3225542964, 0.5525411, -0.3022437, -0.17447509, -0.75691366, -4.9205303, -5.2138066, -1.5133057, 0
1332, 3225609632, 0.5717125, -0.28447574, -0.14733188, -0.7553309, -3.10291, -2.2754965, 1.3880653, 0
1333, 3225626299, 0.5733501, -0.2886889, -0.14563118, -0.7528167, -3.3688903, 0.67742664, 3.0069199, 0
1335, 3225659633, 0.57750547, -0.30336913, -0.14477946, -0.7439802, 3.1378202, 7.928752, 4.17929, 0
1336, 3225676300, 0.5816681, -0.30478936, -0.14523484, -0.7400578, 4.2780914, 7.473644, 5.1839914, 0
1337, 3225692967, 0.586987, -0.30597824, -0.14496487, -0.7354058, 3.1629324, 3.7293098, 6.572357, 0
1339, 3225726301, 0.5931173, -0.31112695, -0.13980839, -0.7292999, 1.427449, -0.50999933, 6.176936, 0
1340, 3225742968, 0.5901085, -0.31194478, -0.1361821, -0.73207223, 0.42430404, 0.5153255, 5.2864704, 0
1341, 3225759635, 0.5847064, -0.31138662, -0.13433577, -0.7369692, -0.31820104, 0.60689175, 4.4793587, 0
1343, 3225792969, 0.5751958, -0.308733, -0.13323022, -0.74571866, -2.010552, 2.344108, 4.1697054, 0
1344, 3225809636, 0.573093, -0.30794293, -0.134074, -0.7475109, -2.436686, 2.4635499, 3.862277, 0
1347, 3225859637, 0.5718464, -0.30936608, -0.14516842, -0.7458039, -0.57721794, 1.1997383, -1.3318748, 0
1348, 3225876304, 0.5720611, -0.30982596, -0.15081419, -0.7443266, 0.36864507, 0.5250352, -1.1916208, 0
1350, 3225909638, 0.56851804, -0.3132367, -0.16113198, -0.7434512, 0.8566503, -0.6490666, -3.1671786, 0
1351, 3225926305, 0.565788, -0.31518757, -0.16780435, -0.74323314, 0.14220323, -1.0678855, -3.1728153, 0
1352, 3225942972, 0.56251234, -0.3178192, -0.17236948, -0.7435542, -0.0066631585, -1.666601, -2.2249646, 0
1354, 3225976306, 0.55672044, -0.32460275, -0.18574281, -0.74176025, -0.55336857, 1.4377489, -2.291448, 0
1355, 3225992973, 0.55437106, -0.3290029, -0.1919742, -0.73999244, 0.52517843, 0.20878312, -2.301608, 0
1356, 3226009640, 0.55135596, -0.33364385, -0.19891207, -0.73833287, 0.54073095, 0.31166473, -2.2306151, 0
1358, 3226042974, 0.5436198, -0.3429803, -0.21454793, -0.7354075, 0.5264443, 0.9325032, -2.3972778, 0
1359, 3226059641, 0.53958154, -0.3482541, -0.22177182, -0.7337582, 0.8338993, 0.4618308, -1.857625, 0
1362, 3226109642, 0.52640575, -0.36004415, -0.24072781, -0.73166144, 0.7048516, -1.1835221, -0.2575426, 0
1363, 3226126309, 0.52250326, -0.36248976, -0.24670035, -0.73126143, 0.36040244, -0.7977124, -0.3000555, 0
1364, 3226142976, 0.51942, -0.36483574, -0.25300264, -0.73013717, 0.6679271, 0.07421949, -0.05362892, 0
1366, 3226176310, 0.5115114, -0.37038654, -0.260276, -0.73036945, 0.37676835, -0.20596763, -0.55860615, 0
1367, 3226192977, 0.5092813, -0.37183776, -0.26480675, -0.72956127, 0.21743888, 0.50883526, -0.7220068, 0
1368, 3226209644, 0.5066517, -0.3735079, -0.26852193, -0.72918093, 0.07908447, 0.24710229, -0.62191486, 0
1370, 3226242978, 0.5027438, -0.3774853, -0.27598, -0.7270501, -0.221875, 0.6925451, -1.2491245, 0
1371, 3226259645, 0.5021023, -0.37879938, -0.2789565, -0.7256726, 1.2983654, -0.14043677, -0.47086716, 0
1372, 3226276312, 0.5009222, -0.3796789, -0.28177524, -0.72493905, 0.96405673, -0.02771583, -0.38317776, 0
1374, 3226309646, 0.4987276, -0.38204303, -0.28796571, -0.7227743, 0.5048302, 0.28836736, 0.43247032, 0
1376, 3226342980, 0.4955998, -0.38859683, -0.29591343, -0.7182071, 0.23442608, 0.11961262, 0.0019798279, 0
1378, 3226376314, 0.49402606, -0.3936957, -0.3037741, -0.7132155, 0.83370143, 0.17480926, -0.3992319, 0
1379, 3226392981, 0.4925747, -0.39447996, -0.30676237, -0.7125066, 0.4648113, 0.12610747, 0.095342636, 0
1381, 3226426315, 0.48867103, -0.39650837, -0.31250244, -0.71157354, 0.56268156, 0.35769537, -0.4503126, 0
1382, 3226442982, 0.48646477, -0.3982581, -0.31510288, -0.710961, 0.7684386, 0.83525944, -0.70053005, 0
1383, 3226459649, 0.4841159, -0.40050828, -0.31662118, -0.71062565, 0.6928095, 0.20436896, -0.4852333, 0
1385, 3226492983, 0.47918957, -0.40443805, -0.31616944, -0.7119389, 0.9926792, 0.32846546, 0.27757454, 0
1386, 3226509650, 0.47631222, -0.40653968, -0.31480455, -0.71327627, 0.67479575, 0.6741659, 0.4301939, 0
1387, 3226526317, 0.47399116, -0.4078089, -0.31462738, -0.7141757, -5.2503194E-4, 0.979749, 0.49405384, 0
1389, 3226559651, 0.47096094, -0.40868938, -0.3147193, -0.715635, -0.41798723, 0.9417324, 0.46079636, 0
1390, 3226576318, 0.4725767, -0.4072139, -0.31717086, -0.7143275, -1.0082922, 2.0609891, 0.21119118, 0
1391, 3226592985, 0.47308087, -0.40662876, -0.31769508, -0.71409416, -0.7676779, 1.4271382, 0.5265398, 0
1393, 3226626319, 0.47454244, -0.4059842, -0.31951827, -0.71267635, 0.07096385, 0.88560915, -0.44183826, 0
1394, 3226642986, 0.47503585, -0.4060114, -0.32067752, -0.7118109, 0.3336479, -0.09227498, -0.08787727, 0
1395, 3226659653, 0.47678345, -0.40630868, -0.3222784, -0.70974696, 0.58041215, -0.49496967, 0.13604355, 0
1397, 3226692987, 0.47872463, -0.4057411, -0.325008, -0.7075165, -0.041310057, -0.31850976, 0.108659744, 0
1398, 3226709654, 0.4799432, -0.40534487, -0.32609823, -0.7064157, -0.15755595, 0.07152772, 0.07800007, 0
1399, 3226726321, 0.48229647, -0.4048274, -0.32844946, -0.7040162, -0.21760428, 0.32347533, -0.19870186, 0
1401, 3226759655, 0.48270375, -0.40463647, -0.3304353, -0.70291686, -0.07992097, 0.10004876, -0.23465538, 0
1404, 3226809656, 0.48348683, -0.40604815, -0.33408046, -0.6998347, 0.49264422, -0.32506818, -0.19499588, 0
1405, 3226826323, 0.48247802, -0.40748608, -0.33454478, -0.6994734, 0.7201309, 0.2146861, -0.88068485, 0
1406, 3226842990, 0.48093075, -0.40911424, -0.33453798, -0.69959164, 0.530433, 0.08494413, -0.5389528, 0
1408, 3226876324, 0.47749966, -0.41237038, -0.33492106, -0.6998467, -0.12600537, -0.27258253, 0.21775055, 0
1409, 3226892991, 0.4760986, -0.41401374, -0.33524084, -0.69967806, -0.4616275, -0.25966194, 0.74991894, 0
1410, 3226909658, 0.47484547, -0.41566834, -0.33476728, -0.69977534, -0.5245664, -0.46268287, 0.6819372, 0
1412, 3226942992, 0.47185898, -0.41809067, -0.3320865, -0.7016274, 0.3044104, -0.06982299, 0.59428596, 0
1413, 3226959659, 0.4691643, -0.41877803, -0.33065087, -0.70369935, 0.60587764, 0.35667783, -0.27167892, 0
1414, 3226976326, 0.46592352, -0.419258, -0.3281682, -0.7067226, 0.72501224, 0.4916277, -0.4018755, 0
1416, 3227009660, 0.458183, -0.42063236, -0.32578713, -0.71204823, 0.5971652, 0.48106605, 0.007925034, 0
1418, 3227042994, 0.45303106, -0.42308658, -0.3233754, -0.7149839, 0.36811104, 1.076448, -0.048259735, 0
1420, 3227076328, 0.4512049, -0.42618716, -0.3206416, -0.7155282, 0.13162594, 1.2941087, 0.59270954, 0
1421, 3227092995, 0.4506484, -0.4280484, -0.31959414, -0.71523637, -0.0074641593, 0.8711867, 0.4552107, 0
1422, 3227109662, 0.45052922, -0.42902106, -0.3188079, -0.7150797, 0.22848628, 0.8985402, 0.62180996, 0
1424, 3227142996, 0.45262933, -0.428528, -0.3174808, -0.71463937, 0.4031534, 1.0273755, 0.9723215, 0
1425, 3227159663, 0.45445406, -0.4275296, -0.31592023, -0.714771, 0.7450622, 1.0862458, 0.7135153, 0
1426, 3227176330, 0.45618874, -0.426597, -0.314102, -0.71502453, 0.99572986, 0.90997165, 0.51346207, 0
1428, 3227209664, 0.4589677, -0.42482972, -0.31170952, -0.71534514, 0.6404815, 0.46020412, 0.09001255, 0
1429, 3227226331, 0.46093175, -0.42236257, -0.31103423, -0.7158369, 0.37981635, 0.9060231, -0.004237175, 0
1430, 3227242998, 0.4632889, -0.41922715, -0.3098336, -0.7166785, 0.47269866, 1.403477, 0.13934898, 0
1433, 3227292999, 0.470733, -0.41010875, -0.30030018, -0.72114784, 1.257443, -0.2746886, -1.0465345, 0
1435, 3227326333, 0.47781882, -0.39810875, -0.29173157, -0.7267077, -0.5061821, -0.32587305, 0.33075523, 0
1436, 3227343000, 0.4834284, -0.38885337, -0.28685296, -0.72994417, -0.81160516, 0.8943327, -0.12425327, 0
1437, 3227359667, 0.49040097, -0.37776154, -0.27974126, -0.7338671, -0.19448349, 0.42482582, -0.34387016, 0
1439, 3227393001, 0.50425524, -0.35460845, -0.26626635, -0.74100935, 1.3202219, 0.9422575, -2.4424195, 0
1440, 3227409668, 0.5105021, -0.34374237, -0.2581866, -0.7447022, 0.4370721, -0.10066102, -2.2296333, 0
1443, 3227459669, 0.5312855, -0.30635273, -0.22696628, -0.75655997, 1.400553, -0.107286274, -3.6875172, 0
1444, 3227476336, 0.5362402, -0.29610416, -0.21643257, -0.7602228, 1.5286258, -1.7439728, -4.467418, 0
1445, 3227493003, 0.53984624, -0.2894632, -0.20547312, -0.7632634, 0.06844977, -4.39042, -6.626713, 0
1447, 3227526337, 0.5396363, -0.280476, -0.18196455, -0.77267575, -0.4370773, -6.9474688, -5.9507456, 0
1449, 3227559671, 0.5277175, -0.26810226, -0.15278322, -0.79139477, -2.9063735, -2.9893842, -0.52091503, 0
1451, 3227593005, 0.51780725, -0.25504404, -0.13597587, -0.80520296, -6.416573, -0.73971945, 2.851718, 0
1452, 3227609672, 0.5238024, -0.25388482, -0.13054402, -0.8025864, -6.9824877, 0.56934124, 4.6533794, 0
1453, 3227626339, 0.5292958, -0.26137978, -0.12349707, -0.7976767, -3.634521, 1.3264697, 3.6435843, 0
1455, 3227659673, 0.5365669, -0.27784765, -0.11818573, -0.7879987, 2.17815, 4.5826254, 4.128434, 0
1456, 3227676340, 0.5367165, -0.28014526, -0.12299785, -0.7863452, 4.4194083, 3.6218312, 3.650116, 0
1458, 3227709674, 0.54152334, -0.284488, -0.12591791, -0.78101015, 1.9601839, -1.1617028, 5.8996496, 0
1459, 3227726341, 0.54231703, -0.2864373, -0.12332249, -0.7801606, 0.52068794, -0.10805756, 5.886924, 0
1460, 3227743008, 0.53895354, -0.2874915, -0.121444486, -0.7823952, -0.575646, 0.6889268, 6.0615644, 0
1462, 3227776342, 0.5331472, -0.28648716, -0.123750664, -0.7863701, -1.0084633, 1.9838418, 4.5643787, 0
1463, 3227793009, 0.53398395, -0.28528875, -0.12499577, -0.78604114, -1.4122621, 1.3362391, 4.01036, 0
1464, 3227809676, 0.5357451, -0.28463694, -0.12646279, -0.78484344, -0.9160953, 0.81201863, 2.6636324, 0
1466, 3227843010, 0.53985727, -0.28489906, -0.13289663, -0.78085726, 0.07590957, 0.44030476, 0.4169197, 0
1467, 3227859677, 0.54133993, -0.28587118, -0.13838251, -0.7785192, 0.6467794, 0.27803499, -0.7082319, 0
1468, 3227876344, 0.5415752, -0.28729388, -0.14340115, -0.7769218, 0.87253475, -1.2172254, -0.6863384, 0
1470, 3227909678, 0.5391919, -0.2923601, -0.15357801, -0.7747416, 1.6168848, -1.5180587, -1.3630266, 0
1471, 3227926345, 0.5375946, -0.2949414, -0.15863755, -0.77385306, 0.97165126, -0.6103863, -1.7208757, 0
1472, 3227943012, 0.53624314, -0.29780513, -0.16292736, -0.7728021, 0.1452583, -0.9950803, -1.820509, 0
1474, 3227976346, 0.53418267, -0.30310455, -0.17380641, -0.76979285, -0.793057, 0.26926085, -1.6295719, 0
1476, 3228009680, 0.52829504, -0.31234708, -0.1828494, -0.76806444, 0.4589505, -0.20292093, -1.1419382, 0
1478, 3228043014, 0.5209753, -0.32313782, -0.19633251, -0.76526684, 1.388376, 0.023623867, -1.2322292, 0
1479, 3228059681, 0.5170922, -0.3283929, -0.20183352, -0.7642316, 1.3738267, 0.4976969, -1.704299, 0
1480, 3228076348, 0.5140178, -0.33249763, -0.20781812, -0.76292574, 1.3157381, 0.9535588, -1.9894753, 0
1482, 3228109682, 0.5105164, -0.34025863, -0.2157812, -0.7596372, 0.3879187, 0.14159076, -0.5192814, 0
1483, 3228126349, 0.50893354, -0.34537098, -0.21929204, -0.75738335, 0.052798092, 0.3329981, -0.04515171, 0
1485, 3228159683, 0.50436753, -0.35549244, -0.22726023, -0.7533952, 0.6020191, -0.7186801, -0.45065022, 0
1486, 3228176350, 0.5027852, -0.35908335, -0.232717, -0.7510805, 0.87267077, 0.49607348, -0.88369465, 0
1487, 3228193017, 0.50019526, -0.36272383, -0.23631635, -0.74993587, 0.47069672, -0.30490094, -0.47812653, 0
1489, 3228226351, 0.49513796, -0.36954832, -0.244971, -0.7471777, 0.4896867, 0.480249, -0.59590816, 0
1491, 3228259685, 0.48969048, -0.3764816, -0.25149927, -0.74513483, 0.72458655, 0.3460854, -0.51929474, 0
1493, 3228293019, 0.48372126, -0.38338035, -0.25673527, -0.7437294, 0.7452768, 0.17557043, -1.15621, 0
1494, 3228309686, 0.48181027, -0.38607034, -0.26041546, -0.7422973, 0.92121935, 0.68887806, -1.1439495, 0
1495, 3228326353, 0.47898462, -0.3891951, -0.26306736, -0.7415589, 0.9209001, 0.8443523, -0.50285435, 0
1497, 3228359687, 0.47332045, -0.39696023, -0.26841885, -0.7391579, 1.1027703, 1.3673228, -1.306344, 0
1498, 3228376354, 0.47080517, -0.39986077, -0.2705272, -0.7384321, 0.67191917, 0.44337258, -0.14435291, 0
1499, 3228393021, 0.4695836, -0.40196946, -0.27383673, -0.73684335, 0.6329146, 0.8691573, -0.06707001, 0
1501, 3228426355, 0.47072703, -0.40494365, -0.28054148, -0.73194677, -0.09846405, 0.5968634, 0.2804346, 0
1502, 3228443022, 0.47219357, -0.40635592, -0.28295037, -0.7292876, 0.123263486, 0.19307575, 0.46250725, 0
1503, 3228459689, 0.47376192, -0.40774092, -0.28506795, -0.7266678, 0.6710423, -0.13904451, 0.25772667, 0
1506, 3228509690, 0.47852528, -0.40911752, -0.29426885, -0.71906555, 0.873424, 0.14588031, 0.05079651, 0
1507, 3228526357, 0.47920305, -0.40922505, -0.29819536, -0.7169322, 0.7692126, -0.068328135, 0.22835541, 0
1509, 3228559691, 0.4792056, -0.41068876, -0.30454502, -0.71341586, 1.0356253, -0.12729733, 0.25977516, 0
1510, 3228576358, 0.47821772, -0.41251826, -0.30679816, -0.7120564, 0.8436907, -0.369138, 0.29952717, 0
1512, 3228609692, 0.47372437, -0.41797668, -0.31093758, -0.71007866, 0.4534473, -0.34241804, -0.24959564, 0
1513, 3228626359, 0.4719872, -0.4204901, -0.31352022, -0.70861423, 0.351175, -0.057346944, -0.24906826, 0
1514, 3228643026, 0.46975154, -0.422411, -0.31557563, -0.7080448, -0.554118, -0.34413072, 0.25852013, 0
1516, 3228676360, 0.46707493, -0.42252505, -0.3233029, -0.70625913, -0.6339426, 0.89829797, 0.34384632, 0
1517, 3228693027, 0.46630174, -0.42224723, -0.32709533, -0.705189, -0.22581379, 0.44976294, 0.42425632, 0
1518, 3228709694, 0.46528062, -0.4217989, -0.33027938, -0.7046474, 0.11648601, -0.23410177, 0.4039507, 0
1521, 3228759695, 0.46554667, -0.4188879, -0.33716008, -0.7029477, 1.1332324, 0.070918985, 0.3271551, 0
1522, 3228776362, 0.46514916, -0.4181641, -0.33745977, -0.7034978, 1.098779, -0.51294667, 0.4864874, 0
1524, 3228809696, 0.46616316, -0.4156932, -0.3377522, -0.70415026, 0.32882607, 0.31893545, 0.5104561, 0
1525, 3228826363, 0.46697712, -0.41459793, -0.3371574, -0.70454174, 0.15797007, 0.36685517, 0.18353176, 0
1526, 3228843030, 0.4682427, -0.41311795, -0.33565336, -0.70528865, 0.31026357, 0.4999311, 0.032237053, 0
1528, 3228876364, 0.4715454, -0.40901572, -0.32956287, -0.70834506, 0.8146362, 0.4388857, -0.4209175, 0
1529, 3228893031, 0.47393024, -0.40649155, -0.3266477, -0.7095557, 0.40209764, 0.5279346, -0.84489536, 0
1530, 3228909698, 0.47604603, -0.4038208, -0.32251534, -0.71155167, 0.5435287, 0.0947876, -0.95201015, 0
1532, 3228943032, 0.4831915, -0.39472568, -0.3103528, -0.717225, 0.67910737, -0.071178816, -1.2160501, 0
1533, 3228959699, 0.4874832, -0.3888508, -0.30321518, -0.72057533, 0.7992158, 0.2661533, -1.6927805, 0
1534, 3228976366, 0.4928562, -0.3811783, -0.29616925, -0.7239425, -0.0066806907, 0.4094554, -1.8009558, 0
1536, 3229009700, 0.5034446, -0.365602, -0.27701896, -0.7322241, 0.46433765, -0.4166238, -1.3684664, 0
1537, 3229026367, 0.50903773, -0.3542803, -0.26521963, -0.7382666, 0.9704615, -0.7610085, -2.0534158, 0
1539, 3229059701, 0.51729727, -0.32997343, -0.24477264, -0.7507466, 0.43471363, -1.5507507, -6.233479, 0
1540, 3229076368, 0.51939625, -0.31727946, -0.23525691, -0.75777876, -0.093903035, -2.9645092, -5.9189405, 0
1541, 3229093035, 0.5226383, -0.30334365, -0.22595938, -0.7640597, -0.8354153, -2.8504555, -3.461049, 0
1543, 3229126369, 0.52583766, -0.27834445, -0.20294002, -0.7777194, -3.4625142, -1.2177604, -0.61877155, 0
1544, 3229143036, 0.5277692, -0.26873624, -0.19273224, -0.78237325, -3.9322174, -3.9800868, 0.6935787, 0
1545, 3229159703, 0.53063655, -0.26017934, -0.1847299, -0.78525114, -2.8387198, -5.340026, 0.86326885, 0
1548, 3229209704, 0.5498882, -0.25463915, -0.16077831, -0.77906704, -4.566255, 0.4501523, 1.71169, 0
1549, 3229226371, 0.549518, -0.26184726, -0.1533747, -0.7784314, -3.1167088, 3.8755617, 4.308055, 0
1551, 3229259705, 0.5437293, -0.27348062, -0.15469992, -0.77823395, 4.5064535, 8.313961, 2.8046217, 0
1552, 3229276372, 0.5447794, -0.27556914, -0.15836063, -0.77602327, 4.237834, 4.45205, 3.9853306, 0
1553, 3229293039, 0.5487175, -0.27971825, -0.16063084, -0.77128303, 1.3227892, -2.0458536, 7.0335674, 0
1555, 3229326373, 0.5461275, -0.28758684, -0.15495026, -0.7713896, -0.12779541, 0.7126891, 7.623337, 0
1556, 3229343040, 0.5396945, -0.28741917, -0.15494066, -0.7759681, -0.32471207, 2.0221813, 6.255518, 0
1557, 3229359707, 0.5357398, -0.2863112, -0.15669891, -0.77876014, -1.6781907, 3.1487198, 5.5607967, 0
1559, 3229393041, 0.53633195, -0.28561708, -0.1622304, -0.77747375, -1.4458251, 1.6478655, 2.651969, 0
1560, 3229409708, 0.5373878, -0.28523913, -0.16771205, -0.77571815, -0.24139982, 0.8828272, 0.89485645, 0
1563, 3229459709, 0.5416569, -0.2863487, -0.19218536, -0.76660943, 0.15286613, 0.34031966, -2.4491115, 0
1564, 3229476376, 0.542429, -0.2871523, -0.20131387, -0.7634135, 0.95290625, -0.41112676, -2.7247047, 0
1565, 3229493043, 0.5433977, -0.28810775, -0.20997435, -0.76002413, 0.7746923, -0.29787627, -3.4179869, 0
1567, 3229526377, 0.5470173, -0.2897085, -0.22881734, -0.75132996, 1.0319575, -0.5771188, -2.1773915, 0
1568, 3229543044, 0.54632133, -0.29177904, -0.23584682, -0.7488574, 0.780656, -0.8156391, -2.1202202, 0
1570, 3229576378, 0.5456491, -0.2957486, -0.24992153, -0.74320394, 1.7818369, -1.2654788, -1.4394703, 0
1571, 3229593045, 0.5447732, -0.2981457, -0.25566763, -0.7409308, 1.9411058, -0.6994314, -1.7609901, 0
1572, 3229609712, 0.54315203, -0.29947314, -0.26176077, -0.7394566, 1.9949977, 0.22756067, -2.1814032, 0
1574, 3229643046, 0.5375135, -0.30340275, -0.27096638, -0.7386584, 1.1950322, 0.07186998, -1.8976231, 0
1575, 3229659713, 0.5345536, -0.30616182, -0.27405846, -0.7385271, 1.1532989, 0.039023127, -1.3287888, 0
1578, 3229709714, 0.5186727, -0.31967697, -0.2797795, -0.7419717, 1.457217, -0.9424841, -0.91475105, 0
1579, 3229726381, 0.51209867, -0.3235529, -0.28139445, -0.7442437, 0.8372442, -1.1539898, -0.9010582, 0
1580, 3229743048, 0.50548935, -0.3262292, -0.28342536, -0.7468187, -0.20861124, -0.90739924, -0.77713394, 0
1582, 3229776382, 0.49101648, -0.33367854, -0.28539857, -0.75241095, -0.510816, -0.7865213, 0.116179466, 0
1583, 3229793049, 0.48447663, -0.33845717, -0.28541192, -0.75450784, -0.6796754, -0.027345134, 0.07458401, 0
1584, 3229809716, 0.4777161, -0.34339583, -0.28509402, -0.75670403, -0.78369486, -0.20278046, 0.120615005, 0
1586, 3229843050, 0.46540457, -0.35167694, -0.28456125, -0.7607629, -0.42561254, -0.30451706, 0.20753288, 0
1587, 3229859717, 0.45988664, -0.3552829, -0.28443277, -0.7624888, -1.1425209, 0.042557538, -0.069589615, 0
1588, 3229876384, 0.45413762, -0.35847518, -0.28384966, -0.7646547, -0.3215937, -0.47109458, 0.31957817, 0
1590, 3229909718, 0.44579566, -0.36493027, -0.28350282, -0.76663613, -0.5615342, 0.57407117, -0.5792885, 0
1593, 3229959719, 0.43796766, -0.37894955, -0.28055727, -0.7654295, 0.13530879, -0.028090885, -0.82758904, 0
1594, 3229976386, 0.4361265, -0.38281298, -0.2791672, -0.76506656, 0.29559833, 0.33311534, 0.12766838, 0
1595, 3229993053, 0.43437105, -0.38619927, -0.27759132, -0.76493657, -0.040276084, 0.62070465, 0.4233265, 0
1597, 3230026387, 0.43245637, -0.38876775, -0.27499712, -0.76565707, -0.7069214, 0.6136078, 0.25713444, 0
1598, 3230043054, 0.43291324, -0.38752392, -0.27555352, -0.7658295, -1.1621976, 0.7678683, 0.75141144, 0
1599, 3230059721, 0.43361324, -0.38593248, -0.2765352, -0.765883, -0.6905558, 0.6890668, 0.9587183, 0
1601, 3230093055, 0.43884367, -0.38490003, -0.27953076, -0.7623277, 0.076551095, 0.7958495, 0.03814411, 0
1602, 3230109722, 0.44040006, -0.38465378, -0.2794176, -0.76159567, 0.54592633, 0.76087534, -0.43443012, 0
1603, 3230126389, 0.4407158, -0.38351217, -0.27914262, -0.76208943, 2.008854, 0.47415832, -0.38651943, 0
1605, 3230159723, 0.44238514, -0.37908015, -0.28209546, -0.7622525, 1.9313232, 0.6195589, -0.786582, 0
1606, 3230176390, 0.44378042, -0.37683553, -0.28440353, -0.7616967, 0.39115322, 1.1355076, -0.15863132, 0
1607, 3230193057, 0.4447568, -0.37523103, -0.28609404, -0.76128614, -0.5581989, 1.0907046, 0.4452076, 0
1609, 3230226391, 0.44526106, -0.37527773, -0.28683412, -0.7606894, -0.097994365, -0.2436374, 0.3767414, 0
1610, 3230243058, 0.4448443, -0.3762489, -0.28669095, -0.7605074, 0.15340063, -0.7869138, -0.6013813, 0
1611, 3230259725, 0.44450325, -0.37747526, -0.2864625, -0.76018506, 0.5007668, -0.592861, -0.77467346, 0
1613, 3230293059, 0.44306713, -0.38093805, -0.28532338, -0.7597243, -0.28718457, -0.5345711, 0.15624046, 0
1614, 3230309726, 0.44289762, -0.38352135, -0.2852906, -0.7585349, -0.24709108, -0.0018807497, -0.6081915, 0
1615, 3230326393, 0.4427187, -0.3853079, -0.28524554, -0.75775063, -0.5354639, 0.16179444, 0.18326855, 0
1617, 3230359727, 0.44214204, -0.38794887, -0.28728724, -0.75596654, 0.008409675, 1.0932428, 1.0837584, 0
1620, 3230409728, 0.44487426, -0.39137858, -0.28853798, -0.7521096, -0.0081625255, 1.2645047, 0.30533123, 0
1621, 3230426395, 0.44475794, -0.39441437, -0.28718278, -0.75111026, 0.51668817, 0.20109092, -0.14304066, 0
1622, 3230443062, 0.44407898, -0.39763796, -0.28561065, -0.75041157, 0.22592089, -0.16999814, -0.15267658, 0
1624, 3230476396, 0.44328254, -0.40168878, -0.28360462, -0.7494854, 0.92530435, -0.49112782, -0.26503658, 0
1625, 3230493063, 0.44428355, -0.40368444, -0.2832431, -0.74795544, 0.7698375, -0.023000823, -0.16361809, 0
1626, 3230509730, 0.44597596, -0.40609172, -0.28298962, -0.74573773, 0.6986632, 0.54091096, -0.22949696, 0
1628, 3230543064, 0.4506821, -0.40998513, -0.28226882, -0.7410365, 0.22460124, 1.4753722, -0.41802216, 0
1629, 3230559731, 0.4511218, -0.41449654, -0.28103715, -0.73872375, 0.5236655, 0.8098511, -0.6438761, 0
1630, 3230576398, 0.45271623, -0.41835323, -0.2798307, -0.7360275, 0.835858, 0.4960851, -0.41441917, 0
1632, 3230609732, 0.4546068, -0.4269043, -0.27775162, -0.7307207, 1.5433756, 0.07144424, -0.8208389, 0
1634, 3230643066, 0.4549656, -0.4333394, -0.27567485, -0.72748864, 1.433749, 0.36728743, -0.8821459, 0
1636, 3230676400, 0.45496213, -0.43600833, -0.27471784, -0.72625715, 1.1334933, 0.92347866, -0.67848396, 0
1637, 3230693067, 0.4556958, -0.4361227, -0.2744639, -0.72582436, 0.8872411, 1.3165187, -0.12214565, 0
1638, 3230709734, 0.45681798, -0.43604624, -0.27437052, -0.7251999, 0.6210125, 1.4864359, 0.13103771, 0
1640, 3230743068, 0.4604376, -0.435982, -0.27466998, -0.7228322, 0.29358348, 1.4150156, 0.752368, 0
1641, 3230759735, 0.46218657, -0.43715295, -0.27343795, -0.7214745, 0.19064957, 0.91425407, 0.79722977, 0
1642, 3230776402, 0.4639268, -0.4383666, -0.27136385, -0.72040355, 0.20600845, 0.43656304, 0.96874714, 0
1644, 3230809736, 0.4693103, -0.4382022, -0.2692784, -0.71779454, 0.8998106, 0.25719357, 0.7766094, 0
1645, 3230826403, 0.4726193, -0.4365325, -0.26940182, -0.71659344, 0.75970745, 0.5548678, 0.52028847, 0
1647, 3230859737, 0.47924808, -0.43274856, -0.26773173, -0.7151102, 0.38801605, 0.466015, 0.3794012, 0
1649, 3230893071, 0.48517016, -0.43082434, -0.26354268, -0.7138338, 0.69311625, 0.045367766, -0.32167816, 0
1651, 3230926405, 0.4905077, -0.4294187, -0.25925088, -0.7126036, 0.5937684, -0.1449449, -1.090415, 0
1652, 3230943072, 0.49329633, -0.42763025, -0.2576456, -0.71233606, 0.4181532, 0.3457608, -0.72803116, 0
1653, 3230959739, 0.49660307, -0.42410627, -0.2562002, -0.71266675, 0.22048928, 0.90366817, -0.4871874, 0
1655, 3230993073, 0.50498194, -0.4129893, -0.25341284, -0.71430254, 0.9782514, 1.8811895, -0.8265753, 0
1656, 3231009740, 0.5082724, -0.40967983, -0.25137627, -0.7145939, 0.8923526, 1.205641, -1.4426241, 0
1657, 3231026407, 0.5109319, -0.40732038, -0.24828768, -0.7151258, 0.6824179, -0.34130248, -1.3823528, 0
1659, 3231059741, 0.51579696, -0.39887235, -0.24476072, -0.7176069, 0.7892113, -0.29270867, -2.0364323, 0
1660, 3231076408, 0.51893145, -0.39272878, -0.24357489, -0.71913743, 0.75794274, 0.43700173, -2.144145, 0
1661, 3231093075, 0.52100784, -0.38731512, -0.24253753, -0.7209206, 0.8035734, 0.74677634, -2.4183369, 0
1664, 3231143076, 0.52442443, -0.37552556, -0.23557225, -0.72696507, 0.4052437, -0.836274, -2.942317, 0
1665, 3231159743, 0.5256026, -0.369882, -0.23361103, -0.7296356, -0.25236002, -0.8372595, -3.8114662, 0
1667, 3231193077, 0.527792, -0.3540083, -0.22904047, -0.73733807, -0.5626022, -0.056583926, -4.3491817, 0
1668, 3231209744, 0.5286647, -0.3447892, -0.2276909, -0.74148756, -1.4975095, -0.5461181, -4.2819996, 0
1669, 3231226411, 0.5287131, -0.33543605, -0.22825024, -0.74556005, -1.9537247, -0.48779982, -4.6081743, 0
1671, 3231259745, 0.5300417, -0.31804878, -0.23067662, -0.7514665, -4.6745667, -1.0381898, -2.5192327, 0
1672, 3231276412, 0.5304911, -0.30955428, -0.2315948, -0.75440866, -3.798996, -2.2287745, 1.02316, 0
1674, 3231309746, 0.5295684, -0.2976542, -0.22964889, -0.76041675, -2.9122286, -6.1694565, 8.20837, 0
1675, 3231326413, 0.52979016, -0.29217806, -0.23067346, -0.76207423, -4.3832307, -6.4773445, 9.201805, 0
1676, 3231343080, 0.52824175, -0.28457788, -0.23312807, -0.7652714, -5.5212846, -6.1646943, 8.85857, 0
1678, 3231376414, 0.5308231, -0.2691211, -0.2382665, -0.7674914, -2.5020738, -4.8563156, 6.005706, 0
1679, 3231393081, 0.5323293, -0.2628358, -0.23989972, -0.7681172, -0.59766, -3.2989683, 5.160431, 0
1680, 3231409748, 0.53168166, -0.2586832, -0.24265297, -0.76911, 2.175585, -1.882784, 4.9641724, 0
1682, 3231443082, 0.5301232, -0.26063344, -0.2532102, -0.7661182, 8.257368, 4.071552, 1.7890816, 0
1683, 3231459749, 0.5281724, -0.26021966, -0.25293782, -0.7676946, 5.8108797, 4.96663, 2.5318336, 0
1684, 3231476416, 0.52659863, -0.2590321, -0.24897861, -0.7704666, 0.70276093, 3.3837564, 4.240179, 0
1686, 3231509750, 0.5243711, -0.2562543, -0.24129665, -0.7753435, -0.46377218, -0.045440517, 2.7035065, 0
1687, 3231526417, 0.52460515, -0.2568194, -0.23655093, -0.7764598, -0.087329425, -1.1788436, 0.8318596, 0
1688, 3231543084, 0.52317125, -0.25704393, -0.23244193, -0.77859104, 0.31216988, -1.8450606, -0.2601652, 0
1691, 3231593085, 0.5208515, -0.26342073, -0.23412517, -0.77750987, 0.30501467, -0.085433245, -1.4113379, 0
1692, 3231609752, 0.52048063, -0.2670449, -0.23322281, -0.77679276, 0.18393192, 0.090361595, -1.7048864, 0
1694, 3231643086, 0.5180935, -0.27490237, -0.23130208, -0.77622175, 0.18805793, 0.30751583, -1.4972334, 0
1695, 3231659753, 0.5174189, -0.27930233, -0.2305443, -0.7753259, 1.0508187, 0.596405, -1.3808069, 0
1696, 3231676420, 0.5168503, -0.28327703, -0.22948304, -0.7745777, 0.11609967, 0.72454107, -1.6697626, 0
1698, 3231709754, 0.5163201, -0.29317355, -0.22630608, -0.7721798, 0.62301624, 0.9431663, -1.6607027, 0
1699, 3231726421, 0.5151517, -0.2980769, -0.22443768, -0.77162784, 0.87534463, 0.6290475, -1.7484322, 0
1700, 3231743088, 0.5131314, -0.30305943, -0.222883, -0.7714838, 0.9044522, 0.37441075, -2.0568829, 0
1702, 3231776422, 0.5080216, -0.31495097, -0.22008839, -0.7709047, 0.4017632, 0.12070823, -1.6008253, 0
1703, 3231793089, 0.50525594, -0.32110834, -0.22028878, -0.77012455, -0.09372632, 0.2313142, -1.4642496, 0
1706, 3231843090, 0.4992871, -0.33911103, -0.21984315, -0.76641905, -0.16915067, -0.1779124, -0.71207523, 0
1707, 3231859757, 0.4969941, -0.3448699, -0.22040224, -0.76517797, -0.3260888, 0.4861133, -0.65752983, 0
1709, 3231893091, 0.48998657, -0.35739687, -0.22103162, -0.76376617, -0.78616816, 0.44441864, -0.79322624, 0
1710, 3231909758, 0.48730975, -0.3639441, -0.22077352, -0.7624605, 0.23690951, -0.011666371, -0.3192978, 0
1711, 3231926425, 0.48596144, -0.36970553, -0.22130138, -0.7603935, -0.29519045, 0.56903887, -0.32589912, 0
1713, 3231959759, 0.48366177, -0.38047156, -0.22374283, -0.75582063, 0.56305695, 0.83896947, 0.71023846, 0
1714, 3231976426, 0.48315942, -0.38567275, -0.2253352, -0.7530277, -0.5520997, 1.2738701, 0.64873695, 0
1715, 3231993093, 0.48260123, -0.39159316, -0.22573045, -0.75020635, -0.02168777, 0.24600439, 0.7094984, 0
1717, 3232026427, 0.48359343, -0.4022897, -0.22726873, -0.7434128, 0.06389166, -0.17433955, 0.15669441, 0
1718, 3232043094, 0.4843563, -0.40788057, -0.22765341, -0.73974276, 0.25751016, -0.8267425, -0.3150444, 0
1721, 3232093095, 0.49124396, -0.41773129, -0.23135342, -0.7284701, 0.23765977, 0.7079453, -0.23477936, 0
1722, 3232109762, 0.4926948, -0.42074734, -0.2322995, -0.72544706, 0.31574202, 1.0140063, -0.6601143, 0
1723, 3232126429, 0.4955929, -0.42341706, -0.23297143, -0.7216945, 0.1949968, 1.1049396, -0.37450886, 0
1725, 3232159763, 0.5006362, -0.4278515, -0.23561952, -0.71470505, 1.2264848, 0.30118158, -0.8591871, 0
1726, 3232176430, 0.5016887, -0.43014696, -0.23647201, -0.71230334, 1.0067984, 0.08107251, -1.2167349, 0
1728, 3232209764, 0.5034431, -0.4336202, -0.23899524, -0.70810527, 0.9361697, -0.12265966, -0.8907604, 0
1729, 3232226431, 0.50346017, -0.43506023, -0.23977846, -0.7069441, 1.0002105, -0.061871402, -0.60787296, 0
1730, 3232243098, 0.50324863, -0.4362551, -0.24013676, -0.70623624, 0.77658814, 0.058941036, -0.18410492, 0
1732, 3232276432, 0.5018819, -0.43721145, -0.24124166, -0.7062409, 0.6989415, 0.4532748, 0.273551, 0
1733, 3232293099, 0.5011211, -0.43784013, -0.24113847, -0.706427, 0.7521096, 0.35135433, 0.37129307, 0
1736, 3232343100, 0.49903148, -0.4406151, -0.23946247, -0.70675075, 0.2026796, 0.10921785, 0.59058, 0
1737, 3232359767, 0.49898234, -0.44057643, -0.23877032, -0.7070438, 0.30113867, 0.08380942, 0.7523041, 0
1738, 3232376434, 0.49929646, -0.43995434, -0.23801666, -0.70746326, 0.3468199, 0.118784286, 0.76895046, 0
1740, 3232409768, 0.5017157, -0.4378833, -0.23780906, -0.7071063, -0.14632957, 0.95681596, 0.5260439, 0
1741, 3232426435, 0.5030147, -0.43801555, -0.23739824, -0.70623904, 5.7627226E-4, 0.20435521, 0.23405743, 0
1742, 3232443102, 0.50468045, -0.43837222, -0.23693436, -0.704984, 0.30545607, -0.3885301, -0.10017681, 0
1744, 3232476436, 0.5089721, -0.4377548, -0.23635307, -0.70247304, 0.44656888, -0.10811176, -0.27651215, 0
1745, 3232493103, 0.5107261, -0.43751425, -0.23599091, -0.701471, 0.48842564, 0.27857447, -0.30101013, 0
1746, 3232509770, 0.5120177, -0.43760324, -0.2358787, -0.700511, 0.41860834, 0.436845, -0.31918144, 0
1748, 3232543104, 0.513274, -0.43926483, -0.23691359, -0.6981986, 0.48604462, 0.044907216, -0.5957403, 0
1749, 3232559771, 0.51339746, -0.44047654, -0.23721825, -0.69724035, 0.9715073, -0.41692418, -0.7517128, 0
1750, 3232576438, 0.51327026, -0.44101712, -0.2375696, -0.69687235, -0.124581374, 0.005947568, -0.4134283, 0
1752, 3232609772, 0.512197, -0.44258675, -0.23752779, -0.6966812, 0.3722255, -0.20040429, -0.14380455, 0
1753, 3232626439, 0.5112577, -0.44366997, -0.23733638, -0.6967473, 0.20002064, 0.04132093, -0.102072716, 0
1754, 3232643106, 0.509955, -0.44527012, -0.23658562, -0.6969366, 0.060072012, 0.006519649, -0.3043728, 0
1756, 3232676440, 0.507491, -0.4483761, -0.2351015, -0.6972461, 0.09478209, 0.1435113, -0.6467247, 0
1759, 3232726441, 0.5069437, -0.44582462, -0.23448113, -0.6994856, -0.020086216, 1.0417331, 1.2147093, 0
1760, 3232743108, 0.50727993, -0.44529086, -0.23492247, -0.6994338, -0.04636958, 0.59580773, 1.3200493, 0
1761, 3232759775, 0.5078835, -0.44558072, -0.2353986, -0.6986508, 0.32839015, 0.28083855, 0.7179203, 0
1764, 3232809776, 0.51304424, -0.44402087, -0.23535858, -0.6958809, 0.33350998, 0.09471831, 1.0389338, 0
1765, 3232826443, 0.51500154, -0.4433282, -0.23447475, -0.695175, 0.91841215, -0.47932106, 1.411211, 0
1767, 3232859777, 0.5178869, -0.4411721, -0.2325832, -0.69503856, 0.64564306, 0.06492124, 1.0788221, 0
1768, 3232876444, 0.5203167, -0.44012907, -0.23040408, -0.6946105, 0.98466307, 0.23622, 0.06594086, 0
1769, 3232893111, 0.5228865, -0.43895414, -0.22831953, -0.69411236, 0.9483297, 0.18485591, -0.35490513, 0
1771, 3232926445, 0.52702844, -0.4378049, -0.22565278, -0.6925762, 0.5490611, 0.6268022, -1.7370644, 0
1772, 3232943112, 0.52909994, -0.43703687, -0.2247056, -0.69178927, 0.36375177, 0.66590255, -2.1723685, 0
1773, 3232959779, 0.53164005, -0.435175, -0.22379228, -0.6913116, 0.37408265, 0.7602876, -2.0326576, 0
1775, 3232993113, 0.5362193, -0.4297526, -0.22105934, -0.69204587, 1.0807267, 0.59223825, -0.97233963, 0
1776, 3233009780, 0.5370327, -0.4271604, -0.22009355, -0.6933266, 0.62858737, 1.1002637, -1.1592417, 0
1779, 3233059781, 0.538893, -0.41706294, -0.21850663, -0.6985132, 0.052995257, 0.28837642, 0.05210781, 0
1780, 3233076448, 0.5395507, -0.41269124, -0.21738075, -0.700949, 0.74243927, 0.10816172, 0.31295204, 0
1782, 3233109782, 0.54399306, -0.39873773, -0.21559209, -0.70612526, 0.61961424, 0.9720413, -0.22594643, 0
1783, 3233126449, 0.5472126, -0.39232594, -0.2137155, -0.7077975, 0.43515152, 0.911457, -1.019846, 0
1784, 3233143116, 0.5500689, -0.38741404, -0.20985766, -0.7094416, -0.10119647, -0.22182432, -1.0084887, 0
1786, 3233176450, 0.55522436, -0.3763051, -0.19637948, -0.7152402, 1.3846539, -1.7597826, -3.2349033, 0
1787, 3233193117, 0.55831176, -0.36780402, -0.19023016, -0.7189115, 0.9506332, -1.1305542, -3.5272593, 0
1788, 3233209784, 0.5610816, -0.35946155, -0.18430269, -0.72250974, -0.17424956, -0.022251163, -4.480166, 0
1790, 3233243118, 0.5649141, -0.34342772, -0.17289934, -0.7301015, -2.13668, -0.0701007, -5.2195315, 0
1791, 3233259785, 0.56548655, -0.33353078, -0.17101572, -0.734676, -3.8303912, -0.38789102, -5.392519, 0
1794, 3233309786, 0.57079595, -0.2845244, -0.2038497, -0.7427626, -7.3380747, 1.3469688, -1.5164776, 0
1795, 3233326453, 0.57043386, -0.27509972, -0.21150035, -0.7444502, -2.7420487, 0.17127697, 3.0446024, 0
1796, 3233343120, 0.57021785, -0.27101856, -0.21022797, -0.7464703, -1.2751553, -3.8779676, 9.26079, 0
1798, 3233376454, 0.5655874, -0.26034516, -0.20798019, -0.7543797, 2.6420612, -10.585755, 6.484316, 0
1799, 3233393121, 0.5644503, -0.24079122, -0.21989278, -0.75833744, 1.2324291, -3.7722898, 8.2360325, 0
1800, 3233409788, 0.56430656, -0.22762689, -0.2314781, -0.7590619, -1.5963197, 1.8056337, 7.628666, 0
1802, 3233443122, 0.5687882, -0.22619116, -0.23226759, -0.75589854, 6.042439, 4.097476, 1.6753273, 0
1803, 3233459789, 0.5704762, -0.22580011, -0.23138162, -0.7550145, 5.861145, 2.946046, -1.016531, 0
1804, 3233476456, 0.5728049, -0.22058754, -0.23249383, -0.7544503, -0.27468747, 0.80218184, 2.5867414, 0
1806, 3233509790, 0.5732511, -0.21353127, -0.2357246, -0.75513864, -0.3173951, -1.210239, 4.3392467, 0
1809, 3233559791, 0.579586, -0.21457352, -0.2296272, -0.75187933, 3.3476427, -2.5954933, 1.5296803, 0
1810, 3233576458, 0.5786511, -0.2158617, -0.22831926, -0.7526287, 2.7087345, -0.76186377, -0.38159752, 0
1811, 3233593125, 0.57594043, -0.21687807, -0.22733502, -0.7547108, 1.9509912, -0.53080887, -1.0793829, 0
1813, 3233626459, 0.5700356, -0.221685, -0.2277169, -0.7576762, 0.42078376, 1.2768917, -2.0607095, 0
1814, 3233643126, 0.56652546, -0.22699319, -0.2265499, -0.7590857, -0.02468952, 1.857092, -2.2754564, 0
1815, 3233659793, 0.5629456, -0.23253556, -0.22560424, -0.760352, -0.45542732, 1.4614649, -1.7981129, 0
1817, 3233693127, 0.5579941, -0.24241312, -0.22418463, -0.76133627, -0.88243264, 0.6617189, -1.08323, 0
1818, 3233709794, 0.5566345, -0.2473418, -0.22311288, -0.7610609, -0.21393314, 0.5121967, -0.91814804, 0
1819, 3233726461, 0.5566023, -0.2521944, -0.22215083, -0.75977224, -0.16435117, 0.48476526, -1.0906315, 0
1821, 3233759795, 0.5566366, -0.2621517, -0.22065806, -0.756806, 0.10757617, 1.2016206, -1.1417131, 0
