sep=,
DeviceTag:,Xsens_DOT_4,,,,,,,,,,,,,,,,,
FirmwareVersion:,3.0.0,,,,,,,,,,,,,,,,,
AppVersion:,2023.6.1,,,,,,,,,,,,,,,,,
SyncStatus:,Synced,,,,,,,,,,,,,,,,,
OutputRate:,60Hz,,,,,,,,,,,,,,,,,
FilterProfile:,General,,,,,,,,,,,,,,,,,
Measurement Mode:,Sensor fusion Mode - Extended (Quaternion),,,,,,,,,,,,,,,,,
StartTime:,2025-05-05 12:05:01.050 +0200,,,,,,,,,,,,,,,,,
 2025,,,,,,,,,,,,,,,,,,,

PacketCounter,SampleTimeFine,Quat_W,Quat_X,Quat_Y,Quat_Z,FreeAcc_X,FreeAcc_Y,FreeAcc_Z,Status
1, 3494031667, 0.15113787, 0.63761646, -0.12130419, 0.7455844, -0.05241528, 0.03919279, 0.17012501, 0
2, 3494048334, 0.15098892, 0.63760227, -0.121439464, 0.74560475, -0.05223372, 0.022380827, 0.08825588, 0
3, 3494065001, 0.1508545, 0.63758206, -0.12158821, 0.7456251, -0.060558964, 0.039443064, 0.08927727, 0
4, 3494081668, 0.15067343, 0.6375661, -0.121707276, 0.74565595, -0.11271489, 0.07434738, 0.09445667, 0
5, 3494098335, 0.15054321, 0.6375456, -0.12185674, 0.74567515, -0.14375813, 0.059505478, 0.058609962, 0
6, 3494115002, 0.15041083, 0.6375199, -0.12197973, 0.7457038, -0.16902247, 0.06307697, 0.08922863, 0
7, 3494131669, 0.15028274, 0.63750166, -0.12207567, 0.7457296, -0.20093584, 0.064974725, 0.04395485, 0
8, 3494148336, 0.15016252, 0.6374817, -0.12217108, 0.7457554, -0.24693877, 0.0902982, 0.05376053, 0
9, 3494165003, 0.15006578, 0.6374718, -0.12226479, 0.74576783, -0.2046719, 0.07817582, 0.009865761, 0
10, 3494181670, 0.14993007, 0.6374735, -0.12229785, 0.7457882, -0.18618943, 0.08612608, 0.039507866, 0
11, 3494198337, 0.1498399, 0.6374772, -0.12235823, 0.74579316, -0.17344221, 0.11070729, 0.051865578, 0
12, 3494215004, 0.14974345, 0.6374659, -0.12241889, 0.74581224, -0.18518832, 0.12616704, 0.1001358, 0
13, 3494231671, 0.1496441, 0.63746274, -0.1224848, 0.7458242, -0.17285748, 0.052495174, 0.14324665, 0
14, 3494248338, 0.1495724, 0.63745874, -0.12255033, 0.7458312, -0.14829122, 0.02246347, 0.092853546, 0
15, 3494265005, 0.14946921, 0.63745624, -0.122561365, 0.7458522, -0.1346218, 0.06750143, 0.08087063, 0
16, 3494281672, 0.14938346, 0.63744664, -0.122603185, 0.7458706, -0.13343048, 0.123903915, 0.086797714, 0
17, 3494298339, 0.14932173, 0.63742626, -0.12267969, 0.745888, -0.13983178, 0.09769089, 0.0689764, 0
18, 3494315006, 0.14924583, 0.6374185, -0.12271927, 0.74590325, -0.13947801, 0.0959294, 0.008355141, 0
19, 3494331673, 0.14917196, 0.6374237, -0.122747496, 0.7459089, -0.13667305, 0.08519438, 0.042873383, 0
20, 3494348340, 0.1491142, 0.6374366, -0.12276265, 0.7459069, -0.13357408, 0.11862116, 0.08555126, 0
21, 3494365007, 0.14907715, 0.63744575, -0.12279057, 0.745902, -0.14213964, 0.1438146, 0.12717342, 0
22, 3494381674, 0.14904325, 0.6374504, -0.122787535, 0.7459052, -0.09646704, 0.16350788, 0.12337685, 0
23, 3494398341, 0.14903288, 0.63744813, -0.122781575, 0.7459102, -0.10320385, 0.11188514, 0.10513592, 0
24, 3494415008, 0.14905, 0.637462, -0.12276746, 0.7458973, -0.067088306, 0.10428726, 0.08765888, 0
25, 3494431675, 0.14906849, 0.637465, -0.12272044, 0.74589884, -0.088462315, 0.10653206, 0.06542301, 0
26, 3494448342, 0.14910889, 0.63748, -0.12264261, 0.7458907, -0.087387554, 0.15050912, 0.05604744, 0
27, 3494465009, 0.14915392, 0.63750845, -0.122555524, 0.7458716, -0.11558604, 0.17302467, 0.029212952, 0
28, 3494481676, 0.14922829, 0.6375445, -0.12246151, 0.74584144, -0.10454849, 0.17390452, 0.053434372, 0
29, 3494498343, 0.14933717, 0.6375712, -0.12236467, 0.7458126, -0.097638346, 0.14147967, 0.12213516, 0
30, 3494515010, 0.14946845, 0.63761187, -0.12223084, 0.74577355, -0.05552934, 0.09664799, 0.12299919, 0
31, 3494531677, 0.14962786, 0.637639, -0.122060105, 0.7457465, -0.035583403, 0.14318371, 0.11803341, 0
32, 3494548344, 0.14982311, 0.63767767, -0.12189785, 0.7457006, -0.01364154, 0.16474786, 0.06762409, 0
33, 3494565011, 0.15001903, 0.6377166, -0.121712066, 0.7456583, -0.013822667, 0.14864275, 0.08605862, 0
34, 3494581678, 0.15027086, 0.6377644, -0.12155651, 0.74559224, -1.04000756E-4, 0.13398026, 0.028438568, 0
35, 3494598345, 0.15052682, 0.63781583, -0.12138432, 0.7455246, -0.018067513, 0.109550975, 0.03101921, 0
36, 3494615012, 0.15075159, 0.6378833, -0.121186025, 0.7454538, 0.021333799, 0.1669573, 0.12033367, 0
37, 3494631679, 0.15098077, 0.63795024, -0.12098456, 0.7453827, 0.037335955, 0.1653346, 0.18089962, 0
38, 3494648346, 0.1512266, 0.6380045, -0.12078956, 0.7453182, 0.025364062, 0.10686969, 0.14464092, 0
39, 3494665013, 0.15147671, 0.6380528, -0.12057008, 0.74526143, 0.020586392, 0.054774296, 0.121118546, 0
40, 3494681680, 0.1517494, 0.63810575, -0.120350845, 0.7451959, 0.0045222477, 0.0943896, 0.097727776, 0
41, 3494698347, 0.1520063, 0.638151, -0.12011604, 0.74514276, -0.051278055, 0.102851905, 0.08613205, 0
42, 3494715014, 0.15227184, 0.6382026, -0.119905755, 0.745078, -0.047965247, 0.10542028, 0.059048653, 0
43, 3494731681, 0.15251355, 0.6382638, -0.11968963, 0.74501127, -0.06365713, 0.10406107, 0.06589794, 0
44, 3494748348, 0.15275028, 0.63831294, -0.11949939, 0.7449512, -0.02161273, 0.15844561, 0.1276598, 0
45, 3494765015, 0.1529741, 0.6383528, -0.11933241, 0.7448977, -0.023215871, 0.10995682, 0.1772747, 0
46, 3494781682, 0.15322067, 0.6383819, -0.11915758, 0.74485016, -0.030471623, 0.03702376, 0.15117073, 0
47, 3494798349, 0.15347467, 0.63840896, -0.11896577, 0.7448054, -0.07062187, 0.015920492, 0.06234169, 0
48, 3494815016, 0.1537246, 0.6384489, -0.11876101, 0.7447523, -0.09426475, 0.06928196, 0.023322105, 0
49, 3494831683, 0.1539266, 0.63849306, -0.11856076, 0.7447047, -0.15728484, 0.12538417, 0.013360977, 0
50, 3494848350, 0.15412909, 0.63852835, -0.11841208, 0.74465615, -0.10878392, 0.092269406, 0.047842026, 0
51, 3494865017, 0.15429652, 0.6385566, -0.118257605, 0.7446218, -0.08621562, 0.05255305, 0.11755657, 0
52, 3494881684, 0.15445739, 0.638594, -0.11812074, 0.7445781, -0.081874266, 0.05992434, 0.114022255, 0
53, 3494898351, 0.15461093, 0.63862103, -0.117998496, 0.7445425, -0.058399603, 0.019215526, 0.112101555, 0
54, 3494915018, 0.15472358, 0.6386457, -0.11785238, 0.744521, -0.05744199, 0.008022564, 0.052034378, 0
55, 3494931685, 0.15483393, 0.6386694, -0.117743045, 0.7444951, -0.10644077, 0.06720016, 0.080675125, 0
56, 3494948352, 0.15490024, 0.6386791, -0.11766581, 0.7444851, -0.108888105, 0.115190476, 0.10064316, 0
57, 3494965019, 0.15490998, 0.63868517, -0.117629565, 0.74448353, -0.06085032, 0.08942362, 0.058104515, 0
58, 3494981686, 0.15491378, 0.63868475, -0.11764839, 0.74448025, -0.008014879, 0.009951286, 0.05349064, 0
59, 3494998353, 0.15487814, 0.6386902, -0.11764135, 0.7444841, -0.01272014, 0.004068453, 0.13418293, 0
60, 3495015020, 0.15483955, 0.6386884, -0.1176483, 0.74449265, -0.021658067, 0.056496307, 0.17793941, 0
61, 3495031687, 0.15477034, 0.63869077, -0.117646545, 0.74450505, -0.05528232, 0.09080309, 0.12860107, 0
62, 3495048354, 0.15470634, 0.6386768, -0.11767712, 0.7445255, -0.066517815, 0.06817669, 0.034718513, 0
63, 3495065021, 0.15463372, 0.63866866, -0.11773199, 0.7445389, -0.096999384, 0.044033058, 0.009765625, 0
64, 3495081688, 0.15452334, 0.63866615, -0.1177806, 0.7445563, -0.08619034, 0.105168, 0.03319645, 0
65, 3495098355, 0.15441751, 0.63864505, -0.11786935, 0.7445824, -0.06395863, 0.120115, 0.11833763, 0
66, 3495115022, 0.154279, 0.6386335, -0.11796042, 0.7446067, -0.061151903, 0.083662875, 0.16469955, 0
67, 3495131689, 0.15415469, 0.6386172, -0.11806412, 0.74462974, -0.04502625, 0.05802128, 0.11508465, 0
68, 3495148356, 0.15402426, 0.63859504, -0.11813717, 0.7446642, -0.03565724, 0.11895263, 0.06723595, 0
69, 3495165023, 0.15390067, 0.63857293, -0.11823352, 0.74469334, -0.0295597, 0.1513724, 0.024840355, 0
70, 3495181690, 0.15376464, 0.6385481, -0.11834094, 0.7447257, -0.0037574144, 0.13919276, 0.080513, 0
71, 3495198357, 0.15363017, 0.6385279, -0.11846076, 0.7447519, -0.025366537, 0.09295797, 0.1048336, 0
72, 3495215024, 0.15348263, 0.63850486, -0.118556276, 0.74478686, 0.00408443, 0.07031966, 0.13677311, 0
73, 3495231691, 0.1533664, 0.6384668, -0.11868024, 0.7448235, 0.012538077, 0.074107245, 0.13612843, 0
74, 3495248358, 0.15324293, 0.6384361, -0.11877602, 0.7448601, -0.01797054, 0.094166905, 0.10490513, 0
75, 3495265025, 0.15314098, 0.6383971, -0.118898585, 0.7448949, -0.0034553923, 0.17355356, 0.085764885, 0
76, 3495281692, 0.15299156, 0.63836753, -0.119011335, 0.7449329, -0.0066933637, 0.19950773, 0.061371803, 0
77, 3495298359, 0.15283976, 0.6383382, -0.11915702, 0.744966, -0.0074279965, 0.121825054, 0.051419258, 0
78, 3495315026, 0.15266997, 0.6383205, -0.119304955, 0.7449922, 0.0133765945, 0.040518705, 0.058699608, 0
79, 3495331693, 0.15252782, 0.6382898, -0.11946762, 0.7450215, -0.010460995, 0.023445169, 0.12419319, 0
80, 3495348360, 0.15237416, 0.63824993, -0.119624816, 0.74506193, 0.014234516, 0.08129233, 0.15557098, 0
81, 3495365027, 0.15222171, 0.63819784, -0.119821966, 0.74510604, -0.02675798, 0.10994132, 0.1606617, 0
82, 3495381694, 0.15202676, 0.63814116, -0.12000906, 0.7451644, -0.059112214, 0.08447229, 0.11462402, 0
83, 3495398361, 0.15179637, 0.6380856, -0.12020837, 0.7452268, -0.08807333, 0.06729155, 0.03988552, 0
84, 3495415028, 0.15155351, 0.638035, -0.120412834, 0.74528646, -0.07783132, 0.03643742, 0.0012054443, 0
85, 3495431695, 0.15128708, 0.6379834, -0.12063936, 0.74534816, -0.13838439, 0.07984708, 0.008655548, 0
86, 3495448362, 0.15100114, 0.6379296, -0.120900035, 0.74540985, -0.13684933, 0.10839138, 0.044945717, 0
87, 3495465029, 0.15066288, 0.6378739, -0.1211794, 0.74548066, -0.12129055, 0.087360024, 0.079919815, 0
88, 3495481696, 0.1502957, 0.637826, -0.12145761, 0.7455504, -0.07970492, 0.04062327, 0.19182873, 0
89, 3495498363, 0.1499521, 0.63775486, -0.12172299, 0.7456371, -0.063390575, 0.02045856, 0.19053268, 0
90, 3495515030, 0.1496312, 0.6376926, -0.12199621, 0.7457103, -0.04879654, 0.08483677, 0.03430271, 0
91, 3495531697, 0.1492973, 0.63762766, -0.122283824, 0.7457857, -0.03135069, 0.15516242, -0.028716087, 0
92, 3495548364, 0.14888935, 0.63757944, -0.12254869, 0.7458649, -0.004465507, 0.14766303, -0.010831833, 0
93, 3495565031, 0.14849927, 0.6375405, -0.12286858, 0.7459233, 0.011114172, 0.05027878, 0.11628246, 0
94, 3495581698, 0.14807756, 0.6374718, -0.123192, 0.7460125, 0.06446856, 0.026284719, 0.17748547, 0
95, 3495598365, 0.14764938, 0.63738984, -0.123525724, 0.74611235, 0.013236044, 0.014501981, 0.21689701, 0
96, 3495615032, 0.14722474, 0.63729405, -0.12387532, 0.7462201, 0.014219703, 0.095951766, 0.14534473, 0
97, 3495631699, 0.1467575, 0.63720423, -0.12421155, 0.74633306, -0.002773394, 0.17053871, 0.03460121, 0
98, 3495648366, 0.14628507, 0.63712215, -0.12460494, 0.7464302, -0.025105434, 0.18394363, -0.028888702, 0
99, 3495665033, 0.14579767, 0.6370309, -0.1250202, 0.74653405, -0.033647604, 0.1072185, 0.08473587, 0
100, 3495681700, 0.14534326, 0.63692874, -0.12545374, 0.746637, -0.04680128, 0.0996959, 0.13439465, 0
101, 3495698367, 0.14487275, 0.63681895, -0.12584469, 0.7467563, -0.1022028, 0.13959292, 0.15872288, 0
102, 3495715034, 0.1444214, 0.63672745, -0.12621993, 0.7468584, -0.16049838, 0.19355324, 0.1193943, 0
103, 3495731701, 0.14404419, 0.6366282, -0.12657891, 0.7469553, -0.21649845, 0.18641517, 0.08270264, 0
104, 3495748368, 0.1437488, 0.6365451, -0.12688139, 0.74703157, -0.22369199, 0.20737907, 0.09003353, 0
105, 3495765035, 0.14352152, 0.6364849, -0.12710442, 0.7470886, -0.2278948, 0.23458733, 0.03306389, 0
106, 3495781702, 0.1433639, 0.6364297, -0.12727474, 0.7471368, -0.21231225, 0.24111988, 0.05652809, 0
107, 3495798369, 0.14317968, 0.6364042, -0.12731625, 0.7471867, -0.18377537, 0.1948508, 0.022924423, 0
108, 3495815036, 0.14316925, 0.63638246, -0.12740596, 0.747192, -0.13530184, 0.18644525, -0.1165905, 0
109, 3495831703, 0.14318414, 0.6363925, -0.12746198, 0.74717104, -0.08133716, 0.23453847, -0.08161354, 0
110, 3495848370, 0.14316125, 0.63642514, -0.127467, 0.74714684, 0.015855946, 0.17288709, 0.1806097, 0
111, 3495865037, 0.14317101, 0.6364444, -0.12744828, 0.74713176, 0.05831173, 0.11388616, 0.37703896, 0
112, 3495881704, 0.14321822, 0.63643014, -0.12735924, 0.74715006, 0.07203659, 0.06801738, 0.3222866, 0
113, 3495898371, 0.14332916, 0.63641495, -0.12726125, 0.7471583, 0.027226128, 0.13237678, 0.08806515, 0
114, 3495915038, 0.14340872, 0.6364207, -0.12711835, 0.7471626, 0.028038194, 0.17295343, -0.07527542, 0
115, 3495931705, 0.14352411, 0.63643533, -0.12704198, 0.7471409, 0.035258677, 0.11084292, -0.09121132, 0
116, 3495948372, 0.14362292, 0.63645476, -0.12697476, 0.74711674, -0.0010316048, 0.11549769, -5.0735474E-4, 0
117, 3495965039, 0.14366555, 0.6364906, -0.12690671, 0.7470897, -0.060491268, 0.17168318, 0.09062958, 0
118, 3495981706, 0.14370447, 0.6365064, -0.12688582, 0.74707216, -0.14687425, 0.17402422, 0.06137848, 0
119, 3495998373, 0.14371362, 0.63654, -0.1268799, 0.7470428, -0.11889931, 0.14283562, -0.009857178, 0
120, 3496015040, 0.14370999, 0.6365737, -0.12689547, 0.7470122, -0.124761485, 0.119444095, 0.120788574, 0
121, 3496031707, 0.14369985, 0.63657653, -0.12694421, 0.74700344, -0.10012495, 0.074022934, 0.29561138, 0
122, 3496048374, 0.14366984, 0.6365496, -0.12696259, 0.747029, -0.08471707, -0.011211368, 0.2745552, 0
123, 3496065041, 0.14367014, 0.63651526, -0.12698984, 0.74705356, -0.14503492, -0.021681791, 0.11455822, 0
124, 3496081708, 0.14366177, 0.6365056, -0.12699154, 0.7470632, -0.18523777, 0.078515574, -0.06034565, 0
125, 3496098375, 0.14364243, 0.63650507, -0.1270014, 0.74706584, -0.17782016, 0.1540035, -0.13346386, 0
126, 3496115042, 0.14361387, 0.6365077, -0.12702477, 0.7470648, -0.12490136, 0.13194227, 0.028596878, 0
127, 3496131709, 0.14357468, 0.6365162, -0.1270264, 0.7470648, -0.08032053, 0.09048324, 0.16309929, 0
128, 3496148376, 0.14355335, 0.63650644, -0.12701727, 0.74707884, -0.041782532, 0.09469645, 0.22760391, 0
129, 3496165043, 0.14353628, 0.63649476, -0.12698352, 0.7470979, -0.025016861, 0.13210663, 0.16198063, 0
130, 3496181710, 0.14355639, 0.63647, -0.12697658, 0.74711627, 0.0016918447, 0.153803, 0.0918026, 0
131, 3496198377, 0.14356217, 0.6364561, -0.12697107, 0.74712795, 0.053185083, 0.14963362, 0.005627632, 0
132, 3496215044, 0.14351025, 0.6364585, -0.12695132, 0.7471391, 0.037703212, 0.103111066, 0.019831657, 0
133, 3496231711, 0.14346077, 0.6364506, -0.1269965, 0.74714786, 0.050921205, 0.1506986, 0.0034160614, 0
134, 3496248378, 0.14338851, 0.63644177, -0.12707095, 0.7471565, 0.042144846, 0.1399483, 0.06288338, 0
135, 3496265045, 0.1433131, 0.636431, -0.12719281, 0.74715954, 0.078282565, 0.13055141, 0.069919586, 0
136, 3496281712, 0.1432008, 0.63641673, -0.12731916, 0.74717146, 0.07387477, 0.10461518, 0.13667488, 0
137, 3496298379, 0.1430212, 0.63639283, -0.12742381, 0.7472085, 0.06452427, 0.10829845, 0.15092468, 0
138, 3496315046, 0.14292076, 0.63635606, -0.12763941, 0.74722224, 0.024779037, 0.08712771, 0.18060493, 0
139, 3496331713, 0.1427859, 0.6363071, -0.12781051, 0.7472605, -0.02466234, 0.10044936, 0.16322231, 0
140, 3496348380, 0.1426383, 0.6362583, -0.12797269, 0.7473025, -0.10346029, 0.13768686, 0.09974766, 0
141, 3496365047, 0.14248288, 0.6362169, -0.12816814, 0.747334, -0.12809022, 0.14845967, 0.07334423, 0
142, 3496381714, 0.14233367, 0.63615304, -0.12839167, 0.7473783, -0.121706575, 0.074779056, 0.077744484, 0
143, 3496398381, 0.14214101, 0.6360887, -0.12859602, 0.7474347, -0.09073543, 0.06870179, 0.017024994, 0
144, 3496415048, 0.14192037, 0.63604695, -0.12878904, 0.74747896, -0.074551634, 0.1540108, -0.010580063, 0
145, 3496431715, 0.14173302, 0.6360104, -0.12900954, 0.7475074, -0.073538646, 0.19267073, 0.009176254, 0
146, 3496448382, 0.14154705, 0.63596743, -0.1292745, 0.74753356, -0.0568158, 0.094307646, 0.073412895, 0
147, 3496465049, 0.14135052, 0.6359342, -0.12949324, 0.74756116, -0.034315266, -0.0129270395, 0.115675926, 0
148, 3496481716, 0.14116165, 0.63589895, -0.12969986, 0.7475909, -0.021363959, -0.027171422, 0.08175564, 0
149, 3496498383, 0.14097553, 0.63587254, -0.12991261, 0.74761164, -0.023587639, 0.050777365, 0.07805729, 0
150, 3496515050, 0.14072913, 0.6358393, -0.13013396, 0.7476479, 0.013291342, 0.082851, 0.033068657, 0
151, 3496531717, 0.14046577, 0.6358058, -0.1303913, 0.7476809, -0.04622413, 0.016757144, 0.11995125, 0
152, 3496548384, 0.14017282, 0.63576084, -0.13065933, 0.7477275, -0.07080828, 0.05662226, 0.02686119, 0
153, 3496565051, 0.13981095, 0.6357118, -0.13093294, 0.74778897, -0.13627017, 0.038237013, 0.0057907104, 0
154, 3496581718, 0.13940212, 0.6356602, -0.131276, 0.7478491, -0.12868682, -0.016007913, 0.089556694, 0
155, 3496598385, 0.13897417, 0.6355741, -0.13171116, 0.74792546, -0.12223043, -0.04883416, 0.2548828, 0
156, 3496615052, 0.13844475, 0.63548213, -0.13213438, 0.7480269, -0.12738965, -0.058794677, 0.20307922, 0
157, 3496631719, 0.13784568, 0.6353569, -0.13258076, 0.74816483, -0.22150083, -0.01155928, 0.19112301, 0
158, 3496648386, 0.13721856, 0.6352098, -0.1331044, 0.7483123, -0.22435565, 0.045002405, -0.024147987, 0
159, 3496665053, 0.13659863, 0.63504463, -0.13371511, 0.74845695, -0.284531, 0.033531778, -0.11464214, 0
160, 3496681720, 0.1359064, 0.63490444, -0.13432832, 0.74859214, -0.3014924, 0.04068877, -0.08266926, 0
161, 3496698387, 0.13518004, 0.63476956, -0.1349192, 0.74873173, -0.29443866, 0.121021815, 0.05044937, 0
162, 3496715054, 0.13442923, 0.63462734, -0.13553393, 0.74887645, -0.2797812, 0.12985128, 0.095788956, 0
163, 3496731721, 0.13369823, 0.6344736, -0.13614328, 0.7490269, -0.28061926, 0.054483183, 0.05889511, 0
164, 3496748388, 0.13301045, 0.6343396, -0.13671757, 0.7491584, -0.31307808, 0.06085526, 0.09286976, 0
165, 3496765055, 0.13236237, 0.6342036, -0.13726248, 0.74928856, -0.3124395, 0.15805711, 0.15214062, 0
166, 3496781722, 0.13173097, 0.6340714, -0.1377623, 0.74942, -0.31991816, 0.25057665, 0.06427002, 0
167, 3496798389, 0.13116549, 0.63394374, -0.13821523, 0.7495437, -0.31826663, 0.20929022, 0.08939743, 0
168, 3496815056, 0.13063377, 0.63384515, -0.1385708, 0.74965423, -0.27694255, 0.16071685, -0.0043907166, 0
169, 3496831723, 0.13024299, 0.6337478, -0.13888708, 0.74974614, -0.26309028, 0.18911512, -0.058805466, 0
170, 3496848390, 0.12989393, 0.6336769, -0.1390937, 0.7498282, -0.24976271, 0.23431605, -0.006925583, 0
171, 3496865057, 0.12961486, 0.63364154, -0.13925113, 0.7498773, -0.26433152, 0.29126182, 0.05248642, 0
172, 3496881724, 0.12938301, 0.63361853, -0.13937157, 0.74991447, -0.1921563, 0.33183235, 0.1696825, 0
173, 3496898391, 0.12921453, 0.6335917, -0.13942865, 0.7499555, -0.13564393, 0.283315, 0.11884403, 0
174, 3496915058, 0.12910876, 0.63358676, -0.13943247, 0.74997705, -0.07546372, 0.22893791, 0.046927452, 0
175, 3496931725, 0.1290773, 0.6336111, -0.1393849, 0.7499708, -0.016546067, 0.259855, -0.008311272, 0
176, 3496948392, 0.1291555, 0.63363236, -0.13933854, 0.7499479, -0.0019986331, 0.29423627, 0.045920372, 0
177, 3496965059, 0.12921005, 0.6336891, -0.13918167, 0.7499198, 0.10674622, 0.28256863, 0.11773586, 0
178, 3496981726, 0.12936044, 0.6337397, -0.13901511, 0.749882, 0.17229791, 0.25274327, 0.16819954, 0
179, 3496998393, 0.12951334, 0.6338032, -0.1387708, 0.74984723, 0.19574934, 0.24161698, 0.20541573, 0
180, 3497015060, 0.12968573, 0.6338719, -0.13850676, 0.7498081, 0.16587125, 0.22404484, 0.22915554, 0
181, 3497031727, 0.12984306, 0.6339335, -0.13816907, 0.74979115, 0.10752533, 0.17557438, 0.19901276, 0
182, 3497048394, 0.13011715, 0.6339819, -0.13793346, 0.7497461, 0.09861519, 0.14926745, 0.06966686, 0
183, 3497065061, 0.13037735, 0.63402843, -0.13767909, 0.7497081, 0.07317831, 0.1477383, -0.0011367798, 0
184, 3497081728, 0.13065259, 0.6340918, -0.13746725, 0.74964553, 0.053200424, 0.18464938, 0.07061577, 0
185, 3497098395, 0.1308884, 0.63415104, -0.13724145, 0.7495955, 0.09809253, 0.19695109, 0.03998089, 0
186, 3497115062, 0.13118091, 0.63420177, -0.13708623, 0.74953026, 0.11252046, 0.24659738, 0.09906006, 0
187, 3497131729, 0.13141349, 0.63425505, -0.13692233, 0.74947435, 0.112591945, 0.23370291, 0.12517548, 0
188, 3497148396, 0.13167897, 0.6343205, -0.13678288, 0.74939764, 0.0968813, 0.13013689, 0.101400375, 0
189, 3497165063, 0.1319381, 0.6343741, -0.13660648, 0.74933904, 0.09804277, 0.08076814, 0.16694736, 0
190, 3497181730, 0.13224871, 0.6344291, -0.13643026, 0.74926966, 0.027821613, 0.12791733, 0.15483189, 0
191, 3497198397, 0.132568, 0.6344746, -0.13623363, 0.74921054, 0.030083532, 0.20921265, 0.13974285, 0
192, 3497215064, 0.1329073, 0.6345274, -0.13601166, 0.7491459, 0.03597229, 0.14726144, 0.07130432, 0
193, 3497231731, 0.13327567, 0.6346042, -0.13573134, 0.7490663, 0.015673636, 0.057227615, 0.07001877, 0
194, 3497248398, 0.13366513, 0.63470936, -0.13538526, 0.7489705, 0.42386937, -0.09122923, -0.8358383, 0
195, 3497265065, 0.13409889, 0.63487405, -0.13504362, 0.7488151, 0.0032050395, 0.43988323, 0.86871624, 0
196, 3497281732, 0.13442127, 0.6349307, -0.13485542, 0.7487431, -0.07798606, 0.6115255, 0.9281378, 0
197, 3497298399, 0.1347386, 0.63491505, -0.1346293, 0.7487401, 0.16247869, -0.41242972, -0.25690937, 0
198, 3497315066, 0.13511488, 0.634972, -0.13429719, 0.74868363, -0.27875987, -0.38332477, -0.1285181, 0
199, 3497331733, 0.13548046, 0.6350579, -0.13400342, 0.7485972, -0.20222647, 0.26726574, -0.058909416, 0
200, 3497348400, 0.13581821, 0.6350891, -0.13383512, 0.7485397, -0.43071675, 0.3409882, 0.15781975, 0
201, 3497365067, 0.13607916, 0.6351306, -0.13369362, 0.74848247, -0.5370051, 0.118432835, 0.0151968, 0
202, 3497381734, 0.13630651, 0.6351782, -0.1334676, 0.7484411, -0.63200957, -0.052922763, -0.030243874, 0
203, 3497398401, 0.13653521, 0.6352304, -0.13323438, 0.74839664, -0.6364653, -0.0065544057, -0.19513893, 0
204, 3497415068, 0.1368222, 0.63529325, -0.13305444, 0.7483227, -0.644145, 0.0078626545, -0.022019386, 0
205, 3497431735, 0.13711469, 0.63535976, -0.1328, 0.74825794, -0.6316321, 0.035351284, 0.09497166, 0
206, 3497448402, 0.13743107, 0.63543093, -0.1324317, 0.7482047, -0.5906609, 0.1471676, 0.2276535, 0
207, 3497465069, 0.1377763, 0.6354889, -0.13201362, 0.74816597, -0.4871336, 0.1063422, 0.067801476, 0
208, 3497481736, 0.1381306, 0.6355686, -0.13162354, 0.7481017, -0.30738774, -0.0074575096, -0.18980885, 0
209, 3497498403, 0.13844298, 0.63567764, -0.13127084, 0.7480131, -0.09456388, -0.0017317504, -0.2957182, 0
210, 3497515070, 0.13871638, 0.6357819, -0.13095433, 0.7479293, 0.025437487, 0.14589116, 0.060401917, 0
211, 3497531737, 0.13891172, 0.63585776, -0.13069817, 0.7478734, 0.024347039, 0.23108953, 0.4007845, 0
212, 3497548404, 0.13909239, 0.6358774, -0.13054836, 0.7478494, 0.06466149, 0.15518539, 0.4881935, 0
213, 3497565071, 0.13924316, 0.6358759, -0.13041613, 0.74784577, 0.12323748, 0.018668402, 0.21586323, 0
214, 3497581738, 0.13937743, 0.6358744, -0.13030237, 0.74784184, 0.14809276, 0.049141448, -0.015339851, 0
215, 3497598405, 0.13944542, 0.6358915, -0.1302104, 0.74783045, 0.2512126, 0.24219634, -0.20990276, 0
216, 3497615072, 0.13949864, 0.6359145, -0.1302501, 0.7477941, 0.3011552, 0.28635126, -0.0884943, 0
217, 3497631739, 0.13951702, 0.63594484, -0.13034368, 0.7477485, 0.37161833, 0.10806043, 0.007083893, 0
218, 3497648406, 0.13951424, 0.6359763, -0.13040783, 0.7477111, 0.42696327, -0.0115412455, 0.2584076, 0
219, 3497665073, 0.13953324, 0.6360044, -0.13042349, 0.7476811, 0.45851865, 0.035577662, 0.4284153, 0
220, 3497681740, 0.13956335, 0.6360035, -0.1304216, 0.7476765, 0.38446906, 0.14630295, 0.42089176, 0
221, 3497698407, 0.1396227, 0.6359788, -0.1304235, 0.747686, 0.27799845, 0.14410874, 0.23092079, 0
222, 3497715074, 0.1396507, 0.63597494, -0.13038823, 0.7476903, 0.22485822, 0.10863293, 0.024305344, 0
223, 3497731741, 0.13966405, 0.6359753, -0.13034123, 0.7476956, 0.17271225, 0.11082259, 0.03529167, 0
224, 3497748408, 0.13963822, 0.6359701, -0.13033435, 0.74770594, 0.15855956, 0.11941791, 0.10762024, 0
225, 3497765075, 0.13956748, 0.6359586, -0.13038595, 0.7477201, 0.12986992, 0.0053667277, 0.13634396, 0
226, 3497781742, 0.1394954, 0.6359254, -0.13045357, 0.74775004, 0.114859775, -0.07846303, 0.1937151, 0
227, 3497798409, 0.13935348, 0.63589287, -0.13053133, 0.7477906, 0.09693501, 0.06090058, 0.17583752, 0
228, 3497815076, 0.1391471, 0.63584125, -0.13068157, 0.7478467, 0.11335359, 0.20115213, 0.028873444, 0
229, 3497831743, 0.13882567, 0.63577825, -0.13091649, 0.7479187, 0.08553357, 0.15996636, 0.061561584, 0
230, 3497848410, 0.13849777, 0.6356889, -0.1312578, 0.7479959, 0.08435603, 0.021471087, 0.11963463, 0
231, 3497865077, 0.13813959, 0.63559973, -0.13159135, 0.7480792, 3.753669E-4, -0.05206304, 0.19966507, 0
232, 3497881744, 0.13778031, 0.63549036, -0.13192675, 0.74817926, -0.021062551, 0.048934083, 0.12574482, 0
233, 3497898411, 0.13747868, 0.63537115, -0.13233244, 0.7482643, -0.09092929, 0.12416692, 0.14485455, 0
234, 3497915078, 0.1371111, 0.6352689, -0.13270171, 0.74835324, -0.10807028, 0.16773123, 0.023694992, 0
235, 3497931745, 0.13674502, 0.63518417, -0.1330339, 0.7484331, -0.13223387, 0.12370847, -0.10157776, 0
236, 3497948412, 0.13638797, 0.63511413, -0.13335258, 0.7485009, -0.14269899, 0.126947, 0.022089958, 0
237, 3497965079, 0.13603166, 0.6350374, -0.13365261, 0.74857736, -0.15989766, 0.13864237, 0.025317192, 0
238, 3497981746, 0.13569053, 0.634963, -0.13394278, 0.74865043, -0.1394042, 0.07760922, 0.13381004, 0
239, 3497998413, 0.13536291, 0.6348812, -0.1342316, 0.7487276, -0.14174278, 0.098262414, 0.16846466, 0
240, 3498015080, 0.13501841, 0.63479924, -0.13451764, 0.74880785, -0.17216708, 0.21136501, 0.12966824, 0
241, 3498031747, 0.1346638, 0.6347154, -0.13483082, 0.74888647, -0.16456947, 0.21816929, 0.053230286, 0
242, 3498048414, 0.13431093, 0.6346212, -0.13509718, 0.7489817, -0.1509621, 0.08538906, 0.062828064, 0
243, 3498065081, 0.1340032, 0.63455003, -0.13532035, 0.7490568, -0.08950252, 0.022389628, -0.08572197, 0
244, 3498081748, 0.1337311, 0.6345034, -0.13552663, 0.7491078, -0.11936818, 0.103367366, 0.01681614, 0
245, 3498098415, 0.13340782, 0.6344691, -0.13570817, 0.7491614, -0.14707883, 0.23012637, 0.17748737, 0
246, 3498115082, 0.13313574, 0.6343881, -0.13596426, 0.749232, -0.10334977, 0.16736026, 0.2618637, 0
247, 3498131749, 0.13285625, 0.63430935, -0.13616216, 0.7493124, -0.10770699, 0.050844587, 0.11101055, 0
248, 3498148416, 0.13260101, 0.63424027, -0.1363291, 0.74938583, -0.13409233, 0.13193107, -0.012843132, 0
249, 3498165083, 0.13236961, 0.6341747, -0.13651414, 0.74944854, -0.08842937, 0.25902632, -0.05511093, 0
250, 3498181750, 0.13217613, 0.6341043, -0.1367267, 0.7495035, -0.12334694, 0.25276712, 0.05495262, 0
251, 3498198417, 0.13196068, 0.634064, -0.13690364, 0.7495431, -0.07473473, 0.19031455, 0.104987144, 0
252, 3498215084, 0.13177972, 0.6340161, -0.13707638, 0.749584, -0.103745125, 0.21003515, 0.18917847, 0
253, 3498231751, 0.1316062, 0.6339615, -0.1372252, 0.7496334, -0.118837535, 0.23032802, 0.12656689, 0
254, 3498248418, 0.13147935, 0.63391083, -0.13736166, 0.7496735, -0.09897836, 0.20968881, 0.03229046, 0
255, 3498265085, 0.1314007, 0.63389456, -0.13743496, 0.74968755, -0.048449934, 0.27217296, -0.037391663, 0
256, 3498281752, 0.13136847, 0.6339027, -0.13746995, 0.74968, -0.040620305, 0.32905278, 6.2942505E-5, 0
257, 3498298419, 0.13136639, 0.63392484, -0.13745968, 0.7496635, -0.02245109, 0.26763156, 0.07374668, 0
258, 3498315086, 0.13144605, 0.633943, -0.13739318, 0.7496463, -0.042632874, 0.08651695, 0.19241714, 0
259, 3498331753, 0.13163751, 0.63395894, -0.13726452, 0.749623, -0.07607314, 0.1360666, 0.2444992, 0
260, 3498348420, 0.13184452, 0.63397294, -0.13706264, 0.7496117, -0.15869173, 0.34389734, 0.17980957, 0
261, 3498365087, 0.13210492, 0.63399357, -0.13688922, 0.74957997, -0.15021534, 0.41850913, 0.018179893, 0
262, 3498381754, 0.1324137, 0.63403064, -0.1367015, 0.7495283, -0.11956482, 0.28563747, -0.056321144, 0
263, 3498398421, 0.13275045, 0.6341029, -0.13647957, 0.749448, -0.08390854, 0.20200014, -0.032301903, 0
264, 3498415088, 0.13316396, 0.6341864, -0.13623075, 0.74934924, -0.02330278, 0.19428557, -0.015162468, 0
265, 3498431755, 0.13359967, 0.63429826, -0.13591643, 0.74923414, 0.053422995, 0.17593923, -0.056703568, 0
266, 3498448422, 0.13409689, 0.6344096, -0.13556461, 0.74911475, 0.052545656, 0.13215968, 0.13100147, 0
267, 3498465089, 0.13462135, 0.634513, -0.1352025, 0.7489987, 0.030656224, 0.1338292, 0.2272501, 0
268, 3498481756, 0.13511176, 0.63461894, -0.13478673, 0.74889565, -0.030180393, 0.11068557, 0.30685902, 0
269, 3498498423, 0.13561258, 0.6347091, -0.13438804, 0.7488002, -0.07347608, 0.05719068, 0.029733658, 0
270, 3498515090, 0.13606715, 0.63482237, -0.13396147, 0.7486983, -0.13343742, 0.064981125, -0.07217026, 0
271, 3498531757, 0.13654089, 0.63493377, -0.13357891, 0.7485858, -0.15200375, 0.17466977, -0.09255695, 0
272, 3498548424, 0.13695931, 0.6350686, -0.1332102, 0.7484608, -0.09947244, 0.1824955, 0.029428482, 0
273, 3498565091, 0.13737512, 0.63518333, -0.13288917, 0.7483442, -0.007854542, 0.085021086, 0.13636875, 0
274, 3498581758, 0.13774544, 0.63528746, -0.13257153, 0.74824405, 0.06668843, -0.0017188425, 0.098833084, 0
275, 3498598425, 0.13810982, 0.63536656, -0.13229917, 0.7481579, 0.010583021, -0.05755443, 0.19574451, 0
276, 3498615092, 0.13839209, 0.63542706, -0.13203183, 0.74810153, -0.06804849, -0.04735745, 0.27993393, 0
277, 3498631759, 0.13865288, 0.63547, -0.13183223, 0.748052, 0.03797447, 0.017091975, -0.10885906, 0
278, 3498648426, 0.13887383, 0.63553935, -0.13166921, 0.7479808, 0.079703115, -0.03508329, -0.49842453, 0
279, 3498665093, 0.13898633, 0.6355931, -0.13163452, 0.74792033, -0.5667035, 0.6289127, 1.1550102, 0
280, 3498681760, 0.13903753, 0.6355407, -0.13172509, 0.74793935, -0.17044215, -0.020357449, 0.09420967, 0
281, 3498698427, 0.13904986, 0.6354924, -0.13173223, 0.7479769, -0.3917487, -0.4012167, -0.14929771, 0
282, 3498715094, 0.13906614, 0.6354825, -0.13174565, 0.74797994, -0.45032328, 0.1766379, -0.07551575, 0
283, 3498731761, 0.13903648, 0.63545644, -0.13185555, 0.7479884, -0.55785924, 0.36742932, -0.03710842, 0
284, 3498748428, 0.13892573, 0.6354317, -0.13198744, 0.74800664, -0.65753084, 0.0727079, -0.08910179, 0
285, 3498765095, 0.13883407, 0.6354156, -0.1320816, 0.7480205, -0.63721955, -0.2457559, -0.10866451, 0
286, 3498781762, 0.13879606, 0.6354022, -0.13216262, 0.7480248, -0.63696235, -0.16363184, 0.0163908, 0
287, 3498798429, 0.13872957, 0.6353915, -0.13222665, 0.74803483, -0.62301576, -0.047409963, 0.041558266, 0
288, 3498815096, 0.13869767, 0.6353792, -0.13227825, 0.74804205, -0.52305007, 0.018984227, -0.08969021, 0
289, 3498831763, 0.13864288, 0.6353864, -0.13225004, 0.74805117, -0.57147145, 0.15971923, 0.0959816, 0
290, 3498848430, 0.13855806, 0.63539034, -0.13220228, 0.7480719, -0.42133015, 0.31702632, 0.12905598, 0
291, 3498865097, 0.13847439, 0.6353803, -0.13220443, 0.74809545, -0.28431723, 0.1791091, 0.07967663, 0
292, 3498881764, 0.13839236, 0.63536614, -0.13223809, 0.74811685, -0.134397, 0.0075934334, 0.01089859, 0
293, 3498898431, 0.1382929, 0.63536745, -0.13226937, 0.7481286, -0.03554505, 0.016847903, -0.035559654, 0
294, 3498915098, 0.13816628, 0.63536626, -0.13232034, 0.748144, 0.08230951, 0.17282768, -0.018109322, 0
295, 3498931765, 0.13799515, 0.6353571, -0.13244209, 0.74816185, 0.13882647, 0.2171471, 0.07967281, 0
296, 3498948432, 0.1377689, 0.63533103, -0.13263561, 0.7481914, 0.2294926, 0.11464404, 0.20897293, 0
297, 3498965099, 0.1375296, 0.6352928, -0.13286467, 0.74822724, 0.29634014, 0.03646769, 0.2943468, 0
298, 3498981766, 0.1372385, 0.6352352, -0.1330872, 0.74828994, 0.30749702, 0.13492593, 0.22337341, 0
299, 3498998433, 0.13697879, 0.6351566, -0.13342398, 0.74834436, 0.26471648, 0.21662347, 0.10337162, 0
300, 3499015100, 0.13665459, 0.6350953, -0.1337862, 0.74839103, 0.26549628, 0.20255065, 0.027407646, 0
301, 3499031767, 0.13635373, 0.6350391, -0.13418129, 0.74842286, 0.24318618, 0.16159894, 0.004087448, 0
302, 3499048434, 0.13599502, 0.63498855, -0.13449806, 0.74847406, 0.22035843, 0.17082484, 0.04621792, 0
303, 3499065101, 0.13567275, 0.6349298, -0.1348338, 0.74852204, 0.19790187, 0.19102257, 0.23768616, 0
304, 3499081768, 0.13537, 0.6348663, -0.13517296, 0.74856955, 0.25627956, 0.08117932, 0.22636032, 0
305, 3499098435, 0.1350855, 0.6348097, -0.13544598, 0.7486195, 0.2504988, -0.008766793, 0.23508453, 0
306, 3499115102, 0.13483489, 0.6347564, -0.13566653, 0.74867, 0.19400401, 0.106616296, 0.22013092, 0
307, 3499131769, 0.13458776, 0.63470805, -0.13586429, 0.7487197, 0.14296412, 0.19941673, 0.08842182, 0
308, 3499148436, 0.13433343, 0.6346696, -0.1360384, 0.74876636, 0.0952288, 0.14250249, -0.064136505, 0
309, 3499165103, 0.13412057, 0.6346372, -0.13621837, 0.74879915, -0.029841043, 0.07019977, 0.014340401, 0
310, 3499181770, 0.13390641, 0.63463026, -0.1363698, 0.74881583, -0.06764541, 0.10136553, 0.08580494, 0
311, 3499198437, 0.13370755, 0.63461214, -0.13650854, 0.74884146, -0.0252691, 0.11908082, 0.07077885, 0
312, 3499215104, 0.13348407, 0.63459444, -0.13663489, 0.74887335, -9.047093E-4, 0.10152993, 0.1679945, 0
313, 3499231771, 0.1332398, 0.63455915, -0.13679391, 0.74891764, -0.035616197, 0.09269118, 0.2105732, 0
314, 3499248438, 0.1329782, 0.63450444, -0.13701275, 0.74897057, -0.018296052, 0.044199742, 0.20740795, 0
315, 3499265105, 0.13263635, 0.6344269, -0.13724452, 0.7490544, -0.03215283, -0.026822785, 0.11138344, 0
316, 3499281772, 0.13227786, 0.63434845, -0.13750346, 0.74913675, -0.06522926, -0.04673645, 0.05440998, 0
317, 3499298439, 0.13186885, 0.63426656, -0.1377938, 0.7492247, -0.047366932, 0.079730146, 0.073542595, 0
318, 3499315106, 0.13142109, 0.6341684, -0.1381624, 0.7493187, -0.037929166, 0.17013326, 0.017306328, 0
319, 3499331773, 0.13090062, 0.6340762, -0.13857351, 0.7494117, 0.010066592, 0.14714082, 0.01154995, 0
320, 3499348440, 0.13036095, 0.6339634, -0.13904905, 0.7495132, 0.038346414, 0.097838245, 0.14412403, 0
321, 3499365107, 0.12975258, 0.6338361, -0.13952972, 0.7496372, 0.0733601, 0.024497578, 0.10832691, 0
322, 3499381774, 0.1291654, 0.6337023, -0.14004134, 0.7497563, -0.027261019, 0.09660269, 0.22583199, 0
323, 3499398441, 0.12853032, 0.6335692, -0.14053878, 0.7498849, 0.006868261, 0.15825075, 0.020326614, 0
324, 3499415108, 0.12792185, 0.63343495, -0.14101142, 0.7500135, -0.01787556, 0.11497649, 0.067193985, 0
325, 3499431775, 0.12735733, 0.6332907, -0.14145502, 0.7501478, -0.14997032, 0.2259476, 0.17659187, 0
326, 3499448442, 0.12681767, 0.63315314, -0.14184272, 0.7502821, -0.2390335, 0.16944747, 0.07000828, 0
327, 3499465109, 0.12624113, 0.6330278, -0.14217174, 0.75042295, -0.37747303, 0.17799169, 0.05661869, 0
328, 3499481776, 0.12565972, 0.6329076, -0.1425662, 0.75054705, -0.47783175, 0.11375312, 0.07892704, 0
329, 3499498443, 0.12511112, 0.63277745, -0.1430453, 0.75065726, -0.43295094, 0.1768473, -0.019771576, 0
330, 3499515110, 0.12456028, 0.6326547, -0.14351535, 0.7507625, -0.34895602, 0.046354745, -0.017947197, 0
331, 3499531777, 0.12407426, 0.6325396, -0.1438968, 0.7508671, -0.31652257, 0.23862791, 0.0116939545, 0
332, 3499548444, 0.123642534, 0.6324525, -0.14424558, 0.75094473, -0.3399328, 0.43320382, -0.051080704, 0
333, 3499565111, 0.123225, 0.632367, -0.14466853, 0.75100404, -0.24052504, 0.42484337, 0.09940529, 0
334, 3499581778, 0.1228029, 0.63226515, -0.14511976, 0.7510718, -0.049098026, -0.0251254, 0.0688715, 0
335, 3499598445, 0.1223847, 0.63219064, -0.1454919, 0.75113076, 0.071387075, -0.07883752, 0.14238167, 0
336, 3499615112, 0.12203775, 0.63208973, -0.1458613, 0.75120044, 0.10289457, 0.21851219, 0.091516495, 0
337, 3499631779, 0.121685684, 0.631993, -0.14620124, 0.7512729, 0.0632251, 0.47575855, 0.17039204, 0
338, 3499648446, 0.1213499, 0.63191205, -0.14651693, 0.7513339, 0.032193027, 0.43151093, 0.09356022, 0
339, 3499665113, 0.12109916, 0.6318445, -0.14680499, 0.75137484, -0.019438038, 0.19295494, 0.09792137, 0
340, 3499681780, 0.12089457, 0.6317908, -0.14703129, 0.7514087, 0.016678898, 0.10733914, 0.11148262, 0
341, 3499698447, 0.12067465, 0.6317557, -0.14718911, 0.7514427, 0.086577825, 0.18665595, 0.094358444, 0
342, 3499715114, 0.12050307, 0.631715, -0.14736448, 0.75147015, 0.08470367, 0.19476047, 0.055719376, 0
343, 3499731781, 0.120428756, 0.6316717, -0.147534, 0.75148517, 0.07898402, 0.08142895, 0.11789894, 0
344, 3499748448, 0.12033972, 0.6316508, -0.14758232, 0.7515075, 0.026497608, 0.12827277, 0.12377834, 0
345, 3499765115, 0.12026801, 0.6316322, -0.1476489, 0.75152147, -0.026641913, 0.29954618, 0.14041042, 0
346, 3499781782, 0.12017236, 0.6316104, -0.14772552, 0.75154006, -0.06179374, 0.1599302, 0.10592842, 0
347, 3499798449, 0.12012176, 0.6315807, -0.14782667, 0.7515532, -0.053506643, 0.03252474, 0.09190464, 0
348, 3499815116, 0.12003218, 0.6315576, -0.14789899, 0.7515727, -0.059972607, 0.08443841, 0.10278988, 0
349, 3499831783, 0.11990693, 0.63151467, -0.14800201, 0.7516086, -0.052648805, 0.11777127, 0.18165112, 0
350, 3499848450, 0.119768314, 0.6314533, -0.14815678, 0.7516517, -0.042367842, 0.008969715, 0.13216591, 0
351, 3499865117, 0.11961427, 0.63137305, -0.14833646, 0.7517082, -0.046717327, -0.025262663, 0.13033581, 0
352, 3499881784, 0.11942672, 0.6312886, -0.14850697, 0.751775, 0.021686418, 0.070886284, 0.09430981, 0
353, 3499898451, 0.11917375, 0.6312081, -0.14869387, 0.751846, -0.03816265, 0.085677154, 0.010034561, 0
354, 3499915118, 0.1188117, 0.63114417, -0.1489089, 0.7519144, -0.031018296, 0.20786174, 0.11724186, 0
355, 3499931785, 0.118477866, 0.6310315, -0.14924847, 0.7519943, -0.029143013, 0.19148305, 0.10041237, 0
356, 3499948452, 0.118144885, 0.63091797, -0.149623, 0.7520674, -0.080428936, 0.09358672, 0.13935852, 0
357, 3499965119, 0.11778067, 0.6307972, -0.14992858, 0.7521652, -0.15004157, 0.04141575, 0.13793468, 0
358, 3499981786, 0.11741249, 0.6306832, -0.15019026, 0.75226593, -0.1784355, 0.024309352, 0.1954565, 0
359, 3499998453, 0.11706932, 0.6305658, -0.15044412, 0.7523673, -0.12997185, 0.11133239, 0.16031456, 0
360, 3500015120, 0.1167735, 0.6304337, -0.15072769, 0.7524673, -0.08902486, 0.19454266, 0.122200966, 0
361, 3500031787, 0.11648278, 0.6302904, -0.15100177, 0.7525774, -0.14668222, 0.19729365, 0.052250862, 0
362, 3500048454, 0.11615979, 0.63016105, -0.15126127, 0.7526835, -0.178461, 0.1497871, -0.026153564, 0
363, 3500065121, 0.115864486, 0.6300324, -0.15157402, 0.75277394, -0.30263823, 0.11267676, -0.11640072, 0
364, 3500081788, 0.11555055, 0.62993145, -0.15183163, 0.75285447, -0.38712978, 0.14894104, -0.022115707, 0
365, 3500098455, 0.115279004, 0.6298522, -0.15206459, 0.7529154, -0.4270377, 0.16125144, 0.106393814, 0
366, 3500115122, 0.11501392, 0.6297764, -0.15224142, 0.7529836, -0.29189342, 0.16814494, 0.16753387, 0
367, 3500131789, 0.11474248, 0.6296706, -0.1524203, 0.7530774, -0.2107548, 0.22701474, 0.15053654, 0
368, 3500148456, 0.11449462, 0.62955415, -0.1526789, 0.75316, -0.09946757, 0.17433427, 0.043128014, 0
369, 3500165123, 0.11417773, 0.62944955, -0.15289356, 0.75325197, -0.091903806, 0.08484029, -0.09544277, 0
370, 3500181790, 0.11389148, 0.62937635, -0.15308583, 0.75331753, -0.111375056, 0.13224803, -0.116864204, 0
371, 3500198457, 0.11364822, 0.62932515, -0.15326382, 0.75336075, -0.05085689, 0.36874056, -0.24709606, 0
372, 3500215124, 0.113423094, 0.6293338, -0.15345737, 0.7533482, 0.042428818, 0.2227443, -0.5097847, 0
373, 3500231791, 0.11321181, 0.6293544, -0.1537249, 0.75330806, -0.37630805, 0.4331761, 0.8935137, 0
374, 3500248458, 0.113096446, 0.6292614, -0.153968, 0.75335354, -0.116359465, -0.07889837, 0.38479042, 0
375, 3500265125, 0.1129862, 0.62920356, -0.15396568, 0.7534188, -0.18174973, -0.22863244, 0.089756966, 0
376, 3500281792, 0.1129406, 0.6291368, -0.15398021, 0.7534784, -0.3165465, 0.29367292, 0.12843418, 0
377, 3500298459, 0.1128786, 0.62904793, -0.15409234, 0.7535391, -0.4509855, 0.46263975, -0.19891453, 0
378, 3500315126, 0.112857245, 0.62900454, -0.15420617, 0.7535551, -0.6787472, 0.21322036, -0.1949358, 0
379, 3500331793, 0.11286007, 0.62902325, -0.1541995, 0.75354046, -0.7187876, 0.22646928, -0.28372765, 0
380, 3500348460, 0.1128603, 0.6290568, -0.15422751, 0.75350654, -0.8763772, 0.35392538, 0.12512302, 0
381, 3500365127, 0.1128974, 0.6290581, -0.15434045, 0.7534768, -0.81272167, 0.053216256, 0.1932087, 0
382, 3500381794, 0.112960964, 0.62905383, -0.15438043, 0.75346255, -0.72991663, -0.22515522, -0.007238388, 0
383, 3500398461, 0.113036975, 0.6290698, -0.1543031, 0.75345385, -0.5478642, 0.005317848, -0.08114338, 0
384, 3500415128, 0.11313926, 0.6291308, -0.15419886, 0.75340885, -0.45600504, 0.24450289, -0.20716095, 0
385, 3500431795, 0.11317055, 0.62921405, -0.15407906, 0.75335914, -0.46134827, 0.4551357, -0.13453102, 0
386, 3500448462, 0.11326479, 0.6292618, -0.15410234, 0.75330037, -0.5971773, 0.31156254, 0.12490845, 0
387, 3500465129, 0.113356076, 0.6292947, -0.15404274, 0.7532714, -0.5100901, -0.05260383, 0.39935017, 0
388, 3500481796, 0.11352266, 0.62929684, -0.15388425, 0.75327677, -0.23631085, -0.05712245, 0.51929855, 0
389, 3500498463, 0.11366087, 0.6292462, -0.15371615, 0.7533326, 0.36183676, 0.031028274, 0.64887714, 0
390, 3500515130, 0.113867655, 0.62904984, -0.15375946, 0.7534566, 1.107838, -0.0013152619, 0.4714899, 0
391, 3500531797, 0.113924064, 0.62887084, -0.1539014, 0.75356853, 0.5491376, 0.81316036, -0.0015478134, 0
392, 3500548464, 0.11382209, 0.6287762, -0.15422377, 0.75359714, -0.16990952, 1.3703731, -0.49292755, 0
393, 3500565131, 0.11381166, 0.62881553, -0.15423954, 0.7535625, -0.2401089, -0.97465026, -0.94678783, 0
394, 3500581798, 0.11403495, 0.6289699, -0.15386918, 0.7534756, -0.11982914, -0.6960099, 0.27105427, 0
395, 3500598465, 0.114290744, 0.6290098, -0.1538116, 0.7534154, 0.13492152, 0.8524823, 0.6976042, 0
396, 3500615132, 0.11437799, 0.6289607, -0.15401688, 0.75340116, 0.4194052, 0.53878456, -0.009313583, 0
397, 3500631799, 0.1144417, 0.6289553, -0.15404934, 0.75338936, 0.42453048, -0.44171786, 2.3555756E-4, 0
398, 3500648466, 0.114607036, 0.62900466, -0.15384045, 0.7533657, 0.39306208, 0.014745625, 0.36405087, 0
399, 3500665133, 0.11487331, 0.6289983, -0.15377818, 0.7533431, 0.40269396, 0.83695185, 0.25643635, 0
400, 3500681800, 0.11514282, 0.62898046, -0.15382396, 0.7533074, 0.31571677, 0.18163389, -0.0037345886, 0
401, 3500698467, 0.115428194, 0.6290123, -0.1536774, 0.75326717, 0.12981284, -0.3784003, 0.1171875, 0
402, 3500715134, 0.11568567, 0.62906086, -0.15337478, 0.7532489, 0.027165223, 0.19661655, 0.19274521, 0
403, 3500731801, 0.11581406, 0.6290639, -0.15328445, 0.75324494, 0.042342033, 0.5858411, 0.020831108, 0
404, 3500748468, 0.11595286, 0.62927836, -0.15340593, 0.75301975, -2.5420692, 0.1136146, -3.510982, 0
405, 3500765135, 0.115743734, 0.62956405, -0.15362382, 0.7527685, -0.6384239, 0.3918107, 2.8404818, 0
406, 3500781802, 0.115936056, 0.62944585, -0.15348059, 0.7528671, -0.041177314, -1.8866398, 1.4219303, 0
407, 3500798469, 0.11588965, 0.62946624, -0.15343402, 0.7528667, 1.9954072, 0.50181276, -1.6610985, 0
408, 3500815136, 0.11581288, 0.6293197, -0.15373689, 0.752939, -0.37755436, 1.1590012, -0.30622196, 0
409, 3500831803, 0.11557647, 0.6294235, -0.15410766, 0.752813, -0.7545268, 0.06504761, 1.5955029, 0
410, 3500848470, 0.11544351, 0.6294523, -0.15408538, 0.75281376, 0.19063991, -1.1848923, -0.5229864, 0
411, 3500865137, 0.115392655, 0.6295318, -0.15400705, 0.7527711, -0.13851282, 0.080707565, 0.32464218, 0
412, 3500881804, 0.1151218, 0.6294621, -0.15439, 0.7527925, 0.20693246, 1.0598967, 0.91161346, 0
413, 3500898471, 0.11482099, 0.6292516, -0.15487976, 0.75291383, 0.2167766, -0.044104025, 0.012536049, 0
414, 3500915138, 0.11451465, 0.6291605, -0.155021, 0.7530074, 0.22129506, -0.45121536, -0.096385956, 0
415, 3500931805, 0.11429311, 0.6291148, -0.15497124, 0.75308955, -0.08576248, 0.35995504, 0.2798252, 0
416, 3500948472, 0.114105985, 0.62902266, -0.15522988, 0.7531417, -0.11421588, 0.7722508, 0.31892014, 0
417, 3500965139, 0.11389683, 0.6288781, -0.15557063, 0.7532237, -0.15951037, -0.10778602, 0.03077507, 0
418, 3500981806, 0.113769546, 0.62878877, -0.15569372, 0.7532921, -0.24999665, -0.22887655, -0.16078949, 0
419, 3500998473, 0.11363025, 0.62876683, -0.1556306, 0.7533445, -0.2954056, 0.546124, -0.0198946, 0
420, 3501015140, 0.113511406, 0.6287036, -0.1557965, 0.75338095, -0.3013123, 0.8315429, 0.032619476, 0
421, 3501031807, 0.1134637, 0.6285905, -0.15615149, 0.75340897, -0.2214966, 0.052465614, 0.14173412, 0
422, 3501048474, 0.11343828, 0.6285076, -0.1563308, 0.7534446, -0.25844917, -0.39876115, 0.15006828, 0
423, 3501065141, 0.11337538, 0.6284602, -0.15628043, 0.75350416, -0.33484486, 0.098647915, 0.24688053, 0
424, 3501081808, 0.11333616, 0.6283962, -0.15632519, 0.7535543, -0.3329985, 0.4548146, 0.061214447, 0
425, 3501098475, 0.11338131, 0.6283089, -0.15651207, 0.75358135, -0.27998975, 0.1763777, -0.036382675, 0
426, 3501115142, 0.11348476, 0.62823844, -0.1565846, 0.7536096, -0.27487952, -0.017517839, 0.10017872, 0
427, 3501131809, 0.11355923, 0.62820077, -0.1564863, 0.75365007, -0.2976965, 0.24579765, 0.16802979, 0
428, 3501148476, 0.11357845, 0.6281652, -0.15640362, 0.753694, -0.4256873, 0.4803308, -0.235178, 0
429, 3501165143, 0.11362298, 0.62815845, -0.15643235, 0.7536869, -0.58565366, -0.15432669, -0.522686, 0
430, 3501181810, 0.11376117, 0.62820554, -0.15638064, 0.7536375, -0.73090553, -0.2641377, 0.13385391, 0
431, 3501198477, 0.113919884, 0.62826157, -0.15626584, 0.75359076, -0.7679817, 0.46290755, 0.26261902, 0
432, 3501215144, 0.114018425, 0.6282914, -0.1561677, 0.7535712, -0.61411655, 0.47234473, -0.23118019, 0
433, 3501231811, 0.11409044, 0.6283342, -0.15606175, 0.7535465, -0.7944849, -0.12118848, -0.12582111, 0
434, 3501248478, 0.11422544, 0.6283742, -0.15601803, 0.7535019, -0.8853562, -0.2637916, 0.114289284, 0
435, 3501265145, 0.114350095, 0.6283981, -0.15599577, 0.7534677, -0.94048125, 0.11626222, -0.022296906, 0
436, 3501281812, 0.114436224, 0.6283978, -0.15597454, 0.7534591, -0.95074457, 0.31625775, -0.18378067, 0
437, 3501298479, 0.11454703, 0.6284349, -0.15581247, 0.753445, -1.0853024, -0.40936545, -0.9027796, 0
438, 3501315146, 0.11475232, 0.6285836, -0.1555921, 0.7533352, -1.6263361, 0.67199177, 0.2843647, 0
439, 3501331813, 0.11502935, 0.6285884, -0.1554194, 0.7533246, -1.3421662, 0.2564841, 0.9183998, 0
440, 3501348480, 0.11535086, 0.6285837, -0.15520315, 0.75332385, -1.0792392, 0.16375431, -0.5268593, 0
441, 3501365147, 0.11569605, 0.62865084, -0.15482968, 0.7532918, -1.2060269, -0.1201932, -0.6997919, 0
442, 3501381814, 0.116053864, 0.6287655, -0.15443441, 0.7532221, -1.8284093, 0.35184762, 0.22920132, 0
443, 3501398481, 0.116450295, 0.62886983, -0.1541345, 0.75313556, -1.8356417, 0.25780153, -0.1527319, 0
444, 3501415148, 0.11695078, 0.62900615, -0.15372667, 0.7530274, -1.8710922, 0.037567332, -0.3100834, 0
445, 3501431815, 0.117538065, 0.629178, -0.15317316, 0.75290525, -1.7015086, -0.027033556, 0.14637089, 0
446, 3501448482, 0.11822156, 0.6293326, -0.15251666, 0.7528022, -1.6334583, 0.39980426, 0.14615536, 0
447, 3501465149, 0.11893383, 0.6294962, -0.1518506, 0.7526878, -1.6310676, 0.5025053, -0.7555027, 0
448, 3501481816, 0.119744495, 0.6296804, -0.15111184, 0.75255394, -1.9423182, -0.051324245, -0.39683247, 0
449, 3501498483, 0.12061389, 0.6299767, -0.15027456, 0.7523348, -2.1950538, -0.09544079, -0.7375355, 0
450, 3501515150, 0.1215412, 0.6303424, -0.14939512, 0.7520544, -2.2242374, 0.2232907, 0.08848286, 0
451, 3501531817, 0.12247838, 0.6306064, -0.14855887, 0.75184655, -2.2278514, 0.4867943, -0.2801752, 0
452, 3501548484, 0.123453155, 0.63085914, -0.1477001, 0.7516443, -2.7246811, -0.31617236, -0.29912758, 0
453, 3501565151, 0.124464154, 0.6312592, -0.14681828, 0.7513142, -3.1545193, -0.10260851, -0.73485565, 0
454, 3501581818, 0.12545732, 0.6317333, -0.14603412, 0.7509035, -3.6723533, 0.31159827, -0.20031929, 0
455, 3501598485, 0.12643862, 0.63211846, -0.14531119, 0.75055486, -3.9920647, 0.3903171, -0.41234684, 0
456, 3501615152, 0.12745833, 0.63246584, -0.1445312, 0.7502403, -4.266414, -0.117675185, -1.0465155, 0
457, 3501631819, 0.12856865, 0.63276064, -0.1437132, 0.7499593, -4.738018, 0.020367898, -0.1156044, 0
458, 3501648486, 0.12966678, 0.63307124, -0.14300545, 0.7496434, -5.1990147, 0.39296162, -0.5324116, 0
459, 3501665153, 0.13074288, 0.6333364, -0.14239308, 0.7493489, -4.433489, 0.4620438, -0.8338089, 0
460, 3501681820, 0.13176145, 0.63364726, -0.14187571, 0.74900585, -5.3555145, 0.1650982, 0.29906464, 0
461, 3501698487, 0.1327878, 0.63409144, -0.14142722, 0.74853337, -4.33177, -0.27724788, -0.44774532, 0
462, 3501715154, 0.13396035, 0.63433605, -0.14095667, 0.7482057, -3.5716407, 0.3253928, -1.089035, 0
463, 3501731821, 0.1351263, 0.6344678, -0.14066881, 0.7479386, -4.10246, 0.99450344, -1.0805178, 0
464, 3501748488, 0.13626474, 0.6345605, -0.14063072, 0.74766064, -3.681966, 1.1254479, -1.8029499, 0
465, 3501765155, 0.13734892, 0.63472855, -0.1407694, 0.7472935, -4.6103163, 0.7772041, 0.28677654, 0
466, 3501781822, 0.13854745, 0.63512814, -0.14092867, 0.74670243, -4.35703, -0.12411877, -3.6239624E-4, 0
467, 3501798489, 0.13999459, 0.6355846, -0.14110646, 0.7460101, -2.020975, 1.2662212, -3.4172502, 0
468, 3501815156, 0.1415376, 0.63589233, -0.14141391, 0.74539834, -3.065607, 1.8668479, -0.34174156, 0
469, 3501831823, 0.14310408, 0.636476, -0.14184533, 0.7445186, -3.3997016, 1.6942703, -1.5623741, 0
470, 3501848490, 0.14481848, 0.63713884, -0.14221582, 0.74354863, -2.0395732, 1.0463856, -2.7393227, 0
471, 3501865157, 0.1468449, 0.63774306, -0.14265092, 0.7425491, -1.9389836, 1.8109101, -1.4968004, 0
472, 3501881824, 0.14900193, 0.63858277, -0.14320408, 0.74129045, -1.2812619, 1.0988514, -0.39850903, 0
473, 3501898491, 0.15141553, 0.6396233, -0.14346421, 0.7398526, 0.67047334, -1.4468108, 0.3216648, 0
474, 3501915158, 0.15388362, 0.6400965, -0.14409286, 0.7388112, -0.024596259, 2.556299, 6.966833, 0
475, 3501931825, 0.15574788, 0.6398113, -0.14558318, 0.73837525, 1.8813763, 0.6951042, 2.9366426, 0
476, 3501948492, 0.15717532, 0.63936025, -0.14693852, 0.73819494, 1.3158092, -1.7198985, -1.1793556, 0
477, 3501965159, 0.15831704, 0.6391498, -0.148218, 0.7378774, 1.0276585, -0.3450459, -0.4886179, 0
478, 3501981826, 0.15933259, 0.6388683, -0.15003386, 0.7375355, 1.9024364, -0.017252482, 0.081783295, 0
479, 3501998493, 0.16036648, 0.6383575, -0.1519192, 0.7373676, 2.4780436, -1.3807169, 2.061903, 0
480, 3502015160, 0.16127352, 0.6379063, -0.15327509, 0.7372797, 2.0466938, -0.311275, 1.6718292, 0
481, 3502031827, 0.16195568, 0.6373619, -0.15434463, 0.737378, 3.056533, 0.7508078, 0.96557045, 0
482, 3502048494, 0.16264446, 0.6365416, -0.15555666, 0.7376803, 2.1111276, 0.78433424, 1.5296383, 0
483, 3502065161, 0.16335657, 0.635846, -0.15690576, 0.737837, 1.7971103, -0.7705221, -0.1962719, 0
484, 3502081828, 0.16405983, 0.6353682, -0.15799506, 0.73785996, 1.542169, -1.2674774, 0.36672974, 0
485, 3502098495, 0.1645941, 0.63490206, -0.1588837, 0.73795164, 1.3833269, -0.41551474, -0.3190527, 0
486, 3502115162, 0.16482627, 0.6344947, -0.15991728, 0.7380267, 1.5727053, -0.098775074, 0.25482845, 0
487, 3502131829, 0.16493887, 0.63404226, -0.16092484, 0.73817134, 1.1486667, -0.8419923, 0.17146015, 0
488, 3502148496, 0.16493085, 0.6337316, -0.16181827, 0.7382447, 0.5319152, -1.3573898, 0.14696121, 0
489, 3502165163, 0.16479, 0.6334591, -0.16248894, 0.7383627, 0.9778521, -1.1508157, 0.19058514, 0
490, 3502181830, 0.16437691, 0.63318723, -0.16310298, 0.73855263, 0.49916512, -0.51953536, -0.21399975, 0
491, 3502198497, 0.16363707, 0.6329541, -0.16394015, 0.73873127, 0.45664397, -0.8456111, 0.076171875, 0
492, 3502215164, 0.16274182, 0.6327722, -0.16481243, 0.73889077, -0.12398958, -1.9066759, -1.1832123, 0
493, 3502231831, 0.16182785, 0.63265264, -0.16530164, 0.7390846, 0.62419146, -1.399531, -0.2859764, 0
494, 3502248498, 0.16084863, 0.6324631, -0.16534732, 0.7394503, -0.012916989, -0.9575758, 0.9051628, 0
495, 3502265165, 0.1597298, 0.6324702, -0.16510043, 0.73974186, -0.26264423, -0.5670795, 0.08964443, 0
496, 3502281832, 0.15857448, 0.6324806, -0.16481316, 0.74004555, 0.12574947, -0.13924308, -0.27134895, 0
497, 3502298499, 0.15738045, 0.6325769, -0.16445851, 0.740297, -0.623341, -0.78478986, -0.3214512, 0
498, 3502315166, 0.15623024, 0.6327421, -0.16368245, 0.7405712, -0.77243316, -1.4633085, -0.04149723, 0
499, 3502331833, 0.15525502, 0.6329303, -0.16244741, 0.74088734, -1.1135082, -0.7161776, -0.3371725, 0
500, 3502348500, 0.15445994, 0.6333192, -0.16082606, 0.7410751, -1.5193473, -0.41142094, -0.1308136, 0
501, 3502365167, 0.15378645, 0.63380325, -0.15903455, 0.7411881, -1.2333804, 0.32844526, -0.43937588, 0
502, 3502381834, 0.15322044, 0.634267, -0.15733841, 0.7412706, -1.0481886, 0.099035636, 0.6489067, 0
503, 3502398501, 0.15270045, 0.63474953, -0.15535256, 0.74138355, -0.63546807, -0.5157863, -0.08114624, 0
504, 3502415168, 0.15229398, 0.6351378, -0.15320954, 0.7415807, -0.20676492, 0.20811445, 0.7780514, 0
505, 3502431835, 0.15206873, 0.6354598, -0.1513264, 0.7417377, -0.9121916, 0.20627812, -0.34208393, 0
506, 3502448502, 0.15196241, 0.63581127, -0.14950044, 0.7418284, -0.22900216, 0.5138578, -0.5904627, 0
507, 3502465169, 0.15191787, 0.6361114, -0.14753902, 0.7419728, -0.77267474, -0.2861211, 1.0469666, 0
508, 3502481836, 0.15198684, 0.6365678, -0.14541738, 0.7419862, 0.20705055, 0.032928098, -0.8025265, 0
509, 3502498503, 0.15221475, 0.6369324, -0.1434435, 0.74201095, -0.439989, 1.3515978, 0.8623066, 0
510, 3502515170, 0.1525549, 0.6373201, -0.14168793, 0.74194545, -0.29963893, 1.0696889, -1.3812952, 0
511, 3502531837, 0.15303254, 0.63769764, -0.13999675, 0.74184364, -0.39131156, 0.8585159, 0.29632664, 0
512, 3502548504, 0.15360676, 0.63812244, -0.13820814, 0.74169517, -0.941605, -0.12014073, -0.5405474, 0
513, 3502565171, 0.15428367, 0.638542, -0.13647142, 0.7415149, -0.21972553, 0.8858214, 0.9969559, 0
514, 3502581838, 0.15500374, 0.6387576, -0.13500795, 0.74144715, -0.2535441, 0.1865965, 0.17381191, 0
515, 3502598505, 0.1557739, 0.6389556, -0.13372664, 0.7413473, -0.10157775, 0.13672209, 0.16525364, 0
516, 3502615172, 0.15645087, 0.6390837, -0.13255818, 0.7413041, -0.9303795, 0.30189008, -0.27774715, 0
517, 3502631839, 0.15701848, 0.63928235, -0.13164604, 0.74117535, -1.3195535, 0.18527868, -0.4135332, 0
518, 3502648506, 0.15753974, 0.639438, -0.13108523, 0.74103, -1.3469112, 0.48705223, -0.11873722, 0
519, 3502665173, 0.15789714, 0.63959336, -0.13079292, 0.74087125, -1.8826083, 0.5050183, -0.5907459, 0
520, 3502681840, 0.15808079, 0.63969487, -0.13074121, 0.7407535, -1.2579345, 0.3269728, 0.4307022, 0
521, 3502698507, 0.15809669, 0.6397048, -0.13098255, 0.740699, -1.543873, 0.11022937, -0.89322186, 0
522, 3502715174, 0.15806703, 0.6396416, -0.13151014, 0.7406665, -0.97764444, 0.4594764, 0.7008381, 0
523, 3502731841, 0.15786551, 0.639492, -0.13226631, 0.74070406, -1.8371911, -0.17209052, -0.12479496, 0
524, 3502748508, 0.15752904, 0.63935375, -0.13311392, 0.74074316, -1.4285386, -0.35429218, -0.14289951, 0
525, 3502765175, 0.15698881, 0.6390842, -0.13420063, 0.74089444, -2.4564614, 0.008980053, 0.2652607, 0
526, 3502781842, 0.15615582, 0.6387662, -0.13568221, 0.7410747, -2.9568264, -0.08980716, 0.31798267, 0
527, 3502798509, 0.15507568, 0.6383783, -0.13734342, 0.7413298, -2.588029, -1.2010617, 0.022417068, 0
528, 3502815176, 0.15377672, 0.63789934, -0.1389849, 0.7417066, -2.775379, -1.3998883, -0.098026276, 0
529, 3502831843, 0.15218858, 0.6373406, -0.14078353, 0.74217504, -3.0474727, -0.39701068, -0.5934143, 0
530, 3502848510, 0.15024523, 0.63676256, -0.14303836, 0.74263614, -4.921174, -0.19495414, -1.4686775, 0
531, 3502865177, 0.1478109, 0.636267, -0.14568356, 0.7430349, -7.207893, -0.39328855, -0.23116112, 0
532, 3502881844, 0.14493445, 0.6357779, -0.14835817, 0.74349093, -6.099008, -1.1503404, -1.2546244, 0
533, 3502898511, 0.14198372, 0.6349701, -0.1508749, 0.74424374, -5.179609, -0.8383224, 0.015434265, 0
534, 3502915178, 0.13928752, 0.6340737, -0.15313071, 0.7450563, -5.303569, -0.6049236, -1.5622787, 0
535, 3502931845, 0.13689864, 0.63334334, -0.15544567, 0.74564064, -5.230826, 1.6129495, -0.70351887, 0
536, 3502948512, 0.13468868, 0.6327409, -0.15777434, 0.74606526, -6.3503084, 2.0590322, 0.63417244, 0
537, 3502965179, 0.13265409, 0.63234794, -0.15957797, 0.7463793, -5.7881637, 1.2626551, -2.5207357, 0
538, 3502981846, 0.13117498, 0.6320436, -0.16061883, 0.7466754, -5.444261, 0.12293838, -1.3023243, 0
539, 3502998513, 0.13069044, 0.631993, -0.16077204, 0.74677, -4.788228, -0.54927593, -0.7326479, 0
540, 3503015180, 0.1311199, 0.632237, -0.1601478, 0.7466223, -4.2951994, 0.74768555, 2.836585, 0
541, 3503031847, 0.13222995, 0.63237643, -0.1589456, 0.7465654, -0.6623279, 2.0385342, -3.4772086, 0
542, 3503048514, 0.13353218, 0.63248223, -0.1577876, 0.74648964, -1.0885371, 3.1352837, 1.9594364, 0
543, 3503065181, 0.1347854, 0.6327558, -0.15657671, 0.7462876, -1.4480295, 0.24075119, -0.6945915, 0
544, 3503081848, 0.1364811, 0.63339204, -0.15473826, 0.74582285, 1.3401147, -0.6990657, -2.777866, 0
545, 3503098515, 0.13868909, 0.6342876, -0.152189, 0.74517876, -0.054018334, -0.760646, 2.0225859, 0
546, 3503115182, 0.14139496, 0.6353489, -0.14945397, 0.7443194, 3.5034797, 1.1256146, 0.89686394, 0
547, 3503131849, 0.1442908, 0.6361319, -0.14671905, 0.74363863, 6.9608884, 1.3667111, -2.8812199, 0
548, 3503148516, 0.14710398, 0.6367234, -0.1436071, 0.7431885, 6.979018, 0.2593537, -3.4955, 0
549, 3503165183, 0.14989628, 0.6372342, -0.14132136, 0.74263066, 4.5176797, 4.835277, 2.765005, 0
550, 3503181850, 0.15270089, 0.6377618, -0.14080709, 0.74170357, 3.6539316, 2.627663, 2.6997728, 0
551, 3503198517, 0.15615198, 0.6386898, -0.14002153, 0.7403337, 3.76673, -1.7365814, -2.0738654, 0
552, 3503215184, 0.1599842, 0.63994974, -0.13822612, 0.73876333, 1.2277017, 1.981135, 2.87574, 0
553, 3503231851, 0.16352959, 0.64099, -0.13718145, 0.73727864, 0.7041312, 6.248408, 2.2551384, 0
554, 3503248518, 0.16659276, 0.64136153, -0.13772544, 0.7361674, 0.9056145, 5.0324664, -1.6059303, 0
555, 3503265185, 0.16949314, 0.6413204, -0.13899657, 0.73530155, -1.8907473, 0.8499901, -0.58859444, 0
556, 3503281852, 0.17236038, 0.64149964, -0.13989472, 0.7343077, -2.7479353, -2.1291795, -1.6512547, 0
557, 3503298519, 0.17534488, 0.64160085, -0.14047368, 0.73340166, -1.211312, -1.8654643, -0.19692612, 0
558, 3503315186, 0.1780844, 0.6413805, -0.14198971, 0.73264205, -1.496843, 1.0502883, 3.2172174, 0
559, 3503331853, 0.18008639, 0.6408782, -0.14456524, 0.73208845, -0.014453548, -0.026743887, 3.1439323, 0
560, 3503348520, 0.181512, 0.6399772, -0.14716445, 0.7320066, 1.5873564, -0.82458735, 2.3104258, 0
561, 3503365187, 0.18224417, 0.6388804, -0.14957067, 0.73229504, 1.4782765, 0.9553903, 1.5426302, 0
562, 3503381854, 0.18255115, 0.63774866, -0.15209882, 0.73268414, 1.3728105, 0.62533045, 0.12541771, 0
563, 3503398521, 0.18293394, 0.6367799, -0.15489773, 0.73284495, -0.44872093, -0.18717901, -1.1200638, 0
564, 3503415188, 0.18332294, 0.6361117, -0.1575896, 0.7327541, 0.6630566, -0.4125186, -1.8513613, 0
565, 3503431855, 0.18358982, 0.6354089, -0.1600057, 0.73277336, 1.0210391, -0.568545, 0.42464924, 0
566, 3503448522, 0.18365228, 0.6347506, -0.16239572, 0.7328025, 1.2340552, -0.52688646, 0.042321205, 0
567, 3503465189, 0.18361908, 0.63413835, -0.16472144, 0.7328218, 1.3416171, -0.54492384, 1.2685347, 0
568, 3503481856, 0.18369086, 0.63352305, -0.16654868, 0.73292303, 1.4994209, -0.9670467, 0.66496277, 0
569, 3503498523, 0.183761, 0.63310325, -0.16756526, 0.7330366, 1.2099077, -1.7782363, 0.8029461, 0
570, 3503515190, 0.1837538, 0.63283676, -0.16795146, 0.73318, 0.9037433, -1.5909264, 0.1211853, 0
571, 3503531857, 0.18357469, 0.6327525, -0.16828658, 0.7332208, 0.7084964, -1.4090157, -0.5529957, 0
572, 3503548524, 0.18327677, 0.63274884, -0.16857144, 0.7332329, 0.34086862, -1.7759304, -0.030884743, 0
573, 3503565191, 0.18268505, 0.6329491, -0.16845402, 0.7332347, 0.38936245, -1.8851959, -1.839396, 0
574, 3503581858, 0.18182746, 0.633278, -0.16790694, 0.7332895, 0.76070136, -2.2990324, -1.7981863, 0
575, 3503598525, 0.18046986, 0.6335575, -0.16729249, 0.73352396, -0.5371094, -2.2314296, -0.20146751, 0
576, 3503615192, 0.17852864, 0.63377905, -0.16686147, 0.7339055, 0.37124488, -2.8178282, -0.30790424, 0
577, 3503631859, 0.17636363, 0.6337596, -0.1663295, 0.7345663, 1.0285085, -3.1980724, -0.45490456, 0
578, 3503648526, 0.17421773, 0.63358706, -0.16537593, 0.7354419, 0.53219306, -1.506948, 2.0881205, 0
579, 3503665193, 0.17196643, 0.6335104, -0.16443968, 0.7362475, -0.044870168, -0.020251324, 1.5790911, 0
580, 3503681860, 0.16955371, 0.63355994, -0.16387683, 0.7368895, -0.068816505, 0.11280517, 0.8159752, 0
581, 3503698527, 0.16690592, 0.63363343, -0.16335, 0.7375476, -1.0608432, -1.0578835, -0.6724186, 0
582, 3503715194, 0.16419715, 0.6337789, -0.16250615, 0.7382165, -1.0198518, -1.1964847, -0.06447792, 0
583, 3503731861, 0.16177653, 0.6339567, -0.16165593, 0.73878485, -1.4698912, -0.5770227, -0.26464748, 0
584, 3503748528, 0.15979104, 0.63434255, -0.16069336, 0.7390957, -1.3027191, 0.21075681, 1.31145, 0
585, 3503765195, 0.15817906, 0.63472044, -0.15943143, 0.7393912, -0.8107842, 0.6422627, -1.4465799, 0
586, 3503781862, 0.15692371, 0.6350379, -0.1581465, 0.7396621, -1.2704607, 1.3487731, 0.15144062, 0
587, 3503798529, 0.15579435, 0.6353438, -0.15688165, 0.73990744, -1.7544719, 0.57650286, 0.10988045, 0
588, 3503815196, 0.15491106, 0.6355977, -0.15542233, 0.74018264, -1.8750818, -0.54138416, -1.1986656, 0
589, 3503831863, 0.15430216, 0.63588566, -0.15365548, 0.7404314, -1.8569752, 0.0067436164, -1.0504618, 0
590, 3503848530, 0.1538945, 0.6361172, -0.15174268, 0.7407116, -1.9582806, 0.3109582, 0.44386482, 0
591, 3503865197, 0.1536147, 0.6364321, -0.15005238, 0.74084365, -1.9492114, -0.13175564, -0.41156006, 0
592, 3503881864, 0.1533991, 0.63682795, -0.14846332, 0.7408684, -1.1848251, -0.45078477, -0.8972359, 0
593, 3503898531, 0.15312363, 0.6372367, -0.14681134, 0.7409032, -1.2962381, -0.18538496, 0.14622688, 0
594, 3503915198, 0.1527425, 0.63777536, -0.14516291, 0.740843, -1.5548848, -0.57426125, 0.12614536, 0
595, 3503931865, 0.15232857, 0.6382478, -0.14362317, 0.74082154, -0.8441965, -0.4826594, -0.088807106, 0
596, 3503948532, 0.15188088, 0.6385554, -0.14214142, 0.740934, -0.7956502, -0.57870835, 0.6230993, 0
597, 3503965199, 0.15144749, 0.6387282, -0.14056635, 0.74117446, -0.24891283, -0.6717355, 0.6861067, 0
598, 3503981866, 0.15104283, 0.63887, -0.13894992, 0.7414394, -0.60101926, -0.14365448, 0.04549408, 0
599, 3503998533, 0.15063025, 0.63909566, -0.13739553, 0.7416185, 0.13638178, 0.44384974, 0.116233826, 0
600, 3504015200, 0.15017432, 0.6392503, -0.13588502, 0.7418559, -0.36584377, -0.06251591, 0.7202015, 0
601, 3504031867, 0.14973661, 0.639611, -0.13446164, 0.74189293, -1.3635857, -0.48690218, -0.53073597, 0
602, 3504048534, 0.14919111, 0.64020747, -0.13308121, 0.74173725, -1.4471892, 0.11680722, -1.0624466, 0
603, 3504065201, 0.14868844, 0.6408445, -0.13184729, 0.7415083, -1.9525815, -0.6429259, -0.89501095, 0
604, 3504081868, 0.1484514, 0.6414374, -0.1306325, 0.74125826, -0.95644635, -0.87045515, 1.4274168, 0
605, 3504098535, 0.14839014, 0.6419505, -0.12913232, 0.74108917, -0.9080183, -0.42458168, -0.77567387, 0
606, 3504115202, 0.14839461, 0.6424255, -0.12769164, 0.7409263, 0.15626346, 1.5974398, -0.5210972, 0
607, 3504131869, 0.14844836, 0.64268905, -0.12653959, 0.7408847, -0.95062965, 1.0889906, 0.27314472, 0
608, 3504148536, 0.1485591, 0.6429801, -0.12555057, 0.740778, -0.34240463, 0.6709599, 0.3414812, 0
609, 3504165203, 0.14870349, 0.643091, -0.124752454, 0.7407876, 0.04061576, 0.32965493, 0.31691742, 0
610, 3504181870, 0.14884798, 0.6432268, -0.1239553, 0.7407746, -0.3603269, 0.2356605, 0.042434692, 0
611, 3504198537, 0.14905043, 0.6434011, -0.123270005, 0.74069697, -0.09651076, 1.4802653, -0.11575127, 0
612, 3504215204, 0.14935449, 0.64351743, -0.12308491, 0.7405652, -0.97147065, 1.0685645, 0.29653168, 0
613, 3504231871, 0.14973307, 0.6435953, -0.12310366, 0.740418, -0.68109995, 0.42788652, -0.9451256, 0
614, 3504248538, 0.1500836, 0.64352435, -0.12308629, 0.74041176, -0.6909913, 0.53313047, -0.80405617, 0
615, 3504265205, 0.15041544, 0.64339554, -0.12315974, 0.74044406, -1.2949977, 0.7092947, 0.31294632, 0
616, 3504281872, 0.15087916, 0.64317936, -0.12338311, 0.74050033, -1.2597787, 0.49164194, 0.6283932, 0
617, 3504298539, 0.15146908, 0.6429745, -0.1235614, 0.7405281, -1.0770614, 0.4760324, 0.13901329, 0
618, 3504315206, 0.15210916, 0.64293176, -0.12362891, 0.7404228, -1.0817277, 0.23618408, 0.64407444, 0
619, 3504331873, 0.1525813, 0.64292264, -0.12390315, 0.7402876, -1.6019633, 0.6750319, 0.6000347, 0
620, 3504348540, 0.15269934, 0.6428435, -0.12460596, 0.74021417, -1.7613584, 0.20700698, -1.6437054, 0
621, 3504365207, 0.15255703, 0.64259374, -0.1256045, 0.7402914, -1.8242203, 0.26962274, -0.2525196, 0
622, 3504381874, 0.15227146, 0.64246, -0.12673283, 0.7402742, -3.258515, -0.7245376, 0.55830574, 0
623, 3504398541, 0.15207776, 0.64244896, -0.1277019, 0.7401568, -1.9967883, -0.38232094, -1.4723759, 0
624, 3504415208, 0.1520459, 0.6421133, -0.12849507, 0.7403173, -1.9302845, 0.8674609, 0.7002239, 0
625, 3504431875, 0.15222973, 0.64182216, -0.12919332, 0.7404105, -3.2442358, 0.41660237, -0.21042728, 0
626, 3504448542, 0.15248716, 0.6416973, -0.1297721, 0.7403646, -3.0382314, 0.45230377, -0.12506962, 0
627, 3504465209, 0.1527467, 0.6415166, -0.13029484, 0.7403758, -3.445018, 1.2708051, 0.45835876, 0
628, 3504481876, 0.15302789, 0.641427, -0.13088302, 0.7402918, -3.7233458, 1.2285924, -0.3568468, 0
629, 3504498543, 0.15348984, 0.6413159, -0.13126075, 0.7402254, -2.7264836, 0.4778992, -2.4715185, 0
630, 3504515210, 0.15429948, 0.64113647, -0.13141723, 0.7401848, -4.520375, 1.1800313, 0.9545803, 0
631, 3504531877, 0.15549655, 0.6412833, -0.13133508, 0.7398215, -3.4585874, 1.3723125, -2.4551873, 0
632, 3504548544, 0.15713865, 0.6412825, -0.13084723, 0.7395618, -2.2965455, 0.8670934, 0.44040108, 0
633, 3504565211, 0.15928483, 0.6412947, -0.12994964, 0.7392502, -2.715342, 0.5573364, 1.1322126, 0
634, 3504581878, 0.16172138, 0.6414314, -0.12866956, 0.7388266, 0.88779724, 0.48040986, -2.2299027, 0
635, 3504598545, 0.16422524, 0.64173144, -0.12744783, 0.7382253, 0.15752347, 1.0163832, -2.0628796, 0
636, 3504615212, 0.1666781, 0.6426066, -0.12666476, 0.73704773, 0.5016502, 1.5205315, -1.0582075, 0
637, 3504631879, 0.16910173, 0.64366835, -0.1259331, 0.73569345, 2.1427498, 0.67188275, -1.4450102, 0
638, 3504648546, 0.17175832, 0.64480174, -0.12480776, 0.734276, 5.1361003, 0.6096913, -5.0996695, 0
639, 3504665213, 0.17465144, 0.6460628, -0.12341476, 0.7327189, 4.958687, 1.4465888, 0.56517696, 0
640, 3504681880, 0.17782305, 0.6472851, -0.12233734, 0.7310561, 5.071789, 0.09245289, 1.8341513, 0
641, 3504698547, 0.18100436, 0.64798373, -0.12197467, 0.72971576, 3.6543527, 3.0253975, 10.499525, 0
642, 3504715214, 0.18339069, 0.64819, -0.121961206, 0.72893846, 3.731813, 1.6819263, 3.7705793, 0
643, 3504731881, 0.18501103, 0.64795506, -0.121737674, 0.7287753, 3.8581657, 0.53905106, 0.7942686, 0
644, 3504748548, 0.18636307, 0.6477032, -0.12180326, 0.7286437, -0.008682058, 0.18257773, -1.5072489, 0
645, 3504765215, 0.18794347, 0.6476891, -0.12262784, 0.7281118, 0.022507455, -0.5416309, 0.17334366, 0
646, 3504781882, 0.18986551, 0.6474847, -0.12382608, 0.727592, 1.0142161, -0.19128135, 0.6461706, 0
647, 3504798549, 0.19155926, 0.6471384, -0.1248505, 0.7272809, 1.9867667, 2.058202, 2.4323988, 0
648, 3504815216, 0.19278915, 0.64655644, -0.12601471, 0.72727287, 2.1616223, 3.472643, 0.250309, 0
649, 3504831883, 0.19382718, 0.6456832, -0.12817684, 0.7273948, 2.1748374, 2.8449807, 0.12348366, 0
650, 3504848550, 0.19508192, 0.64461905, -0.1312802, 0.72744983, 0.79712343, 0.8173584, 0.2518177, 0
651, 3504865217, 0.19656642, 0.6438227, -0.13412803, 0.72723585, 0.76772994, 0.38187772, 0.6177273, 0
652, 3504881884, 0.1981957, 0.6433184, -0.13625486, 0.72684455, 0.85823333, 1.7612902, -0.021911621, 0
653, 3504898551, 0.19991948, 0.6429262, -0.13836917, 0.7263198, 1.4899131, 2.7918253, -0.21223164, 0
654, 3504915218, 0.20167735, 0.6424739, -0.14096975, 0.72573364, 0.78775126, 1.9044461, -0.030786514, 0
655, 3504931885, 0.20342323, 0.64206797, -0.14362222, 0.7250854, 1.2743533, -0.01235412, -0.98843765, 0
656, 3504948552, 0.2050906, 0.6414783, -0.14577575, 0.72470754, 1.4649922, -0.32941508, 0.28188324, 0
657, 3504965219, 0.20663844, 0.6409517, -0.14785253, 0.7243131, 0.1537719, 0.15507635, 0.02262783, 0
658, 3504981886, 0.20803443, 0.64044595, -0.15015534, 0.723887, 0.03974378, 0.2677043, -0.22025967, 0
659, 3504998553, 0.20926084, 0.6398684, -0.15260269, 0.7235325, 0.50320095, -0.09618883, -1.9157143, 0
660, 3505015220, 0.21013889, 0.63923514, -0.15505955, 0.7233155, -0.1871645, -0.10525096, 0.3979206, 0
661, 3505031887, 0.21071687, 0.638962, -0.15715687, 0.7229359, -1.7719744, -0.2790105, -0.24958134, 0
662, 3505048554, 0.21107906, 0.6385949, -0.15954423, 0.7226314, -0.0048687197, 0.20074508, -0.18733215, 0
663, 3505065221, 0.21166001, 0.6379884, -0.1625386, 0.72233, -0.9902519, -0.528121, -0.22952175, 0
664, 3505081888, 0.21199779, 0.6374606, -0.16479489, 0.7221855, -1.0153508, -1.0271981, 0.7677345, 0
665, 3505098555, 0.2121508, 0.63692164, -0.16665646, 0.7221889, -0.57794815, 0.5459426, -1.1785555, 0
666, 3505115222, 0.21198086, 0.63638, -0.16883343, 0.7222104, -1.0724924, 2.4879718, 1.0732241, 0
667, 3505131889, 0.21174872, 0.6358502, -0.17137617, 0.7221464, -1.6787117, 0.5673737, 1.1094494, 0
668, 3505148556, 0.2117599, 0.6353584, -0.17350888, 0.72206676, -0.20496476, -1.4723043, 0.44007587, 0
669, 3505165223, 0.21192597, 0.635017, -0.17462958, 0.7220482, -0.15646105, -0.88516253, 0.42631817, 0
670, 3505181890, 0.21203123, 0.6346384, -0.17593446, 0.72203326, -0.86010075, 1.5501218, 0.5475311, 0
671, 3505198557, 0.21205178, 0.6341785, -0.17786065, 0.7219596, -0.6919351, 0.09582361, -1.3483934, 0
672, 3505215224, 0.21197122, 0.633839, -0.17934561, 0.72191393, -0.8753793, -2.096848, -0.2619686, 0
673, 3505231891, 0.21151547, 0.63390416, -0.18047737, 0.72170836, -5.351354, 3.7731946, -0.77440643, 0
674, 3505248558, 0.21088924, 0.6336794, -0.18184322, 0.7217462, -2.3297894, -0.40409815, 0.48768616, 0
675, 3505265225, 0.2109795, 0.63325906, -0.18209024, 0.7220264, -0.049440376, -5.9512043, 0.1946373, 0
676, 3505281892, 0.21166547, 0.63295907, -0.18144101, 0.72225213, 0.3211205, -1.0439304, 2.6469145, 0
677, 3505298559, 0.21204853, 0.6327074, -0.18147571, 0.7223514, -1.0323058, 2.7260435, -1.8497615, 0
678, 3505315226, 0.21183467, 0.63265806, -0.18214965, 0.72228795, 0.051114973, 0.5082829, -3.249041, 0
679, 3505331893, 0.21133447, 0.63295853, -0.18232356, 0.72212726, -1.9930862, -2.0587974, 2.3244696, 0
680, 3505348560, 0.21097875, 0.6333737, -0.18173952, 0.72201455, 0.87811387, -0.94577974, 0.5873022, 0
681, 3505365227, 0.21096665, 0.63335425, -0.18113954, 0.72218585, 2.230139, 1.220868, -0.9009218, 0
682, 3505381894, 0.21120815, 0.63315713, -0.18092139, 0.7223427, 1.1431736, 1.2181443, 0.20698643, 0
683, 3505398561, 0.21151213, 0.63306373, -0.18027171, 0.7224981, 0.47996014, -1.2787526, -0.8347254, 0
684, 3505415228, 0.21177696, 0.6333717, -0.17895071, 0.722479, 0.3457834, -1.6681348, -1.4118729, 0
685, 3505431895, 0.21210779, 0.6337295, -0.17761435, 0.7223979, -0.28684354, -0.29837042, 0.74654865, 0
686, 3505448562, 0.21247162, 0.6342138, -0.17680134, 0.7220653, 0.022968475, 0.27080488, -0.29082775, 0
687, 3505465229, 0.21287109, 0.63463855, -0.17626569, 0.72170526, 0.35898483, 0.108562775, 0.9101515, 0
688, 3505481896, 0.21321888, 0.63503647, -0.17560777, 0.7214131, 0.9301589, -0.34539843, 1.0216885, 0
689, 3505498563, 0.21356015, 0.6353206, -0.1747031, 0.7212813, 1.6946231, 0.2571156, 1.801384, 0
690, 3505515230, 0.21394908, 0.63545996, -0.17412679, 0.7211826, 0.40589848, 0.7373885, 0.9470148, 0
691, 3505531897, 0.21424498, 0.6357291, -0.17420575, 0.72083855, -2.3184974, 1.4895704, -2.3511863, 0
692, 3505548564, 0.21444046, 0.63588923, -0.17437308, 0.7205987, -2.1514473, -1.9857146, 1.1908607, 0
693, 3505565231, 0.21477488, 0.6357712, -0.17398804, 0.72069633, -0.7684449, -0.6697809, 0.36707878, 0
694, 3505581898, 0.21506563, 0.63537353, -0.17390166, 0.72098124, -0.9583463, 2.5208824, 0.5014677, 0
695, 3505598565, 0.21512005, 0.63506585, -0.17488459, 0.7209982, -3.3829181, 1.9550263, -1.1587381, 0
696, 3505615232, 0.21509424, 0.6350097, -0.17596944, 0.72079134, -0.63024074, -2.8482733, -1.967257, 0
697, 3505631899, 0.21507551, 0.63489974, -0.17621447, 0.720834, -1.4745687, -0.8008111, -0.24300575, 0
698, 3505648566, 0.21488886, 0.63451415, -0.17680106, 0.7210855, -1.4314765, 2.7702012, 2.8679771, 0
699, 3505665233, 0.21477456, 0.6337391, -0.17775293, 0.72156703, -2.1999426, -0.3450751, -0.2605362, 0
700, 3505681900, 0.21462119, 0.6334034, -0.17852813, 0.721716, -1.6441677, -0.73787665, -1.5278511, 0
701, 3505698567, 0.21421713, 0.6332007, -0.17931536, 0.72181875, -1.4174842, 1.6070346, -2.9546847, 0
702, 3505715234, 0.21337977, 0.63303906, -0.18054844, 0.7219011, -0.5214473, 1.4702595, -2.1313324, 0
703, 3505731901, 0.21251686, 0.6331348, -0.18166985, 0.7217903, -1.8017362, -1.9127233, 0.16940689, 0
704, 3505748568, 0.21185409, 0.63348746, -0.18236569, 0.7215002, -1.9244788, -1.3893036, 0.7686825, 0
705, 3505765235, 0.21140753, 0.63379395, -0.18300858, 0.7211991, -0.8554706, -0.059691623, 0.48667908, 0
706, 3505781902, 0.21116506, 0.6337687, -0.18362145, 0.7211366, -0.65686965, -0.12319193, 0.3071289, 0
707, 3505798569, 0.21105243, 0.6333253, -0.18408182, 0.72144175, 1.0472429, 0.27360383, 0.03774166, 0
708, 3505815236, 0.2108121, 0.6324216, -0.18437542, 0.7222293, 0.6863957, 1.0782484, 1.3220043, 0
709, 3505831903, 0.2102518, 0.63153756, -0.18506348, 0.7229897, -1.7689748, 1.6243438, 2.4104252, 0
710, 3505848570, 0.2095139, 0.6309402, -0.18625398, 0.7234197, -0.9760935, -0.6790325, -0.3114519, 0
711, 3505865237, 0.2088354, 0.63067067, -0.18688686, 0.7236876, -0.26046303, -2.357241, -0.3012991, 0
712, 3505881904, 0.20814632, 0.63060904, -0.18697995, 0.72391576, 1.222883, -1.6006206, -2.4824538, 0
713, 3505898571, 0.20771694, 0.6303708, -0.1868581, 0.72427803, 1.5718931, -1.7975641, -0.23488426, 0
714, 3505915238, 0.20727631, 0.629893, -0.18700951, 0.72478086, 1.2391999, 0.956943, 1.188407, 0
715, 3505931905, 0.20677832, 0.6293916, -0.18743145, 0.72524947, 1.1990256, 0.10802318, 0.19536781, 0
716, 3505948572, 0.20620023, 0.62913364, -0.1874753, 0.72562635, -0.3641084, -1.2328676, 0.7822161, 0
717, 3505965239, 0.20557834, 0.6292515, -0.18716045, 0.72578186, 0.18832043, -1.3911954, -1.9228144, 0
718, 3505981906, 0.20510145, 0.6293873, -0.18665674, 0.7259287, -0.098482646, 0.42932773, 0.89524746, 0
719, 3505998573, 0.2046783, 0.62952405, -0.1863875, 0.72599894, -0.09178811, 0.96971107, 0.50499916, 0
720, 3506015240, 0.2044517, 0.6297002, -0.1859093, 0.7260326, 1.3747138, -0.983256, -0.77230644, 0
721, 3506031907, 0.20429702, 0.6299705, -0.18475093, 0.72613734, 1.1182724, -0.90548825, 0.1428442, 0
722, 3506048574, 0.20404151, 0.6302512, -0.18327996, 0.72633815, 1.6816077, -0.34986183, 1.5864182, 0
723, 3506065241, 0.20404337, 0.6302558, -0.18189962, 0.7266805, 1.0300488, -1.292682, -0.58360577, 0
724, 3506081908, 0.20426081, 0.6303415, -0.18053722, 0.7268848, -0.16332307, -1.4903209, 0.7039547, 0
725, 3506098575, 0.2045475, 0.63063747, -0.17898135, 0.72693235, -1.7830628, -0.57161385, -1.506731, 0
726, 3506115242, 0.20449191, 0.6311596, -0.17746228, 0.7268673, -0.931524, -0.47142482, -2.2672787, 0
727, 3506131909, 0.20417759, 0.6315624, -0.1762001, 0.7269129, -1.7971917, 0.0062630004, 1.333683, 0
728, 3506148576, 0.20352833, 0.6321422, -0.17518626, 0.72683614, -2.5406852, -0.005279013, 3.8923464, 0
729, 3506165243, 0.2030057, 0.6326275, -0.17410997, 0.7268184, -0.5956107, -0.3949526, -0.6790724, 0
730, 3506181910, 0.20256716, 0.6328904, -0.17310068, 0.726953, -0.41232297, 0.26760444, 0.03655529, 0
731, 3506198577, 0.2021426, 0.63304186, -0.17217717, 0.72715867, -1.5932063, -0.2087304, 3.0206804, 0
732, 3506215244, 0.20180039, 0.6332976, -0.1713678, 0.72722226, -1.4733058, -0.46150592, -0.67867374, 0
733, 3506231911, 0.20125224, 0.6335576, -0.17078221, 0.7272855, -0.84753937, -0.64144695, -2.0544815, 0
734, 3506248578, 0.20038137, 0.63394046, -0.17064464, 0.7272245, -3.7674704, -0.0080758305, -3.4086385, 0
735, 3506265245, 0.19913335, 0.6343831, -0.17095941, 0.72710747, -2.6938765, 0.43068185, -3.099001, 0
736, 3506281912, 0.19776326, 0.6344748, -0.17140177, 0.72729725, -4.9750953, -0.53818756, 4.1382713, 0
737, 3506298579, 0.1963231, 0.6346212, -0.17183279, 0.7274578, -1.1964097, -0.20316458, 0.5648594, 0
738, 3506315246, 0.1949612, 0.6343235, -0.17220257, 0.7279962, 0.07330275, -0.96514034, 2.9343634, 0
739, 3506331913, 0.19387297, 0.6339509, -0.17212537, 0.72862947, 0.60435647, -2.2104232, 0.042951584, 0
740, 3506348580, 0.1931954, 0.6336775, -0.17120096, 0.7292648, 1.7822086, -1.8370044, -2.3463316, 0
741, 3506365247, 0.19255053, 0.63364357, -0.17024381, 0.72968876, -0.2055626, -0.009761628, -3.8448257, 0
742, 3506381914, 0.19172643, 0.63408977, -0.1700354, 0.7295665, -2.376101, -0.024960293, -0.21022415, 0
743, 3506398581, 0.19019192, 0.6346412, -0.17062265, 0.7293516, -0.95993114, 2.6076005, -1.4301939, 0
744, 3506415248, 0.18789771, 0.63512707, -0.17161877, 0.7292895, -0.5307409, 1.1283891, -2.740634, 0
745, 3506431915, 0.18536654, 0.63576496, -0.17248043, 0.7291783, 0.196781, -2.1894662, -4.7615895, 0
746, 3506448582, 0.18344156, 0.6363127, -0.1732999, 0.72899294, -1.8269128, -3.0730412, 2.300272, 0
747, 3506465249, 0.18169636, 0.6367909, -0.17505328, 0.72859335, -1.3568212, 0.2096221, 0.7816944, 0
748, 3506481916, 0.17953618, 0.63694596, -0.17756751, 0.7283849, 0.026355183, 0.044684563, 2.3206081, 0
749, 3506498583, 0.17740034, 0.63695014, -0.17953686, 0.7284219, -1.730754, -0.55002993, 4.8673105, 0
750, 3506515250, 0.17557788, 0.6371211, -0.18035811, 0.72851104, 0.734568, -0.0236953, 1.93295, 0
751, 3506531917, 0.17445198, 0.63729435, -0.1796412, 0.728807, 1.291663, -1.8268253, 0.8623476, 0
752, 3506548584, 0.1741635, 0.6378009, -0.1769921, 0.72908115, 1.5243711, -3.990349, -0.3484707, 0
753, 3506565251, 0.1744875, 0.6386078, -0.1727181, 0.72932225, 2.8366587, -3.1356976, 1.3754902, 0
754, 3506581918, 0.17516384, 0.6394218, -0.16821228, 0.7295, 2.8937142, -1.3346139, 2.238268, 0
755, 3506598585, 0.17567912, 0.640136, -0.16416012, 0.7296729, 4.4474688, -0.41911903, 3.2934341, 0
756, 3506615252, 0.17568171, 0.6405659, -0.16035758, 0.7301404, 4.9799314, -0.62090856, -0.1820879, 0
757, 3506631919, 0.17539145, 0.64096016, -0.15723817, 0.7305425, 4.1512117, -0.7534614, -0.32465458, 0
758, 3506648586, 0.17538683, 0.641234, -0.15460864, 0.7308645, 4.233437, 0.4993334, -2.5848203, 0
759, 3506665253, 0.17573588, 0.6415412, -0.15208809, 0.7310401, 1.5405924, 1.5652713, 1.8147316, 0
760, 3506681920, 0.17636716, 0.6422747, -0.14989026, 0.73069775, 0.8720668, 1.9115293, 0.57797337, 0
761, 3506698587, 0.17731538, 0.6429999, -0.14787437, 0.7302409, 2.8601265, 1.6786418, -3.4989023, 0
762, 3506715254, 0.1784189, 0.64348644, -0.14601122, 0.7299183, 2.0622754, 1.4038124, 1.6226759, 0
763, 3506731921, 0.17950575, 0.6438977, -0.14478794, 0.72953284, 0.65756845, 1.036538, 1.6958361, 0
764, 3506748588, 0.18045083, 0.64433515, -0.14410487, 0.7290486, 1.0382117, 0.5312917, -2.3604598, 0
765, 3506765255, 0.18129736, 0.64495707, -0.14333801, 0.72843945, -0.8679002, -0.49379286, -0.95878124, 0
766, 3506781922, 0.18225165, 0.6456174, -0.14257653, 0.72776556, -0.44470334, 0.80481887, 1.0402918, 0
767, 3506798589, 0.18320867, 0.64606184, -0.14192946, 0.7272572, 0.040917646, 1.3701338, -0.7326441, 0
768, 3506815256, 0.1841549, 0.64644897, -0.14134505, 0.7267878, -0.16597605, 0.1750788, 2.3680105, 0
769, 3506831923, 0.18528715, 0.64664507, -0.14077769, 0.7264356, -0.11827997, 0.05290055, -0.31425095, 0
770, 3506848590, 0.18630663, 0.6469562, -0.14036712, 0.7259773, -0.43388197, 0.9992301, 0.66636753, 0
771, 3506865257, 0.18732005, 0.6471941, -0.13999401, 0.7255763, -0.8426395, 0.06923235, -0.11557484, 0
772, 3506881924, 0.18832043, 0.64760596, -0.13964985, 0.725016, -0.4305894, -0.19403528, -0.39301014, 0
773, 3506898591, 0.18940774, 0.64791757, -0.13942444, 0.72449756, -0.7920057, 0.81223893, 0.8770447, 0
774, 3506915258, 0.19038758, 0.6482895, -0.13944319, 0.7239044, -0.5517466, 1.3549557, 0.46734715, 0
775, 3506931925, 0.19143859, 0.64845574, -0.1395965, 0.72344834, 0.53610986, 0.91557187, -1.2160835, 0
776, 3506948592, 0.19246157, 0.64844155, -0.13998474, 0.7231146, 0.06854316, 1.688623, -0.8334427, 0
777, 3506965259, 0.19348474, 0.648157, -0.14061578, 0.72297424, 0.55803645, 1.0090996, -0.720747, 0
778, 3506981926, 0.19445741, 0.6478578, -0.141494, 0.72281, -0.84497017, 0.3704687, 0.91883755, 0
779, 3506998593, 0.19541837, 0.64778167, -0.1426828, 0.72238535, -1.0339062, 0.33609542, 1.9289436, 0
780, 3507015260, 0.19641048, 0.6477747, -0.14410155, 0.7218407, -0.18296425, 1.3394538, -0.63251114, 0
781, 3507031927, 0.19725725, 0.6476453, -0.14557685, 0.72142977, 0.59814185, 1.8607641, 0.62619495, 0
782, 3507048594, 0.19806153, 0.64737624, -0.147225, 0.72111636, 0.17606589, 1.0149353, 0.37388897, 0
783, 3507065261, 0.19899139, 0.64719176, -0.1488526, 0.7206916, -0.2052305, 0.42152837, -0.929162, 0
784, 3507081928, 0.19994278, 0.6471721, -0.1503417, 0.72013664, -0.16610867, 0.81313175, 0.79031754, 0
785, 3507098595, 0.20096317, 0.64706516, -0.15189499, 0.7196226, -0.9447442, 1.1878055, 0.7670069, 0
786, 3507115262, 0.20184544, 0.6470381, -0.15337539, 0.7190859, 0.21848492, 0.9310134, -0.57234955, 0
787, 3507131929, 0.20271297, 0.6469388, -0.15462999, 0.71866244, -0.22597758, 0.44087794, 1.0367918, 0
788, 3507148596, 0.20365009, 0.64690626, -0.15577228, 0.71817976, -0.07002303, 0.046316117, 0.71449375, 0
789, 3507165263, 0.20474403, 0.6469148, -0.15671092, 0.7176568, 0.1459038, 0.12463256, -0.37857246, 0
790, 3507181930, 0.205769, 0.6470161, -0.1576275, 0.7170714, -0.40448534, 1.0927964, 1.2250099, 0
791, 3507198597, 0.20673269, 0.6471662, -0.15866825, 0.7164289, 0.16682966, -0.03790657, -0.06891155, 0
792, 3507215264, 0.20768422, 0.6471057, -0.15959653, 0.7160019, 0.6312196, 0.1587862, -0.98482704, 0
793, 3507231931, 0.20828053, 0.6470082, -0.16068515, 0.71567327, 0.12903163, 0.7134429, 1.4023142, 0
794, 3507248598, 0.20861052, 0.64678514, -0.16210304, 0.7154591, -0.47443926, -0.31374994, 0.4271326, 0
795, 3507265265, 0.2088733, 0.6464505, -0.16380858, 0.71529615, 0.3779371, -0.07593854, -2.0687222, 0
796, 3507281932, 0.2088544, 0.6460403, -0.16585429, 0.71520096, -0.3526825, 0.10642231, -0.6983099, 0
797, 3507298599, 0.20864968, 0.6457975, -0.16807301, 0.714962, -1.4831022, 0.32195878, 2.4785547, 0
798, 3507315266, 0.20841125, 0.6453878, -0.17037082, 0.7148577, -0.13539806, 1.6037571, -2.204237, 0
799, 3507331933, 0.20794919, 0.6449667, -0.17286101, 0.7147746, -0.56818557, 0.92278147, -0.21853733, 0
800, 3507348600, 0.20745073, 0.6444136, -0.17505483, 0.7148841, -0.293764, -1.1467106, 0.87519264, 0
801, 3507365267, 0.207093, 0.64384127, -0.17703143, 0.71501684, 0.06911002, 0.20998268, -0.6264181, 0
802, 3507381934, 0.2066799, 0.6433087, -0.17913565, 0.71509165, -1.1702361, 0.78326696, 1.6023111, 0
803, 3507398601, 0.20630114, 0.64297926, -0.18119316, 0.714979, -0.7885806, -0.3012839, -1.2106533, 0
804, 3507415268, 0.20600374, 0.6427588, -0.18293098, 0.7148205, -0.74054074, -0.29554963, 0.546175, 0
805, 3507431935, 0.20569229, 0.64259815, -0.18435514, 0.71468854, -0.6266129, -0.12668896, -0.62104607, 0
806, 3507448602, 0.20544024, 0.64224654, -0.1853729, 0.71481407, 1.1573012, -0.05474623, -0.4834299, 0
807, 3507465269, 0.20513596, 0.64158875, -0.18613248, 0.7152945, 0.3004203, -0.223235, 1.5152864, 0
808, 3507481936, 0.20480594, 0.6410771, -0.18690073, 0.71564734, -0.2263592, -0.9552729, 0.4302082, 0
809, 3507498603, 0.20447485, 0.6408074, -0.1873494, 0.71586627, 0.11590988, -0.57731986, -1.1918869, 0
810, 3507515270, 0.20408697, 0.6406258, -0.18771449, 0.71604383, -0.0805537, 0.1297985, 0.74576855, 0
811, 3507531937, 0.20371145, 0.64034444, -0.18823293, 0.71626633, 0.602893, -0.43262386, -0.9582548, 0
812, 3507548604, 0.20345078, 0.64001054, -0.18856366, 0.7165517, 0.15236099, -1.2379324, 1.4589806, 0
813, 3507565271, 0.20324403, 0.6396257, -0.18879387, 0.7168933, 0.33392704, -0.30158862, 0.053214073, 0
814, 3507581938, 0.20292225, 0.63935786, -0.18907839, 0.7171484, 0.6623145, 0.14251891, -1.1675434, 0
815, 3507598605, 0.20250781, 0.6391352, -0.1893653, 0.7173882, -0.74121994, -0.0740107, 1.1694155, 0
816, 3507615272, 0.20202658, 0.6390607, -0.18974906, 0.71748894, 0.5904205, -0.47135803, -0.8097849, 0
817, 3507631939, 0.20157708, 0.6389656, -0.18998122, 0.71763873, -0.12842976, -0.67591643, 1.0761337, 0
818, 3507648606, 0.20101556, 0.6390036, -0.18999812, 0.71775776, 0.22153749, -0.35660386, -1.6207047, 0
819, 3507665273, 0.20045596, 0.63902986, -0.18996462, 0.7178997, 0.6587654, -0.4143688, -0.45616913, 0
820, 3507681940, 0.19995417, 0.6389288, -0.18988846, 0.71814984, -0.14559366, -0.06963485, 2.1283197, 0
821, 3507698607, 0.19948289, 0.63877046, -0.18984, 0.7184344, 0.35270387, -0.2813229, 0.5305271, 0
822, 3507715274, 0.19907877, 0.6386156, -0.18974474, 0.71870935, -0.025349027, -0.48218238, -0.60899544, 0
823, 3507731941, 0.1985147, 0.6386683, -0.18957676, 0.7188627, -0.62679774, -0.03283612, 0.2882061, 0
824, 3507748608, 0.19794764, 0.63880396, -0.18945605, 0.7189305, -0.84602463, -0.39262247, -0.251503, 0
825, 3507765275, 0.19745913, 0.6390017, -0.18937871, 0.7189095, 0.051258944, -0.49265882, -2.5715652, 0
826, 3507781942, 0.19693461, 0.6392179, -0.18931925, 0.7188767, -0.6396485, -0.47798118, 1.8910389, 0
827, 3507798609, 0.19644168, 0.639424, -0.1890971, 0.71888685, -0.5343399, -0.39373842, 0.07864094, 0
828, 3507815276, 0.19615668, 0.6394138, -0.18885286, 0.71903795, 1.5102912, 0.5288856, -3.0351648, 0
829, 3507831943, 0.19592017, 0.6392049, -0.18859208, 0.71935666, -0.05942092, -0.25140306, 0.64816475, 0
830, 3507848610, 0.19572105, 0.6392021, -0.18820024, 0.7195158, -1.0636438, -0.6417284, 1.6768866, 0
831, 3507865277, 0.19555338, 0.6392704, -0.18755198, 0.71967, -1.1616201, 0.4205212, 0.14329815, 0
832, 3507881944, 0.1952642, 0.6397298, -0.18696825, 0.719492, -1.4761475, 0.12909867, 0.06381512, 0
833, 3507898611, 0.19517963, 0.6401713, -0.18619622, 0.7193227, -0.7331893, -1.0606258, -0.66550446, 0
834, 3507915278, 0.19516364, 0.64068913, -0.18519264, 0.719125, -0.7586492, -0.29004946, 2.609027, 0
835, 3507931945, 0.19511643, 0.641036, -0.18426625, 0.71906656, -0.89962816, 0.36880845, 0.13726616, 0
836, 3507948612, 0.19508326, 0.6413973, -0.18343885, 0.71896505, -0.80530643, -0.86298877, 0.18471909, 0
837, 3507965279, 0.19514506, 0.64180106, -0.18216261, 0.7189122, -1.7485209, -1.4097737, 0.74251556, 0
838, 3507981946, 0.19533035, 0.6422653, -0.18055023, 0.71885395, -1.1333064, 0.33900988, -2.4662852, 0
839, 3507998613, 0.19548646, 0.6427847, -0.17910218, 0.7187096, -2.46437, 1.0449162, -0.5995836, 0
840, 3508015280, 0.19581771, 0.64334136, -0.17748776, 0.71852195, -3.6481106, -1.0107048, 1.4438562, 0
841, 3508031947, 0.19639091, 0.64386094, -0.17562044, 0.71835893, -3.3101232, -0.6487441, -0.97182846, 0
842, 3508048614, 0.19684654, 0.6446219, -0.17377454, 0.7180006, -5.184627, -0.41773677, -1.1964293, 0
843, 3508065281, 0.1971672, 0.64559734, -0.17187406, 0.71749336, -6.1497107, -0.9392838, -0.92448044, 0
844, 3508081948, 0.19731073, 0.64654636, -0.17001002, 0.7170434, -4.2411647, -0.67093027, -1.3154335, 0
845, 3508098615, 0.19716802, 0.64721704, -0.16849849, 0.71683437, -3.7245772, 0.057655334, 1.2525291, 0
846, 3508115282, 0.19662784, 0.6474841, -0.1672561, 0.7170325, -0.060937673, -0.26837546, -3.353715, 0
847, 3508131949, 0.19583414, 0.647563, -0.16595699, 0.71748036, -1.0978942, -1.5433518, 0.30811787, 0
848, 3508148616, 0.19505458, 0.6478484, -0.16465288, 0.7177353, -1.1044447, -1.642942, 3.1927795, 0
849, 3508165283, 0.19451709, 0.64819175, -0.16351306, 0.7178318, -0.7996694, -0.50064, 2.3516874, 0
850, 3508181950, 0.19397119, 0.6488454, -0.16282429, 0.7175454, -0.63701344, -0.078047745, -2.1610017, 0
851, 3508198617, 0.19327919, 0.64943004, -0.16248737, 0.7172796, 1.2838223, -0.4659344, -3.4157028, 0
852, 3508215284, 0.19256431, 0.64987594, -0.16229635, 0.71711135, 0.78877306, 0.23780133, -0.5846214, 0
853, 3508231951, 0.19200131, 0.6503741, -0.16239189, 0.7167889, 3.104194, 1.8296227, 0.15632439, 0
854, 3508248618, 0.19191834, 0.6506313, -0.16280696, 0.7164836, 4.808547, 2.159147, 0.5616951, 0
855, 3508265285, 0.19227959, 0.65076333, -0.16356465, 0.71609396, 3.7305105, 4.275613, -0.13984966, 0
856, 3508281952, 0.19263089, 0.65080076, -0.16467443, 0.7157112, 5.1706257, 3.4174514, -0.70596313, 0
857, 3508298619, 0.19302641, 0.6507857, -0.16642472, 0.71521324, 0.58396214, 1.1859344, 2.999528, 0
858, 3508315286, 0.19353318, 0.65084815, -0.16887501, 0.71444476, 2.7569296, 0.6533235, -4.0386677, 0
859, 3508331953, 0.19425018, 0.6503133, -0.17164941, 0.71407586, 1.5002611, 0.8950888, 4.512212, 0
860, 3508348620, 0.19489062, 0.64965034, -0.17485148, 0.7137278, -0.2422054, 1.8268628, 4.550519, 0
861, 3508365287, 0.195283, 0.64887244, -0.17790034, 0.7135749, 2.6370156, 0.7476181, -0.8901596, 0
862, 3508381954, 0.19580221, 0.6480726, -0.1801089, 0.7136053, -0.22701845, 0.2396027, 1.0171461, 0
863, 3508398621, 0.1963167, 0.6477577, -0.18190849, 0.7132935, 0.3857537, -0.52167964, 0.9384117, 0
864, 3508415288, 0.19704758, 0.64764994, -0.18342534, 0.71280104, -0.18652415, -0.5780292, -1.3776026, 0
865, 3508431955, 0.19772926, 0.6477814, -0.18456714, 0.7121979, 1.8545653, -0.95187294, -0.44303036, 0
866, 3508448622, 0.19836302, 0.64762014, -0.18501145, 0.712053, 3.0941722, -1.636761, 2.733509, 0
867, 3508465289, 0.19883871, 0.647322, -0.18511781, 0.71216375, 3.240226, -1.0356443, 1.4307814, 0
868, 3508481956, 0.1990632, 0.64690965, -0.18515244, 0.71246666, 2.667336, -0.5742121, 0.9314089, 0
869, 3508498623, 0.19902071, 0.6467932, -0.1850958, 0.7125989, 0.68426895, -0.97814614, -1.0661087, 0
870, 3508515290, 0.19900547, 0.64695525, -0.1849624, 0.7124907, 1.6329931, -1.3277917, -2.4513245, 0
871, 3508531957, 0.19917488, 0.6470045, -0.18479268, 0.71244276, 0.8282921, -0.57819074, -0.502347, 0
872, 3508548624, 0.19933134, 0.64714515, -0.1848239, 0.712263, 1.3847065, 0.8609291, 0.9537773, 0
873, 3508565291, 0.19936277, 0.6471011, -0.18507184, 0.7122299, 1.7298366, 0.14896612, -1.7828226, 0
874, 3508581958, 0.19931519, 0.6471824, -0.18539982, 0.7120839, 1.1372839, -0.49288213, 1.7590446, 0
875, 3508598625, 0.19923504, 0.6473798, -0.18573265, 0.71184003, 0.5155421, 0.43147758, 1.2731209, 0
876, 3508615292, 0.199138, 0.64757806, -0.18641084, 0.7115096, 1.9736114, 1.064845, -1.7097721, 0
877, 3508631959, 0.19907255, 0.6476546, -0.18720457, 0.71124977, 0.68475217, 0.63816464, 1.6687355, 0
878, 3508648626, 0.19901544, 0.647827, -0.18777117, 0.71095955, 0.738052, -0.59690285, -0.30966854, 0
879, 3508665293, 0.19909568, 0.64803207, -0.18825434, 0.7106223, 0.9903401, -0.19309108, 0.777483, 0
880, 3508681960, 0.19921952, 0.6482267, -0.18885271, 0.7102513, -0.1276186, 0.36544263, 1.2633467, 0
881, 3508698627, 0.19947127, 0.64850384, -0.18943565, 0.7097721, 0.80790603, -0.067837566, -0.52218056, 0
882, 3508715294, 0.19984137, 0.6485818, -0.18987006, 0.70948064, 0.8224684, 0.3994473, -0.15435219, 0
883, 3508731961, 0.20012991, 0.64866185, -0.19022572, 0.70923084, 0.33862388, 0.116143495, 0.44591808, 0
884, 3508748628, 0.20042397, 0.6486845, -0.1905131, 0.7090498, 0.277571, -0.21189532, -1.4082146, 0
885, 3508765295, 0.20064685, 0.6488138, -0.19059205, 0.7088473, -0.36056575, -0.3602137, 0.31206036, 0
886, 3508781962, 0.20096777, 0.649092, -0.19041954, 0.70854807, 0.5960319, -0.39310777, -0.18332195, 0
887, 3508798629, 0.20147032, 0.64921725, -0.19016245, 0.70835966, 0.91344076, -0.09910007, 0.9535723, 0
888, 3508815296, 0.20193256, 0.64944404, -0.18992373, 0.708084, 0.2449997, 0.59332186, 2.3605347, 0
889, 3508831963, 0.20225255, 0.64994884, -0.18962187, 0.70761025, 0.017890295, -0.16175257, 0.5083456, 0
890, 3508848630, 0.20264967, 0.65046376, -0.18926582, 0.70711863, 0.7596796, -0.42548767, -1.6451521, 0
891, 3508865297, 0.20302686, 0.6510152, -0.18908511, 0.70655113, 0.51388884, -0.26536626, 1.302908, 0
892, 3508881964, 0.20342472, 0.65155184, -0.18922296, 0.70590484, 0.06205034, 0.43885997, 1.9299049, 0
893, 3508898631, 0.20382334, 0.65189266, -0.18956092, 0.7053844, 1.697624, 0.33735067, -3.272397, 0
894, 3508915298, 0.20408791, 0.6521899, -0.18981344, 0.70496505, 0.87712765, 0.073184915, 1.9279423, 0
895, 3508931965, 0.20443904, 0.6522341, -0.19008368, 0.7047497, 1.9510443, 0.42241728, -1.4322109, 0
896, 3508948632, 0.20478459, 0.6520504, -0.19059674, 0.70468074, 1.7946167, 0.9062779, 0.9577265, 0
897, 3508965299, 0.20501716, 0.65209955, -0.19117819, 0.7044102, -0.67464364, 0.6204829, 1.442688, 0
898, 3508981966, 0.20536394, 0.65232325, -0.19168925, 0.7039628, 1.2111657, 0.14272957, -1.9074769, 0
899, 3508998633, 0.20587067, 0.65257996, -0.19216155, 0.70344806, 0.08024156, 0.78961897, 1.887928, 0
900, 3509015300, 0.20654365, 0.6527731, -0.19289422, 0.7028707, 1.8498523, 0.80039865, 0.17729759, 0
901, 3509031967, 0.20742407, 0.65241885, -0.19376536, 0.7027005, 2.6432445, 0.95352614, -2.9006739, 0
902, 3509048634, 0.20824018, 0.65189946, -0.19464408, 0.70269835, 1.9275216, -0.033517864, 1.4738255, 0
903, 3509065301, 0.20910624, 0.6512703, -0.1954384, 0.70280427, 0.993927, 0.2893103, -0.18720531, 0
904, 3509081968, 0.2098492, 0.6508001, -0.19654486, 0.7027097, 0.017734792, 1.1194596, -0.73839855, 0
905, 3509098635, 0.21053725, 0.65041655, -0.19809389, 0.7024239, -0.3209786, 0.932276, -0.8248348, 0
906, 3509115302, 0.21115896, 0.64999646, -0.19963196, 0.7021908, -0.5012373, 0.19738221, 0.8003855, 0
907, 3509131969, 0.21175261, 0.6496406, -0.2011308, 0.7019136, 0.36034963, 0.8196261, -0.2269907, 0
908, 3509148636, 0.21231951, 0.6491144, -0.20279564, 0.7017501, 0.10190586, 0.7762419, 2.1336393, 0
909, 3509165303, 0.21287355, 0.64865947, -0.20439461, 0.7015389, -0.40901753, 0.06655771, 1.0702105, 0
910, 3509181970, 0.21341607, 0.64835435, -0.20572026, 0.7012686, 0.0125998445, -0.4901248, -1.3398886, 0
911, 3509198637, 0.21387722, 0.6480876, -0.2069228, 0.7010209, -0.5142507, 0.09213682, 0.2797947, 0
912, 3509215304, 0.21428773, 0.64776707, -0.20808151, 0.7008488, 0.24220552, -0.79593533, 0.63266945, 0
913, 3509231971, 0.21477455, 0.6472777, -0.20909555, 0.7008501, 0.52069455, -0.75029355, 0.143857, 0
914, 3509248638, 0.21513852, 0.64683414, -0.21002662, 0.70086956, 0.04948246, 0.10025472, -0.580533, 0
915, 3509265305, 0.21529438, 0.6464584, -0.2106482, 0.7009818, 0.21041454, -0.7341513, -1.661397, 0
916, 3509281972, 0.2154094, 0.6461454, -0.21098855, 0.7011327, 0.29973105, -1.2306904, -0.18443394, 0
917, 3509298639, 0.21553314, 0.6456755, -0.21141128, 0.7014002, 0.615785, -0.3766975, 1.2321758, 0
918, 3509315306, 0.21550839, 0.6451739, -0.2118836, 0.70172685, 0.28212985, -0.44458464, 1.6548004, 0
919, 3509331973, 0.21535923, 0.6449054, -0.21204448, 0.70197076, 0.55220824, -0.67031884, 0.29324532, 0
920, 3509348640, 0.21518588, 0.6448424, -0.21198945, 0.70209825, 0.2996633, 0.050548013, 0.71284866, 0
921, 3509365307, 0.21505454, 0.64499193, -0.21197437, 0.7020057, -0.13430913, 0.40095112, -0.04780388, 0
922, 3509381974, 0.2150488, 0.64521706, -0.21204531, 0.7017793, -0.17335685, -0.5541233, -2.627009, 0
923, 3509398641, 0.21523772, 0.645561, -0.21198612, 0.7014228, -0.2820891, -0.8465612, -0.19325542, 0
924, 3509415308, 0.2154418, 0.64608663, -0.21174434, 0.7009491, -0.6595096, 0.79833347, 2.8819685, 0
925, 3509431975, 0.21566032, 0.64660484, -0.2114535, 0.7004915, 0.18845823, 1.1652055, -1.9104152, 0
926, 3509448642, 0.21595457, 0.64710027, -0.21116485, 0.70003045, 0.66120404, 0.49390334, -1.6508408, 0
927, 3509465309, 0.21646823, 0.64749277, -0.21084589, 0.699605, -1.0186819, 0.10231208, 1.9119377, 0
928, 3509481976, 0.21708238, 0.64794713, -0.21035543, 0.6991415, -1.2369115, 0.54915774, -0.3631096, 0
929, 3509498643, 0.21788475, 0.6483583, -0.20980504, 0.69867593, -0.770666, 0.32799482, -1.3251085, 0
930, 3509515310, 0.21888876, 0.6486626, -0.20935643, 0.69821393, -1.0819024, 0.12015828, 1.2540894, 0
931, 3509531977, 0.21999255, 0.648698, -0.20904666, 0.69792694, -0.077527426, 0.8225274, 0.7398052, 0
932, 3509548644, 0.22092895, 0.64863807, -0.20908773, 0.6976744, -0.07094402, 1.6221141, 1.1615448, 0
933, 3509565311, 0.22165242, 0.6484287, -0.20955943, 0.697498, -1.2457845, 1.4335644, 1.9284, 0
934, 3509581978, 0.22216947, 0.6484357, -0.21023132, 0.69712484, -1.172513, 0.76961935, -3.8141952, 0
935, 3509598645, 0.22283791, 0.6486322, -0.21096432, 0.6965069, -2.863043, 0.49371564, 0.0041151047, 0
936, 3509615312, 0.2237173, 0.6488537, -0.21181875, 0.6957592, -3.4781384, 0.5575898, -0.13629532, 0
937, 3509631979, 0.22447148, 0.6490417, -0.2129829, 0.694985, -2.6100051, 0.904922, -0.6275406, 0
938, 3509648646, 0.22487752, 0.6489909, -0.21447773, 0.6944412, -2.3169434, 0.4345586, -0.06074524, 0
939, 3509665313, 0.22510427, 0.6487601, -0.21601586, 0.69410664, -1.8640487, 0.29910907, 0.5400343, 0
940, 3509681980, 0.22528546, 0.64807135, -0.21749029, 0.69423074, -0.8684453, 1.2757766, 2.4742832, 0
941, 3509698647, 0.22549285, 0.6473253, -0.21908075, 0.6943594, -2.5463247, 1.7270828, -0.007884979, 0
942, 3509715314, 0.22557268, 0.64697623, -0.22051194, 0.69420564, -3.1263595, 0.0974604, -3.0711532, 0
943, 3509731981, 0.2254729, 0.6470971, -0.22168413, 0.6937519, -4.9715624, -1.301999, -3.5852227, 0
944, 3509748648, 0.22535725, 0.6474012, -0.22272551, 0.69317216, -4.8052163, -1.053998, 1.7070904, 0
945, 3509765315, 0.22520089, 0.6474124, -0.2235049, 0.6929615, -2.281005, -0.051011357, 2.808797, 0
946, 3509781982, 0.2248959, 0.64734095, -0.2240343, 0.69295645, -0.8895556, 0.042152196, 1.2497663, 0
947, 3509798649, 0.22438388, 0.6473871, -0.22392742, 0.6931139, 0.49801934, -0.95085454, -0.6556797, 0
948, 3509815316, 0.22396828, 0.64750105, -0.22253886, 0.6935888, 0.7222324, -3.8701785, -0.28550434, 0
949, 3509831983, 0.22402674, 0.64800453, -0.21999663, 0.69391066, 0.11898226, -4.9089675, -4.2746863, 0
950, 3509848650, 0.22442164, 0.6488476, -0.21732895, 0.6938358, 0.3383429, -2.9249656, -2.7439451, 0
951, 3509865317, 0.22446778, 0.64992696, -0.21525083, 0.6934584, -1.0435054, -1.125026, 4.2855625, 0
952, 3509881984, 0.2237817, 0.6512024, -0.21363449, 0.6929833, 1.8690312, -1.2626976, 1.4886026, 0
953, 3509898651, 0.2225662, 0.6521498, -0.21231206, 0.6928903, 5.493691, -0.9056789, -4.165959, 0
954, 3509915318, 0.2212731, 0.65265304, -0.21137755, 0.6931162, 2.9669752, 0.2636206, 0.32215977, 0
955, 3509931985, 0.22016309, 0.6529822, -0.21086776, 0.6933151, 1.2154706, 0.302281, -2.3006911, 0
956, 3509948652, 0.21964258, 0.65319026, -0.21024653, 0.6934726, 1.9175394, -1.64289, -3.3880496, 0
957, 3509965319, 0.21939027, 0.6539212, -0.20963098, 0.69304997, -3.2501962, 0.50490123, 5.853592, 0
958, 3509981986, 0.21907163, 0.65508956, -0.20957696, 0.6920629, 1.9739627, 2.074393, -1.8912787, 0
959, 3509998653, 0.21903141, 0.6554179, -0.20962033, 0.6917515, 4.332999, 2.454119, 4.5102673, 0
960, 3510015320, 0.21933703, 0.6554847, -0.20918564, 0.6917231, 3.4440238, 1.158894, 5.9207687, 0
961, 3510031987, 0.22029005, 0.6552846, -0.208375, 0.6918544, 6.6654973, 0.62128097, -1.1685667, 0
962, 3510048654, 0.22203979, 0.6547859, -0.20730503, 0.6920887, 3.8964467, -0.37187433, 0.99872494, 0
963, 3510065321, 0.22435504, 0.6545177, -0.20622562, 0.69191813, 5.0648203, -0.51094085, 0.25671864, 0
964, 3510081988, 0.22686048, 0.65409815, -0.20535874, 0.6917557, 5.945875, 1.3148205, -1.292757, 0
965, 3510098655, 0.22898956, 0.653829, -0.20498928, 0.69141805, 4.2292595, 1.4357207, 0.2864275, 0
966, 3510115322, 0.23095033, 0.6536551, -0.2050295, 0.69091845, 3.9501824, 0.033158902, -0.8418951, 0
967, 3510131989, 0.23294717, 0.6535949, -0.20529576, 0.6902256, 2.5636947, 0.06533126, -2.0269752, 0
968, 3510148656, 0.23490933, 0.65361893, -0.20571679, 0.6894119, 2.2597692, 0.91184646, 0.2844906, 0
969, 3510165323, 0.23688522, 0.65358675, -0.20626707, 0.68860155, 1.3932439, 0.89761555, -0.6257334, 0
970, 3510181990, 0.23882326, 0.6534, -0.20694327, 0.6879061, 2.3524704, 0.5350557, 0.35965538, 0
971, 3510198657, 0.24062327, 0.6529292, -0.20771569, 0.687493, 1.0175257, 0.42315742, 1.452754, 0
972, 3510215324, 0.24216452, 0.65230113, -0.20888504, 0.6871936, 0.09705102, -0.4017662, 0.72171974, 0
973, 3510231991, 0.24360356, 0.65144926, -0.21014261, 0.68710953, -0.16504195, -1.0778288, -1.4594898, 0
974, 3510248658, 0.2448712, 0.65086246, -0.21143723, 0.6868178, -2.369347, 0.42704228, 2.9618301, 0
975, 3510265325, 0.2459766, 0.6505219, -0.21294372, 0.6862801, -1.4654047, 1.5486736, -2.1775432, 0
976, 3510281992, 0.2469408, 0.6504311, -0.21453194, 0.6855246, -1.2088406, 0.9106182, -1.8656783, 0
977, 3510298659, 0.24790804, 0.65042925, -0.21604009, 0.68470323, -0.7595795, 1.0135312, 1.6672459, 0
978, 3510315326, 0.24884683, 0.6500678, -0.21758957, 0.684215, 1.5026647, 0.7401469, -1.8366065, 0
979, 3510331993, 0.24986723, 0.64916533, -0.21905869, 0.6842313, 2.523796, -1.135135, -1.9023585, 0
980, 3510348660, 0.25103208, 0.648073, -0.22015807, 0.6844875, 0.65068096, -0.7653139, 3.9217138, 0
981, 3510365327, 0.25202733, 0.6474086, -0.22137958, 0.68435645, -0.89914984, 1.2401465, 2.3139486, 0
982, 3510381994, 0.2528996, 0.6470462, -0.22308365, 0.6838238, -1.0466073, 0.9123568, -3.380508, 0
983, 3510398661, 0.2537004, 0.6469923, -0.22486004, 0.68299586, -1.0542285, -0.24150038, -0.43918037, 0
984, 3510415328, 0.2544656, 0.6466498, -0.2265572, 0.68247455, 0.902156, 0.16620195, 0.4828186, 0
985, 3510431995, 0.2550858, 0.64583206, -0.22854325, 0.6823551, 2.1533241, 0.29454577, -3.2062416, 0
986, 3510448662, 0.25555915, 0.6444825, -0.23062444, 0.6827536, 1.7980409, -0.4434316, -1.1188049, 0
987, 3510465329, 0.25604102, 0.6427867, -0.23266298, 0.6834797, 1.0735221, -1.4660472, -1.3124609, 0
988, 3510481996, 0.25648436, 0.6411823, -0.23462701, 0.6841488, -0.18122865, -0.98989666, 2.9527168, 0
989, 3510498663, 0.2564857, 0.6404041, -0.23680805, 0.68412584, -2.7718458, 1.6350923, 8.197954, 0
990, 3510515330, 0.25609812, 0.6403991, -0.23943913, 0.68335944, -2.1467602, 2.3603113, -1.3802013, 0
991, 3510531997, 0.25572288, 0.6406352, -0.2421911, 0.68230796, -0.24578226, 0.25703824, -5.0132637, 0
992, 3510548664, 0.25558555, 0.64074457, -0.24425055, 0.68152195, 0.42543542, -1.0966209, 2.3960686, 0
993, 3510565331, 0.25580445, 0.6405688, -0.24560736, 0.6811174, 2.0109017, -0.7705498, 0.87820816, 0
994, 3510581998, 0.2562445, 0.64024746, -0.2465415, 0.6809167, 0.77281016, -0.70905966, -1.8503461, 0
995, 3510598665, 0.2567173, 0.6400385, -0.24694055, 0.68079066, 0.95031786, -1.2519488, -2.7385206, 0
996, 3510615332, 0.2572575, 0.6397792, -0.24664745, 0.6809366, 0.6169705, -2.2922227, 1.8185835, 0
997, 3510631999, 0.25773433, 0.6398756, -0.24613565, 0.6808507, -1.6915593, 0.16572413, 3.8801374, 0
998, 3510648666, 0.2578574, 0.63992655, -0.246494, 0.68062675, -0.10987081, 1.930337, 0.33211803, 0
999, 3510665333, 0.25788888, 0.63984597, -0.24740179, 0.68036103, 1.2214056, -1.830944, 0.13716984, 0
1000, 3510682000, 0.25780317, 0.64009845, -0.24777639, 0.68001974, 1.3974612, -3.0652213, -1.654666, 0
1001, 3510698667, 0.25773838, 0.64066786, -0.24750876, 0.6796053, 1.3265721, -1.4613959, -2.5575562, 0
1002, 3510715334, 0.2576048, 0.64121085, -0.24754104, 0.67913187, 0.95592636, 0.71675974, 2.005436, 0
1003, 3510732001, 0.25755736, 0.6413032, -0.24808899, 0.67886275, 1.850279, -0.17833012, -0.6415844, 0
1004, 3510748668, 0.25754392, 0.641184, -0.2483736, 0.67887634, 1.4209985, -1.514631, 0.37196445, 0
1005, 3510765335, 0.2574736, 0.6412536, -0.24812447, 0.67892843, 1.9574878, -1.109096, 1.0956202, 0
1006, 3510782002, 0.25737375, 0.6413106, -0.24808753, 0.67892593, 1.8296154, 0.08868623, -0.34785843, 0
1007, 3510798669, 0.2572644, 0.6416104, -0.24844815, 0.67855215, 1.0275283, -0.6831229, -0.9133129, 0
1008, 3510815336, 0.25733277, 0.6422099, -0.24864663, 0.67788607, 0.9112358, -0.87343675, -0.70928097, 0
1009, 3510832003, 0.25744736, 0.64321995, -0.24835935, 0.67698956, 0.6074398, 0.32219425, -1.3203888, 0
1010, 3510848670, 0.2575343, 0.6444576, -0.24797106, 0.6759209, 1.2699345, 0.71966785, -0.5273428, 0
1011, 3510865337, 0.25785273, 0.6452741, -0.24808477, 0.6749782, 2.2814066, -0.22727379, 0.6088438, 0
1012, 3510882004, 0.25853556, 0.64543927, -0.24822193, 0.67450845, 3.8707387, -1.4523032, 3.1444445, 0
1013, 3510898671, 0.25946385, 0.6449808, -0.24801007, 0.6746687, 3.7251089, -0.62501717, 2.861372, 0
1014, 3510915338, 0.26025757, 0.64445233, -0.24798249, 0.6748778, 3.456295, 0.032321315, -2.057455, 0
1015, 3510932005, 0.26097557, 0.6440842, -0.24834287, 0.6748197, 2.4752004, -0.9185438, -1.7280703, 0
1016, 3510948672, 0.26177084, 0.6440208, -0.24879017, 0.67440724, 1.0139141, -1.7365967, 0.84545135, 0
1017, 3510965339, 0.2626539, 0.6440373, -0.2490783, 0.6739417, 2.8687682, -0.46113467, 0.7096863, 0
1018, 3510982006, 0.26356202, 0.64362556, -0.24950269, 0.67382336, 3.4287555, 1.6933749, 0.89441776, 0
1019, 3510998673, 0.26426032, 0.64293975, -0.2504136, 0.6738666, 1.4578044, 0.8892189, 1.5273199, 0
1020, 3511015340, 0.26481086, 0.64236057, -0.25150248, 0.6737975, -0.23184651, -0.4536012, -0.8036413, 0
1021, 3511032007, 0.26529235, 0.6419776, -0.25259414, 0.67356485, -0.09893204, -0.67607665, -1.2258453, 0
1022, 3511048674, 0.26577556, 0.6415636, -0.25375405, 0.6733325, 0.08214143, -0.1664059, -0.11533642, 0
1023, 3511065341, 0.26664, 0.64093906, -0.2548645, 0.6731661, -0.224001, -0.80723006, 0.54635143, 0
1024, 3511082008, 0.26762256, 0.64016354, -0.25586137, 0.673136, -1.154218, 0.3566457, 0.8578987, 0
1025, 3511098675, 0.2683069, 0.6394809, -0.25672358, 0.67318416, -2.128996, -0.0836989, -0.39688492, 0
1026, 3511115342, 0.26871198, 0.6389093, -0.25773442, 0.6731791, -2.2700057, 1.1432829, -1.6317034, 0
1027, 3511132009, 0.26865977, 0.6382571, -0.25947368, 0.6731505, -2.667629, 1.7027605, -0.56034756, 0
1028, 3511148676, 0.2683186, 0.637412, -0.26161003, 0.67326033, -3.3137374, -0.40138143, 0.6022978, 0
1029, 3511165343, 0.26790777, 0.6366052, -0.26341024, 0.67348534, -3.456694, -0.65355235, 0.4352188, 0
1030, 3511182010, 0.26730207, 0.63576406, -0.26517186, 0.6738292, -2.8907824, 1.6178601, -1.3989439, 0
1031, 3511198677, 0.26651073, 0.6349027, -0.2673044, 0.6741122, -2.6514328, -0.09587689, -2.4961, 0
1032, 3511215344, 0.26581243, 0.63418895, -0.26920867, 0.6743019, -3.451205, -1.0778012, 0.69562626, 0
1033, 3511232011, 0.2652052, 0.6335701, -0.27059707, 0.6745669, -1.4425168, -0.40690455, 0.059624672, 0
1034, 3511248678, 0.2647298, 0.63270354, -0.2719648, 0.67501694, -1.1410725, 1.3615791, 1.2842789, 0
1035, 3511265345, 0.2641386, 0.63191384, -0.27370167, 0.67528623, -1.7232827, 1.7751669, 1.2928982, 0
1036, 3511282012, 0.2633747, 0.6312792, -0.2755589, 0.6754229, -2.3313284, 0.9382685, 0.11264229, 0
1037, 3511298679, 0.26242498, 0.6308704, -0.2772078, 0.67549986, -2.8823183, 1.0982372, -0.47036552, 0
1038, 3511315346, 0.26132903, 0.63033444, -0.27861965, 0.675844, -1.7847915, -0.39060637, -1.9919758, 0
1039, 3511332013, 0.26052707, 0.6299222, -0.27968624, 0.6760974, -3.629379, -3.0738165, -1.2179251, 0
1040, 3511348680, 0.25996482, 0.6299071, -0.28049392, 0.6759931, -2.8964806, -0.72767425, -0.5303459, 0
1041, 3511365347, 0.2593461, 0.6297079, -0.28155392, 0.6759758, -0.606664, 1.6612296, 1.1937695, 0
1042, 3511382014, 0.2584975, 0.6292867, -0.28274035, 0.6761978, -1.0972705, 0.9863952, 1.2441597, 0
1043, 3511398681, 0.25756264, 0.6288026, -0.28358978, 0.6766493, -0.74396807, -0.7706627, 0.7352743, 0
1044, 3511415348, 0.25664368, 0.6282374, -0.28424293, 0.6772489, -1.3056799, -0.3103867, 1.7258282, 0
1045, 3511432015, 0.25571725, 0.6277853, -0.2850874, 0.6776634, -1.9274948, 0.028479183, -0.557971, 0
1046, 3511448682, 0.25480285, 0.62745064, -0.28592232, 0.67796606, -2.8107712, 0.12197387, -1.9269757, 0
1047, 3511465349, 0.2538249, 0.6273553, -0.2866463, 0.67811555, -3.4976625, 1.0858318, -0.8546448, 0
1048, 3511482016, 0.2528607, 0.6271423, -0.28756303, 0.6782845, -0.9925599, 1.5900497, -1.2590685, 0
1049, 3511498683, 0.25221515, 0.62668806, -0.28843096, 0.6785761, -0.38694814, -0.48311487, 1.3344383, 0
1050, 3511515350, 0.25210866, 0.62627006, -0.28904164, 0.6787415, 0.980008, -0.8272616, 1.824832, 0
1051, 3511532017, 0.25226608, 0.62562656, -0.2898416, 0.6789354, 1.9246426, 3.168804, 1.1416206, 0
1052, 3511548684, 0.25202698, 0.62530935, -0.29097676, 0.6788309, -0.12726158, 3.6567824, -5.351371, 0
1053, 3511565351, 0.25208396, 0.6252531, -0.29161227, 0.678589, -2.2868652, 0.46568817, -0.42399406, 0
1054, 3511582018, 0.25284514, 0.6257659, -0.2915723, 0.6778498, -1.7365508, -2.0630474, -0.052755356, 0
1055, 3511598685, 0.25434312, 0.6262717, -0.2910893, 0.6770294, 4.319062, -0.8802088, 1.1908369, 0
1056, 3511615352, 0.25627035, 0.6260929, -0.29043782, 0.6767478, 6.7427883, -1.1820126, 3.0359612, 0
1057, 3511632019, 0.25824052, 0.6257959, -0.28939936, 0.6767183, 7.4107046, -1.84669, 2.9816284, 0
1058, 3511648686, 0.26011038, 0.62569475, -0.28811228, 0.6766448, 7.9228344, -3.0900986, -1.8593421, 0
1059, 3511665353, 0.26205805, 0.62576944, -0.2870349, 0.67628205, 7.7794256, -3.471591, -3.9697785, 0
1060, 3511682020, 0.2639935, 0.62618124, -0.2862193, 0.6754936, 6.025236, -0.8621656, -1.8571029, 0
1061, 3511698687, 0.2653975, 0.62725353, -0.2857284, 0.6741549, 3.1117601, 2.058761, -5.455702, 0
1062, 3511715354, 0.2667773, 0.6293121, -0.28489017, 0.67204314, -1.0284859, 0.74850434, -3.5032654, 0
1063, 3511732021, 0.26866928, 0.6320979, -0.28313598, 0.66941124, -3.584961, -0.8650162, -3.2178216, 0
1064, 3511748688, 0.27152157, 0.6349484, -0.28084248, 0.6665227, -2.366048, 0.3284076, 4.4954576, 0
1065, 3511765355, 0.27478895, 0.63667065, -0.27908123, 0.6642767, -0.9735236, 1.4612066, 7.1154404, 0
1066, 3511782022, 0.27748555, 0.6371394, -0.27845252, 0.6629688, 2.4998627, 0.71065146, 5.9812603, 0
1067, 3511798689, 0.278803, 0.63632953, -0.2787239, 0.6630798, 1.0913819, -3.131699, 1.9808245, 0
1068, 3511815356, 0.27924773, 0.63528425, -0.27940363, 0.6636086, -1.5401517, -3.7903872, 0.47979927, 0
1069, 3511832023, 0.27952278, 0.6341686, -0.2808734, 0.66393954, -0.68002355, -0.29214656, -1.6124039, 0
1070, 3511848690, 0.27980098, 0.6328795, -0.28328365, 0.6640284, 0.8911237, 1.8252989, -1.4049644, 0
1071, 3511865357, 0.28005153, 0.63172764, -0.28563178, 0.66401386, 2.6536987, 1.3786165, -0.23097897, 0
1072, 3511882024, 0.280239, 0.63068235, -0.28745538, 0.6641413, 4.150657, 1.2614586, 0.7536745, 0
1073, 3511898691, 0.2804551, 0.62931687, -0.28970757, 0.66436666, 5.2176223, -0.36404723, 2.183631, 0
1074, 3511915358, 0.28096664, 0.6275643, -0.2927031, 0.66449535, 2.908505, -3.3972218, 0.35814285, 0
1075, 3511932025, 0.281708, 0.62622297, -0.29521823, 0.6643342, 1.6480595, -3.349113, -1.6498404, 0
1076, 3511948692, 0.28240255, 0.6250849, -0.29692924, 0.6643486, 3.2360663, 0.5413955, -2.1042213, 0
1077, 3511965359, 0.28279388, 0.62385124, -0.29897997, 0.66442174, 3.0702817, 1.207599, 0.6892767, 0
1078, 3511982026, 0.28306752, 0.6227296, -0.30124205, 0.664336, 1.5446628, -2.4702508, 0.3775158, 0
1079, 3511998693, 0.28340667, 0.62185216, -0.30298918, 0.6642187, 1.7533056, -4.150566, -0.50113297, 0
1080, 3512015360, 0.2836182, 0.62106395, -0.30435848, 0.6642399, 1.6235785, -3.094074, 0.056679726, 0
1081, 3512032027, 0.28357732, 0.62025416, -0.3058201, 0.66434264, 1.7294481, -0.95056486, 0.05070591, 0
1082, 3512048694, 0.28335944, 0.6193682, -0.30749696, 0.6644882, 1.2244499, -0.38599452, -0.66521454, 0
1083, 3512065361, 0.28298765, 0.61848825, -0.30907243, 0.664735, 0.76064825, -0.897401, -0.54295635, 0
1084, 3512082028, 0.2826087, 0.61775196, -0.31030446, 0.6650068, 0.15484044, -2.029422, -0.08603096, 0
1085, 3512098695, 0.28230056, 0.6172992, -0.31120253, 0.66513854, -0.08329752, -1.1311435, 0.05613613, 0
1086, 3512115362, 0.28203362, 0.61689025, -0.31201914, 0.6652487, -0.19043164, -0.607155, 0.95151806, 0
1087, 3512132029, 0.2819258, 0.61652994, -0.31260353, 0.6653539, -0.33242047, -0.5300068, -0.043652534, 0
1088, 3512148696, 0.2819036, 0.616381, -0.31275618, 0.6654297, -0.42888743, -0.49193475, 0.46289253, 0
1089, 3512165363, 0.28200552, 0.616293, -0.3126787, 0.66550434, -0.59714884, -0.16603911, 0.18197823, 0
1090, 3512182030, 0.28215638, 0.6162917, -0.312491, 0.6655298, -0.28321448, -0.59965074, -0.61977386, 0
1091, 3512198697, 0.28239805, 0.6163432, -0.3122205, 0.6655064, -1.1620115, -1.207394, -0.08133316, 0
1092, 3512215364, 0.28259552, 0.6166154, -0.3117004, 0.66541445, -1.1782036, -0.5443642, 0.062330246, 0
1093, 3512232031, 0.2826093, 0.6169106, -0.31111223, 0.6654101, -0.6413456, 0.05864561, -0.31548405, 0
1094, 3512248698, 0.28241196, 0.6171725, -0.31079367, 0.66540015, -0.95013076, -0.7943708, 0.17903328, 0
1095, 3512265365, 0.28205323, 0.6175256, -0.31051487, 0.66535467, -1.4953997, -1.5461386, -0.46764088, 0
1096, 3512282032, 0.2816091, 0.6179648, -0.3101524, 0.6653041, -1.0119487, -1.4360397, -0.69403553, 0
1097, 3512298699, 0.28109896, 0.61837983, -0.3097211, 0.6653352, -0.37794894, -0.93229777, 0.41074467, 0
1098, 3512315366, 0.2803957, 0.618769, -0.3095014, 0.6653725, -0.2631222, -0.30158228, -0.50346375, 0
1099, 3512332033, 0.2795325, 0.6189878, -0.3095919, 0.6654899, -0.23275112, -0.54970205, -0.20119858, 0
1100, 3512348700, 0.2784299, 0.6191286, -0.30984467, 0.6657036, -0.83087826, -1.4058307, 0.23768997, 0
1101, 3512365367, 0.27718297, 0.61926615, -0.3102415, 0.6659111, -0.29784682, -1.2243764, -0.07923889, 0
1102, 3512382034, 0.27582026, 0.6193182, -0.31067455, 0.66622657, -0.12383028, -1.3162823, 0.71281624, 0
1103, 3512398701, 0.2745917, 0.61928654, -0.31100428, 0.6666095, 0.7364571, -1.5034165, -0.47544575, 0
1104, 3512415368, 0.27353346, 0.61923134, -0.31108746, 0.6670569, 0.6110963, -0.43605757, -0.249403, 0
1105, 3512432035, 0.2725548, 0.6192972, -0.31093752, 0.6674662, 0.07332583, -0.68422747, 0.40864944, 0
1106, 3512448702, 0.2717497, 0.6194413, -0.31073558, 0.6677547, -0.2693573, -0.46674594, -0.27230453, 0
1107, 3512465369, 0.2710755, 0.61968386, -0.31042373, 0.6679487, -0.6180137, -0.52666664, 0.24305534, 0
1108, 3512482036, 0.27057552, 0.62006617, -0.30980456, 0.6680839, -0.330519, -0.65475416, 0.3169155, 0
1109, 3512498703, 0.27030638, 0.6205782, -0.30897757, 0.6681006, -0.18668948, 0.017694235, -0.09017944, 0
1110, 3512515370, 0.2702083, 0.6211428, -0.30793893, 0.66809493, 0.41097012, 0.01755628, 0.37387085, 0
1111, 3512532037, 0.27032262, 0.62169135, -0.3066613, 0.66812634, -1.0913024, -0.7975589, -0.3707819, 0
1112, 3512548704, 0.2704731, 0.622525, -0.3052528, 0.66793406, -2.0496488, 0.9684982, -1.3348484, 0
1113, 3512565371, 0.2705366, 0.62337184, -0.30394053, 0.6677169, -2.5013626, 1.2025392, -0.6204729, 0
1114, 3512582038, 0.27076864, 0.6241391, -0.302665, 0.66748554, -2.8647032, -0.655017, 0.7872143, 0
1115, 3512598705, 0.27121025, 0.62491053, -0.30107683, 0.66730255, -2.803706, -1.2884834, 0.5173254, 0
1116, 3512615372, 0.27163595, 0.62570065, -0.29939747, 0.66714483, -1.6780609, 0.543801, -0.04785633, 0
1117, 3512632039, 0.27177954, 0.6263682, -0.29804823, 0.6670637, -1.3170125, 1.3115152, 0.8823147, 0
1118, 3512648706, 0.27185327, 0.626896, -0.29693514, 0.6670344, -2.7622383, 1.2228271, -0.18586826, 0
1119, 3512665373, 0.27188018, 0.6273798, -0.29597104, 0.6669972, -2.4773815, 2.5364788, -1.8913012, 0
1120, 3512682040, 0.2721485, 0.62768227, -0.2951104, 0.6669844, -3.816224, 2.1446304, 0.5187435, 0
1121, 3512698707, 0.27278346, 0.62816083, -0.29407138, 0.6667334, -5.036576, 1.0924858, 0.24143791, 0
1122, 3512715374, 0.27392673, 0.62884676, -0.29253638, 0.66629326, -4.377379, -0.012926096, -0.66638374, 0
1123, 3512732041, 0.27550176, 0.62935656, -0.29080486, 0.66592026, -2.8600209, 1.5604913, -0.36897182, 0
1124, 3512748708, 0.27715984, 0.62937486, -0.2897802, 0.6656616, -3.0198321, 4.5584044, 0.16483402, 0
1125, 3512765375, 0.27852488, 0.62915224, -0.28979707, 0.6652949, -4.0604515, 5.189481, 0.6577673, 0
1126, 3512782042, 0.279664, 0.6289496, -0.29030794, 0.6647857, -5.9226985, 3.7272072, -1.7111769, 0
1127, 3512798709, 0.28094083, 0.6289118, -0.29064983, 0.6641334, -4.9529667, 1.9449251, 0.28539276, 0
1128, 3512815376, 0.28279135, 0.6285364, -0.29079467, 0.6636398, -3.2997124, 0.68143135, -0.9423475, 0
1129, 3512832043, 0.2850008, 0.6277549, -0.2914865, 0.6631307, -0.068928376, 2.7536438, -0.010158539, 0
1130, 3512848710, 0.2869121, 0.6265788, -0.29333806, 0.66260207, 0.17463504, 4.7310843, 3.3714304, 0
1131, 3512865377, 0.28858227, 0.62532145, -0.2958657, 0.66194046, 1.6430807, 3.1358566, -5.55294, 0
1132, 3512882044, 0.29050308, 0.6246223, -0.29817387, 0.6607233, 1.0260061, 1.8914737, -4.4171624, 0
1133, 3512898711, 0.29313642, 0.6245934, -0.3000635, 0.6587292, 1.4380463, 3.0702853, -0.5670452, 0
1134, 3512915378, 0.29650563, 0.62432045, -0.3019064, 0.6566348, 5.4688516, -0.6436595, -2.7911577, 0
1135, 3512932045, 0.3000602, 0.6230748, -0.30449337, 0.6550066, 6.5950303, 2.190711, 8.067112, 0
1136, 3512948712, 0.3029375, 0.6209979, -0.30799398, 0.6540171, 6.633342, -0.6386726, 5.521595, 0
1137, 3512965379, 0.3053701, 0.61888826, -0.31088957, 0.6535153, 5.900758, -3.1606069, 0.041083336, 0
1138, 3512982046, 0.3076393, 0.6177508, -0.31284904, 0.65259147, 2.4314675, -2.1487722, -7.169611, 0
1139, 3512998713, 0.30996, 0.61749834, -0.315005, 0.65069234, 1.8929205, 1.7291014, -7.0193806, 0
1140, 3513015380, 0.31223708, 0.6172748, -0.31805328, 0.6483288, 1.3366832, 1.9179928, -2.622148, 0
1141, 3513032047, 0.3141652, 0.61736387, -0.32113996, 0.6457858, 1.5783451, -3.3963957, 5.483986, 0
1142, 3513048714, 0.31575748, 0.61733633, -0.32334977, 0.64393014, 2.8389592, -8.211534, 6.73094, 0
1143, 3513065381, 0.31695575, 0.6162642, -0.32530925, 0.6433814, 4.6368027, -6.144527, 7.428013, 0
1144, 3513082048, 0.31742764, 0.61420566, -0.32801068, 0.64374554, 3.1878579, -3.4426115, 1.2922621, 0
1145, 3513098715, 0.31721377, 0.61207765, -0.33124048, 0.6442238, 0.31755278, -2.080213, -5.237358, 0
1146, 3513115382, 0.3162933, 0.61048454, -0.334603, 0.6444506, -1.335669, -0.19507831, -3.5448818, 0
1147, 3513132049, 0.3149333, 0.60897744, -0.3381741, 0.6446782, 0.27197948, -0.9087132, 0.19883347, 0
1148, 3513148716, 0.3134704, 0.6072831, -0.34145337, 0.6452608, 0.8918242, -3.941646, 2.9189768, 0
1149, 3513165383, 0.31203485, 0.6057935, -0.34374726, 0.64613825, 1.5397135, -4.4817924, 1.0285006, 0
1150, 3513182050, 0.31067064, 0.6043513, -0.34538126, 0.6472738, 1.8826538, -2.1166537, -0.4341755, 0
1151, 3513198717, 0.30938777, 0.6030022, -0.3468957, 0.64833575, 0.9784092, -1.5300162, -1.0599308, 0
1152, 3513215384, 0.30819297, 0.60209167, -0.34810108, 0.6491044, 0.3896776, -2.175225, -1.4928312, 0
1153, 3513232051, 0.3071381, 0.60171205, -0.34849736, 0.6497435, 0.40308237, -2.929421, -0.661109, 0
1154, 3513248718, 0.30613187, 0.6017578, -0.34824282, 0.65031236, 0.84456486, -2.2393134, 0.09907246, 0
1155, 3513265385, 0.3050692, 0.6019028, -0.3478626, 0.6508807, 1.8870778, -2.3064797, 1.4871264, 0
1156, 3513282052, 0.303999, 0.60200244, -0.34749448, 0.65148556, 1.4687319, -2.8973625, 0.16875553, 0
1157, 3513298719, 0.3028263, 0.60229594, -0.3467821, 0.6521398, 1.0528028, -3.4088118, -1.7112923, 0
1158, 3513315386, 0.30153692, 0.6027316, -0.3457772, 0.65286785, 0.7313592, -2.7260585, -0.9712887, 0
1159, 3513332053, 0.3001421, 0.60324275, -0.34489578, 0.6535044, -0.012469375, -2.3949034, 0.49172115, 0
1160, 3513348720, 0.29864496, 0.6037186, -0.34424165, 0.6540955, 0.32371745, -2.2795951, -0.038599014, 0
1161, 3513365387, 0.29689223, 0.6039215, -0.3437689, 0.6549541, 0.7804157, -2.1485791, -0.29941654, 0
1162, 3513382054, 0.2947725, 0.6039283, -0.34337318, 0.6561121, 0.75310636, -2.0770755, -0.1847086, 0
1163, 3513398721, 0.29260257, 0.6038221, -0.34293056, 0.65741116, 0.28058073, -2.12988, 1.2033272, 0
1164, 3513415388, 0.29061204, 0.60390645, -0.3424723, 0.65845466, -0.80947745, -0.6787379, 0.7424965, 0
1165, 3513432055, 0.28893387, 0.6040402, -0.34200168, 0.65931463, -0.17754051, 0.43371835, -0.25534534, 0
