sep=,
DeviceTag:,Xsens_DOT_5,,,,,,,,,,,,,,,,,
FirmwareVersion:,3.0.0,,,,,,,,,,,,,,,,,
AppVersion:,2023.6.1,,,,,,,,,,,,,,,,,
SyncStatus:,Synced,,,,,,,,,,,,,,,,,
OutputRate:,60Hz,,,,,,,,,,,,,,,,,
FilterProfile:,General,,,,,,,,,,,,,,,,,
Measurement Mode:,Sensor fusion Mode - Extended (Quaternion),,,,,,,,,,,,,,,,,
StartTime:,2025-05-05 12:05:01.049 +0200,,,,,,,,,,,,,,,,,
 2025,,,,,,,,,,,,,,,,,,,

PacketCounter,SampleTimeFine,Quat_W,Quat_X,Quat_Y,Quat_Z,FreeAcc_X,FreeAcc_Y,FreeAcc_Z,Status
1, 3494048334, -0.59782606, -0.23602493, -0.30674708, 0.70200163, -0.010256786, 0.07545932, -0.070329666, 0
2, 3494065001, -0.5978386, -0.23601685, -0.30669406, 0.70201683, -0.012812433, 0.07248738, -0.0819788, 0
3, 3494081668, -0.59784085, -0.23600827, -0.3066333, 0.70204437, -0.002319841, 0.06360732, -0.07386589, 0
4, 3494098335, -0.59783834, -0.23598255, -0.3065791, 0.70207876, -0.01101606, 0.061653815, -0.07673454, 0
5, 3494115002, -0.5978384, -0.23595439, -0.30650797, 0.7021191, 0.001069286, 0.054631595, -0.08186817, 0
6, 3494131669, -0.5978307, -0.23591717, -0.30643076, 0.702172, -0.020158857, 0.051184356, -0.06635189, 0
7, 3494148336, -0.5978256, -0.23588553, -0.30635095, 0.7022219, -0.038008153, 0.059853192, -0.0752821, 0
8, 3494165003, -0.5978325, -0.23585449, -0.30625167, 0.7022697, -0.035424568, 0.06779684, -0.084303856, 0
9, 3494181670, -0.5978411, -0.23582348, -0.30615088, 0.7023166, -0.036716472, 0.06990323, -0.09387684, 0
10, 3494198337, -0.59785247, -0.23579744, -0.3060503, 0.7023595, -0.035675127, 0.043005235, -0.08801746, 0
11, 3494215004, -0.59785914, -0.23577605, -0.3059504, 0.7024046, -0.031872947, 0.053023644, -0.09105396, 0
12, 3494231671, -0.5978649, -0.23578373, -0.30587253, 0.702431, -0.041807204, 0.04672315, -0.10894394, 0
13, 3494248338, -0.5978731, -0.23578312, -0.30579457, 0.7024582, -0.027046632, 0.047046237, -0.111190796, 0
14, 3494265005, -0.5978852, -0.23579761, -0.30573267, 0.70247006, -0.01640205, 0.0432283, -0.08002758, 0
15, 3494281672, -0.59789884, -0.23580745, -0.3056921, 0.7024728, -0.02966464, 0.050688267, -0.08735561, 0
16, 3494298339, -0.59790176, -0.23582262, -0.30565333, 0.70248204, -0.040154103, 0.05577967, -0.07688236, 0
17, 3494315006, -0.59790736, -0.23583926, -0.3056083, 0.7024912, -0.02271942, 0.068199836, -0.08255291, 0
18, 3494331673, -0.59791076, -0.23586032, -0.30556348, 0.7025009, -0.017952338, 0.057292182, -0.080877304, 0
19, 3494348340, -0.59790814, -0.23586796, -0.30552697, 0.7025163, -0.013402061, 0.05642216, -0.07690239, 0
20, 3494365007, -0.5979154, -0.2358553, -0.30549753, 0.7025271, -0.01996753, 0.056070797, -0.08725929, 0
21, 3494381674, -0.5979114, -0.23584157, -0.3054719, 0.7025463, -0.028789362, 0.074912935, -0.107990265, 0
22, 3494398341, -0.59792304, -0.2358408, -0.30544877, 0.7025468, -0.053332426, 0.031660274, -0.08787441, 0
23, 3494415008, -0.5979413, -0.23585218, -0.30542484, 0.7025379, -0.031829137, 0.073192, -0.091594696, 0
24, 3494431675, -0.59795105, -0.23586877, -0.30539706, 0.70253605, -0.027041268, 0.07394591, -0.088887215, 0
25, 3494448342, -0.5979531, -0.23588459, -0.305364, 0.7025433, -0.019994576, 0.050534043, -0.06912422, 0
26, 3494465009, -0.5979524, -0.23589112, -0.30533838, 0.7025528, -0.014962404, 0.03962136, -0.07247925, 0
27, 3494481676, -0.59795153, -0.23590718, -0.3053223, 0.70255536, -0.02391231, 0.06035498, -0.072730064, 0
28, 3494498343, -0.5979547, -0.23591617, -0.30528364, 0.70256627, -0.037123043, 0.07253465, -0.10370445, 0
29, 3494515010, -0.5979683, -0.23593234, -0.30526516, 0.7025574, -0.034853715, 0.032119595, -0.09910393, 0
30, 3494531677, -0.59797454, -0.23599285, -0.3052776, 0.70252633, -0.06389766, 0.05071073, -0.115576744, 0
31, 3494548344, -0.59797615, -0.23606989, -0.30530423, 0.7024874, -0.019151485, 0.036687415, -0.07928085, 0
32, 3494565011, -0.5979831, -0.23614247, -0.30533168, 0.7024452, -0.011839928, 0.07676217, -0.08469868, 0
33, 3494581678, -0.59799004, -0.2361899, -0.3053504, 0.7024153, -0.008424426, 0.081164934, -0.0741539, 0
34, 3494598345, -0.5980104, -0.23622018, -0.3053321, 0.7023957, -0.02819996, 0.06574287, -0.07369232, 0
35, 3494615012, -0.59802043, -0.23625192, -0.3053071, 0.7023873, -0.020260332, 0.053982627, -0.09440327, 0
36, 3494631679, -0.59802204, -0.2362871, -0.30529562, 0.702379, -0.043531384, 0.057329286, -0.0751791, 0
37, 3494648346, -0.5980324, -0.23631272, -0.30527928, 0.70236874, -0.033342768, 0.060804576, -0.07856178, 0
38, 3494665013, -0.598047, -0.23633322, -0.30526185, 0.70235705, -0.010705824, 0.069275826, -0.08367729, 0
39, 3494681680, -0.598053, -0.23633486, -0.30523872, 0.70236146, -0.020917907, 0.07538086, -0.07791519, 0
40, 3494698347, -0.59805256, -0.23633885, -0.30521634, 0.70237005, -0.027710913, 0.06323573, -0.08940506, 0
41, 3494715014, -0.5980527, -0.23635502, -0.3051945, 0.70237404, -0.020380583, 0.04073412, -0.09299755, 0
42, 3494731681, -0.59806705, -0.23636459, -0.3051791, 0.7023654, -0.04043975, 0.07022777, -0.09500313, 0
43, 3494748348, -0.5980823, -0.23638971, -0.30515882, 0.7023527, -0.01573777, 0.063125536, -0.070160866, 0
44, 3494765015, -0.59808826, -0.23640904, -0.3051414, 0.7023487, -0.017929316, 0.086467326, -0.091454506, 0
45, 3494781682, -0.5980844, -0.23641051, -0.3051394, 0.70235234, -0.0072491956, 0.08185749, -0.08482742, 0
47, 3494815016, -0.5980887, -0.2363803, -0.30510485, 0.70237386, -0.050383843, 0.06800706, -0.09251213, 0
48, 3494831683, -0.59809196, -0.23636326, -0.30507755, 0.70238864, -0.032346796, 0.052369084, -0.075099945, 0
49, 3494848350, -0.5981104, -0.23635133, -0.30504817, 0.70238984, -0.035423897, 0.059895884, -0.078650475, 0
51, 3494881684, -0.5981256, -0.23632737, -0.30499217, 0.70240927, -0.024719192, 0.03525984, -0.071105, 0
52, 3494898351, -0.5981269, -0.23632003, -0.30495954, 0.70242476, -0.024537252, 0.068847135, -0.11110306, 0
53, 3494915018, -0.5981342, -0.23630592, -0.30492544, 0.7024381, -0.032015994, 0.05757783, -0.09192753, 0
55, 3494948352, -0.5981494, -0.23629783, -0.30483457, 0.7024673, -0.035098016, 0.06909277, -0.093170166, 0
56, 3494965019, -0.5981516, -0.23630169, -0.3047838, 0.7024861, -0.017310407, 0.047678217, -0.079527855, 0
57, 3494981686, -0.5981611, -0.23630223, -0.30472428, 0.7025037, -0.028789138, 0.061489865, -0.09002018, 0
59, 3495015020, -0.5981844, -0.23625763, -0.30456713, 0.702567, 0.0017961501, 0.09621227, -0.09140968, 0
60, 3495031687, -0.59819293, -0.2361914, -0.3044943, 0.7026136, -0.0014890434, 0.050604004, -0.073542595, 0
62, 3495065021, -0.5982077, -0.23613468, -0.30439562, 0.7026628, -0.052551024, 0.051636968, -0.07688236, 0
63, 3495081688, -0.5982174, -0.236139, -0.3043709, 0.7026637, -0.016084664, 0.06515771, -0.088030815, 0
64, 3495098355, -0.5982355, -0.2361249, -0.30434564, 0.70266414, -0.009273105, 0.043068375, -0.087706566, 0
67, 3495148356, -0.59823793, -0.23607029, -0.3042918, 0.70270365, -0.02807792, 0.052953348, -0.07430935, 0
68, 3495165023, -0.5982373, -0.23605278, -0.30427316, 0.70271826, -0.03818227, 0.06072702, -0.08669758, 0
70, 3495198357, -0.5982548, -0.2360171, -0.30421612, 0.7027399, -0.030265667, 0.08372438, -0.08938122, 0
71, 3495215024, -0.5982642, -0.23601885, -0.30418238, 0.702746, -0.041091517, 0.06286101, -0.07966232, 0
72, 3495231691, -0.59826225, -0.23602033, -0.30415928, 0.70275706, -0.01206277, 0.07298424, -0.09812546, 0
74, 3495265025, -0.5982526, -0.23600145, -0.3041249, 0.70278645, -0.023430416, 0.05726279, -0.08322716, 0
75, 3495281692, -0.59825206, -0.23597802, -0.30410463, 0.7028037, -0.005748977, 0.06978343, -0.07995319, 0
76, 3495298359, -0.59825003, -0.23595327, -0.30409345, 0.70281845, -0.030583724, 0.050232638, -0.099084854, 0
78, 3495331693, -0.59827596, -0.23591387, -0.30406174, 0.7028235, -0.019642541, 0.062355198, -0.07011509, 0
79, 3495348360, -0.5982831, -0.23590647, -0.30406547, 0.7028181, -0.029279526, 0.06638033, -0.09404278, 0
82, 3495398361, -0.59827554, -0.23590323, -0.30411994, 0.7028022, -0.030317297, 0.059323467, -0.08503628, 0
83, 3495415028, -0.59826654, -0.23591243, -0.3041932, 0.70277506, -0.036757823, 0.03809488, -0.08297348, 0
84, 3495431695, -0.59823996, -0.23595157, -0.30432037, 0.70272946, -0.048424304, 0.045635644, -0.08562279, 0
86, 3495465029, -0.5982195, -0.23608671, -0.3044659, 0.70263857, -0.018580185, 0.08332943, -0.10151577, 0
87, 3495481696, -0.59821683, -0.2361314, -0.30451024, 0.7026065, -0.004747415, 0.06155111, -0.084342, 0
88, 3495498363, -0.59819716, -0.23617238, -0.30456424, 0.70258605, -0.020041065, 0.049630716, -0.06614876, 0
90, 3495531697, -0.59819293, -0.23625281, -0.3045859, 0.7025532, -0.03233562, 0.07192088, -0.091739655, 0
91, 3495548364, -0.5982223, -0.23629253, -0.3045962, 0.7025103, -0.018441606, 0.04567286, -0.072761536, 0
93, 3495581698, -0.5982448, -0.23637085, -0.3046161, 0.7024563, -0.03900681, 0.0673211, -0.068362236, 0
94, 3495598365, -0.5982476, -0.23638885, -0.30462095, 0.7024457, 0.0040223394, 0.050577965, -0.078336716, 0
97, 3495648366, -0.59823066, -0.23648565, -0.3047002, 0.7023931, -0.038849235, 0.05668579, -0.08273697, 0
98, 3495665033, -0.59822303, -0.23654777, -0.30472493, 0.702368, -0.041457184, 0.066202976, -0.08063316, 0
99, 3495681700, -0.5982033, -0.23660836, -0.3047641, 0.7023474, 0.009311326, 0.04921811, -0.09323597, 0
101, 3495715034, -0.59814435, -0.23671992, -0.30490217, 0.70230013, -0.03634544, 0.07600614, -0.09914112, 0
102, 3495731701, -0.5981279, -0.23676412, -0.30495408, 0.7022767, -0.007774675, 0.07655207, -0.09643936, 0
103, 3495748368, -0.59810114, -0.23680615, -0.3050397, 0.7022482, -0.018570798, 0.06625505, -0.11070824, 0
105, 3495781702, -0.59806025, -0.23680596, -0.3052078, 0.70220995, -0.054322142, 0.065064736, -0.073945045, 0
106, 3495798369, -0.5980364, -0.23679093, -0.30530643, 0.7021924, -0.038765416, 0.0663772, -0.07253933, 0
107, 3495815036, -0.5980231, -0.2367948, -0.3053682, 0.70217556, -0.052956477, 0.075414166, -0.10030556, 0
109, 3495848370, -0.59804624, -0.23680791, -0.30538592, 0.7021437, -0.041580115, 0.053289734, -0.089045525, 0
111, 3495881704, -0.59798276, -0.2368794, -0.3056261, 0.7020692, -0.052010346, 0.011090377, -0.0799799, 0
113, 3495915038, -0.5978462, -0.23704885, -0.30604517, 0.70194584, -0.048448443, 0.06001468, -0.08899689, 0
114, 3495931705, -0.5977846, -0.23712023, -0.30626947, 0.7018764, -0.020617506, 0.08675019, -0.08546543, 0
116, 3495965039, -0.5976962, -0.23722179, -0.30656523, 0.7017882, -0.018161992, 0.095810056, -0.073387146, 0
117, 3495981706, -0.5976715, -0.23724529, -0.30662706, 0.7017741, -0.013768845, 0.095859565, -0.08406544, 0
118, 3495998373, -0.59767616, -0.23723802, -0.3066223, 0.7017747, -9.4791845E-4, 0.098697625, -0.0876255, 0
120, 3496031707, -0.59774905, -0.23708728, -0.3064266, 0.70184916, -0.020226805, 0.04966145, -0.06492233, 0
121, 3496048374, -0.5977741, -0.23702992, -0.3063292, 0.7018897, -0.054503858, 0.05660108, -0.071297646, 0
122, 3496065041, -0.5977946, -0.23700143, -0.30623597, 0.7019225, -0.052935243, 0.06360084, -0.08328056, 0
124, 3496098375, -0.5978454, -0.23697835, -0.30606157, 0.7019631, -0.008153529, 0.05533644, -0.06723404, 0
125, 3496115042, -0.5978682, -0.23695382, -0.30597752, 0.70198864, -0.014642334, 0.068486825, -0.08411026, 0
126, 3496131709, -0.5978819, -0.23692502, -0.30589357, 0.7020232, -0.01422347, 0.044411354, -0.0735693, 0
128, 3496165043, -0.5978496, -0.23695663, -0.30588904, 0.70204216, -0.025948737, 0.053137075, -0.0822916, 0
129, 3496181710, -0.5978271, -0.23694608, -0.30591092, 0.70205516, -0.031613003, 0.052232407, -0.07551384, 0
130, 3496198377, -0.59779143, -0.2369182, -0.3059437, 0.7020807, -0.0117127495, 0.056921933, -0.06443977, 0
132, 3496231711, -0.5977547, -0.23679079, -0.3059385, 0.7021573, -0.010299924, 0.07954983, -0.09133434, 0
133, 3496248378, -0.59772545, -0.23670596, -0.3059395, 0.7022104, -0.047849208, 0.05239043, -0.08317375, 0
134, 3496265045, -0.5977114, -0.23662026, -0.30594096, 0.70225054, -0.024735508, 0.073961, -0.096175194, 0
136, 3496298379, -0.5977173, -0.23648393, -0.30589566, 0.7023113, -0.033350144, 0.04625321, -0.085739136, 0
138, 3496331713, -0.59771353, -0.23637287, -0.30587304, 0.7023616, -0.013294104, 0.052962177, -0.087711334, 0
140, 3496365047, -0.5976885, -0.23630899, -0.3058743, 0.7024039, -0.0276414, 0.047134522, -0.08058548, 0
141, 3496381714, -0.59769404, -0.23630185, -0.3058766, 0.70240057, -0.05187758, 0.04736664, -0.10132122, 0
143, 3496415048, -0.5977036, -0.23628105, -0.3058768, 0.70239943, 0.004500657, 0.07999272, -0.09029865, 0
144, 3496431715, -0.5977099, -0.2362328, -0.30584726, 0.7024231, -0.0012829644, 0.08088464, -0.08973408, 0
145, 3496448382, -0.5977031, -0.23620363, -0.30583045, 0.7024461, -0.024361124, 0.021096047, -0.06627083, 0
147, 3496481716, -0.5976096, -0.23629732, -0.3060451, 0.70240057, -0.064918, 0.012514826, -0.10237503, 0
148, 3496498383, -0.59757715, -0.23643489, -0.30615243, 0.70233506, -0.03050773, 0.06488648, -0.1021471, 0
149, 3496515050, -0.5975742, -0.23657109, -0.3062075, 0.70226777, -0.017706472, 0.067385465, -0.08419418, 0
151, 3496548384, -0.59756756, -0.23678371, -0.30625948, 0.702179, 0.0055205463, 0.0817236, -0.06729889, 0
153, 3496581718, -0.59758246, -0.23690121, -0.30618483, 0.7021593, -0.06398841, 0.0071784537, -0.12741089, 0
155, 3496615052, -0.59757644, -0.23715338, -0.30635747, 0.70200396, -0.04255508, 0.054557726, -0.07275009, 0
156, 3496631719, -0.5975616, -0.23730111, -0.3064567, 0.7019234, -0.040376276, 0.029755944, -0.06289959, 0
157, 3496648386, -0.59752667, -0.23749098, -0.3066061, 0.70182365, -0.06475103, 0.049839925, -0.0732851, 0
159, 3496681720, -0.5974638, -0.23794009, -0.3069752, 0.7015637, -0.07114596, 0.03447799, -0.10987759, 0
160, 3496698387, -0.59745294, -0.23815796, -0.307165, 0.7014159, -0.031948496, 0.060075365, -0.09564209, 0
161, 3496715054, -0.5974593, -0.23839603, -0.30730426, 0.70126873, -0.06611603, 0.055536486, -0.110687256, 0
163, 3496748388, -0.59750307, -0.23873504, -0.30750924, 0.70102614, -0.036180712, 0.03625302, -0.12614536, 0
164, 3496765055, -0.5975154, -0.23886876, -0.3076645, 0.70090187, -0.0151508255, 0.06884512, -0.059506416, 0
165, 3496781722, -0.5975027, -0.23901999, -0.30783826, 0.700785, 0.0019148355, 0.05279946, -0.06748104, 0
168, 3496831723, -0.5974157, -0.23935318, -0.30847028, 0.7004673, -0.022979815, 0.06438391, -0.091005325, 0
169, 3496848390, -0.5973863, -0.23948652, -0.3086943, 0.70034814, -0.073810905, 0.018213512, -0.09756851, 0
171, 3496881724, -0.5973952, -0.23987058, -0.30908486, 0.7000369, -0.04698488, 0.048584007, -0.10608387, 0
172, 3496898391, -0.59740084, -0.24012089, -0.3092773, 0.69986117, -0.06744369, 0.039735686, -0.091347694, 0
174, 3496931725, -0.5974649, -0.24062733, -0.30954716, 0.6995131, -0.0016417026, 0.1059704, -0.07711029, 0
175, 3496948392, -0.59752446, -0.24083978, -0.309611, 0.6993608, -0.0343374, 0.0352281, -0.07327843, 0
176, 3496965059, -0.5976232, -0.24101639, -0.30960664, 0.6992175, -0.044737905, 0.06952181, -0.09939289, 0
178, 3496998393, -0.59796375, -0.24133436, -0.30918238, 0.6990045, 0.0018062082, 0.091571584, -0.038077354, 0
179, 3497015060, -0.5980978, -0.24145773, -0.30895603, 0.69894725, -0.013035276, 0.067390494, -0.042696, 0
180, 3497031727, -0.598164, -0.24162073, -0.30886763, 0.6988733, -0.03197107, 0.062193934, -0.06983948, 0
183, 3497081728, -0.5982208, -0.24234843, -0.30915532, 0.69844544, -0.05345849, 0.042814467, -0.07501316, 0
184, 3497098395, -0.5982193, -0.24261943, -0.30931818, 0.6982804, -0.010181909, 0.10116677, -0.07160568, 0
186, 3497131729, -0.5982445, -0.24304295, -0.30946243, 0.6980477, -0.010067694, 0.11200849, -0.07787132, 0
187, 3497148396, -0.5982641, -0.24313308, -0.3094099, 0.69802266, -0.023002611, 0.07408024, -0.07588005, 0
188, 3497165063, -0.5983003, -0.24316083, -0.30934793, 0.6980094, -0.010291654, 0.05998831, -0.09466171, 0
190, 3497198397, -0.59833777, -0.24316381, -0.30934834, 0.69797605, -0.0052250624, 0.073323205, -0.06225586, 0
191, 3497215064, -0.5983413, -0.24313255, -0.30933267, 0.69799083, -0.019588675, 0.097531, -0.08062363, 0
192, 3497231731, -0.59837437, -0.24304044, -0.30926207, 0.6980259, -0.008202031, 0.09052777, -0.07534504, 0
194, 3497265065, -0.5983795, -0.24265416, -0.3091264, 0.6982161, -0.1564128, -0.09709101, -0.050290108, 0
195, 3497281732, -0.5983315, -0.24288255, -0.30930132, 0.69810027, -0.026129559, -0.029906703, -0.13378334, 0
197, 3497315066, -0.5983668, -0.24306487, -0.30934468, 0.6979873, -0.060928065, -0.0148171205, -0.08105755, 0
198, 3497331733, -0.59834814, -0.2432371, -0.30951303, 0.6978687, -0.08171656, -0.122652285, -0.13310528, 0
199, 3497348400, -0.5982869, -0.24363568, -0.31002772, 0.6975538, -0.113557324, -0.118952364, -0.12068462, 0
201, 3497381734, -0.59829473, -0.24465546, -0.31097493, 0.69676775, -0.012388429, 0.14371917, -0.07563305, 0
202, 3497398401, -0.59835243, -0.24502407, -0.3112609, 0.6964611, 0.0060024406, 0.14747429, -0.0836277, 0
203, 3497415068, -0.5983869, -0.24540731, -0.3114903, 0.69619393, -0.014217659, 0.007954379, -0.06302357, 0
205, 3497448402, -0.5983745, -0.24657758, -0.3123851, 0.6953896, 0.016070805, 0.03298269, -0.04259777, 0
206, 3497465069, -0.5983615, -0.24726392, -0.31298724, 0.6948863, -0.10841161, 0.031512644, -0.06653309, 0
207, 3497481736, -0.5983512, -0.24798976, -0.31361857, 0.69435173, -0.005822736, 0.07633135, -0.06412697, 0
210, 3497531737, -0.59875643, -0.24965708, -0.3142548, 0.6931162, 0.0027387042, 0.11159957, -0.06995773, 0
211, 3497548404, -0.5988439, -0.2501169, -0.3144058, 0.69280624, -2.6128665E-4, 0.06649835, -0.042552948, 0
213, 3497581738, -0.5989595, -0.25084284, -0.31483918, 0.69224674, -0.006128725, 0.07555554, -0.080060005, 0
214, 3497598405, -0.59908795, -0.25102586, -0.31503695, 0.6919793, -0.029110774, 0.09772087, -0.059432983, 0
215, 3497615072, -0.59917635, -0.25116774, -0.31515157, 0.691799, 0.044154312, 0.1100903, -0.07744217, 0
217, 3497648406, -0.5993067, -0.25121862, -0.31501055, 0.69173187, -0.041648287, 0.15022428, -0.07491112, 0
218, 3497665073, -0.599404, -0.2510925, -0.31473485, 0.69181883, 4.3249756E-4, 0.11065244, -0.052734375, 0
219, 3497681740, -0.59951466, -0.2508898, -0.31440803, 0.6919449, -0.02322702, 0.06847096, -0.07357216, 0
221, 3497715074, -0.59977865, -0.2503838, -0.31371972, 0.692212, -0.030916536, 0.042802844, -0.09290409, 0
222, 3497731741, -0.59988153, -0.2501713, -0.31346878, 0.6923134, -0.020816656, 0.0233352, -0.060663223, 0
225, 3497781742, -0.5999916, -0.24956892, -0.31317082, 0.69257027, -0.017138526, 0.07810169, -0.060836792, 0
226, 3497798409, -0.60001826, -0.24920595, -0.31308612, 0.6927163, -0.0062418226, 0.12669809, -0.0671072, 0
228, 3497831743, -0.60018915, -0.24795294, -0.31269136, 0.69319594, -0.001993512, 0.087131724, -0.09371376, 0
229, 3497848410, -0.6002822, -0.24723616, -0.31254494, 0.69343734, -0.046110947, 0.016565438, -0.087620735, 0
230, 3497865077, -0.60033345, -0.24665122, -0.31247655, 0.6936319, -0.076592304, 0.010201131, -0.083278656, 0
232, 3497898411, -0.60040313, -0.24581574, -0.31238118, 0.6939112, -0.01856901, 0.043572284, -0.077254295, 0
233, 3497915078, -0.60044265, -0.24544272, -0.3123324, 0.6940311, -0.023939354, 0.055770952, -0.078912735, 0
234, 3497931745, -0.6004996, -0.24508333, -0.31222147, 0.6941589, -0.025459467, 0.074996196, -0.11164856, 0
236, 3497965079, -0.6005843, -0.24446295, -0.31208196, 0.69436693, -0.024750484, 0.04069467, -0.090545654, 0
237, 3497981746, -0.6005781, -0.24424143, -0.31211832, 0.69443387, -0.026507743, 0.030439336, -0.06974411, 0
240, 3498031747, -0.6006353, -0.24374501, -0.31208512, 0.69457376, -0.036702838, 0.06266521, -0.08600426, 0
241, 3498048414, -0.60066175, -0.24357572, -0.31203192, 0.6946341, -0.02519438, 0.047961745, -0.0626564, 0
242, 3498065081, -0.6006822, -0.24342082, -0.31199628, 0.69468695, -0.046120334, 0.029234936, -0.083848, 0
244, 3498098415, -0.600693, -0.24322857, -0.3120054, 0.69474083, -0.0040209983, 0.05811471, -0.07737064, 0
245, 3498115082, -0.6006707, -0.24312423, -0.3120984, 0.69475466, -0.0025665993, 0.0364154, -0.055080414, 0
246, 3498131749, -0.6006062, -0.24304235, -0.3123066, 0.6947456, -0.04305351, 0.025856426, -0.0705328, 0
248, 3498165083, -0.60049427, -0.24296603, -0.31269363, 0.694695, -0.04804903, 0.051359143, -0.08100796, 0
249, 3498181750, -0.60044134, -0.24295147, -0.31288224, 0.69466084, -0.010968451, 0.06733049, -0.07297325, 0
250, 3498198417, -0.60037845, -0.2429567, -0.3130702, 0.69462883, -0.044230755, 0.07954178, -0.08364391, 0
252, 3498231751, -0.6003054, -0.24293545, -0.31329778, 0.6945967, -0.026872516, 0.081140235, -0.088710785, 0
255, 3498281752, -0.6003616, -0.24259205, -0.31317392, 0.694724, -0.0037610526, 0.081947446, -0.07766819, 0
256, 3498298419, -0.60038966, -0.24245754, -0.31307977, 0.6947891, -0.018717198, 0.04556591, -0.055703163, 0
257, 3498315086, -0.6003885, -0.2423502, -0.31306705, 0.6948332, -0.017900482, 0.041691985, -0.09165764, 0
259, 3498348420, -0.6003111, -0.24230906, -0.31322128, 0.6948449, -0.043680914, 0.045901068, -0.07114029, 0
260, 3498365087, -0.6002574, -0.24235198, -0.31335884, 0.6948143, -0.04557921, 0.0513977, -0.0854435, 0
261, 3498381754, -0.6002078, -0.24243408, -0.3135246, 0.6947538, -0.02713045, 0.04533424, -0.06456852, 0
263, 3498415088, -0.60019785, -0.24244113, -0.3135725, 0.6947383, -0.008189514, 0.12493178, -0.08512783, 0
264, 3498431755, -0.6002656, -0.24231686, -0.313398, 0.69480187, -0.0073685516, 0.09917594, -0.07910538, 0
265, 3498448422, -0.6003615, -0.2421407, -0.3131367, 0.6948984, -0.022279324, 0.073845215, -0.09091091, 0
267, 3498481756, -0.60046935, -0.24187005, -0.3127959, 0.6950529, -0.042021107, 0.04134319, -0.07721043, 0
268, 3498498423, -0.6004772, -0.24182567, -0.31275734, 0.69507885, -0.03767445, 0.032177597, -0.075060844, 0
269, 3498515090, -0.600483, -0.2418365, -0.3127304, 0.6950821, -0.03485774, 0.06516274, -0.09132862, 0
271, 3498548424, -0.6005125, -0.24199368, -0.31259742, 0.6950619, -0.035454743, 0.058777202, -0.06557274, 0
272, 3498565091, -0.60052454, -0.24207903, -0.31251177, 0.6950604, 9.052275E-4, 0.08316705, -0.07549286, 0
273, 3498581758, -0.6005475, -0.24210638, -0.3124142, 0.6950748, -0.028821325, 0.07110662, -0.089681625, 0
275, 3498615092, -0.60058206, -0.24214613, -0.31225592, 0.6951022, -0.02521472, 0.056866836, -0.068244934, 0
276, 3498631759, -0.6006, -0.24214654, -0.3121932, 0.69511473, -0.019477589, 0.11571031, -0.08291626, 0
278, 3498665093, -0.6005254, -0.2422743, -0.31226242, 0.69510365, -0.22624339, -0.073620364, -0.11326027, 0
279, 3498681760, -0.6005132, -0.24250984, -0.31237984, 0.69497925, 0.0055558616, 0.14173684, -0.11944008, 0
282, 3498731761, -0.600601, -0.24285749, -0.31232575, 0.6948063, -0.040461432, 0.044405654, -0.09557438, 0
283, 3498748428, -0.6006363, -0.24292314, -0.31231353, 0.69475836, -0.031675808, 0.049962074, -0.08526516, 0
284, 3498765095, -0.60068214, -0.24297729, -0.3123239, 0.69469506, -0.02689375, 0.05598329, -0.08775234, 0
286, 3498798429, -0.60078704, -0.24341156, -0.31225514, 0.69448316, -0.04496902, 0.013557625, -0.06434631, 0
287, 3498815096, -0.6007512, -0.24381192, -0.31241825, 0.6943005, -1.8708034E-4, 0.027675262, -0.05484581, 0
288, 3498831763, -0.60061985, -0.24429756, -0.3127563, 0.6940913, 0.008587815, 2.0272625E-4, -0.057621002, 0
290, 3498865097, -0.60025626, -0.2453929, -0.31379095, 0.6935522, -0.024450976, 0.080261715, -0.07302952, 0
291, 3498881764, -0.6000694, -0.2459261, -0.31432495, 0.69328314, -0.011547573, 0.09488036, -0.05263424, 0
292, 3498898431, -0.59992623, -0.24636853, -0.3147193, 0.69307107, -0.019223008, 0.1252846, -0.07566643, 0
294, 3498931765, -0.59982955, -0.24692982, -0.31492588, 0.6928611, -0.021111693, 0.15744096, -0.091383934, 0
296, 3498965099, -0.59987575, -0.24713792, -0.31474274, 0.69283015, -0.036319513, 0.043000877, -0.07278824, 0
298, 3498998433, -0.59989005, -0.24744855, -0.31465003, 0.69274896, -0.049784604, 0.049792316, -0.064409256, 0
299, 3499015100, -0.59989303, -0.24760221, -0.31461287, 0.69270825, -0.030700399, 0.09277285, -0.060466766, 0
300, 3499031767, -0.59990364, -0.24775837, -0.3145184, 0.69268626, -0.02365594, 0.069540136, -0.08362675, 0
302, 3499065101, -0.5999278, -0.24809039, -0.3143779, 0.69261026, -0.011148156, 0.04139795, -0.08394623, 0
303, 3499081768, -0.59991, -0.24827112, -0.3143719, 0.6925636, 0.0068681063, 0.022302682, -0.0718832, 0
305, 3499115102, -0.5998404, -0.24872261, -0.3145021, 0.69240284, -0.04294399, 0.06391007, -0.06584358, 0
306, 3499131769, -0.59982455, -0.24894987, -0.31454784, 0.69231415, -0.014457488, 0.08823141, -0.08158398, 0
307, 3499148436, -0.5998284, -0.24918386, -0.31455675, 0.69222254, -0.026833847, 0.07586566, -0.10807419, 0
309, 3499181770, -0.59978753, -0.24978994, -0.31459156, 0.6920238, -0.020477587, 0.046282493, -0.094117165, 0
311, 3499215104, -0.59978014, -0.2505737, -0.3145459, 0.6917675, -0.12796274, 0.03848055, -0.08672047, 0
313, 3499248438, -0.5999134, -0.25169617, -0.31428444, 0.6913634, -0.010991696, 0.059257753, -0.08082867, 0
314, 3499265105, -0.5999838, -0.25217256, -0.314216, 0.6911597, -0.010433137, 0.024652585, -0.09948254, 0
315, 3499281772, -0.6000336, -0.2526234, -0.31423184, 0.69094455, 0.0149181485, 0.06925169, -0.0625515, 0
317, 3499315106, -0.60014874, -0.2532281, -0.31441036, 0.69054174, -0.03612729, 0.06137241, -0.056228638, 0
318, 3499331773, -0.6002276, -0.25347233, -0.31453046, 0.6903292, -0.059488196, 0.0447217, -0.08787918, 0
319, 3499348440, -0.60034114, -0.25373676, -0.31463405, 0.6900858, -0.028186325, 0.10906538, -0.067975044, 0
321, 3499381774, -0.60062134, -0.25407106, -0.31482235, 0.68963325, -0.013219898, 0.02877137, -0.08245754, 0
322, 3499398441, -0.6006854, -0.2541716, -0.31495795, 0.6894785, 0.038000107, 0.07811063, -0.068546295, 0
323, 3499415108, -0.60070336, -0.2542144, -0.31506488, 0.68939817, -0.01835846, 0.07582264, -0.08113289, 0
326, 3499465109, -0.6008814, -0.25432307, -0.31511915, 0.6891782, 0.010024109, 0.09797992, -0.083096504, 0
327, 3499481776, -0.6009821, -0.2542345, -0.31500196, 0.68917656, 0.008700688, 0.10487362, -0.0673933, 0
329, 3499515110, -0.6011795, -0.2539289, -0.31461656, 0.6892932, -0.03815344, 0.069172904, -0.094013214, 0
330, 3499531777, -0.60128385, -0.2537539, -0.3143745, 0.689377, 0.0033149207, 0.06761155, -0.07535362, 0
331, 3499548444, -0.6013557, -0.25351468, -0.31411704, 0.68951994, -0.034462344, 0.0661652, -0.061377525, 0
333, 3499581778, -0.6014655, -0.2529804, -0.313591, 0.6898595, -0.033060472, 0.07105924, -0.06379032, 0
334, 3499598445, -0.60150695, -0.25266996, -0.313336, 0.69005305, -0.020632705, 0.057263907, -0.065927505, 0
336, 3499631779, -0.60166943, -0.25199094, -0.31281793, 0.6903948, -0.08221567, 0.0570395, -0.07697582, 0
337, 3499648446, -0.6017629, -0.25169358, -0.31252894, 0.6905528, -0.013697097, 0.08788295, -0.07653618, 0
338, 3499665113, -0.6018618, -0.25138634, -0.31223616, 0.69071096, 0.005858051, 0.06324389, -0.06755543, 0
340, 3499698447, -0.6020481, -0.25072417, -0.3116493, 0.6910541, -0.001888461, 0.06587709, -0.0811224, 0
341, 3499715114, -0.60216296, -0.25037375, -0.31134647, 0.69121754, -0.016158199, 0.066216946, -0.09542847, 0
342, 3499731781, -0.60225976, -0.25002423, -0.3110367, 0.6913993, 0.0045994497, 0.05821205, -0.06977177, 0
344, 3499765115, -0.60248995, -0.24920428, -0.31033626, 0.69180924, 0.010423527, 0.10863266, -0.060591698, 0
345, 3499781782, -0.60262734, -0.24871369, -0.309883, 0.69206935, 0.025113916, 0.097749256, -0.04463768, 0
346, 3499798449, -0.6027899, -0.24810371, -0.3093571, 0.692382, 0.019212503, 0.10157759, -0.097545624, 0
348, 3499831783, -0.6031184, -0.24689686, -0.30838284, 0.6929615, -0.026903585, -0.032192793, -0.107564926, 0
349, 3499848450, -0.6032219, -0.24643466, -0.30812258, 0.69315165, -0.05017687, -0.02406497, -0.08553505, 0
350, 3499865117, -0.6032863, -0.24605384, -0.30801103, 0.69328034, -0.031488728, 0.01457081, -0.06233692, 0
353, 3499915118, -0.60336787, -0.24531996, -0.30793348, 0.6935038, -0.016935129, 0.06793587, -0.073493004, 0
354, 3499931785, -0.60337365, -0.24511598, -0.30791587, 0.69357884, -0.029265892, 0.046744715, -0.08679104, 0
356, 3499965119, -0.60335726, -0.2447397, -0.307961, 0.6937059, 0.0053397245, 0.06613536, -0.088602066, 0
357, 3499981786, -0.6033408, -0.24455565, -0.30807877, 0.69373274, -0.0629627, -0.043228745, -0.110284805, 0
359, 3500015120, -0.6032222, -0.24435669, -0.3085041, 0.69371706, -0.019401819, 0.059690587, -0.06598282, 0
360, 3500031787, -0.60314, -0.24431781, -0.3087251, 0.6937039, -0.031062042, 0.075927354, -0.08054924, 0
361, 3500048454, -0.6030552, -0.2443075, -0.3089604, 0.6936765, -0.0755847, 0.020133153, -0.09610176, 0
363, 3500081788, -0.6028403, -0.24447861, -0.309521, 0.69355303, -0.040196124, 0.047915477, -0.073163986, 0
364, 3500098455, -0.60273916, -0.2445818, -0.3098294, 0.6934669, -0.029992534, 0.072880425, -0.08038616, 0
365, 3500115122, -0.60263455, -0.24469973, -0.3101561, 0.69337004, -0.0057545644, 0.0393708, -0.08047867, 0
368, 3500165123, -0.60211414, -0.24520083, -0.31137982, 0.6930965, -0.034886125, 0.07340232, -0.063420296, 0
369, 3500181790, -0.6019726, -0.24537466, -0.3117109, 0.6930093, -0.066073336, 0.09758364, -0.09161854, 0
371, 3500215124, -0.6019065, -0.24586631, -0.31184447, 0.69283223, 0.18956693, 0.06526109, 0.0150232315, 0
372, 3500231791, -0.601791, -0.24632603, -0.31205192, 0.6926758, -0.29071683, -0.03497799, -0.094189644, 0
373, 3500248458, -0.60172504, -0.24680111, -0.31227082, 0.6924655, -0.008714546, 0.08832226, -0.08737755, 0
375, 3500281792, -0.60153896, -0.24772511, -0.3127765, 0.69206876, -0.021560507, -0.07935727, -0.09398556, 0
376, 3500298459, -0.601327, -0.24853122, -0.31328532, 0.69173384, -0.0854832, 0.022131806, -0.08888435, 0
377, 3500315126, -0.6011336, -0.24946618, -0.31373456, 0.6913615, -0.03797016, 0.08484217, -0.06881523, 0
379, 3500348460, -0.6008143, -0.25120568, -0.31434995, 0.69072944, -0.018987872, 0.0699838, -0.08246136, 0
380, 3500365127, -0.60065806, -0.2521099, -0.31463295, 0.69040704, -0.031187657, 0.055596724, -0.051181793, 0
383, 3500415128, -0.60010386, -0.25474688, -0.31574655, 0.6894119, -0.09024, 0.14468016, -0.0666008, 0
384, 3500431795, -0.6000185, -0.2558668, -0.31569475, 0.689095, -0.25886735, 0.12799582, -0.108068466, 0
386, 3500465129, -0.60026723, -0.2576937, -0.3146982, 0.68865323, -0.03797999, 0.23420079, -0.065556526, 0
387, 3500481796, -0.600547, -0.2581034, -0.31391814, 0.6886119, 9.5551787E-4, 0.14694402, -0.09454632, 0
388, 3500498463, -0.6008814, -0.25834167, -0.31309786, 0.6886043, 0.010556517, 0.12362133, -0.09463978, 0
390, 3500531797, -0.60147095, -0.25788954, -0.31148502, 0.68899035, 0.23519228, 0.15619935, -0.07704353, 0
391, 3500548464, -0.60170317, -0.25714538, -0.31075734, 0.68939406, 0.041398622, 0.0193332, -0.06176567, 0
392, 3500565131, -0.60192055, -0.2564754, -0.31019026, 0.6897092, -0.094912544, -0.0078054075, -0.1134119, 0
394, 3500598465, -0.6021854, -0.25610015, -0.3097817, 0.68980086, -0.11089528, -0.09283756, -0.08057499, 0
395, 3500615132, -0.6021688, -0.25642195, -0.31002966, 0.68958455, -0.03427683, -0.078459196, -0.050465584, 0
398, 3500665133, -0.6015109, -0.25867072, -0.31205276, 0.68840504, -0.06144617, 0.029842556, -0.06253719, 0
399, 3500681800, -0.6013771, -0.25955153, -0.3129766, 0.68777084, -0.05883867, 0.068100825, -0.078663826, 0
400, 3500698467, -0.6012032, -0.26041877, -0.3137969, 0.6872209, -0.004083358, 0.113787204, -0.069428444, 0
402, 3500731801, -0.60099465, -0.26147956, -0.3148601, 0.6865139, 0.043698125, 0.27638304, -0.09958458, 0
403, 3500748468, -0.6010073, -0.26139897, -0.31481853, 0.6865525, 0.004836597, 0.3168161, -0.101447105, 0
404, 3500765135, -0.6012298, -0.2608672, -0.31435123, 0.686774, -0.045909785, 0.2947518, -0.11530018, 0
406, 3500798469, -0.6020795, -0.25899664, -0.31252813, 0.6875693, 0.0689638, 0.03998971, -0.06392288, 0
407, 3500815136, -0.60247624, -0.2578718, -0.31155834, 0.6880844, 0.12209485, 0.0011814894, -0.06162834, 0
408, 3500831803, -0.6027456, -0.25681388, -0.31088367, 0.68854904, 0.052062426, -0.105495095, -0.034394264, 0
410, 3500865137, -0.6029055, -0.255516, -0.3104472, 0.68908864, -0.073029056, -0.07704425, -0.0636282, 0
411, 3500881804, -0.602857, -0.25528172, -0.31057113, 0.68916214, -0.03859845, 0.019365944, -0.09180641, 0
412, 3500898471, -0.6027939, -0.255183, -0.31074807, 0.68917406, -0.0134697845, 0.07627179, -0.09685993, 0
414, 3500931805, -0.60262084, -0.25459573, -0.31141412, 0.689242, -0.028203536, 0.05166569, -0.101252556, 0
415, 3500948472, -0.6024961, -0.25442365, -0.311655, 0.68930584, -0.027232148, 0.07780788, -0.12458706, 0
417, 3500981806, -0.6023873, -0.25431296, -0.31184897, 0.6893538, 0.008577533, 0.113404214, -0.054364204, 0
418, 3500998473, -0.60241616, -0.25407153, -0.31189087, 0.6893987, 0.007179683, 0.12570503, -0.06812668, 0
419, 3501015140, -0.60253704, -0.25361443, -0.3119093, 0.6894531, -0.0048251976, 0.12538742, -0.031698227, 0
421, 3501048474, -0.6029742, -0.2519809, -0.3117501, 0.6897418, -0.0014374118, 0.107756935, -0.18145657, 0
422, 3501065141, -0.60314804, -0.25125706, -0.3116797, 0.68988556, 0.0077132084, 0.050641444, -0.086660385, 0
425, 3501115142, -0.6032445, -0.2493016, -0.31222752, 0.6902629, -0.06948303, 0.015162672, -0.077754974, 0
426, 3501131809, -0.60316545, -0.24880877, -0.3127626, 0.69026774, -0.008880617, 0.07152895, -0.084685326, 0
427, 3501148476, -0.6030127, -0.24807248, -0.31363708, 0.6902695, 0.074016765, 0.17238829, -0.13167953, 0
430, 3501198477, -0.60261583, -0.24514273, -0.31565014, 0.6907448, -0.05922691, 0.075666845, -0.06003189, 0
431, 3501215144, -0.6022977, -0.24433486, -0.31653094, 0.69090545, -0.057817213, -0.012185368, -0.07151127, 0
433, 3501248478, -0.60102654, -0.24362288, -0.3193809, 0.69095236, -0.0028495668, -0.015340365, -0.009726524, 0
434, 3501265145, -0.60014397, -0.24373688, -0.3209738, 0.6909412, -0.048561767, -0.014028343, -0.04352379, 0
435, 3501281812, -0.59929425, -0.24404071, -0.3223867, 0.69091344, -0.07629794, -0.14097868, -0.14991283, 0
437, 3501315146, -0.5977409, -0.24504574, -0.32517236, 0.69059813, -0.011377927, 0.055186577, -0.1019125, 0
438, 3501331813, -0.59694964, -0.24565713, -0.3265063, 0.6904359, -0.0037230554, 0.022728026, -0.104839325, 0
441, 3501381814, -0.5944819, -0.24704781, -0.33181697, 0.6895366, 7.313344E-4, -0.015552926, -0.08825493, 0
442, 3501398481, -0.593609, -0.24766177, -0.3339992, 0.68901443, -0.09357504, 0.0048133517, -0.106098175, 0
444, 3501431815, -0.59187835, -0.24964215, -0.33831078, 0.68768376, 0.0099128, -0.0034860198, -0.16745567, 0
445, 3501448482, -0.5909761, -0.25096226, -0.3405747, 0.6868614, 0.012608143, -0.058381025, -0.14246845, 0
446, 3501465149, -0.5899536, -0.25257406, -0.34299958, 0.68594235, -0.025534343, -0.03326778, -0.14662075, 0
448, 3501498483, -0.58782893, -0.2564307, -0.34825242, 0.683685, -0.10007748, -0.21137866, -0.06364918, 0
449, 3501515150, -0.5868357, -0.2587676, -0.35102233, 0.68223965, -0.21034804, -0.04787502, -0.082790375, 0
450, 3501531817, -0.5857291, -0.26142293, -0.35403457, 0.68061996, -0.14307645, -0.043604247, -0.042287827, 0
452, 3501565151, -0.58261013, -0.2675229, -0.36132184, 0.677088, 0.11921131, -0.0091126235, -0.011005402, 0
453, 3501581818, -0.580654, -0.2707859, -0.3654842, 0.6752347, 0.122442186, -0.13127095, -0.11258888, 0
456, 3501631819, -0.57478684, -0.28144166, -0.3786742, 0.66859627, 0.019372761, 0.15918268, -0.08947754, 0
457, 3501648486, -0.5726928, -0.28510955, -0.38311973, 0.66630274, 0.18558861, -0.28043845, -0.1649971, 0
458, 3501665153, -0.5703985, -0.28934973, -0.3881576, 0.66352135, -0.19076853, -0.16394809, -0.040579796, 0
460, 3501698487, -0.5658345, -0.2989772, -0.39835227, 0.6570874, 0.014125125, -0.02598718, -0.10986328, 0
461, 3501715154, -0.56331635, -0.30393198, -0.40380982, 0.6536379, 0.055619635, -0.15087202, -0.02761364, 0
462, 3501731821, -0.5604467, -0.30944893, -0.40982208, 0.6497626, 0.09694964, -0.32425013, -0.17113304, 0
464, 3501765155, -0.5531938, -0.3234525, -0.425308, 0.6391188, -0.08859383, -0.8144214, -0.32348156, 0
465, 3501781822, -0.54908955, -0.33319658, -0.43551376, 0.63072425, -0.601027, -0.5731337, -0.39316463, 0
466, 3501798489, -0.54386187, -0.34571975, -0.4482578, 0.6194849, 0.052481066, -1.0314245, -0.4626541, 0
468, 3501831823, -0.5242913, -0.38418537, -0.48258352, 0.58705866, -0.8612555, -1.360052, -0.64190006, 0
471, 3501881824, -0.45618173, -0.4921666, -0.5538014, 0.49292874, -0.6864172, -4.421659, 1.9383154, 0
472, 3501898491, -0.4243804, -0.53290534, -0.58002007, 0.4466478, -0.3826828, -4.5907173, 4.8338127, 0
473, 3501915158, -0.39317498, -0.5676258, -0.6046837, 0.39695922, -0.7568368, -5.6141124, 8.265627, 0
475, 3501948492, -0.34565765, -0.6151389, -0.6402115, 0.3037414, -2.542535, -5.180426, 12.100588, 0
476, 3501965159, -0.3239838, -0.63317895, -0.64738, 0.2739025, -15.83906, -6.8533854, 16.306322, 0
477, 3501981826, -0.2766423, -0.6585507, -0.6513631, 0.25595045, -24.49241, -15.16005, 17.871298, 0
479, 3502015160, -0.20047396, -0.67132735, -0.6646996, 0.2594396, 5.538383, -17.008467, -5.9974937, 0
480, 3502031827, -0.18350036, -0.6733359, -0.6718814, 0.24804516, 0.7027373, -12.849415, -6.831805, 0
481, 3502048494, -0.1685844, -0.68202823, -0.6710242, 0.23695509, -1.8528839, -15.932855, -7.2863016, 0
483, 3502081828, -0.15758234, -0.69950676, -0.6599446, 0.22435641, -1.8375533, -17.250628, -10.849223, 0
484, 3502098495, -0.16445099, -0.7032175, -0.6547111, 0.22315674, -4.0204186, -15.586451, -11.0954685, 0
485, 3502115162, -0.17711003, -0.70367175, -0.6484901, 0.23009428, -5.4026313, -14.562844, -10.655896, 0
487, 3502148496, -0.20944707, -0.7017188, -0.6266023, 0.26663998, -4.3756757, -6.5659223, -9.63435, 0
488, 3502165163, -0.22634436, -0.7013703, -0.610625, 0.28980944, -3.5114865, -6.006684, -8.557299, 0
489, 3502181830, -0.24595122, -0.69760424, -0.5951521, 0.31409362, -2.582312, -7.7799406, -7.0037475, 0
491, 3502215164, -0.29968014, -0.67302036, -0.5680373, 0.36684284, -1.3691053, -6.317724, -3.5965586, 0
492, 3502231831, -0.3295285, -0.65490025, -0.5550497, 0.39298987, -0.41613397, -4.8818665, -2.8541865, 0
494, 3502265165, -0.38416642, -0.61095154, -0.52919257, 0.446222, -2.5228107, -2.744552, 1.7648172, 0
495, 3502281832, -0.40318838, -0.5875542, -0.514634, 0.47683904, -1.0777622, -1.9442589, 3.5399752, 0
498, 3502331833, -0.44863752, -0.5087806, -0.47234353, 0.562817, 4.0854087, 1.7370336, 5.8205566, 0
499, 3502348500, -0.46500656, -0.48545647, -0.45378605, 0.5849647, 2.495762, 4.008273, 4.5694513, 0
500, 3502365167, -0.4787267, -0.4653293, -0.43486857, 0.60430396, 1.2714696, 4.747035, 3.302971, 0
502, 3502398501, -0.49273616, -0.42525995, -0.40785798, 0.64032906, 4.1687493, 4.4976497, 7.7751446, 0
503, 3502415168, -0.49792707, -0.39861313, -0.40255183, 0.65660703, 4.3120728, 5.933293, 7.2927628, 0
504, 3502431835, -0.5031904, -0.37267172, -0.39709765, 0.6709939, 2.8835986, 7.414687, 5.678569, 0
506, 3502465169, -0.51050407, -0.33295444, -0.37965384, 0.6959844, 3.515902, 7.3373127, 3.438962, 0
507, 3502481836, -0.51170385, -0.31662035, -0.371955, 0.70679873, 3.7987492, 7.4325366, 2.9516296, 0
508, 3502498503, -0.5123446, -0.3018192, -0.36526188, 0.7162377, 3.8066125, 8.047047, 2.8728352, 0
510, 3502531837, -0.51650554, -0.27436957, -0.35180905, 0.7308749, 3.98622, 9.711775, 2.1523714, 0
512, 3502565171, -0.5271052, -0.24473193, -0.34264275, 0.7381509, 4.6161366, 9.851249, -3.3550906, 0
514, 3502598505, -0.53515023, -0.22591843, -0.3486888, 0.735524, 1.9972514, 9.798694, -6.607278, 0
515, 3502615172, -0.5377796, -0.2242757, -0.35341138, 0.73184574, 1.3559374, 10.040427, -5.411915, 0
516, 3502631839, -0.54066193, -0.22674163, -0.35629436, 0.7275518, 0.9937252, 9.361333, -4.3896875, 0
518, 3502665173, -0.5471722, -0.23572537, -0.3604844, 0.7176989, 0.50155175, 6.8767004, -3.2665467, 0
519, 3502681840, -0.5481378, -0.24000023, -0.36473966, 0.7133823, -0.7892315, 5.7875056, -3.2096834, 0
521, 3502715174, -0.5432869, -0.2504939, -0.37392694, 0.70871377, 0.4780874, 4.509627, -1.622715, 0
522, 3502731841, -0.54000777, -0.2546926, -0.37740982, 0.70787686, 0.86599505, 4.920049, -0.83575916, 0
523, 3502748508, -0.5381646, -0.25794858, -0.37897146, 0.70726687, 1.1777457, 5.2662163, -0.83244705, 0
525, 3502781842, -0.5382822, -0.26228902, -0.3812417, 0.7043548, 1.7876368, 5.9727573, -2.0247416, 0
527, 3502815176, -0.53973675, -0.26384762, -0.39127958, 0.6971178, 2.0533223, 6.799514, -2.9187832, 0
529, 3502848510, -0.54393953, -0.2609859, -0.41334864, 0.68202895, 4.939439, 9.139039, -1.6824045, 0
530, 3502865177, -0.5499549, -0.2524403, -0.43003437, 0.6699989, 4.7291756, 13.422243, -0.5454874, 0
531, 3502881844, -0.5592216, -0.24236856, -0.44593865, 0.65549356, 2.0283287, 16.239874, -2.9118266, 0
533, 3502915178, -0.57798976, -0.24224256, -0.47347134, 0.61893123, -2.4875782, 16.186232, -3.189021, 0
534, 3502931845, -0.5852663, -0.25597635, -0.48287818, 0.59897614, -4.5500937, 15.656866, -0.07060242, 0
537, 3502981846, -0.5880233, -0.30509648, -0.45244908, 0.597025, 14.713797, -12.709876, 10.909056, 0
538, 3502998513, -0.5918562, -0.29339862, -0.4390296, 0.6089999, 1.9251904, -18.606869, 2.0248737, 0
539, 3503015180, -0.59581435, -0.27978256, -0.42873326, 0.61880463, -0.38699034, -1.6120429, 4.0726414, 0
541, 3503048514, -0.6035473, -0.26537064, -0.41476938, 0.6271203, -0.72342604, -3.7601218, -0.36830807, 0
543, 3503081848, -0.602484, -0.27253547, -0.41986772, 0.6216533, 0.7342729, -2.1574686, -0.33698368, 0
545, 3503115182, -0.59257764, -0.29306212, -0.44533116, 0.6038633, 0.36777917, -2.0440247, -0.5424862, 0
546, 3503131849, -0.58537495, -0.3075669, -0.46243688, 0.5906736, -0.42151013, -0.6025415, -0.39410305, 0
547, 3503148516, -0.5779319, -0.32430652, -0.47924, 0.57545924, -1.0200821, 0.17165996, -0.24947548, 0
549, 3503181850, -0.5595549, -0.36297664, -0.51053613, 0.5426819, -0.78591627, 0.1896684, -0.45268345, 0
550, 3503198517, -0.54089105, -0.39184365, -0.52982026, 0.522676, -0.6354487, -0.9500484, -0.4651003, 0
552, 3503231851, -0.47727618, -0.479103, -0.57529145, 0.46012145, -0.51013124, -6.7723436, 3.010849, 0
553, 3503248518, -0.4382323, -0.53168553, -0.59499353, 0.41382363, -1.4430997, -8.164108, 12.969063, 0
554, 3503265185, -0.407877, -0.5797387, -0.6024876, 0.36681384, -2.700403, -12.375202, 22.295605, 0
556, 3503298519, -0.42403048, -0.60909635, -0.59533536, 0.3078636, -13.218375, 4.919908, 24.125309, 0
557, 3503315186, -0.40639335, -0.62984484, -0.6005347, 0.2783925, -24.639038, -23.815863, 23.60685, 0
560, 3503365187, -0.3056988, -0.6815942, -0.62554175, 0.22512102, -2.5447102, -22.59007, -0.8193302, 0
561, 3503381854, -0.27295524, -0.69309366, -0.6351836, 0.20411474, 2.047038, -22.866869, -4.543443, 0
562, 3503398521, -0.24761096, -0.7025337, -0.6430062, 0.17799594, 3.522786, -21.83523, -8.8563, 0
564, 3503431855, -0.21714257, -0.71900463, -0.64899355, 0.12121508, 1.6535757, -16.305967, -16.011505, 0
565, 3503448522, -0.20894895, -0.7259456, -0.64792126, 0.09770274, 0.73960793, -14.28936, -17.420956, 0
566, 3503465189, -0.20482758, -0.7306637, -0.6460018, 0.082838744, 0.10417671, -13.17874, -17.928734, 0
568, 3503498523, -0.19935837, -0.73990536, -0.63672364, 0.0859268, -0.89274514, -7.497314, -17.286282, 0
569, 3503515190, -0.19472393, -0.7467102, -0.62821835, 0.09925965, -0.73239833, -5.9084153, -16.627682, 0
573, 3503581858, -0.2146592, -0.7595425, -0.58320457, 0.19207594, -2.0894582, -11.708027, -12.756535, 0
575, 3503615192, -0.27061427, -0.7428373, -0.55323505, 0.26248056, -6.241542, -8.881277, -5.9240503, 0
576, 3503631859, -0.2990736, -0.7292995, -0.5362302, 0.3018918, -6.819505, -6.1865487, -2.8624191, 0
577, 3503648526, -0.32465255, -0.7129618, -0.5194568, 0.34125543, -5.740084, -4.8513155, -0.6800356, 0
579, 3503681860, -0.3791371, -0.66321504, -0.49274474, 0.41666248, -2.1052823, -6.144971, 9.2158375, 0
580, 3503698527, -0.41138604, -0.6290978, -0.4810203, 0.4512441, -0.6357357, -1.061147, 11.451927, 0
581, 3503715194, -0.4408071, -0.59460187, -0.46900216, 0.48184958, -1.3805436, 3.6767554, 12.812359, 0
583, 3503748528, -0.473563, -0.53893435, -0.44284746, 0.5377529, -0.82499635, 8.065155, 8.635094, 0
584, 3503765195, -0.4798516, -0.5130143, -0.43646914, 0.5621902, 6.071457, 5.497913, 8.621979, 0
585, 3503781862, -0.4878338, -0.48395458, -0.43599597, 0.58113486, 7.1168365, 4.8002424, 6.986557, 0
588, 3503831863, -0.51594883, -0.40910873, -0.41378963, 0.62865674, 2.1093085, 2.9563892, 4.7396355, 0
589, 3503848530, -0.5210947, -0.3895437, -0.40020782, 0.64541, 1.7950592, 3.5821207, 4.432458, 0
591, 3503881864, -0.52427036, -0.35167834, -0.3785505, 0.6768802, 4.0946136, 5.073398, 2.7304115, 0
592, 3503898531, -0.52345985, -0.3334456, -0.37263706, 0.6898911, 3.9544542, 5.0428658, 2.5610533, 0
593, 3503915198, -0.52097523, -0.31762695, -0.36741838, 0.7019301, 2.8521197, 5.2011976, 3.9007301, 0
595, 3503948532, -0.51784456, -0.2927337, -0.3450208, 0.7260228, 3.4780967, 5.5983014, 6.3946285, 0
596, 3503965199, -0.5201429, -0.2784218, -0.33037826, 0.7367408, 5.1374774, 5.615366, 4.9538145, 0
597, 3503981866, -0.5251122, -0.26063186, -0.31900528, 0.7446934, 5.9389563, 6.04283, 2.7546978, 0
599, 3504015200, -0.53947574, -0.221562, -0.30914444, 0.75120574, 4.0930634, 8.073189, -0.287138, 0
600, 3504031867, -0.54640305, -0.20440707, -0.30774063, 0.75163907, 3.0160956, 9.089518, -1.182373, 0
603, 3504081868, -0.5617637, -0.17032298, -0.30098808, 0.75154656, 1.3829187, 9.942905, -4.8691635, 0
604, 3504098535, -0.56465065, -0.16416197, -0.29855025, 0.7517262, 1.4622487, 8.9345045, -6.5327096, 0
606, 3504131869, -0.5648742, -0.1657468, -0.29641277, 0.7520565, 0.48686284, 7.529799, -5.805644, 0
607, 3504148536, -0.5628354, -0.17280108, -0.29565892, 0.7522938, 1.1158214, 7.0117903, -4.4266105, 0
608, 3504165203, -0.5596847, -0.18116327, -0.29585138, 0.7526015, 1.5900706, 5.997218, -3.6283212, 0
610, 3504198537, -0.5525938, -0.19692242, -0.29969817, 0.7523608, 2.3679051, 5.10448, -1.5915928, 0
611, 3504215204, -0.55030364, -0.2023103, -0.30204186, 0.75167245, 2.6209729, 5.361466, -1.3711481, 0
612, 3504231871, -0.5499023, -0.20652819, -0.30373636, 0.75013477, 2.3841515, 5.2188883, -2.1608658, 0
614, 3504265205, -0.5508754, -0.21687102, -0.310336, 0.7437735, -0.6853424, 4.3955784, -4.569858, 0
615, 3504281872, -0.5470393, -0.22504134, -0.31972426, 0.7401926, -2.0693188, 4.2939425, -4.960822, 0
618, 3504331873, -0.528426, -0.25094336, -0.35561973, 0.7289255, 1.0692279, 5.2464414, 0.60233116, 0
619, 3504348540, -0.5269253, -0.25389898, -0.36463696, 0.72452, 1.105734, 5.5441675, -0.5757866, 0
620, 3504365207, -0.528492, -0.25493827, -0.37323242, 0.71861285, 1.4477574, 6.460509, -1.763587, 0
622, 3504398541, -0.5362945, -0.24618554, -0.39812765, 0.70233846, 1.0503842, 9.077493, -2.08539, 0
623, 3504415208, -0.54343307, -0.23919874, -0.41089562, 0.6918333, -0.40646115, 10.716592, -1.3823929, 0
624, 3504431875, -0.55290043, -0.23268704, -0.4208447, 0.680479, -2.4302075, 13.135775, -1.1170864, 0
626, 3504465209, -0.5683389, -0.22857437, -0.44101626, 0.65593696, -4.761993, 19.359613, -7.592513, 0
627, 3504481876, -0.5681265, -0.23835403, -0.45713878, 0.6414422, -6.065235, 26.231928, -4.7353616, 0
628, 3504498543, -0.55976325, -0.26100576, -0.4748323, 0.6269605, -5.6996365, 31.914883, -1.2752638, 0
630, 3504531877, -0.55699754, -0.3254427, -0.432969, 0.6295893, 32.15172, -33.42647, 24.521526, 0
631, 3504548544, -0.55785537, -0.32390246, -0.42631993, 0.63414514, -3.8723106, -11.792415, 2.2003126, 0
633, 3504581878, -0.55401933, -0.33264077, -0.43923143, 0.62409335, 0.3054584, -1.6350871, -0.17799377, 0
634, 3504598545, -0.5487738, -0.34125972, -0.45551708, 0.6122887, 0.8627301, -2.6212606, -0.7168579, 0
635, 3504615212, -0.5412115, -0.354486, -0.47706404, 0.5948478, -1.0303892, -2.7324643, -0.51008797, 0
637, 3504648546, -0.50449944, -0.4132049, -0.5278675, 0.54415274, -2.130755, -2.5263052, -0.2834425, 0
638, 3504665213, -0.46730798, -0.46617857, -0.55553496, 0.50565404, -0.41262147, -5.980792, 1.1108646, 0
639, 3504681880, -0.4239949, -0.5218702, -0.58766437, 0.45003855, -0.9647767, -9.683912, 8.2017, 0
641, 3504715214, -0.3510311, -0.62358135, -0.60481715, 0.34946224, -8.550744, -25.379988, 26.755367, 0
642, 3504731881, -0.34680364, -0.6403215, -0.60081244, 0.3297641, -20.369793, -16.922201, 34.034992, 0
645, 3504781882, -0.2524766, -0.6878859, -0.62074983, 0.27882373, -2.428649, -21.108828, 5.813257, 0
646, 3504798549, -0.23042886, -0.69611955, -0.6318273, 0.25123426, -7.2278876, -27.209423, 0.6433439, 0
647, 3504815216, -0.2104592, -0.70599836, -0.63676244, 0.22762033, -3.5719078, -24.207912, -6.805806, 0
649, 3504848550, -0.199552, -0.71978337, -0.6399461, 0.18045537, 2.7333202, -20.584604, -16.722902, 0
650, 3504865217, -0.20962445, -0.7224757, -0.6395632, 0.15827125, 0.1770312, -16.290697, -18.984665, 0
653, 3504915218, -0.2510802, -0.7194924, -0.6292502, 0.15276738, -3.3121219, -8.785085, -16.879898, 0
654, 3504931885, -0.26305702, -0.7152534, -0.62470675, 0.17017442, -3.8734956, -6.8496857, -15.349054, 0
656, 3504965219, -0.28323025, -0.7090926, -0.6047198, 0.22646566, -0.8268131, -7.637629, -12.2528305, 0
657, 3504981886, -0.3021876, -0.70106554, -0.5914499, 0.25957912, 1.5869167, -6.079289, -9.341696, 0
658, 3504998553, -0.32705134, -0.6897452, -0.57779336, 0.28887376, 1.9288433, -1.2473425, -6.4019156, 0
661, 3505048554, -0.3847961, -0.66172373, -0.5385506, 0.35216624, 11.074799, 1.4494636, 10.070477, 0
662, 3505065221, -0.4003693, -0.6373439, -0.5419629, 0.37386867, -6.859138, 7.7692165, -1.2279243, 0
664, 3505098555, -0.39441767, -0.61089957, -0.5437211, 0.41905633, -0.44862625, 1.4534584, 2.8629494, 0
665, 3505115222, -0.39190906, -0.5978556, -0.54131985, 0.44266593, -3.5007343, 5.0957785, 1.816328, 0
666, 3505131889, -0.38528788, -0.5870875, -0.5374184, 0.46697658, -0.9865539, 6.0131826, 4.1542864, 0
668, 3505165223, -0.373823, -0.560325, -0.5419441, 0.5025862, 3.4116597, 4.0705256, 2.3535662, 0
669, 3505181890, -0.36850113, -0.55231136, -0.53838617, 0.5189446, 0.43918967, 4.8345904, 1.6327534, 0
670, 3505198557, -0.36240602, -0.5460746, -0.532413, 0.53572834, 0.10247197, 4.303303, 0.6956606, 0
672, 3505231891, -0.34562883, -0.53051937, -0.52189344, 0.57159555, 0.059602413, 14.417469, -5.754646, 0
673, 3505248558, -0.31846964, -0.5660045, -0.5268232, 0.54834086, 30.83961, 23.503338, 21.629288, 0
676, 3505298559, -0.27802628, -0.57182914, -0.5330252, 0.5582126, -2.7851775, 8.952755, -9.800375, 0
677, 3505315226, -0.26538262, -0.5806607, -0.5290264, 0.559053, -3.1270394, -2.8072593, 2.5902452, 0
678, 3505331893, -0.2527179, -0.58239454, -0.52855897, 0.5635424, -6.1292257, -1.6198466, -2.2210445, 0
680, 3505365227, -0.23754737, -0.58046526, -0.5238923, 0.57634395, -3.1694105, -8.50985, -2.4427543, 0
681, 3505381894, -0.24074323, -0.5711106, -0.52289504, 0.58520126, -3.0536842, -7.3810673, -5.344191, 0
683, 3505415228, -0.25904283, -0.5500207, -0.5147112, 0.604525, -3.1606288, -5.4040837, -0.89422226, 0
684, 3505431895, -0.27095625, -0.5389669, -0.5047563, 0.61751354, -2.4158256, -4.4765415, -0.09511089, 0
685, 3505448562, -0.28353083, -0.52555776, -0.49602622, 0.6303661, -1.2319708, -4.8278513, 0.640008, 0
687, 3505481896, -0.30664074, -0.49349692, -0.48313904, 0.65499085, -0.95198214, -3.8053455, 1.4902439, 0
688, 3505498563, -0.31788456, -0.47808334, -0.4752625, 0.66672, 1.6751263, -4.3121376, 2.2971306, 0
691, 3505548564, -0.34297362, -0.45271412, -0.42917252, 0.70230633, 13.647526, 21.987297, -2.1412482, 0
692, 3505565231, -0.33784807, -0.4575034, -0.43598664, 0.6974734, 9.357558, 9.134018, 12.265366, 0
693, 3505581898, -0.3394066, -0.45309561, -0.43768585, 0.69852906, 0.65392345, 1.9016407, -0.91685295, 0
695, 3505615232, -0.34486356, -0.44853827, -0.42922783, 0.7040243, -4.445236, -6.3652525, -3.5808911, 0
696, 3505631899, -0.35202402, -0.44412434, -0.41989395, 0.7088908, -0.5946726, -4.021053, -3.462768, 0
697, 3505648566, -0.3587816, -0.43966818, -0.41546917, 0.71088487, 0.9250912, 4.6660285, -0.89068985, 0
699, 3505681900, -0.37094125, -0.42119306, -0.417021, 0.7149103, -3.2064376, 1.7107301, -3.082387, 0
700, 3505698567, -0.3820175, -0.41602865, -0.41153827, 0.7152786, -2.0781064, -0.56525356, -0.8400364, 0
701, 3505715234, -0.39206374, -0.41466808, -0.4002578, 0.7170317, 0.85534745, -3.4961114, 1.334137, 0
703, 3505748568, -0.40758526, -0.40757626, -0.3870722, 0.7196772, 2.6982746, -2.6657758, 1.8176384, 0
704, 3505765235, -0.41325703, -0.4050389, -0.3800201, 0.72163093, 0.8626183, -3.0610335, 2.2604742, 0
705, 3505781902, -0.41708755, -0.4046146, -0.3731185, 0.72326475, 0.42088452, -2.0646174, 1.1214237, 0
707, 3505815236, -0.4211023, -0.40545052, -0.36274245, 0.72574437, -0.27209416, 1.9159222, 1.1930294, 0
708, 3505831903, -0.4221011, -0.4064817, -0.35953885, 0.7261814, -1.309644, 0.39433876, 1.2837982, 0
709, 3505848570, -0.42277896, -0.40542924, -0.35679018, 0.72772944, -0.92583036, -1.2148722, 0.6654768, 0
711, 3505881904, -0.4251731, -0.40079015, -0.35118058, 0.7316226, 1.0496992, -1.1055409, -1.5430279, 0
712, 3505898571, -0.42637444, -0.39921153, -0.34982854, 0.73243374, 1.7406619, 0.6102241, -0.5523052, 0
714, 3505931905, -0.42774913, -0.3978104, -0.34744093, 0.7335303, -0.31608945, 0.7949235, -0.35441685, 0
715, 3505948572, -0.42730477, -0.39759338, -0.34741175, 0.7339208, -0.070652, 0.632921, 0.5112238, 0
718, 3505998573, -0.42942804, -0.3959046, -0.34557578, 0.73446095, -0.33517936, 0.6328026, 0.10585976, 0
719, 3506015240, -0.43111438, -0.39238164, -0.34298554, 0.73657465, -0.18123001, 1.3314705, 0.109350204, 0
720, 3506031907, -0.43375465, -0.38956392, -0.33948436, 0.73814046, 0.1283921, 1.5507774, -0.45267582, 0
722, 3506065241, -0.43899, -0.38846174, -0.33495304, 0.73769635, 1.4547551, 0.89081895, 1.5780134, 0
723, 3506081908, -0.4400043, -0.3903467, -0.33487985, 0.73612875, 2.0249786, -1.1730697, -1.0508823, 0
724, 3506098575, -0.44033933, -0.39273164, -0.33568412, 0.7342914, 1.2354158, -1.1540121, 0.15245247, 0
726, 3506131909, -0.44243073, -0.39792952, -0.33670434, 0.72975457, -0.7997282, -0.022748478, -1.3657494, 0
727, 3506148576, -0.44491023, -0.40010756, -0.3356446, 0.7275411, -1.0414704, -0.56080353, 1.8926144, 0
728, 3506165243, -0.44834208, -0.40001482, -0.33257723, 0.7268937, -0.5525211, -0.5847081, 3.986061, 0
730, 3506198577, -0.45394608, -0.40453446, -0.33041665, 0.72188246, 0.6959478, -0.6499971, 0.66732407, 0
732, 3506231911, -0.4560271, -0.40735513, -0.33310977, 0.7177352, -0.24455681, -3.37532, -2.0466442, 0
734, 3506265245, -0.45665056, -0.41395193, -0.34136564, 0.7096392, -0.4901361, -2.6490881, -3.865522, 0
735, 3506281912, -0.45770317, -0.41003665, -0.34281874, 0.7105335, 1.5479132, 1.34674, 0.24383354, 0
737, 3506315246, -0.4590442, -0.39074656, -0.34228367, 0.72072333, -0.7605386, -1.4314944, 2.8377123, 0
738, 3506331913, -0.459214, -0.38776854, -0.34440592, 0.7212123, -0.5506923, -2.2016027, 3.2720222, 0
739, 3506348580, -0.4612429, -0.38708284, -0.35050863, 0.71733546, 3.2733874, -3.7875485, -0.13906765, 0
741, 3506381914, -0.48013204, -0.37374002, -0.38037533, 0.69649905, 0.7664417, -4.009205, -4.483018, 0
742, 3506398581, -0.50333095, -0.3565041, -0.39250746, 0.6822793, -8.942547, 7.5540442, -3.112764, 0
743, 3506415248, -0.51863605, -0.35119662, -0.3889378, 0.6755809, 1.3266484, 5.104771, -4.1891522, 0
745, 3506448582, -0.5331507, -0.33153138, -0.37935767, 0.67965394, 6.3470125, -2.1052847, -1.4764795, 0
747, 3506481916, -0.53577644, -0.30674067, -0.368316, 0.695127, -0.6547714, -4.4953623, 1.6851149, 0
749, 3506515250, -0.5328312, -0.2966887, -0.37005207, 0.7008087, -2.6623604, 0.32300997, 4.377698, 0
750, 3506531917, -0.5330362, -0.29511315, -0.3698615, 0.7014184, -0.5002942, 2.001901, 1.8543282, 0
751, 3506548584, -0.534482, -0.29407752, -0.36866724, 0.701382, 2.1306317, 1.1939054, 1.4352493, 0
753, 3506581918, -0.54132724, -0.29338267, -0.36422598, 0.6987386, 3.6112616, 2.6878502, 0.98578644, 0
754, 3506598585, -0.5447398, -0.29299557, -0.3620515, 0.6973775, 1.6374496, 3.0240736, 2.1153154, 0
755, 3506615252, -0.54798925, -0.29312855, -0.36013138, 0.69576824, 1.1627452, 4.8636007, 1.7738085, 0
757, 3506648586, -0.5535231, -0.2955598, -0.35801682, 0.69143707, 1.845412, 3.0294194, -2.0376, 0
758, 3506665253, -0.555043, -0.29866654, -0.35790667, 0.6889361, 1.5704244, 2.2866685, -1.8748245, 0
759, 3506681920, -0.5560073, -0.30093145, -0.35768744, 0.6872849, -0.21169806, 2.0842617, 0.16796589, 0
762, 3506731921, -0.55868787, -0.30364332, -0.35528204, 0.6851626, 0.17577395, 3.6187198, 1.6032267, 0
764, 3506765255, -0.55954415, -0.30071324, -0.35178047, 0.68755877, -0.61158955, -1.4896477, -2.346188, 0
765, 3506781922, -0.5600394, -0.30168253, -0.35096866, 0.68714565, -0.4716405, -0.95822763, -0.20543861, 0
766, 3506798589, -0.560721, -0.3026456, -0.3501775, 0.68656975, -0.63268113, 0.33825108, 0.71834755, 0
768, 3506831923, -0.56139195, -0.30506304, -0.34947503, 0.68530834, -0.06751991, 0.69095343, 2.3204699, 0
769, 3506848590, -0.5618768, -0.306639, -0.3489688, 0.68446505, -0.3727416, -1.0624274, -1.6909266, 0
770, 3506865257, -0.5614981, -0.30855137, -0.34943727, 0.6836769, -0.21327047, -0.04723231, 1.5744848, 0
772, 3506898591, -0.56016314, -0.3130836, -0.35097578, 0.68192124, -0.016642552, -0.5089434, 0.20336246, 0
773, 3506915258, -0.55941933, -0.3154024, -0.3517521, 0.6810627, -1.1369025, -0.2063732, 0.5443125, 0
774, 3506931925, -0.55887556, -0.3173958, -0.35202172, 0.6804434, -1.3577353, 0.3218951, 0.26166534, 0
776, 3506965259, -0.557695, -0.32276735, -0.3525189, 0.67862535, -1.0708399, 0.8275035, -0.6727686, 0
777, 3506981926, -0.5565087, -0.32512015, -0.3529318, 0.67826146, -0.10643508, 0.26046064, -0.7482109, 0
778, 3506998593, -0.5552645, -0.32630154, -0.35261336, 0.6788794, 0.055604883, -0.5720319, 0.8899946, 0
780, 3507031927, -0.55251026, -0.32653308, -0.35118988, 0.681747, -1.333205, 0.3203961, -0.012028694, 0
781, 3507048594, -0.5505641, -0.32680342, -0.351504, 0.6830289, -1.3088912, 1.373152, 0.5643997, 0
782, 3507065261, -0.548614, -0.32670793, -0.35165805, 0.68456256, -0.5879636, -0.23306121, -0.6526079, 0
784, 3507098595, -0.5446845, -0.32796988, -0.35247457, 0.68667364, -1.2513362, 1.0023028, 1.9040194, 0
785, 3507115262, -0.5430456, -0.32897064, -0.35259497, 0.6874309, -1.8254737, -0.8181839, -0.5156355, 0
786, 3507131929, -0.54165804, -0.33055335, -0.3526303, 0.6877483, -1.1075372, 1.023423, 0.47559452, 0
789, 3507181930, -0.5389933, -0.3345958, -0.3513315, 0.68855095, -0.4169679, -0.21183564, 0.09460926, 0
790, 3507198597, -0.5378963, -0.3361684, -0.35125044, 0.6886843, -0.79398507, 0.3552973, 0.5871067, 0
792, 3507231931, -0.53557944, -0.34047046, -0.35161486, 0.6881905, -0.6415551, -0.0120779695, -1.2433071, 0
793, 3507248598, -0.5338438, -0.34253713, -0.35253835, 0.688041, -0.2809558, 1.180013, 1.6154985, 0
795, 3507281932, -0.52955073, -0.34617248, -0.35521302, 0.68816364, -0.007996735, -0.9324882, -2.5876613, 0
796, 3507298599, -0.52628046, -0.34903657, -0.3581646, 0.68769556, -0.25899208, -0.2837183, 0.7590141, 0
797, 3507315266, -0.5234871, -0.35006952, -0.3598785, 0.6884075, -1.138496, 0.31665504, 1.5842171, 0
799, 3507348600, -0.5179443, -0.35333413, -0.36355805, 0.6889985, -0.7807142, 0.7327915, 1.242693, 0
800, 3507365267, -0.5162779, -0.35390285, -0.36417624, 0.68963045, 0.7578189, -0.03524911, 0.08432007, 0
801, 3507381934, -0.5143752, -0.35420978, -0.3652136, 0.6903458, -0.22142757, 0.25461736, 0.22903156, 0
804, 3507431935, -0.50870216, -0.3519349, -0.3676448, 0.6944105, -0.5061822, -0.42067596, 0.57138634, 0
805, 3507448602, -0.5076692, -0.35088283, -0.3680313, 0.6954932, -0.41329044, 0.20266624, -0.4224224, 0
807, 3507481936, -0.5068222, -0.34989738, -0.36856636, 0.69632363, -0.13667616, 0.348107, 0.60855293, 0
808, 3507498603, -0.50709665, -0.34925365, -0.36828107, 0.6965978, 0.44743, -0.7891833, -0.4446249, 0
809, 3507515270, -0.5071956, -0.3493494, -0.36847684, 0.6963742, 0.27918154, -0.46204588, -0.012935638, 0
811, 3507548604, -0.50591815, -0.350236, -0.370538, 0.69576406, 1.0624378, 0.47791517, -0.10909939, 0
812, 3507565271, -0.505272, -0.3505077, -0.37151957, 0.69557333, 1.1503977, 0.85203606, 1.2189894, 0
813, 3507581938, -0.50457305, -0.35019866, -0.3724175, 0.6957564, -0.11357699, -0.48256424, -0.99018, 0
815, 3507615272, -0.5028029, -0.35057354, -0.37546802, 0.69520926, -0.08965932, -0.5889199, -0.80080223, 0
816, 3507631939, -0.50233006, -0.3505427, -0.3763608, 0.69508386, 0.3506784, 0.7276699, 0.830657, 0
819, 3507681940, -0.5024424, -0.351063, -0.37852892, 0.69356096, 0.6768198, 1.1192889, 1.0332556, 0
820, 3507698607, -0.50298476, -0.35074493, -0.37842047, 0.6933881, 0.4322412, 0.9507602, 1.3853636, 0
822, 3507731941, -0.50421643, -0.3486057, -0.37741083, 0.6941222, -0.0952125, -0.82966834, -0.87263584, 0
823, 3507748608, -0.5045341, -0.34779856, -0.37765315, 0.6941644, -0.010128713, -0.46237087, 0.36112404, 0
824, 3507765275, -0.50512254, -0.3469012, -0.37757602, 0.69422746, 0.15481804, -1.5369858, -1.4418087, 0
826, 3507798609, -0.5051117, -0.34662607, -0.37908024, 0.69355255, 0.3460575, 0.5397603, 2.0004892, 0
827, 3507815276, -0.5057954, -0.3445442, -0.37878063, 0.6942551, -0.19034699, -0.35103, -0.91969204, 0
828, 3507831943, -0.5057739, -0.3447308, -0.37964863, 0.69370395, -0.14286055, 0.31932223, -1.9372435, 0
830, 3507865277, -0.50661683, -0.34413275, -0.37985846, 0.6932707, -0.25065055, 0.17515257, 1.4166412, 0
831, 3507881944, -0.5076974, -0.3432013, -0.3792038, 0.69330025, -1.0381829, -2.111168, -0.63279724, 0
834, 3507931945, -0.5109738, -0.3399828, -0.37728137, 0.69352776, -0.0022905609, 0.36604404, 2.8253613, 0
835, 3507948612, -0.5117835, -0.3392735, -0.37690696, 0.6934817, -0.60837656, -2.0432918, -0.94013023, 0
836, 3507965279, -0.51254416, -0.34021655, -0.37698165, 0.69241655, 0.107062705, -1.2781305, 1.6628008, 0
838, 3507998613, -0.51477855, -0.34670264, -0.37798735, 0.686972, -1.1194596, -3.3056796, -2.567378, 0
839, 3508015280, -0.5141841, -0.35252628, -0.3808129, 0.68288064, -0.6602597, -2.6810253, 1.1268167, 0
840, 3508031947, -0.5137835, -0.3576874, -0.38310027, 0.67920923, 0.12551974, -3.3612602, 0.97222614, 0
842, 3508065281, -0.5134397, -0.3636557, -0.38578615, 0.6747651, -0.23064011, -3.1885915, -0.22600842, 0
843, 3508081948, -0.5160381, -0.3596403, -0.38264325, 0.6767218, -0.7799326, -2.5974283, -1.3789434, 0
845, 3508115282, -0.5275392, -0.34037235, -0.366907, 0.6864642, -1.6323464, -2.2629414, -0.26987934, 0
846, 3508131949, -0.5328986, -0.33455712, -0.3606417, 0.68850046, -0.8409548, -3.5269258, -1.9580832, 0
847, 3508148616, -0.53641015, -0.33464706, -0.3583187, 0.68694115, 0.9475818, -4.399512, 0.9631071, 0
849, 3508181950, -0.537288, -0.3442546, -0.36163768, 0.67973024, 1.3659178, -2.9899395, 0.31970978, 0
850, 3508198617, -0.53548473, -0.34958133, -0.36557466, 0.6763201, 0.8996127, -0.49908307, -2.8807411, 0
851, 3508215284, -0.5334094, -0.35388315, -0.37012982, 0.67323834, 0.8195577, 2.250355, -3.087565, 0
853, 3508248618, -0.5305471, -0.35075602, -0.37472647, 0.67459214, -0.14223067, 5.139149, -0.26139355, 0
854, 3508265285, -0.5305558, -0.3476528, -0.37371323, 0.6767505, -1.4820982, 6.1479144, 0.06730747, 0
855, 3508281952, -0.5311483, -0.34235033, -0.37093073, 0.6805093, -2.3058496, 4.736209, -2.0263653, 0
857, 3508315286, -0.5318494, -0.32690182, -0.3633026, 0.6915831, -0.2886755, -0.88510615, -0.55148315, 0
858, 3508331953, -0.530118, -0.32145557, -0.36118636, 0.6965561, 0.8793943, 0.3952564, -1.3588676, 0
861, 3508381954, -0.5207485, -0.3125167, -0.35995767, 0.70822984, -1.2064776, 2.1651945, 0.43969154, 0
862, 3508398621, -0.5182319, -0.31290174, -0.36088422, 0.7094331, -0.3759611, -0.3792163, 0.6493406, 0
863, 3508415288, -0.5158954, -0.3129021, -0.3616056, 0.7107673, 0.74539113, 0.6286862, -0.30891705, 0
865, 3508448622, -0.5125429, -0.3110281, -0.3615888, 0.71401644, 1.3322333, 4.2433352, 1.9220686, 0
866, 3508465289, -0.51252985, -0.30782202, -0.35971963, 0.7163555, 0.753919, 4.222171, 2.15267, 0
867, 3508481956, -0.51327735, -0.30668065, -0.35792717, 0.7172072, 0.44236076, 2.7291431, 1.1907568, 0
869, 3508515290, -0.5146316, -0.30768785, -0.35621715, 0.7166565, 0.789798, -0.63520885, -1.8017626, 0
870, 3508531957, -0.51505435, -0.30900127, -0.35600305, 0.7158936, 1.9584715, 1.3439976, -1.6967316, 0
871, 3508548624, -0.5154282, -0.30878416, -0.35521588, 0.71610916, 0.94601053, 0.78715616, -1.1120443, 0
873, 3508581958, -0.5161891, -0.3049267, -0.35218927, 0.71870434, -0.10790066, 1.2881551, -1.7274399, 0
876, 3508631959, -0.51905364, -0.29640445, -0.34454936, 0.72389084, -0.20930044, 0.6776693, -0.78705215, 0
877, 3508648626, -0.5186523, -0.2955938, -0.34364408, 0.72493964, 0.2495321, 0.40929502, 1.0085392, 0
878, 3508665293, -0.5182852, -0.29502657, -0.343358, 0.72556853, 0.48536083, 0.6668438, -0.5050249, 0
880, 3508698627, -0.51717407, -0.29345298, -0.3435492, 0.7269078, 0.0140296845, -0.11643818, 0.23656845, 0
881, 3508715294, -0.5165524, -0.292929, -0.34368265, 0.72749794, 0.082914256, 1.2110089, -0.33094215, 0
882, 3508731961, -0.51593053, -0.29261225, -0.34395564, 0.7279374, -0.33567736, 0.6008966, 0.4300785, 0
884, 3508765295, -0.51513207, -0.29281145, -0.34427598, 0.7282714, -0.3705797, 0.14574397, -1.2436237, 0
885, 3508781962, -0.515104, -0.2933491, -0.3442395, 0.72809196, 0.11347082, -0.56073457, -0.01978302, 0
886, 3508798629, -0.5153033, -0.2939377, -0.34386396, 0.7278909, 0.5254204, 1.1270189, 0.66697216, 0
888, 3508831963, -0.51622456, -0.29487315, -0.342674, 0.72742087, -0.65363145, 0.5719047, 1.1963453, 0
890, 3508865297, -0.5173994, -0.29588193, -0.3421962, 0.72640085, 0.6598657, -0.08503003, -1.2437296, 0
892, 3508898631, -0.5164092, -0.29589453, -0.34208417, 0.7271527, -0.07087037, 0.003756247, -0.16360378, 0
893, 3508915298, -0.51510906, -0.29717937, -0.3432423, 0.72700506, -0.15027112, 1.045328, -1.6145535, 0
894, 3508931965, -0.5142232, -0.29810128, -0.34404078, 0.7268773, -0.6202623, 2.1987975, 1.9663677, 0
896, 3508965299, -0.5133162, -0.30177683, -0.34469688, 0.72569, -0.3304592, 1.7857852, 1.3372564, 0
897, 3508981966, -0.51334685, -0.30195808, -0.34367868, 0.7260757, -0.735409, -0.34649113, -0.3351822, 0
899, 3509015300, -0.513114, -0.30386102, -0.3425092, 0.7259991, -0.017369863, 1.0212877, 1.6842155, 0
900, 3509031967, -0.5126939, -0.3040907, -0.3414747, 0.7266864, 0.12906599, 2.0965483, -0.5142536, 0
901, 3509048634, -0.5111757, -0.3065532, -0.34241498, 0.72627884, -0.40302962, 1.4801128, -1.5445795, 0
903, 3509081968, -0.5079804, -0.31115028, -0.34460348, 0.72553056, -0.283629, 0.29826674, -1.0762272, 0
905, 3509115302, -0.5032106, -0.31620386, -0.3484203, 0.72484624, -0.5989101, 0.59824026, 0.11745167, 0
907, 3509148636, -0.4994413, -0.31902987, -0.35021034, 0.72535205, -0.73115325, 1.3820196, 0.40802002, 0
908, 3509165303, -0.49792504, -0.31894094, -0.3499856, 0.7265411, -0.3984695, 1.0276783, 2.0877275, 0
909, 3509181970, -0.49674448, -0.31771335, -0.3491135, 0.7283045, -0.20359348, -0.4460172, 0.20813942, 0
911, 3509215304, -0.49384516, -0.3168616, -0.34955773, 0.730431, -0.19511028, -0.19049965, 0.23556232, 0
912, 3509231971, -0.4928063, -0.3161939, -0.3493433, 0.73152405, 0.7156896, 0.7286921, 0.94786835, 0
913, 3509248638, -0.49201334, -0.31566024, -0.34914738, 0.73238117, 0.043871794, 0.28581753, -0.023679733, 0
915, 3509281972, -0.48944902, -0.31682652, -0.35201463, 0.7322234, 0.3378682, -0.3245283, -1.0959044, 0
916, 3509298639, -0.48855138, -0.3181271, -0.35379574, 0.7314, 0.62670237, 0.9978081, 0.8839855, 0
917, 3509315306, -0.48836038, -0.31946325, -0.35452646, 0.7305908, -0.032018453, 1.4766237, 0.76896286, 0
919, 3509348640, -0.48977882, -0.32066533, -0.35347852, 0.72962177, 0.05285925, 0.66457856, 0.57081985, 0
920, 3509365307, -0.490745, -0.32144782, -0.3528132, 0.72895, -0.1994386, -0.18251029, -0.21323776, 0
921, 3509381974, -0.4911802, -0.3225556, -0.35260355, 0.72826874, 0.12840025, -1.157387, -0.9603777, 0
923, 3509415308, -0.49052227, -0.32774067, -0.35517392, 0.72514135, 0.15012695, 0.2598299, 0.6812906, 0
924, 3509431975, -0.49107647, -0.32837093, -0.35501653, 0.72455806, -1.3301373, 0.977823, 1.8027582, 0
926, 3509465309, -0.49249202, -0.33321017, -0.35481668, 0.7214793, -0.2854475, 0.7459631, 0.18991661, 0
927, 3509481976, -0.4935345, -0.33529872, -0.35390157, 0.7202478, -0.054178424, -0.3239, 1.1997089, 0
928, 3509498643, -0.49444428, -0.33621904, -0.35273197, 0.7197683, -0.083102114, -1.3822641, -0.610548, 0
930, 3509531977, -0.49439844, -0.33613116, -0.35115004, 0.7206138, -0.11595047, 0.4324694, 1.5151176, 0
932, 3509565311, -0.4955467, -0.33309424, -0.34646803, 0.7234959, -2.0766878, 0.78937835, 1.7666702, 0
934, 3509598645, -0.49513298, -0.33453473, -0.34463716, 0.7239887, -1.0678138, -4.2567906, -2.3508658, 0
935, 3509615312, -0.492665, -0.33882138, -0.34680492, 0.72264254, -0.22091305, -3.4466922, 0.1092453, 0
936, 3509631979, -0.48955134, -0.34238064, -0.3492705, 0.72189313, -1.0484803, -3.5944338, -0.012179375, 0
938, 3509665313, -0.48200282, -0.3500345, -0.35633364, 0.7198473, -2.0482275, -1.6059766, 0.7368851, 0
939, 3509681980, -0.4795442, -0.35427418, -0.358308, 0.7184338, -1.6255212, 0.09798025, 2.2932014, 0
940, 3509698647, -0.47752437, -0.35944104, -0.35983995, 0.7164444, -2.1683655, -0.6264327, 1.7507992, 0
942, 3509731981, -0.47298497, -0.36947566, -0.3629437, 0.7127759, -0.74606526, -3.4395213, -3.1682305, 0
943, 3509748648, -0.4719891, -0.36819506, -0.36224988, 0.7144497, 1.2639736, -1.8259308, -1.9336977, 0
944, 3509765315, -0.47342944, -0.35774392, -0.35740876, 0.7212125, 1.1831933, 1.1077927, 2.9854584, 0
947, 3509815316, -0.4822132, -0.34325072, -0.3454612, 0.72822416, -1.4923916, -4.3661656, 1.4248009, 0
948, 3509831983, -0.48263815, -0.35827297, -0.34958833, 0.7186749, 4.427545, -2.797063, -0.43831158, 0
951, 3509881984, -0.48055926, -0.37180847, -0.3563687, 0.70980793, 2.6247873, 5.776623, 2.5955753, 0
952, 3509898651, -0.48255375, -0.35940865, -0.3535714, 0.7162117, -0.35100362, 3.675447, -2.0560355, 0
954, 3509931985, -0.48884475, -0.3495318, -0.34880522, 0.7191646, 1.5584146, 2.9121795, 0.35701847, 0
955, 3509948652, -0.49075595, -0.34216884, -0.346292, 0.7226102, 3.06378, -0.21342951, -4.061139, 0
957, 3509981986, -0.49446657, -0.32273087, -0.33841044, 0.73268723, -2.8097723, -1.7151586, 2.4581938, 0
958, 3509998653, -0.49727798, -0.31594822, -0.3332062, 0.736118, -3.338815, 1.7367167, -0.061101913, 0
959, 3510015320, -0.49959877, -0.31277242, -0.3293399, 0.7376412, -0.46327552, 5.961997, 6.438097, 0
961, 3510048654, -0.50176543, -0.31376624, -0.32638785, 0.7370603, 1.8703616, 3.9280095, -0.31011772, 0
963, 3510081988, -0.4988637, -0.32449603, -0.32979095, 0.7328574, 2.2924817, 5.0641546, -0.94082737, 0
965, 3510115322, -0.4934232, -0.33315545, -0.33448496, 0.73052394, -0.47043028, 4.358446, -1.2568703, 0
966, 3510131989, -0.49103478, -0.3368638, -0.33593485, 0.7297672, 0.22774863, 2.982202, -1.8165326, 0
967, 3510148656, -0.4889096, -0.3410578, -0.33683217, 0.72883165, -0.08719173, 1.81363, -1.7255354, 0
969, 3510181990, -0.48527977, -0.34705853, -0.33657095, 0.72854537, -0.73997843, 1.873492, -0.61963177, 0
970, 3510198657, -0.4835853, -0.3494571, -0.33611095, 0.72873795, 0.05639098, 3.0285354, 0.85236263, 0
971, 3510215324, -0.4818276, -0.35066116, -0.33556756, 0.72957385, -0.23643848, 1.1145579, 1.5042334, 0
973, 3510248658, -0.47772044, -0.3532621, -0.3359125, 0.7308601, 0.3800507, -1.1807047, -0.4727373, 0
974, 3510265325, -0.47593302, -0.35313618, -0.3356534, 0.7322047, -1.5915937, -1.1107002, 1.3822756, 0
975, 3510281992, -0.4744258, -0.35399944, -0.33564392, 0.7327703, -3.1924846, -2.6359499, -3.1290321, 0
980, 3510365327, -0.4695771, -0.36085412, -0.33281496, 0.7338396, 1.1415527, 1.583161, 3.0531044, 0
981, 3510381994, -0.46813947, -0.35773572, -0.33157092, 0.73684186, -1.5952228, -2.0656822, -0.59488773, 0
982, 3510398661, -0.46562308, -0.35710374, -0.3324691, 0.7383367, -1.503115, -3.1959465, -2.9559193, 0
984, 3510431995, -0.4608884, -0.35507584, -0.33412856, 0.74152935, -0.45485914, 1.3895911, -0.7441044, 0
985, 3510448662, -0.45775458, -0.35503942, -0.33624825, 0.7425292, 0.22833167, 1.440776, -2.3733582, 0
986, 3510465329, -0.45413288, -0.3544599, -0.3388905, 0.7438277, 1.4001938, 1.9618948, -0.38106823, 0
988, 3510498663, -0.4480374, -0.35182077, -0.34146538, 0.7475899, -0.2795177, 0.91113985, 3.0048647, 0
989, 3510515330, -0.44690534, -0.3454822, -0.33926937, 0.7522091, -3.2444232, -0.8454724, 5.3735094, 0
990, 3510531997, -0.44551265, -0.341241, -0.33799988, 0.7555353, -4.115932, -4.8137174, -4.4954233, 0
992, 3510565331, -0.43993202, -0.3409173, -0.34267464, 0.7568449, 2.317417, 2.6436608, 2.000084, 0
993, 3510581998, -0.43750006, -0.33903003, -0.34433308, 0.75834805, 0.46158063, 2.2317755, 0.26239872, 0
994, 3510598665, -0.43583727, -0.3401392, -0.3460961, 0.75800604, -1.1108818, -0.4738137, -1.3387909, 0
996, 3510631999, -0.43534738, -0.34758735, -0.34881338, 0.7536508, 1.315991, 0.9496366, 2.2888775, 0
997, 3510648666, -0.43633217, -0.34930483, -0.34823215, 0.7525553, -1.1001505, -0.80589074, 2.2003384, 0
998, 3510665333, -0.43605122, -0.3493356, -0.34885612, 0.7524148, 0.43444628, -0.54028255, -0.32588005, 0
1000, 3510698667, -0.4330237, -0.35233378, -0.3521331, 0.7512378, 1.809504, -0.14920709, -2.2656808, 0
1001, 3510715334, -0.43138918, -0.3561928, -0.35569283, 0.7486771, 0.80223876, 0.27001148, -1.9755778, 0
1002, 3510732001, -0.4290583, -0.3585097, -0.3592296, 0.74722034, 0.3205311, 2.085397, 2.0990496, 0
1004, 3510765335, -0.4256295, -0.3608185, -0.36499026, 0.74527586, 0.9849373, 2.2936234, 0.8219938, 0
1007, 3510815336, -0.423344, -0.36641642, -0.36960045, 0.7415654, 0.33779076, 0.08484116, -1.0458736, 0
1008, 3510832003, -0.42292872, -0.37061608, -0.3714295, 0.7387962, 0.019809507, 0.32462654, -1.7120981, 0
1009, 3510848670, -0.42219776, -0.37525687, -0.37405273, 0.7355411, -0.45497268, 0.04451439, -1.159133, 0
1011, 3510882004, -0.4185693, -0.38337746, -0.38056836, 0.73006415, 2.131843, 3.7550035, 2.8664227, 0
1012, 3510898671, -0.41746855, -0.3849551, -0.3815456, 0.7293538, 3.0454493, 6.0848856, 4.8291035, 0
1013, 3510915338, -0.41670725, -0.38649395, -0.3819556, 0.72876054, 0.44180274, 2.9803038, -0.20994759, 0
1015, 3510948672, -0.410212, -0.4000474, -0.39035046, 0.7206383, 1.7752959, 0.05465171, -1.6069965, 0
1016, 3510965339, -0.4046944, -0.4092678, -0.39751938, 0.71463656, 2.0648618, 0.29065737, 0.08781052, 0
1017, 3510982006, -0.39727572, -0.418334, -0.40639174, 0.70853305, 1.3058796, 2.6976626, 1.0708008, 0
1019, 3511015340, -0.37212315, -0.43769962, -0.4334875, 0.6942886, 0.4664702, -0.28081095, 0.86138153, 0
1021, 3511048674, -0.3345684, -0.4572364, -0.46660987, 0.6791751, 1.5094225, -1.8688537, 1.208478, 0
1023, 3511082008, -0.28539178, -0.4778647, -0.49677318, 0.6658963, 1.2168528, -0.7599016, 2.4915047, 0
1024, 3511098675, -0.26050076, -0.49281967, -0.4974515, 0.6646913, 0.52154493, -2.026545, 3.8662062, 0
1025, 3511115342, -0.2371288, -0.5075408, -0.48634073, 0.6705591, 2.0914118, -3.7778459, 3.8278942, 0
1027, 3511148676, -0.2250857, -0.53121644, -0.470342, 0.6677788, 11.620543, -10.526124, -1.6329479, 0
1028, 3511165343, -0.2509145, -0.54689485, -0.45758873, 0.6546488, 5.519787, -11.247833, 1.0579977, 0
1029, 3511182010, -0.28250837, -0.560202, -0.43711245, 0.6444378, -5.7094445, -8.07981, -0.16202068, 0
1031, 3511215344, -0.32552978, -0.5839816, -0.39378318, 0.63082147, -10.636757, -5.816525, -6.9828396, 0
1032, 3511232011, -0.3351612, -0.5886389, -0.37946686, 0.63022274, -11.58286, -6.1967993, -7.5065002, 0
1033, 3511248678, -0.3400373, -0.5869024, -0.36957753, 0.6350883, -10.773353, -6.5103483, -6.543462, 0
1036, 3511298679, -0.3635834, -0.5456305, -0.34821442, 0.66995955, -4.208847, -2.428533, 0.17709732, 0
1038, 3511332013, -0.38969702, -0.4923637, -0.3458798, 0.6971986, 0.9094733, 2.9069948, 1.8962355, 0
1039, 3511348680, -0.3971404, -0.4604337, -0.3541606, 0.7105316, 3.5833864, 3.1651695, 3.7516184, 0
1040, 3511365347, -0.4029967, -0.42687324, -0.36253855, 0.7238393, 7.203569, 3.5883856, 6.5716915, 0
1042, 3511398681, -0.4265262, -0.36487338, -0.36459118, 0.74298114, 14.739864, 13.088692, -0.33070755, 0
1043, 3511415348, -0.44367984, -0.3416638, -0.3631441, 0.7446777, 10.8739395, 20.22247, -2.9144511, 0
1044, 3511432015, -0.4583606, -0.32534754, -0.36337924, 0.7429769, 10.842692, 22.983608, -10.176848, 0
1046, 3511465349, -0.4686218, -0.31784597, -0.38569027, 0.72843343, 4.7444353, 32.506775, -9.260783, 0
1047, 3511482016, -0.46079782, -0.33611375, -0.39106292, 0.7223347, 5.3264246, 38.025757, -15.063532, 0
1048, 3511498683, -0.45425117, -0.37552375, -0.3937305, 0.7054208, 22.54339, 51.88791, 13.020674, 0
1051, 3511548684, -0.44698298, -0.3949582, -0.38435513, 0.7046206, -0.01732203, -2.3371751, 0.5498514, 0
1052, 3511565351, -0.4439845, -0.4020273, -0.39064574, 0.6990369, 0.3156373, 1.5147493, -0.24497128, 0
1054, 3511598685, -0.43907183, -0.4205361, -0.40352938, 0.6837647, -1.7191768, -1.7019666, -0.04951954, 0
1056, 3511632019, -0.4286278, -0.45307216, -0.41741014, 0.6608912, 0.20035332, 0.8014464, -0.31374168, 0
1058, 3511665353, -0.41413862, -0.4850112, -0.4351775, 0.6355145, 0.12394129, -1.6156337, 0.5230293, 0
1059, 3511682020, -0.40200263, -0.5070491, -0.44704682, 0.61761564, -1.8029053, -3.4759572, 0.35806084, 0
1061, 3511715354, -0.3571168, -0.5963203, -0.46970236, 0.5442925, -3.507585, -2.5119498, 3.0642881, 0
1062, 3511732021, -0.3180698, -0.66737443, -0.46242347, 0.48950204, -7.629898, -15.029998, 19.770782, 0
1063, 3511748688, -0.29987422, -0.7091612, -0.45646957, 0.44587702, -21.175674, -14.642282, 35.161507, 0
1065, 3511782022, -0.26859406, -0.74086976, -0.45367852, 0.41611284, -27.389616, 15.106409, 28.447037, 0
1066, 3511798689, -0.22964619, -0.7602648, -0.45756242, 0.3998768, -5.857526, -7.5809426, 14.103743, 0
1067, 3511815356, -0.20270109, -0.77653134, -0.46962392, 0.36792594, -9.275721, -18.890465, 12.613035, 0
1069, 3511848690, -0.14933896, -0.80581266, -0.48749152, 0.3011984, -11.151777, -26.183647, -0.46573162, 0
1070, 3511865357, -0.12980834, -0.81567276, -0.49932736, 0.26173416, -8.944887, -28.338686, -6.40116, 0
1071, 3511882024, -0.1203112, -0.82252973, -0.5099105, 0.22128251, -7.034569, -25.428839, -11.663745, 0
1073, 3511915358, -0.12358448, -0.8307558, -0.5218308, 0.14922754, -1.8470355, -14.684842, -18.62636, 0
1074, 3511932025, -0.1295116, -0.83542514, -0.51918197, 0.12548396, -1.5683078, -11.834339, -19.346355, 0
1075, 3511948692, -0.13599738, -0.84044594, -0.51216847, 0.113328844, -0.87901944, -10.229995, -19.405514, 0
1077, 3511982026, -0.14908214, -0.849727, -0.49283072, 0.11340743, 0.25894132, -4.7475343, -17.645851, 0
1079, 3512015360, -0.15117887, -0.85847074, -0.46901473, 0.14213748, -1.5864055, -4.3533316, -17.037254, 0
1081, 3512048694, -0.15745506, -0.85891354, -0.44680437, 0.19454052, -0.9565277, -6.287345, -15.145533, 0
1082, 3512065361, -0.17026329, -0.8539279, -0.43682835, 0.22583874, -2.2176955, -8.782888, -13.262851, 0
1083, 3512082028, -0.19103867, -0.8435731, -0.42835587, 0.26154298, -4.1490984, -9.392751, -10.006053, 0
1085, 3512115362, -0.2364664, -0.8100868, -0.4124183, 0.34315968, -5.3964753, -6.325817, -4.3172455, 0
1086, 3512132029, -0.25562575, -0.78929746, -0.4024104, 0.3869568, -5.072521, -7.071628, -0.4006424, 0
1087, 3512148696, -0.27380767, -0.76616997, -0.38943547, 0.43169162, -4.3283596, -7.3384714, 2.599348, 0
1089, 3512182030, -0.31863365, -0.71069473, -0.3577138, 0.51520026, -4.176486, -6.7347426, 6.752224, 0
1090, 3512198697, -0.34424776, -0.6770183, -0.3405848, 0.5542079, -6.7588744, -2.7516155, 8.990631, 0
1092, 3512232031, -0.3739085, -0.60362935, -0.30992982, 0.63227534, -5.52792, 1.4668344, 11.969942, 0
1094, 3512265365, -0.38886276, -0.5132468, -0.30786386, 0.7004199, 4.3688893, 0.6363391, 15.356861, 0
1096, 3512298699, -0.40416735, -0.43681636, -0.29004803, 0.7494779, 1.6223453, 7.569209, 12.919495, 0
1097, 3512315366, -0.40694606, -0.40707487, -0.27419898, 0.7703924, 3.5185585, 6.2881875, 12.020618, 0
1098, 3512332033, -0.40636623, -0.37619352, -0.26375037, 0.7898009, 5.0097747, 6.021027, 12.152212, 0
1100, 3512365367, -0.39727706, -0.3121687, -0.24902605, 0.82626414, 7.441467, 8.198498, 9.508825, 0
1101, 3512382034, -0.39109787, -0.28037462, -0.24348614, 0.8421115, 9.267679, 8.94025, 6.1458893, 0
1102, 3512398701, -0.3848288, -0.2509044, -0.23912746, 0.85543936, 10.191973, 10.541809, 2.9108706, 0
1104, 3512432035, -0.37564266, -0.20602679, -0.23042186, 0.8737024, 11.528925, 11.130887, -3.5807362, 0
1105, 3512448702, -0.37350896, -0.19011411, -0.22772664, 0.8789158, 12.200996, 10.8357935, -5.6994305, 0
1108, 3512498703, -0.38078672, -0.151294, -0.23238458, 0.8821075, 11.717533, 12.233314, -10.586202, 0
1110, 3512532037, -0.39565566, -0.14332733, -0.23342618, 0.8766019, 8.200173, 13.46777, -13.081043, 0
1112, 3512565371, -0.40394962, -0.1584785, -0.23766617, 0.869039, 6.79201, 13.8932085, -12.218358, 0
1113, 3512582038, -0.40303516, -0.17148314, -0.24372736, 0.8653081, 7.1793857, 13.91578, -10.647147, 0
1115, 3512615372, -0.39679357, -0.19991721, -0.26306415, 0.8563819, 10.784923, 12.7912655, -8.542536, 0
1117, 3512648706, -0.4002682, -0.23072065, -0.29365823, 0.83685285, 9.708026, 15.45986, -8.202546, 0
1119, 3512682040, -0.39999637, -0.27698758, -0.32218647, 0.8120846, 3.9208615, 19.38383, -3.929689, 0
1120, 3512698707, -0.38756922, -0.30484986, -0.33642167, 0.80229795, 3.7345765, 20.610222, -1.120657, 0
1121, 3512715374, -0.37054673, -0.33098552, -0.352962, 0.79282176, 9.387743, 18.921043, 1.1538954, 0
1123, 3512748708, -0.35038662, -0.37869135, -0.3928309, 0.761256, 12.5503645, 22.374449, -1.1520758, 0
1125, 3512782042, -0.32197988, -0.45661774, -0.3228405, 0.76394236, 23.058052, -30.215487, 14.557356, 0
1129, 3512848710, -0.34419206, -0.42757767, -0.3098903, 0.7763259, 1.3444234, -2.548455, -0.25645638, 0
1133, 3512915378, -0.33762974, -0.49616393, -0.34123936, 0.7234556, 0.4761492, 0.20577765, -0.5602751, 0
1136, 3512965379, -0.3060549, -0.57619536, -0.37336877, 0.6594922, -1.383105, -2.1734395, 0.40728378, 0
1137, 3512982046, -0.2887171, -0.61273813, -0.38658872, 0.6258982, -2.669991, -3.8624568, 0.22542858, 0
1139, 3513015380, -0.21856108, -0.72783476, -0.40308103, 0.5099195, -9.593809, -15.529652, 23.690727, 0
1143, 3513082048, -0.099994235, -0.8099337, -0.4185765, 0.39850628, -10.222449, -12.740432, 12.080889, 0
1144, 3513098715, -0.06897184, -0.8288495, -0.42642662, 0.35555118, -14.553243, -30.165451, 6.680208, 0
1147, 3513148716, -0.043012872, -0.87090784, -0.43403536, 0.22646773, -13.645541, -27.851343, -17.048897, 0
1148, 3513165383, -0.043629847, -0.882795, -0.4272086, 0.19043997, -12.961164, -19.247587, -21.693632, 0
1150, 3513198717, -0.04354759, -0.9021389, -0.4030821, 0.14757583, -9.304259, -10.412687, -24.535122, 0
1151, 3513215384, -0.047098234, -0.90786356, -0.39216176, 0.14064081, -9.672242, -8.182204, -23.866798, 0
1152, 3513232051, -0.051305264, -0.91164786, -0.38059527, 0.14634939, -8.556998, -5.24067, -22.504341, 0
1154, 3513265385, -0.05952514, -0.9135665, -0.3565542, 0.18635134, -7.579415, -3.074329, -19.211395, 0
1155, 3513282052, -0.06550356, -0.91019964, -0.34507453, 0.21948697, -8.26275, -3.6636868, -17.590626, 0
1156, 3513298719, -0.07568175, -0.90329844, -0.33323187, 0.25939482, -7.6383586, -5.1959662, -15.186535, 0
1158, 3513332053, -0.11847787, -0.87350774, -0.31556627, 0.35124075, -10.429764, -7.8393707, -6.74221, 0
1160, 3513365387, -0.18101394, -0.8185688, -0.3010573, 0.454476, -7.3368845, -5.062314, 1.8683071, 0
1162, 3513398721, -0.24574576, -0.74065393, -0.29682353, 0.55040115, -4.668763, -1.5646334, 9.504305, 0
1163, 3513415388, -0.27127793, -0.6964163, -0.29660735, 0.5945091, -0.74000734, -3.11718, 15.930941, 0
1166, 3513465389, -0.35849306, -0.55455685, -0.3063041, 0.6856619, 13.643406, 5.7648745, 14.428459, 0
1167, 3513482056, -0.38320017, -0.51540786, -0.30809012, 0.7018531, 10.384993, 5.9154234, 10.636675, 0
1168, 3513498723, -0.39804414, -0.48244345, -0.30721018, 0.71724206, 4.996847, 5.893395, 6.1965523, 0
1170, 3513532057, -0.400776, -0.42994773, -0.29258153, 0.75427073, 3.125639, 1.948501, 8.558092, 0
1171, 3513548724, -0.3982747, -0.40171933, -0.2815677, 0.7750635, 4.971431, 1.478983, 8.035063, 0
1173, 3513582058, -0.39513555, -0.33745337, -0.26708433, 0.81158113, 7.406342, 2.7742176, 3.9230814, 0
1174, 3513598725, -0.39032298, -0.30682635, -0.26396334, 0.8269424, 7.2846494, 4.1229253, 2.8271685, 0
1175, 3513615392, -0.38234267, -0.28114316, -0.25982076, 0.84099394, 7.651909, 5.6562557, 2.9492588, 0
1178, 3513665393, -0.382327, -0.21679357, -0.22483972, 0.86964273, 12.5539465, 6.810433, 1.3443823, 0
1179, 3513682060, -0.3924765, -0.19082445, -0.21898296, 0.87269676, 10.574444, 7.685147, -3.2803497, 0
1182, 3513732061, -0.4061739, -0.14678392, -0.20793663, 0.87763584, 5.355385, 10.221618, -9.337384, 0
1183, 3513748728, -0.4026676, -0.14440125, -0.20754519, 0.8797369, 6.792702, 10.539031, -7.9092703, 0
1185, 3513782062, -0.3978057, -0.14139804, -0.20697613, 0.8825662, 9.45708, 11.115307, -7.1609163, 0
1186, 3513798729, -0.3989947, -0.1418513, -0.20493306, 0.88243353, 8.522921, 9.87985, -10.067887, 0
1187, 3513815396, -0.40199116, -0.14670925, -0.20519961, 0.8802146, 8.900141, 9.15515, -10.821736, 0
1189, 3513848730, -0.40832308, -0.16147119, -0.22177128, 0.87064445, 7.892317, 9.941828, -9.29237, 0
1190, 3513865397, -0.40841657, -0.17091289, -0.23813069, 0.86445546, 6.9376965, 10.734452, -8.898527, 0
1191, 3513882064, -0.40649122, -0.1826401, -0.2557618, 0.85790336, 7.0034266, 11.7451105, -7.064778, 0
1193, 3513915398, -0.40692487, -0.21398003, -0.27615812, 0.84401804, 7.512681, 9.978879, -4.252258, 0
1196, 3513965399, -0.4188156, -0.26947504, -0.31106347, 0.80945724, 6.1910343, 10.142355, -1.0161543, 0
1198, 3513998733, -0.4239505, -0.30047455, -0.34747735, 0.78054184, 4.138383, 12.453831, 1.2866688, 0
1200, 3514032067, -0.42341426, -0.3435332, -0.37841332, 0.7480064, 1.6962974, 19.174793, 0.34361744, 0
1201, 3514048734, -0.41984355, -0.37295085, -0.34923506, 0.75011915, -7.883986, 10.209507, 31.963299, 0
1204, 3514098735, -0.41729456, -0.38304418, -0.33396232, 0.75340337, -1.724023, -22.167229, 4.9693747, 0
1205, 3514115402, -0.4142385, -0.37733182, -0.33361915, 0.75810975, -1.6336226, 0.049925864, 0.20882607, 0
1206, 3514132069, -0.41195834, -0.37482122, -0.33479348, 0.7600773, -1.3183504, -3.0050898, 0.08708191, 0
1208, 3514165403, -0.40816766, -0.3876604, -0.34491488, 0.751104, 0.25877848, -1.4206736, -0.28254128, 0
1209, 3514182070, -0.40555143, -0.39870492, -0.35305023, 0.7429151, -0.4275492, -0.5452233, -0.28074265, 0
1210, 3514198737, -0.40308285, -0.41165692, -0.36183128, 0.7329024, -0.88091475, -0.45412335, -0.15012741, 0
1214, 3514265405, -0.37194958, -0.50298345, -0.4107417, 0.66329277, -0.3155862, -1.2625513, 0.24927902, 0
1217, 3514315406, -0.2816741, -0.67105997, -0.42641112, 0.5371374, -5.915576, -9.94611, 14.411104, 0
1220, 3514365407, -0.24784943, -0.7552871, -0.41573745, 0.44190422, -17.740253, 23.816576, 22.641586, 0
1221, 3514382074, -0.21111298, -0.7806302, -0.41859925, 0.4133126, -24.229946, -10.337757, 17.707096, 0
1223, 3514415408, -0.1425909, -0.8193135, -0.43942884, 0.3395593, -19.407202, -32.166813, 4.8060455, 0
1224, 3514432075, -0.12656584, -0.8298156, -0.45098191, 0.30332747, -13.265801, -33.64938, -4.71904, 0
1225, 3514448742, -0.12250418, -0.8396862, -0.45672825, 0.26706558, -9.191816, -30.476038, -11.291729, 0
1227, 3514482076, -0.13746758, -0.85916376, -0.4479381, 0.20566118, -8.092808, -17.975643, -21.874933, 0
1228, 3514498743, -0.14569846, -0.8674438, -0.43675044, 0.18859267, -8.004139, -10.688431, -23.44575, 0
1232, 3514565411, -0.16472854, -0.87031883, -0.39704967, 0.24034557, -3.168279, -0.11537672, -14.003884, 0
1233, 3514582078, -0.17653224, -0.86477715, -0.38486224, 0.26996812, -2.2548254, -1.7461296, -11.77369, 0
1237, 3514648746, -0.24185993, -0.78529656, -0.38390043, 0.4212345, 6.699403, 0.8495942, 6.297035, 0
1240, 3514698747, -0.30212602, -0.7134891, -0.39246246, 0.4956118, 2.1362097, 2.509137, 3.9752436, 0
1244, 3514765415, -0.33287218, -0.62657964, -0.4037995, 0.57753354, 9.056802, 8.957186, 2.3389797, 0
1245, 3514782082, -0.33332235, -0.61148375, -0.4154918, 0.5851114, 7.367938, 7.8512554, 0.44525146, 0
1248, 3514832083, -0.3134174, -0.57370955, -0.4414464, 0.61461926, 1.6508712, 7.8560333, 2.203597, 0
1249, 3514848750, -0.29630172, -0.5646802, -0.44808665, 0.6265501, 5.345249, 6.0631566, 0.4807253, 0
1251, 3514882084, -0.2591707, -0.5502288, -0.4615891, 0.6457704, 3.0232787, 2.6127093, 0.797122, 0
1252, 3514898751, -0.24091905, -0.54508924, -0.4630518, 0.656067, 3.570752, 1.1477258, -0.36213017, 0
1254, 3514932085, -0.21490456, -0.533951, -0.46003905, 0.6760781, 1.3390051, -0.52272505, 2.1928434, 0
1256, 3514965419, -0.19523245, -0.5203515, -0.44847158, 0.6999976, 1.8817922, -0.8600481, -2.4253836, 0
1258, 3514998753, -0.18370464, -0.5037631, -0.44033095, 0.7201312, 0.6211438, -3.2931702, -0.26270676, 0
1259, 3515015420, -0.18408486, -0.49164206, -0.43392554, 0.7321983, 0.014558181, -3.5583718, 0.15102577, 0
1260, 3515032087, -0.18767127, -0.48188633, -0.4265242, 0.74205595, 3.2612083, 2.1077812, 1.7011871, 0
1262, 3515065421, -0.20076002, -0.4627978, -0.40835154, 0.76076776, 8.903943, 3.0239675, 2.617199, 0
1263, 3515082088, -0.20938906, -0.45392463, -0.39893737, 0.768741, 7.3166537, 4.2515135, 0.42488194, 0
1266, 3515132089, -0.22235513, -0.44243634, -0.35971385, 0.7908343, -1.5945045, 0.06985629, -1.8465867, 0
1267, 3515148756, -0.22657336, -0.4348259, -0.34994268, 0.79820794, -2.8451958, -2.1182342, -1.8196983, 0
1268, 3515165423, -0.2339445, -0.42393923, -0.34171847, 0.80546814, -0.81481993, -3.1773446, 0.09061527, 0
1270, 3515198757, -0.2557618, -0.40354672, -0.322689, 0.8170754, 0.43890065, -1.2773737, 0.272851, 0
1274, 3515265425, -0.27838957, -0.38635963, -0.28901613, 0.83048177, 3.1578274, -3.6176708, 1.5342436, 0
1275, 3515282092, -0.27905396, -0.38192964, -0.28819892, 0.83258927, 2.3052135, -1.9305323, 1.1160488, 0
1277, 3515315426, -0.27813995, -0.37654263, -0.29260463, 0.8338113, 1.840891, 0.64615136, 1.2710905, 0
1278, 3515332093, -0.27820936, -0.37334388, -0.29519135, 0.8343145, 0.22202402, 1.7311206, 0.9972248, 0
1279, 3515348760, -0.27827942, -0.36992666, -0.29827806, 0.8347153, -1.7976425, 1.9535971, 0.1281271, 0
1281, 3515382094, -0.27864763, -0.3639415, -0.3045135, 0.834972, 3.789335, -2.7810748, -1.2465763, 0
1283, 3515415428, -0.28343046, -0.3600245, -0.30812356, 0.83373517, 1.5596179, 0.94773895, 0.038396835, 0
1285, 3515448762, -0.28618628, -0.3516354, -0.31137452, 0.83516496, -1.6935563, 1.3413255, -0.87183094, 0
1286, 3515465429, -0.28833783, -0.34899876, -0.31372857, 0.83464986, 0.33285046, 1.5969979, -0.082416534, 0
1287, 3515482096, -0.29235914, -0.3453812, -0.31370193, 0.8347657, 2.0455198, 1.6841633, 5.298623, 0
1290, 3515532097, -0.3055436, -0.34322467, -0.3167354, 0.82977307, 3.0724318, 3.5041742, 1.0279837, 0
1291, 3515548764, -0.30757827, -0.3413732, -0.3182288, 0.82921356, -0.25106663, 1.9502994, -2.0726337, 0
1293, 3515582098, -0.31010744, -0.33710662, -0.32208666, 0.8285273, 0.7579348, -0.020969538, 0.9524431, 0
1294, 3515598765, -0.31202638, -0.33538312, -0.32415235, 0.8277003, -0.38081837, -0.29124117, 0.0033826828, 0
1295, 3515615432, -0.31263205, -0.33459577, -0.32841194, 0.82610965, -2.21862, 0.449066, 0.5205116, 0
1297, 3515648766, -0.30955428, -0.3359387, -0.33805445, 0.82282764, 0.7662023, -1.1644486, -0.43115902, 0
1298, 3515665433, -0.3061986, -0.3370057, -0.34311426, 0.8215516, 1.215578, -0.69313633, 0.5639181, 0
1301, 3515715434, -0.29698232, -0.34221762, -0.3502497, 0.81976724, -4.0468707, -2.490486, -1.3365154, 0
1302, 3515732101, -0.3007398, -0.34617957, -0.34968108, 0.8169719, -2.4262662, 0.15141785, 0.5908022, 0
1304, 3515765435, -0.31496635, -0.35674238, -0.3571022, 0.80374986, 1.349349, -5.1220183, -0.4855938, 0
1306, 3515798769, -0.33357587, -0.36561644, -0.37160748, 0.7854708, -0.9431853, 0.54008293, -4.3953347, 0
1308, 3515832103, -0.35464007, -0.36647102, -0.35115024, 0.7852563, -1.308486, -2.5696864, 0.12172699, 0
1309, 3515848770, -0.36592546, -0.36272055, -0.3386388, 0.7873123, 0.57180333, -3.1188009, 1.8538952, 0
1310, 3515865437, -0.37323794, -0.3581005, -0.33041537, 0.78948575, 1.6433983, -4.261148, 1.417306, 0
1312, 3515898771, -0.38080662, -0.35248882, -0.32470483, 0.790765, 0.6086175, -6.0338464, -1.9346275, 0
1313, 3515915438, -0.38379708, -0.34865177, -0.3239071, 0.7913473, 1.8830714, -0.6221035, -0.6913328, 0
1314, 3515932105, -0.38887432, -0.33946678, -0.31642944, 0.7958744, -1.1762818, -0.1873993, -0.14520454, 0
1316, 3515965439, -0.4001444, -0.32192728, -0.29680625, 0.8050826, 0.9827082, -3.3798668, 0.2908182, 0
1318, 3515998773, -0.41571712, -0.30769002, -0.2749358, 0.8105067, 1.1726444, -0.019423053, 2.0372543, 0
1320, 3516032107, -0.43022788, -0.2981376, -0.25735012, 0.81227666, 2.848242, 5.01311, -0.51361847, 0
1321, 3516048774, -0.43518004, -0.29359427, -0.25025046, 0.81351095, 4.494454, 4.7433376, 0.7279768, 0
1322, 3516065441, -0.43848333, -0.29080534, -0.24524648, 0.8142625, 3.5724483, 4.0718107, 0.7229214, 0
1324, 3516098775, -0.4406181, -0.2889485, -0.23948178, 0.8154861, -1.908202, 5.436537, -0.53525925, 0
1325, 3516115442, -0.44009677, -0.28916532, -0.23791677, 0.8161486, -1.9055821, 5.5873194, -0.82233715, 0
1326, 3516132109, -0.43896618, -0.28988045, -0.23616274, 0.81701267, 0.46739745, 4.46611, -1.4820471, 0
1328, 3516165443, -0.43486887, -0.2900716, -0.23155375, 0.8204479, 0.72525316, 4.26422, 0.4148531, 0
1329, 3516182110, -0.4321194, -0.29008943, -0.2303847, 0.82222164, -0.2698816, 4.2174077, -0.45681286, 0
1330, 3516198777, -0.4289051, -0.29033133, -0.23003407, 0.8239157, -0.26057598, 4.058993, -0.8482456, 0
1332, 3516232111, -0.42113388, -0.28978327, -0.23021995, 0.8280551, 0.47247308, -0.2613622, 0.71743584, 0
1336, 3516298779, -0.40377486, -0.28716463, -0.23409627, 0.8364843, -0.4711852, -1.8206458, 0.2105732, 0
1337, 3516315446, -0.3996953, -0.28635365, -0.2353568, 0.8383659, -0.30794498, 0.23228696, -1.1229877, 0
1339, 3516348780, -0.39265084, -0.28518346, -0.23616712, 0.8418584, -0.61937535, 0.66122556, -0.8847704, 0
1340, 3516365447, -0.38990128, -0.2852483, -0.23620656, 0.84310234, 0.6120567, 0.8773444, -0.77790165, 0
1341, 3516382114, -0.38791847, -0.28519267, -0.23556758, 0.8442139, 0.14710751, 0.3135661, -0.33184242, 0
1343, 3516415448, -0.38422275, -0.28544345, -0.23461065, 0.8460836, -0.066584066, -0.57337475, -0.57317543, 0
1344, 3516432115, -0.38238746, -0.28545693, -0.23417348, 0.84703106, 0.1863366, -0.7364561, -0.19806099, 0
1345, 3516448782, -0.38090515, -0.28530055, -0.23380141, 0.8478541, 0.5256239, 0.6339772, 0.3332548, 0
1347, 3516482116, -0.3775544, -0.2857851, -0.23467483, 0.84894764, -0.19344968, 0.9165216, -0.50935745, 0
1348, 3516498783, -0.3760895, -0.2863624, -0.23474689, 0.8493832, -0.13377753, 0.47415558, -0.80862904, 0
1351, 3516548784, -0.37216467, -0.2907498, -0.23522589, 0.849489, -0.79657304, 0.20251995, -0.34909248, 0
1353, 3516582118, -0.36982098, -0.29329264, -0.23611073, 0.849393, -0.88820505, 0.82810086, -0.16429615, 0
1355, 3516615452, -0.36700743, -0.2960735, -0.23659727, 0.8495131, -0.24402809, 0.14852838, -0.05190277, 0
1356, 3516632119, -0.36623225, -0.29775262, -0.23682864, 0.8491962, -0.08936071, 0.9989004, 0.2920761, 0
1358, 3516665453, -0.3655881, -0.303962, -0.23747243, 0.8470915, -1.6023096, 0.83117527, -0.24932289, 0
1359, 3516682120, -0.36509675, -0.30782846, -0.23800917, 0.84575546, -1.0598627, 1.0617148, 0.08371353, 0
1360, 3516698787, -0.36433527, -0.3117897, -0.23876986, 0.84441733, 0.74938595, 1.2250607, 0.057400703, 0
1362, 3516732121, -0.3609331, -0.32079107, -0.24102463, 0.8418623, 0.6415345, -0.2076936, 0.338459, 0
1363, 3516748788, -0.35871595, -0.32623726, -0.24347587, 0.8400097, -0.35661894, 0.46352798, 1.078721, 0
1364, 3516765455, -0.3561287, -0.332013, -0.24665558, 0.8379173, -1.0989789, -0.30633417, -0.37975216, 0
1367, 3516815456, -0.34658346, -0.35151827, -0.25639206, 0.83101296, -0.8634635, 0.10438971, -0.1452055, 0
1368, 3516832123, -0.3431083, -0.3593297, -0.25930536, 0.8282056, -1.3229785, -2.6563156, -0.6624975, 0
1371, 3516882124, -0.33261254, -0.38064116, -0.2660807, 0.82078445, -2.539675, -0.779565, 0.10597801, 0
1372, 3516898791, -0.3289551, -0.3889294, -0.26907897, 0.8173883, -2.702504, -0.40797463, -0.30195522, 0
1374, 3516932125, -0.32057488, -0.41090465, -0.2776042, 0.8070502, -1.3210741, -2.640177, 0.09058857, 0
1375, 3516948792, -0.31654468, -0.42415446, -0.2825387, 0.8000431, -2.284252, -1.7175602, 0.7334995, 0
1376, 3516965459, -0.3121542, -0.43619728, -0.28721616, 0.79360133, -3.2949483, -1.9032423, 0.32786083, 0
1378, 3516998793, -0.30446598, -0.45160097, -0.29398245, 0.7854527, -2.4999003, -2.1228852, 0.267231, 0
1379, 3517015460, -0.30209923, -0.45687175, -0.29514655, 0.7828775, -3.2231197, -1.5125439, 1.9101982, 0
1380, 3517032127, -0.29964674, -0.46437818, -0.29700333, 0.7786901, -4.0853, -2.026642, 4.447486, 0
1383, 3517082128, -0.29467475, -0.48968378, -0.31184998, 0.7590328, -0.5286877, -1.7970018, -0.46017742, 0
1385, 3517115462, -0.2941378, -0.48400015, -0.31214824, 0.7627547, -1.629603, 1.7128915, -1.3979187, 0
1386, 3517132129, -0.29706207, -0.4783427, -0.30836838, 0.7667176, -1.5851946, -1.6933806, -3.2527056, 0
1389, 3517182130, -0.3096069, -0.45469236, -0.29276037, 0.78210884, 1.7779369, -3.4327223, 0.45416164, 0
1390, 3517198797, -0.3111226, -0.44447738, -0.2890594, 0.788728, 2.532999, -1.8764807, 4.8463726, 0
1391, 3517215464, -0.31305814, -0.43498534, -0.28541034, 0.7945615, -1.8152373, -2.9653687, 1.6752071, 0
1393, 3517248798, -0.31634784, -0.427451, -0.28631672, 0.79701746, 0.028291488, -1.5272512, 0.85929585, 0
1394, 3517265465, -0.31802523, -0.42442432, -0.28705117, 0.79770315, -3.290093, -3.4788427, -2.7218075, 0
1395, 3517282132, -0.31982273, -0.4215322, -0.28777862, 0.79825574, -4.0612216, -3.2785127, -5.161104, 0
1397, 3517315466, -0.32005695, -0.41035485, -0.2821339, 0.80596375, -3.1138878, -0.090178005, -3.604381, 0
1398, 3517332133, -0.31919876, -0.4022707, -0.27438566, 0.81302387, -0.6581762, 4.5381393, 1.3894043, 0
1399, 3517348800, -0.31915778, -0.39394158, -0.26315504, 0.8207938, -2.8156097, 5.417411, 2.9432364, 0
1401, 3517382134, -0.32131392, -0.380872, -0.24440983, 0.8318428, 1.963338, 3.4604728, 2.9202127, 0
1402, 3517398801, -0.32191235, -0.37505168, -0.23840472, 0.8359884, 3.2448025, 0.15663576, 1.0842152, 0
1403, 3517415468, -0.32053146, -0.37114877, -0.23448676, 0.83936214, 6.2158556, 1.4182718, 2.2218065, 0
1406, 3517465469, -0.30433264, -0.3686321, -0.23556598, 0.84617096, 1.2522948, 2.8375, -0.3770857, 0
1407, 3517482136, -0.29958507, -0.3683947, -0.23722853, 0.8475029, 1.1906596, 3.1968906, 0.19036007, 0
1409, 3517515470, -0.2927105, -0.36920083, -0.23699938, 0.8496159, 1.4698555, 2.8390956, -0.44169044, 0
1410, 3517532137, -0.29073116, -0.3688014, -0.2352833, 0.850945, 1.5269952, 2.1009672, -0.9425392, 0
1413, 3517582138, -0.28408137, -0.3566273, -0.22470479, 0.8611777, 2.1059875, 0.99665344, 0.47847843, 0
1414, 3517598805, -0.28253332, -0.3526661, -0.2218925, 0.86404246, 1.7327248, 1.2269797, -0.7233591, 0
1416, 3517632139, -0.2808593, -0.35122734, -0.21948309, 0.86578804, 1.4048038, 0.7054404, -1.8622079, 0
1417, 3517648806, -0.27916247, -0.35274634, -0.21994191, 0.8656029, 3.0250697, 1.7919593, 0.2551422, 0
1418, 3517665473, -0.27682137, -0.35258865, -0.21981949, 0.86644965, 1.8120233, 1.2572526, -1.3398523, 0
1420, 3517698807, -0.26930436, -0.35319856, -0.22263604, 0.8678499, 0.2248793, 2.9414036, 1.4371481, 0
1421, 3517715474, -0.26551792, -0.35400587, -0.22455639, 0.868193, -0.88966674, -0.15057147, -0.5473585, 0
1424, 3517765475, -0.25716364, -0.3657732, -0.22951809, 0.86452454, -0.059885938, 2.055349, -0.01940918, 0
1425, 3517782142, -0.2548993, -0.36611512, -0.22855759, 0.86530447, 0.32814512, 1.6097153, 1.0738716, 0
1426, 3517798809, -0.2532459, -0.36423203, -0.2266103, 0.867095, -0.8325835, 0.029679727, 0.7908716, 0
1429, 3517848810, -0.24774039, -0.36266112, -0.22421269, 0.8699623, -0.3802969, -1.0813959, 0.28794193, 0
1430, 3517865477, -0.24690032, -0.3641065, -0.22363068, 0.86974734, -0.46884033, -0.2694684, -0.6891937, 0
1432, 3517898811, -0.24567688, -0.3684256, -0.2229053, 0.8684601, 0.38791585, 0.6276424, 1.9090691, 0
1433, 3517915478, -0.24493848, -0.36968687, -0.22237766, 0.8682679, -0.4214839, -1.1713544, -0.7259073, 0
1434, 3517932145, -0.24421816, -0.37069505, -0.22217363, 0.8680932, -0.6930692, -2.533098, -1.1717472, 0
1436, 3517965479, -0.2432205, -0.36983252, -0.22145143, 0.86892533, -0.049374122, 0.87330407, 0.33396912, 0
1437, 3517982146, -0.24282238, -0.369336, -0.22155741, 0.8692209, -1.2812715, -0.45463523, -1.3310232, 0
1439, 3518015480, -0.24364047, -0.36924326, -0.22071905, 0.86924446, -0.018340802, 0.09445959, 0.42776012, 0
1441, 3518048814, -0.24332514, -0.3695188, -0.22006486, 0.8693816, 0.6571244, -0.7377492, 0.051893234, 0
1443, 3518082148, -0.24316242, -0.36961633, -0.21981275, 0.8694495, 0.20780039, 1.594208, 0.2065649, 0
1445, 3518115482, -0.24227822, -0.3714256, -0.2212912, 0.8685499, 1.6062312, 0.75625855, -0.6227169, 0
1447, 3518148816, -0.24087939, -0.37532973, -0.2227042, 0.8668976, 1.309336, 0.4026338, 0.25404644, 0
1448, 3518165483, -0.23949271, -0.37781993, -0.22377184, 0.8659248, 0.6434202, 0.1888194, 0.032536507, 0
1449, 3518182150, -0.23792814, -0.38032764, -0.22508147, 0.86491823, 0.5344532, 0.7518759, 0.3796816, 0
1451, 3518215484, -0.23508906, -0.38570723, -0.22819392, 0.8624932, -0.09885436, 1.2847931, 0.43833828, 0
1452, 3518232151, -0.23335388, -0.3896207, -0.23051794, 0.86058545, 0.36492184, 0.0048028463, -0.5877018, 0
1453, 3518248818, -0.23151244, -0.3953782, -0.23342386, 0.8576688, 0.118992545, -1.3370051, -0.043128014, 0
1455, 3518282152, -0.2282733, -0.4105678, -0.23949565, 0.849689, -3.0693955, -1.1179881, 0.6914635, 0
1456, 3518298819, -0.22636583, -0.42147803, -0.24391091, 0.8435796, -3.7468646, -1.1053183, 1.4859343, 0
1459, 3518348820, -0.22110623, -0.47381893, -0.26024684, 0.8117164, -3.9366045, -6.446045, -0.53975105, 0
1461, 3518382154, -0.21581244, -0.5004914, -0.2713569, 0.7932863, -4.013794, -3.967489, -0.76055336, 0
1463, 3518415488, -0.21317275, -0.50480914, -0.27661595, 0.78943837, -6.1201572, -1.872157, 0.8128166, 0
1464, 3518432155, -0.21558557, -0.5082728, -0.2768935, 0.78645784, -5.787512, -3.229266, 1.1182556, 0
1466, 3518465489, -0.22305779, -0.52006745, -0.28009, 0.77545404, -2.7424276, -4.3098946, 3.4201832, 0
1467, 3518482156, -0.2256764, -0.52118075, -0.28416032, 0.7724623, -4.2896204, -5.660372, -1.3957539, 0
1468, 3518498823, -0.22890383, -0.5179225, -0.29036453, 0.7713961, -2.1343942, -4.1182137, -2.3855457, 0
1470, 3518532157, -0.23570375, -0.50161654, -0.29635605, 0.77781886, -1.6970991, -1.8049101, -3.5776024, 0
1471, 3518548824, -0.2398006, -0.49434835, -0.29616314, 0.7812854, 0.37079078, -3.4317205, -5.8985577, 0
1472, 3518565491, -0.24533625, -0.48567554, -0.2931611, 0.78612345, 1.5378199, -1.5831064, -2.0330396, 0
1474, 3518598825, -0.24892, -0.45689794, -0.28180772, 0.8061463, -5.154641, -1.8558139, 1.0807991, 0
1476, 3518632159, -0.25410053, -0.43934235, -0.27399722, 0.81690955, -2.7258437, -2.978516, 0.43192768, 0
1478, 3518665493, -0.25845167, -0.42426002, -0.26795453, 0.8254761, 3.3223376, 0.84200716, -2.104381, 0
1479, 3518682160, -0.26214916, -0.41324836, -0.25958148, 0.83254147, 3.0037017, 5.0802326, -1.0047302, 0
1480, 3518698827, -0.26703715, -0.3994412, -0.24842566, 0.8410868, 1.0918248, 9.456329, 1.2249184, 0
1482, 3518732161, -0.27347293, -0.3788483, -0.23260573, 0.8529862, 5.9060082, 1.5847657, 4.0103045, 0
1483, 3518748828, -0.27311885, -0.37444323, -0.23017643, 0.8556995, 7.2023726, -3.3041914, 3.8477726, 0
1484, 3518765495, -0.27029234, -0.3730707, -0.22903712, 0.85750014, 4.80043, -1.396885, 1.0814829, 0
1486, 3518798829, -0.2589436, -0.37346733, -0.23067099, 0.86038697, 2.3028505, 9.862786, -2.1392164, 0
1487, 3518815496, -0.2538707, -0.3700796, -0.22989275, 0.8635651, 0.23410727, 5.940441, -1.3980722, 0
1490, 3518865497, -0.23977874, -0.3616292, -0.2296818, 0.8711952, 3.6273613, -0.45515698, -0.8811827, 0
1491, 3518882164, -0.23475492, -0.360718, -0.22961587, 0.8729569, 1.7796955, 2.283403, 0.14840508, 0
1494, 3518932165, -0.22575797, -0.35806042, -0.22960567, 0.87641984, 4.0360384, 0.4407443, -1.8191271, 0
1495, 3518948832, -0.22383292, -0.3545402, -0.22862352, 0.87859887, 2.5991213, -0.68055964, 1.2676096, 0
1497, 3518982166, -0.21989734, -0.35308254, -0.2303575, 0.8797261, 1.1130058, 1.3864386, -0.9208927, 0
1498, 3518998833, -0.2173821, -0.3551649, -0.23335476, 0.87872237, 1.616235, 0.77283585, 1.7487135, 0
1499, 3519015500, -0.21487892, -0.35591483, -0.23603494, 0.8783188, 1.5820724, -1.198594, -1.0703955, 0
1501, 3519048834, -0.20932022, -0.3558642, -0.24118546, 0.8782822, 0.8532035, 1.259339, -0.4004221, 0
1502, 3519065501, -0.20703769, -0.35440925, -0.24320883, 0.8788534, 0.31220877, 1.1911615, 1.2375526, 0
1503, 3519082168, -0.20530444, -0.35405412, -0.2457514, 0.8786958, 0.06576791, -0.88068396, -0.088591576, 0
1506, 3519132169, -0.20422345, -0.35628402, -0.25218126, 0.87622106, -0.10126579, -0.5183909, 0.6784277, 0
1507, 3519148836, -0.20549068, -0.35668483, -0.25299978, 0.8755255, -0.79659116, 0.3268564, 0.007634163, 0
1509, 3519182170, -0.20977269, -0.35821414, -0.25418717, 0.87353945, -0.8023673, -2.7838762, -1.1682138, 0
1511, 3519215504, -0.21436945, -0.3607243, -0.2564502, 0.8707247, 1.3186901, -1.7546608, 0.4633217, 0
1513, 3519248838, -0.21776389, -0.36251575, -0.2593232, 0.868284, -0.86682373, -0.25516635, -0.3653555, 0
1514, 3519265505, -0.21961494, -0.36344036, -0.26097488, 0.8669353, -0.90836483, -0.7545909, -0.46825314, 0
1515, 3519282172, -0.22138172, -0.3651761, -0.26326188, 0.865063, 0.07703804, -0.9354638, -0.54859924, 0
1517, 3519315506, -0.2252526, -0.3664134, -0.26470637, 0.86309755, -0.60068005, -1.2763748, -0.5411749, 0
1518, 3519332173, -0.22685546, -0.3669717, -0.265481, 0.86220205, 0.5380805, 0.32311168, 0.6029291, 0
1520, 3519365507, -0.22907028, -0.3659661, -0.26607162, 0.8618619, 0.30794716, -0.5105827, -0.40510464, 0
1522, 3519398841, -0.23067625, -0.36527905, -0.26741776, 0.8613083, 1.1374611, 0.69099635, 0.3932476, 0
1524, 3519432175, -0.23224853, -0.36752412, -0.2697147, 0.85921186, 0.8593069, -0.8240164, -0.8057995, 0
1525, 3519448842, -0.23304068, -0.36826116, -0.26985142, 0.8586387, -0.071116626, 2.4362085, 2.5826302, 0
1526, 3519465509, -0.23316939, -0.36858732, -0.26999998, 0.85841715, 0.8550656, 2.0674152, -0.17420101, 0
1529, 3519515510, -0.23476845, -0.3721207, -0.2718366, 0.8558733, 1.0583631, -1.7713633, -1.1123323, 0
1530, 3519532177, -0.23442005, -0.373928, -0.27316886, 0.85475624, 1.1850832, 0.7742475, 0.9123554, 0
1532, 3519565511, -0.23280978, -0.37625867, -0.2758781, 0.8533023, 0.7790608, 1.4628036, -0.11603165, 0
1533, 3519582178, -0.23223896, -0.37756842, -0.27743384, 0.85237443, 1.5980577, 0.5550782, -0.9384241, 0
1534, 3519598845, -0.23131162, -0.3793997, -0.27957216, 0.85111386, 2.1731095, -0.2364092, -1.1324177, 0
1536, 3519632179, -0.22991058, -0.38320303, -0.28262967, 0.84877646, 2.5344062, 1.6612895, 0.27312756, 0
1538, 3519665513, -0.2301552, -0.39159152, -0.2874347, 0.84325, 1.5196356, 2.0810513, -1.1946411, 0
1540, 3519698847, -0.2280773, -0.4007369, -0.29246143, 0.8377719, 3.159361, 0.21427025, -0.2786188, 0
1541, 3519715514, -0.22745582, -0.40739012, -0.29576302, 0.83356225, 3.099681, 1.5034478, -1.1144266, 0
1542, 3519732181, -0.22631104, -0.41640353, -0.30008888, 0.8278543, 1.796184, 2.0791526, 0.15352535, 0
1544, 3519765515, -0.22084408, -0.44160205, -0.31093737, 0.8121195, 0.1350563, 0.71400523, 1.0433865, 0
1547, 3519815516, -0.20253903, -0.49120408, -0.33599514, 0.7776944, -1.0576854, -2.44622, 1.4575825, 0
1548, 3519832183, -0.18765755, -0.5136065, -0.33963016, 0.76527715, 0.5055662, -0.10154238, 1.8510466, 0
1549, 3519848850, -0.16660656, -0.5377642, -0.33603558, 0.755074, 2.8831387, -3.7896032, 4.058386, 0
1551, 3519882184, -0.123673335, -0.57380116, -0.31430534, 0.74610585, 8.80644, -3.6339169, 8.013592, 0
1552, 3519898851, -0.107393354, -0.5863231, -0.31545913, 0.73836446, 9.164347, -4.1222544, 8.806986, 0
1553, 3519915518, -0.10456966, -0.6064988, -0.3037659, 0.7272933, 4.892645, -6.1184607, 7.2645874, 0
1555, 3519948852, -0.12006265, -0.64377064, -0.2781937, 0.7026785, -2.2345154, -8.751002, -10.58466, 0
1556, 3519965519, -0.13442358, -0.66427666, -0.2691066, 0.68429005, -8.557601, -6.611697, -9.963083, 0
1557, 3519982186, -0.1471289, -0.68187207, -0.25862968, 0.66822076, -12.226634, -7.3942556, -9.932678, 0
1559, 3520015520, -0.16792648, -0.69131565, -0.24642092, 0.65815264, -14.200698, -5.869529, -11.327261, 0
1560, 3520032187, -0.17884116, -0.68518096, -0.24143663, 0.66351783, -11.079734, -7.8173013, -11.511935, 0
1561, 3520048854, -0.19564009, -0.6722599, -0.23904079, 0.6727969, -8.709753, -8.106211, -10.178583, 0
1564, 3520098855, -0.25780687, -0.5994059, -0.23412515, 0.7207207, -9.433215, -3.265805, 2.6497574, 0
1565, 3520115522, -0.27137923, -0.56111515, -0.23775849, 0.7449689, -6.2290554, 1.5132523, 6.3977356, 0
1568, 3520165523, -0.29724428, -0.43130141, -0.27432993, 0.80645686, 15.927966, 12.7533655, 5.628813, 0
1569, 3520182190, -0.30456, -0.39582527, -0.28674936, 0.8175237, 22.24289, 17.14803, 1.0163851, 0
1571, 3520215524, -0.32050967, -0.36290443, -0.29109728, 0.8251309, 25.67273, 31.620502, -9.578736, 0
1572, 3520232191, -0.32449162, -0.36713493, -0.29451114, 0.82047856, 26.654896, 37.161507, -12.550728, 0
1574, 3520265525, -0.31424144, -0.42539272, -0.30043095, 0.79375017, 50.25814, 11.484324, 31.959816, 1024
1575, 3520282192, -0.3147188, -0.42073613, -0.29297704, 0.79881305, -0.26018494, -5.965964, 4.952758, 0
1576, 3520298859, -0.31389183, -0.41443518, -0.29227665, 0.8026796, -1.8469014, 1.3084757, 1.7268381, 0
1582, 3520398861, -0.2981798, -0.5111742, -0.34074432, 0.7305392, 1.4087013, 3.1844444, 0.48828602, 0
1583, 3520415528, -0.29038298, -0.5361331, -0.35064793, 0.71083736, 0.67894495, 1.5482192, 0.6885977, 0
1586, 3520465529, -0.25834548, -0.62847304, -0.35829523, 0.640241, -4.4203253, -2.9719467, -0.11203194, 0
1588, 3520498863, -0.22142935, -0.75161046, -0.33551148, 0.5229602, -12.136352, -7.283781, 23.194866, 0
1590, 3520532197, -0.25281012, -0.7763713, -0.3175093, 0.48221067, -13.614233, 27.9483, 37.761772, 0
1591, 3520548864, -0.2261635, -0.80532795, -0.3121813, 0.4503827, -16.52699, 26.596579, 31.40203, 0
1592, 3520565531, -0.19056787, -0.8321215, -0.31941497, 0.41138405, -15.123804, -5.81367, 17.328438, 0
1594, 3520598865, -0.15100555, -0.86937815, -0.34291437, 0.32216945, -23.122103, -30.532398, 2.972289, 0
1595, 3520615532, -0.14737913, -0.8840383, -0.34920073, 0.2735307, -20.036024, -30.951738, -4.415957, 0
1596, 3520632199, -0.14815298, -0.8978629, -0.34977606, 0.22260796, -17.355484, -28.607052, -13.243351, 0
1599, 3520682200, -0.1413279, -0.93030125, -0.32108566, 0.107121065, -9.883991, -13.065437, -29.502115, 0
1601, 3520715534, -0.14189786, -0.9389269, -0.2925553, 0.11268265, -5.868117, -4.760891, -25.429914, 0
1602, 3520732201, -0.14025848, -0.9418586, -0.27506617, 0.13256419, -5.92728, -2.5081356, -22.317177, 0
1605, 3520782202, -0.14763987, -0.9362107, -0.2239501, 0.2270748, -6.4915466, -6.0997972, -15.292915, 0
1606, 3520798869, -0.17248952, -0.9228697, -0.21460891, 0.2692707, -8.500977, -5.116519, -11.054391, 0
1607, 3520815536, -0.20092022, -0.90338683, -0.20890442, 0.31604892, -10.399001, 0.56117, -7.0025563, 0
1609, 3520848870, -0.22337492, -0.8577274, -0.20036261, 0.41745275, -11.437605, 3.9419155, -0.850647, 0
1610, 3520865537, -0.22121245, -0.831512, -0.20057887, 0.4684292, -6.1470847, -1.1944214, 0.89721775, 0
1611, 3520882204, -0.22566965, -0.80063474, -0.20868756, 0.5143066, -2.396154, -7.3686795, 3.2391815, 0
1613, 3520915538, -0.25935352, -0.7221561, -0.21831773, 0.6029662, -6.44271, 3.7529905, 14.563599, 0
1614, 3520932205, -0.26612985, -0.6833961, -0.21006775, 0.6465453, -0.28384358, 10.637604, 10.552155, 0
1618, 3520998873, -0.21383306, -0.55487853, -0.2338601, 0.76921993, 6.4689307, -3.723716, 12.409443, 0
1619, 3521015540, -0.2150537, -0.51934344, -0.23648082, 0.79253757, 7.89304, 0.0448443, 11.016052, 0
1622, 3521065541, -0.21899354, -0.43467835, -0.22145312, 0.8450206, 7.4445252, 3.8908873, 2.9162855, 0
1623, 3521082208, -0.21343064, -0.4179818, -0.21373487, 0.85677344, 8.061787, 2.6291142, 5.298541, 0
1625, 3521115542, -0.20981932, -0.38150316, -0.21372832, 0.87450325, 10.772321, 3.006784, 7.0576897, 0
1626, 3521132209, -0.20919697, -0.36007398, -0.21777463, 0.88270164, 10.428276, 5.1367526, 4.969163, 0
1628, 3521165543, -0.20554268, -0.3267257, -0.20516934, 0.8993958, 9.743084, 6.108494, -0.80987453, 0
1629, 3521182210, -0.20315738, -0.31619537, -0.19476034, 0.9059916, 10.460067, 4.036574, -2.4438934, 0
1630, 3521198877, -0.20161659, -0.3074886, -0.18953909, 0.9104291, 10.724478, 2.7078652, -2.9078102, 0
1632, 3521232211, -0.20360738, -0.29596847, -0.19117966, 0.9134559, 6.7004266, 3.5078356, -3.6564865, 0
1634, 3521265545, -0.20190233, -0.2948772, -0.19181296, 0.9140543, 5.953232, 3.814558, -1.3888769, 0
1636, 3521298879, -0.19676214, -0.2946269, -0.18853463, 0.91593623, 6.1901097, 1.738168, -2.4081979, 0
1637, 3521315546, -0.19583763, -0.2943122, -0.18775475, 0.9163955, 6.145963, 1.4496026, -2.9045105, 0
1638, 3521332213, -0.19523832, -0.293958, -0.18914719, 0.9163507, 6.0834603, 1.0845232, -3.2558165, 0
1640, 3521365547, -0.19507827, -0.29278126, -0.19799602, 0.91489124, 7.0100255, 2.7233238, -3.0597858, 0
1641, 3521382214, -0.19550788, -0.2914136, -0.20495196, 0.9137036, 7.001128, 3.6812084, -3.5964046, 0
1642, 3521398881, -0.19627243, -0.2906749, -0.21294731, 0.9119448, 6.612352, 4.469761, -4.5647054, 0
1644, 3521432215, -0.19989488, -0.29597923, -0.22578976, 0.9063455, 5.8831987, 6.8602147, -4.5460954, 0
1645, 3521448882, -0.20046952, -0.30248827, -0.22949582, 0.903133, 6.3763766, 7.108696, -4.2581115, 0
1646, 3521465549, -0.1993137, -0.31012267, -0.23333651, 0.8998093, 8.140853, 6.8311157, -2.4535527, 0
1648, 3521498883, -0.19916771, -0.322476, -0.24567641, 0.89218235, 10.146063, 4.941619, -4.2643356, 0
1652, 3521565551, -0.21779922, -0.37413964, -0.25849557, 0.86357844, 6.6746163, 7.445854, 1.6655025, 0
1653, 3521582218, -0.2226594, -0.38667727, -0.25621602, 0.8574739, 6.074398, 7.236557, -0.63974285, 0
1655, 3521615552, -0.23676674, -0.41521528, -0.2419981, 0.8443811, 8.793243, 11.155725, 0.5369148, 0
1656, 3521632219, -0.23871537, -0.43940452, -0.22912866, 0.83513075, 9.491126, 16.273054, -6.243002, 0
1657, 3521648886, -0.21834534, -0.472757, -0.22362934, 0.82390577, 11.537123, 21.668873, -1.0582838, 0
1659, 3521682220, -0.14672971, -0.55974376, -0.21865858, 0.78571653, 38.224266, -4.6000395, 5.450038, 0
1660, 3521698887, -0.13323101, -0.6093008, -0.21025221, 0.7528617, 31.694077, -1.0427997, -2.1162605, 0
1661, 3521715554, -0.11991631, -0.6523255, -0.19707781, 0.7219809, 12.247275, -8.497743, 5.9560537, 0
1664, 3521765555, -0.056976993, -0.7316335, -0.123476565, 0.6680002, -33.541218, -12.480936, 4.1257496, 0
1665, 3521782222, -0.0526872, -0.7057099, -0.10981561, 0.69795614, -49.479, -25.006853, 10.111731, 0
1669, 3521848890, -0.03857085, -0.8033522, -0.1750497, 0.56789076, -9.378849, -2.7901678, 5.1010876, 0
1671, 3521882224, -0.0077127367, -0.88740295, -0.24453506, 0.39072186, -30.022572, -19.902283, 37.34176, 0
1672, 3521898891, -0.009728681, -0.88350016, -0.2642905, 0.3866367, -38.496185, -19.889048, 13.582121, 0
1673, 3521915558, -0.033717543, -0.880817, -0.2623285, 0.3926998, -19.113245, -8.572315, 2.5702066, 0
1675, 3521948892, -0.03309168, -0.8897209, -0.26969305, 0.36684048, -30.88548, -11.020028, 5.3089657, 0
1676, 3521965559, -0.029822111, -0.88936955, -0.2768413, 0.36262342, -32.23987, -11.375989, 0.88360023, 0
1677, 3521982226, -0.0240784, -0.8864935, -0.28463343, 0.36405715, -28.81458, -13.441409, -6.597043, 0
1679, 3522015560, -0.040367477, -0.877843, -0.28333163, 0.38404393, -9.756055, -16.246752, -17.543314, 0
1680, 3522032227, -0.06896614, -0.87178826, -0.27479836, 0.39964896, -6.8520284, -11.418877, -15.093504, 0
1682, 3522065561, -0.13469714, -0.8451548, -0.2645103, 0.44453233, -1.6823641, -3.7362823, -10.88441, 0
1684, 3522098895, -0.17043282, -0.8044141, -0.25685528, 0.5078392, -1.1233312, -4.6031294, -5.55713, 0
1687, 3522148896, -0.22357142, -0.7179633, -0.23812236, 0.6146925, 7.5613923, -9.778408, 3.9560165, 0
1688, 3522165563, -0.24849468, -0.6842231, -0.22673382, 0.64705914, 5.170438, 0.00873511, 4.496769, 0
1690, 3522198897, -0.26560414, -0.6216887, -0.2123715, 0.7055924, 7.930293, -4.0072384, 2.9472046, 0
1691, 3522215564, -0.27197224, -0.5912803, -0.20430072, 0.7312212, 6.173705, -1.8650815, 6.697525, 0
1692, 3522232231, -0.27925086, -0.5613503, -0.1903845, 0.7554225, 5.0185122, 4.3357778, 6.490179, 0
1694, 3522265565, -0.29026508, -0.50627536, -0.16249885, 0.795632, 2.8049433, 9.549651, 1.398983, 0
1695, 3522282232, -0.286412, -0.48279637, -0.15428486, 0.8130661, 1.1501961, 9.981938, 1.0742102, 0
1696, 3522298899, -0.27364922, -0.46400812, -0.14801233, 0.82940316, 1.3910104, 8.989384, 1.4572287, 0
1698, 3522332233, -0.24163008, -0.43440494, -0.14077556, 0.8562092, 5.244371, 6.763739, 9.935108, 0
1700, 3522365567, -0.22358033, -0.38970953, -0.13402481, 0.8832782, 7.1028714, 4.481804, 0.35203743, 0
1702, 3522398901, -0.21341984, -0.351935, -0.14247148, 0.9001668, 7.5227065, 5.114085, -1.7319212, 0
1704, 3522432235, -0.20191735, -0.3337395, -0.1396314, 0.9101401, 7.8092246, 3.6030476, 0.73986244, 0
1706, 3522465569, -0.19554718, -0.30859762, -0.14252664, 0.919902, 7.087577, 3.3094263, 0.33160877, 0
1707, 3522482236, -0.19557583, -0.29447195, -0.1420791, 0.9245834, 7.013741, 2.0204542, -2.4433842, 0
1709, 3522515570, -0.19566491, -0.27810326, -0.13705735, 0.93037295, 7.1764145, 2.116086, -4.1459746, 0
1710, 3522532237, -0.19644399, -0.27525717, -0.13624118, 0.9311745, 7.1033893, 1.2706094, -4.8650413, 0
1711, 3522548904, -0.19762206, -0.27439165, -0.14173639, 0.9303602, 7.192919, -0.16188608, -5.7456717, 0
1713, 3522582238, -0.19441791, -0.27475205, -0.17068605, 0.9260582, 7.5313163, 3.8513496, -3.1871915, 0
1714, 3522598905, -0.19090919, -0.2740093, -0.17769381, 0.92569, 8.682005, 5.52433, -1.2154341, 0
1715, 3522615572, -0.19017407, -0.2720283, -0.17707881, 0.926543, 11.067903, 1.4864912, -3.5603385, 0
1717, 3522648906, -0.20522757, -0.27195507, -0.1885139, 0.9210803, 12.794454, 0.8481846, -8.4531555, 0
1718, 3522665573, -0.22003655, -0.27547115, -0.2014542, 0.913849, 11.608831, 4.942007, -7.7051373, 0
1719, 3522682240, -0.23420265, -0.28211188, -0.21499175, 0.90517664, 9.191002, 8.748279, -6.7593517, 0
1722, 3522732241, -0.2537155, -0.3048793, -0.25752786, 0.8811134, 11.732299, 11.22761, -3.9057064, 0
1723, 3522748908, -0.25856173, -0.3127475, -0.27484027, 0.87166613, 10.450066, 14.002312, -8.878001, 0
1725, 3522782242, -0.2556837, -0.35498402, -0.29834747, 0.84829557, 11.774148, 17.599627, -3.9146447, 0
1726, 3522798909, -0.24566782, -0.3859663, -0.30637607, 0.8347546, 13.965218, 15.799436, -3.6861067, 0
1727, 3522815576, -0.23515369, -0.41100222, -0.26414448, 0.8402452, -3.4460306, 11.708365, 38.315086, 0
1730, 3522865577, -0.23821354, -0.38216949, -0.22790249, 0.86328757, -7.2744737, -3.3685064, -0.33230305, 0
1731, 3522882244, -0.24095172, -0.38677052, -0.2269358, 0.8607295, 1.3032106, -3.7075095, 1.3159666, 0
1733, 3522915578, -0.23888415, -0.40678623, -0.23241565, 0.8505568, -1.9766109, -1.1729743, -0.23285103, 0
1734, 3522932245, -0.23785391, -0.42624468, -0.23477854, 0.84060943, -1.6228064, -0.5154166, -0.15822792, 0
1736, 3522965579, -0.23667108, -0.4737141, -0.23578171, 0.81485784, 0.2807008, -0.9775281, -0.93285656, 0
1737, 3522982246, -0.23481369, -0.49830392, -0.23790817, 0.799975, 0.68383604, -0.9189035, -0.59355545, 0
