sep=,
DeviceTag:,Xsens_DOT_3,,,,,,,,,,,,,,,,,
FirmwareVersion:,3.0.0,,,,,,,,,,,,,,,,,
AppVersion:,2023.6.1,,,,,,,,,,,,,,,,,
SyncStatus:,Synced,,,,,,,,,,,,,,,,,
OutputRate:,60Hz,,,,,,,,,,,,,,,,,
FilterProfile:,General,,,,,,,,,,,,,,,,,
Measurement Mode:,Sensor fusion Mode - Extended (Quaternion),,,,,,,,,,,,,,,,,
StartTime:,2025-05-05 12:05:01.049 +0200,,,,,,,,,,,,,,,,,
 2025,,,,,,,,,,,,,,,,,,,

PacketCounter,SampleTimeFine,Quat_W,Quat_X,Quat_Y,Quat_Z,FreeAcc_X,FreeAcc_Y,FreeAcc_Z,Status
1, 3494031667, -0.7752641, -0.092648, 0.53714097, -0.3191781, 0.17285687, -0.06726033, 0.08205032, 0
2, 3494048334, -0.77527684, -0.092626326, 0.5369479, -0.31947833, 0.11940241, -0.08753921, 0.058359146, 0
3, 3494065001, -0.77526945, -0.09266263, 0.5367362, -0.31984115, 0.10862417, -0.042853355, 0.04912281, 0
4, 3494081668, -0.77526635, -0.09276857, 0.5364459, -0.3203047, 0.06650092, -0.047973257, 0.016256332, 0
5, 3494098335, -0.7752135, -0.09300203, 0.53614205, -0.32087344, 0.03865925, -0.060483277, -0.04296589, 0
6, 3494115002, -0.7751555, -0.09329164, 0.5358081, -0.32148674, 0.09576949, -0.017590972, -0.05813694, 0
7, 3494131669, -0.77513224, -0.09355446, 0.53544146, -0.32207653, 0.051450446, 0.023990009, -0.021151543, 0
8, 3494148336, -0.77508414, -0.09387037, 0.5351217, -0.32263148, 0.06017416, 0.09514231, 0.014186859, 0
9, 3494165003, -0.77500176, -0.09419863, 0.5348946, -0.32310966, 0.060354758, 0.14835471, -0.017234802, 0
10, 3494181670, -0.77493095, -0.09450942, 0.53472733, -0.3234654, 0.09153379, 0.19427636, -0.045297623, 0
11, 3494198337, -0.774782, -0.09489742, 0.5346335, -0.32386348, 0.11958569, 0.16755517, -0.045887947, 0
12, 3494215004, -0.77464974, -0.09518256, 0.53461146, -0.3241322, 0.12538987, 0.15472864, -0.005054474, 0
13, 3494231671, -0.77452487, -0.09544513, 0.53462315, -0.32433408, 0.12432908, 0.15502404, 0.002948761, 0
14, 3494248338, -0.77440417, -0.09567502, 0.534626, -0.32455015, 0.12458433, 0.15967315, -0.010412216, 0
15, 3494265005, -0.77431756, -0.09579663, 0.53465724, -0.3246695, 0.16168524, 0.17360033, 0.026812553, 0
16, 3494281672, -0.7742248, -0.09591055, 0.53469276, -0.3247983, 0.15299864, 0.12994845, 0.05240345, 0
17, 3494298339, -0.77419245, -0.09598449, 0.5347156, -0.32481587, 0.09625362, 0.0694557, 0.020709038, 0
18, 3494315006, -0.77413005, -0.09615766, 0.5347539, -0.32485068, 0.11098134, 0.08576016, -0.027350426, 0
19, 3494331673, -0.7740787, -0.09639209, 0.5347381, -0.3249295, 0.13660575, 0.113975376, -0.07982445, 0
20, 3494348340, -0.7740454, -0.09668093, 0.534627, -0.3251056, 0.1468954, 0.090409175, -0.01697445, 0
21, 3494365007, -0.77397823, -0.09698921, 0.53451884, -0.32535136, 0.0897181, 0.07934911, 0.05335903, 0
22, 3494381674, -0.77383876, -0.097286716, 0.53452045, -0.3255913, 0.090390876, 0.09481629, 0.025213242, 0
23, 3494398341, -0.7737219, -0.097539224, 0.534497, -0.32583228, 0.064592116, 0.16373673, -0.014502525, 0
24, 3494415008, -0.7736357, -0.097723015, 0.53447497, -0.32601815, 0.061537586, 0.17930539, -0.018839836, 0
26, 3494448342, -0.77343863, -0.09825206, 0.53437185, -0.32649505, 0.111524485, 0.100799665, -0.00595665, 0
27, 3494465009, -0.7733607, -0.09850165, 0.53434247, -0.32665268, 0.12059865, 0.111733705, 0.046642303, 0
28, 3494481676, -0.77328324, -0.09873521, 0.5342887, -0.32685363, 0.13806753, 0.15653726, 0.041894913, 0
30, 3494515010, -0.77306604, -0.09913087, 0.5342365, -0.3273325, 0.029752256, 0.12174368, 0.080459595, 0
31, 3494531677, -0.7729614, -0.09922227, 0.53430235, -0.32744458, 0.028330266, 0.15843719, 0.027876854, 0
32, 3494548344, -0.7728882, -0.09928766, 0.53436893, -0.3274886, 0.05733912, 0.13960275, -0.032693863, 0
34, 3494581678, -0.7727863, -0.09941405, 0.53443897, -0.32757652, 0.16110054, 0.07681548, 0.001750946, 0
36, 3494615012, -0.77272505, -0.09933881, 0.5344539, -0.3277194, 0.20221709, 0.11472149, 0.02176857, 0
39, 3494665013, -0.77285093, -0.098989025, 0.5344251, -0.3275755, 0.0083307745, -0.0028756058, -0.070773125, 0
40, 3494681680, -0.7728974, -0.0989668, 0.53440565, -0.32750407, 0.02563023, 0.09480551, -0.078577995, 0
42, 3494715014, -0.77291757, -0.09889683, 0.53439534, -0.32749444, 0.12604477, 0.09180043, 0.1379528, 0
43, 3494731681, -0.7728911, -0.09875901, 0.5343912, -0.32760507, 0.1609532, 0.057232477, 0.19480228, 0
45, 3494765015, -0.77269244, -0.09839976, 0.5345954, -0.3278488, 0.008070606, -0.042568237, -0.035984993, 0
46, 3494781682, -0.7725599, -0.09831214, 0.5347125, -0.32799664, -0.013071932, -0.0359187, -0.15899944, 0
47, 3494798349, -0.7724629, -0.09830759, 0.53483886, -0.32802024, -0.0018149252, 0.0077150525, -0.14488888, 0
49, 3494831683, -0.7722894, -0.09849848, 0.53503686, -0.32804856, 0.08829879, 0.086422175, 0.03480053, 0
50, 3494848350, -0.77226293, -0.098515876, 0.5351217, -0.32796755, 0.12077835, 0.07507725, 0.083646774, 0
51, 3494865017, -0.77220345, -0.0985222, 0.53522843, -0.3279311, 0.1466321, 0.060890183, 0.13161564, 0
55, 3494931685, -0.7717174, -0.098468915, 0.5358872, -0.32801527, 0.058449533, 0.06367526, -0.007163048, 0
57, 3494965019, -0.7714222, -0.098290384, 0.5362244, -0.3282122, 0.17452338, 0.103352085, 0.0674696, 0
58, 3494981686, -0.77122927, -0.09828094, 0.5363631, -0.32844183, 0.14763477, 0.03273294, 0.025933266, 0
59, 3494998353, -0.7711461, -0.098232865, 0.5364553, -0.32850075, 0.14350906, -0.054854218, -0.06821251, 0
61, 3495031687, -0.7709049, -0.09862813, 0.5364145, -0.32901505, 0.08026574, -0.06804369, -0.02097416, 0
62, 3495048354, -0.7706261, -0.099070296, 0.5364226, -0.3295216, 0.12674749, 0.037860163, 0.09041786, 0
63, 3495065021, -0.77029866, -0.09941317, 0.5365208, -0.3300238, 0.19855952, 0.16904561, 0.15538597, 0
65, 3495098355, -0.76967144, -0.09973325, 0.5366786, -0.3311321, 0.15962625, 0.11077872, 0.0513649, 0
66, 3495115022, -0.76931536, -0.09992483, 0.53675425, -0.33177873, 0.13220434, 0.017235978, 0.008831024, 0
67, 3495131689, -0.76900566, -0.10006876, 0.5368562, -0.33228776, 0.076484345, 0.06777787, -0.015990257, 0
69, 3495165023, -0.76840144, -0.100458704, 0.536988, -0.33335328, 0.120659895, 0.089425914, -0.011665344, 0
70, 3495181690, -0.76807594, -0.10066279, 0.53706336, -0.33391994, 0.17246841, 0.051881324, -0.0051088333, 0
72, 3495215024, -0.76720333, -0.10132108, 0.5372206, -0.33547026, 0.17794672, 0.023240263, 0.0070962906, 0
73, 3495231691, -0.7666837, -0.10178201, 0.53731024, -0.33637375, 0.17560251, 0.039114237, 0.051285744, 0
74, 3495248358, -0.7660817, -0.102328494, 0.5374183, -0.33740562, 0.13664152, 0.078214474, 0.071647644, 0
76, 3495281692, -0.764662, -0.10353054, 0.53773636, -0.33974475, 0.12999359, 0.08323402, -0.029123306, 0
77, 3495298359, -0.76386434, -0.10420462, 0.53784716, -0.34115443, 0.2115045, 0.081116565, -0.038746834, 0
78, 3495315026, -0.7630458, -0.10503383, 0.5378821, -0.34267378, 0.21898012, 0.07453682, -0.0062036514, 0
80, 3495348360, -0.7613142, -0.1070721, 0.5377059, -0.3461532, 0.17671917, 0.12119415, 0.10808182, 0
82, 3495381694, -0.75943816, -0.10899739, 0.53756446, -0.3498728, 0.08440699, 0.23537837, -0.0049362183, 0
84, 3495415028, -0.75781375, -0.11049466, 0.53755814, -0.3529214, 0.057672154, 0.23196995, -0.009965897, 0
85, 3495431695, -0.7571215, -0.111167595, 0.53768355, -0.3540029, 0.06383128, 0.16075434, 0.019377708, 0
86, 3495448362, -0.75656396, -0.11184898, 0.53779507, -0.35481012, 0.067452185, 0.041113924, 0.046218872, 0
88, 3495481696, -0.755755, -0.113066725, 0.53767693, -0.3563245, 0.07520138, -0.17131282, -0.0025749207, 0
89, 3495498363, -0.7553724, -0.11367813, 0.53742003, -0.3573271, 0.12077299, -0.20445682, 0.11217499, 0
92, 3495548364, -0.75394785, -0.11499828, 0.536786, -0.36084932, 0.22932662, 0.045323655, 0.04949093, 0
93, 3495565031, -0.75350624, -0.11528859, 0.5364935, -0.3621116, 0.15794095, -0.12084189, -0.0038690567, 0
94, 3495581698, -0.7530856, -0.11574623, 0.5361229, -0.36338738, 0.06909009, -0.24023686, -0.04310417, 0
96, 3495615032, -0.7522421, -0.11710795, 0.53514594, -0.36612803, -0.0030147429, -0.07195699, 0.16411209, 0
99, 3495665033, -0.7506708, -0.11856276, 0.53435993, -0.37001216, -0.027280651, 0.044050463, 0.06546497, 0
100, 3495681700, -0.7499726, -0.11913511, 0.5341641, -0.37152368, -0.037719153, -0.026745811, -0.08158684, 0
101, 3495698367, -0.74917233, -0.11996988, 0.5339856, -0.37312287, -0.04255642, -0.10439595, -0.08875561, 0
103, 3495731701, -0.74767184, -0.12177205, 0.53357196, -0.37612838, -0.044778585, 0.39268565, 0.030958176, 0
104, 3495748368, -0.747257, -0.122084096, 0.5332734, -0.37727356, -0.14915243, 0.6739262, 0.022436142, 0
105, 3495765035, -0.74744844, -0.12143696, 0.5328446, -0.37770832, -0.114540555, 0.97552574, -0.015780449, 0
107, 3495798369, -0.748245, -0.12027179, 0.53203356, -0.37764734, -0.059768707, -0.39734238, 0.20723057, 0
108, 3495815036, -0.74803525, -0.12042178, 0.53237695, -0.37753123, 0.09616734, -0.51664203, -0.06703949, 0
109, 3495831703, -0.7476086, -0.12066769, 0.5330091, -0.3774058, 0.031273846, -0.17287855, -0.14899445, 0
111, 3495865037, -0.74707663, -0.120660126, 0.5331631, -0.3782432, -0.022687906, 1.0544283, -0.561327, 0
113, 3495898371, -0.7483915, -0.12159593, 0.5313895, -0.37784037, 0.42147258, -0.3695745, 0.35290432, 0
115, 3495931705, -0.7485693, -0.123034745, 0.5307624, -0.3779033, 0.46314657, -0.06854638, 0.036043167, 0
116, 3495948372, -0.7483685, -0.1238012, 0.5307722, -0.378037, 0.3176633, -0.20057231, -0.25425053, 0
117, 3495965039, -0.747869, -0.12502219, 0.5309103, -0.37842953, 0.23357059, -0.5403503, -0.16130638, 0
119, 3495998373, -0.74640983, -0.12796375, 0.53187376, -0.37897384, -0.03700749, 0.011728549, -0.3047104, 0
120, 3496015040, -0.7461229, -0.12881282, 0.5323056, -0.37864494, -0.17966597, 0.6782479, -0.2281723, 0
121, 3496031707, -0.74610245, -0.12897088, 0.5326644, -0.37812626, 0.064708345, 0.33857614, -9.803772E-4, 0
123, 3496065041, -0.7458199, -0.12838338, 0.5332711, -0.37802854, 0.28871572, -0.11890473, 0.5226774, 0
124, 3496081708, -0.7454973, -0.1280267, 0.5336397, -0.37826574, 0.18531147, -0.21757065, 0.3927803, 0
125, 3496098375, -0.7448996, -0.12800188, 0.5339741, -0.3789788, 0.4747081, -0.630475, 0.3625288, 0
128, 3496148376, -0.7441721, -0.12575611, 0.5335291, -0.3817765, -0.017367851, 0.39937344, -0.19371986, 0
130, 3496181710, -0.74462336, -0.12505513, 0.5322259, -0.382944, -0.025204662, 0.11193245, -0.0663023, 0
131, 3496198377, -0.7447922, -0.12502536, 0.5315536, -0.38355848, 0.10175114, -0.0010216498, -0.078873634, 0
132, 3496215044, -0.7449279, -0.124958925, 0.53086334, -0.3842723, 0.25940868, 0.10119592, 0.07368088, 0
134, 3496248378, -0.74501085, -0.12538649, 0.52954304, -0.38579085, 0.1913557, 0.0042378753, 0.16940594, 0
135, 3496265045, -0.7450856, -0.12544803, 0.5291209, -0.3862054, 0.104832046, 0.25573424, 0.106331825, 0
136, 3496281712, -0.74519217, -0.12551072, 0.5287928, -0.38642877, -0.008348656, 0.23245032, -0.035715103, 0
138, 3496315046, -0.74587005, -0.12527457, 0.52784497, -0.3864935, -0.063258186, 0.01710678, -0.08012676, 0
139, 3496331713, -0.7463632, -0.12521856, 0.5271099, -0.38656247, -0.015897583, -0.12352702, 0.088754654, 0
140, 3496348380, -0.7467474, -0.12528145, 0.5264722, -0.38666922, 0.062369503, -0.19898625, 0.21294785, 0
142, 3496381714, -0.7467991, -0.12558246, 0.525901, -0.38724828, 0.04777213, 0.103036396, 0.1736288, 0
143, 3496398381, -0.74665344, -0.12563427, 0.5257912, -0.38766128, 0.034698598, 0.25424442, 0.04000759, 0
144, 3496415048, -0.7465886, -0.12543252, 0.52574164, -0.3879189, 0.047888543, 0.38116446, -0.1565342, 0
146, 3496448382, -0.74693173, -0.12471151, 0.5252157, -0.38820344, 0.2548146, 0.10731136, 0.0073251724, 0
147, 3496465049, -0.74730545, -0.124575265, 0.52448386, -0.38851714, 0.44736788, -0.23813719, 0.2157774, 0
148, 3496481716, -0.74779475, -0.124710225, 0.52340406, -0.38898852, 0.6335139, -0.54540837, 0.25853348, 0
150, 3496515050, -0.7477981, -0.12682775, 0.52095485, -0.3915766, 0.7166925, -0.84312165, 0.13946152, 0
151, 3496531717, -0.74718046, -0.12887982, 0.51975757, -0.39367056, 0.56785434, -0.56199056, -0.12957287, 0
153, 3496565051, -0.74492615, -0.13275817, 0.5177674, -0.39923757, 0.32711613, 0.42265642, -0.22759247, 0
155, 3496598385, -0.7418903, -0.13593821, 0.5157365, -0.40638497, 0.23969708, 0.11640219, 0.002380371, 0
157, 3496631719, -0.73871523, -0.13982885, 0.5135163, -0.4135964, 0.28010687, -0.025878243, 0.36109734, 0
158, 3496648386, -0.73725635, -0.14176646, 0.5125554, -0.4167202, 0.20381817, 0.13735865, 0.3628769, 0
159, 3496665053, -0.7360008, -0.14342104, 0.51170105, -0.4194147, 0.09241143, 0.33955625, 0.12219906, 0
161, 3496698387, -0.73390305, -0.14588189, 0.51049876, -0.42368513, -0.14727895, 0.29774928, -0.23781681, 0
162, 3496715054, -0.7329069, -0.14725074, 0.5101144, -0.42539534, -0.20353313, -0.057243764, -0.3882618, 0
163, 3496731721, -0.7319106, -0.14890201, 0.5098661, -0.42683113, -0.13268042, -0.15218902, -0.43561554, 0
165, 3496765055, -0.73044074, -0.153122, 0.5091712, -0.4286817, -0.008081782, 0.15685435, -0.04522133, 0
166, 3496781722, -0.7300214, -0.15509911, 0.5087813, -0.42914784, 0.06472891, 0.37939066, 0.12756252, 0
167, 3496798389, -0.7297497, -0.15691364, 0.5082908, -0.42953157, 0.1938872, 0.23209302, 0.21867657, 0
170, 3496848390, -0.7279434, -0.16123629, 0.5082999, -0.43098247, 0.08480171, 0.17854077, -0.025633812, 0
171, 3496865057, -0.72717726, -0.162108, 0.50865144, -0.43153358, 0.12538272, 0.13746601, -0.069690704, 0
173, 3496898391, -0.72544086, -0.16394754, 0.5092892, -0.4330064, 0.2768664, -0.49546447, -0.09954929, 0
174, 3496915058, -0.7247242, -0.16458842, 0.50975513, -0.43341476, 0.23801224, -0.025314923, -0.024682999, 0
175, 3496931725, -0.7235196, -0.16611642, 0.51000196, -0.4345526, 0.12579449, -0.07770653, -0.049717903, 0
177, 3496965059, -0.72179824, -0.16717958, 0.51062036, -0.43627772, 0.053228717, 0.25601476, -0.026239395, 0
178, 3496981726, -0.7208277, -0.16728452, 0.5109917, -0.43740603, -0.08991166, 0.6268307, -0.18314266, 0
180, 3497015060, -0.72042525, -0.16592276, 0.5112453, -0.43829054, -0.53171253, 1.5677361, -0.503891, 0
181, 3497031727, -0.72141653, -0.16443479, 0.5109096, -0.43761194, -0.4109174, 1.1690048, -0.17866802, 0
182, 3497048394, -0.7228206, -0.16292107, 0.5103826, -0.43647456, -0.22027068, 0.45445296, 0.1818695, 0
185, 3497098395, -0.72622764, -0.15938708, 0.5094288, -0.433226, 0.0795572, -0.39515913, 0.31670094, 0
186, 3497115062, -0.7266995, -0.15863407, 0.50981355, -0.4322576, -0.041787535, -0.2118312, 0.09789944, 0
188, 3497148396, -0.7276118, -0.15695608, 0.5109144, -0.4300296, -0.39342704, 0.17668685, -0.3817644, 0
189, 3497165063, -0.7281708, -0.15604699, 0.5112725, -0.4289875, -0.32344425, 0.049739372, -0.22297764, 0
190, 3497181730, -0.7284905, -0.1552914, 0.5115272, -0.42841506, 0.036625728, -0.23514988, 0.20933533, 0
192, 3497215064, -0.72810835, -0.15455759, 0.5121175, -0.42862454, 0.2586814, -0.30167115, 0.30364418, 0
193, 3497231731, -0.7382095, -0.14463638, 0.50549316, -0.4226309, 9.861472, -4.2862697, -4.797994, 0
194, 3497248398, -0.76844877, -0.12151965, 0.4734872, -0.41296795, -13.72705, 19.385727, 3.8504066, 0
196, 3497281732, -0.76374733, -0.096900895, 0.48872906, -0.41043568, 0.46840516, -4.6721907, -2.873991, 0
197, 3497298399, -0.76359725, -0.09607647, 0.4895674, -0.40990937, -0.39342034, 2.812374, -0.35594082, 0
200, 3497348400, -0.75182796, -0.120456606, 0.50912195, -0.4013142, 1.1134607, 0.21391314, 2.2575235, 0
201, 3497365067, -0.748458, -0.124651834, 0.5135281, -0.4007174, 0.35311827, -0.040271197, 0.5942373, 0
202, 3497381734, -0.7453884, -0.12760529, 0.5170763, -0.40094662, -0.07330242, 0.19671926, -0.06271553, 0
204, 3497415068, -0.74429554, -0.12943374, 0.51760983, -0.40170175, -0.05520591, 0.7806769, 0.46996117, 0
205, 3497431735, -0.74447715, -0.12800346, 0.51721907, -0.40232626, -0.5546655, 1.1575987, -0.42786026, 0
207, 3497465069, -0.7457601, -0.12374318, 0.516467, -0.40224963, -0.4886771, 0.20939639, -0.4041357, 0
208, 3497481736, -0.746669, -0.12150625, 0.51628804, -0.40147406, -0.24474049, -0.012522253, -0.28144073, 0
209, 3497498403, -0.74778455, -0.11992589, 0.515985, -0.40026093, -0.09449368, 0.02606516, -0.45344162, 0
211, 3497531737, -0.7493843, -0.12172971, 0.51452214, -0.39860395, -0.15789267, -0.31199476, 0.21410275, 0
212, 3497548404, -0.749439, -0.12324949, 0.51421905, -0.39842516, -0.27617216, -0.08974091, 0.6281004, 0
213, 3497565071, -0.74895304, -0.12507203, 0.5144641, -0.3984545, -0.16398966, 0.12279039, 0.41173363, 0
215, 3497598405, -0.7464957, -0.13068771, 0.51532114, -0.40015274, 0.42375463, -0.56477046, -0.039538383, 0
216, 3497615072, -0.74490637, -0.13320568, 0.51602, -0.40138182, 0.52514815, -0.69298, -0.074910164, 0
217, 3497631739, -0.74334544, -0.13583097, 0.5164116, -0.40288925, 0.45872906, -0.17928122, 0.056331635, 0
219, 3497665073, -0.7407333, -0.1417304, 0.5155195, -0.40679157, -0.12739299, 0.4540788, -0.16015816, 0
220, 3497681740, -0.7401745, -0.14295496, 0.515012, -0.4080214, -0.3055136, 0.49813187, -0.42595768, 0
221, 3497698407, -0.73980236, -0.1434587, 0.51472723, -0.40887788, -0.33939102, 0.10626987, -0.49823666, 0
223, 3497731741, -0.7394461, -0.14386332, 0.51347905, -0.41094458, 0.12402958, -0.12746641, 0.032307625, 0
224, 3497748408, -0.7391134, -0.14436637, 0.5128933, -0.4120962, 0.1435095, -0.0057558324, 0.10461712, 0
227, 3497798409, -0.7382417, -0.14567684, 0.5120794, -0.41420436, -0.037667744, 0.0148099195, -2.4795532E-5, 0
228, 3497815076, -0.73775715, -0.14572814, 0.5124769, -0.41455775, -0.29206258, 0.3776404, -0.40068913, 0
229, 3497831743, -0.737557, -0.14543433, 0.51287025, -0.41453087, -0.3853911, 0.6852709, -0.59482384, 0
231, 3497865077, -0.73852354, -0.14417012, 0.5125754, -0.41361552, -0.15837815, 0.29492483, -0.13781929, 0
232, 3497881744, -0.73913157, -0.14365798, 0.5121175, -0.41327453, 0.051059745, 0.07495662, 0.19906425, 0
234, 3497915078, -0.73995423, -0.14344107, 0.51165813, -0.41244575, 0.34682193, -0.58052963, 0.47210217, 0
235, 3497931745, -0.73981184, -0.14367136, 0.5121619, -0.41199577, 0.26451954, -0.40339458, 0.20856762, 0
236, 3497948412, -0.73943734, -0.14389634, 0.5127704, -0.41183257, 0.07869399, 0.059381105, -0.036459923, 0
238, 3497981746, -0.739593, -0.14359182, 0.5132266, -0.41109008, -0.07936811, 0.391864, -0.14580059, 0
239, 3497998413, -0.73962283, -0.14320652, 0.51317686, -0.4112332, -0.029556012, 0.09628352, -0.016539574, 0
242, 3498048414, -0.7395129, -0.14209895, 0.51318264, -0.41180706, 0.11532151, 0.16391091, 0.01619339, 0
243, 3498065081, -0.73873913, -0.14208022, 0.5131006, -0.413302, 0.260735, 0.030699065, -0.016233444, 0
244, 3498081748, -0.7389878, -0.14177647, 0.5127457, -0.41340262, -0.050352998, 0.4924189, 0.065956116, 0
246, 3498115082, -0.7386451, -0.14205171, 0.51198006, -0.41486716, 0.06915938, 0.15492934, 0.12666988, 0
247, 3498131749, -0.7379185, -0.1425204, 0.51152676, -0.41655487, 0.074024364, -0.21885893, 0.16509247, 0
248, 3498148416, -0.73785156, -0.14239821, 0.51140636, -0.4168626, 0.2983375, -0.086843945, 0.21150494, 0
250, 3498181750, -0.7375799, -0.14293787, 0.5112528, -0.41734695, 0.17775896, 0.17752656, 0.05075264, 0
251, 3498198417, -0.7371089, -0.14392774, 0.5110991, -0.4180269, 0.10550035, -0.26315734, 0.08155441, 0
252, 3498215084, -0.7371844, -0.14357367, 0.5114091, -0.41763568, 0.15642151, 0.13218135, 0.13200378, 0
254, 3498248418, -0.73654366, -0.1429379, 0.5125067, -0.41763878, 0.036287777, -0.14715074, -0.09992695, 0
256, 3498281752, -0.73609704, -0.14235364, 0.51349235, -0.41741496, 0.13752529, 0.10744908, -0.07301903, 0
258, 3498315086, -0.7360638, -0.1420857, 0.51429707, -0.41657352, 0.04732529, -0.16144776, 0.15364456, 0
259, 3498331753, -0.73593765, -0.14182301, 0.5150306, -0.41597903, -0.016513137, -0.17315523, 0.2595539, 0
262, 3498381754, -0.73445666, -0.14070037, 0.5182564, -0.41497022, 0.4025562, -0.3438994, 0.23751736, 0
265, 3498431755, -0.73327863, -0.14032784, 0.5215881, -0.41300082, -0.07334667, 0.12423895, -0.7685938, 0
266, 3498448422, -0.7331532, -0.14036208, 0.5218777, -0.41284612, -0.17557703, 0.17432383, -0.5049658, 0
269, 3498498423, -0.7332785, -0.14043884, 0.5208252, -0.41392508, 0.3196593, 0.081259444, 0.5155697, 0
270, 3498515090, -0.7332625, -0.14069389, 0.5206584, -0.41407686, 0.5521101, -0.23798184, 0.65652657, 0
271, 3498531757, -0.73321605, -0.1409279, 0.5207348, -0.4139833, 0.4922819, -0.14819652, 0.3534279, 0
273, 3498565091, -0.7322284, -0.14254744, 0.52120686, -0.41458243, 0.4726083, -0.5075958, -0.18697548, 0
275, 3498598425, -0.72959024, -0.14542715, 0.5212484, -0.41816545, -0.117640235, 0.7559307, -0.6401949, 0
277, 3498631759, -0.73188716, -0.15794612, 0.5237558, -0.4063095, 12.536282, 22.612082, -3.1027284, 0
278, 3498648426, -0.7214943, -0.16841337, 0.5280049, -0.41509897, -10.614575, -12.475305, 15.231842, 0
279, 3498665093, -0.72125393, -0.14269088, 0.5392084, -0.41073054, 2.131569, -2.7188025, -5.0955124, 0
281, 3498698427, -0.7236056, -0.14194529, 0.541392, -0.40392405, -2.6753316, -5.131111, -8.44282, 0
282, 3498715094, -0.7298043, -0.14558871, 0.5368947, -0.3974256, -0.8516315, -1.9161252, -2.5087528, 0
283, 3498731761, -0.736294, -0.14748469, 0.5320087, -0.3912797, 0.17480814, 1.9978746, 1.1534204, 0
285, 3498765095, -0.7405003, -0.14929862, 0.52646464, -0.39015055, 1.5291817, 2.0105622, 3.9116383, 0
286, 3498781762, -0.7418939, -0.14884727, 0.52540916, -0.38909674, 1.1037941, 0.041007977, 2.309822, 0
288, 3498815096, -0.74306566, -0.14988214, 0.5257964, -0.38592744, 0.7001856, -0.4329326, 1.1512613, 0
289, 3498831763, -0.74264985, -0.14998676, 0.52699745, -0.38504857, -0.08607081, -0.22940415, 0.013364792, 0
290, 3498848430, -0.74217474, -0.14980558, 0.5274228, -0.38545197, -0.555933, 0.21510708, -0.7526798, 0
292, 3498881764, -0.74182713, -0.14953047, 0.52546066, -0.38889277, -0.38074806, -0.14201179, -0.31560612, 0
293, 3498898431, -0.7421405, -0.14867434, 0.5243641, -0.39010122, -0.20723808, -0.53641826, 0.11386871, 0
294, 3498915098, -0.7424824, -0.14771552, 0.5240041, -0.39029855, -0.12491066, -0.60489494, -0.28016376, 0
296, 3498948432, -0.7431573, -0.14734122, 0.52337605, -0.38999823, -0.34120145, -0.38941517, -0.66120243, 0
297, 3498965099, -0.7436879, -0.14787026, 0.5223292, -0.39019012, -0.23114368, 0.023959335, -0.1630516, 0
298, 3498981766, -0.7441498, -0.14850746, 0.52163315, -0.3899982, -0.2135121, 0.44979784, -0.0029735565, 0
300, 3499015100, -0.7455923, -0.14802101, 0.52167314, -0.3873657, -0.051973913, 0.6159053, 0.45406914, 0
302, 3499048434, -0.7475663, -0.14573479, 0.5211287, -0.38515508, -0.06996045, 0.11233897, 0.047813416, 0
304, 3499081768, -0.7487482, -0.14285845, 0.52009445, -0.3853346, -0.1946011, -0.020047918, 0.14306545, 0
305, 3499098435, -0.74916464, -0.14170887, 0.51961607, -0.38559464, -0.19054033, -0.16101474, 0.12893867, 0
306, 3499115102, -0.74965537, -0.14088698, 0.51908904, -0.38565186, -0.23694967, -0.26299632, 0.09961891, 0
308, 3499148436, -0.75091636, -0.14008455, 0.5177347, -0.3853112, -0.17221539, -0.047234647, -0.10253811, 0
309, 3499165103, -0.75144595, -0.13989213, 0.5168377, -0.385553, -0.033711564, -0.021255527, 0.092487335, 0
310, 3499181770, -0.75189567, -0.13951023, 0.51567864, -0.38636604, 0.015697762, 0.0029593883, 0.2467556, 0
312, 3499215104, -0.7527214, -0.13811249, 0.51302797, -0.3887813, -0.1914983, 0.123673685, 0.08764076, 0
313, 3499231771, -0.7529729, -0.13777998, 0.51185566, -0.38995588, -0.15991905, 0.01798757, 0.2078371, 0
314, 3499248438, -0.75339437, -0.13718699, 0.5111582, -0.39026564, -0.050269406, 0.09656907, 0.08775139, 0
317, 3499298439, -0.75570583, -0.13626513, 0.50750107, -0.39089194, 0.030613229, -0.12815979, -0.13005733, 0
319, 3499331773, -0.7565181, -0.13643116, 0.5056455, -0.39166683, 0.25524956, -0.18858257, -0.037350655, 0
320, 3499348440, -0.7566567, -0.13682717, 0.5049187, -0.39219806, 0.25614405, -0.06032002, 0.015315056, 0
321, 3499365107, -0.75661653, -0.13723634, 0.5043799, -0.39282513, 0.1982095, 0.012799912, 0.033763885, 0
323, 3499398441, -0.75654125, -0.13851514, 0.5027109, -0.3946562, 0.18302423, -0.21357124, -0.09380913, 0
324, 3499415108, -0.75645214, -0.13903657, 0.50193024, -0.39563638, 0.34411606, 0.027235221, -0.1688776, 0
325, 3499431775, -0.7561101, -0.14013954, 0.50086266, -0.3972507, 0.34435835, -0.14782993, 0.110705376, 0
327, 3499465109, -0.75495887, -0.14158763, 0.499741, -0.4003277, 0.17125832, 0.14071244, -0.07196617, 0
328, 3499481776, -0.7542231, -0.14213775, 0.49949607, -0.40182257, 0.005681252, 0.3770011, -0.25282288, 0
329, 3499498443, -0.7536296, -0.14253998, 0.49934173, -0.40298364, -0.13107604, 0.5169231, -0.2672186, 0
332, 3499548444, -0.7537231, -0.14257082, 0.49892682, -0.40331164, -0.08312849, 0.33147466, -0.057305336, 0
333, 3499565111, -0.7541809, -0.1422903, 0.49893442, -0.40254468, -0.007885537, 0.29284808, 0.07690811, 0
335, 3499598445, -0.75511926, -0.14127275, 0.49929458, -0.40069342, -0.049941286, 0.30683675, 0.059716225, 0
336, 3499615112, -0.7554555, -0.14064066, 0.4996433, -0.39984608, -0.12089056, 0.25714114, -0.020111084, 0
337, 3499631779, -0.75578624, -0.13991731, 0.5000139, -0.39901078, -0.10001087, 0.22336213, -0.07027912, 0
339, 3499665113, -0.7564568, -0.13840164, 0.5008782, -0.3971805, 0.009151068, 0.20237504, 0.013401985, 0
340, 3499681780, -0.7567447, -0.13781781, 0.5012237, -0.39639837, 0.07224131, 0.17218186, 0.11882305, 0
342, 3499715114, -0.75728923, -0.13645041, 0.5017749, -0.39513218, 0.11960447, 0.069729, 0.12765217, 0
343, 3499731781, -0.7575314, -0.13577022, 0.502006, -0.39460862, 0.034974862, 0.074033186, 0.10053921, 0
344, 3499748448, -0.7577839, -0.13506311, 0.5022232, -0.39409003, -0.012658433, 0.1303584, 0.012392044, 0
347, 3499798449, -0.75809175, -0.13334467, 0.50261676, -0.39358076, -1.1801484E-4, 0.27012047, -0.13651657, 0
348, 3499815116, -0.7581301, -0.1326814, 0.5027618, -0.39354575, 0.070370816, 0.28600577, 0.05372238, 0
350, 3499848450, -0.7584188, -0.13113531, 0.5029055, -0.39332387, 0.09928401, 0.12514783, 0.21564198, 0
351, 3499865117, -0.7586244, -0.13045667, 0.5029156, -0.3931402, 0.119137324, 0.09102357, 0.21670914, 0
352, 3499881784, -0.7588588, -0.12988423, 0.50287783, -0.39292556, 0.0803766, 0.12910743, 0.16649055, 0
354, 3499915118, -0.7592874, -0.12881364, 0.50266546, -0.39272213, 0.14339921, 0.2712735, -0.02929306, 0
355, 3499931785, -0.75949514, -0.12818299, 0.5025154, -0.39271837, 0.10013828, 0.20397697, -0.008570671, 0
356, 3499948452, -0.75963616, -0.12759383, 0.5023879, -0.39280057, 0.07140497, 0.16594917, -6.685257E-4, 0
358, 3499981786, -0.7599399, -0.12634143, 0.50221145, -0.39284348, 0.05876111, 0.22253646, 0.11900997, 0
359, 3499998453, -0.7603032, -0.1253954, 0.5021036, -0.3925812, 0.059129458, 0.25969595, 0.14472389, 0
360, 3500015120, -0.7609245, -0.12416914, 0.5018777, -0.39205617, 0.10283071, 0.17326306, 0.11482239, 0
362, 3500048454, -0.7627713, -0.12115985, 0.5012302, -0.3902331, 0.14052394, 0.11523659, -0.07147598, 0
363, 3500065121, -0.76377, -0.11976511, 0.5008995, -0.38913304, 0.13937776, 0.07780453, -0.110404015, 0
364, 3500081788, -0.7646351, -0.11864048, 0.5006683, -0.38807493, 0.14730443, 0.06453787, -0.06789398, 0
366, 3500115122, -0.7660124, -0.116727166, 0.50043696, -0.38623303, 0.09576636, -0.0043407893, 0.1593771, 0
367, 3500131789, -0.76663667, -0.115396336, 0.5004724, -0.38534725, 0.16752386, 0.023122527, 0.048955917, 0
369, 3500165123, -0.7683033, -0.1120878, 0.50024146, -0.3832991, 0.3579484, -0.11795832, 0.05200863, 0
370, 3500181790, -0.76939285, -0.11052104, 0.49979573, -0.3821484, 0.5022694, -0.34475824, -0.15641308, 0
371, 3500198457, -0.7847094, -0.09710694, 0.47348532, -0.38810623, -8.373809, 24.193819, 4.712034, 1024
374, 3500248458, -0.7783027, -0.06684587, 0.47748357, -0.40224266, -1.1029973, 0.008633495, -2.1843033, 0
375, 3500265125, -0.7811626, -0.06994873, 0.47697634, -0.39673522, -2.661578, -3.7820792, -5.033076, 0
377, 3500298459, -0.78291637, -0.082900435, 0.48813942, -0.37669992, -0.48797148, -0.7776037, -0.88211536, 0
378, 3500315126, -0.77560204, -0.09588516, 0.50043017, -0.37259948, 4.534735, 4.288307, 6.36129, 0
379, 3500331793, -0.77264816, -0.10675576, 0.5053688, -0.36909837, 0.8229586, -0.14082848, 1.039813, 0
381, 3500365127, -0.76892203, -0.11279011, 0.5112027, -0.36704522, 0.55352896, -0.20717768, 1.0839653, 0
382, 3500381794, -0.7686159, -0.11316931, 0.5115177, -0.36713096, 0.19251886, 0.21333042, 0.6899767, 0
383, 3500398461, -0.76835716, -0.11087616, 0.51233566, -0.36723167, -0.33150905, 0.88721794, -0.12590218, 0
385, 3500431795, -0.7680292, -0.104056016, 0.5142708, -0.36720824, -0.6053399, 0.23851576, -0.7312441, 0
386, 3500448462, -0.7681051, -0.10248533, 0.5139511, -0.36793864, -0.37517142, -0.27822983, -0.46395493, 0
389, 3500498463, -0.76969516, -0.10294978, 0.50908256, -0.37123984, -0.46336147, -0.22760592, -0.058721542, 0
390, 3500515130, -0.770862, -0.10367494, 0.50687844, -0.37163252, -0.6316029, -0.13672598, -0.33820152, 0
391, 3500531797, -0.7721906, -0.10410713, 0.50466144, -0.3717711, -0.33885816, -0.024885876, -0.37834167, 0
393, 3500565131, -0.7734916, -0.10433905, 0.5024428, -0.37200624, 0.5266672, -0.45392662, -0.37010765, 0
394, 3500581798, -0.77301043, -0.105554424, 0.5022705, -0.37289485, 0.3709582, -0.5176114, 0.10334587, 0
396, 3500615132, -0.7689691, -0.10928962, 0.50577533, -0.3754287, 1.2751893, -0.4016807, 1.5844145, 0
397, 3500631799, -0.7663147, -0.111106366, 0.5064503, -0.37939245, 0.934471, 0.17486812, 1.8561344, 0
398, 3500648466, -0.76517785, -0.11184629, 0.50617176, -0.3818335, 0.32629, 0.25906044, 0.7144928, 0
400, 3500681800, -0.7665276, -0.11085941, 0.50079614, -0.3864739, 0.49777365, 0.4475909, 0.2717924, 0
401, 3500698467, -0.767179, -0.110025205, 0.49763128, -0.38949597, 0.3673784, 0.3472512, -0.5464039, 0
404, 3500748468, -0.7680409, -0.10649836, 0.49289888, -0.39475968, 0.14470161, 0.35186014, -1.1507006, 0
405, 3500765135, -0.76824355, -0.10668161, 0.4917856, -0.39570343, 0.2365194, -0.021762144, -0.88407135, 0
406, 3500781802, -0.7676592, -0.107271165, 0.49084684, -0.3978378, -0.25204, -0.3890733, -0.15122128, 0
408, 3500815136, -0.76770616, -0.10604028, 0.48985243, -0.39930016, -0.798642, -0.25436938, 0.019215584, 0
409, 3500831803, -0.76859903, -0.10451518, 0.48890263, -0.39914888, -0.7105953, 0.40150258, 0.1895895, 0
410, 3500848470, -0.7698999, -0.10306039, 0.48761576, -0.3985936, -0.32316265, 0.8319077, 0.6625643, 0
412, 3500881804, -0.77247006, -0.10016076, 0.48518246, -0.39732713, -0.016069688, 0.4005493, 0.85163784, 0
413, 3500898471, -0.7732234, -0.098884426, 0.4845558, -0.39694616, -0.06421438, 0.04835626, 0.44122314, 0
414, 3500915138, -0.77362007, -0.09749463, 0.48439828, -0.39670935, -0.23465195, 0.030289736, -0.09322739, 0
416, 3500948472, -0.7747764, -0.09385734, 0.48405093, -0.3957528, -0.21740972, 0.536909, -0.7443695, 0
418, 3500981806, -0.7770489, -0.08949595, 0.48240978, -0.39430857, 0.087161556, 0.29757312, -0.23879433, 0
420, 3501015140, -0.779037, -0.08533993, 0.4808949, -0.39315605, 0.42669562, -0.24544625, -0.013293266, 0
421, 3501031807, -0.77974254, -0.083605655, 0.4802982, -0.39285928, 0.49701905, -0.12927511, -0.11217499, 0
423, 3501065141, -0.781317, -0.08065433, 0.47834456, -0.39273202, 0.5611731, 0.18021564, 0.09866619, 0
424, 3501081808, -0.7822989, -0.079097375, 0.47701895, -0.39270616, 0.4808479, 0.23336403, 0.30998135, 0
427, 3501131809, -0.7856627, -0.07328521, 0.47363696, -0.39120942, 0.989643, 0.37250215, -0.019449234, 0
428, 3501148476, -0.7868735, -0.07115915, 0.47222334, -0.39087707, 1.2417274, 0.14486009, -0.15044212, 0
429, 3501165143, -0.78809303, -0.06889292, 0.4706114, -0.39077023, 1.1217083, -0.10180314, -0.07343674, 0
431, 3501198477, -0.7900784, -0.06511065, 0.46732986, -0.39134747, 1.084726, -0.13121957, -0.0018110275, 0
432, 3501215144, -0.79099065, -0.06361435, 0.46557233, -0.39184517, 1.2403231, 0.034475002, -0.014299393, 0
433, 3501231811, -0.79179454, -0.06246959, 0.4636975, -0.39262825, 1.2536346, 0.03966187, 0.19970512, 0
435, 3501265145, -0.79335773, -0.06039327, 0.45981202, -0.3943631, 1.4174246, 0.0036243743, 0.19976902, 0
436, 3501281812, -0.79409987, -0.05953865, 0.4577032, -0.39545113, 1.4715275, -0.009935374, 0.04024887, 0
437, 3501298479, -0.7947689, -0.058801766, 0.4554889, -0.3967717, 1.5720357, 0.03057551, 0.010771751, 0
439, 3501331813, -0.79599845, -0.05724218, 0.45069417, -0.39999747, 1.6653956, -0.0038045768, -0.105137825, 0
440, 3501348480, -0.7966875, -0.056360394, 0.4481706, -0.40158325, 1.8029742, 0.07708246, -0.10328007, 0
441, 3501365147, -0.7974074, -0.055578794, 0.4455161, -0.40321326, 1.8671088, 0.18747747, -0.20149803, 0
443, 3501398481, -0.7988698, -0.054113183, 0.43998662, -0.40657598, 1.957716, 0.435421, -0.2525978, 0
445, 3501431815, -0.800787, -0.052073844, 0.43394655, -0.40955123, 1.9062662, 0.3427701, -0.73090076, 0
448, 3501481816, -0.80399257, -0.050307017, 0.42404345, -0.41384256, 2.162624, 0.1404036, -0.64990044, 0
450, 3501515150, -0.80564743, -0.05045433, 0.4170624, -0.4176828, 2.1581237, 0.2536067, -0.6863375, 0
454, 3501581818, -0.81074685, -0.051851977, 0.39948332, -0.42476714, 2.0642579, 0.8035679, -1.0076971, 0
455, 3501598485, -0.81240875, -0.052391108, 0.3943937, -0.4262795, 2.1358843, 1.0416741, -0.84291935, 0
456, 3501615152, -0.8146996, -0.05252944, 0.38941285, -0.4264694, 1.7336586, 0.95246226, -1.2385807, 0
458, 3501648486, -0.81931096, -0.04969219, 0.37945336, -0.42695302, 1.8177756, 1.2169303, -1.5799112, 0
462, 3501715154, -0.82947004, -0.040819023, 0.3574536, -0.42726266, 2.439676, 0.7834505, -2.0512934, 0
464, 3501748488, -0.83431834, -0.03563743, 0.34893283, -0.4253258, 3.1725152, 0.9935343, -2.6320362, 0
467, 3501798489, -0.8386436, -0.032826945, 0.3351173, -0.42814615, 5.295672, 0.3073264, 0.60350704, 0
468, 3501815156, -0.83809423, -0.03283186, 0.33155528, -0.43197727, 4.9712596, 0.29692763, 1.3096704, 0
471, 3501865157, -0.83164644, -0.03661609, 0.3263563, -0.447804, 5.1978397, 3.596452, 3.9665146, 0
472, 3501881824, -0.83062553, -0.034641054, 0.32457954, -0.45113486, 4.14519, 1.6268299, 4.729102, 0
474, 3501915158, -0.82724243, -0.036023796, 0.32633966, -0.45594722, 1.080121, -1.0348305, 4.6519117, 0
475, 3501931825, -0.8253349, -0.038652737, 0.3306537, -0.45608076, -1.2321125, 1.8697191, 2.7789793, 0
477, 3501965159, -0.8267033, -0.03899198, 0.33440098, -0.45081094, -0.79930043, 2.2570767, 3.0721855, 0
478, 3501981826, -0.8298892, -0.038996957, 0.33475846, -0.4446494, -0.53249997, 1.040549, 4.434249, 0
479, 3501998493, -0.832805, -0.04126013, 0.33506244, -0.43872535, -0.058988646, 0.54233193, 5.105057, 0
481, 3502031827, -0.8361044, -0.044273004, 0.3376224, -0.43010905, -0.8585289, 0.9974049, 3.3488216, 0
482, 3502048494, -0.8379293, -0.044733055, 0.33818102, -0.42605227, -0.30715954, 1.085138, 2.4032907, 0
483, 3502065161, -0.8397002, -0.045688324, 0.33757636, -0.42293203, -0.0023980704, 0.79576623, 1.8082018, 0
486, 3502115162, -0.84424734, -0.050246872, 0.33669975, -0.41396642, 0.867127, -1.044469, 0.44705296, 0
487, 3502131829, -0.8448254, -0.052453037, 0.3382378, -0.41125092, 0.5726091, -0.8234918, -0.097813606, 0
489, 3502165163, -0.8452897, -0.05894368, 0.34221292, -0.40609676, 0.33738586, -0.35022172, -1.7598572, 0
490, 3502181830, -0.8442395, -0.06374342, 0.34463832, -0.40550482, 0.029999908, -0.038065404, -1.6961918, 0
491, 3502198497, -0.8436874, -0.06803599, 0.3480417, -0.40304178, -0.03245028, 0.6318906, -2.1085887, 0
493, 3502231831, -0.8435272, -0.0776896, 0.3552829, -0.3952386, -0.17540224, 0.6561865, -2.5120468, 0
494, 3502248498, -0.8432455, -0.08228044, 0.35890058, -0.3916257, 0.2749272, 0.39861277, -2.055389, 0
495, 3502265165, -0.84259367, -0.086882174, 0.3631395, -0.38811123, 0.6679633, 0.36024052, -1.6162405, 0
497, 3502298499, -0.83882666, -0.09879683, 0.372147, -0.384875, 1.0396916, 0.04832676, -1.2418461, 0
498, 3502315166, -0.83568937, -0.10417547, 0.3772067, -0.3853554, 1.0306886, 0.611622, -0.73266697, 0
501, 3502365167, -0.8246212, -0.12122784, 0.3942966, -0.3871007, 0.1733124, 0.8413254, -0.8167467, 0
502, 3502381834, -0.8215672, -0.1269943, 0.39929497, -0.38662168, 0.30916044, 1.0681385, -0.81202126, 0
503, 3502398501, -0.8175491, -0.13469371, 0.4043573, -0.3872719, -0.33880943, 0.11517536, -1.4655495, 0
505, 3502431835, -0.81056696, -0.14542216, 0.4118682, -0.39014298, -0.1324284, 1.7599657, -0.35038948, 0
506, 3502448502, -0.8066869, -0.1530458, 0.41534063, -0.39158487, -0.5831902, 0.3390967, -1.5532637, 0
508, 3502481836, -0.800037, -0.16486368, 0.41989633, -0.39555138, -0.2535198, 1.0711427, -0.28260326, 0
509, 3502498503, -0.7975373, -0.17005353, 0.4219801, -0.39618444, -0.17093109, 1.0343112, -0.401309, 0
510, 3502515170, -0.794088, -0.17716, 0.42364442, -0.39821753, -0.23816714, 0.12162983, -1.4763813, 0
512, 3502548504, -0.788433, -0.18842934, 0.42340568, -0.40448558, -0.233236, 1.2571596, 0.047307014, 0
513, 3502565171, -0.7858129, -0.19385552, 0.4227836, -0.40765843, -0.727705, 0.56535834, 0.39717007, 0
514, 3502581838, -0.7834478, -0.1983025, 0.42250574, -0.41035104, -0.797623, -0.48292354, 0.13857651, 0
516, 3502615172, -0.77861446, -0.20653701, 0.4234373, -0.4145073, -0.66059387, 0.15343891, -0.50406647, 0
517, 3502631839, -0.7763886, -0.21081701, 0.42411998, -0.4158274, -0.6954138, 0.6088951, -0.91908455, 0
518, 3502648506, -0.773996, -0.21489157, 0.42422214, -0.41809162, -0.5854636, 0.90775406, -0.9297657, 0
520, 3502681840, -0.77105427, -0.22249638, 0.42263052, -0.42115027, 0.18620239, 0.056499995, 0.14894676, 0
521, 3502698507, -0.7696486, -0.22540548, 0.42142427, -0.4233775, 0.065881334, -0.29800156, 0.71311855, 0
522, 3502715174, -0.76953286, -0.2258071, 0.42056316, -0.4242291, -0.13672316, 0.13560209, 0.8792076, 0
524, 3502748508, -0.77176476, -0.22337876, 0.4173384, -0.42464465, -1.4921656, 0.7750278, 0.5984106, 0
525, 3502765175, -0.7738788, -0.22155184, 0.41446292, -0.42457068, -1.5424681, 0.43563178, 0.23073006, 0
528, 3502815176, -0.7823613, -0.2122868, 0.4039566, -0.42388374, -1.6339049, -1.2275751, 0.29851055, 0
529, 3502831843, -0.7862881, -0.20585418, 0.40018436, -0.42336845, -2.692716, -0.8022207, 0.5104313, 0
531, 3502865177, -0.7940612, -0.18980229, 0.39225325, -0.42378372, -2.2026455, -0.56492966, -1.3860264, 0
532, 3502881844, -0.7973642, -0.18092641, 0.38801432, -0.42536345, -2.123144, -2.0563211, -1.46066, 0
533, 3502898511, -0.80158925, -0.1689431, 0.38498676, -0.42510164, -1.8643645, -1.9821109, -1.5790968, 0
535, 3502931845, -0.8085969, -0.14253245, 0.37827322, -0.42752564, -2.1502447, 1.0386388, -2.7628622, 0
536, 3502948512, -0.8132027, -0.12933874, 0.37235212, -0.42818233, -1.4148831, 1.5971138, -4.328279, 0
537, 3502965179, -0.8182241, -0.11793563, 0.3625262, -0.43033546, -0.019945625, 1.3690029, -4.5637994, 0
539, 3502998513, -0.82622004, -0.0986813, 0.33485806, -0.44216037, 1.9985288, -1.4942696, -2.6924887, 0
543, 3503065181, -0.8398568, -0.100396544, 0.25439435, -0.4688902, 5.9137263, 0.837485, -1.6127186, 0
545, 3503098515, -0.8358541, -0.09978196, 0.22639193, -0.49005222, 7.4246473, 2.7182567, 0.20716476, 0
547, 3503131849, -0.82951343, -0.09472102, 0.2144943, -0.5068933, 8.639916, 6.1883826, 0.9046211, 0
548, 3503148516, -0.8273665, -0.09668013, 0.20956996, -0.5120657, 8.716181, 6.9249415, 2.051175, 0
549, 3503165183, -0.8247247, -0.097673, 0.20967315, -0.5160811, 8.851446, 7.168172, 3.1180716, 0
551, 3503198517, -0.82230324, -0.097182184, 0.21782164, -0.51666224, 9.005173, 5.7226667, 3.475813, 0
552, 3503215184, -0.82210815, -0.09637983, 0.22416376, -0.5144056, 6.7573385, 4.3342447, 2.8963137, 0
553, 3503231851, -0.8216276, -0.09556642, 0.23204292, -0.5118244, 4.426134, 3.7051547, 2.0322332, 0
555, 3503265185, -0.8221027, -0.09433089, 0.25360185, -0.50094736, 0.90199184, 1.3846188, 2.4680958, 0
556, 3503281852, -0.8227452, -0.0920181, 0.2645611, -0.49461448, -1.5639553, -2.9210525, 3.067604, 0
558, 3503315186, -0.82603854, -0.09117069, 0.27694255, -0.48235282, -4.5027704, -7.4442296, 3.825508, 0
560, 3503348520, -0.8306266, -0.09294737, 0.28498757, -0.46927124, -3.238525, -0.23898056, 5.340411, 0
562, 3503381854, -0.8365512, -0.09050629, 0.2924696, -0.45438474, -0.3548411, 2.0607798, 3.6427498, 0
563, 3503398521, -0.84027576, -0.08713706, 0.29294196, -0.4478193, 0.82907414, -0.3850731, 2.4397383, 0
564, 3503415188, -0.8430701, -0.08594682, 0.2932116, -0.44259036, 1.8804655, -2.4520996, 2.3807526, 0
566, 3503448522, -0.84620905, -0.08760477, 0.29914817, -0.43217966, 0.22501363, -2.1026938, 1.0444736, 0
567, 3503465189, -0.8470748, -0.08797991, 0.30451584, -0.42662293, -0.51053756, -1.2645531, -0.20410156, 0
568, 3503481856, -0.8464496, -0.090644576, 0.31042936, -0.42302912, -0.95950556, -1.1222161, -1.0228901, 0
570, 3503515190, -0.8458707, -0.0943656, 0.32240477, -0.4143262, -0.6356435, 0.2529121, -1.9937663, 0
571, 3503531857, -0.84505314, -0.09804475, 0.326996, -0.41153264, -0.09856151, 0.05407589, -2.0888243, 0
572, 3503548524, -0.8441528, -0.100855246, 0.33186132, -0.40879777, 0.65875256, -0.091281936, -1.8861685, 0
575, 3503598525, -0.83629405, -0.113594115, 0.35569677, -0.40149933, 0.652066, 0.10247627, -2.323822, 0
576, 3503615192, -0.8342336, -0.115569055, 0.36468816, -0.3971322, 0.57591844, 1.4297335, -2.24751, 0
578, 3503648526, -0.8292346, -0.12601028, 0.3782864, -0.39166862, 0.32321292, 0.065115556, -2.0717897, 0
579, 3503665193, -0.8275404, -0.13140926, 0.38416564, -0.38773507, 0.3077854, -0.5791384, -1.109829, 0
580, 3503681860, -0.8257548, -0.13549472, 0.39137247, -0.3828987, 0.08656344, -0.7880911, -0.7787409, 0
582, 3503715194, -0.81997633, -0.14522284, 0.4078501, -0.37446067, 0.22095843, 1.6212891, -1.0364332, 0
583, 3503731861, -0.81576985, -0.1518797, 0.41588748, -0.3721599, 0.3308544, 0.3844981, -1.330184, 0
585, 3503765195, -0.8044995, -0.16634616, 0.432674, -0.37137055, -0.1444039, -0.12688375, -1.1391792, 0
586, 3503781862, -0.798777, -0.17275667, 0.44077337, -0.37127155, -0.26381993, 1.0669576, -1.27491, 0
587, 3503798529, -0.7944211, -0.17898355, 0.44694266, -0.3702911, -0.33514985, 1.5845417, -0.9412632, 0
589, 3503831863, -0.78842735, -0.19039355, 0.45227236, -0.3709386, -0.68587387, 1.5479304, -0.24080944, 0
590, 3503848530, -0.7847874, -0.1969864, 0.4538968, -0.37322375, -0.80062497, -0.30957854, -0.93660164, 0
591, 3503865197, -0.7811633, -0.20163104, 0.4563295, -0.37537384, -1.0308697, -0.34680715, -0.6689644, 0
593, 3503898531, -0.77516454, -0.20910855, 0.46241596, -0.3762692, -0.98850435, 0.6948819, -0.68759155, 0
594, 3503915198, -0.7740033, -0.21112525, 0.4637146, -0.37593475, -1.3316388, 1.2050697, 0.23994732, 0
595, 3503931865, -0.7728787, -0.21321458, 0.46457592, -0.37600583, -1.5284917, 0.96839803, 0.1916399, 0
597, 3503965199, -0.7701795, -0.21890989, 0.46533945, -0.37732565, -0.8911435, -0.30363804, 1.0445919, 0
598, 3503981866, -0.7687495, -0.22180489, 0.4659262, -0.37782684, -0.17022657, -0.44087008, 1.4731293, 0
599, 3503998533, -0.7677051, -0.22375628, 0.4663615, -0.3782618, -0.16694808, -0.07753631, 1.7400541, 0
602, 3504048534, -0.7657162, -0.23052534, 0.4642125, -0.380863, -0.2411745, 0.08872118, 0.48502064, 0
603, 3504065201, -0.7646741, -0.23413292, 0.46253467, -0.38279265, -0.25142035, -0.68233216, -0.2508545, 0
605, 3504098535, -0.7638736, -0.23977798, 0.45906663, -0.38506472, -1.0957779, -0.3516527, -0.39614487, 0
606, 3504115202, -0.76379055, -0.24224453, 0.45793447, -0.38503382, -1.2122898, 0.5481191, -0.41630554, 0
607, 3504131869, -0.7636746, -0.24492341, 0.45689017, -0.38480935, -0.8425893, 1.0781201, -0.5001087, 0
609, 3504165203, -0.7633598, -0.25076038, 0.45381522, -0.38531297, 0.7475592, 0.11217981, 0.7208357, 0
610, 3504181870, -0.7635644, -0.25336438, 0.45127535, -0.38618618, 1.0833606, -0.25518143, 1.2816467, 0
612, 3504215204, -0.7640361, -0.25519985, 0.44401383, -0.39241153, 0.35332257, -0.45893335, 0.7311716, 0
613, 3504231871, -0.7645324, -0.25545478, 0.43901342, -0.3968798, 0.049044106, -0.206848, 0.27660942, 0
614, 3504248538, -0.76511985, -0.25580448, 0.4338198, -0.40120983, -0.20551749, -0.097495794, -0.26140785, 0
617, 3504298539, -0.7681155, -0.25438502, 0.41989997, -0.41107672, -1.2555047, -0.28010365, 0.050141335, 0
618, 3504315206, -0.7698892, -0.25160924, 0.41628823, -0.41313553, -1.6733208, 0.13103458, 0.10605812, 0
621, 3504365207, -0.7775655, -0.23758662, 0.40551263, -0.41775262, -1.2658588, 0.06620118, -2.186768, 0
624, 3504415208, -0.78855014, -0.21524273, 0.38976932, -0.4242078, -0.06507267, 0.07946109, -1.4494915, 0
625, 3504431875, -0.7934567, -0.205477, 0.38191628, -0.42703494, -0.41287848, 0.07619964, -3.153305, 0
626, 3504448542, -0.7983556, -0.19628295, 0.3722265, -0.43076968, 0.27680382, 0.40621257, -3.4760537, 0
628, 3504481876, -0.8080887, -0.17640956, 0.35003856, -0.43972555, 0.8366596, 0.35496798, -5.4224358, 0
629, 3504498543, -0.8125005, -0.16576469, 0.3385952, -0.44467017, 0.7204856, 1.214264, -6.0235085, 0
630, 3504515210, -0.81714976, -0.1561996, 0.32686839, -0.44837323, -0.09459963, 1.5018361, -6.4125547, 0
632, 3504548544, -0.8293489, -0.14403631, 0.2959423, -0.45151442, 1.6533647, 0.668927, -3.2872505, 0
634, 3504581878, -0.84165144, -0.13409609, 0.26382527, -0.45171958, 9.330648, -1.1634616, 1.8800478, 0
636, 3504615212, -0.8400677, -0.12886974, 0.25372696, -0.46186006, 9.439805, 4.067465, 4.0123453, 0
637, 3504631879, -0.8358578, -0.13028559, 0.25247005, -0.46972275, 7.962189, 6.6284876, 5.399516, 0
639, 3504665213, -0.82982, -0.13485307, 0.2592831, -0.47539344, 6.396803, 3.2333183, 4.1899223, 0
641, 3504698547, -0.82761055, -0.1359101, 0.27397823, -0.4706785, 2.695074, -1.9235283, 5.1417866, 0
643, 3504731881, -0.82461935, -0.13996142, 0.29087606, -0.46456218, -4.301865, -2.9703581, 3.694687, 0
644, 3504748548, -0.82449055, -0.14190708, 0.29199913, -0.46349472, -1.4295102, -3.6448, 6.6093216, 0
645, 3504765215, -0.8234835, -0.14464061, 0.29246226, -0.46414763, 0.6191479, -4.313065, 8.157736, 0
647, 3504798549, -0.82158566, -0.14747094, 0.30011806, -0.46172684, -1.128886, -0.49227247, 4.8787155, 0
648, 3504815216, -0.82328784, -0.14928746, 0.30256557, -0.45648396, -2.2345972, 0.508323, 2.64108, 0
651, 3504865217, -0.8267469, -0.15439183, 0.30588064, -0.4462095, 0.53675115, -0.500775, 0.8021364, 0
652, 3504881884, -0.82719713, -0.15622662, 0.30756995, -0.44356743, 1.1793802, -1.3657726, 0.32100296, 0
653, 3504898551, -0.8263502, -0.16030023, 0.30952603, -0.44233036, 1.2640543, -2.318404, -0.091067314, 0
655, 3504931885, -0.8244323, -0.16584845, 0.3160392, -0.43924698, -0.11271423, -0.7894242, -1.410223, 0
656, 3504948552, -0.82321453, -0.16955562, 0.31875798, -0.43814987, -0.19571644, -0.10109759, -2.2526484, 0
657, 3504965219, -0.8223904, -0.17325994, 0.32159343, -0.43617183, -0.45440027, 0.021358674, -2.5127954, 0
659, 3504998553, -0.82218826, -0.17630386, 0.33072636, -0.42843542, -0.21651745, -0.035359416, -2.995432, 0
660, 3505015220, -0.82157904, -0.17790875, 0.33655867, -0.42437935, -0.2897092, 0.29494825, -3.0690389, 0
661, 3505031887, -0.82162666, -0.17924306, 0.34217998, -0.41919887, -0.21552236, 0.71228033, -2.8236094, 0
663, 3505065221, -0.821811, -0.18331692, 0.35210386, -0.40872657, 0.0989731, -0.62827957, -1.9056048, 0
664, 3505081888, -0.82149076, -0.18400699, 0.35780677, -0.4040817, 0.11531503, -0.11568036, -1.5380888, 0
666, 3505115222, -0.81956786, -0.18580012, 0.36945865, -0.39661115, 0.06439855, -0.33123466, -1.0050659, 0
667, 3505131889, -0.81895304, -0.18625087, 0.3744239, -0.3929971, -0.1725795, 0.49836448, -0.22839451, 0
668, 3505148556, -0.81829274, -0.18699658, 0.3784014, -0.3901983, -0.23490898, 0.23436987, 0.43831444, 0
670, 3505181890, -0.81642324, -0.1878925, 0.38623765, -0.38598335, -0.49284533, 0.20456745, 0.29047298, 0
671, 3505198557, -0.8155528, -0.18879883, 0.3899372, -0.38365448, 0.16892551, -0.62578344, 0.14035892, 0
672, 3505215224, -0.81494904, -0.1894638, 0.3932412, -0.3812295, 0.81585133, -0.9032688, 0.41927814, 0
674, 3505248558, -0.8150985, -0.18863115, 0.40012798, -0.37409055, 0.4559584, 0.4602109, 0.026119232, 0
675, 3505265225, -0.8152966, -0.18632036, 0.4041432, -0.37048313, -0.0015055833, 0.56150454, 0.14246368, 0
678, 3505315226, -0.8179786, -0.17820148, 0.41136357, -0.36048347, 0.062649116, -0.09973522, -0.27521324, 0
679, 3505331893, -0.8193468, -0.17773926, 0.4104785, -0.3586086, 1.140968, -1.2232957, 0.44457817, 0
680, 3505348560, -0.81981987, -0.17750868, 0.41036984, -0.35776484, 1.5515143, -2.288912, 0.44077682, 0
682, 3505381894, -0.81870794, -0.17411792, 0.4118746, -0.3602398, 0.15563296, -1.2187898, -0.5076208, 0
683, 3505398561, -0.8176303, -0.17149077, 0.4137809, -0.3617599, -0.38089713, 0.25576302, -1.1789227, 0
684, 3505415228, -0.8166448, -0.17051813, 0.41455433, -0.36355576, -0.48387983, 1.0000522, -1.7714825, 0
686, 3505448562, -0.81446135, -0.17362633, 0.41255057, -0.369218, -0.30255204, -0.51251596, -1.5940409, 0
687, 3505465229, -0.8129326, -0.17571993, 0.41187742, -0.37233502, -0.017688423, -0.89955616, -1.2755957, 0
688, 3505481896, -0.81114364, -0.1773129, 0.4119901, -0.37534454, -0.3766325, -1.0828217, -0.51739407, 0
690, 3505515230, -0.80744463, -0.17752361, 0.41571757, -0.3790919, -1.1556176, 0.6140171, -0.24453068, 0
692, 3505548564, -0.8041727, -0.17886908, 0.4204518, -0.3801918, -0.8391181, 1.6048678, -0.5823765, 0
694, 3505581898, -0.80268615, -0.17841534, 0.42407346, -0.3795233, -0.34814066, 1.1587404, -0.49965858, 0
695, 3505598565, -0.80287266, -0.17646128, 0.42612275, -0.37774253, 0.080115534, 0.9644651, -0.50166893, 0
697, 3505631899, -0.8055636, -0.1711001, 0.42926705, -0.37085724, 0.21973068, 0.67134774, 0.060980797, 0
698, 3505648566, -0.8070357, -0.16824661, 0.43135464, -0.3665145, -0.74632275, -0.1254419, -0.20319557, 0
699, 3505665233, -0.80828524, -0.1645806, 0.4345184, -0.3616563, -1.3215932, -0.6474017, -0.97806835, 0
701, 3505698567, -0.8112379, -0.15601593, 0.44112328, -0.3506788, -0.654829, -0.31819823, -2.4700227, 0
702, 3505715234, -0.81336373, -0.15408435, 0.4409113, -0.34685478, -0.73579705, -0.9969203, -1.6562614, 0
703, 3505731901, -0.814954, -0.15394217, 0.4392601, -0.34527633, -0.6514681, -2.2260287, -0.14146996, 0
705, 3505765235, -0.8168221, -0.15203673, 0.43711773, -0.34442383, -0.55501443, -2.684985, 3.3162298, 0
707, 3505798569, -0.8174153, -0.14829177, 0.43761474, -0.3440181, -0.60932446, -0.6604946, 1.3583355, 0
709, 3505831903, -0.8203192, -0.14680713, 0.431886, -0.34498107, -0.04225289, 0.8382679, 0.7632437, 0
710, 3505848570, -0.8221853, -0.14646791, 0.42803913, -0.34547675, -0.10055759, 1.2272756, 0.2515421, 0
711, 3505865237, -0.82394457, -0.14640981, 0.4242283, -0.34601024, 0.3355296, 1.0953332, -0.00962162, 0
713, 3505898571, -0.8272045, -0.14639607, 0.4182881, -0.34546933, -0.026451416, -0.7998593, -1.0187016, 0
714, 3505915238, -0.8282175, -0.14683557, 0.416509, -0.3450049, 0.005887108, -1.3381442, -0.7092953, 0
715, 3505931905, -0.8283796, -0.14785093, 0.4159328, -0.3448774, 0.22503285, -0.9345447, -0.61655617, 0
717, 3505965239, -0.8272956, -0.14929941, 0.41665778, -0.3459785, 0.7540643, 0.51437604, -0.75237846, 0
718, 3505981906, -0.8271242, -0.15078041, 0.41615233, -0.3463544, 0.31621072, 1.1342787, -0.3865223, 0
720, 3506015240, -0.82803404, -0.14968082, 0.41670376, -0.34398603, -0.08360045, 1.3093616, -0.659338, 0
722, 3506048574, -0.8299007, -0.14965531, 0.41533124, -0.3411473, -7.24182E-4, -0.31283748, -0.6688242, 0
724, 3506081908, -0.8323672, -0.15359157, 0.41050497, -0.33922485, -0.07567232, -2.4244895, -0.4745617, 0
725, 3506098575, -0.8329861, -0.15455568, 0.4087085, -0.33943695, 0.18705508, -1.4181849, -0.3621769, 0
726, 3506115242, -0.83345443, -0.15408032, 0.40768194, -0.33973774, 0.25605822, 0.69207525, -0.6428461, 0
728, 3506148576, -0.8355061, -0.15182513, 0.40194002, -0.34254396, -0.27543455, 1.2767746, -1.016757, 0
729, 3506165243, -0.8375576, -0.15152833, 0.39684653, -0.34360218, -0.7733396, 0.16152586, -1.467102, 0
730, 3506181910, -0.83945084, -0.15136644, 0.39176202, -0.344886, -0.88871056, -0.51535404, -2.251927, 0
732, 3506215244, -0.8426701, -0.14946952, 0.38107142, -0.34980527, 0.45949748, -0.67837393, -3.9026365, 0
733, 3506231911, -0.8451426, -0.14798674, 0.3730602, -0.35309097, 0.4203293, -0.55156326, -4.731911, 0
734, 3506248578, -0.8474549, -0.14597392, 0.36490613, -0.3568873, -0.13142014, -0.53335226, -5.2772193, 0
736, 3506281912, -0.85138994, -0.14181995, 0.3484064, -0.36557955, 1.7285504, 0.26629516, -5.713719, 0
737, 3506298579, -0.85379595, -0.14321975, 0.33695722, -0.37012655, 2.0180402, -0.25780198, -3.550654, 0
738, 3506315246, -0.85669476, -0.14803517, 0.32291394, -0.37403163, 3.8507714, -0.92821854, -0.9638634, 0
740, 3506348580, -0.8632219, -0.14957616, 0.2989527, -0.37830615, 4.8556347, 1.1641893, 5.9373465, 0
741, 3506365247, -0.8653401, -0.14504233, 0.29217288, -0.38052267, 7.4882636, 6.093556, 9.112934, 0
742, 3506381914, -0.8672653, -0.14534059, 0.2855739, -0.3810351, 9.190917, 7.671781, 9.99736, 0
744, 3506415248, -0.87469786, -0.15015101, 0.26565236, -0.37656385, 7.776025, 6.6990986, 7.03533, 0
745, 3506431915, -0.87801576, -0.15590647, 0.25561452, -0.37343806, 5.5521326, 5.2304716, 4.7994347, 0
747, 3506465249, -0.8776339, -0.15906408, 0.24742855, -0.3784833, 3.6680503, 0.45641336, 4.4708557, 0
749, 3506498583, -0.8701937, -0.16951072, 0.25410384, -0.38661784, -9.915938, -2.1516905, 1.1275129, 0
751, 3506531917, -0.8684019, -0.16547701, 0.25694302, -0.39049852, -4.0713096, -2.2463534, 3.3397036, 0
752, 3506548584, -0.8675983, -0.16289008, 0.2548728, -0.3947062, 0.8281669, -1.9665447, 4.739559, 0
753, 3506565251, -0.86653566, -0.16052745, 0.25243008, -0.3995488, 4.076461, 0.011620076, 6.5785313, 0
755, 3506598585, -0.86165357, -0.15892255, 0.25146762, -0.4111861, 0.42994347, 2.3098729, 2.7389803, 0
756, 3506615252, -0.85817796, -0.16061297, 0.25194514, -0.41745764, -0.71794105, 1.7872262, 0.49728107, 0
757, 3506631919, -0.85513854, -0.16118333, 0.25273365, -0.4229619, -0.35762587, 1.4995816, -0.8038502, 0
759, 3506665253, -0.85093206, -0.15850043, 0.2568656, -0.42991334, -1.138727, 2.3759544, -2.4801822, 0
760, 3506681920, -0.849753, -0.15815514, 0.25868243, -0.43128085, -0.82403886, 2.1615956, -2.5608563, 0
761, 3506698587, -0.8480691, -0.1591286, 0.26187512, -0.43230933, -0.5618881, 1.3035566, -2.5217624, 0
764, 3506748588, -0.8418192, -0.15967408, 0.28039375, -0.43270898, -1.7073892, -0.4954491, -3.2591696, 0
765, 3506765255, -0.8403909, -0.1592797, 0.28712273, -0.43121558, -1.1900398, -0.68891764, -3.2937317, 0
767, 3506798589, -0.8382001, -0.15634009, 0.3005383, -0.4273973, -0.31543624, -1.1327704, -2.102579, 0
768, 3506815256, -0.8364786, -0.15527715, 0.30756187, -0.42615896, 0.18920864, -0.7659371, -1.5832376, 0
769, 3506831923, -0.8338416, -0.15584204, 0.31416366, -0.42630515, 0.101373136, -0.9722014, -0.86571217, 0
771, 3506865257, -0.8275543, -0.15904331, 0.32677633, -0.42788965, -0.77101284, -1.795819, -0.9256687, 0
772, 3506881924, -0.8253622, -0.15952429, 0.33279702, -0.42730403, -0.752683, -1.8069677, -0.8961201, 0
774, 3506915258, -0.8215973, -0.16055754, 0.34309974, -0.42602226, 0.080567256, -0.5016301, -0.6142483, 0
775, 3506931925, -0.8189931, -0.16359338, 0.34778604, -0.42608187, 0.108656354, 0.13636352, -0.38188553, 0
776, 3506948592, -0.81596184, -0.1677486, 0.35237995, -0.4265069, 0.19256334, 0.09715147, -0.4387455, 0
780, 3507015260, -0.8051811, -0.17516473, 0.37442654, -0.42522788, -0.49547637, 0.15044892, -1.3040552, 0
782, 3507048594, -0.8003357, -0.181948, 0.3837383, -0.42322087, 0.40291587, -0.27872574, -0.29335976, 0
783, 3507065261, -0.7985619, -0.18447378, 0.38844725, -0.42117733, 0.40068722, -0.54928, 0.2786398, 0
784, 3507081928, -0.7968288, -0.18622202, 0.3936507, -0.41885254, 0.33021358, -0.77114993, 0.5488138, 0
786, 3507115262, -0.792941, -0.18975209, 0.4047506, -0.41403973, -0.14269775, -1.2985323E-4, -0.118569374, 0
787, 3507131929, -0.79110605, -0.19253133, 0.4093846, -0.4117041, 0.20091446, 0.071890704, -0.030311584, 0
788, 3507148596, -0.7891518, -0.19581936, 0.41344646, -0.40984082, 0.33046615, -0.38499153, 0.6438656, 0
790, 3507181930, -0.78485113, -0.20059443, 0.42150134, -0.40757865, 0.44456503, -0.9942871, 0.8516464, 0
791, 3507198597, -0.78271025, -0.20170343, 0.4257635, -0.40671718, 0.10593888, -0.60122484, 0.6460924, 0
792, 3507215264, -0.7806839, -0.20270579, 0.42983496, -0.40583014, -0.06826622, -0.31177732, 0.5372219, 0
795, 3507265265, -0.77617925, -0.20523557, 0.44071925, -0.40150177, -0.37974986, -0.4278985, 0.22117615, 0
796, 3507281932, -0.7749773, -0.20544362, 0.4444612, -0.39958793, -0.67493695, -0.34881958, 0.11521149, 0
798, 3507315266, -0.77259266, -0.20444784, 0.45246744, -0.39571202, -0.96220225, 0.11510174, -0.3805027, 0
799, 3507331933, -0.77147144, -0.2037774, 0.4568703, -0.39317867, -0.8377328, 0.09292372, -0.42741585, 0
801, 3507365267, -0.77009207, -0.20254816, 0.46422127, -0.38787144, -0.46461058, -0.23151143, -0.4574337, 0
802, 3507381934, -0.76968455, -0.20219709, 0.46661288, -0.3859893, -0.43173495, -0.83598214, -0.07686424, 0
803, 3507398601, -0.7693291, -0.20129411, 0.46921247, -0.38401347, -0.3208238, -1.1886111, 0.1023016, 0
805, 3507431935, -0.7680675, -0.19940224, 0.47574875, -0.37945664, -0.116485566, -0.783455, 0.4195118, 0
806, 3507448602, -0.7671592, -0.19880936, 0.47933668, -0.37708226, -0.14399911, -0.0677446, 0.47596073, 0
807, 3507465269, -0.76681095, -0.19835222, 0.48234347, -0.37418658, -0.17974688, 0.115240596, 0.61014366, 0
809, 3507498603, -0.7655002, -0.19822043, 0.48553294, -0.37281227, -0.46598563, -0.41407478, 0.7635317, 0
810, 3507515270, -0.76461375, -0.1982784, 0.48705184, -0.37261915, -0.25502783, -0.81133115, 0.41846657, 0
811, 3507531937, -0.7643131, -0.1978808, 0.4890336, -0.37084764, -0.44874382, -0.4175931, 0.15711403, 0
813, 3507565271, -0.7626697, -0.1977, 0.49194238, -0.37048018, -0.10410384, -0.08589458, 0.5392904, 0
814, 3507581938, -0.7622982, -0.19727713, 0.49288502, -0.37021732, -0.7784026, 0.06796593, 0.33986282, 0
815, 3507598605, -0.76261073, -0.19708256, 0.49369168, -0.36859858, -0.025169794, -0.34548727, 0.19685745, 0
817, 3507631939, -0.7615441, -0.19538535, 0.4958517, -0.36880794, -0.4260984, -0.19859982, -0.48589134, 0
818, 3507648606, -0.76080626, -0.194488, 0.497119, -0.36909884, -0.28904247, -0.109781325, -0.31639194, 0
819, 3507665273, -0.76019126, -0.19362013, 0.49822646, -0.36932862, -0.17308207, -0.120265186, -0.113186836, 0
822, 3507715274, -0.76012784, -0.19151172, 0.49873662, -0.36987007, -0.64634943, -0.7349077, -0.25841522, 0
823, 3507731941, -0.7599831, -0.19133267, 0.49858344, -0.3704664, -0.4138995, -0.8008153, -0.32974815, 0
825, 3507765275, -0.7591272, -0.1914887, 0.4996944, -0.37064403, -0.05663863, 0.4321025, 0.39716434, 0
826, 3507781942, -0.75962657, -0.19221859, 0.49923575, -0.36985993, 0.18080992, 3.728196E-4, 0.8170309, 0
828, 3507815276, -0.76121336, -0.19182573, 0.4960289, -0.37111402, -0.73705095, -0.048185706, 0.38012886, 0
829, 3507831943, -0.7617701, -0.19215691, 0.49349833, -0.37316835, -0.6583074, -0.72393006, -0.055897713, 0
830, 3507848610, -0.762235, -0.19198798, 0.4909666, -0.3756373, -0.84313715, -0.9424781, -0.49555397, 0
832, 3507881944, -0.7620516, -0.19206166, 0.4880066, -0.37980598, -0.70097196, -0.3409458, -0.2022562, 0
833, 3507898611, -0.76225454, -0.1930187, 0.4862919, -0.38111088, -0.57507247, -0.19582897, 0.3314476, 0
834, 3507915278, -0.7627219, -0.19398981, 0.48421544, -0.38232458, -0.40367424, -0.47299555, 0.5878763, 0
837, 3507965279, -0.7686457, -0.1953915, 0.4702599, -0.38713706, -0.8817403, -0.50739115, -0.11884594, 0
838, 3507981946, -0.77202487, -0.19485891, 0.46324202, -0.389137, -1.1449889, -0.2653438, -0.9736347, 0
840, 3508015280, -0.781152, -0.18912783, 0.44518772, -0.39478245, -1.2746087, 0.25408348, -2.4016728, 0
841, 3508031947, -0.78682506, -0.18459773, 0.43423498, -0.39784807, -1.417144, 0.4206975, -2.913662, 0
842, 3508048614, -0.79289603, -0.18012571, 0.42254135, -0.40042794, -1.5682131, 0.46648303, -2.832944, 0
844, 3508081948, -0.8050247, -0.17293629, 0.3993023, -0.40323573, -0.47638455, 0.8258665, -3.1871185, 0
845, 3508098615, -0.81173587, -0.17020333, 0.38672236, -0.40320563, 0.41517532, 0.4470369, -3.2526565, 0
846, 3508115282, -0.81842184, -0.16815963, 0.37261978, -0.40382618, 0.6223361, -0.30802688, -3.7767124, 0
848, 3508148616, -0.8306993, -0.16310734, 0.3418677, -0.40801272, 2.020409, -1.703743, -7.734497, 0
849, 3508165283, -0.83603823, -0.16169494, 0.3270045, -0.40984875, 5.3392534, -1.2225177, -8.802923, 0
852, 3508215284, -0.84621, -0.1805925, 0.29342836, -0.4064825, 4.5573077, -1.8322403, 1.0597734, 0
853, 3508231951, -0.8535654, -0.1807749, 0.28395042, -0.39765802, 7.6229525, 2.3605237, 9.481613, 0
855, 3508265285, -0.86202836, -0.1728029, 0.27235934, -0.39099848, 7.3532157, 13.756271, 11.72471, 0
856, 3508281952, -0.86363816, -0.18684906, 0.2591456, -0.38996583, 4.56256, 9.004617, 10.89986, 0
857, 3508298619, -0.86222047, -0.19798642, 0.251775, -0.39242786, 6.8859677, 1.1804441, 8.461086, 0
859, 3508331953, -0.85234267, -0.19688226, 0.25252965, -0.41351098, -5.346997, 0.87651944, 1.9307098, 0
860, 3508348620, -0.8511965, -0.19861966, 0.25531092, -0.4133333, -10.216253, 0.8414552, 1.7145119, 0
861, 3508365287, -0.8526105, -0.19961801, 0.25736612, -0.40863663, -11.700356, -1.1941426, -0.69573784, 0
863, 3508398621, -0.8602681, -0.20001468, 0.25280762, -0.3950119, 5.6181045, -2.5434, 5.8070507, 0
864, 3508415288, -0.8606604, -0.20062236, 0.252974, -0.39374065, 5.783323, -0.97191024, 5.3936663, 0
867, 3508465289, -0.855634, -0.19159505, 0.26041907, -0.40419924, -1.4722208, 2.1183627, 2.336382, 0
868, 3508481956, -0.85559607, -0.19096081, 0.26351845, -0.4025674, -2.0216987, 1.434432, 1.1630068, 0
869, 3508498623, -0.8552993, -0.19157189, 0.26582685, -0.4013881, -1.1596473, 0.045828536, 0.6084318, 0
871, 3508531957, -0.85391, -0.19033402, 0.269903, -0.40221426, -0.43201858, -1.7303966, -1.4973955, 0
872, 3508548624, -0.8530875, -0.18788868, 0.27230316, -0.40348938, -0.09257057, -1.0533715, -1.3950748, 0
873, 3508565291, -0.85206574, -0.185051, 0.27570474, -0.40464827, -0.012290084, -0.48197177, -1.4118481, 0
875, 3508598625, -0.8493809, -0.18100493, 0.28442144, -0.40608734, -0.8763028, 0.4667758, -1.5825834, 0
876, 3508615292, -0.84786767, -0.17995922, 0.28908926, -0.4064182, -0.36733124, 0.17117852, -1.2754107, 0
877, 3508631959, -0.84606254, -0.17996746, 0.29398805, -0.40666223, -0.6624345, -0.5201047, -1.2805271, 0
879, 3508665293, -0.8425451, -0.17934684, 0.30416328, -0.40675592, -0.52359563, -1.0384424, -1.3522968, 0
880, 3508681960, -0.8407979, -0.17818117, 0.3099221, -0.40653658, -0.8663816, -0.8563707, -1.1480446, 0
881, 3508698627, -0.8391685, -0.17688571, 0.31574824, -0.40598506, -0.47979426, -0.7155234, -0.9836521, 0
883, 3508731961, -0.8365732, -0.17482787, 0.3273766, -0.40301162, -0.59369355, -0.040014967, -0.638814, 0
884, 3508748628, -0.83493716, -0.17528175, 0.33297038, -0.401622, -0.83949476, 0.11041696, -0.25872707, 0
886, 3508781962, -0.83057475, -0.17771007, 0.3443739, -0.39998057, 0.23433188, -0.6022009, -0.71574116, 0
887, 3508798629, -0.8281933, -0.17862448, 0.3501972, -0.39945555, -0.2318853, -0.40193075, -0.11144638, 0
888, 3508815296, -0.8263618, -0.17883173, 0.35592338, -0.3980922, -0.043413814, -0.65126127, 0.051867485, 0
890, 3508848630, -0.82243824, -0.18157092, 0.36564323, -0.3961632, 0.06239096, -0.63534117, 0.036693573, 0
891, 3508865297, -0.8205861, -0.18332815, 0.3709805, -0.39422858, 0.29207823, -0.59788555, -0.5221081, 0
894, 3508915298, -0.8157759, -0.18589282, 0.3861959, -0.38835466, -0.60972035, -0.51010853, -0.3858738, 0
895, 3508931965, -0.8143704, -0.1855514, 0.39108926, -0.3865669, -0.8586087, -0.3171616, -0.75916386, 0
896, 3508948632, -0.8128274, -0.18514134, 0.39561698, -0.3854023, -0.74046665, -0.18637891, -0.7280474, 0
898, 3508981966, -0.80954546, -0.18513033, 0.4046752, -0.38290232, -0.03129606, -0.2716291, -0.37793922, 0
899, 3508998633, -0.8078476, -0.18612793, 0.40868667, -0.38174248, 0.534987, -0.8081485, -0.04565525, 0
900, 3509015300, -0.8060903, -0.18658587, 0.41334096, -0.3802191, -0.1285508, -0.71797544, 0.2828493, 0
902, 3509048634, -0.8021965, -0.18751493, 0.42256194, -0.37785408, -0.62113714, -0.97952306, -0.1471157, 0
903, 3509065301, -0.8003532, -0.18758488, 0.4268637, -0.37689131, -1.0248132, -0.9654, -0.5211525, 0
904, 3509081968, -0.79869044, -0.18706618, 0.430946, -0.3760305, -0.79549265, -0.57766485, -0.4700985, 0
906, 3509115302, -0.79600465, -0.18550026, 0.43897498, -0.37320268, -0.76013136, -0.011366192, -0.43249893, 0
909, 3509165303, -0.79343396, -0.18281771, 0.4487029, -0.36840063, -1.2110922, -0.4271377, -0.1511116, 0
910, 3509181970, -0.7931876, -0.18200882, 0.45108387, -0.3664186, -1.2554305, -0.6458104, -0.0733099, 0
911, 3509198637, -0.7931296, -0.18063006, 0.454314, -0.36322188, -0.9395282, -0.7158771, -0.0667305, 0
913, 3509231971, -0.7929054, -0.17836139, 0.46092176, -0.35644442, -0.4330863, -1.0107754, 0.70073605, 0
914, 3509248638, -0.7928149, -0.178078, 0.46369404, -0.35317647, -0.6613315, -1.0581344, 1.1474981, 0
915, 3509265305, -0.79273826, -0.17763099, 0.46607727, -0.35042593, -0.73561156, -1.1132578, 1.0488567, 0
917, 3509298639, -0.7915912, -0.17588723, 0.47097766, -0.34733343, -1.1616867, -0.744174, 0.057142258, 0
918, 3509315306, -0.79027814, -0.17504013, 0.4735676, -0.34722954, -0.9121959, -0.6374665, -0.49905872, 0
919, 3509331973, -0.78878266, -0.17476444, 0.47542778, -0.34822568, -0.7356064, -0.942323, -0.55590725, 0
921, 3509365307, -0.78595454, -0.17664304, 0.47720927, -0.35122263, -0.2178317, -1.2976198, 0.4769125, 0
923, 3509398641, -0.7831006, -0.17905219, 0.48012957, -0.35239553, 0.0028761646, -0.49440312, 0.28573227, 0
925, 3509431975, -0.7800326, -0.18095233, 0.48291704, -0.35441485, -0.74255073, 0.24690552, -0.2808857, 0
926, 3509448642, -0.7794266, -0.18189041, 0.48246914, -0.35587496, -0.774134, 0.26470986, -0.5216112, 0
927, 3509465309, -0.7791047, -0.18333703, 0.4810273, -0.35778397, -0.98677886, -0.24153297, -0.84272385, 0
929, 3509498643, -0.7794195, -0.1850857, 0.47797266, -0.36028314, -1.2054746, -0.8366802, -0.48859692, 0
930, 3509515310, -0.78016186, -0.18594787, 0.47685695, -0.35971025, -0.81584483, -0.28679967, -0.56531525, 0
931, 3509531977, -0.78050107, -0.18658309, 0.47577548, -0.3600775, -1.1499811, -0.16084017, -0.7516575, 0
933, 3509565311, -0.7849332, -0.18750392, 0.46876958, -0.35915256, -0.8240132, -0.49581566, -0.32487297, 0
934, 3509581978, -0.7880646, -0.1877076, 0.462487, -0.36033148, -1.1685001, -0.9748082, -0.21778393, 0
936, 3509615312, -0.79457545, -0.18469408, 0.45018497, -0.36315942, -1.2056532, -0.60323054, -1.5874128, 0
938, 3509648646, -0.8026339, -0.17918447, 0.43760443, -0.3635759, -0.38347715, 0.5988622, -2.0873942, 0
940, 3509681980, -0.8115347, -0.17696014, 0.41929758, -0.36646885, -0.38685063, -0.49860823, -3.8098283, 0
941, 3509698647, -0.8160684, -0.17600471, 0.40906036, -0.36842582, -0.3369192, -0.96410155, -4.2892632, 0
942, 3509715314, -0.82054025, -0.17539541, 0.39869654, -0.3701414, 0.028166208, -0.7501007, -4.814036, 0
944, 3509748648, -0.8296871, -0.17013207, 0.38208652, -0.36972618, 1.3686142, 0.5408062, -4.9658318, 0
945, 3509765315, -0.834444, -0.16930535, 0.37314948, -0.36852646, 1.4239054, 0.33066362, -4.263453, 0
946, 3509781982, -0.83973956, -0.17112851, 0.3606576, -0.3680922, 0.47650167, -0.45901838, -1.1052771, 0
948, 3509815316, -0.84903824, -0.17007384, 0.34398592, -0.36317486, 0.87764376, -1.1986678, -1.2035265, 0
949, 3509831983, -0.8551736, -0.17244259, 0.33765027, -0.35347906, 6.39243, -0.49588427, 2.2092752, 0
950, 3509848650, -0.86077285, -0.1759696, 0.33163568, -0.34370905, 9.70616, 0.83174276, 7.2959557, 0
952, 3509881984, -0.86808676, -0.17276338, 0.32436416, -0.33373576, 9.315008, 5.9014983, 9.744816, 0
953, 3509898651, -0.870779, -0.17726266, 0.3188162, -0.3296835, 7.9981484, 4.375885, 7.4643173, 0
954, 3509915318, -0.8706332, -0.18503045, 0.31536266, -0.32912165, 7.6957655, 1.8387796, 6.823845, 0
956, 3509948652, -0.86225253, -0.1962106, 0.3146175, -0.34503755, 2.5923278, -2.9067905, 2.3349342, 0
957, 3509965319, -0.857643, -0.19905812, 0.31646076, -0.35311496, -2.7749107, -0.7254163, 0.68340683, 0
958, 3509981986, -0.85384715, -0.20063527, 0.31940073, -0.35872948, -8.254345, 1.6121287, 2.9119587, 0
960, 3510015320, -0.84896976, -0.20383635, 0.32014036, -0.36772856, -6.3120174, -0.5023276, 4.8175774, 0
961, 3510031987, -0.8472512, -0.20868722, 0.31793025, -0.37087536, -2.1434746, -1.6896982, 6.331911, 0
963, 3510065321, -0.84179556, -0.2160907, 0.31304014, -0.3830198, -1.1092137, -0.66751933, 1.6316814, 0
967, 3510131989, -0.83495516, -0.20491564, 0.324516, -0.39441365, -1.4717216, 2.1775715, -0.75669193, 0
968, 3510148656, -0.8341185, -0.20480445, 0.32914454, -0.39240104, -1.6000181, 1.2133251, -1.7664576, 0
969, 3510165323, -0.8337862, -0.20367512, 0.334618, -0.38905138, -1.4462714, 0.029912123, -2.2135148, 0
971, 3510198657, -0.83410877, -0.19873391, 0.34606412, -0.38081518, -1.3918043, -0.43807143, -1.909791, 0
972, 3510215324, -0.8344566, -0.19606102, 0.35150105, -0.3764341, -1.2537028, -1.0225074, -1.4604082, 0
973, 3510231991, -0.83496803, -0.19383204, 0.35657424, -0.37165242, -1.1046549, -1.2530679, -1.0274715, 0
975, 3510265325, -0.83666366, -0.18530905, 0.3682943, -0.3605923, -0.6275558, -1.5829369, -1.1152048, 0
976, 3510281992, -0.8363608, -0.18063733, 0.3739638, -0.35781986, -0.4648401, -0.6348627, -1.5199499, 0
977, 3510298659, -0.83579516, -0.17716262, 0.37900382, -0.35556886, -0.46698228, -0.470669, -1.96731, 0
979, 3510331993, -0.83531094, -0.16996442, 0.38716, -0.3514087, -0.3580577, 0.011124631, -1.8710957, 0
981, 3510365327, -0.834978, -0.16342698, 0.39485145, -0.34671172, -0.117280155, -1.2610466, -1.7756491, 0
983, 3510398661, -0.8336864, -0.16161337, 0.40177804, -0.34268916, 0.4081816, -1.6287903, -1.9201789, 0
984, 3510415328, -0.83303845, -0.16161305, 0.40474075, -0.34077337, 0.25450897, -1.6848453, -1.3009968, 0
985, 3510431995, -0.832179, -0.16167511, 0.40826282, -0.33863547, -0.037087727, -1.4724233, -0.751317, 0
987, 3510465329, -0.8298743, -0.16067368, 0.419048, -0.33151865, 0.4801921, -0.9037843, -2.2051506, 0
988, 3510481996, -0.82831293, -0.1605944, 0.42389286, -0.32929525, 0.4647905, -0.109885775, -2.1016006, 0
990, 3510515330, -0.82636523, -0.16329657, 0.4295211, -0.3255453, -1.2555681, -0.6987608, -0.04646206, 0
991, 3510531997, -0.8256214, -0.16590546, 0.43143052, -0.3235824, -0.9930466, -0.9616, 0.9979229, 0
992, 3510548664, -0.82465357, -0.1677887, 0.43443516, -0.32104942, -0.020547993, -1.0540309, 2.0682335, 0
994, 3510581998, -0.8227, -0.16930701, 0.4409359, -0.3163677, -0.43414083, 0.3809076, 2.2058773, 0
996, 3510615332, -0.8213775, -0.16936356, 0.44435507, -0.31498688, -0.547609, 0.50136703, 0.16116524, 0
998, 3510648666, -0.8195756, -0.16978037, 0.44532344, -0.31807315, -0.59099466, -1.3461758, -0.15598679, 0
999, 3510665333, -0.81863743, -0.16965623, 0.4455147, -0.32028025, -0.5063391, -2.290877, 0.18515587, 0
1000, 3510682000, -0.8177884, -0.16928467, 0.4461881, -0.32170525, -0.58711183, -2.2042365, 0.59719086, 0
1002, 3510715334, -0.8170595, -0.16783318, 0.44859946, -0.32096326, -0.2816263, 0.6023315, 0.17331886, 0
1003, 3510732001, -0.8168685, -0.16553314, 0.45073098, -0.3196551, -0.40098828, 1.6712761, -0.39801216, 0
1004, 3510748668, -0.81706625, -0.16317609, 0.45202458, -0.31853297, -0.40805107, 1.3068808, -0.5970793, 0
1006, 3510782002, -0.81819457, -0.15818988, 0.452754, -0.31711322, -0.28906885, -0.6284427, -0.3944311, 0
1007, 3510798669, -0.8184522, -0.15597582, 0.4532136, -0.3168881, -0.09613873, -0.8576194, -0.4754629, 0
1008, 3510815336, -0.81815946, -0.15465489, 0.45392114, -0.31727856, 0.088967994, -1.0491128, -0.29626846, 0
1011, 3510865337, -0.81599045, -0.15009093, 0.45891336, -0.31787425, 0.045554176, 0.11557278, -0.47853756, 0
1012, 3510882004, -0.8150027, -0.14851663, 0.46096894, -0.31817353, -0.437806, 0.41062546, 0.005206108, 0
1014, 3510915338, -0.8133622, -0.1462883, 0.46481794, -0.31780344, -0.6386194, -0.18673633, 0.30749512, 0
1015, 3510932005, -0.8125123, -0.1463217, 0.4665966, -0.3173558, -0.4812015, -0.23275739, 0.36106682, 0
1017, 3510965339, -0.8115572, -0.14580159, 0.47096154, -0.3135685, -0.3854862, 0.06467666, 2.224656, 0
1018, 3510982006, -0.8119208, -0.14378217, 0.4735968, -0.30956548, -0.10022857, 0.943572, 2.21107, 0
1019, 3510998673, -0.81263405, -0.14170901, 0.47622946, -0.30457038, -0.042695444, 1.1973524, 1.4653492, 0
1021, 3511032007, -0.81339175, -0.13776086, 0.48123482, -0.29638135, -0.27643904, 0.060900386, -0.51303196, 0
1022, 3511048674, -0.8142521, -0.1378162, 0.48280764, -0.29139334, -0.61498207, -0.6490708, -2.967627, 0
1023, 3511065341, -0.81588763, -0.13787246, 0.48121017, -0.28942817, -1.1584104, -2.0705714, -0.5174141, 0
1025, 3511098675, -0.8176153, -0.13159344, 0.4835239, -0.28356016, -3.7091126, -2.0358584, -1.8555069, 0
1026, 3511115342, -0.8189285, -0.1271361, 0.4851317, -0.2790215, -3.8367918, -0.61957276, -2.187951, 0
1027, 3511132009, -0.82023144, -0.12300773, 0.48679796, -0.27409965, -3.2186675, 0.6699948, -2.1262302, 0
1029, 3511165343, -0.8229349, -0.11736335, 0.48838106, -0.26552054, -1.8209743, 0.001554805, -1.444663, 0
1030, 3511182010, -0.8253131, -0.115545765, 0.4867911, -0.26183036, -1.6836451, -0.48343584, -0.39346123, 0
1031, 3511198677, -0.8279619, -0.11370235, 0.4843919, -0.2587059, -2.4060545, -1.4904209, 0.35944176, 0
1033, 3511232011, -0.83284944, -0.10888708, 0.47948292, -0.25419402, -3.28041, -1.4491695, 0.42284298, 0
1034, 3511248678, -0.8346939, -0.10698298, 0.4776456, -0.25240567, -2.4401464, -0.75367934, -0.17935944, 0
1035, 3511265345, -0.8365842, -0.10521863, 0.47544646, -0.25103727, -2.5137906, -0.33179182, 0.41060352, 0
1038, 3511315346, -0.83924854, -0.10551244, 0.46926367, -0.25364113, -0.875593, -1.2242923, -2.1907644, 0
1039, 3511332013, -0.83932495, -0.10680686, 0.4674314, -0.25621694, -0.7570498, -1.6596843, -1.7669601, 0
1041, 3511365347, -0.8403106, -0.10807499, 0.4625712, -0.26122606, -3.2407882, -1.1718006, -0.64544296, 0
1042, 3511382014, -0.8398397, -0.107099324, 0.46365175, -0.26122627, -4.4723353, -0.26691374, -1.2940941, 0
1044, 3511415348, -0.84036857, -0.10130082, 0.46522915, -0.2590249, -0.9977151, 2.100071, -3.75132, 0
1045, 3511432015, -0.8428264, -0.09885696, 0.46117553, -0.25923207, -0.20460689, 2.049681, -4.050604, 0
1046, 3511448682, -0.84572685, -0.09586372, 0.45466125, -0.262398, 0.57634693, 1.6632466, -4.033343, 0
1048, 3511482016, -0.85176194, -0.09024774, 0.43703544, -0.27453604, 0.41421232, -0.39649713, -5.8054123, 0
1049, 3511498683, -0.8561617, -0.08641046, 0.4262913, -0.27894294, -0.3207183, 0.22665787, -3.9097695, 0
1050, 3511515350, -0.86087805, -0.08352953, 0.4151261, -0.2821263, -0.68155336, 0.5187041, -4.094585, 0
1054, 3511582018, -0.89108664, -0.066940054, 0.3480763, -0.28344274, 5.880523, -0.80538946, 3.2426596, 0
1056, 3511615352, -0.90036494, -0.06351265, 0.3161491, -0.29218552, 7.575655, 0.9209614, 3.5008135, 0
1057, 3511632019, -0.90260386, -0.058900442, 0.30549598, -0.29752734, 9.762864, 1.0137765, 4.5941067, 0
1058, 3511648686, -0.9044739, -0.052866645, 0.2983136, -0.30025697, 11.977894, 0.86372447, 4.845338, 0
1060, 3511682020, -0.9060328, -0.049258832, 0.2915851, -0.30276966, 10.719515, 1.108041, 3.4069977, 0
1061, 3511698687, -0.90356916, -0.048952743, 0.29451764, -0.30730924, 8.346381, 1.213892, 1.6886349, 0
1064, 3511748688, -0.8929194, -0.040645137, 0.31988424, -0.3142134, -2.6906729, -5.0403614, 7.7562447, 0
1065, 3511765355, -0.8889275, -0.04018923, 0.3327614, -0.31221074, -12.975624, -5.4299083, 2.43497, 0
1070, 3511848690, -0.885224, -0.058526695, 0.34225133, -0.30956477, -0.5714453, -0.19081949, 6.154505, 0
1072, 3511882024, -0.89176005, -0.057620924, 0.34063533, -0.2922751, -1.0781554, -0.55116695, 1.2378874, 0
1075, 3511932025, -0.894201, -0.057449527, 0.34141457, -0.28381962, -0.6529652, -1.522966, -0.3297453, 0
1076, 3511948692, -0.8933376, -0.057771042, 0.34502056, -0.28210723, -0.6389864, -1.2503543, -1.0003166, 0
1077, 3511965359, -0.8930948, -0.05753337, 0.34947896, -0.27739772, -0.6026218, -0.43865815, -1.697217, 0
1079, 3511998693, -0.89192575, -0.059609972, 0.35973784, -0.26742688, -0.8973088, 0.37970874, -2.2347422, 0
1080, 3512015360, -0.8911952, -0.0628511, 0.36412284, -0.2631512, -0.681081, -0.030749291, -2.804356, 0
1081, 3512032027, -0.889905, -0.067172095, 0.3682183, -0.26074094, -0.58603287, -0.16052718, -2.59859, 0
1083, 3512065361, -0.88638467, -0.075230196, 0.37852284, -0.2557272, 0.19546443, -1.2321155, -1.5738373, 0
1084, 3512082028, -0.8840271, -0.07846684, 0.38549328, -0.25248176, 0.030048411, -1.1307163, -1.3699226, 0
1085, 3512098695, -0.8814225, -0.081679404, 0.39321303, -0.24863546, -0.44413656, -0.08668695, -1.1861715, 0
1087, 3512132029, -0.8765007, -0.088930115, 0.40663108, -0.24187255, -0.7761288, 0.3298586, -0.9226217, 0
1089, 3512165363, -0.8707382, -0.09607155, 0.41837853, -0.23991174, -0.8416986, 0.4732839, -0.81130123, 0
1091, 3512198697, -0.86418337, -0.10303211, 0.4309956, -0.23838553, -1.4279369, 0.35517034, -1.6758423, 0
1092, 3512215364, -0.861227, -0.106374115, 0.43757832, -0.23560761, -0.7826315, 0.81489015, -1.56913, 0
1093, 3512232031, -0.8581069, -0.10921855, 0.44386813, -0.23391914, -1.2185359, 1.0857984, -1.9291606, 0
1095, 3512265365, -0.8522416, -0.11409219, 0.45578834, -0.23008129, -1.22402, 1.5251105, -1.299634, 0
1096, 3512282032, -0.8499972, -0.11613621, 0.46093273, -0.22709316, -1.3444984, 0.93548477, -1.1152782, 0
1098, 3512315366, -0.8445715, -0.12114516, 0.47198403, -0.22196223, -1.1912802, -0.3454531, -0.90931034, 0
1099, 3512332033, -0.84167856, -0.12365693, 0.47755864, -0.21962965, -1.1322733, -0.32453948, -1.095892, 0
1100, 3512348700, -0.83858186, -0.12577236, 0.48330277, -0.21769978, -1.1009656, -0.19001171, -0.5992613, 0
1102, 3512382034, -0.83214223, -0.12790565, 0.49572292, -0.21319322, -1.469051, 0.42858425, 0.2619114, 0
1103, 3512398701, -0.8289146, -0.12824726, 0.5025743, -0.20948881, -1.410339, 0.7950043, -0.03659153, 0
1104, 3512415368, -0.8256189, -0.12932244, 0.5094688, -0.20514369, -0.995982, 0.6937808, -0.25117493, 0
1106, 3512448702, -0.8197264, -0.13510418, 0.5203388, -0.19762668, -0.36227962, 0.3915463, 0.57411766, 0
1107, 3512465369, -0.8178758, -0.13854325, 0.5231664, -0.1954362, 0.007693763, -0.7182789, 0.9196024, 0
1108, 3512482036, -0.81704146, -0.14028373, 0.5245653, -0.1939284, -0.32121003, -1.0991371, 1.3205624, 0
1110, 3512515370, -0.81655157, -0.13906215, 0.52648693, -0.19165094, -1.5442742, -0.29932618, 1.2199345, 0
1111, 3512532037, -0.8173195, -0.1363894, 0.5263277, -0.19073325, -2.2078586, 1.246013, 1.0418835, 0
1112, 3512548704, -0.8182854, -0.1351916, 0.5255567, -0.18956682, -1.6804668, 0.9329859, -0.6757755, 0
1114, 3512582038, -0.82138777, -0.13715535, 0.5189684, -0.19286156, -1.4434929, -1.180476, -0.74978065, 0
1116, 3512615372, -0.8262569, -0.1336726, 0.50938976, -0.19991702, -2.6085198, -0.6842254, 0.9026613, 0
1118, 3512648706, -0.83239174, -0.12282257, 0.49872735, -0.20814164, -1.9952921, 1.8923889, -0.5863247, 0
1119, 3512665373, -0.83744395, -0.11649598, 0.4901203, -0.21192326, -0.7237949, 2.5346472, -2.003045, 0
1120, 3512682040, -0.84344995, -0.113354996, 0.47806567, -0.21727641, 0.23400733, 1.5290709, -3.3726487, 0
1123, 3512732041, -0.86666495, -0.10003358, 0.42982948, -0.2326906, -1.0964997, -0.3671471, -4.010126, 0
1125, 3512765375, -0.8841061, -0.08856004, 0.39098793, -0.2401149, 0.4337727, 0.55247945, -6.4451065, 0
1126, 3512782042, -0.89350164, -0.08542837, 0.36657467, -0.24493483, 1.3425738, 0.51032364, -5.4431663, 0
1127, 3512798709, -0.9032762, -0.085570335, 0.3390996, -0.2485852, -0.024888279, -1.6782794, -4.898303, 0
1129, 3512832043, -0.9184333, -0.09735101, 0.2866642, -0.25463685, 1.5644321, -4.51439, -3.9528308, 0
1130, 3512848710, -0.9218709, -0.10113035, 0.26924047, -0.2597105, 3.8636017, -1.802386, -2.887825, 0
1133, 3512898711, -0.9198532, -0.08950056, 0.24921899, -0.2894183, 10.351826, 5.210052, 4.6931105, 0
1134, 3512915378, -0.91905063, -0.080877036, 0.24992736, -0.29386136, 10.330784, 4.722961, 6.2215023, 0
1137, 3512965379, -0.9245391, -0.04110498, 0.2625257, -0.2731874, 9.898047, 3.8336983, 2.1981554, 0
1138, 3512982046, -0.9265715, -0.026718304, 0.2691146, -0.26142251, 8.634989, 2.3525436, 1.0296478, 0
1139, 3512998713, -0.92691123, -0.011135578, 0.27685168, -0.2531362, 6.4654098, -0.99073344, -0.64143467, 0
1141, 3513032047, -0.9274408, -0.002083324, 0.28123513, -0.24651453, 0.20595512, -10.673115, 12.661139, 0
1143, 3513065381, -0.9189639, 0.009366855, 0.30806977, -0.24601607, -18.880272, -15.842663, 3.175805, 0
1145, 3513098715, -0.9126525, -0.0018320233, 0.32771602, -0.2442896, 2.1037273, 20.002392, 0.606884, 0
1146, 3513115382, -0.9133721, 5.989671E-4, 0.32865846, -0.2403081, 1.8369586, 7.288989, 5.7553606, 0
1147, 3513132049, -0.9188526, 0.00358022, 0.32721075, -0.22055264, -0.7744547, -2.366118, 4.2759304, 0
1150, 3513182050, -0.91942537, -0.0050870553, 0.33743858, -0.20193982, -1.51648, -2.9824278, 2.9145555, 0
1152, 3513215384, -0.9159794, -0.0065551028, 0.34795803, -0.19969344, -1.5001568, 0.80791384, 0.24368572, 0
1153, 3513232051, -0.9147682, -0.0088647455, 0.3524288, -0.1973011, -1.2900461, 0.5562171, -0.33795166, 0
1154, 3513248718, -0.91333824, -0.012132384, 0.3571136, -0.1953184, -1.3749573, -0.30685848, -0.683918, 0
1156, 3513282052, -0.9090767, -0.019446291, 0.36851498, -0.19342037, 0.091903165, 1.0706282, -1.1842909, 0
1157, 3513298719, -0.90668625, -0.023101486, 0.37410715, -0.19350296, 0.5856967, 0.77251196, -1.6072426, 0
1158, 3513315386, -0.9044829, -0.026994847, 0.37898776, -0.193813, 0.5795014, 0.21194041, -1.7430906, 0
1160, 3513348720, -0.90014404, -0.033855796, 0.39076626, -0.1894975, 0.46354687, -0.14698263, -1.2589531, 0
1161, 3513365387, -0.89764595, -0.03781324, 0.39804497, -0.18540576, 0.80477136, -0.348112, -1.1827183, 0
1162, 3513382054, -0.89511895, -0.04249429, 0.40516326, -0.18114202, 0.71368605, 0.28062114, -0.9145222, 0
1165, 3513432055, -0.88376796, -0.05703331, 0.4262439, -0.18447396, -0.5554849, 0.17044844, -2.1917048, 0
1166, 3513448722, -0.87997514, -0.06281908, 0.43292707, -0.18516132, -0.7538493, -0.32463712, -1.8438601, 0
1168, 3513482056, -0.87071913, -0.077284575, 0.44874686, -0.1857818, -0.83793825, 0.61696744, -0.7645178, 0
1170, 3513515390, -0.8610709, -0.08866523, 0.4632543, -0.19001094, -0.63156354, 1.4744186, -0.37217045, 0
1172, 3513548724, -0.8513551, -0.09798886, 0.47719008, -0.19466794, -0.5999821, 1.251224, -1.061203, 0
1173, 3513565391, -0.84636784, -0.10308235, 0.48435184, -0.1960916, -1.1962981, 0.7553928, -1.9083962, 0
1174, 3513582058, -0.84196657, -0.10702926, 0.49078172, -0.19693519, -0.44815376, 0.9738876, -1.2922115, 0
1176, 3513615392, -0.8349619, -0.11192859, 0.50213736, -0.19540253, -0.8124278, 1.3160322, -1.2185354, 0
1177, 3513632059, -0.83141595, -0.11303784, 0.50826764, -0.19402945, -1.3581136, 1.0600808, -2.0547276, 0
1179, 3513665393, -0.8263463, -0.11366926, 0.51917475, -0.18628421, -1.4772172, 1.2040968, -1.5722313, 0
1180, 3513682060, -0.8238987, -0.115713336, 0.5240475, -0.18217787, -1.6523415, 0.7287745, -1.3777714, 0
1181, 3513698727, -0.82155627, -0.11751232, 0.52861035, -0.1783837, -1.5439705, 0.19570926, -0.8128109, 0
1183, 3513732061, -0.8166098, -0.120448284, 0.5369199, -0.17427225, -1.165547, -0.9067147, -0.76386356, 0
1184, 3513748728, -0.8150159, -0.1212474, 0.53941923, -0.17345963, -0.74505854, -0.4526281, 0.27282238, 0
1185, 3513765395, -0.81410587, -0.12190553, 0.5406602, -0.1734087, -1.1802459, -0.10959367, 1.6069078, 0
1187, 3513798729, -0.81336874, -0.1238302, 0.5403179, -0.17654203, -0.7598408, -0.077690296, 1.9918098, 0
1188, 3513815396, -0.81380683, -0.12553781, 0.53818643, -0.1797984, 0.02622254, -0.13142252, 1.2903786, 0
1189, 3513832063, -0.81525695, -0.12725247, 0.5343372, -0.1834661, 0.5453421, -0.32035783, 0.88721085, 0
1191, 3513865397, -0.8206305, -0.13002753, 0.52263194, -0.1911219, -0.70697284, -0.12511083, 0.7007942, 0
1193, 3513898731, -0.8266614, -0.12572485, 0.5111885, -0.1988057, -2.3488638, 1.2290226, 0.09447765, 0
1195, 3513932065, -0.83231455, -0.11592713, 0.5016497, -0.20536347, -2.3797789, 1.4686687, -1.4631844, 0
1197, 3513965399, -0.8422809, -0.10246888, 0.48487982, -0.21205577, -3.1464307, 0.7600577, -1.3818531, 0
1199, 3513998733, -0.85601014, -0.07895239, 0.4635479, -0.21482486, -3.3081002, 2.2101252, -3.4293027, 0
1200, 3514015400, -0.86352706, -0.067376345, 0.45034513, -0.21675804, -1.6899002, 0.6919124, -4.589391, 0
1203, 3514065401, -0.8888905, -0.04432813, 0.39600843, -0.22605112, -2.3665721, -1.687962, -2.7610621, 0
1204, 3514082068, -0.89680874, -0.038225923, 0.37564513, -0.23060063, -2.6578329, -2.2472289, -4.876263, 0
1206, 3514115402, -0.9099571, -0.039464757, 0.3338331, -0.24287692, 0.8122786, -1.603774, -5.757378, 0
1207, 3514132069, -0.9154747, -0.050062556, 0.31209743, -0.24901423, 1.578739, -1.3691397, -5.0076127, 0
1208, 3514148736, -0.9208816, -0.06215954, 0.29003367, -0.25299567, 3.7798643, -2.475411, -2.1314998, 0
1211, 3514198737, -0.9249383, -0.058013715, 0.25679287, -0.2742155, 8.943894, 4.5123053, 3.6156836, 0
1212, 3514215404, -0.9239299, -0.048265524, 0.25343046, -0.28250682, 10.978066, 4.345753, 4.1707373, 0
1214, 3514248738, -0.9253536, -0.039753925, 0.25001118, -0.28222016, 11.9845, 1.7037392, 4.4573116, 0
1215, 3514265405, -0.92562723, -0.03425562, 0.25296044, -0.2794007, 11.100613, 1.6356, 3.3779936, 0
1216, 3514282072, -0.9243653, -0.027147602, 0.26135013, -0.2766247, 9.309204, 2.9356103, 2.31246, 0
1218, 3514315406, -0.9214406, -0.018600482, 0.2847617, -0.2636766, 4.0799565, -3.3095207, 1.7045231, 0
1219, 3514332073, -0.9211977, -0.010716364, 0.29262173, -0.2562536, 1.6017537, -3.91492, 8.09708, 0
1220, 3514348740, -0.9193033, -0.008021086, 0.29811275, -0.2568246, -6.771068, -8.748225, 9.059473, 0
1222, 3514382074, -0.9131398, -0.008322306, 0.32021233, -0.25215778, -14.001726, -8.5030775, 4.641816, 0
1223, 3514398741, -0.9105416, -0.009869605, 0.32631162, -0.25367412, -2.7980728, 8.633093, 4.5330105, 0
1231, 3514532077, -0.91236734, -0.028933685, 0.3373591, -0.2301109, -1.0726, -1.0415745, 1.2483749, 0
1233, 3514565411, -0.90819603, -0.035808347, 0.34540474, -0.23368068, 0.18537137, 0.98652685, -1.7944393, 0
1234, 3514582078, -0.9060194, -0.040406782, 0.3484762, -0.23679881, 0.19274528, 1.0028764, -1.8620477, 0
1235, 3514598745, -0.90389705, -0.043873828, 0.35159427, -0.23966624, -0.5414317, 2.4398263, -2.5257907, 0
1237, 3514632079, -0.89859104, -0.05477971, 0.35907954, -0.24618757, -0.29214215, 0.25065708, -2.9180174, 0
1238, 3514648746, -0.8960526, -0.059088383, 0.36390123, -0.24736075, 0.4841704, 1.328243, -2.8280578, 0
1239, 3514665413, -0.8935389, -0.06470513, 0.36824825, -0.24861202, -0.06802371, 0.23169044, -2.0469599, 0
1241, 3514698747, -0.88803303, -0.0757384, 0.37769976, -0.2510321, -0.5898346, 0.706984, -0.8759756, 0
1242, 3514715414, -0.8842229, -0.08103238, 0.38359848, -0.25386795, -0.94772154, 0.9142224, -0.9817505, 0
1243, 3514732081, -0.8804087, -0.084523894, 0.39005068, -0.25614426, -0.033922337, 1.75428, -1.2607136, 0
1246, 3514782082, -0.87156695, -0.09364308, 0.40664542, -0.25739998, -0.7081561, 1.1991496, -0.66362095, 0
1247, 3514798749, -0.8690938, -0.09682447, 0.41180503, -0.2563805, -0.45740518, 0.9136287, -0.91189766, 0
1249, 3514832083, -0.8638166, -0.10495664, 0.42061844, -0.25670654, -0.4928512, 0.15092367, -0.52807426, 0
1250, 3514848750, -0.8614219, -0.106926925, 0.425186, -0.25641516, -0.871009, 0.22575448, -0.39559174, 0
1251, 3514865417, -0.8580328, -0.107110396, 0.43095472, -0.25806642, -0.70541114, 0.908796, -0.779191, 0
1253, 3514898751, -0.85196394, -0.107461214, 0.44342798, -0.25689405, -0.5929913, 1.533201, -1.013751, 0
1254, 3514915418, -0.84944415, -0.10695752, 0.4497104, -0.2545164, -0.7780846, 0.6264047, -1.5947685, 0
1255, 3514932085, -0.8476715, -0.10652858, 0.45452797, -0.25203577, -0.8065948, 0.106712736, -1.3517952, 0
1257, 3514965419, -0.8452713, -0.1054917, 0.46137792, -0.24805559, -0.79796225, 0.20636678, -0.21261787, 0
1258, 3514982086, -0.84362113, -0.10529043, 0.46486118, -0.24725384, -1.4005321, -0.4818726, 0.0094127655, 0
1260, 3515015420, -0.839474, -0.10131078, 0.47466245, -0.24439429, -1.0883952, 0.7625413, -1.3322668, 0
1261, 3515032087, -0.8380668, -0.09897594, 0.47850913, -0.24267308, -0.8058545, 1.4057956, -1.4285793, 0
1265, 3515098755, -0.83650917, -0.09050082, 0.48647624, -0.23540562, -1.9630117, -0.13344598, -0.42569637, 0
1266, 3515115422, -0.83643186, -0.087096974, 0.4887132, -0.23231128, -1.9809026, 0.38793677, -0.9891567, 0
1268, 3515148756, -0.8360337, -0.079681985, 0.49401686, -0.22507617, -0.5050812, 0.54525125, -2.1245813, 0
1270, 3515182090, -0.8397511, -0.07467839, 0.49084294, -0.21983516, -1.987595, -1.1271075, -0.6135645, 0
1274, 3515248758, -0.8409916, -0.06747894, 0.49287018, -0.21277167, -2.0328503, -1.3676376, -1.3617678, 0
1277, 3515298759, -0.8412991, -0.0697712, 0.490864, -0.21543835, -1.0015786, -0.26959586, 1.5307455, 0
1278, 3515315426, -0.8416385, -0.07092085, 0.4892539, -0.21739073, 0.1472338, -0.16595832, 2.3126154, 0
1281, 3515365427, -0.84219337, -0.074726775, 0.48511848, -0.22315785, -0.29747924, -0.19836216, 0.47054672, 0
1282, 3515382094, -0.8426517, -0.07617292, 0.48324174, -0.22500306, -0.5638376, -0.58264536, -0.28908253, 0
1284, 3515415428, -0.84270644, -0.082147256, 0.47988096, -0.22983709, -0.1772869, -1.782847, 0.01674366, 0
1287, 3515465429, -0.8401051, -0.08927877, 0.47729093, -0.24178351, 0.46290383, 1.0873392, 0.35781574, 0
1288, 3515482096, -0.84016263, -0.09286691, 0.47333896, -0.2479235, 0.3209932, 0.53059816, 0.98680687, 0
1289, 3515498763, -0.8402051, -0.09711473, 0.4692076, -0.25393215, -0.44312784, 0.46465772, 0.3448162, 0
1291, 3515532097, -0.83935815, -0.1015703, 0.4618627, -0.26806256, -0.29160842, 0.87121046, -0.05077362, 0
1292, 3515548764, -0.8392118, -0.10176273, 0.45908615, -0.27316847, -0.515793, 1.6554382, -0.895731, 0
1293, 3515565431, -0.8394764, -0.10310063, 0.45606002, -0.27689746, -1.6109524, 1.5981894, -2.0731773, 0
1295, 3515598765, -0.84187317, -0.1056326, 0.44714335, -0.28313842, -1.5637712, 0.5762297, -2.191647, 0
1297, 3515632099, -0.8457208, -0.107691616, 0.43384182, -0.29146737, -0.86944246, 0.018841693, -2.3126483, 0
1299, 3515665433, -0.85184497, -0.102347605, 0.41925696, -0.29685357, -2.7488604, 0.969447, -4.2959805, 0
1300, 3515682100, -0.85491264, -0.099842824, 0.41251558, -0.2983285, -2.327527, 0.83767, -5.6490297, 0
1301, 3515698767, -0.85860723, -0.098576546, 0.40525806, -0.29808635, -1.2715237, 0.6005483, -6.3195677, 0
1303, 3515732101, -0.8667451, -0.09574983, 0.39137894, -0.29397404, 1.8360678, 0.5131913, -7.976017, 0
1304, 3515748768, -0.8710648, -0.09703549, 0.3833261, -0.2913842, 1.3432834, -0.1928575, -7.5353136, 0
1305, 3515765435, -0.8745425, -0.09916334, 0.37643194, -0.28923106, 0.24143785, -0.6401823, -7.4589844, 0
1307, 3515798769, -0.8793587, -0.106448464, 0.3669124, -0.28422803, 0.7962819, -2.132446, -1.3357201, 0
1308, 3515815436, -0.88745266, -0.11270865, 0.3558652, -0.27036595, 10.75188, -0.6706509, 11.224976, 0
1309, 3515832103, -0.89238155, -0.107839316, 0.34821296, -0.26605743, 8.38187, -0.7115329, 12.726162, 0
1312, 3515882104, -0.904292, -0.11540829, 0.32421285, -0.25265846, 10.667725, -1.8985379, 13.7363205, 0
1314, 3515915438, -0.9093514, -0.124489546, 0.30468646, -0.25448322, 9.081818, -1.1915733, 8.28684, 0
1315, 3515932105, -0.909649, -0.1246385, 0.29641855, -0.26297006, 5.89884, 2.933232, 5.726899, 0
1316, 3515948772, -0.9094625, -0.12288545, 0.29008207, -0.27137166, 4.3280735, 4.872968, 4.758848, 0
1318, 3515982106, -0.9062998, -0.14134249, 0.28514412, -0.2781168, -7.333841, 2.9059675, -2.890697, 0
1319, 3515998773, -0.9068864, -0.15366513, 0.28083253, -0.2740263, -8.935572, -1.1899359, -3.0468588, 0
1320, 3516015440, -0.9092614, -0.15631637, 0.27399027, -0.2715725, -2.6787298, -3.5802202, 0.56088734, 0
1322, 3516048774, -0.90853, -0.15099251, 0.26468155, -0.28588706, 0.32957456, 0.44726363, 2.4350166, 0
1323, 3516065441, -0.9055479, -0.15185077, 0.2621892, -0.29697502, -1.0574856, 0.6531933, 2.0308352, 0
1324, 3516082108, -0.9021554, -0.15298992, 0.2607396, -0.30779532, -1.3583351, 0.65588707, 1.8553467, 0
1327, 3516132109, -0.8919352, -0.15131247, 0.26603898, -0.3328553, -1.9178424, 1.8791145, 0.12835121, 0
1328, 3516148776, -0.8890494, -0.15111, 0.27042103, -0.33710957, -2.365659, 0.6157131, -0.80973816, 0
1330, 3516182110, -0.88603246, -0.1495465, 0.27925846, -0.33854154, -2.3964753, 0.17476994, -1.1269464, 0
1331, 3516198777, -0.88539815, -0.14871016, 0.28533378, -0.33548933, -2.1850612, -0.39994422, -1.417572, 0
1332, 3516215444, -0.8848612, -0.14774361, 0.2926725, -0.3309812, -1.7330083, -0.70147604, -1.3797894, 0
1334, 3516248778, -0.88396484, -0.14507908, 0.30706993, -0.32137108, -0.5547746, -1.3402958, -1.2444706, 0
1335, 3516265445, -0.88266987, -0.14266844, 0.31607187, -0.31725597, 4.454613E-4, -1.4258544, -1.893589, 0
1336, 3516282112, -0.8808189, -0.14000505, 0.3254472, -0.31409228, -0.37810412, -0.8948548, -1.6300592, 0
1338, 3516315446, -0.87682474, -0.1339764, 0.34441638, -0.3076025, -0.64217776, -0.7344055, -2.5693727, 0
1339, 3516332113, -0.87503034, -0.12996633, 0.35385755, -0.3036917, -0.6590865, -0.99984187, -2.9555001, 0
1341, 3516365447, -0.87047625, -0.124627426, 0.37096268, -0.29856178, -0.30201966, -1.1380589, -3.596775, 0
1342, 3516382114, -0.8679433, -0.12361721, 0.37951437, -0.2955931, -0.835122, -0.8083322, -3.4394288, 0
1343, 3516398781, -0.8652074, -0.123687625, 0.38774338, -0.2928922, -0.841105, -0.91932654, -2.77383, 0
1345, 3516432115, -0.85939366, -0.12455837, 0.4039534, -0.2876852, -0.36802012, -1.4459237, -1.7893229, 0
1346, 3516448782, -0.85692763, -0.1238527, 0.4115126, -0.2846156, -0.6733216, -1.4639392, -0.93268204, 0
1347, 3516465449, -0.8545737, -0.12459154, 0.41821656, -0.28158283, -0.34685028, -1.6735061, -0.51077557, 0
1349, 3516498783, -0.84925014, -0.1272706, 0.42977282, -0.2790786, -0.35725507, -0.60893565, 0.74065304, 0
1350, 3516515450, -0.84616965, -0.12912484, 0.43483064, -0.27974838, -0.5950134, -0.5564968, 0.77443314, 0
1351, 3516532117, -0.8432665, -0.13023777, 0.43971252, -0.28036776, -0.9444801, -0.63420403, 0.19083977, 0
1354, 3516582118, -0.8348484, -0.13291831, 0.45562157, -0.27889636, -1.9977336, -0.46616018, -0.6599541, 0
1355, 3516598785, -0.8329488, -0.1336657, 0.46090192, -0.2755224, -1.3939582, -0.24738722, -0.86610603, 0
1357, 3516632119, -0.8299352, -0.13603441, 0.4678032, -0.2718003, -0.99079335, -0.62463677, -0.26490688, 0
1358, 3516648786, -0.8285831, -0.13794526, 0.4707925, -0.26979396, -0.7001713, -0.81821245, 0.6751976, 0
1359, 3516665453, -0.8266618, -0.13942418, 0.4750589, -0.26743847, -0.44423646, -0.68430257, 1.0535736, 0
1361, 3516698787, -0.8215209, -0.14111483, 0.48611563, -0.26247787, -1.2202902, 0.19453509, 0.2491064, 0
1362, 3516715454, -0.8197173, -0.14256848, 0.49004337, -0.26001623, -1.5909185, -0.27344093, 0.07212353, 0
1363, 3516732121, -0.8184491, -0.143391, 0.4932637, -0.25745726, -2.2019083, -0.8287142, -0.07898235, 0
1365, 3516765455, -0.8174309, -0.14235553, 0.5000765, -0.24794868, -1.4240226, -0.3772087, 0.1916132, 0
1366, 3516782122, -0.8174448, -0.14118227, 0.50385183, -0.24082793, -0.8174088, 0.5372421, 0.51218605, 0
1369, 3516832123, -0.8221139, -0.14203808, 0.504547, -0.22226052, -1.1314398, -1.4226313, 0.39495277, 0
1370, 3516848790, -0.8251106, -0.1417816, 0.502347, -0.21622026, -1.412983, -1.7426119, 0.36134243, 0
1372, 3516882124, -0.83080834, -0.14064294, 0.49762058, -0.20582579, -1.8531227, -1.3387737, -1.1034956, 0
1373, 3516898791, -0.8342401, -0.14234042, 0.4928302, -0.20227274, -2.1031294, -1.682049, -1.5879278, 0
1374, 3516915458, -0.83865446, -0.14507803, 0.48555115, -0.1996609, -2.3412888, -1.8523157, -1.6968193, 0
1376, 3516948792, -0.8486433, -0.15187459, 0.4653932, -0.20040257, -1.5290847, -1.4920782, -3.96707, 0
1377, 3516965459, -0.8549089, -0.15118659, 0.45429865, -0.19974822, -1.1639786, -0.8222506, -4.407398, 0
1378, 3516982126, -0.8623436, -0.147079, 0.44295162, -0.19631152, -0.80484957, 0.22591692, -4.001791, 0
1380, 3517015460, -0.87707186, -0.14466491, 0.41521752, -0.19345535, -1.0574609, -0.03680311, -4.69455, 0
1381, 3517032127, -0.8839945, -0.14304236, 0.39957508, -0.1960757, -1.6372021, -0.97729087, -5.266232, 0
1384, 3517082128, -0.9036681, -0.104461655, 0.36375415, -0.2004192, 2.3376107, 3.7590811, -5.909553, 0
1385, 3517098795, -0.9093475, -0.09889362, 0.34768957, -0.20599112, 4.1113753, 4.1421432, -4.4166126, 0
1386, 3517115462, -0.91420346, -0.09873396, 0.33211797, -0.21022497, 4.274782, 0.7139958, -3.5996757, 0
1388, 3517148796, -0.921371, -0.08965212, 0.31515306, -0.20911632, 4.554189, -6.0728946, 2.6992092, 0
1389, 3517165463, -0.92428696, -0.08742399, 0.31063235, -0.20389073, 7.9404855, -2.3750703, 6.3750095, 0
1390, 3517182130, -0.92721826, -0.09477478, 0.3045287, -0.1963663, 8.840447, -0.33107343, 8.691418, 0
1392, 3517215464, -0.93256015, -0.11544259, 0.28891724, -0.18315193, 10.650983, -4.615025, 10.912807, 0
1393, 3517232131, -0.9350947, -0.12281573, 0.28077906, -0.17801832, 11.31665, -5.141384, 9.807417, 0
1394, 3517248798, -0.9375557, -0.13142534, 0.27257234, -0.17156434, 10.611986, -4.7352085, 7.959606, 0
1396, 3517282132, -0.9405744, -0.16119787, 0.2544159, -0.15690996, 10.591727, -3.4137743, 5.1163406, 0
1399, 3517332133, -0.93765295, -0.17695111, 0.24814722, -0.16712695, 2.8954802, 2.6399026, 4.2629547, 0
1400, 3517348800, -0.93944067, -0.16684449, 0.25251538, -0.16082065, -4.6041985, 6.430804, 7.9393234, 0
1401, 3517365467, -0.93949455, -0.16452801, 0.2589532, -0.15243715, -10.191672, 11.301271, 6.2438755, 0
1403, 3517398801, -0.93492764, -0.18782032, 0.25681296, -0.15714368, -12.027831, -2.7199762, -2.0017896, 0
1404, 3517415468, -0.937792, -0.18069237, 0.2524018, -0.15557273, -0.114795804, -10.696784, -0.47109985, 0
1405, 3517432135, -0.9379099, -0.17533368, 0.25327587, -0.15952343, 4.1500936, -3.532811, 4.587227, 0
1407, 3517465469, -0.93613905, -0.16715758, 0.26307678, -0.16280666, 0.32200125, 0.039848782, 1.2171974, 0
1408, 3517482136, -0.93645304, -0.16436122, 0.26669943, -0.15787907, 1.2740965, -0.9118237, 1.6594162, 0
1409, 3517498803, -0.9366114, -0.15900593, 0.27087736, -0.15528989, 2.2201478, 0.2219676, 2.838665, 0
1411, 3517532137, -0.9332601, -0.15243903, 0.2829698, -0.16040345, -1.0567346, 0.7795943, 1.1341791, 0
1412, 3517548804, -0.93128407, -0.14751767, 0.28995597, -0.16397345, -4.1879606, 0.86933833, -1.9150562, 0
1413, 3517565471, -0.93086773, -0.14175375, 0.29458565, -0.1631681, -4.252045, 0.3481881, -3.5234475, 0
1415, 3517598805, -0.93219495, -0.13208821, 0.30159217, -0.15040118, -0.87618315, -0.5944242, -4.3974113, 0
1416, 3517615472, -0.9319762, -0.12962537, 0.30643082, -0.1439824, -0.5427088, -0.65833414, -4.26656, 0
1417, 3517632139, -0.9306875, -0.12735198, 0.31346503, -0.13912344, 0.004491716, -0.91231126, -3.7818103, 0
1419, 3517665473, -0.92636806, -0.122731775, 0.33003387, -0.13367847, 0.0516154, -1.6035062, -2.7862525, 0
1420, 3517682140, -0.92399913, -0.11908591, 0.3380536, -0.13333018, -0.72674054, -1.5866159, -3.0016418, 0
1422, 3517715474, -0.91863424, -0.10756454, 0.3563821, -0.13246107, -1.2572027, -0.5543767, -2.3549862, 0
1423, 3517732141, -0.915307, -0.1023066, 0.3668048, -0.13120136, -0.6795784, -0.2839344, -2.3732967, 0
1426, 3517782142, -0.90499884, -0.088675156, 0.39604446, -0.12757656, -0.46910563, 0.20397931, -0.70878696, 0
1427, 3517798809, -0.9010566, -0.08551239, 0.40635824, -0.12518394, -0.48731256, 0.120015144, -0.6095772, 0
1428, 3517815476, -0.8970996, -0.08437, 0.4161826, -0.122061975, -0.3930607, 0.43182847, -0.58567524, 0
1430, 3517848810, -0.88925266, -0.083755225, 0.43436152, -0.11643808, -0.9597219, -0.29251188, -0.83991337, 0
1431, 3517865477, -0.8852132, -0.083966985, 0.44288233, -0.114960015, -1.3972975, -1.5481684, -0.92053795, 0
1432, 3517882144, -0.8814662, -0.079881206, 0.45151395, -0.11306931, -1.5772817, -1.154019, -0.676528, 0
1434, 3517915478, -0.8739079, -0.070772484, 0.46810406, -0.11031049, -1.427986, -0.5029857, -0.9317684, 0
1435, 3517932145, -0.8702021, -0.066437066, 0.475952, -0.1087075, -0.9857006, -0.2943484, -1.0936241, 0
1436, 3517948812, -0.8664738, -0.061846398, 0.48375583, -0.10673196, -0.85360646, 0.33599573, -0.9610939, 0
1438, 3517982146, -0.86039424, -0.057115495, 0.495705, -0.10367947, -0.9889805, -0.8569777, -0.8100853, 0
1440, 3518015480, -0.85519665, -0.055360064, 0.50520873, -0.101740785, -1.426843, -0.4270187, -0.7407503, 0
1442, 3518048814, -0.8493726, -0.052816845, 0.51544064, -0.10055174, -1.1379563, -0.40188843, 0.012999535, 0
1443, 3518065481, -0.845892, -0.051294334, 0.5214097, -0.099904366, -1.0808494, 0.14772329, 0.50409317, 0
1444, 3518082148, -0.8426133, -0.0489752, 0.52719516, -0.09840176, -0.60491186, 0.5297181, 0.2559023, 0
1446, 3518115482, -0.83766663, -0.049623147, 0.5349196, -0.0986214, -1.0722268, -0.34099224, 0.27884388, 0
1447, 3518132149, -0.8359153, -0.04960656, 0.5376991, -0.09837492, -1.2063173, -0.29215205, 0.22477818, 0
1449, 3518165483, -0.83329636, -0.049407713, 0.5420325, -0.0969031, -1.2720827, 0.030315453, 0.5944567, 0
1450, 3518182150, -0.8316252, -0.04902927, 0.54486066, -0.09558003, -1.3665406, 0.15547656, 0.3855486, 0
1451, 3518198817, -0.8308897, -0.048963472, 0.5461506, -0.09464481, -1.028272, 0.23149103, 0.14575768, 0
1453, 3518232151, -0.83202845, -0.050879262, 0.54437464, -0.09385884, -1.7017193, 0.15149993, 0.71525955, 0
1455, 3518265485, -0.83604044, -0.05442623, 0.5377, -0.094689645, -1.7368722, -0.33855128, 1.1341763, 0
1457, 3518298819, -0.8462347, -0.059291333, 0.5210823, -0.09411725, -2.0267913, 0.55712575, 0.7320614, 0
1458, 3518315486, -0.85263145, -0.06666953, 0.50914365, -0.09675174, -2.2529726, 0.08012252, -1.2246132, 0
1459, 3518332153, -0.8584838, -0.0750271, 0.49716702, -0.10106759, -1.9922284, -0.8458801, -3.5851898, 0
1461, 3518365487, -0.87064636, -0.07953832, 0.47331116, -0.107880466, -0.7655422, -1.4638101, -6.957492, 0
1462, 3518382154, -0.87767166, -0.07681011, 0.4603367, -0.10906969, 0.028173458, -0.49647036, -6.8224382, 0
1463, 3518398821, -0.8847493, -0.076481745, 0.4461135, -0.11119924, -0.20488438, 0.07769319, -5.8210692, 0
1465, 3518432155, -0.8971248, -0.079755194, 0.4169764, -0.12227083, -1.6963537, 0.3162875, -6.113902, 0
1466, 3518448822, -0.9020216, -0.07611571, 0.4051552, -0.12816434, -2.2592611, 1.412887, -6.0330815, 0
1467, 3518465489, -0.9067749, -0.064727515, 0.3956509, -0.13055107, -2.0931304, 1.6700021, -6.6189666, 0
1470, 3518515490, -0.92128885, -0.06284708, 0.3599304, -0.13319325, 12.3266, -2.2853558, -1.3422365, 0
1471, 3518532157, -0.9256052, -0.07248153, 0.34886315, -0.1277076, 7.7470555, -5.536175, 1.7845707, 0
1473, 3518565491, -0.9303019, -0.072258174, 0.33960062, -0.118329465, 9.507235, -1.1839416, 8.998037, 0
1474, 3518582158, -0.932576, -0.08329936, 0.33405203, -0.10856281, 10.888025, -1.2578484, 11.844704, 0
1476, 3518615492, -0.93673354, -0.111697726, 0.31926382, -0.09020923, 10.272551, -6.8235116, 10.308987, 0
1477, 3518632159, -0.9376391, -0.12311676, 0.31368133, -0.08539434, 9.453701, -5.828228, 8.31979, 0
1478, 3518648826, -0.938598, -0.1290803, 0.30876645, -0.08395624, 8.141968, -3.4511082, 7.085762, 0
1480, 3518682160, -0.9429611, -0.12341456, 0.29581282, -0.090007514, 5.7425313, 7.014879, 10.646742, 0
1481, 3518698827, -0.9438084, -0.122449115, 0.2929049, -0.09193432, -0.7415078, 12.129918, 12.258833, 0
1482, 3518715494, -0.9423282, -0.13192214, 0.29355952, -0.09192492, -9.622925, 11.855457, 7.753191, 0
1484, 3518748828, -0.9426552, -0.14470324, 0.28358066, -0.10028596, -10.107466, -6.4115167, 2.6485891, 0
1485, 3518765495, -0.94427687, -0.14507107, 0.27772054, -0.10089621, -1.772289, -6.1656914, 4.2661743, 0
1486, 3518782162, -0.9458205, -0.13746965, 0.2747709, -0.1050718, 1.449249, 0.6475682, 5.1073227, 0
1488, 3518815496, -0.947132, -0.11626442, 0.28193256, -0.09975399, 0.5626045, 5.7132883, 2.1586857, 0
1489, 3518832163, -0.94639117, -0.11410044, 0.28729695, -0.09380053, -0.67658424, 3.85775, 0.64371586, 0
1490, 3518848830, -0.94595593, -0.11194791, 0.29152483, -0.08752957, -0.7094402, 0.3329767, -0.9043083, 0
1492, 3518882164, -0.94328314, -0.10828758, 0.30267525, -0.08301586, -0.6076281, -4.6544266, -2.558969, 0
1493, 3518898831, -0.9417117, -0.101248555, 0.30926922, -0.085402384, -0.82726204, -2.743019, -2.996385, 0
1494, 3518915498, -0.9405247, -0.08968969, 0.31599557, -0.086770624, -0.18905441, -0.055506203, -2.8921022, 0
1497, 3518965499, -0.93462664, -0.060207125, 0.33920205, -0.08833787, -0.18615489, -0.27117035, -4.022414, 0
1498, 3518982166, -0.9319048, -0.054824386, 0.34730852, -0.089093804, -0.54306203, -0.3769712, -4.240129, 0
1500, 3519015500, -0.92576796, -0.04220688, 0.36579034, -0.08592565, -0.30873913, 0.26065317, -4.5228653, 0
1501, 3519032167, -0.9224931, -0.037599344, 0.3750705, -0.083234906, -0.18206349, -0.71307975, -4.0162573, 0
1503, 3519065501, -0.916388, -0.030491248, 0.39167586, -0.07685435, -0.32863176, -0.93566316, -2.3382006, 0
1504, 3519082168, -0.9132641, -0.025159255, 0.39987758, -0.07366729, -0.3627747, -0.08155569, -1.9615021, 0
1505, 3519098835, -0.9097184, -0.021207161, 0.4083529, -0.07227607, -1.0073771, -0.99262214, -1.7978611, 0
1507, 3519132169, -0.9019822, -0.013185024, 0.4252692, -0.07357669, -0.2743541, -0.74463236, -1.5148163, 0
1508, 3519148836, -0.89844877, -0.010793276, 0.43217948, -0.07685864, -0.03799832, -1.0333863, -1.1969709, 0
1509, 3519165503, -0.8954075, -0.010088369, 0.43766218, -0.0812923, -0.58356214, -0.7108957, -0.15643597, 0
1512, 3519215504, -0.8854884, -0.009575717, 0.4550065, -0.093813255, -1.6409343, -1.42176, -0.45442867, 0
1513, 3519232171, -0.881725, -0.009241633, 0.4615258, -0.09737949, -1.0468922, 0.43020824, -0.479887, 0
1515, 3519265505, -0.87480456, -0.011135563, 0.4722113, -0.107808866, -0.23100333, 0.57878995, -0.6670618, 0
1516, 3519282172, -0.8720042, -0.011392228, 0.4760133, -0.11359395, -0.5237771, 0.7611775, -0.6235218, 0
1517, 3519298839, -0.86967313, -0.012699597, 0.47863767, -0.120112695, -1.260966, -0.0377006, -0.31907558, 0
1519, 3519332173, -0.8652023, -0.01636459, 0.48400366, -0.13004148, -1.0697294, -0.18567266, -0.33375454, 0
1520, 3519348840, -0.86321425, -0.019485846, 0.48642072, -0.13375166, -1.0747741, 0.079400405, 0.08502865, 0
1521, 3519365507, -0.8614003, -0.02280239, 0.48865443, -0.13674676, -0.5806062, 0.7537334, 0.09543514, 0
1523, 3519398841, -0.8593757, -0.02694153, 0.4909066, -0.14061162, -2.4899343E-4, 1.7141804, 0.5882921, 0
1524, 3519415508, -0.8590017, -0.028752975, 0.49121556, -0.14145628, 0.30456814, 1.8010519, 0.086458206, 0
1527, 3519465509, -0.8579842, -0.033431105, 0.491946, -0.14404106, -0.71692497, 0.6108045, 0.4638071, 0
1528, 3519482176, -0.85805225, -0.034108512, 0.4915195, -0.14492959, -0.67063856, 0.9745124, 0.39005852, 0
1530, 3519515510, -0.8602717, -0.03164474, 0.48763794, -0.14544359, 0.04495516, 1.4932364, 0.6739855, 0
1531, 3519532177, -0.86188036, -0.028957635, 0.48528656, -0.14434062, -0.044510815, 0.61905557, 0.61160564, 0
1532, 3519548844, -0.86367434, -0.02650623, 0.48282352, -0.14233263, -0.71330136, -0.06300322, 0.24553204, 0
1534, 3519582178, -0.8677483, -0.023312308, 0.47748214, -0.13599154, -0.89595324, 0.14611472, -0.7883949, 0
1535, 3519598845, -0.8686293, -0.021349736, 0.47665918, -0.13355476, -0.86252624, 0.7380032, -0.47537613, 0
1536, 3519615512, -0.8695091, -0.018870018, 0.47574565, -0.13144228, -0.3910129, 1.3530642, -0.9623728, 0
1538, 3519648846, -0.8725789, -0.0155873895, 0.47064403, -0.12988675, 0.30076262, -0.25018856, -0.378273, 0
1539, 3519665513, -0.8743508, -0.014567815, 0.46724996, -0.13034353, -0.3074081, -0.6360752, 0.7532644, 0
1542, 3519715514, -0.8773331, -0.0024497584, 0.4621806, -0.12916255, 0.4766861, 2.259379, 1.1274071, 0
1543, 3519732181, -0.8785918, 0.0024013594, 0.46037504, -0.12703882, 0.5722893, 2.1949694, 0.4448824, 0
1544, 3519748848, -0.88030183, 0.007232681, 0.45790595, -0.12390245, 0.17615011, 1.1421673, 0.39542198, 0
1546, 3519782182, -0.88448894, 0.010859013, 0.4505797, -0.12063352, -1.2305441, -1.3269475, 1.337759, 0
1547, 3519798849, -0.8863117, 0.0093220025, 0.44692385, -0.12098351, -2.1068573, -1.8635962, 1.702241, 0
1548, 3519815516, -0.8873487, 0.0067267865, 0.44463322, -0.12199048, -2.8620257, -1.7905556, 0.92089844, 0
1550, 3519848850, -0.88812965, 1.1010468E-4, 0.44309908, -0.12207431, -3.5845869, -0.43702728, -1.0764828, 0
1551, 3519865517, -0.88789976, -4.17158E-4, 0.44360942, -0.12189352, -3.7810998, 1.0147073, -2.2978945, 0
1552, 3519882184, -0.8879705, -0.0011389181, 0.44430625, -0.11879589, -3.7857776, 2.3003693, -3.430059, 0
1554, 3519915518, -0.8894893, -0.0018301457, 0.44280013, -0.11290163, -2.4843605, 2.6618176, -3.526774, 0
1555, 3519932185, -0.89088595, -0.002783917, 0.4404319, -0.11112098, -2.2745652, 1.9774289, -2.7421684, 0
1557, 3519965519, -0.8938758, -0.00559517, 0.4350833, -0.10803086, -1.8215468, -0.46098498, -0.15283203, 0
1558, 3519982186, -0.8950665, -0.0067469105, 0.4333882, -0.10487358, -1.2553512, -1.0253102, 0.94298553, 0
1559, 3519998853, -0.89622104, -0.009557739, 0.43152297, -0.10245718, -1.4107407, -1.4858946, 0.448205, 0
1561, 3520032187, -0.89785415, -0.019397005, 0.4279803, -0.10162592, -2.24094, -1.8780226, -2.0943208, 0
1562, 3520048854, -0.8976662, -0.023321085, 0.42826408, -0.10126528, -2.6437435, -1.4325719, -1.9722743, 0
1563, 3520065521, -0.8967202, -0.02596081, 0.4303684, -0.10007666, -3.2751925, -0.5028802, -1.8109035, 0
1565, 3520098855, -0.89400977, -0.032520078, 0.43573475, -0.09918435, -1.849458, 0.50151104, -1.2866507, 0
1566, 3520115522, -0.8925335, -0.03656874, 0.43790448, -0.10148655, -0.31344765, 0.425823, -1.0722866, 0
1569, 3520165523, -0.89233196, -0.03431073, 0.43613368, -0.111208014, -1.235364, 1.000099, -1.9298921, 0
1570, 3520182190, -0.8940141, -0.029970564, 0.43254876, -0.112938255, -0.6212107, 2.8767154, -1.8499045, 0
1571, 3520198857, -0.8955384, -0.02741342, 0.42878866, -0.115815654, -0.91646814, 3.317838, -3.1002426, 0
1573, 3520232191, -0.89970124, -0.022514455, 0.4180686, -0.12354354, -0.15986474, 2.4891121, -3.3456373, 0
1574, 3520248858, -0.9034592, -0.017799951, 0.40914586, -0.12671801, -0.34768558, 2.787929, -1.9171801, 0
1575, 3520265525, -0.9076714, -0.0108443275, 0.39892995, -0.12993547, 0.29659477, 4.060714, -1.7585936, 0
1577, 3520298859, -0.9226734, 0.0016374215, 0.36557877, -0.12262253, 3.7551246, -1.1656911, -2.934733, 0
1578, 3520315526, -0.9309397, -0.00482738, 0.34642512, -0.11545947, 5.9376497, -3.8506048, -1.6032772, 0
1581, 3520365527, -0.946675, -0.056054913, 0.29832974, -0.10805963, 6.2997055, -9.740818, 2.4282675, 0
1582, 3520382194, -0.94779366, -0.051838398, 0.29160592, -0.118233666, 9.8724375, -6.3318605, 3.212551, 0
1585, 3520432195, -0.9450708, -0.030532278, 0.2929481, -0.14178649, 11.359427, 2.8066132, 3.94273, 0
1586, 3520448862, -0.9448341, -0.024699654, 0.29431927, -0.14166114, 8.367423, 1.9764504, 2.241026, 0
1588, 3520482196, -0.9412249, -0.0071775317, 0.3052803, -0.14443478, 3.9659379, -1.8992562, 1.5557861, 0
1589, 3520498863, -0.93780684, 0.009879544, 0.3146653, -0.14635527, -0.21331987, -3.2253158, 4.8513813, 0
1590, 3520515530, -0.9344023, 0.027338363, 0.32193872, -0.15004604, -5.043925, -0.97374034, 4.8539114, 0
1592, 3520548864, -0.93218607, 0.033901997, 0.32389325, -0.15807107, -13.604547, -5.483328, 5.2906685, 0
1593, 3520565531, -0.93076974, 0.03485802, 0.32766595, -0.15843226, -10.023165, -1.0494745, 5.896433, 0
1594, 3520582198, -0.92990726, 0.033719674, 0.3310484, -0.15670252, -4.1145043, 6.0846715, 4.668461, 0
1596, 3520615532, -0.93036747, 0.037978098, 0.33262336, -0.14949502, 1.3578135, 0.35154566, 7.9587593, 0
1597, 3520632199, -0.931976, 0.04427278, 0.3316496, -0.1395782, -0.38147044, -1.048869, 4.9529953, 0
1600, 3520682200, -0.9365026, 0.052363522, 0.32568938, -0.118997745, -1.6045532, -2.7965379, 2.0326118, 0
1601, 3520698867, -0.93555385, 0.05440636, 0.32967955, -0.1144705, -2.0317078, -0.59962237, -0.027413368, 0
1602, 3520715534, -0.9346701, 0.056568407, 0.33391336, -0.10819793, -1.1627516, 0.97291267, -1.4309025, 0
1604, 3520748868, -0.9335478, 0.056867078, 0.3398595, -0.09881005, -0.8206419, -0.6294315, -2.4907985, 0
1605, 3520765535, -0.93260735, 0.054482304, 0.34326735, -0.09724067, -0.44003084, 0.7398555, -2.2882895, 0
1606, 3520782202, -0.931515, 0.051738888, 0.3475931, -0.09378299, -0.44852033, 0.80961096, -2.1526456, 0
1608, 3520815536, -0.9272166, 0.047586203, 0.36138135, -0.08615051, -1.508052, 0.5835374, -3.4112382, 0
1609, 3520832203, -0.9243028, 0.04470574, 0.36990196, -0.0827726, -0.56912905, 0.91503793, -3.564169, 0
1611, 3520865537, -0.91915125, 0.037799157, 0.38438907, -0.077397764, 1.3237784, 0.49183062, -1.813631, 0
1612, 3520882204, -0.9168518, 0.034563616, 0.3906124, -0.07498819, 0.65082616, 0.11760648, -0.8569765, 0
1615, 3520932205, -0.90848976, 0.024005577, 0.41268784, -0.061416656, 0.02879942, 0.70084345, -1.8904595, 0
1616, 3520948872, -0.90524405, 0.021860935, 0.4205547, -0.05658701, -0.895929, 0.17708534, -2.8286176, 0
1617, 3520965539, -0.9022031, 0.020214222, 0.42760947, -0.052765176, -0.18507744, 1.0574943, -2.1374283, 0
1619, 3520998873, -0.8967396, 0.016746394, 0.44022763, -0.04231307, 0.04595784, 0.024709133, -1.7616701, 0
1620, 3521015540, -0.89367306, 0.014765114, 0.44692934, -0.03738807, -0.6874076, -0.6346832, -1.9573913, 0
1621, 3521032207, -0.8903851, 0.013889253, 0.45375222, -0.033819333, -1.1854464, -0.36147332, -1.8195381, 0
1623, 3521065541, -0.8831285, 0.016370758, 0.46772674, -0.03257239, -1.7158321, 0.5124516, -1.2685871, 0
1624, 3521082208, -0.87961495, 0.018665768, 0.4741944, -0.032893866, -0.8605298, 0.9953147, -0.40637875, 0
1625, 3521098875, -0.87586415, 0.021164514, 0.48100072, -0.032643646, -0.44785917, 0.94436437, 0.0761261, 0
1627, 3521132209, -0.86921746, 0.02547384, 0.4930247, -0.027420238, -1.5155872, 0.06449426, 0.19741535, 0
1628, 3521148876, -0.8667393, 0.02696018, 0.497504, -0.023215875, -1.5154717, -0.48737413, -0.13197327, 0
1629, 3521165543, -0.86446846, 0.024735816, 0.50165707, -0.020877108, -2.5720096, -0.3928704, -0.07179737, 0
1631, 3521198877, -0.86149627, 0.024968818, 0.50682616, -0.018473372, -0.8370473, 0.687358, 0.6219082, 0
1632, 3521215544, -0.8600796, 0.023984969, 0.5092687, -0.01861298, -0.32652405, 0.5342474, -0.21773624, 0
1633, 3521232211, -0.8591234, 0.021105647, 0.5109305, -0.020610914, -0.022524742, -0.18231516, 0.07078743, 0
1635, 3521265545, -0.8576072, 0.011123553, 0.51336807, -0.029196292, 0.35558364, -0.30986091, 1.3868246, 0
1636, 3521282212, -0.8571039, 0.0064748675, 0.5139786, -0.034208357, -0.12927811, 1.2445407, 1.3085804, 0
1638, 3521315546, -0.85594773, -0.004258111, 0.515138, -0.044514343, 0.057682883, 1.3587289, -0.030276299, 0
1639, 3521332213, -0.8552098, -0.009552926, 0.51586455, -0.0492135, -0.5069372, 1.2359275, -0.3174963, 0
1642, 3521382214, -0.85319084, -0.022750989, 0.51766163, -0.059895024, -0.90272456, 1.5845289, 0.60751915, 0
1643, 3521398881, -0.8527732, -0.027004018, 0.51795584, -0.061509505, -0.7672509, 1.5083785, -0.02823925, 0
1644, 3521415548, -0.8533477, -0.030182905, 0.51679283, -0.06184584, 0.12488841, 2.2510276, 0.16633797, 0
1646, 3521448882, -0.85741764, -0.038599305, 0.5088201, -0.06678684, -1.3442371, 0.23593469, 0.78707695, 0
1647, 3521465549, -0.861403, -0.040353395, 0.50152326, -0.069599465, -2.887695, -0.006661133, 1.5952101, 0
1648, 3521482216, -0.86557126, -0.039400063, 0.49414277, -0.07120614, -3.3886256, 0.57046354, 1.1984367, 0
1650, 3521515550, -0.874651, -0.033305466, 0.4783299, -0.071344525, -3.6602795, 2.815325, -1.1139069, 0
1651, 3521532217, -0.8791445, -0.029715091, 0.47025636, -0.07137324, -3.3479877, 3.2574742, -2.6997318, 0
1652, 3521548884, -0.8839412, -0.026105091, 0.46137682, -0.071492195, -3.6601992, 2.724706, -3.5371728, 0
1654, 3521582218, -0.8935494, -0.017443053, 0.4428768, -0.071684554, -3.2569504, 1.284147, -4.858578, 0
1656, 3521615552, -0.90417206, -0.008686058, 0.42126676, -0.070321456, -2.4818892, 0.63414514, -6.3156185, 0
1658, 3521648886, -0.91738933, -0.003744714, 0.3915435, -0.07134321, 0.32158697, -0.5728148, -4.7452025, 0
1659, 3521665553, -0.9240142, 0.0025612786, 0.37549272, -0.07217723, 3.9152796, 0.81077623, -6.494591, 0
1660, 3521682220, -0.9309894, 0.008291051, 0.3576293, -0.07283197, 7.3554654, 1.8393472, -8.456056, 0
1662, 3521715554, -0.9467159, 0.018216975, 0.3161344, -0.0589014, 6.5771956, 0.27605695, -10.115811, 0
1663, 3521732221, -0.9540437, 0.026408091, 0.29501566, -0.045633167, 3.4915495, -0.44386107, -9.275443, 0
1665, 3521765555, -0.9633283, 0.039305985, 0.26445815, -0.022992685, 2.5330715, -0.42347986, -8.181877, 0
1666, 3521782222, -0.9654469, 0.037996624, 0.25657356, -0.025529087, 4.407912, -2.106556, 4.1618567, 0
1667, 3521798889, -0.96617174, 0.034254495, 0.253329, -0.034298986, 12.112745, -9.12663, 20.301218, 0
1669, 3521832223, -0.96153754, 0.06692093, 0.25796866, -0.06657785, 5.9777513, -9.534831, 21.530642, 0
1671, 3521865557, -0.95367134, 0.08357655, 0.2794583, -0.07377267, 0.31877998, 2.8970902, 9.599796, 0
1673, 3521898891, -0.95081604, 0.089550026, 0.2878446, -0.071333215, -10.892257, -3.5353403, 6.2103786, 0
1674, 3521915558, -0.9515862, 0.08012598, 0.28472626, -0.08371192, -4.1586704, -5.233153, 12.937834, 0
1675, 3521932225, -0.9492609, 0.07475373, 0.28972012, -0.096908376, -3.1552448, -4.098931, 11.707979, 0
1677, 3521965559, -0.94268954, 0.06825595, 0.30718777, -0.11102569, -4.516586, 5.337116, 0.14928341, 0
1678, 3521982226, -0.9411436, 0.063204534, 0.31086758, -0.11674149, -2.3794236, 4.2485404, -0.40076256, 0
1679, 3521998893, -0.9394938, 0.058851123, 0.3144568, -0.122549914, -1.1293195, 2.0294168, -0.9466572, 0
1681, 3522032227, -0.9351199, 0.043468386, 0.32168978, -0.14209172, 0.5044303, -0.53639746, -0.7837553, 0
1682, 3522048894, -0.9318223, 0.03979153, 0.32734758, -0.15159455, 1.1161698, -2.0817301, -0.48468304, 0
1683, 3522065561, -0.92862236, 0.038211577, 0.33381674, -0.15741691, 0.8177657, -0.83159494, -1.3060455, 0
1686, 3522115562, -0.9206062, 0.022774942, 0.35420236, -0.16284713, 1.735611, 0.27245012, -1.4525871, 0
1687, 3522132229, -0.918168, 0.01617045, 0.36159196, -0.16115376, 1.4810845, 0.87173873, -1.8794718, 0
1689, 3522165563, -0.9130934, 0.0056778416, 0.3771391, -0.15494344, 2.0565827, 2.1981819, -2.0451164, 0
1690, 3522182230, -0.9102939, 0.002753757, 0.38514388, -0.15177208, 1.2741665, 2.7557437, -1.9860177, 0
1692, 3522215564, -0.9058125, -0.004600346, 0.40083474, -0.13721174, 1.1328596, 2.424217, -1.9432402, 0
1693, 3522232231, -0.9035485, -0.008218482, 0.4084513, -0.12928, 0.56778, 1.3315572, -2.3133574, 0
1694, 3522248898, -0.9015517, -0.010721296, 0.4155995, -0.11991541, 0.25896838, 0.6513656, -1.0835238, 0
1696, 3522282232, -0.89568037, -0.00936839, 0.43419778, -0.09567894, 0.14801967, 1.7129451, -2.4452128, 0
1697, 3522298899, -0.89365244, -0.010017768, 0.44090888, -0.083051234, 0.15730149, 2.6863964, -1.3177013, 0
1698, 3522315566, -0.8917469, -0.010558769, 0.44663614, -0.07214883, -0.27606577, 1.692796, -1.5934601, 0
1700, 3522348900, -0.88678944, -0.014669254, 0.457973, -0.060523197, -1.1516751, -0.8260948, -0.6547899, 0
1701, 3522365567, -0.8837715, -0.014604606, 0.46427688, -0.056521952, -1.4131806, -1.1411657, -0.24168777, 0
1702, 3522382234, -0.8803501, -0.0136697665, 0.47111103, -0.053520188, -1.4756178, -0.28491566, -0.08961487, 0
1704, 3522415568, -0.8727062, -0.010062441, 0.48561323, -0.049755618, -1.97664, 1.1129212, -1.566185, 0
1705, 3522432235, -0.86916316, -0.0089795515, 0.49219015, -0.04729508, -1.5717511, 0.80438834, -1.3148165, 0
1706, 3522448902, -0.86569095, -0.0087828785, 0.4985613, -0.044179037, -1.5041819, 0.39045653, -0.4436283, 0
1708, 3522482236, -0.85880655, -0.010131374, 0.51083785, -0.037504688, -1.0065947, -0.54781896, 0.11539745, 0
