sep=,
DeviceTag:,Xsens_DOT_1,,,,,,,,,,,,,,,,,
FirmwareVersion:,3.0.0,,,,,,,,,,,,,,,,,
AppVersion:,2023.6.1,,,,,,,,,,,,,,,,,
SyncStatus:,Synced,,,,,,,,,,,,,,,,,
OutputRate:,60Hz,,,,,,,,,,,,,,,,,
FilterProfile:,General,,,,,,,,,,,,,,,,,
Measurement Mode:,Sensor fusion Mode - Extended (Quaternion),,,,,,,,,,,,,,,,,
StartTime:,2025-05-05 12:05:01.050 +0200,,,,,,,,,,,,,,,,,
 2025,,,,,,,,,,,,,,,,,,,

PacketCounter,SampleTimeFine,Quat_W,Quat_X,Quat_Y,Quat_Z,FreeAcc_X,FreeAcc_Y,FreeAcc_Z,Status
1, 3494031667, 0.9100029, -0.031090656, 0.26955506, 0.31360358, -0.14830904, -0.15979068, 0.4061432, 0
2, 3494048334, 0.9100942, -0.031024711, 0.2693603, 0.3135125, -0.096418515, -0.20014542, 0.3917904, 0
3, 3494065001, 0.910171, -0.030950595, 0.2692108, 0.31342542, -0.14767984, -0.21585824, 0.31698418, 0
4, 3494081668, 0.9102388, -0.03093057, 0.26907083, 0.3133505, -0.17333442, -0.19022335, 0.35329533, 0
5, 3494098335, 0.9103105, -0.030973602, 0.26892802, 0.31326085, -0.19817248, -0.19605744, 0.30684948, 0
6, 3494115002, 0.9103713, -0.031029252, 0.2687926, 0.313195, -0.20247847, -0.22184674, 0.36129665, 0
7, 3494131669, 0.9104327, -0.031110806, 0.26863423, 0.31314442, -0.25925112, -0.23528701, 0.32807827, 0
8, 3494148336, 0.91049576, -0.03118201, 0.2684822, 0.31308392, -0.28288183, -0.26515007, 0.32957172, 0
9, 3494165003, 0.91056436, -0.031149587, 0.26831797, 0.31302848, -0.28610602, -0.21446581, 0.30747414, 0
10, 3494181670, 0.9106227, -0.031132713, 0.26815552, 0.3129996, -0.3010672, -0.19300419, 0.27546024, 0
11, 3494198337, 0.9106776, -0.03115038, 0.26798138, 0.3129876, -0.28886986, -0.18910123, 0.30758858, 0
12, 3494215004, 0.91072845, -0.031155987, 0.26781133, 0.31298393, -0.2610071, -0.15146348, 0.30569077, 0
13, 3494231671, 0.9107794, -0.031170838, 0.26764837, 0.31297392, -0.2549179, -0.18294698, 0.38215065, 0
14, 3494248338, 0.9108143, -0.031188712, 0.2675129, 0.3129864, -0.20139858, -0.22846065, 0.37717152, 0
15, 3494265005, 0.91082853, -0.031177536, 0.26745299, 0.31299725, -0.18101633, -0.22669014, 0.3508129, 0
16, 3494281672, 0.9108426, -0.031160207, 0.26739287, 0.3130093, -0.23849335, -0.17132097, 0.33220673, 0
17, 3494298339, 0.91085666, -0.031190978, 0.26735678, 0.31299645, -0.267311, -0.15095851, 0.34921837, 0
18, 3494315006, 0.9108813, -0.031287767, 0.26727167, 0.31298816, -0.21083234, -0.17923042, 0.3023119, 0
19, 3494331673, 0.91090816, -0.031308442, 0.26719067, 0.3129763, -0.19653141, -0.19976537, 0.29573154, 0
20, 3494348340, 0.91094553, -0.031304657, 0.2670706, 0.3129707, -0.23335446, -0.19154768, 0.30522633, 0
21, 3494365007, 0.9109621, -0.031265333, 0.26697946, 0.31300402, -0.23564658, -0.12762223, 0.35861874, 0
22, 3494381674, 0.9109836, -0.031243064, 0.2668849, 0.3130242, -0.23631041, -0.09478813, 0.3822918, 0
23, 3494398341, 0.9109906, -0.031211039, 0.26685005, 0.31303674, -0.20931482, -0.14126982, 0.3824978, 0
24, 3494415008, 0.91098624, -0.031186296, 0.26684746, 0.31305447, -0.18619613, -0.15563971, 0.33248234, 0
25, 3494431675, 0.9109788, -0.031131396, 0.26686606, 0.31306577, -0.15620823, -0.15924127, 0.33943462, 0
26, 3494448342, 0.9109705, -0.031067701, 0.26688078, 0.31308353, -0.20150022, -0.13882709, 0.3305359, 0
27, 3494465009, 0.9109618, -0.030978765, 0.26691297, 0.31309032, -0.2125711, -0.10831924, 0.33317375, 0
28, 3494481676, 0.9109665, -0.030873604, 0.26688355, 0.313112, -0.25498697, -0.07510256, 0.24035645, 0
29, 3494498343, 0.91096616, -0.030733716, 0.26686123, 0.31314588, -0.21500476, -0.08855843, 0.3312893, 0
30, 3494515010, 0.910959, -0.030598406, 0.26683822, 0.31319967, -0.1557317, -0.13197833, 0.37320614, 0
31, 3494531677, 0.9109349, -0.030403446, 0.26686648, 0.3132645, -0.12051032, -0.108639084, 0.3737154, 0
32, 3494548344, 0.91089875, -0.030175481, 0.26693517, 0.31333327, -0.13658, -0.06754159, 0.32866383, 0
33, 3494565011, 0.9108594, -0.029961037, 0.2670234, 0.31339288, -0.14725775, -0.062976144, 0.29899788, 0
34, 3494581678, 0.91082656, -0.029746667, 0.2671026, 0.3134414, -0.124956846, -0.06637896, 0.3181219, 0
35, 3494598345, 0.91079885, -0.029526606, 0.26716226, 0.31349215, -0.10543904, -0.10561188, 0.22998238, 0
36, 3494615012, 0.91076845, -0.029291108, 0.26720408, 0.31356654, -0.090606906, -0.051359702, 0.30077267, 0
37, 3494631679, 0.9107456, -0.02904324, 0.26723617, 0.3136286, -0.1140672, -0.038160365, 0.37532043, 0
38, 3494648346, 0.9107128, -0.028811907, 0.26732665, 0.31366822, -0.105820216, -0.055469014, 0.40927887, 0
39, 3494665013, 0.910665, -0.028588785, 0.26746595, 0.31370905, -0.08106186, -0.097343884, 0.3692503, 0
40, 3494681680, 0.91060704, -0.028352503, 0.26763493, 0.3137539, -0.07418569, -0.115074806, 0.33446503, 0
41, 3494698347, 0.91054404, -0.028127618, 0.26780877, 0.31380868, -0.12589663, -0.10697073, 0.30774593, 0
42, 3494715014, 0.9104944, -0.02790087, 0.26794964, 0.3138529, -0.13735975, -0.13374825, 0.32199383, 0
43, 3494731681, 0.91043997, -0.027666599, 0.26808253, 0.31391782, -0.15849426, -0.118502684, 0.3076868, 0
44, 3494748348, 0.91039145, -0.027429713, 0.2682157, 0.31396586, -0.18897228, -0.08271528, 0.3490343, 0
45, 3494765015, 0.91034496, -0.027223783, 0.26835904, 0.31399602, -0.166267, -0.083557494, 0.3727541, 0
46, 3494781682, 0.9102865, -0.027015263, 0.26855174, 0.31401876, -0.10101659, -0.13100047, 0.42108822, 0
48, 3494815016, 0.91015166, -0.026623236, 0.26899448, 0.3140641, -0.13983412, -0.2017095, 0.3054428, 0
49, 3494831683, 0.91010404, -0.026453124, 0.2691799, 0.31405753, -0.20496373, -0.16145246, 0.26279736, 0
50, 3494848350, 0.9100556, -0.026279097, 0.26931468, 0.3140973, -0.23133656, -0.16573544, 0.29296875, 0
52, 3494881684, 0.9099998, -0.025885945, 0.26949593, 0.3141358, -0.16530375, -0.15695521, 0.3757925, 0
53, 3494898351, 0.90996367, -0.025717782, 0.2695881, 0.31417495, -0.14426346, -0.17888328, 0.35225773, 0
54, 3494915018, 0.9099401, -0.025534628, 0.2696755, 0.31418356, -0.09602718, -0.22607109, 0.31443024, 0
56, 3494948352, 0.9098973, -0.02523912, 0.2697882, 0.3142346, -0.17680229, -0.1237185, 0.3740406, 0
57, 3494965019, 0.9098915, -0.025136268, 0.26979238, 0.31425607, -0.20062274, -0.11766219, 0.34020424, 0
60, 3495015020, 0.909932, -0.02494694, 0.26969394, 0.31423813, -0.0767693, -0.18949954, 0.4135809, 0
62, 3495048354, 0.90995854, -0.024991995, 0.26967826, 0.314171, -0.15934567, -0.15262762, 0.32887554, 0
64, 3495081688, 0.9100227, -0.025204485, 0.26954535, 0.3140825, -0.15200487, -0.16921705, 0.28441334, 0
65, 3495098355, 0.91005546, -0.025287416, 0.26940876, 0.314098, -0.17605077, -0.08705436, 0.31139374, 0
67, 3495131689, 0.91014886, -0.025481489, 0.26917297, 0.31401402, -0.120759286, -0.14249456, 0.40923786, 0
68, 3495148356, 0.9101731, -0.025581863, 0.2690888, 0.3140077, -0.10154036, -0.12921824, 0.33692455, 0
69, 3495165023, 0.9102055, -0.02566563, 0.2689642, 0.31401408, -0.13504174, -0.10578877, 0.28278446, 0
71, 3495198357, 0.91032714, -0.02602775, 0.26862437, 0.3139221, -0.12533572, -0.120431185, 0.31688595, 0
72, 3495215024, 0.9103972, -0.02620863, 0.26845813, 0.31384635, -0.09621241, -0.12605502, 0.34030056, 0
73, 3495231691, 0.91045344, -0.026333224, 0.26830956, 0.31379947, -0.08021694, -0.11224368, 0.3902912, 0
75, 3495265025, 0.91058457, -0.026625648, 0.26799214, 0.3136657, -0.118299775, -0.063391015, 0.29537964, 0
76, 3495281692, 0.9106511, -0.026789926, 0.26780638, 0.3136171, -0.14844304, -0.018373659, 0.33371353, 0
77, 3495298359, 0.91073275, -0.027026199, 0.26757362, 0.31355864, -0.15465753, -0.04055732, 0.26674557, 0
79, 3495331693, 0.9109093, -0.02757826, 0.26704314, 0.3134499, -0.02771383, -0.18742909, 0.32549858, 0
80, 3495348360, 0.9110316, -0.02784833, 0.26674357, 0.31332538, -0.069475286, -0.1557883, 0.3770275, 0
81, 3495365027, 0.9111294, -0.028188413, 0.26646855, 0.3132446, -0.08933838, -0.13032454, 0.43118858, 0
83, 3495398361, 0.91133565, -0.028945876, 0.2659832, 0.31298813, -0.1566154, -0.14753744, 0.31677055, 0
84, 3495415028, 0.91143596, -0.029421045, 0.26575634, 0.31284446, -0.15828973, -0.19010347, 0.26126385, 0
85, 3495431695, 0.91154253, -0.0299193, 0.26546314, 0.3127356, -0.17824632, -0.21239847, 0.25542164, 0
87, 3495465029, 0.9118051, -0.03075162, 0.2647789, 0.31246942, -0.21173267, -0.1189299, 0.30413818, 0
89, 3495498363, 0.91204697, -0.031578936, 0.2641165, 0.31224126, -0.102417395, -0.21527751, 0.47400284, 0
91, 3495531697, 0.9122278, -0.032314997, 0.2636321, 0.31204703, -0.16660434, -0.09431607, 0.22667885, 0
92, 3495548364, 0.9123112, -0.032740638, 0.26335335, 0.31199417, -0.14997774, -0.025532616, 0.18010616, 0
93, 3495565031, 0.9124132, -0.033187613, 0.26303336, 0.31191862, -0.09365847, -0.10670662, 0.2725382, 0
95, 3495598365, 0.9126454, -0.034045026, 0.26236126, 0.31171304, -0.006766907, -0.16361207, 0.43123055, 0
96, 3495615032, 0.91274214, -0.03448805, 0.2620999, 0.31160095, -0.0651424, -0.11707575, 0.4627657, 0
98, 3495648366, 0.91293216, -0.035444617, 0.26159656, 0.31135988, -0.16694902, -0.030418074, 0.25584126, 0
99, 3495665033, 0.9130459, -0.035974424, 0.26125908, 0.3112486, -0.14700526, -0.058130942, 0.2525158, 0
100, 3495681700, 0.91317934, -0.036487725, 0.26087797, 0.3111174, -0.07643872, -0.119241536, 0.37253475, 0
102, 3495715034, 0.9134254, -0.037494242, 0.26024207, 0.3108076, -0.18340091, -0.12670559, 0.4192133, 0
104, 3495748368, 0.9136168, -0.038413603, 0.25974703, 0.31054693, -0.29628834, -0.16568372, 0.3443594, 0
106, 3495781702, 0.9137517, -0.039212752, 0.25940964, 0.31033188, -0.3675498, -0.10093675, 0.29412842, 0
107, 3495798369, 0.9137886, -0.039474357, 0.25931883, 0.3102659, -0.29940534, -0.08246351, 0.3473587, 0
108, 3495815036, 0.9138076, -0.039580237, 0.2592465, 0.3102572, -0.26617113, -0.09936526, 0.23177242, 0
110, 3495848370, 0.9138466, -0.039556246, 0.25898033, 0.31036735, -0.18384586, -0.035967927, 0.28151894, 0
111, 3495865037, 0.91386235, -0.039532695, 0.25887376, 0.3104128, -0.046979055, -0.09515363, 0.4965458, 0
112, 3495881704, 0.9138507, -0.039526876, 0.25889814, 0.3104272, 0.04718962, -0.16031612, 0.63457966, 0
114, 3495915038, 0.9137653, -0.039580885, 0.25921708, 0.31040606, -0.07305152, -0.13709007, 0.26953125, 0
115, 3495931705, 0.913764, -0.03967531, 0.2592866, 0.3103399, -0.097694136, -0.0885802, 0.12881756, 0
116, 3495948372, 0.9137999, -0.039798643, 0.25924352, 0.31025457, -0.095526494, -0.07043694, 0.13534737, 0
119, 3495998373, 0.91395247, -0.040055193, 0.25886816, 0.310085, -0.24763852, -0.04898524, 0.29255962, 0
121, 3496031707, 0.9140274, -0.040017076, 0.25871462, 0.3099975, -0.15955022, -0.11707184, 0.46974564, 0
122, 3496048374, 0.9140246, -0.03997745, 0.2587461, 0.30998474, -0.099598624, -0.19981113, 0.5840273, 0
123, 3496065041, 0.9139905, -0.03994762, 0.25889918, 0.3099609, -0.10998816, -0.3131286, 0.47193336, 0
125, 3496098375, 0.9139235, -0.039923638, 0.25924662, 0.30987126, -0.2433884, -0.20525876, 0.15663147, 0
126, 3496115042, 0.9139254, -0.03990726, 0.25928923, 0.30983186, -0.21246673, -0.12665772, 0.21480751, 0
127, 3496131709, 0.9139357, -0.039879333, 0.25923973, 0.3098468, -0.16411015, -0.10444123, 0.3206854, 0
129, 3496165043, 0.91392595, -0.039773207, 0.25926664, 0.30986667, -0.121437214, -0.15316999, 0.4427433, 0
130, 3496181710, 0.91390896, -0.039707083, 0.25938538, 0.3098259, -0.09894364, -0.115714364, 0.3780365, 0
131, 3496198377, 0.9138911, -0.039670862, 0.25952968, 0.30976257, -0.10664392, -0.058126472, 0.27050304, 0
134, 3496248378, 0.91392535, -0.03968161, 0.25965923, 0.30955148, -0.07121395, -0.012213362, 0.2797966, 0
135, 3496265045, 0.9139674, -0.039750688, 0.25953838, 0.3095199, -0.06569411, -0.0087923575, 0.283288, 0
137, 3496298379, 0.9140614, -0.040023033, 0.2592946, 0.3094114, -0.007102939, -0.06851063, 0.3734455, 0
138, 3496315046, 0.9141209, -0.040214624, 0.25918877, 0.30929935, -0.061556153, -0.08775906, 0.38484573, 0
139, 3496331713, 0.91418475, -0.040425807, 0.25912508, 0.3091365, -0.03657661, -0.1034019, 0.43914604, 0
141, 3496365047, 0.9142671, -0.04085459, 0.2590453, 0.3089034, -0.19613205, -0.114763595, 0.3510704, 0
142, 3496381714, 0.9143182, -0.041053765, 0.25899282, 0.30876967, -0.19610411, -0.14838721, 0.3928213, 0
143, 3496398381, 0.91438085, -0.04120159, 0.25888655, 0.30865383, -0.13730931, -0.19252697, 0.32429218, 0
145, 3496431715, 0.91452694, -0.041473188, 0.2585722, 0.30844778, -0.1715526, -0.07875867, 0.24391937, 0
146, 3496448382, 0.91462314, -0.041652814, 0.25832468, 0.30834562, -0.16262259, -0.08741905, 0.2849474, 0
148, 3496481716, 0.91485184, -0.04218113, 0.25769296, 0.3081239, -0.0130443, -0.30810255, 0.33518696, 0
149, 3496498383, 0.9149597, -0.042507518, 0.25737625, 0.30802345, -0.03905771, -0.2597666, 0.314785, 0
150, 3496515050, 0.91509414, -0.04288322, 0.25698924, 0.30789536, -0.060836866, -0.13381621, 0.27027607, 0
152, 3496548384, 0.9153828, -0.04372413, 0.256137, 0.3076287, -0.089898795, -0.16129303, 0.37422466, 0
153, 3496565051, 0.9155338, -0.044204723, 0.25564224, 0.3075224, -0.15527526, -0.16564615, 0.25927734, 0
154, 3496581718, 0.9157079, -0.044766195, 0.2550599, 0.3074063, -0.18222259, -0.20017955, 0.30262566, 0
156, 3496615052, 0.91604894, -0.046111047, 0.25396553, 0.3070972, -0.13076648, -0.25775063, 0.5025101, 0
157, 3496631719, 0.9161763, -0.046916895, 0.25359842, 0.30689865, -0.19698532, -0.29872495, 0.50303555, 0
158, 3496648386, 0.9162908, -0.047720518, 0.2533092, 0.30667198, -0.23610081, -0.27687287, 0.44990444, 0
161, 3496698387, 0.91670907, -0.050247665, 0.25201792, 0.30608115, -0.29621506, -0.26796973, 0.24585247, 0
162, 3496715054, 0.91685855, -0.05113158, 0.2514552, 0.3059499, -0.34906697, -0.21539234, 0.3837242, 0
164, 3496748388, 0.9171207, -0.053007666, 0.2504382, 0.305679, -0.30271384, -0.34020746, 0.35887718, 0
165, 3496765055, 0.917215, -0.053857774, 0.25011903, 0.30550867, -0.30518377, -0.3398039, 0.46078587, 0
166, 3496781722, 0.91730744, -0.054582883, 0.24985841, 0.30531573, -0.36670014, -0.19355367, 0.42631245, 0
168, 3496815056, 0.9174318, -0.05579497, 0.2495993, 0.30493498, -0.35908687, -0.24092084, 0.3514309, 0
169, 3496831723, 0.91745144, -0.05628493, 0.24956617, 0.30481237, -0.28498778, -0.22343718, 0.2744465, 0
170, 3496848390, 0.91746783, -0.05671937, 0.24949805, 0.30473882, -0.30069253, -0.20002484, 0.2358923, 0
172, 3496881724, 0.917517, -0.057339128, 0.24923898, 0.30468667, -0.3534186, -0.048131503, 0.3955698, 0
173, 3496898391, 0.9175181, -0.057510883, 0.24918123, 0.3046978, -0.29559666, -0.025285183, 0.447649, 0
176, 3496948392, 0.9174529, -0.057557896, 0.24924785, 0.30483118, -0.13074562, -0.04651408, 0.2678299, 0
177, 3496965059, 0.91745317, -0.05744506, 0.24920644, 0.3048852, -0.094579294, 0.050466795, 0.32136154, 0
179, 3496998393, 0.9174172, -0.057154294, 0.24922559, 0.30503258, 0.05689601, 0.08022134, 0.40427876, 0
180, 3497015060, 0.91737807, -0.05697521, 0.24934286, 0.30508792, 0.04547058, 0.06599815, 0.41423988, 0
181, 3497031727, 0.9173253, -0.05678066, 0.24953373, 0.30512655, 0.08199478, 0.02136999, 0.43689346, 0
183, 3497065061, 0.9172082, -0.056431208, 0.2499488, 0.3052039, 0.0021918737, -0.056958254, 0.26512337, 0
184, 3497081728, 0.9171664, -0.056251675, 0.25009298, 0.30524454, -0.0013107411, -0.04683239, 0.26508617, 0
185, 3497098395, 0.9171578, -0.056046844, 0.25014618, 0.3052643, -0.019906387, 0.03209618, 0.32363224, 0
187, 3497131729, 0.91716874, -0.05562216, 0.25016162, 0.30529627, -0.04571409, 0.09084208, 0.3745327, 0
188, 3497148396, 0.9171691, -0.05540912, 0.25017458, 0.30532342, -0.016668893, 0.023704275, 0.34492207, 0
191, 3497198397, 0.91708064, -0.054685336, 0.25048566, 0.30546468, -0.052104272, -0.039979957, 0.3983307, 0
192, 3497215064, 0.91702867, -0.054431267, 0.2506562, 0.30552614, -0.076549426, -0.034425132, 0.35655594, 0
193, 3497231731, 0.91696626, -0.054167315, 0.25083357, 0.3056149, -0.050973255, -0.12115035, 0.30977058, 0
195, 3497265065, 0.91694385, -0.0534834, 0.2505582, 0.3060284, -0.39001113, 0.060326844, -0.6438761, 0
196, 3497281732, 0.91688776, -0.053204376, 0.25076646, 0.30607414, -0.06995276, 0.1249873, 1.9560928, 0
197, 3497298399, 0.9168918, -0.05311864, 0.25090685, 0.30596215, -0.09453405, 0.089392304, 0.4149437, 0
199, 3497331733, 0.91666806, -0.05269752, 0.25188956, 0.30589753, -0.18843439, -0.5287007, 0.14116478, 0
200, 3497348400, 0.9166108, -0.052582093, 0.25230712, 0.30574512, -0.41478157, -0.08800691, 0.3957138, 0
201, 3497365067, 0.9165703, -0.052577328, 0.25271034, 0.305534, -0.754645, -0.1518482, 0.36843204, 0
203, 3497398401, 0.9163474, -0.05253553, 0.25376913, 0.30533236, -0.50921977, -0.49791712, 0.24993134, 0
206, 3497448402, 0.91612566, -0.05179807, 0.2549138, 0.3051704, -0.5523419, -0.4148686, 0.5131216, 0
207, 3497465069, 0.9160318, -0.05131908, 0.25536802, 0.30515295, -0.48297283, -0.34710893, 0.54699135, 0
208, 3497481736, 0.9159274, -0.050811328, 0.25574225, 0.30523762, -0.35228392, -0.38321373, 0.26000595, 0
210, 3497515070, 0.91584307, -0.04990147, 0.25579387, 0.3055979, -0.05525925, -0.12475842, 0.06130314, 0
211, 3497531737, 0.9158397, -0.04953755, 0.25556085, 0.3058619, -0.10094952, 0.08302952, 0.47808933, 0
212, 3497548404, 0.91581655, -0.049301542, 0.25544393, 0.30606696, -0.112232886, 0.044473406, 0.73597527, 0
214, 3497581738, 0.9157064, -0.048940443, 0.25578076, 0.30617318, 0.08706951, -0.1170446, 0.34096622, 0
215, 3497598405, 0.91567683, -0.0486752, 0.25594002, 0.30617082, 0.1042266, 0.0061162924, 0.09775734, 0
216, 3497615072, 0.91569847, -0.04843076, 0.25586948, 0.30620375, 0.10222814, 0.20210299, 0.03676033, 0
218, 3497648406, 0.9159431, -0.048175182, 0.25498602, 0.30624974, 0.29887524, 0.0149223115, 0.23049164, 0
219, 3497665073, 0.9160364, -0.04814026, 0.25457242, 0.30632013, 0.406457, -0.019435653, 0.540885, 0
220, 3497681740, 0.91609603, -0.048148327, 0.25430155, 0.30636522, 0.32104728, 0.06294024, 0.6156578, 0
222, 3497715074, 0.9161479, -0.04820186, 0.25428584, 0.30621484, 0.13669313, 0.042635825, 0.30514145, 0
223, 3497731741, 0.9161454, -0.04823181, 0.25433624, 0.30617556, 0.117305204, 0.025549458, 0.22406101, 0
224, 3497748408, 0.9161509, -0.04827468, 0.25429788, 0.3061844, 0.07505055, 0.04452121, 0.27103615, 0
226, 3497781742, 0.91622746, -0.048442055, 0.25406355, 0.30612308, 0.11939823, -0.16110405, 0.37755394, 0
227, 3497798409, 0.9162828, -0.0484832, 0.25397938, 0.30602098, 0.11624865, -0.16798785, 0.44613075, 0
229, 3497831743, 0.91641885, -0.04873252, 0.25380692, 0.30571705, -0.0770921, 0.09054493, 0.24742985, 0
230, 3497848410, 0.9165011, -0.04902088, 0.25367147, 0.3055363, 0.0075525986, -0.029054869, 0.33047676, 0
233, 3497898411, 0.91671985, -0.050150886, 0.25335303, 0.30496112, -0.081705466, -0.1824767, 0.3991537, 0
234, 3497915078, 0.9167817, -0.050538965, 0.25330666, 0.30474937, -0.15907516, -0.12995107, 0.3824377, 0
235, 3497931745, 0.91684896, -0.050925083, 0.25324395, 0.30453455, -0.20464858, -0.11742314, 0.2125454, 0
237, 3497965079, 0.91699326, -0.051618386, 0.25292757, 0.30424616, -0.15996744, -0.15940115, 0.2703867, 0
238, 3497981746, 0.9170811, -0.051937744, 0.2527206, 0.304099, -0.15195225, -0.19462502, 0.37391567, 0
239, 3497998413, 0.9171494, -0.052266903, 0.25254875, 0.3039797, -0.16534321, -0.20589659, 0.41942596, 0
241, 3498031747, 0.9172166, -0.05295076, 0.25253803, 0.30366674, -0.2834216, -0.06578606, 0.34479713, 0
242, 3498048414, 0.91724914, -0.05327115, 0.25257632, 0.30348074, -0.18671037, -0.16585219, 0.371562, 0
243, 3498065081, 0.9173001, -0.053537443, 0.25251076, 0.30333412, -0.09993399, -0.26220483, 0.22435284, 0
245, 3498098415, 0.9174166, -0.054052092, 0.25222927, 0.30312473, -0.20163432, -0.12374848, 0.3600254, 0
247, 3498131749, 0.917535, -0.05464442, 0.2520259, 0.30282927, -0.1771689, -0.16841811, 0.46179867, 0
249, 3498165083, 0.9175597, -0.055139594, 0.25215942, 0.30255336, -0.16539845, -0.08950385, 0.20410347, 0
250, 3498181750, 0.9176127, -0.05535031, 0.2520647, 0.30243334, -0.20349173, -0.010264637, 0.25329876, 0
251, 3498198417, 0.9176805, -0.055549804, 0.25188595, 0.30233964, -0.1856674, -0.032905243, 0.33399296, 0
253, 3498231751, 0.9177465, -0.05586982, 0.2517971, 0.30215418, -0.1793532, -0.019769274, 0.45893097, 0
254, 3498248418, 0.91775465, -0.055990532, 0.2518849, 0.30203387, -0.19215752, -0.06206991, 0.35936165, 0
256, 3498281752, 0.9177649, -0.056060225, 0.25198805, 0.3019038, -0.17649715, 0.008486927, 0.19996834, 0
257, 3498298419, 0.9177962, -0.056019634, 0.25188538, 0.3019016, -0.12228307, 0.004798739, 0.278409, 0
258, 3498315086, 0.9178377, -0.0559624, 0.25175625, 0.30189452, -0.041643996, -0.1484523, 0.38739014, 0
260, 3498348420, 0.91781306, -0.055643022, 0.25191236, 0.3018977, -0.1925535, -0.0958007, 0.49558067, 0
262, 3498381754, 0.91768765, -0.05513668, 0.25246271, 0.30191213, -0.31016982, 0.055503074, 0.23139954, 0
264, 3498415088, 0.91759515, -0.05435042, 0.252854, 0.30200824, -0.12535179, -0.06035635, 0.21092033, 0
265, 3498431755, 0.91756743, -0.053925976, 0.2529194, 0.3021139, -0.019776067, -0.03966771, 0.18938732, 0
266, 3498448422, 0.91753954, -0.05346968, 0.25294414, 0.3022591, -0.03228792, -0.08475184, 0.23140621, 0
268, 3498481756, 0.91742295, -0.052600972, 0.25317127, 0.30257505, -0.07239638, -0.12269051, 0.51702213, 0
269, 3498498423, 0.91733307, -0.052190434, 0.25344288, 0.30269152, -0.067994826, -0.17283985, 0.48186684, 0
270, 3498515090, 0.91724026, -0.05177027, 0.25375962, 0.30277926, -0.112030596, -0.21906982, 0.23372936, 0
272, 3498548424, 0.9171276, -0.05088995, 0.25399655, 0.30307114, -0.22165662, -0.029694367, 0.21450043, 0
273, 3498565091, 0.91710997, -0.050468706, 0.2538835, 0.30328977, -0.09458119, -0.041799214, 0.37591743, 0
274, 3498581758, 0.9171071, -0.050078522, 0.25371006, 0.30350778, 0.030963924, -0.12946899, 0.37880898, 0
277, 3498631759, 0.9170694, -0.049281, 0.25363165, 0.30381754, -0.0065061464, -0.28728223, 0.5063391, 0
278, 3498648426, 0.91717124, -0.049276955, 0.25317186, 0.30389428, 0.07907334, -0.1506104, -0.41862297, 0
280, 3498681760, 0.9171921, -0.049606025, 0.2532075, 0.3037481, -0.40143305, 0.093641035, 1.2745476, 0
281, 3498698427, 0.9171885, -0.04977205, 0.2535211, 0.3034703, -0.23798047, -0.432815, 0.0692358, 0
283, 3498731761, 0.9170904, -0.049742468, 0.25448817, 0.3029615, -0.6142257, -0.11677284, 0.26699638, 0
284, 3498748428, 0.91709024, -0.04983658, 0.25487328, 0.3026226, -0.6646711, -0.2274499, 0.3212309, 0
285, 3498765095, 0.9170672, -0.049943484, 0.25514555, 0.3024455, -0.53288466, -0.60297596, 0.21637058, 0
287, 3498798429, 0.917002, -0.050142642, 0.25559208, 0.30223298, -0.3730065, -0.7045633, 0.44837952, 0
288, 3498815096, 0.9170467, -0.050241422, 0.25557324, 0.30209696, -0.4431827, -0.5219622, 0.2960806, 0
289, 3498831763, 0.9170649, -0.050323173, 0.2555759, 0.3020256, -0.52964, -0.38193387, 0.35135078, 0
291, 3498865097, 0.91702765, -0.05037626, 0.25552827, 0.30217, -0.4002096, -0.089915544, 0.47827148, 0
292, 3498881764, 0.91702086, -0.05036072, 0.25548843, 0.3022275, -0.26148298, -0.2115496, 0.2823553, 0
293, 3498898431, 0.91702247, -0.050335523, 0.25542337, 0.3022815, -0.046305757, -0.24270138, 0.24516296, 0
295, 3498931765, 0.91715324, -0.05029063, 0.25480595, 0.30241352, 0.048747186, 0.084274836, 0.2536335, 0
296, 3498948432, 0.9172845, -0.050311275, 0.2542874, 0.30244803, 0.095965475, 0.080126405, 0.34586143, 0
297, 3498965099, 0.91740227, -0.050377604, 0.25384817, 0.3024488, 0.16231403, 0.019740328, 0.4574728, 0
299, 3498998433, 0.9175684, -0.05062989, 0.25332284, 0.30234328, 0.15831277, 0.10203886, 0.3524332, 0
300, 3499015100, 0.9176426, -0.05080202, 0.25306693, 0.3023034, 0.17556317, 0.12531994, 0.26821136, 0
301, 3499031767, 0.9177695, -0.050937213, 0.25271234, 0.3021919, 0.16049868, 0.10449697, 0.24633121, 0
304, 3499081768, 0.9181712, -0.051145572, 0.25133464, 0.30208522, 0.14633863, 0.01722483, 0.45009613, 0
305, 3499098435, 0.9182606, -0.051232994, 0.25103885, 0.3020453, 0.17675884, -0.09532146, 0.42316628, 0
307, 3499131769, 0.918268, -0.051575705, 0.25092492, 0.30205876, 0.083157785, 0.015206853, 0.36725616, 0
308, 3499148436, 0.918241, -0.051876225, 0.25095046, 0.30206844, 0.012225604, 0.016585639, 0.2456255, 0
309, 3499165103, 0.9182213, -0.0521823, 0.2509946, 0.30203885, -0.028009543, -0.11878364, 0.18370628, 0
311, 3499198437, 0.9182069, -0.052724466, 0.2508218, 0.30213198, -0.08132117, -0.12253019, 0.32877636, 0
312, 3499215104, 0.9182122, -0.052924052, 0.2506682, 0.3022087, -0.037481032, -0.10651134, 0.38070965, 0
314, 3499248438, 0.9181686, -0.053320736, 0.25060531, 0.30232355, -0.06362454, -0.1099586, 0.49925137, 0
315, 3499265105, 0.91814756, -0.053568605, 0.250659, 0.30229938, -0.0033603718, -0.1906829, 0.41691494, 0
316, 3499281772, 0.91813165, -0.053858314, 0.25071052, 0.3022532, 0.025127966, -0.27561358, 0.3537922, 0
319, 3499331773, 0.9182443, -0.054966558, 0.25035724, 0.30200422, -0.08840883, -0.022468556, 0.26033878, 0
320, 3499348440, 0.9183333, -0.055359155, 0.25009653, 0.30187806, -0.029908031, -0.033308182, 0.302701, 0
322, 3499381774, 0.9184836, -0.056248806, 0.24969274, 0.30159003, 0.030694336, -0.12115933, 0.33971214, 0
323, 3499398441, 0.9185407, -0.056742884, 0.24953014, 0.30145815, -0.06256824, -0.0911217, 0.43125534, 0
324, 3499415108, 0.91860133, -0.057281174, 0.24933808, 0.3013305, 0.026349105, -0.07487824, 0.26237488, 0
326, 3499448442, 0.91869855, -0.058233045, 0.24904221, 0.3010963, -0.28683636, -0.101593375, 0.42717838, 0
327, 3499465109, 0.91871065, -0.05868422, 0.24909312, 0.30092993, -0.3369322, -0.21678932, 0.38557243, 0
328, 3499481776, 0.9187337, -0.05909686, 0.24917388, 0.30071163, -0.45379603, -0.30309093, 0.28310585, 0
330, 3499515110, 0.9188888, -0.05994291, 0.24888471, 0.30030924, -0.5040799, -0.31710255, 0.25818253, 0
331, 3499531777, 0.91895896, -0.060392674, 0.24872163, 0.30013964, -0.28115672, -0.28749347, 0.31764317, 0
334, 3499581778, 0.9192894, -0.061398193, 0.24775936, 0.2997192, -0.14637902, -0.071738414, 0.39177418, 0
335, 3499598445, 0.91943413, -0.061642982, 0.24734356, 0.29956853, 0.08430338, -0.28867108, 0.32827568, 0
336, 3499615112, 0.9195459, -0.061886173, 0.24698874, 0.29946786, 0.115092635, -0.09671973, 0.33499908, 0
338, 3499648446, 0.9197068, -0.062399685, 0.24643531, 0.2993229, -0.19531369, 0.25179768, 0.3835001, 0
339, 3499665113, 0.91978925, -0.06261261, 0.24616823, 0.29924497, -0.12015368, 0.08821945, 0.3601427, 0
341, 3499698447, 0.9199363, -0.06260867, 0.24569218, 0.29918554, 0.058892492, -0.096393555, 0.36080647, 0
342, 3499715114, 0.9200349, -0.06255785, 0.24537835, 0.2991503, 0.021061769, -0.035983462, 0.30878925, 0
343, 3499731781, 0.9201398, -0.06257016, 0.24500577, 0.29913038, 0.05203972, -0.068472885, 0.33131123, 0
345, 3499765115, 0.92025346, -0.06261283, 0.2444122, 0.29925755, -0.09630254, -0.033013396, 0.409585, 0
346, 3499781782, 0.92030245, -0.06260793, 0.24421452, 0.29926905, -0.16501926, -0.027323397, 0.3979187, 0
349, 3499831783, 0.92043376, -0.06247923, 0.24377951, 0.29924697, -0.09518636, -0.1603951, 0.42932987, 0
350, 3499848450, 0.9204791, -0.06252645, 0.24365619, 0.29919803, -0.0334652, -0.14784427, 0.42495728, 0
351, 3499865117, 0.9205049, -0.062650464, 0.24363406, 0.2991106, -0.0029202474, -0.23989807, 0.38170815, 0
353, 3499898451, 0.920527, -0.06300559, 0.243663, 0.2989444, -0.014350806, -0.14700882, 0.29696083, 0
354, 3499915118, 0.9205561, -0.06324528, 0.24360333, 0.29885286, -0.08573397, -0.09175117, 0.29052544, 0
355, 3499931785, 0.92062986, -0.06351264, 0.24342531, 0.29871416, -0.07349147, -0.0045496128, 0.3922882, 0
357, 3499965119, 0.9207674, -0.06419835, 0.24308796, 0.29841793, -0.14169157, -0.17206074, 0.4118986, 0
358, 3499981786, 0.92077273, -0.06457143, 0.24312474, 0.29829124, -0.15555215, -0.27917245, 0.47267437, 0
359, 3499998453, 0.92073756, -0.06490017, 0.2433272, 0.29816318, -0.15581763, -0.2416068, 0.48805714, 0
361, 3500031787, 0.9205524, -0.06567907, 0.24429707, 0.297771, -0.20236833, -0.07093431, 0.36826038, 0
362, 3500048454, 0.9204316, -0.06613413, 0.24491264, 0.29753783, -0.1734863, -0.1425425, 0.2901678, 0
364, 3500081788, 0.92023176, -0.06709791, 0.2459745, 0.29706407, -0.3041648, -0.28037342, 0.1808567, 0
365, 3500098455, 0.9201606, -0.06746389, 0.24638261, 0.29686365, -0.3614166, -0.3201753, 0.3780489, 0
366, 3500115122, 0.9200843, -0.06763185, 0.24677876, 0.29673237, -0.33152947, -0.26140106, 0.5481472, 0
368, 3500148456, 0.91990256, -0.06777696, 0.24769007, 0.2965036, -0.25688908, -0.0782664, 0.41317177, 0
369, 3500165123, 0.919821, -0.06785655, 0.24818803, 0.29632163, -0.15913768, -0.08274088, 0.22389317, 0
370, 3500181790, 0.9197162, -0.06793765, 0.24872065, 0.29618216, -0.18537903, -0.11230435, 0.03615284, 0
372, 3500215124, 0.91980356, -0.0682265, 0.2484669, 0.296057, 0.17318536, -0.081015065, -0.5531359, 0
373, 3500231791, 0.9198795, -0.0683312, 0.24826598, 0.29596582, -0.5743922, -0.0033236935, 0.43743706, 0
376, 3500281792, 0.9198025, -0.06873764, 0.24872091, 0.29572886, -0.20508032, -0.41947308, 0.4712324, 0
377, 3500298459, 0.919653, -0.0687755, 0.2495152, 0.2955159, -0.6667009, 0.004594169, 0.27602482, 0
378, 3500315126, 0.91942155, -0.068767525, 0.25076807, 0.29517755, -0.9242619, -0.064921655, 0.10110092, 0
380, 3500348460, 0.91839015, -0.06826973, 0.25472435, 0.29511592, -1.0206746, -0.2312578, 0.22797489, 0
381, 3500365127, 0.9177955, -0.06786284, 0.25694358, 0.29513597, -0.7072034, -0.39171007, 0.63083076, 0
382, 3500381794, 0.9172614, -0.06729698, 0.2589606, 0.2951631, -0.47572246, -0.69047904, 0.59321976, 0
384, 3500415128, 0.91608876, -0.06606583, 0.26314658, 0.29538107, -0.4280156, -0.61654973, -0.004322052, 0
385, 3500431795, 0.9153779, -0.065486565, 0.26565838, 0.29546496, -0.7370451, 0.036761846, 0.097807884, 0
386, 3500448462, 0.9145719, -0.0646634, 0.268451, 0.2956183, -0.7308206, 0.13764688, 0.32848644, 0
388, 3500481796, 0.912655, -0.061492227, 0.27445248, 0.296706, -0.21743912, -0.29513904, 1.1794071, 0
391, 3500531797, 0.907723, -0.040280417, 0.28585187, 0.30460513, 1.5438203, 4.5006723, 2.2130814, 0
392, 3500548464, 0.90539587, -0.026393613, 0.29356423, 0.3057139, 6.2087173, 3.5731778, 0.36869907, 0
393, 3500565131, 0.9034966, -0.018386994, 0.30351362, 0.30218264, 10.502538, -0.74873877, 3.5581741, 0
395, 3500598465, 0.90377516, -0.030397447, 0.32014397, 0.28258377, 5.24267, 2.3904026, 1.4464226, 0
396, 3500615132, 0.9042023, -0.041733094, 0.32903978, 0.26923734, 1.6421995, -1.246789, -0.113619804, 0
397, 3500631799, 0.9039126, -0.053855088, 0.3380349, 0.2566185, -2.2280142, -2.3089478, -2.5766993, 0
399, 3500665133, 0.90143466, -0.07238866, 0.35183728, 0.2417955, -6.906637, -3.3284833, -3.403748, 0
400, 3500681800, 0.89988256, -0.07549428, 0.3553418, 0.2415021, -7.297275, -3.2924573, -5.2906575, 0
401, 3500698467, 0.8977914, -0.077141084, 0.357685, 0.24527642, -6.3866563, -2.8055904, -5.3489037, 0
403, 3500731801, 0.8887569, -0.08207077, 0.36801314, 0.26080853, -4.2564354, -1.3202673, -9.660931, 0
405, 3500765135, 0.8805817, -0.08289217, 0.3784241, 0.2730919, 8.588273, 7.3626056, 23.218464, 0
407, 3500798469, 0.8876329, -0.084852554, 0.35152373, 0.285339, -0.5634759, -1.7370086, -0.17737103, 0
408, 3500815136, 0.89093983, -0.08424693, 0.34007755, 0.28905922, -1.0112766, 0.6168513, -0.030973434, 0
409, 3500831803, 0.89431864, -0.08418309, 0.33035618, 0.28991598, -2.2076797, -1.7897873, 1.2420654, 0
411, 3500865137, 0.90035343, -0.082910076, 0.31365368, 0.29015535, -0.8978599, -0.3458863, 0.16991425, 0
412, 3500881804, 0.9021383, -0.0817047, 0.30811688, 0.29088482, -0.9073936, 0.819119, 1.3321466, 0
413, 3500898471, 0.9036136, -0.0808804, 0.3032883, 0.29160985, -0.48578665, 0.85108215, 0.97457314, 0
415, 3500931805, 0.9045592, -0.079825014, 0.29864913, 0.2937491, -0.4206383, -0.43417308, 0.3011427, 0
416, 3500948472, 0.9045551, -0.07948523, 0.29827634, 0.2942323, -0.70547575, -0.10614007, 0.67206764, 0
418, 3500981806, 0.90430427, -0.07873301, 0.30011824, 0.2933313, -0.56793463, -0.2581556, 0.30786324, 0
420, 3501015140, 0.9028871, -0.07783794, 0.30475208, 0.2931578, -0.63355565, 0.24135578, 0.3686514, 0
422, 3501048474, 0.9013726, -0.07625609, 0.30946785, 0.29329386, 0.0971884, -0.36193046, 0.39149952, 0
423, 3501065141, 0.90055954, -0.07524958, 0.3114849, 0.2939157, -0.05013814, -0.5819817, 0.5400572, 0
424, 3501081808, 0.8998589, -0.07402726, 0.313275, 0.29446924, -0.34642765, -0.23361774, 0.68847656, 0
426, 3501115142, 0.8988503, -0.071784966, 0.3154846, 0.29574218, 0.022788377, -0.43844065, 0.8566923, 0
427, 3501131809, 0.8988045, -0.07046485, 0.3151079, 0.29659936, 0.047742713, 0.29880717, 0.8499632, 0
428, 3501148476, 0.8992319, -0.0684426, 0.31420434, 0.29673618, 0.08637844, 0.049657285, 0.104263306, 0
430, 3501181810, 0.9012924, -0.069014624, 0.31144798, 0.29323795, -0.58332866, 0.36224696, 0.2033968, 0
431, 3501198477, 0.9030666, -0.07004493, 0.31015328, 0.28887433, -1.297251, 0.42081684, -0.14666843, 0
432, 3501215144, 0.90494525, -0.07092712, 0.30871746, 0.28428143, -1.7099527, -0.94690514, -0.41347027, 0
434, 3501248478, 0.9070206, -0.0721612, 0.30762067, 0.27848655, -1.7506583, -1.6200581, -0.74655056, 0
435, 3501265145, 0.9069331, -0.07251575, 0.30855545, 0.2776442, -1.4865744, -1.2196941, -1.0500317, 0
436, 3501281812, 0.90578693, -0.07328637, 0.31139204, 0.27801645, -1.2816586, -1.2833799, -2.239923, 0
438, 3501315146, 0.8999032, -0.07970482, 0.32413676, 0.28077766, 0.4557114, 1.06485, 8.876972, 0
439, 3501331813, 0.89841366, -0.07934846, 0.32745826, 0.28179252, -0.68541425, 0.15788105, 1.1531506, 0
440, 3501348480, 0.89716834, -0.07940255, 0.32944492, 0.2834245, -0.93430275, -1.0680585, 0.533267, 0
443, 3501398481, 0.8921907, -0.079437554, 0.3379949, 0.2890052, -1.55289, -0.84979403, 0.34313488, 0
444, 3501415148, 0.8904476, -0.079262145, 0.34075812, 0.29117638, -1.5250474, -0.6510703, 0.8908644, 0
446, 3501448482, 0.88733745, -0.07690307, 0.3448729, 0.296412, -1.1410522, -1.4726424, 0.2677641, 0
449, 3501498483, 0.88339114, -0.08192364, 0.34885955, 0.30213395, -1.5027195, -2.065786, -0.48135948, 0
450, 3501515150, 0.8824783, -0.0846346, 0.3501365, 0.3025766, -2.1503983, -1.8597007, -0.5889082, 0
451, 3501531817, 0.88213736, -0.08702764, 0.35136247, 0.30146885, -1.4546247, -1.3637868, 0.792696, 0
453, 3501565151, 0.8834685, -0.089351, 0.35228425, 0.29576096, -2.6091387, -2.1696684, 0.25792313, 0
454, 3501581818, 0.8843357, -0.09006282, 0.35230812, 0.29291153, -3.095265, -1.9275422, 0.44082642, 0
455, 3501598485, 0.8854677, -0.09079149, 0.35163724, 0.29005945, -3.160442, -1.749245, 1.0203199, 0
457, 3501631819, 0.88782, -0.09017184, 0.3495005, 0.2856104, -4.1197085, -1.5124428, 0.16684055, 0
458, 3501648486, 0.88865143, -0.087970026, 0.34829497, 0.28518355, -3.9188213, -1.4001237, 0.8086262, 0
459, 3501665153, 0.88947964, -0.085177116, 0.34607118, 0.2861553, -4.357368, -1.6606483, -0.18894291, 0
461, 3501698487, 0.8906791, -0.078987904, 0.3421197, 0.28893733, -5.1519713, -3.2839665, 1.4867134, 0
463, 3501731821, 0.8905654, -0.07304411, 0.34335208, 0.2893892, -3.9076579, -1.6883612, 0.22271729, 0
465, 3501765155, 0.8924401, -0.06505547, 0.3442819, 0.28437203, -2.3257248, -1.9729714, -1.23738, 0
466, 3501781822, 0.8943767, -0.06322972, 0.34093815, 0.28272328, -2.3414931, -1.7414284, 0.5263195, 0
467, 3501798489, 0.89618134, -0.0601628, 0.3359971, 0.28359216, -3.4101872, -0.770594, -0.9719248, 0
469, 3501831823, 0.8996123, -0.05191613, 0.32616594, 0.28582728, -2.9030557, -0.5195889, 0.2528305, 0
470, 3501848490, 0.9028203, -0.046566486, 0.3170253, 0.28691632, -2.4694095, -0.83740884, -1.6333284, 0
472, 3501881824, 0.91310346, -0.033868566, 0.28636843, 0.28838694, -2.4864407, -1.7758073, 0.8623705, 0
473, 3501898491, 0.91840756, -0.02952627, 0.27041763, 0.28741798, -4.609604, -1.2225906, -1.0136833, 0
474, 3501915158, 0.9197108, -0.02641959, 0.26697117, 0.28677413, -0.9609118, 0.7758252, 5.100461, 0
476, 3501948492, 0.9217395, -0.023860078, 0.26488635, 0.28238517, 1.7905308, 1.2481432, 1.4099474, 0
478, 3501981826, 0.92302495, -0.02203276, 0.26459688, 0.27858067, 1.2919284, 0.14142184, 0.18974972, 0
480, 3502015160, 0.92465657, -0.020718496, 0.2633975, 0.27437574, 2.7234797, 0.7438779, 1.1367626, 0
481, 3502031827, 0.9251595, -0.02015023, 0.2628724, 0.27322328, 1.1940038, 1.5896327, 1.8414993, 0
482, 3502048494, 0.9254797, -0.019808356, 0.26297978, 0.27205867, 2.8182967, 2.448937, 1.3681307, 0
484, 3502081828, 0.926369, -0.019493226, 0.262494, 0.26951158, 1.9543225, -0.19730124, -0.1842823, 0
485, 3502098495, 0.92682123, -0.019513804, 0.2617731, 0.26865503, 1.4085884, 0.11033558, 0.45823765, 0
486, 3502115162, 0.927237, -0.019769501, 0.26122004, 0.26773834, 1.2290596, 0.7968473, -0.3881607, 0
488, 3502148496, 0.9283498, -0.020964015, 0.2589671, 0.2659743, 1.1898618, -0.44570386, 0.42659283, 0
489, 3502165163, 0.928831, -0.02159528, 0.2577912, 0.2653855, 0.893683, -0.66747934, -0.1670866, 0
490, 3502181830, 0.9292373, -0.022434982, 0.2566051, 0.2650432, 1.0873832, -0.22086093, 0.6913576, 0
493, 3502231831, 0.9304167, -0.026063142, 0.2530854, 0.26395562, 0.20018299, -1.7393478, -0.4157629, 0
494, 3502248498, 0.9305782, -0.027267816, 0.25222445, 0.26408845, 1.0999587, -0.23028073, 0.44109344, 0
496, 3502281832, 0.9303887, -0.02910461, 0.25106722, 0.26565787, -0.09862259, -0.34998858, -0.09269714, 0
497, 3502298499, 0.930133, -0.02989564, 0.25085443, 0.26666486, -0.35559598, -0.32926264, 0.025956154, 0
499, 3502331833, 0.9291992, -0.031119661, 0.2511271, 0.26950848, -0.08762026, -1.1475655, 0.2959299, 0
500, 3502348500, 0.9285055, -0.031301547, 0.25151685, 0.27150702, -1.0082548, -1.3900424, 0.16464806, 0
501, 3502365167, 0.9276611, -0.03105387, 0.2521575, 0.27381775, -1.4711152, -1.2100506, 0.09188366, 0
503, 3502398501, 0.9257052, -0.029540414, 0.2547086, 0.27820843, -0.86815566, -0.939914, 0.65334606, 0
504, 3502415168, 0.92444074, -0.028200654, 0.25691566, 0.28051305, 0.08887529, -0.4002364, 0.92985725, 0
505, 3502431835, 0.9233545, -0.027022572, 0.258638, 0.2826162, -0.40297377, -0.27427623, 0.623147, 0
507, 3502465169, 0.921631, -0.025840541, 0.26144713, 0.2857499, -0.21397546, -0.042299602, 0.43013, 0
508, 3502481836, 0.9207549, -0.025074044, 0.26276743, 0.2874266, -0.5545215, -0.7782879, 0.47424793, 0
509, 3502498503, 0.9195855, -0.024181506, 0.26530582, 0.2889114, -0.1827805, 0.38675678, 0.03276348, 0
511, 3502531837, 0.91757685, -0.022307014, 0.26999277, 0.29109824, -0.59317124, 0.5199249, -0.35705853, 0
512, 3502548504, 0.91680515, -0.021344557, 0.27154517, 0.2921558, -0.70890045, -0.015837708, 0.37004662, 0
513, 3502565171, 0.9159473, -0.020206586, 0.27328253, 0.29330558, -0.42229912, -0.29546896, 0.4445753, 0
515, 3502598505, 0.9145482, -0.018641748, 0.27641696, 0.29483357, -0.30346474, -0.5821939, 0.6543188, 0
516, 3502615172, 0.9139284, -0.018331077, 0.27826577, 0.29503596, -0.45603472, -0.31256032, 0.31657124, 0
517, 3502631839, 0.9133708, -0.018300466, 0.2802285, 0.29490688, -1.3105698, -0.6167917, 0.1129961, 0
520, 3502681840, 0.91278505, -0.018374875, 0.28311127, 0.29396147, -1.651575, -0.5320661, -0.23001194, 0
521, 3502698507, 0.91300195, -0.018565223, 0.28291267, 0.29346603, -1.0680562, -0.19228812, 0.9629717, 0
523, 3502731841, 0.9138128, -0.019638535, 0.28205132, 0.29169646, -0.8260248, -0.3688704, 0.66062355, 0
524, 3502748508, 0.9146542, -0.020984463, 0.280846, 0.29012445, -1.8042443, -1.4916878, 0.72460556, 0
526, 3502781842, 0.9169151, -0.025394408, 0.27854, 0.28480953, -1.9800369, -1.5525361, 1.4218178, 0
527, 3502798509, 0.91860944, -0.027886188, 0.2752668, 0.2822883, -1.6233288, -1.7994692, 1.267416, 0
528, 3502815176, 0.92011964, -0.030249536, 0.2721297, 0.28015977, -1.7750549, -2.5649395, 0.33796215, 0
530, 3502848510, 0.9224406, -0.034753002, 0.27024606, 0.27375495, -4.1958933, -2.796543, 0.27778053, 0
531, 3502865177, 0.923433, -0.036791112, 0.27133608, 0.26902366, -5.4135523, -2.4898865, -0.14230442, 0
532, 3502881844, 0.92402035, -0.038926773, 0.2716023, 0.26642513, -5.8995914, -3.1100383, 0.043289185, 0
535, 3502931845, 0.92278516, -0.045819417, 0.27475992, 0.26637203, -6.6497903, -2.9472344, -1.088934, 0
536, 3502948512, 0.9212899, -0.04785681, 0.28068337, 0.26501036, -5.820908, -1.0722185, 2.1886778, 0
538, 3502981846, 0.91881543, -0.05021644, 0.28952596, 0.26364815, -4.2560835, -1.980323, -1.1875801, 0
539, 3502998513, 0.91764045, -0.050502162, 0.29168525, 0.26530066, -3.3511133, -3.9239323, -0.28194904, 0
540, 3503015180, 0.9156871, -0.050034106, 0.29537517, 0.26804167, -4.1587434, -3.0576286, 1.8908234, 0
542, 3503048514, 0.90847677, -0.049270693, 0.31511426, 0.2702303, -3.9357712, 2.0452352, 0.29281712, 0
543, 3503065181, 0.9049048, -0.047479793, 0.3263192, 0.26923576, -0.67261666, 2.7707138, 2.074645, 0
544, 3503081848, 0.90229005, -0.043561764, 0.33298606, 0.27050814, 0.700269, -0.83427465, -2.5488615, 0
546, 3503115182, 0.8957015, -0.039667323, 0.340442, 0.2834143, 3.999771, 0.21871477, 1.4811363, 0
547, 3503131849, 0.8930524, -0.04143756, 0.33797228, 0.2942689, 4.6993995, 2.2722182, -1.3235598, 0
550, 3503181850, 0.89324903, -0.04313954, 0.3213687, 0.3115229, 3.6950822, 4.209342, 4.32065, 0
551, 3503198517, 0.89768624, -0.03978389, 0.3105972, 0.3101377, 1.1183016, 0.6943886, -1.2592402, 0
552, 3503215184, 0.89922434, -0.035527557, 0.3081837, 0.30860186, -0.84521216, 1.2643771, -0.5303383, 0
554, 3503248518, 0.8987766, -0.02714955, 0.31309816, 0.30579814, -3.1261349, 6.7557125, 0.3688116, 0
555, 3503265185, 0.89774096, -0.024661127, 0.3182084, 0.30376905, -0.89237684, 2.968711, -0.2968855, 0
557, 3503298519, 0.90007436, -0.019641597, 0.31552866, 0.30000162, 1.1925466, -4.4582114, -0.8413782, 0
558, 3503315186, 0.9042333, -0.017377697, 0.30646986, 0.29701126, 1.063399, -1.7210974, 2.177206, 0
559, 3503331853, 0.90958464, -0.016227018, 0.29448026, 0.29283625, -0.6907526, 0.036995698, 3.946416, 0
561, 3503365187, 0.9154216, -0.015961386, 0.28324565, 0.2856565, -0.7174895, 2.4686527, 2.2771378, 0
562, 3503381854, 0.9156611, -0.015919112, 0.28486204, 0.28327394, -0.57556206, 2.1524017, 1.3814478, 0
565, 3503431855, 0.91613394, -0.015503254, 0.2910453, 0.2753728, 1.9450308, -0.0175361, 0.053481102, 0
566, 3503448522, 0.91758513, -0.016012184, 0.28888005, 0.27277917, 1.3632784, 0.6135548, 0.015234947, 0
567, 3503465189, 0.9190869, -0.016718496, 0.28640294, 0.27028173, 1.7009009, 0.31367165, 0.5286274, 0
569, 3503498523, 0.9218688, -0.017851207, 0.28048727, 0.26691836, 1.3701506, -0.2871468, 1.4444904, 0
570, 3503515190, 0.92278063, -0.018262137, 0.27798373, 0.26635817, 1.6999962, -0.49616283, 0.19611454, 0
571, 3503531857, 0.92363757, -0.01884747, 0.27544403, 0.26598507, 1.2510992, -0.8945024, -0.07397175, 0
573, 3503565191, 0.92527133, -0.020127721, 0.27030706, 0.26548308, 0.24358475, -1.1442701, -1.0297556, 0
574, 3503581858, 0.9257664, -0.02087754, 0.2682574, 0.26577756, 0.17913517, -0.86738, -1.4933643, 0
575, 3503598525, 0.92589295, -0.021552417, 0.26666582, 0.266882, 0.8141016, -1.2823216, -0.8014374, 0
577, 3503631859, 0.9257581, -0.023998339, 0.26383278, 0.26993972, 1.5927672, -2.0419877, 0.047908783, 0
578, 3503648526, 0.9253416, -0.025568275, 0.2632671, 0.2717698, 2.2317908, -1.6026944, 0.6718712, 0
580, 3503681860, 0.92452294, -0.028563272, 0.26160875, 0.27582854, -0.95285386, -0.14778526, 1.4144049, 0
581, 3503698527, 0.92400014, -0.03016034, 0.26146337, 0.2775429, -0.41778767, -0.14073159, 0.57748985, 0
582, 3503715194, 0.92318153, -0.03154952, 0.26203647, 0.27956438, -0.16273704, -1.5304406, -0.33162117, 0
584, 3503748528, 0.9216073, -0.033140667, 0.26259246, 0.28401774, -0.9415623, -1.8458393, 1.1184816, 0
585, 3503765195, 0.92108613, -0.033720903, 0.26224697, 0.28595287, -0.90064245, -0.7953521, 0.82334614, 0
586, 3503781862, 0.92037684, -0.034577828, 0.26289576, 0.28753376, -1.5307574, -0.13031349, -0.73228073, 0
588, 3503815196, 0.919262, -0.035959214, 0.2633276, 0.2905205, -1.1749038, -0.8942495, 0.29621124, 0
589, 3503831863, 0.91852653, -0.036479466, 0.26400465, 0.29216272, -1.7366643, -1.7385879, -0.74274635, 0
592, 3503881864, 0.9170646, -0.036583245, 0.26315984, 0.29745606, -1.818891, -1.5046943, -0.565732, 0
593, 3503898531, 0.9166187, -0.036550447, 0.26292643, 0.2990369, -0.8933565, -0.87072355, 0.01805687, 0
594, 3503915198, 0.9162038, -0.036455724, 0.262446, 0.30073744, -1.1539788, -1.2533513, 0.44087505, 0
596, 3503948532, 0.91528916, -0.036107633, 0.26192725, 0.30399907, -0.29724723, -0.84962714, 0.74015045, 0
597, 3503965199, 0.9148361, -0.036010638, 0.26166922, 0.30559212, 0.13832732, -0.94612205, 1.1758032, 0
598, 3503981866, 0.91424876, -0.035799664, 0.26180556, 0.30725318, 0.07057194, -0.4327879, 0.7171488, 0
600, 3504015200, 0.91251516, -0.03487597, 0.26420677, 0.3104409, 0.38146573, 0.16679744, 0.81005573, 0
601, 3504031867, 0.9114626, -0.03370284, 0.2663215, 0.3118527, -0.8961401, -0.97953343, 0.1806755, 0
602, 3504048534, 0.91047066, -0.033169962, 0.26814702, 0.31324, -1.4722992, -1.2358693, -0.5161381, 0
604, 3504081868, 0.9091773, -0.033361807, 0.2695185, 0.31578904, -0.49987227, -1.771897, 0.55406475, 0
607, 3504131869, 0.9077281, -0.03226674, 0.27002767, 0.31961387, -0.7910014, 1.1167697, 0.51262, 0
608, 3504148536, 0.90721714, -0.031579904, 0.2707844, 0.3204913, -0.78128314, 0.08951314, 0.33633423, 0
609, 3504165203, 0.9067235, -0.030772379, 0.27163872, 0.32124323, -0.20990105, 0.15405767, 0.8417015, 0
611, 3504198537, 0.9056777, -0.029010007, 0.27366138, 0.3226376, -0.6816111, -0.18413761, -0.06528759, 0
612, 3504215204, 0.905411, -0.028680908, 0.27427426, 0.32289445, -0.5311737, 0.8461386, 1.0256052, 0
613, 3504231871, 0.90539646, -0.02839908, 0.27445313, 0.3228087, -1.0964376, -0.3224765, -0.2989874, 0
615, 3504265205, 0.9054109, -0.028360628, 0.275048, 0.3222645, -1.0509638, 0.085506335, 0.65414906, 0
616, 3504281872, 0.9056122, -0.02817687, 0.27475473, 0.32196563, -0.6194083, -0.3224773, 1.0098248, 0
617, 3504298539, 0.90588105, -0.027858734, 0.27440974, 0.32153058, -0.96569866, -0.32818282, 0.68962383, 0
619, 3504331873, 0.9063158, -0.027225193, 0.27414334, 0.32058543, -1.3788695, -0.45428666, 0.8085365, 0
621, 3504365207, 0.9068057, -0.02748838, 0.27451646, 0.3188539, -1.8572364, -0.41690817, -0.73548126, 0
623, 3504398541, 0.90766877, -0.027954971, 0.27322623, 0.31746244, -2.421429, -2.5263996, 0.024337769, 0
624, 3504415208, 0.9077741, -0.028293176, 0.27365524, 0.3167613, -1.747823, -1.2470058, 0.37262726, 0
625, 3504431875, 0.90795624, -0.02864288, 0.27416062, 0.31576937, -1.987187, -1.095441, 0.86872387, 0
627, 3504465209, 0.90797555, -0.028659409, 0.27580628, 0.31427562, -3.5507789, -0.90625966, 0.6805582, 0
628, 3504481876, 0.907686, -0.02868932, 0.2780775, 0.31310546, -3.8232942, -0.7930976, 1.3786926, 0
629, 3504498543, 0.90679765, -0.02884191, 0.2823027, 0.31188202, -5.137844, -1.3685888, -0.888813, 0
631, 3504531877, 0.90364647, -0.02707479, 0.29605523, 0.3084159, -4.3452373, -1.4558134, 0.25548363, 0
632, 3504548544, 0.9020415, -0.025447886, 0.30252397, 0.30697238, -3.6413057, -1.2762681, -0.21206951, 0
634, 3504581878, 0.8972916, -0.021503236, 0.31769383, 0.3058673, -1.8316015, -0.9765829, 0.9845009, 0
636, 3504615212, 0.8918116, -0.01832474, 0.3330815, 0.30573237, 0.56079626, 0.9016278, -2.8026133, 0
638, 3504648546, 0.8952825, -0.009725403, 0.32229593, 0.30753738, 4.6760325, 1.171171, -4.8189855, 0
639, 3504665213, 0.90002793, -0.0036825575, 0.3079634, 0.30850273, 4.1964645, 2.616089, -2.6477036, 0
640, 3504681880, 0.90439767, 0.0022721216, 0.29386443, 0.30948782, -1.299236, 2.9106195, 0.47071838, 0
642, 3504715214, 0.90530014, 0.009005718, 0.29303777, 0.30750388, 2.0288024, 4.8563175, 8.065922, 0
643, 3504731881, 0.904436, 0.010344863, 0.29716754, 0.30603832, 2.0563126, 5.004067, 2.3280563, 0
644, 3504748548, 0.9029654, 0.011359539, 0.30204758, 0.30556637, 1.7024895, 1.9935628, -0.5474224, 0
646, 3504781882, 0.90148443, 0.013664104, 0.30887952, 0.30300415, 1.920888, -1.292493, 0.93275356, 0
647, 3504798549, 0.90130436, 0.015095521, 0.3109042, 0.30139697, 1.0573282, 2.0810769, 1.6429529, 0
648, 3504815216, 0.9008033, 0.01645029, 0.31308237, 0.3005683, 0.2700303, 4.274696, 1.7110844, 0
650, 3504848550, 0.898308, 0.017818801, 0.32235694, 0.2981448, 0.59235364, 2.007, 0.44967175, 0
651, 3504865217, 0.8969518, 0.01789039, 0.3282896, 0.29574066, -0.01744761, 0.013159996, -0.009364128, 0
652, 3504881884, 0.89563006, 0.01810008, 0.33425057, 0.29304412, 0.26752815, 0.86443555, 0.81147003, 0
654, 3504915218, 0.8931693, 0.018731698, 0.34557247, 0.28732643, -0.40047467, 2.882707, -0.17590809, 0
655, 3504931885, 0.89143723, 0.01899384, 0.35243377, 0.28433856, -0.51869345, 1.3780037, -0.503294, 0
656, 3504948552, 0.8892698, 0.0189251, 0.36025745, 0.28130883, 1.3259093, 0.69581294, 0.16161442, 0
658, 3504981886, 0.8860544, 0.017617777, 0.37333623, 0.27440158, 0.25223812, 0.038798664, -0.05936241, 0
659, 3504998553, 0.885182, 0.016570598, 0.37835714, 0.27037582, -0.37101218, -0.14870892, -0.69797325, 0
661, 3505031887, 0.88292867, 0.01386638, 0.3889185, 0.26280448, -0.94002765, -0.31686506, -0.35385036, 0
663, 3505065221, 0.8800345, 0.0105767995, 0.3995974, 0.25657022, -0.82763064, -0.7382789, -0.14002132, 0
665, 3505098555, 0.8762597, 0.005441837, 0.4120045, 0.24994166, -0.83370644, 0.1174289, 0.53139496, 0
666, 3505115222, 0.8735343, 0.0027304739, 0.41879505, 0.2482342, -2.1652422, 1.9751487, -0.86347485, 0
667, 3505131889, 0.87088734, 6.484613E-4, 0.42484826, 0.24726054, -1.6103982, 1.5977688, 1.7526617, 0
669, 3505165223, 0.8638811, -0.003006123, 0.44007605, 0.24517846, -0.49898478, -1.715287, 0.9368496, 0
670, 3505181890, 0.8586592, -0.0056634396, 0.45094338, 0.24372423, -0.8164671, -0.028179843, 1.1492662, 0
671, 3505198557, 0.85343003, -0.009076774, 0.46201253, 0.24124348, -1.9085543, 0.20576005, -0.8107519, 0
673, 3505231891, 0.83897316, -0.016402103, 0.48980728, 0.23669204, -3.0601509, -0.56992906, 0.112400055, 0
674, 3505248558, 0.83418137, -0.022278786, 0.4982102, 0.23560758, -1.9365357, 1.4064149, 1.4367485, 0
675, 3505265225, 0.8282369, -0.024284594, 0.50844145, 0.23452172, -2.9614406, -3.010056, -0.6352005, 0
678, 3505315226, 0.79465055, -0.031606555, 0.56144184, 0.22889692, -3.7154734, 1.9620517, -3.565709, 0
679, 3505331893, 0.78178245, -0.035249032, 0.57953817, 0.22757044, -0.13328768, 1.1982557, -0.7265301, 0
681, 3505365227, 0.7589832, -0.034948215, 0.6073728, 0.23216474, 1.7254015, 0.86107075, 0.005221367, 0
682, 3505381894, 0.7480353, -0.035615884, 0.6200488, 0.23407969, 0.6292834, 1.5523345, -0.13852596, 0
683, 3505398561, 0.73820895, -0.03759741, 0.63093245, 0.23587604, 1.140777, 0.055874832, -0.17593384, 0
685, 3505431895, 0.71793586, -0.04584728, 0.6513896, 0.24132326, 0.8870044, -0.6665444, -0.5626583, 0
686, 3505448562, 0.70751655, -0.051218137, 0.6608304, 0.24531442, -0.15455396, -0.5839925, -0.67489815, 0
687, 3505465229, 0.69843256, -0.057255074, 0.6685088, 0.24917595, 1.2367194, -0.70496553, 1.1829777, 0
689, 3505498563, 0.68392533, -0.07094984, 0.68002695, 0.2546656, 1.0313889, 0.30196065, 1.0024729, 0
690, 3505515230, 0.67627245, -0.077549, 0.68648916, 0.2558388, 0.78690606, 0.85606015, 2.7406034, 0
693, 3505565231, 0.64414334, -0.09352495, 0.7160318, 0.25240865, 0.13772038, -2.050072, 1.4413795, 0
694, 3505581898, 0.63370526, -0.09866239, 0.72476184, 0.2519579, 0.80264795, 0.07125515, 0.8714466, 0
696, 3505615232, 0.6245643, -0.10246424, 0.7343871, 0.24530602, -2.5924017, -1.5974598, -1.7124367, 0
697, 3505631899, 0.62030154, -0.10007623, 0.7395732, 0.24149767, -0.7049759, -1.8990542, -1.3452206, 0
698, 3505648566, 0.6150552, -0.09727004, 0.7451791, 0.23881531, -1.2195299, 0.5891378, 1.2127953, 0
700, 3505681900, 0.6068364, -0.08801545, 0.75378317, 0.23641668, -3.2544355, -0.79228044, -0.7620039, 0
701, 3505698567, 0.60296506, -0.07745591, 0.75741404, 0.23840451, -2.1890483, 1.0177083, -1.6585503, 0
702, 3505715234, 0.59955454, -0.07098571, 0.75962883, 0.24194759, -2.211112, 0.8334206, -3.4469218, 0
704, 3505748568, 0.59401023, -0.06110722, 0.76343864, 0.24628891, -0.19305848, -2.194913, 1.1447878, 0
705, 3505765235, 0.5942156, -0.053642333, 0.76228243, 0.25106737, 0.08547398, -1.2428296, 1.5055943, 0
708, 3505815236, 0.60337156, 0.0010757595, 0.74507856, 0.28439143, -0.40812382, 5.491861, 2.1656723, 0
709, 3505831903, 0.60578644, 0.025317699, 0.7356951, 0.30201566, -1.4343275, 5.4493227, 3.3254614, 0
710, 3505848570, 0.61183316, 0.04772404, 0.7213416, 0.32113516, -2.9916196, 2.663314, 4.683482, 0
712, 3505881904, 0.6415072, 0.062281467, 0.6721378, 0.36455354, 0.6397694, -0.98934096, 0.76235104, 0
713, 3505898571, 0.6654693, 0.0589358, 0.64549434, 0.3702613, -0.96984553, 19.786423, -9.247232, 0
715, 3505931905, 0.7453783, 0.047604226, 0.5839189, 0.3182183, 0.57411927, -0.20824425, 1.7909126, 0
716, 3505948572, 0.7804927, 0.02644419, 0.5492306, 0.2975848, 1.6492753, -8.57042, -1.4933062, 0
717, 3505965239, 0.8052941, 7.4888766E-4, 0.5188732, 0.28696787, 0.73390806, -5.9045568, -4.4636207, 0
719, 3505998573, 0.83353674, -0.023190148, 0.48113704, 0.2706755, -0.4677973, -4.277567, -5.539854, 0
720, 3506015240, 0.8424897, -0.025921047, 0.4690807, 0.2637835, -0.89538723, -6.224149, -1.079751, 0
721, 3506031907, 0.8503702, -0.026667867, 0.45627588, 0.2608657, -1.3287728, -5.918014, -0.8876858, 0
723, 3506065241, 0.86046594, -0.020876072, 0.43414766, 0.2660029, -0.10689581, -3.295198, 0.5971699, 0
724, 3506081908, 0.86367965, -0.017991304, 0.4229128, 0.27378458, 0.8241421, -2.36819, 2.4342785, 0
725, 3506098575, 0.8668352, -0.016870007, 0.4106009, 0.28248584, 1.6434189, -0.48131922, 1.6388512, 0
727, 3506131909, 0.8752638, -0.011411227, 0.38742796, 0.28941643, 2.8455405, 1.3843689, -0.93566036, 0
728, 3506148576, 0.8803661, -0.00450404, 0.37759918, 0.28711206, 3.8488371, -0.36619696, -2.028039, 0
729, 3506165243, 0.88344866, 0.0055680573, 0.37057093, 0.2867817, 5.6479483, -3.5657108, -3.9040718, 0
731, 3506198577, 0.8759328, 0.028265558, 0.36932063, 0.3092317, 11.459415, -5.6742153, -3.8205914, 0
732, 3506215244, 0.8681191, 0.034996107, 0.37128705, 0.3276729, 14.242334, -0.62066114, -5.3664145, 0
735, 3506265245, 0.84750605, 0.056819387, 0.41058543, 0.33166832, 30.961565, 6.736372, -8.185848, 0
736, 3506281912, 0.83748925, 0.053619407, 0.4382946, 0.32204625, 35.76069, 3.0416398, -0.8608122, 0
737, 3506298579, 0.84289575, 0.005276963, 0.45492482, 0.28743964, 59.618343, 33.927494, 45.356735, 0
739, 3506331913, 0.8741077, -0.039270744, 0.4029205, 0.26856613, -1.7159817, 3.3936107, -0.84199715, 0
740, 3506348580, 0.88079196, -0.04537092, 0.38950682, 0.26553798, -5.0175967, 1.8038433, 0.75200176, 0
742, 3506381914, 0.87814766, -0.062649116, 0.4005159, 0.25416082, -5.269098, 0.4718944, 0.014870644, 0
743, 3506398581, 0.8667244, -0.074415244, 0.42736807, 0.24634688, -6.1951523, -0.75861895, -0.8490858, 0
744, 3506415248, 0.84242797, -0.0915241, 0.475414, 0.23664148, -6.0814853, -3.1723118, -2.8318028, 0
746, 3506448582, 0.7286287, -0.14714508, 0.639505, 0.19636959, -8.141974, -2.0603895, 4.2524223, 0
747, 3506465249, 0.64880174, -0.16292353, 0.72560465, 0.16152146, -12.505808, 1.216941, 21.904377, 0
750, 3506515250, 0.45803234, -0.15725529, 0.87394404, 0.04216658, -16.240637, -42.45692, 33.586834, 0
751, 3506531917, 0.418194, -0.16864203, 0.8907154, 0.05812803, -9.626423, 8.117713, 12.191826, 0
752, 3506548584, 0.37630245, -0.17303918, 0.90970266, 0.031209502, -12.982809, -5.3431926, 3.972578, 0
754, 3506581918, 0.30502433, -0.17837323, 0.9354835, 0.00963733, -24.946362, -2.6696641, -11.156732, 0
755, 3506598585, 0.2839841, -0.17986357, 0.9418343, -0.005439494, -22.034334, 0.8635635, -14.705805, 0
756, 3506615252, 0.27090335, -0.18305944, 0.9447985, -0.02313739, -19.324957, 0.41659787, -19.63631, 0
758, 3506648586, 0.2654935, -0.19596435, 0.94286454, -0.046869442, -14.436073, 1.0753866, -21.995174, 0
759, 3506665253, 0.27659658, -0.20209752, 0.93792546, -0.055008445, -14.190759, -0.36484987, -19.796555, 0
760, 3506681920, 0.2974441, -0.20702866, 0.93015534, -0.05963775, -12.547264, -2.538325, -17.442947, 0
762, 3506715254, 0.3525996, -0.2154189, 0.9090167, -0.055100814, -5.095126, -3.9257722, -12.224944, 0
764, 3506748588, 0.39690167, -0.23232241, 0.8870659, -0.041090734, -2.8677258, -3.0798109, -9.613874, 0
766, 3506781922, 0.43696028, -0.23835984, 0.86706, -0.023164243, -5.776568, -5.2642226, -7.631832, 0
767, 3506798589, 0.45788428, -0.23787257, 0.8566025, -0.008362964, -4.219802, -4.778045, -7.6118193, 0
769, 3506831923, 0.49930924, -0.23237853, 0.8344401, 0.021897353, -5.4329853, -2.4712973, -4.676795, 0
770, 3506848590, 0.52531606, -0.2245904, 0.8200783, 0.03395404, -4.8298345, -2.3817961, -2.5990005, 0
771, 3506865257, 0.5524727, -0.2151255, 0.80417854, 0.043255653, -3.0214748, -1.9919387, -1.3773041, 0
773, 3506898591, 0.6037473, -0.1943375, 0.7705764, 0.063350394, -4.164034, -5.0373726, 0.57026863, 0
774, 3506915258, 0.6273684, -0.18357718, 0.7524841, 0.080965124, -4.8710337, -4.5370393, 1.5471678, 0
775, 3506931925, 0.65102637, -0.17063147, 0.7327259, 0.10120122, -3.031058, -0.99138814, 2.1293583, 0
777, 3506965259, 0.69502795, -0.14033318, 0.6926589, 0.13245948, -1.7001166, 0.5038601, 3.2142372, 0
779, 3506998593, 0.73457754, -0.11755087, 0.64816976, 0.16288927, -2.491964, -2.9700222, 5.083581, 0
781, 3507031927, 0.77130556, -0.08729429, 0.5997062, 0.19467658, 1.1644071, 3.784018, 5.4109488, 0
782, 3507048594, 0.7878138, -0.067536496, 0.5769534, 0.20492004, 2.7793775, 3.0720882, 5.5483856, 0
783, 3507065261, 0.80182076, -0.051146656, 0.5555064, 0.2143807, 3.4739008, 2.4779418, 6.1875496, 0
785, 3507098595, 0.82431215, -0.02797699, 0.51453143, 0.23465544, 3.900871, 3.4261656, 7.720724, 0
786, 3507115262, 0.8341899, -0.017856993, 0.49378297, 0.2450833, 4.918428, 4.824802, 5.4503136, 0
787, 3507131929, 0.8426936, -0.007883452, 0.47495654, 0.25357598, 5.7468977, 5.804564, 3.1499443, 0
789, 3507165263, 0.85617, 0.0070059374, 0.44386786, 0.26454502, 4.885042, 3.379931, 2.6022577, 0
790, 3507181930, 0.8619576, 0.011233062, 0.4303183, 0.26797032, 4.1685786, 2.0732315, 3.3379622, 0
791, 3507198597, 0.86817497, 0.015483677, 0.4156524, 0.2708224, 3.9602938, 1.5354939, 5.144432, 0
793, 3507231931, 0.8804286, 0.030173443, 0.38428706, 0.2762922, 3.691964, 1.4374293, 1.5389404, 0
794, 3507248598, 0.88448846, 0.039845385, 0.3713158, 0.2798142, 3.7269557, 1.2869786, 1.0374403, 0
795, 3507265265, 0.88716185, 0.048180476, 0.3603291, 0.28436697, 3.8150134, 1.8308314, 0.8420372, 0
797, 3507298599, 0.89093435, 0.059007477, 0.34242412, 0.29253873, 4.409539, 3.3081226, 0.73774815, 0
798, 3507315266, 0.8929233, 0.06313287, 0.3342497, 0.2950564, 3.9275675, 2.9110892, 0.6515789, 0
800, 3507348600, 0.8968016, 0.06748123, 0.3188195, 0.29937664, 2.2959905, 2.1066856, 0.45219517, 0
801, 3507365267, 0.8981814, 0.070291474, 0.31131658, 0.30247337, 1.6660141, 2.4236493, 0.04674816, 0
802, 3507381934, 0.89939964, 0.073458076, 0.3040308, 0.3054968, 1.8878735, 2.8492684, 0.3487692, 0
804, 3507415268, 0.90307367, 0.08014541, 0.28830415, 0.30821165, 2.6274338, 3.222735, -0.047136307, 0
806, 3507448602, 0.90781885, 0.08216401, 0.27482957, 0.30604202, 1.7863371, 2.0543964, 0.3400421, 0
808, 3507481936, 0.912319, 0.086679764, 0.26202756, 0.30262372, 2.1338556, 1.7341814, 0.66486645, 0
809, 3507498603, 0.9149232, 0.08822171, 0.2547738, 0.30050248, 2.634043, 1.0765147, 0.84889793, 0
810, 3507515270, 0.91784346, 0.087487176, 0.24742912, 0.29793856, 1.9602122, 0.42137188, 0.055371284, 0
812, 3507548604, 0.9228693, 0.08486442, 0.23492573, 0.2932562, 1.502838, -0.3103875, -0.11216259, 0
813, 3507565271, 0.9245984, 0.08378473, 0.2297381, 0.29222816, 1.6774793, -0.67782444, 0.48526955, 0
814, 3507581938, 0.9258614, 0.08276492, 0.224102, 0.29289603, 2.0588007, -0.54913795, 1.0217838, 0
816, 3507615272, 0.92734164, 0.07923353, 0.21197666, 0.29816848, 1.1045597, 0.05232623, -0.58164215, 0
817, 3507631939, 0.9275204, 0.07770536, 0.20732088, 0.3012722, 0.7003594, 0.53135383, -1.0684462, 0
818, 3507648606, 0.9274957, 0.076925464, 0.2042324, 0.30364847, 0.757913, 1.1282643, -1.2390823, 0
821, 3507698607, 0.92806584, 0.07874838, 0.19495836, 0.30751064, 1.5719233, -0.13292725, 0.02158165, 0
823, 3507731941, 0.9289436, 0.07641092, 0.18854028, 0.30944595, 1.6492753, 0.6358638, -1.649601, 0
824, 3507748608, 0.9289932, 0.07619798, 0.18760909, 0.309915, 1.8619059, 0.3757887, -1.2505713, 0
825, 3507765275, 0.92882943, 0.076688126, 0.18747924, 0.31036317, 2.2430358, 0.6239393, -0.7799244, 0
827, 3507798609, 0.9283261, 0.07735883, 0.18747999, 0.31169957, 3.565886, 0.23237605, -0.87849903, 0
828, 3507815276, 0.9281717, 0.07650687, 0.18723007, 0.3125189, 3.8940973, 0.80901873, -1.8492432, 0
829, 3507831943, 0.9278508, 0.07579549, 0.18797025, 0.31319982, 4.221382, 0.991697, -2.5545425, 0
831, 3507865277, 0.9262391, 0.07369608, 0.19445176, 0.31451157, 4.3872886, 1.0127952, -2.7449665, 0
832, 3507881944, 0.9247626, 0.074171245, 0.19937098, 0.31566274, 4.868061, 1.126294, -1.9957905, 0
833, 3507898611, 0.9231335, 0.075004704, 0.20448284, 0.31696174, 5.279326, 0.8081611, -1.7292376, 0
836, 3507948612, 0.91841775, 0.07241702, 0.22287814, 0.31885567, 6.2992177, 1.6076883, -3.1444483, 0
837, 3507965279, 0.91654575, 0.070591554, 0.23233554, 0.3178994, 6.6516714, 1.2543002, -3.0912752, 0
839, 3507998613, 0.91131186, 0.06650942, 0.25681773, 0.31497753, 7.4701085, 1.2931262, -2.4525995, 0
840, 3508015280, 0.9080697, 0.06493041, 0.2700888, 0.31356746, 8.17973, 1.0396014, -1.9944811, 0
841, 3508031947, 0.90474796, 0.061497364, 0.2834015, 0.3121087, 9.1548395, 1.3851525, -2.6916156, 0
843, 3508065281, 0.8970755, 0.04733309, 0.31341788, 0.30799925, 11.310869, 2.6452527, -4.2333617, 0
844, 3508081948, 0.8923306, 0.038897537, 0.33050886, 0.30508384, 12.581543, 3.3662446, -3.190236, 0
845, 3508098615, 0.8871719, 0.0318432, 0.34709284, 0.3025186, 14.912313, 3.472117, -0.737134, 0
847, 3508131949, 0.8735134, 0.011463985, 0.382022, 0.30163097, 24.826172, 6.625162, -5.4880066, 0
848, 3508148616, 0.85977554, -1.0406226E-4, 0.41346964, 0.2998461, 30.649576, 11.964902, -6.322176, 0
851, 3508198617, 0.8337826, -0.06082728, 0.4583176, 0.30187884, -18.610909, 14.677849, 10.218639, 0
852, 3508215284, 0.8493144, -0.057189062, 0.42718375, 0.30493817, -4.3884296, -9.156933, 6.810116, 0
854, 3508248618, 0.8507181, -0.06939223, 0.42943427, 0.29517546, -12.093525, 0.24553692, -1.5291061, 0
855, 3508265285, 0.8256447, -0.08585387, 0.47785896, 0.2875232, -9.615164, -4.0517187, -3.1220794, 0
856, 3508281952, 0.7739582, -0.11149738, 0.56002754, 0.2738705, -9.399752, -7.086286, -1.932641, 0
858, 3508315286, 0.614896, -0.15282768, 0.7445759, 0.21031485, -12.766026, 1.8324453, 26.995426, 0
859, 3508331953, 0.5531327, -0.14252605, 0.8067184, 0.15170641, -5.5966063, 0.9237726, 46.25352, 0
860, 3508348620, 0.5112071, -0.14783701, 0.84160316, 0.0927068, 2.4345624, -16.399664, 36.337948, 0
862, 3508381954, 0.40480363, -0.18718968, 0.89041245, 0.091318935, -15.598901, 2.6218262, 7.1419544, 0
863, 3508398621, 0.36146116, -0.20528139, 0.9063295, 0.07649222, -18.883085, -2.2530978, 1.1777096, 0
864, 3508415288, 0.32323205, -0.21931274, 0.91852957, 0.061687473, -24.625946, -12.834926, -8.617126, 0
866, 3508448622, 0.27466446, -0.23451595, 0.9318456, 0.036118656, -19.404346, -6.9556932, -20.736761, 0
867, 3508465289, 0.2684588, -0.23940445, 0.9327854, 0.0246167, -15.767146, -6.788685, -20.372818, 0
868, 3508481956, 0.27228215, -0.24330726, 0.9308593, 0.015619438, -11.627236, -6.1065664, -17.914436, 0
870, 3508515290, 0.29345918, -0.24694604, 0.92356795, -7.703081E-4, -5.5522923, -3.9857326, -14.491694, 0
871, 3508531957, 0.3056479, -0.24467751, 0.92016244, -0.009604972, -5.5103116, -3.5920167, -12.9835415, 0
872, 3508548624, 0.31901127, -0.24030015, 0.9166695, -0.016839761, -5.6384425, -4.0782757, -12.078449, 0
874, 3508581958, 0.35058546, -0.22822776, 0.9081633, -0.017891288, -6.7077737, -3.6451442, -9.915306, 0
875, 3508598625, 0.3710188, -0.22047171, 0.90203243, -0.012391068, -6.1358438, -1.7647736, -8.52651, 0
878, 3508648626, 0.43903977, -0.18954296, 0.87829155, -7.631928E-4, -3.2972407, 0.7193617, -5.15587, 0
879, 3508665293, 0.46026754, -0.18001273, 0.86938196, 0.0017535537, -3.5411282, 0.17941591, -3.9982595, 0
881, 3508698627, 0.50206953, -0.16447024, 0.8489699, 0.014323674, -4.382303, 0.032151334, -0.34416008, 0
882, 3508715294, 0.52438295, -0.15698944, 0.83657557, 0.024434015, -4.101175, 0.47107813, 1.4329796, 0
883, 3508731961, 0.54755145, -0.14987293, 0.82248664, 0.03633327, -2.2901056, 0.7937134, 1.8965073, 0
885, 3508765295, 0.58895636, -0.1370485, 0.7942347, 0.06015448, 1.3569694, 2.3581333, 2.7971115, 0
886, 3508781962, 0.6068171, -0.13003978, 0.7810906, 0.069561616, 1.785576, 3.1967776, 3.0224466, 0
887, 3508798629, 0.62372696, -0.123187214, 0.7681222, 0.07652894, 1.0456337, 3.077291, 3.0700703, 0
889, 3508831963, 0.6547299, -0.11648862, 0.74139124, 0.09042777, -0.17893362, 0.30461183, 3.2664194, 0
890, 3508848630, 0.6697674, -0.11676883, 0.72653484, 0.100014284, -0.2836312, 0.08973201, 4.560239, 0
893, 3508898631, 0.712892, -0.1123472, 0.6808417, 0.12528715, 3.6936364, 1.1850573, 1.5152311, 0
894, 3508915298, 0.723383, -0.109667115, 0.6688117, 0.13213599, 2.2786548, 0.307901, 1.1914806, 0
895, 3508931965, 0.7326321, -0.10855571, 0.6571006, 0.14058234, 0.5889458, -0.7988534, 2.2731762, 0
897, 3508965299, 0.7534788, -0.10508601, 0.6285459, 0.16197422, 0.3018038, 1.6724064, 1.689085, 0
898, 3508981966, 0.7644538, -0.100957364, 0.61343485, 0.1708643, 0.945874, 2.076945, 0.19831657, 0
899, 3508998633, 0.77451587, -0.097338855, 0.5993355, 0.17755686, 0.39695838, 1.4992852, -0.16617012, 0
901, 3509031967, 0.79459065, -0.09133524, 0.5701849, 0.18775399, -1.96834, -0.8700485, 1.4763088, 0
902, 3509048634, 0.80515695, -0.088141635, 0.5537139, 0.19347674, -2.2428327, -1.94309, 0.9996443, 0
903, 3509065301, 0.815204, -0.08411609, 0.5369277, 0.20038599, -2.0507104, -1.7529973, 0.7627783, 0
905, 3509098635, 0.83388835, -0.06928612, 0.50382483, 0.21463746, -1.1485642, -0.18145156, 1.6418371, 0
908, 3509148636, 0.8588634, -0.036499567, 0.4585617, 0.22543657, -0.82426035, 1.7946963, 2.391448, 0
909, 3509165303, 0.8668385, -0.026414625, 0.44289935, 0.22762342, -0.9806594, 1.4455135, 3.222662, 0
910, 3509181970, 0.8748447, -0.018056884, 0.42635232, 0.22939819, -0.80766577, 2.0548437, 2.9305782, 0
912, 3509215304, 0.8902167, 6.417483E-4, 0.39348903, 0.22969349, 0.3391728, 1.2372972, 3.1728754, 0
913, 3509231971, 0.89688104, 0.011423647, 0.37785482, 0.22973655, 1.0143316, 1.0892498, 2.602312, 0
914, 3509248638, 0.9025195, 0.022966303, 0.36282617, 0.23101377, 1.8673016, 1.103217, 4.3496466, 0
916, 3509281972, 0.9126918, 0.041304458, 0.3298737, 0.23780233, 3.5215201, 2.4256487, 3.7494078, 0
917, 3509298639, 0.91706944, 0.04865554, 0.31362262, 0.24152903, 4.0261583, 2.8000324, 1.6139336, 0
918, 3509315306, 0.9208122, 0.054964583, 0.29906604, 0.24438155, 4.658804, 2.8097515, 0.72365, 0
920, 3509348640, 0.92631143, 0.066994354, 0.27573803, 0.24800512, 4.946807, 1.8935816, 0.58551216, 0
922, 3509381974, 0.93024564, 0.073707625, 0.256228, 0.25226235, 4.95541, 1.237408, 0.292552, 0
924, 3509415308, 0.9322287, 0.07816298, 0.2407878, 0.25872788, 4.2669077, 0.9324849, -1.536869, 0
925, 3509431975, 0.93218154, 0.08039666, 0.23582849, 0.2627508, 4.011942, 1.2746403, -2.6585193, 0
926, 3509448642, 0.93115145, 0.08359413, 0.23374669, 0.26722714, 4.254591, 1.6476516, -3.084157, 0
928, 3509481976, 0.92761517, 0.08851239, 0.23495615, 0.27671322, 6.4462404, 1.1869016, -1.7795258, 0
929, 3509498643, 0.9262977, 0.088351116, 0.23562144, 0.28058535, 7.3618994, 1.8138233, -1.8527074, 0
931, 3509531977, 0.9241917, 0.088127315, 0.23897451, 0.2847341, 6.937966, 2.1454375, -5.1961827, 0
932, 3509548644, 0.92251277, 0.08868914, 0.2442819, 0.285499, 6.8140683, 1.7536538, -5.618846, 0
933, 3509565311, 0.9200698, 0.089185014, 0.25247085, 0.28610367, 7.0050263, 1.5636255, -5.498577, 0
935, 3509598645, 0.91267127, 0.08907339, 0.27409124, 0.28991377, 10.14756, 1.8002312, -4.0218053, 0
936, 3509615312, 0.9089516, 0.086078785, 0.28385782, 0.29308864, 12.217618, 2.2735808, -4.1222224, 0
937, 3509631979, 0.9059684, 0.081665285, 0.2914684, 0.2961033, 13.58362, 3.529247, -5.6788583, 0
939, 3509665313, 0.8991791, 0.077364415, 0.311282, 0.2977822, 13.516224, 5.9710784, -10.277729, 0
940, 3509681980, 0.89412415, 0.07747054, 0.327932, 0.29509333, 15.256683, 5.815027, -9.415309, 0
941, 3509698647, 0.88839006, 0.0766572, 0.3474603, 0.29023665, 18.302412, 6.155579, -6.589651, 0
943, 3509731981, 0.8780178, 0.06463675, 0.38526586, 0.27668798, 23.335363, 3.4678853, -5.460203, 0
944, 3509748648, 0.8692905, 0.052069478, 0.41314968, 0.26647532, 28.282156, 5.2649417, -7.950699, 0
945, 3509765315, 0.8528326, 0.038054705, 0.45328483, 0.2565936, 27.100124, -9.045652, 23.308899, 0
947, 3509798649, 0.87020683, -0.015774399, 0.41206524, 0.26976374, -7.7906237, -3.5546625, 9.717134, 0
949, 3509831983, 0.88551927, -0.027959801, 0.38690746, 0.25584275, -3.3083858, 1.4447771, 0.44499588, 0
951, 3509865317, 0.8768654, -0.04367852, 0.41202107, 0.24396047, -6.3264537, -0.2994211, -0.625927, 0
952, 3509881984, 0.85841376, -0.05668895, 0.4510719, 0.23775017, -5.4217486, -1.4400889, -1.9967957, 0
953, 3509898651, 0.82443535, -0.07345111, 0.5111831, 0.23169382, -5.0325174, -2.9366803, -2.1705098, 0
956, 3509948652, 0.62480295, -0.11652048, 0.7502163, 0.18247865, -11.465886, 2.776648, 16.00631, 0
958, 3509981986, 0.51008666, -0.111062974, 0.845714, 0.11101075, -20.24137, -4.795097, 37.37284, 0
959, 3509998653, 0.47256097, -0.1303114, 0.8665654, 0.09406543, -7.7391343, -30.442822, 26.72129, 0
960, 3510015320, 0.44440973, -0.14481755, 0.8771298, 0.11068067, -19.024553, -13.46238, 9.6484375, 0
962, 3510048654, 0.3669442, -0.1687538, 0.9094043, 0.0996853, -23.394806, -7.6626596, 3.4994535, 0
963, 3510065321, 0.33417913, -0.1771916, 0.9212267, 0.09136516, -27.770632, -4.4694114, -4.2894144, 0
966, 3510115322, 0.28998095, -0.20445104, 0.933585, 0.05107937, -19.651016, -3.8378887, -15.07414, 0
967, 3510131989, 0.29186413, -0.21561743, 0.93100536, 0.0404007, -15.963403, -4.554113, -16.414246, 0
968, 3510148656, 0.30080625, -0.22619924, 0.9259001, 0.033725478, -12.685927, -5.635579, -16.791681, 0
970, 3510181990, 0.33946952, -0.24228606, 0.9080786, 0.03911502, -10.521419, -6.71623, -15.871578, 0
971, 3510198657, 0.36789447, -0.24830309, 0.8946442, 0.05186292, -8.049123, -6.306266, -13.744715, 0
972, 3510215324, 0.39718932, -0.25556454, 0.8788593, 0.06791595, -4.969688, -4.2454796, -11.912799, 0
974, 3510248658, 0.4629719, -0.26165667, 0.8419156, 0.091923386, -7.9210963, -4.6709747, -6.8540144, 0
975, 3510265325, 0.5031411, -0.25704086, 0.8185385, 0.10417716, -6.821035, -6.5049925, -4.710236, 0
978, 3510315326, 0.61944866, -0.2164523, 0.7365486, 0.1643379, -1.735534, -1.2411084, -1.9749084, 0
979, 3510331993, 0.6530311, -0.19425786, 0.708049, 0.18590346, -1.766278, -1.0171666, -0.15374756, 0
982, 3510381994, 0.74360704, -0.13539237, 0.60717136, 0.2452334, 2.7966182, 1.7232958, 6.3893814, 0
983, 3510398661, 0.77142906, -0.11749714, 0.56955934, 0.25840396, 6.941403, 2.1121042, 5.534485, 0
985, 3510431995, 0.81308144, -0.08010139, 0.49978623, 0.28770614, 9.228001, -0.01958264, 5.8934593, 0
986, 3510448662, 0.8250576, -0.06420289, 0.46919626, 0.3083691, 12.078735, 3.5311925, 5.1926928, 0
987, 3510465329, 0.8318247, -0.048909776, 0.4442809, 0.32919434, 16.00398, 9.1933975, 4.099226, 0
989, 3510498663, 0.83454597, -0.026819788, 0.41724685, 0.35888445, 16.2075, 10.870165, 0.6893244, 0
990, 3510515330, 0.833019, -0.017114498, 0.41329595, 0.36749405, 11.238352, 8.878924, 1.034235, 0
991, 3510531997, 0.8322439, -0.0072945952, 0.41178033, 0.37125844, 6.0362296, 6.7765307, -0.46704006, 0
993, 3510565331, 0.8316387, 0.00906045, 0.4126129, 0.3716511, 2.6438677, 0.66625935, -2.3959064, 0
994, 3510581998, 0.82817054, 0.013307124, 0.41662648, 0.374777, 2.6289725, 0.6981747, -4.1969166, 0
997, 3510631999, 0.800774, 0.013759397, 0.46149948, 0.38166592, 13.012262, 9.982725, 13.238207, 0
998, 3510648666, 0.80269396, 0.0042053014, 0.46228844, 0.37687254, 13.209452, 7.9092884, 8.255718, 0
999, 3510665333, 0.8050074, -0.0018786788, 0.4622486, 0.37197423, 8.282242, 3.637123, 0.1688919, 0
1001, 3510698667, 0.8033723, -0.010385223, 0.46709108, 0.36931032, -1.3346298, -1.652617, -4.489427, 0
1002, 3510715334, 0.79889697, -0.009425759, 0.47644973, 0.36708242, -0.33769205, -0.19124806, 0.26267338, 0
1003, 3510732001, 0.7968011, -0.00831183, 0.48328495, 0.36270308, 2.3231862, 1.0620304, 3.4600916, 0
1005, 3510765335, 0.79699206, -0.005027935, 0.4896301, 0.35372272, 3.0320785, -1.488835, -0.87554646, 0
1006, 3510782002, 0.794652, -0.0069893524, 0.49321768, 0.35396975, 0.78724533, 3.691518, -0.63114166, 0
1007, 3510798669, 0.7922815, -0.007935092, 0.49637052, 0.35485518, 1.6145189, -0.06452881, 0.17440891, 0
1009, 3510832003, 0.78509974, -0.023069017, 0.50221366, 0.36186537, 0.22317135, -1.4112539, -2.512188, 0
1010, 3510848670, 0.78035885, -0.029010221, 0.507184, 0.36474887, -1.0169642, 1.3068289, 0.22672081, 0
1012, 3510882004, 0.7729987, -0.039573856, 0.5164957, 0.36635795, 4.122506, 1.1009163, 1.5781956, 0
1013, 3510898671, 0.7704909, -0.04419327, 0.51917666, 0.36732173, 6.936821, 1.6845449, 2.7321863, 0
1014, 3510915338, 0.76964945, -0.04974446, 0.5198684, 0.3673978, 3.410907, 1.1391762, 1.2325897, 0
1016, 3510948672, 0.7659847, -0.0594876, 0.5281838, 0.3617034, -0.017996585, 0.11662163, -2.1221004, 0
1017, 3510965339, 0.7598443, -0.061042488, 0.53723764, 0.3610611, 0.5258434, 1.3173542, 1.5492411, 0
1018, 3510982006, 0.7527283, -0.061292417, 0.5472206, 0.36093193, 1.6702417, 2.8024929, 1.9337225, 0
1020, 3511015340, 0.74080604, -0.060921364, 0.56497574, 0.3582962, 1.150382, 1.2568808, 0.07669449, 0
1021, 3511032007, 0.7364293, -0.06064351, 0.5713135, 0.35731533, 0.16617432, -0.73694336, -0.8423519, 0
1024, 3511082008, 0.7384335, -0.06661917, 0.5736156, 0.34831315, 0.98968655, -0.70104784, 1.4534235, 0
1025, 3511098675, 0.7434681, -0.07023321, 0.56921875, 0.3440808, -1.4430486, 0.0064167217, 0.9652796, 0
1026, 3511115342, 0.74934816, -0.07355022, 0.5628794, 0.3410474, -2.3625262, -0.23758426, 0.3708868, 0
1028, 3511148676, 0.7646299, -0.08122975, 0.5445791, 0.33504552, -2.0377889, 0.18932587, 1.2791252, 0
1029, 3511165343, 0.7750141, -0.08417898, 0.53037876, 0.33323294, -1.7840059, -1.1190147, 1.6544743, 0
1030, 3511182010, 0.7874042, -0.0861498, 0.51173335, 0.33283746, -1.3672286, -0.88666725, 1.2635088, 0
1032, 3511215344, 0.8128057, -0.09050386, 0.47367793, 0.32690072, -3.7306702, -1.7462769, -0.70826244, 0
1033, 3511232011, 0.8235209, -0.09009969, 0.45735174, 0.32342494, -2.657763, -1.3619595, 1.3789911, 0
1034, 3511248678, 0.83329046, -0.08803428, 0.4429472, 0.31898892, -1.734711, 0.28807417, 0.3370285, 0
1036, 3511282012, 0.8530074, -0.07850247, 0.4208481, 0.2986328, -3.662159, 1.3749931, 0.89034176, 0
1038, 3511315346, 0.87524086, -0.056438807, 0.4056026, 0.2575532, -0.34154674, 0.35379145, 0.5778141, 0
1040, 3511348680, 0.9002135, -0.03331996, 0.37898794, 0.21202049, -2.34495, -5.284361, 0.025976181, 0
1041, 3511365347, 0.91053516, -0.026030537, 0.3629978, 0.19636625, -2.0553045, -0.7063644, 1.1107922, 0
1043, 3511398681, 0.9272734, -0.014359433, 0.3351811, 0.16640398, -2.6139402, 0.54101086, 1.8637638, 0
1044, 3511415348, 0.93306184, -0.008405197, 0.32614195, 0.15177405, -1.1316111, 0.38906193, 1.7115316, 0
1045, 3511432015, 0.9378784, -0.0019340143, 0.3190047, 0.13673109, -2.7836516, -1.1884452, 1.5881643, 0
1047, 3511465349, 0.9465508, 0.004590586, 0.29814413, 0.123326935, -1.8414465, -0.4570142, -1.8994074, 0
1048, 3511482016, 0.9514913, 0.006513603, 0.28035286, 0.1268989, -1.608031, 0.5558888, 0.15025711, 0
1049, 3511498683, 0.95614153, 0.0071920343, 0.2631055, 0.12882543, -3.1394193, -0.50750685, 0.78946877, 0
1051, 3511532017, 0.9584793, 0.00809766, 0.25459614, 0.128498, -0.3090386, 2.724239, 2.7146215, 0
1053, 3511565351, 0.95979244, 0.015998386, 0.2562202, 0.11389791, -0.65121496, 1.799946, -2.9593291, 0
1055, 3511598685, 0.963316, 0.025343392, 0.24187683, 0.113818064, 2.0408905, -0.2301026, 1.3928652, 0
1056, 3511615352, 0.96353143, 0.032326147, 0.23801802, 0.11827255, 5.2644653, 1.5433283, 1.6434689, 0
1057, 3511632019, 0.9627821, 0.037282344, 0.23843245, 0.12202336, 6.608766, 3.475724, 2.7911615, 0
1059, 3511665353, 0.9593755, 0.038878024, 0.24520473, 0.13431633, 7.554534, -0.6811968, -5.0642023, 0
1060, 3511682020, 0.9554367, 0.035382345, 0.25312752, 0.14796714, 5.456251, 1.4180334, -5.2983847, 0
1061, 3511698687, 0.95407313, 0.036963753, 0.25662783, 0.1503313, -0.3124455, 2.8999236, -5.3380013, 0
1063, 3511732021, 0.9551188, 0.047942426, 0.25163972, 0.14901808, -1.2491945, -1.1861672, -1.5345097, 0
1064, 3511748688, 0.9557426, 0.053766917, 0.24706456, 0.15067652, -3.5986354, -2.4162054, 1.6389198, 0
1066, 3511782022, 0.95623034, 0.060565636, 0.24443503, 0.14928414, 0.7126106, 3.533286, 6.6124706, 0
1068, 3511815356, 0.956169, 0.061893176, 0.24610864, 0.14635459, 1.7536376, -2.0058815, 1.5786715, 0
1070, 3511848690, 0.95598733, 0.0625687, 0.24847682, 0.1432189, -1.0829408, 0.9906799, -1.4877491, 0
1071, 3511865357, 0.9558843, 0.06339405, 0.24984422, 0.1411505, 0.651521, 2.7310588, -0.659997, 0
1072, 3511882024, 0.9555158, 0.06439819, 0.25165302, 0.13997206, 2.1507218, 3.6596422, 0.16442585, 0
1074, 3511915358, 0.95549846, 0.06450525, 0.25347942, 0.13670777, 5.0590677, 0.6102758, 2.0618467, 0
1075, 3511932025, 0.95593864, 0.06351084, 0.25378314, 0.13349456, 2.8563192, -1.9935266, -0.30348873, 0
1076, 3511948692, 0.9562091, 0.06302275, 0.25442082, 0.13054201, 2.927042, 0.006538718, -2.4885883, 0
1078, 3511982026, 0.95841515, 0.060322035, 0.24955708, 0.12490742, 2.2786145, 1.5452226, 0.5162716, 0
1079, 3511998693, 0.95968074, 0.058768127, 0.24629015, 0.12238975, 1.9842094, -2.0266297, -0.10224819, 0
1080, 3512015360, 0.96078295, 0.05726353, 0.24334988, 0.120319374, 3.43161, -2.0153282, -0.11952019, 0
1082, 3512048694, 0.9624108, 0.05461681, 0.23918907, 0.11683332, 1.219503, 1.1564318, 0.08326435, 0
1083, 3512065361, 0.9628742, 0.053504303, 0.23847927, 0.11496673, 0.7004904, 0.89296794, -0.5587387, 0
1084, 3512082028, 0.96331114, 0.052341647, 0.23775259, 0.11333468, 1.1833361, -0.42004928, 0.019158363, 0
1086, 3512115362, 0.96389425, 0.051072374, 0.23663439, 0.111276984, 0.6726237, -0.06603486, 0.26185417, 0
1087, 3512132029, 0.9642264, 0.050708603, 0.23570508, 0.110536024, 0.57756186, -0.09007368, 0.9556513, 0
1088, 3512148696, 0.9643827, 0.05058751, 0.23526968, 0.11015499, -0.7730474, -0.079881996, 0.78846264, 0
1090, 3512182030, 0.96452063, 0.050447438, 0.23487927, 0.10984474, -0.9647256, -0.10435888, 0.3648386, 0
1091, 3512198697, 0.9646978, 0.04999512, 0.23439117, 0.10953755, 0.22767489, -0.34776682, 0.46218586, 0
1093, 3512232031, 0.9649568, 0.049870014, 0.23316288, 0.10993354, -0.49862668, 0.08510397, 0.59511566, 0
1095, 3512265365, 0.96543854, 0.04907687, 0.23096634, 0.11069471, -0.46889582, -0.93793815, 0.43016434, 0
1097, 3512298699, 0.9657723, 0.04862795, 0.22903544, 0.11198711, 0.3167987, -0.92536163, 0.48979187, 0
1098, 3512315366, 0.9659952, 0.04827389, 0.22783208, 0.11266977, -0.35984215, -0.2191418, 0.16082, 0
1099, 3512332033, 0.9662314, 0.047567647, 0.22681022, 0.11300518, -0.42265913, 0.34123784, 0.05097294, 0
1101, 3512365367, 0.9670112, 0.04501395, 0.22397555, 0.113036245, 0.14808202, -0.7463263, 0.8402605, 0
1102, 3512382034, 0.9673916, 0.043568447, 0.22262588, 0.113013245, 0.5620886, -0.58826363, 0.5812216, 0
1103, 3512398701, 0.96780735, 0.04196928, 0.22122651, 0.112806484, 0.6840517, -0.73892266, 0.32199097, 0
1105, 3512432035, 0.9681785, 0.038718518, 0.2205643, 0.11207952, 0.3616101, 0.061716173, 0.627408, 0
1106, 3512448702, 0.96834075, 0.037250176, 0.22032684, 0.11164079, 0.20153904, -0.21229748, 0.46982574, 0
1107, 3512465369, 0.9685214, 0.03583455, 0.22007228, 0.1110379, -0.37516317, -0.18952705, 0.46445942, 0
1110, 3512515370, 0.968814, 0.0337679, 0.21936375, 0.11053362, -0.4002037, 0.29188564, 0.61859894, 0
1111, 3512532037, 0.9686619, 0.033682328, 0.22001457, 0.11059992, 0.25035074, 0.050760392, 0.8441067, 0
1113, 3512565371, 0.96749085, 0.035972223, 0.22475527, 0.11059585, -2.4842646, 0.4102926, 0.110710144, 0
1114, 3512582038, 0.9671018, 0.037413932, 0.22587667, 0.11123444, -1.7137275, -0.35984957, 1.0835762, 0
1115, 3512598705, 0.9668803, 0.039015118, 0.22578423, 0.11278649, -1.1213831, -2.0917468, 1.2792196, 0
1117, 3512632039, 0.9659764, 0.042757582, 0.22693792, 0.11678903, -2.3100414, 0.9436469, 1.1453848, 0
1118, 3512648706, 0.9652045, 0.04430907, 0.22915743, 0.11824895, -2.9207273, 0.7490702, 1.5231724, 0
1120, 3512682040, 0.96252, 0.04846562, 0.23838285, 0.12024569, -3.5678284, 1.5045187, 0.32307816, 0
1121, 3512698707, 0.96144485, 0.05032145, 0.2414528, 0.1219468, -3.434391, -1.0465654, 1.7955208, 0
1122, 3512715374, 0.9607886, 0.052142806, 0.24276792, 0.12372956, -4.664562, -2.3994641, 1.1566372, 0
1125, 3512765375, 0.9565335, 0.05784404, 0.25710058, 0.12520404, -5.3272157, 3.4100277, 0.3431778, 0
1126, 3512782042, 0.95604616, 0.058989264, 0.25946873, 0.12349483, -5.5083785, 1.8167582, 1.5542974, 0
1128, 3512815376, 0.9572693, 0.06085567, 0.25604677, 0.120212466, -3.3617566, -1.5256493, 1.848589, 0
1129, 3512832043, 0.9573092, 0.06222759, 0.25616103, 0.118942454, -4.346731, 1.0154651, -0.33240795, 0
1130, 3512848710, 0.95621365, 0.06470763, 0.26062137, 0.11672037, -1.0584956, 4.8965955, 3.095008, 0
1133, 3512898711, 0.9582564, 0.07093099, 0.25780532, 0.10163121, 2.7371724, -0.69751555, -2.2375264, 0
1134, 3512915378, 0.9621652, 0.071700856, 0.24422313, 0.097627886, 0.80963343, 3.635208, -2.4184518, 0
1136, 3512948712, 0.96383864, 0.07658988, 0.23857367, 0.091163166, 5.9778347, 6.3974323, 8.787516, 0
1137, 3512965379, 0.9634406, 0.07858715, 0.24105296, 0.087056026, 5.5532346, 4.309816, 2.348464, 0
1138, 3512982046, 0.962682, 0.08001215, 0.24491748, 0.083281666, 4.239275, -0.02425388, -4.7438054, 0
1141, 3513032047, 0.965272, 0.08517172, 0.23604888, 0.073182516, -0.11041132, 0.6107459, 0.7472439, 0
1142, 3513048714, 0.9665761, 0.085256174, 0.23175465, 0.06950401, 5.029584, -2.6924262, 6.774622, 0
1144, 3513082048, 0.9675353, 0.08366776, 0.23016626, 0.06306818, 7.285992, -0.54814285, 5.5785675, 0
1145, 3513098715, 0.96805, 0.081201635, 0.22998962, 0.05889921, 2.5358286, -0.40997672, -2.306723, 0
1146, 3513115382, 0.9687136, 0.07860266, 0.22902676, 0.05514784, -1.0308924, -0.3006256, -4.5339146, 0
1148, 3513148716, 0.97031367, 0.073096305, 0.22546384, 0.048923686, 2.3929856, -0.42249405, 2.3626661, 0
1149, 3513165383, 0.9708649, 0.07062136, 0.2243331, 0.046771616, 3.414989, -1.9755166, 2.1645193, 0
1151, 3513198717, 0.9713626, 0.066660225, 0.22383338, 0.044594765, 2.1611507, -0.030887088, -0.8743954, 0
1152, 3513215384, 0.97168106, 0.064883485, 0.2231259, 0.04381597, 1.1623937, -0.9345849, -1.1711197, 0
1153, 3513232051, 0.9720247, 0.06334506, 0.2221099, 0.043608114, 0.74900836, -1.3462023, -0.8917713, 0
1155, 3513265385, 0.9724298, 0.061593376, 0.22044894, 0.045474127, 2.1999643, -0.3209973, 1.0343342, 0
1156, 3513282052, 0.972622, 0.060528755, 0.21968415, 0.046479255, 2.8302317, -0.29646677, 1.212472, 0
1157, 3513298719, 0.9727069, 0.059565786, 0.21935555, 0.04749106, 2.0842323, -1.3614337, -0.69186115, 0
1159, 3513332053, 0.9729513, 0.05725947, 0.21821496, 0.05047992, 1.479574, -1.3941023, -0.40946198, 0
1160, 3513348720, 0.97320014, 0.05578528, 0.2171819, 0.051772982, 0.9932024, -1.3777494, 0.79018784, 0
1161, 3513365387, 0.9734326, 0.054048836, 0.21631877, 0.05284582, 1.1134104, -0.6770063, 0.19219685, 0
1163, 3513398721, 0.97368306, 0.04987948, 0.21555579, 0.05539021, 1.6308246, -0.71530044, 0.7340679, 0
1164, 3513415388, 0.9737026, 0.047920022, 0.21550678, 0.05694589, 0.42512327, -1.2422997, 1.3330622, 0
1165, 3513432055, 0.9735741, 0.04648178, 0.21607485, 0.058167696, -0.47197583, 0.016986063, 0.5063181, 0
1168, 3513482056, 0.9735175, 0.042923268, 0.21591362, 0.062301375, -0.2590664, -0.8316823, 0.93885326, 0
1169, 3513498723, 0.9734402, 0.042141076, 0.21592854, 0.063971, 0.85428286, -1.0230341, 1.5736609, 0
1171, 3513532057, 0.97327244, 0.040901322, 0.21607664, 0.06676648, -0.13933538, 0.6066446, 0.70263195, 0
1172, 3513548724, 0.97310156, 0.040571213, 0.21646552, 0.068183355, -0.8453835, 0.6585464, -0.30584526, 0
1174, 3513582058, 0.9728921, 0.04006235, 0.21656388, 0.07109939, -0.26809976, -0.04199828, 0.13636017, 0
1175, 3513598725, 0.97283036, 0.03971377, 0.21655083, 0.07217052, -0.2779763, -0.07994516, -0.49379635, 0
1176, 3513615392, 0.97288525, 0.039146323, 0.21609424, 0.07310357, 1.1327546, 0.12792699, 0.21560383, 0
1178, 3513648726, 0.97310084, 0.037795883, 0.21474507, 0.07489799, 0.052633766, -0.12851164, -1.1974621, 0
1179, 3513665393, 0.9732299, 0.037058268, 0.2140429, 0.07559583, 0.1133013, -0.25034937, 0.7367058, 0
1180, 3513682060, 0.97340196, 0.036362026, 0.21315792, 0.07621651, -0.1783055, -0.788356, 0.3306837, 0
1183, 3513732061, 0.97365654, 0.034551285, 0.21131712, 0.07888733, 0.1377438, 0.07904775, 0.3552847, 0
1184, 3513748728, 0.97365326, 0.033638105, 0.2111939, 0.07964934, 0.72959226, 0.39288625, -0.12429714, 0
1186, 3513782062, 0.9733865, 0.033035897, 0.21166347, 0.08188339, 0.33422357, -0.030352445, 0.96853447, 0
1187, 3513798729, 0.97307634, 0.033604585, 0.21248314, 0.08320566, 0.16383103, -0.48762435, 1.1539173, 0
1188, 3513815396, 0.9727575, 0.03392348, 0.21361896, 0.08389134, -0.32290193, -0.18950827, 0.48710728, 0
1190, 3513848730, 0.97237766, 0.032625813, 0.21549383, 0.08401639, 1.0045182, -0.44565064, 0.7153406, 0
1191, 3513865397, 0.97216994, 0.031954374, 0.21636266, 0.08444301, 0.6803843, 0.044299066, 0.5779543, 0
1192, 3513882064, 0.97202384, 0.031072684, 0.21698245, 0.08486214, 0.45657265, 0.61193967, 0.5028286, 0
1194, 3513915398, 0.97128534, 0.02960978, 0.2205281, 0.08470184, -1.4322928, 0.044615902, 0.41936016, 0
1195, 3513932065, 0.97070503, 0.029090736, 0.22327955, 0.084325165, -2.4713001, -0.3578543, 0.2023077, 0
1198, 3513982066, 0.9662242, 0.030106686, 0.24207602, 0.083560914, -3.356245, 0.70500064, 1.7978954, 0
1199, 3513998733, 0.96339417, 0.030688595, 0.25290954, 0.08393827, -5.5259852, 1.4293016, 1.2408504, 0
1201, 3514032067, 0.95731604, 0.033712532, 0.27445853, 0.084622115, -6.8906894, -0.67642707, 0.05342388, 0
1202, 3514048734, 0.9562279, 0.03531648, 0.27788624, 0.08508527, -5.71953, -2.8576841, -0.033860207, 0
1203, 3514065401, 0.95616513, 0.037491497, 0.27733245, 0.08665137, -6.349999, -3.4140472, 2.6071281, 0
1205, 3514098735, 0.954364, 0.04150821, 0.28274727, 0.08717529, -7.5193386, 2.3102393, 1.0272388, 0
1206, 3514115402, 0.952151, 0.044033155, 0.29049283, 0.084630616, -6.826719, 2.9945617, 3.2367907, 0
1207, 3514132069, 0.9503517, 0.04756655, 0.2966595, 0.081494294, -5.823862, 2.3179188, -1.6578503, 0
1209, 3514165403, 0.95123374, 0.061789934, 0.2949082, 0.06666557, -2.0965557, -0.18137473, -2.176146, 0
1210, 3514182070, 0.95415586, 0.06433907, 0.28608376, 0.060682, 2.6274064, -4.069381, 1.454771, 0
1213, 3514232071, 0.96093464, 0.06600587, 0.2613228, 0.06353826, 4.131911, 6.062958, 2.8156214, 0
1214, 3514248738, 0.9623447, 0.06619937, 0.25643212, 0.061901502, 4.993324, 3.5834339, 2.7816772, 0
1215, 3514265405, 0.9629284, 0.06761253, 0.2543066, 0.060038567, 2.1945286, 0.984556, -3.3670497, 0
1217, 3514298739, 0.9628564, 0.0723141, 0.25404158, 0.05674492, 4.410846, 0.21526167, -3.548489, 0
1218, 3514315406, 0.9649696, 0.07377614, 0.24591042, 0.054753274, 2.8625426, 1.8618102, -3.157905, 0
1219, 3514332073, 0.96728474, 0.074211515, 0.23696898, 0.052702382, 0.9544022, 1.2988683, -0.95603657, 0
1221, 3514365407, 0.9695015, 0.07455319, 0.22863308, 0.04810983, 3.2974215, -0.64088213, 5.1207056, 0
1222, 3514382074, 0.9697782, 0.07404318, 0.22821862, 0.045202255, 6.073278, 1.7069387, 5.1737347, 0
1223, 3514398741, 0.97010916, 0.07239705, 0.22795536, 0.0419797, 5.692432, 0.61590505, 3.2314053, 0
1225, 3514432075, 0.9707865, 0.06810256, 0.22754373, 0.03518863, 0.33806068, -0.46846914, -2.1583285, 0
1226, 3514448742, 0.97127944, 0.06570532, 0.22659545, 0.032131523, 1.1647165, -1.0996001, -0.44706535, 0
1228, 3514482076, 0.9721952, 0.061289433, 0.22433564, 0.028851539, 5.1424427, -1.4086149, 1.4617844, 0
1229, 3514498743, 0.97224873, 0.059552666, 0.22457547, 0.02882059, 3.4323404, -1.7804439, -1.1197348, 0
1230, 3514515410, 0.9716224, 0.05813867, 0.22761138, 0.029011592, 6.137577, -0.656324, -2.6723967, 0
1232, 3514548744, 0.97247237, 0.05548528, 0.22438891, 0.03078571, -2.5909111, 0.21653035, -2.8722486, 0
1233, 3514565411, 0.9716014, 0.05466993, 0.22818767, 0.03180264, 5.4389567, 0.83214366, -3.1662407, 0
1234, 3514582078, 0.97086, 0.053958062, 0.2310373, 0.034930915, -1.5848893, -1.1273344, -2.185557, 0
1236, 3514615412, 0.9691041, 0.053545814, 0.23735338, 0.041380122, -0.2743307, -0.5988654, -0.36724567, 0
1237, 3514632079, 0.9677123, 0.05421521, 0.24220248, 0.044840068, 0.9522328, -1.3068728, 1.1093779, 0
1240, 3514682080, 0.9611604, 0.05542046, 0.26494765, 0.05459836, -0.111499295, 0.15016319, 0.14635658, 0
1241, 3514698747, 0.9574495, 0.055203967, 0.2774678, 0.057735913, 0.11597046, -0.013643874, 2.2965202, 0
1242, 3514715414, 0.9539844, 0.054369625, 0.28877625, 0.06037438, -0.15113561, 0.067520805, 0.24302197, 0
1244, 3514748748, 0.9443194, 0.053228956, 0.31764776, 0.06786984, -0.4771237, 1.5325357, 0.707984, 0
1249, 3514832083, 0.90853375, 0.03934647, 0.40896508, 0.076450445, 0.5854371, 1.3654726, -1.1886625, 0
1250, 3514848750, 0.89804596, 0.037050202, 0.43080574, 0.08140066, -0.1134566, 2.326712, 1.058384, 0
1252, 3514882084, 0.87256765, 0.02907864, 0.47863337, 0.09364468, -0.3408871, -0.22621042, -0.40171432, 0
1253, 3514898751, 0.85787904, 0.022827908, 0.5033896, 0.10099686, -0.07637773, -2.604502, -1.8818789, 0
1254, 3514915418, 0.84269994, 0.01621493, 0.5267489, 0.1104922, 0.61760664, -1.6437795, -0.62886906, 0
1256, 3514948752, 0.81702507, 0.0019597337, 0.5620672, 0.12894042, -5.1941476, -0.22596711, -4.4343786, 0
1259, 3514998753, 0.775056, -0.012469947, 0.6128924, 0.15353973, 0.2112605, 0.643885, -1.1091347, 0
1260, 3515015420, 0.7608411, -0.017663643, 0.6298148, 0.15563099, -3.608526, 0.98927784, -4.6660438, 0
1261, 3515032087, 0.7476978, -0.02016037, 0.6449539, 0.15701912, -4.3922815, -0.0068588583, -1.6228123, 0
1263, 3515065421, 0.72857875, -0.018939763, 0.6649945, 0.16332676, -1.5217811, -0.5549694, 1.190465, 0
1264, 3515082088, 0.72115064, -0.01707051, 0.67239416, 0.16617842, -0.09306317, -0.28121874, 2.0169983, 0
1265, 3515098755, 0.7148012, -0.014287576, 0.67866904, 0.16835192, -2.07089, 0.04310517, 1.7286148, 0
1267, 3515132089, 0.7039156, -0.008409105, 0.6891313, 0.17207311, -1.8098615, 0.6711948, -1.3460064, 0
1268, 3515148756, 0.70068324, -0.006653905, 0.69227046, 0.17274098, -0.446985, -1.2257196, 0.040020943, 0
1269, 3515165423, 0.7003378, -0.004821956, 0.6928724, 0.17178564, -0.6254668, -2.160071, -0.7863722, 0
1271, 3515198757, 0.70127594, 0.0028076768, 0.6914398, 0.17376408, -0.86513525, 0.14117439, -0.28415012, 0
1273, 3515232091, 0.7078047, 0.010895044, 0.68409413, 0.1760342, 0.97636515, 0.031388916, 1.1904125, 0
1275, 3515265425, 0.71859515, 0.027271703, 0.6710475, 0.18069743, 1.1429098, -0.28102824, 1.3449488, 0
1276, 3515282092, 0.7222506, 0.04390698, 0.6640768, 0.18843395, 1.7882775, 2.871551, 0.31859016, 0
1277, 3515298759, 0.7220308, 0.065733634, 0.6586812, 0.2014164, 0.45160276, 3.3853602, 0.015234947, 0
1279, 3515332093, 0.71123487, 0.12459617, 0.6484747, 0.24120605, 0.15163969, 6.3994565, 3.8107748, 0
1280, 3515348760, 0.70915973, 0.15858394, 0.63624406, 0.25926083, 0.8336159, 5.094976, 2.5510406, 0
1282, 3515382094, 0.7254196, 0.19742766, 0.5983023, 0.27731234, 7.969071, 12.736668, -7.75467, 0
1283, 3515398761, 0.7495048, 0.1967645, 0.5815103, 0.24789295, 8.371757, 20.211885, -2.6974773, 0
1284, 3515415428, 0.78145814, 0.18933216, 0.5565206, 0.20938082, 4.054132, 3.7369068, 1.7327518, 0
1286, 3515448762, 0.83444864, 0.13910839, 0.5099628, 0.15608084, -0.7106233, -9.819594, -3.1172314, 0
1288, 3515482096, 0.86250126, 0.09320565, 0.47734633, 0.1400846, -0.2723756, -6.9038405, -6.858708, 0
1290, 3515515430, 0.87585807, 0.076448135, 0.45454144, 0.14317547, 1.0494322, -8.305934, 1.3800297, 0
1291, 3515532097, 0.8822075, 0.069563955, 0.43951467, 0.1541967, 2.4593897, -8.91444, 1.2046318, 0
1292, 3515548764, 0.887218, 0.059879877, 0.4251629, 0.16903886, 4.626486, -5.72224, -0.990715, 0
1294, 3515582098, 0.89060956, 0.051987924, 0.4074636, 0.19535702, 5.908913, 0.6704296, -2.2551847, 0
1295, 3515598765, 0.8912437, 0.056235664, 0.40246174, 0.20155823, 6.738332, 1.1363918, 0.45516968, 0
1296, 3515615432, 0.8928971, 0.060441427, 0.3973442, 0.20317018, 6.9856095, -1.0513889, -0.9544134, 0
1298, 3515648766, 0.895449, 0.059325747, 0.39128873, 0.20401919, 9.900681, -1.6455991, -1.2640133, 0
1299, 3515665433, 0.89452505, 0.05654332, 0.3913328, 0.20872304, 12.169895, -0.94395536, -4.7562366, 0
1300, 3515682100, 0.89023864, 0.04993929, 0.39837363, 0.21531032, 15.987558, -0.21884428, -7.789194, 0
1302, 3515715434, 0.8697515, 0.03798455, 0.43837607, 0.22359544, 26.178883, 2.7463653, -9.978671, 0
1303, 3515732101, 0.85209733, 0.037464008, 0.47423065, 0.21842885, 31.493744, 2.6037676, -6.4610453, 0
1304, 3515748768, 0.839558, 0.0059851557, 0.49998683, 0.21259972, 13.979579, 7.4601884, 26.38971, 0
1306, 3515782102, 0.8392726, -0.027848497, 0.4976376, 0.21744365, -24.673828, -3.963183, 7.825365, 0
1307, 3515798769, 0.85174805, -0.027312566, 0.4741919, 0.2213602, -5.788566E-4, -3.5732887, 7.367813, 0
1309, 3515832103, 0.8830385, -0.037649658, 0.41931954, 0.2075474, -2.3777454, 1.5637518, 0.010939598, 0
1310, 3515848770, 0.8893724, -0.03955666, 0.40936413, 0.19987999, -6.715643, 0.5976848, -0.21423721, 0
1311, 3515865437, 0.88589835, -0.043843556, 0.41921234, 0.19391236, -8.458669, 0.3450291, -0.38031292, 0
1313, 3515898771, 0.8482519, -0.06341333, 0.4934249, 0.18181923, -3.610001, -0.9262989, -1.9379239, 0
1315, 3515932105, 0.7579813, -0.08927804, 0.62491906, 0.16446526, -6.0687065, -0.99143755, 3.432538, 0
1317, 3515965439, 0.6222798, -0.07032691, 0.7713553, 0.11363027, 6.462771, 6.996824, 20.05192, 0
1318, 3515982106, 0.5531906, -0.02843982, 0.83130515, 0.046714883, 3.863025, 7.4082665, 57.32266, 0
1319, 3515998773, 0.5180957, -0.012717366, 0.8550463, -0.019760609, -0.2938992, -19.942238, 31.950489, 0
1321, 3516032107, 0.44532067, -0.032426387, 0.89482605, 0.0018746182, -2.7961874, 7.2927194, 2.2697878, 0
1322, 3516048774, 0.4124464, -0.03725311, 0.91026217, 0.0014389455, -21.724833, 1.8805175, -1.4397669, 0
1323, 3516065441, 0.38960475, -0.041934177, 0.9200689, 0.0014264137, -18.927414, 2.6739542, -6.712761, 0
1325, 3516098775, 0.36051035, -0.062005505, 0.93069, -0.009099849, -17.443415, 5.021037, -6.491221, 0
1326, 3516115442, 0.3517602, -0.08193056, 0.9324047, -0.015900344, -16.887005, 1.5020049, -8.157872, 0
1327, 3516132109, 0.34321666, -0.10395954, 0.9332806, -0.021472625, -15.882526, -1.8693969, -10.792179, 0
1330, 3516182110, 0.32943028, -0.1468863, 0.93232244, -0.027458433, -14.099329, -5.3559775, -14.5722275, 0
1331, 3516198777, 0.33475813, -0.15383087, 0.9293252, -0.026584148, -11.233793, -6.5132885, -14.742193, 0
1333, 3516232111, 0.35072166, -0.16995776, 0.9208796, -0.0129779205, -9.144214, -7.1205883, -15.172319, 0
1334, 3516248778, 0.36423007, -0.1769575, 0.91438586, 5.479902E-4, -8.738658, -5.278605, -13.465865, 0
1336, 3516282112, 0.4119949, -0.17422359, 0.8940162, 0.0268379, -8.605491, -2.5188076, -8.033442, 0
1337, 3516298779, 0.44453084, -0.16811559, 0.8790956, 0.03740676, -4.72329, -0.37517035, -6.020486, 0
1338, 3516315446, 0.47766796, -0.16222438, 0.8624553, 0.04202697, -2.5766892, 1.8150492, -3.9137697, 0
1340, 3516348780, 0.54646087, -0.14421591, 0.8240528, 0.03997986, -2.7417293, -0.091355525, -0.93051624, 0
1341, 3516365447, 0.57990336, -0.13134989, 0.80301654, 0.041265085, -2.2901022, -0.4015868, -0.77442646, 0
1342, 3516382114, 0.61247826, -0.11471252, 0.78086287, 0.0452061, -2.4370587, 2.0974414, 0.5975437, 0
1345, 3516432115, 0.7076708, -0.05750475, 0.7028364, 0.044668563, -2.775172, 6.419358, 4.6348276, 0
1346, 3516448782, 0.7384859, -0.040983886, 0.67192477, 0.03943333, -0.5338282, 6.923625, 2.7804575, 0
1348, 3516482116, 0.79155797, -0.0084574595, 0.6103232, 0.030806012, -3.3322752, 3.2598383, 6.6281586, 0
1349, 3516498783, 0.8171929, 0.0064315572, 0.5754459, 0.033096537, -2.8799844, 2.9905858, 7.9399357, 0
1350, 3516515450, 0.8409096, 0.020398118, 0.5395523, 0.03765112, 0.20670682, 2.8643103, 5.839452, 0
1352, 3516548784, 0.8791377, 0.051042013, 0.47179297, 0.0447452, 2.2303314, 2.9356856, 8.131847, 0
1353, 3516565451, 0.89536405, 0.06561445, 0.43786475, 0.048697464, 2.163492, 2.1547453, 7.3390045, 0
1354, 3516582118, 0.90911734, 0.077858075, 0.40560243, 0.054862298, 2.7768426, 2.5868387, 6.1873035, 0
1356, 3516615452, 0.9296612, 0.10504219, 0.34588867, 0.07166735, 5.489437, 3.1483963, 7.5985775, 0
1357, 3516632119, 0.936769, 0.12153995, 0.31825578, 0.0805251, 6.9186444, 2.7812216, 5.931882, 0
1360, 3516682120, 0.94760925, 0.16153067, 0.25131118, 0.11342944, 11.99006, 0.89812213, 3.8935757, 0
1361, 3516698787, 0.9500224, 0.16551714, 0.23336658, 0.12522253, 13.2227745, 1.6125845, 0.14556599, 0
1363, 3516732121, 0.95169294, 0.17415167, 0.20885469, 0.14286593, 15.914575, 2.8249626, -5.0280566, 0
1364, 3516748788, 0.95068574, 0.1844517, 0.20103064, 0.14778328, 16.387083, 2.4354916, -6.8606777, 0
1365, 3516765455, 0.9492659, 0.1953324, 0.19656488, 0.14893217, 15.789023, 1.080442, -8.004425, 0
1367, 3516798789, 0.9471816, 0.20786816, 0.19961935, 0.14095852, 12.879359, -0.040941205, -8.337672, 0
1368, 3516815456, 0.9464545, 0.20891586, 0.20652404, 0.13418257, 12.184659, -1.0246404, -7.1423497, 0
1369, 3516832123, 0.9459033, 0.20662029, 0.21533504, 0.12761164, 12.613638, -1.4154302, -6.246021, 0
1371, 3516865457, 0.94516695, 0.19739312, 0.23228145, 0.117556974, 13.169033, -2.939802, -6.350094, 0
1372, 3516882124, 0.9443851, 0.19103444, 0.24244757, 0.11375789, 12.280247, -2.954036, -8.282555, 0
1373, 3516898791, 0.94207615, 0.18468082, 0.25723383, 0.11088463, 12.1503105, -2.9368582, -9.001055, 0
1375, 3516932125, 0.9319634, 0.17584759, 0.2977586, 0.10927388, 15.90211, -2.686544, -6.800867, 0
1376, 3516948792, 0.9252324, 0.17094736, 0.3210646, 0.10825235, 20.540974, -2.6034029, -6.368037, 0
1377, 3516965459, 0.91670054, 0.1650931, 0.3487344, 0.10424895, 23.40601, -3.5313096, -7.7610097, 0
1379, 3516998793, 0.88734686, 0.15274608, 0.4252919, 0.092140846, 15.175387, -26.74062, 19.151272, 0
1380, 3517015460, 0.8958491, 0.0824089, 0.4206099, 0.117599845, 10.228088, 8.036322, 18.45803, 0
1381, 3517032127, 0.89630705, 0.054697283, 0.42034984, 0.1304869, 3.0169735, 30.332489, 16.072437, 0
1383, 3517065461, 0.9078035, 0.04003568, 0.39371043, 0.13914414, -19.037596, 8.17826, 3.9501925, 0
1384, 3517082128, 0.9101601, 0.037362434, 0.38890216, 0.1380112, -4.6371393, -0.3014458, 1.2845774, 0
1387, 3517132129, 0.90036875, 0.033235975, 0.41155085, 0.13761002, 0.36381745, -1.9897668, 0.22865391, 0
1388, 3517148796, 0.8968838, 0.02968251, 0.4200213, 0.1355719, -0.5548761, -1.5014253, 0.6326971, 0
1389, 3517165463, 0.89268965, 0.023518078, 0.43027475, 0.13226798, -0.81476206, -0.30880317, 0.5677223, 0
1391, 3517198797, 0.8775401, 0.0094743, 0.462176, 0.12769446, -2.6790946, 0.2755238, -0.43677044, 0
1392, 3517215464, 0.8631053, 0.0011963248, 0.4891672, 0.12586723, -1.5398234, -1.0774249, -0.12912464, 0
1394, 3517248798, 0.8255942, -0.017425172, 0.5510972, 0.12025607, -0.029180976, -0.06822078, -0.19678307, 0
1395, 3517265465, 0.8022385, -0.027442098, 0.5849873, 0.11631431, -1.1469086, -0.4027024, 0.029390335, 0
1396, 3517282132, 0.7730615, -0.037415035, 0.6235477, 0.11064921, -1.8673489, 0.79050374, -0.1733532, 0
1398, 3517315466, 0.6760873, -0.044937685, 0.7290514, 0.097209014, -10.799814, 5.2850685, 6.2219296, 0
1399, 3517332133, 0.59770817, -0.021892607, 0.7969219, 0.085206576, -15.96532, 2.072393, 20.81295, 0
1402, 3517382134, 0.46328688, 0.117806554, 0.8779969, -0.02621644, -0.23933052, -12.183253, 21.464247, 0
1403, 3517398801, 0.4228544, 0.109468296, 0.8990231, -0.03236275, -1.6290042, 12.471209, 6.6940765, 0
1404, 3517415468, 0.379874, 0.10372867, 0.9185462, -0.035888955, -32.927654, -7.498072, -7.6863194, 0
1406, 3517448802, 0.30665156, 0.0911745, 0.9474579, -0.0073943175, -20.427574, 8.957927, -21.917347, 0
1407, 3517465469, 0.2764606, 0.08245067, 0.95750326, 0.006184615, -23.578138, 3.0754306, -41.00871, 0
1408, 3517482136, 0.26880163, 0.0723376, 0.96000075, 0.03147141, -30.49031, 3.4179597, -43.778145, 0
1410, 3517515470, 0.3459347, 0.040294528, 0.9347616, 0.07074769, -19.24081, 3.9658425, -6.2769403, 0
1411, 3517532137, 0.40803954, 0.028920382, 0.9098909, 0.06960459, -8.459872, 4.0009623, 8.504992, 0
1412, 3517548804, 0.46370706, 0.03019388, 0.88410515, 0.050011266, 9.121504, 4.9291453, 9.834017, 0
1414, 3517582138, 0.5135245, 0.03406349, 0.85744053, -0.0026176274, 1.8850456, -1.8218548, 4.517905, 0
1417, 3517632139, 0.55653656, 0.023537874, 0.8302171, -0.023059905, -1.6081063, 4.198248, -1.641098, 0
1418, 3517648806, 0.5708717, 0.026695862, 0.81996673, -0.033562914, -0.6298177, 4.0165396, -2.816471, 0
1419, 3517665473, 0.5841465, 0.031243488, 0.80970526, -0.04746999, -2.6151981, 0.092312865, -2.965733, 0
1421, 3517698807, 0.60535496, 0.028222546, 0.79364, -0.054434396, -5.64829, 0.5776675, -2.5912642, 0
1422, 3517715474, 0.61951447, 0.033065423, 0.7823528, -0.05578223, -4.162966, 4.8864994, -0.648715, 0
1423, 3517732141, 0.637409, 0.04337068, 0.7668345, -0.062230535, -2.423497, 4.364077, -1.6349878, 0
1425, 3517765475, 0.6729482, 0.059724957, 0.7333196, -0.076778755, -1.7616048, 2.7029757, -3.5027266, 0
1426, 3517782142, 0.69043064, 0.06334214, 0.71603584, -0.081640154, -2.9752495, 2.30257, -2.1494532, 0
1427, 3517798809, 0.7091942, 0.0657154, 0.6971258, -0.08258177, -3.0506659, 1.8370391, -0.51716614, 0
1429, 3517832143, 0.75003356, 0.079457484, 0.6512395, -0.08427608, 2.274961, 3.2787554, 1.5010738, 0
1431, 3517865477, 0.7874882, 0.09203606, 0.60272485, -0.09051727, 1.0827466, 1.9980918, 2.3588133, 0
1433, 3517898811, 0.8240324, 0.101530544, 0.5503005, -0.088940024, -0.5382996, 2.0347054, 1.8549213, 0
1434, 3517915478, 0.8413553, 0.108418286, 0.522959, -0.08342394, 1.5443858, 2.7502375, 4.810766, 0
1435, 3517932145, 0.857763, 0.1135994, 0.49534854, -0.0777598, 4.099159, 1.8662508, 5.4370337, 0
1437, 3517965479, 0.8851103, 0.11581198, 0.44461143, -0.07461198, 5.6687016, 0.49211183, 3.7847662, 0
1438, 3517982146, 0.89673483, 0.11548501, 0.4206224, -0.075403616, 3.7604442, -1.281917, 3.908473, 0
1439, 3517998813, 0.90763456, 0.11458844, 0.39694467, -0.074720204, 3.1486092, -1.7281064, 2.2518625, 0
1441, 3518032147, 0.92548496, 0.11992483, 0.35330474, -0.06595561, 2.8806002, -1.2034732, 0.6355219, 0
1442, 3518048814, 0.9324335, 0.12581769, 0.33377606, -0.05839677, 3.1869411, -0.26109174, 0.8452053, 0
1444, 3518082148, 0.94465935, 0.13828321, 0.29461706, -0.042146534, 4.7770185, 0.2113096, 5.0235195, 0
1445, 3518098815, 0.95113426, 0.14246541, 0.27184597, -0.035012886, 5.897696, 0.85174674, 4.1996555, 0
1446, 3518115482, 0.9570783, 0.14624122, 0.24866575, -0.029308334, 6.7675867, 0.9285297, 2.2885523, 0
1448, 3518148816, 0.9663191, 0.14907643, 0.20879905, -0.022035807, 8.294331, -0.20797746, -0.8091221, 0
1449, 3518165483, 0.96853787, 0.15391327, 0.19467136, -0.020668194, 8.475798, -0.439983, -4.5260086, 0
1450, 3518182150, 0.9684517, 0.16265002, 0.18791354, -0.020346045, 8.526482, -1.8179127, -6.1398554, 0
1452, 3518215484, 0.96352035, 0.18663599, 0.19115777, -0.018251956, 11.33588, -4.389779, -2.9052763, 0
1453, 3518232151, 0.96076256, 0.19654568, 0.19533113, -0.015161291, 13.9677925, -6.6659007, -3.8308673, 0
1454, 3518248818, 0.95870477, 0.2004199, 0.20163071, -0.011875525, 16.462692, -7.569482, -7.5085297, 0
1456, 3518282152, 0.9497012, 0.20148462, 0.23975915, -0.008132502, 20.623293, -7.787912, -14.256311, 0
1458, 3518315486, 0.93370044, 0.201199, 0.2962562, -0.0057929605, 25.39093, -9.159338, -7.7641287, 0
1460, 3518348820, 0.9140635, 0.18654327, 0.36014372, -0.008057833, 25.458483, -10.659501, -10.949238, 0
1461, 3518365487, 0.89814687, 0.18120714, 0.40059823, -0.009817556, 24.097466, -12.015498, -7.7061806, 0
1462, 3518382154, 0.8773289, 0.17897108, 0.44526374, -0.00909014, 23.990828, -12.246874, -3.340848, 0
1464, 3518415488, 0.8654233, 0.12542188, 0.48503646, 0.011415526, 7.233748, 16.034264, 0.31428146, 0
1465, 3518432155, 0.87543255, 0.10687473, 0.4709176, 0.022610247, -17.601107, 17.286186, 19.072266, 0
1466, 3518448822, 0.8900119, 0.093571626, 0.44525504, 0.030818477, -10.755302, 4.1103773, 3.3547506, 0
1468, 3518482156, 0.89435977, 0.08086076, 0.43922287, 0.027281404, -5.1288085, 2.8817701, -0.003033638, 0
1469, 3518498823, 0.8870846, 0.07847229, 0.45413294, 0.027663633, 0.16287859, 3.4181287, -1.4659271, 0
1471, 3518532157, 0.8764475, 0.07591721, 0.47448698, 0.03189543, 2.980924, -4.0159407, 0.5477562, 0
1473, 3518565491, 0.8768743, 0.0647598, 0.47573325, 0.025577277, -1.0236107, 1.0177405, -0.014624596, 0
1475, 3518598825, 0.8586164, 0.055029206, 0.5092238, 0.022794127, -5.6332564, 0.09246566, -1.3077211, 0
1476, 3518615492, 0.83416724, 0.04781179, 0.5490486, 0.022445098, -4.4016485, 0.07537899, -1.5515957, 0
1477, 3518632159, 0.7966035, 0.041346654, 0.6027349, 0.022426277, -3.2905102, 1.6150322, -1.1102371, 0
1479, 3518665493, 0.66982806, 0.04147096, 0.7411384, 0.02008485, -9.690263, 6.9737287, 7.6837864, 0
1480, 3518682160, 0.5786318, 0.059188724, 0.8133236, 0.016294993, -18.906006, 4.6373, 23.159283, 0
1481, 3518698827, 0.5026101, 0.106671646, 0.85779655, -0.01638411, -37.650433, 18.680069, 55.975628, 0
1483, 3518732161, 0.4578174, 0.13819523, 0.875606, -0.06854373, -5.2654963, -22.2207, 11.338022, 0
1484, 3518748828, 0.4192554, 0.13814183, 0.895236, -0.06142755, -4.145141, 11.66001, 4.7551823, 0
1485, 3518765495, 0.3789034, 0.12875973, 0.91447324, -0.060586818, -27.43129, 10.758503, -2.6626358, 0
1488, 3518815496, 0.29825017, 0.07632293, 0.9510972, -0.02673436, -26.090342, 8.846574, -18.02047, 0
1489, 3518832163, 0.29437527, 0.05420673, 0.9540826, -0.014494926, -22.051886, 5.767273, -18.450539, 0
1491, 3518865497, 0.33121425, 0.016593888, 0.9434283, -0.006610114, -14.631616, 1.7110599, -9.318229, 0
1492, 3518882164, 0.366236, 0.0040893108, 0.93051153, -0.009027928, -10.7679615, -2.1757202, -6.382888, 0
1493, 3518898831, 0.40348047, -0.0067014545, 0.9149742, -0.0077248514, -6.45178, -4.727778, -5.1909204, 0
1495, 3518932165, 0.46871698, -0.02416122, 0.8830514, 0.004466623, -1.282084, 0.99651766, -4.3981476, 0
1496, 3518948832, 0.4993274, -0.029737934, 0.86594015, 0.003812626, -0.6305205, 4.1824865, -3.0809655, 0
1497, 3518965499, 0.5319419, -0.031523257, 0.84622395, -0.0052953735, -2.3945982, 5.1753416, -0.93840027, 0
1499, 3518998833, 0.60412675, -0.027807869, 0.79581386, -0.03188534, 0.09991401, -0.4916852, 0.17541885, 0
1500, 3519015500, 0.63601786, -0.030274495, 0.77026784, -0.036482833, 2.1841319, -1.5693944, -0.36306667, 0
1503, 3519065501, 0.716609, -0.02996815, 0.6959237, -0.03664142, 3.7579443, 1.4119177, -1.0837011, 0
1504, 3519082168, 0.73958856, -0.02231545, 0.6716986, -0.037560284, 4.93377, 2.1968298, -1.288024, 0
1506, 3519115502, 0.77997947, -0.010817505, 0.6248055, -0.034812212, 2.4577355, -2.8029356, 1.8622913, 0
1507, 3519132169, 0.7996368, -0.010327563, 0.5998076, -0.028001994, 3.804059, -2.0289855, 2.2441816, 0
1508, 3519148836, 0.8173156, -0.0065985247, 0.57598513, -0.01648505, 6.016308, -6.6958365, -1.8548346, 0
1510, 3519182170, 0.8392784, 0.013008885, 0.5427943, 0.029930681, 6.5359926, -3.8888814, 0.74379826, 0
1511, 3519198837, 0.8464062, 0.0245348, 0.5290715, 0.0561836, 7.794436, -2.7235909, -1.0369492, 0
1512, 3519215504, 0.8502703, 0.03296829, 0.5191598, 0.08065732, 7.722634, -2.2781625, -2.0371747, 0
1514, 3519248838, 0.8521091, 0.045644596, 0.50609785, 0.12558094, 5.3457923, -5.014971, -4.7282443, 0
1515, 3519265505, 0.8493256, 0.051191002, 0.50444514, 0.1471043, 5.1539545, -4.7745976, -5.4790125, 0
1516, 3519282172, 0.8446248, 0.059961922, 0.5054981, 0.16602398, 4.5590706, -3.6690893, -1.8197222, 0
1518, 3519315506, 0.84052473, 0.08070344, 0.49843666, 0.19658303, 4.2276964, -2.8101091, 4.0746746, 0
1519, 3519332173, 0.8434267, 0.084759265, 0.48839477, 0.20735653, 5.8030124, -1.1374415, 1.2086573, 0
1520, 3519348840, 0.8472048, 0.08780668, 0.47881064, 0.21296269, 7.1005564, 0.9814929, -1.7997952, 0
1522, 3519382174, 0.84988904, 0.09261021, 0.4745405, 0.20976728, 5.801717, 0.44668654, -4.2951345, 0
1523, 3519398841, 0.8486077, 0.09634493, 0.47877812, 0.20355049, 4.3254538, 1.5920025, 1.0476017, 0
1525, 3519432175, 0.8294431, 0.091067486, 0.517097, 0.19084172, 8.507098, 3.3117523, 13.303505, 0
1526, 3519448842, 0.8331695, 0.088340186, 0.5140061, 0.18412223, 8.366865, 2.8795385, 9.352325, 0
1527, 3519465509, 0.8392864, 0.090807825, 0.50685245, 0.17473277, 3.4879932, -0.12626499, -5.729613, 0
1530, 3519515510, 0.831194, 0.10846893, 0.52511835, 0.14724346, 0.3416546, -0.90816134, 6.437229, 0
1531, 3519532177, 0.8316887, 0.107626304, 0.5257108, 0.14289021, 2.8113606, 0.49821892, 0.6246128, 0
1533, 3519565511, 0.83574045, 0.106709, 0.5200467, 0.14064565, 1.4289167, 1.5640124, 1.8645849, 0
1534, 3519582178, 0.8412408, 0.0945595, 0.51236886, 0.14466994, 1.2318275, 0.8630642, 6.266508, 0
1535, 3519598845, 0.84907776, 0.07101748, 0.50136507, 0.15078254, 1.569958, -0.18500389, -0.04999733, 0
1537, 3519632179, 0.8479444, 0.051574133, 0.5022328, 0.16177638, -1.9790702, -0.9689101, -11.620549, 0
1538, 3519648846, 0.8370326, 0.051945597, 0.5179346, 0.16882147, 3.656882, -3.1077967, 2.462304, 0
1539, 3519665513, 0.83090997, 0.044555917, 0.52666277, 0.17409295, 6.992036, 2.1579697, 7.261017, 0
1541, 3519698847, 0.82089627, 0.029244378, 0.5427375, 0.17546761, 0.92243624, -1.154715, 2.0779839, 0
1542, 3519715514, 0.81235695, 0.025156341, 0.55698335, 0.17114867, 0.06490541, -2.1886232, -2.6409383, 0
1545, 3519765515, 0.781267, 0.012164757, 0.6047664, 0.15430558, 3.8278131, 2.1126297, 1.4384956, 0
1546, 3519782182, 0.7754344, 0.010873504, 0.6123213, 0.15402816, 1.866779, -0.20508216, -0.20626354, 0
1547, 3519798849, 0.7715125, 0.010587111, 0.6168798, 0.1555456, -0.079913706, -0.77186877, -0.090815544, 0
1549, 3519832183, 0.77249753, 0.006719291, 0.6161237, 0.1538602, -2.555851, -0.2918797, 0.8539543, 0
1550, 3519848850, 0.7760106, 0.0033707097, 0.61221105, 0.1518977, -2.9775333, -0.6308781, 0.9719629, 0
1552, 3519882184, 0.78499293, -0.0053699985, 0.6022613, 0.14531839, -3.711765, 0.085639894, 1.9253769, 0
1553, 3519898851, 0.7924189, -0.011414215, 0.5935312, 0.1405046, -4.390581, 4.2278504, -0.6641207, 0
1554, 3519915518, 0.8002106, -0.01661627, 0.58409745, 0.13526273, -5.680402, 1.1435243, -1.2751732, 0
1556, 3519948852, 0.8172193, -0.02497597, 0.5619504, 0.12577581, -2.0083282, -0.63127685, 1.5954123, 0
1557, 3519965519, 0.82678217, -0.027248546, 0.5500711, 0.11484428, -0.18065217, 0.3274895, 2.725463, 0
1560, 3520015520, 0.8522047, 0.022324532, 0.5225106, 0.017614722, -1.7938175, -1.0454867, 0.4920683, 0
1561, 3520032187, 0.8591415, 0.03917811, 0.5098612, -0.021480441, -0.7450686, -0.18264344, -0.29955292, 0
1562, 3520048854, 0.8658308, 0.051373303, 0.49448368, -0.057119817, -2.8327148, -1.3482505, -1.1691847, 0
1564, 3520082188, 0.88159305, 0.06519796, 0.45612577, -0.1028156, -3.541547, 1.7610922, -0.6891041, 0
1565, 3520098855, 0.8919718, 0.06860507, 0.43357456, -0.108496755, -0.6586168, 2.2524018, 0.57231045, 0
1566, 3520115522, 0.9033757, 0.07291252, 0.40881968, -0.10743186, 0.77076554, 1.930366, 1.8683825, 0
1568, 3520148856, 0.9240581, 0.07621546, 0.35890594, -0.10757829, -0.92892456, 0.34370363, -0.82709885, 0
1569, 3520165523, 0.9329125, 0.075329885, 0.33439776, -0.11070871, -0.47014105, -0.27716044, 2.108677, 0
1570, 3520182190, 0.94105697, 0.07401188, 0.30996352, -0.11373411, -3.2671313, 0.15326457, -0.4725914, 0
1572, 3520215524, 0.95418894, 0.07127671, 0.26708537, -0.11483607, -4.7314606, 1.2991992, -0.39594173, 0
1574, 3520248858, 0.9617964, 0.06608218, 0.24135225, -0.11139549, -3.5539176, 1.2948608, 2.6234684, 0
1576, 3520282192, 0.961881, 0.06845594, 0.24183233, -0.10814281, 0.07897914, 4.8843727, 5.2202578, 0
1577, 3520298859, 0.95912266, 0.07360664, 0.25244305, -0.10496223, 1.726549, 5.538312, 2.9422693, 0
1579, 3520332193, 0.9474343, 0.1084244, 0.28492922, -0.0975011, 7.3859053, 4.8203635, 2.5965424, 0
1580, 3520348860, 0.94221, 0.14311033, 0.28620595, -0.09962228, 11.70665, 3.61036, 2.1238155, 0
1581, 3520365527, 0.9360144, 0.17526749, 0.2828239, -0.11509842, 18.352802, -5.398116, 1.4321995, 0
1583, 3520398861, 0.9312067, 0.17195587, 0.29315767, -0.13199589, 7.453497, -17.52173, -19.071342, 0
1584, 3520415528, 0.92673117, 0.17195997, 0.31217602, -0.1192652, 3.3378317, -12.813242, -22.58094, 0
1585, 3520432195, 0.9170598, 0.1793657, 0.34210736, -0.09935027, -6.070042, -9.868587, -23.95897, 0
1587, 3520465529, 0.9358523, 0.13227871, 0.31956518, -0.06811461, -7.2188606, 6.9496536, -0.006275177, 0
1588, 3520482196, 0.9443504, 0.124369666, 0.29557294, -0.073823065, 2.4496062, 3.1665845, 9.07748, 0
1589, 3520498863, 0.95097864, 0.11982791, 0.27431697, -0.078167275, -5.211313, 2.8353713, 0.12509727, 0
1591, 3520532197, 0.9513083, 0.122794166, 0.2710094, -0.081036404, 1.7346871, 6.3524156, 6.1663313, 0
1592, 3520548864, 0.9508666, 0.12428423, 0.2717884, -0.081338525, 3.8868227, 0.24092947, 1.4699707, 0
1593, 3520565531, 0.94888103, 0.12647621, 0.27817106, -0.07954949, 4.374273, -2.8405108, 5.01863, 0
1595, 3520598865, 0.94091403, 0.13249883, 0.30258673, -0.07513255, 0.8404257, -1.5747851, -1.10705, 0
1596, 3520615532, 0.93491906, 0.1365634, 0.31978872, -0.07135069, 2.0773177, 1.5541341, -0.41491604, 0
1597, 3520632199, 0.9301684, 0.14031985, 0.3325323, -0.067810565, 4.55457, 2.021586, -0.059563637, 0
1599, 3520665533, 0.9221736, 0.1482038, 0.35238728, -0.05944386, 3.4548528, -2.9534543, 1.231389, 0
1601, 3520698867, 0.91353285, 0.15463118, 0.37290046, -0.050705627, 1.0074852, 0.29144558, -1.6784105, 0
1603, 3520732201, 0.910542, 0.15198053, 0.38221264, -0.042515516, -0.7485982, -0.75272137, -1.9361091, 0
1604, 3520748868, 0.91177946, 0.14812525, 0.38143995, -0.036052987, -0.10162421, -2.3868668, -0.67397213, 0
1606, 3520782202, 0.91512716, 0.13680968, 0.3789655, -0.017007172, 1.666074, 0.2678264, 1.9295387, 0
1607, 3520798869, 0.91528875, 0.13095717, 0.3809328, -0.008113325, 0.40241888, 1.4595716, 0.42314053, 0
1608, 3520815536, 0.9146861, 0.12473112, 0.38453913, 1.07079744E-4, -1.4663185, 0.40221757, -0.6503496, 0
1610, 3520848870, 0.91558295, 0.115355186, 0.38519514, 0.010215566, 0.51344913, -1.4361458, -0.6288614, 0
1611, 3520865537, 0.91887146, 0.112706095, 0.37809163, 0.009901866, 1.300805, -1.9125695, 1.5710945, 0
1612, 3520882204, 0.9230773, 0.111126766, 0.36823925, 0.0076200813, 1.0018653, -1.0816633, 0.50725174, 0
1614, 3520915538, 0.9318282, 0.11048493, 0.34578624, -2.7273595E-4, 0.06794101, 0.501546, 1.0752592, 0
1616, 3520948872, 0.93837476, 0.1099664, 0.3276909, -0.00760217, 0.57096857, 1.9064841, -0.19581985, 0
1618, 3520982206, 0.94338214, 0.10438963, 0.31465834, -0.01420702, 0.52105486, -0.11938559, 1.5029364, 0
1619, 3520998873, 0.9468671, 0.09970386, 0.30533624, -0.01872459, -0.053715724, -1.7357047, 1.0136948, 0
1620, 3521015540, 0.95021343, 0.09550196, 0.29586548, -0.022716552, -2.2594833, -1.2333091, -2.6574955, 0
1622, 3521048874, 0.95442283, 0.0892005, 0.28345764, -0.02917409, 0.27254862, 1.9669406, 1.9422369, 0
1623, 3521065541, 0.95551944, 0.08626164, 0.28032508, -0.032225043, 1.0923232, 2.0627127, -0.116233826, 0
1624, 3521082208, 0.95550925, 0.08420966, 0.28075406, -0.03415817, 0.31968266, 1.4122628, 0.31158733, 0
1626, 3521115542, 0.95569664, 0.0798865, 0.28099245, -0.037205696, -0.8645007, -0.81333977, -0.106212616, 0
1627, 3521132209, 0.9559009, 0.0784757, 0.28060004, -0.037914485, -1.2970262, -1.1475673, -0.8256445, 0
1628, 3521148876, 0.9556958, 0.077848636, 0.28147164, -0.037920088, -0.80664897, -0.7272399, -0.5960283, 0
1631, 3521198877, 0.95392156, 0.078081, 0.28799164, -0.032811776, -0.40538242, 0.37904373, 0.023739815, 0
1633, 3521232211, 0.9513589, 0.07874327, 0.29664677, -0.028199077, -0.7429596, -1.3668766, 0.99385357, 0
1634, 3521248878, 0.9505984, 0.07939394, 0.29914847, -0.025460705, -0.28263915, -1.6878896, 0.69305325, 0
1635, 3521265545, 0.9496568, 0.08028029, 0.3020928, -0.02293317, -0.28540492, -1.0827574, -0.30340767, 0
1637, 3521298879, 0.94726616, 0.082963064, 0.30910766, -0.018311858, 0.8265855, 0.71820796, 0.50852585, 0
1638, 3521315546, 0.94572335, 0.08438821, 0.31353086, -0.016226381, 0.09551957, 0.75592077, -0.3069563, 0
1639, 3521332213, 0.94405144, 0.08550976, 0.31832215, -0.014306039, -0.6292998, -0.26657897, 0.05588627, 0
1641, 3521365547, 0.9406554, 0.08737366, 0.32785293, -0.0111601055, -0.22361141, -0.41376024, 0.67193127, 0
1642, 3521382214, 0.9388644, 0.0882651, 0.3327464, -0.010074392, -0.43894494, 0.10642843, -0.08523655, 0
1643, 3521398881, 0.9366579, 0.08961502, 0.33859217, -0.008693278, -0.018709514, 1.3628001, 0.27605438, 0
1646, 3521448882, 0.9297735, 0.093945235, 0.35598812, -0.0068478286, -1.9594837, 0.051907923, 0.62214184, 0
1647, 3521465549, 0.9285365, 0.09621972, 0.3585996, -0.0068556964, -1.1006514, -0.06829422, 1.7143431, 0
1649, 3521498883, 0.92767525, 0.10001384, 0.3597316, -0.009374052, -0.62520576, 1.3663594, 2.3165379, 0
1650, 3521515550, 0.9282011, 0.099624015, 0.3584093, -0.011808127, -2.857685, 1.186027, 1.3612556, 0
1651, 3521532217, 0.92847025, 0.09809742, 0.3580213, -0.014816195, -3.2792614, 0.8924037, 0.33875656, 0
1653, 3521565551, 0.9288539, 0.09362208, 0.35789508, -0.021333158, -4.6216373, 1.4211298, 1.2352152, 0
1654, 3521582218, 0.9292965, 0.09186773, 0.35704377, -0.023812264, -4.1899614, 2.144242, -0.87669754, 0
1655, 3521598885, 0.9306015, 0.09065597, 0.35382757, -0.025437161, -3.2685072, 2.639072, -0.54207706, 0
1657, 3521632219, 0.93725806, 0.08796175, 0.33632287, -0.027854338, -4.433159, 1.2372538, 0.3267107, 0
1658, 3521648886, 0.94151026, 0.08670968, 0.32436723, -0.03007716, -5.025795, -0.20888387, 2.291298, 0
1660, 3521682220, 0.9451836, 0.08972668, 0.31168494, -0.038839787, -3.384519, 5.356678, 0.24220276, 0
1661, 3521698887, 0.9443474, 0.097145945, 0.3104202, -0.049888268, -3.7206645, 5.4057307, -2.1914978, 0
1662, 3521715554, 0.9444143, 0.10499969, 0.3051342, -0.06347118, -1.5313448, 2.7646718, -1.0582304, 0
1664, 3521748888, 0.94898075, 0.11276437, 0.28296816, -0.08202164, -2.9637437, 1.4875971, 1.0398579, 0
1665, 3521765555, 0.9502628, 0.11265953, 0.2771462, -0.08704825, -0.069882445, 1.7004521, 2.8893776, 0
1666, 3521782222, 0.9517549, 0.10864525, 0.27224395, -0.09121889, -2.5801027, 1.0418255, -0.9938898, 0
1668, 3521815556, 0.96031964, 0.0914257, 0.24290696, -0.1024829, 6.5570636, -10.532276, -10.145269, 0
1669, 3521832223, 0.9661805, 0.08333206, 0.22181945, -0.102107376, 5.7461276, -4.152885, -3.0739312, 0
1670, 3521848890, 0.96780825, 0.08222902, 0.21555714, -0.100992545, 18.852573, -14.553781, 20.222343, 0
1673, 3521898891, 0.9666055, 0.09007682, 0.22215694, -0.0910214, 1.491359, 3.2366397, -17.399563, 0
1674, 3521915558, 0.9673747, 0.09116021, 0.22040102, -0.08589785, -6.3571796, -9.033847, -5.3088827, 0
1676, 3521948892, 0.96787417, 0.09401311, 0.21996255, -0.07795198, 5.1231875, -5.9125876, 7.350786, 0
1677, 3521965559, 0.96775866, 0.09639588, 0.22070952, -0.07427795, 6.218727, 7.5699697, 3.2837725, 0
1678, 3521982226, 0.967976, 0.09771321, 0.22063315, -0.06981921, 1.4626307, 7.082026, -3.797339, 0
1680, 3522015560, 0.9676276, 0.104559794, 0.22283956, -0.056440786, -1.7878337, -2.9617996, 0.55515385, 0
1681, 3522032227, 0.96694005, 0.108206525, 0.22520535, -0.051766127, 1.9257729, -1.1416483, 2.0679207, 0
1682, 3522048894, 0.9661594, 0.110692754, 0.22818834, -0.04787445, 4.7749166, 2.9350324, 0.21048832, 0
1684, 3522082228, 0.9658357, 0.11085021, 0.23094654, -0.040201217, 0.3214697, -0.024110679, -0.78249454, 0
1685, 3522098895, 0.966147, 0.11071773, 0.23016661, -0.03746523, -1.2599877, -2.725007, -0.27328682, 0
