sep=,
DeviceTag:,Xsens_DOT_5,,,,,,,,,,,,,,,,,
FirmwareVersion:,3.0.0,,,,,,,,,,,,,,,,,
AppVersion:,2023.6.1,,,,,,,,,,,,,,,,,
SyncStatus:,Synced,,,,,,,,,,,,,,,,,
OutputRate:,60Hz,,,,,,,,,,,,,,,,,
FilterProfile:,General,,,,,,,,,,,,,,,,,
Measurement Mode:,Sensor fusion Mode - Extended (Quaternion),,,,,,,,,,,,,,,,,
StartTime:,2025-05-05 11:32:50.670 +0200,,,,,,,,,,,,,,,,,
 2025,,,,,,,,,,,,,,,,,,,

PacketCounter,SampleTimeFine,Quat_W,Quat_X,Quat_Y,Quat_Z,FreeAcc_X,FreeAcc_Y,FreeAcc_Z,Status
1, 1563709728, 0.19843413, -0.40099302, -0.119954996, 0.88625073, -0.05388791, 0.010230971, -0.07924271, 0
2, 1563726395, 0.19840744, -0.40100467, -0.11990585, 0.88625807, -0.030716017, 0.011192635, -0.08573151, 0
3, 1563743062, 0.19838133, -0.40103155, -0.11986834, 0.8862568, -0.019605216, 0.011046122, -0.07927513, 0
4, 1563759729, 0.19836423, -0.40106297, -0.11981645, 0.8862534, -0.008190185, 0.017248103, -0.10406494, 0
5, 1563776396, 0.19833887, -0.40108782, -0.119751796, 0.8862566, -0.008884417, 0.030088477, -0.10261536, 0
6, 1563793063, 0.19832343, -0.40108982, -0.11970497, 0.8862656, -0.0096340785, 0.01667563, -0.09913063, 0
7, 1563809730, 0.19831401, -0.40106297, -0.1196681, 0.8862849, -0.012679582, -0.0036676242, -0.093580246, 0
8, 1563826397, 0.198327, -0.40101343, -0.119655766, 0.8863059, -0.0035613717, -0.0014357355, -0.09451485, 0
9, 1563843064, 0.19835664, -0.40093026, -0.11964746, 0.88633806, -0.006717654, -0.031585623, -0.11486721, 0
10, 1563859731, 0.19842272, -0.40081376, -0.11967229, 0.8863725, -0.0050340425, -0.014387976, -0.09884739, 0
11, 1563876398, 0.19851726, -0.40066156, -0.11972003, 0.8864137, -0.011541567, -0.011743482, -0.097340584, 0
12, 1563893065, 0.1986683, -0.40048245, -0.11974816, 0.8864571, 0.0034720502, 0.011420506, -0.09228706, 0
13, 1563909732, 0.19884066, -0.40028068, -0.11979167, 0.8865036, -0.0021846995, -0.016463965, -0.09094715, 0
14, 1563926399, 0.19903153, -0.40005213, -0.119866565, 0.88655394, -0.012691764, -0.010497286, -0.09961891, 0
15, 1563943066, 0.19917266, -0.39977705, -0.119937375, 0.88663673, 0.011686067, 0.048074786, -0.093250275, 0
16, 1563959733, 0.19929038, -0.39942297, -0.11995778, 0.8867671, 0.006267303, 0.043652862, -0.08852577, 0
17, 1563976400, 0.19936186, -0.3990677, -0.1199723, 0.88690895, -0.021443889, 0.017456083, -0.086585045, 0
18, 1563993067, 0.19943057, -0.39871827, -0.11996172, 0.8870521, -0.02795443, 0.02080766, -0.09789562, 0
19, 1564009734, 0.19948448, -0.3983832, -0.11997342, 0.887189, -0.03149345, 0.010150617, -0.088912964, 0
20, 1564026401, 0.19955277, -0.3981055, -0.1200051, 0.887294, -0.027697083, -0.012875352, -0.099155426, 0
21, 1564043068, 0.19966146, -0.39789957, -0.12001571, 0.8873605, -0.04364448, -0.034298733, -0.07539463, 0
22, 1564059735, 0.19978802, -0.39775014, -0.12003821, 0.88739586, -0.028632903, 0.01501845, -0.09588528, 0
23, 1564076402, 0.19988117, -0.39764014, -0.12005277, 0.8874222, -0.0046716165, 0.029445987, -0.10312176, 0
24, 1564093069, 0.19991955, -0.3975448, -0.120047495, 0.887457, -0.0075889356, 0.033818964, -0.09607124, 0
25, 1564109736, 0.19989485, -0.39747885, -0.120029554, 0.8874945, -0.029750915, 0.023974782, -0.083642006, 0
26, 1564126403, 0.19986428, -0.39741984, -0.11998101, 0.8875344, -0.017337676, 0.0062042726, -0.097639084, 0
27, 1564143070, 0.19985557, -0.39738616, -0.11992873, 0.88755864, -0.02281514, -0.017437475, -0.093486786, 0
28, 1564159737, 0.19985674, -0.3973643, -0.11990028, 0.8875719, -0.03004313, 0.014067961, -0.1022892, 0
29, 1564176404, 0.1998428, -0.3973424, -0.11986864, 0.88758904, -0.020934196, 0.011241752, -0.10284042, 0
30, 1564193071, 0.19983236, -0.39733908, -0.1198587, 0.88759434, -0.028389024, 0.0015891771, -0.09970093, 0
31, 1564209738, 0.19981943, -0.3973642, -0.11986199, 0.88758546, -0.010450907, -0.0134253055, -0.08491516, 0
32, 1564226405, 0.19980964, -0.39739835, -0.11986759, 0.8875717, -0.0056608566, 0.0050722915, -0.0872612, 0
33, 1564243072, 0.19983512, -0.3973212, -0.11989686, 0.88759655, 0.050191958, -0.008681467, -0.105353355, 0
34, 1564259739, 0.19988513, -0.39718884, -0.11999963, 0.88763064, -0.005722756, -0.0951997, -0.10853577, 0
35, 1564276406, 0.20014709, -0.39696562, -0.12007688, 0.8876611, -0.013955283, 0.006886546, -0.06119442, 0
36, 1564293073, 0.2004734, -0.39679465, -0.120042026, 0.8876685, -0.06913946, 0.048838474, -0.0739212, 0
38, 1564326407, 0.2009412, -0.3964748, -0.119910896, 0.8877234, -0.025806945, 0.08404908, -0.093256, 0
39, 1564343074, 0.20083162, -0.39644665, -0.11986926, 0.8877665, -0.07232924, 0.29282314, -0.0815649, 0
40, 1564359741, 0.20027599, -0.39683, -0.119621634, 0.8877541, -0.095951624, 0.4140806, -0.060944557, 0
42, 1564393075, 0.198263, -0.39905936, -0.11817801, 0.88739985, -0.25068673, -0.16095726, -0.027745247, 0
44, 1564426409, 0.19698186, -0.40291232, -0.11614535, 0.88621163, -0.07509186, -0.23155305, -0.05607319, 0
46, 1564459743, 0.19655567, -0.40691712, -0.11494045, 0.8846322, 0.1712868, -0.18012176, -0.19236279, 0
47, 1564476410, 0.196461, -0.40830404, -0.114858516, 0.8840246, 0.20989037, -0.10263586, -0.20003223, 0
49, 1564509744, 0.19676636, -0.4094102, -0.11543008, 0.88337046, 0.15060504, -0.12713735, -0.15020657, 0
50, 1564526411, 0.19718271, -0.4092488, -0.116005585, 0.8832771, 0.13545062, -0.12837355, -0.16203594, 0
51, 1564543078, 0.19777362, -0.40875822, -0.11675449, 0.88327324, 0.068704374, -0.06952941, -0.13064384, 0
54, 1564593079, 0.19936833, -0.4060397, -0.11904698, 0.88386256, 0.15955411, 0.20235567, -0.017291069, 0
55, 1564609746, 0.19958565, -0.40464655, -0.11941734, 0.8844022, 0.09904423, 0.20896846, -0.078326225, 0
57, 1564643080, 0.19915469, -0.40168524, -0.1195826, 0.88582593, -0.08401321, 0.19673382, -0.036795616, 0
59, 1564676414, 0.19837576, -0.39997947, -0.1190796, 0.8868398, -0.25595027, -0.13672629, -0.097691536, 0
61, 1564709748, 0.19842005, -0.40018559, -0.11863271, 0.8867967, -0.11676497, -0.03346693, -0.10362053, 0
62, 1564726415, 0.19853246, -0.40052533, -0.118444785, 0.88664335, 0.008124696, 0.020439086, -0.116755486, 0
63, 1564743082, 0.19855152, -0.40074337, -0.118255004, 0.8865658, 0.090865284, 0.08717134, -0.113158226, 0
65, 1564776416, 0.19825906, -0.4004572, -0.117776245, 0.88682425, 0.06777477, 0.0044339383, -0.09741783, 0
66, 1564793083, 0.19810382, -0.40005806, -0.11761437, 0.8870606, -0.00866684, -0.060405828, -0.13328934, 0
67, 1564809750, 0.19800039, -0.39967102, -0.1175659, 0.88726455, -0.06754188, -0.064470805, -0.12528992, 0
70, 1564859751, 0.19810262, -0.39897007, -0.117617995, 0.88755023, -0.03413093, 0.012005608, -0.0797081, 0
71, 1564876418, 0.19812459, -0.39880562, -0.11765756, 0.8876139, 0.011515834, 0.023895267, -0.084204674, 0
75, 1564943086, 0.19825232, -0.39780778, -0.11752581, 0.8880505, -0.064641096, -0.02145797, -0.09121227, 0
77, 1564976420, 0.19857958, -0.39751592, -0.11761721, 0.8880961, -0.020261422, -0.04436704, -0.09906578, 0
78, 1564993087, 0.1988303, -0.39739287, -0.11774714, 0.8880778, -0.011552504, -0.025874084, -0.120090485, 0
80, 1565026421, 0.1993598, -0.39707744, -0.117990546, 0.88806784, 0.017308395, 0.05629157, -0.0838747, 0
81, 1565043088, 0.19955549, -0.39684457, -0.11808628, 0.88811535, 0.03232866, 0.030104233, -0.09060669, 0
82, 1565059755, 0.19971128, -0.3965228, -0.11815588, 0.8882148, 0.009168613, 0.023532897, -0.08341217, 0
84, 1565093089, 0.20004317, -0.3957578, -0.11818068, 0.8884778, -0.014462699, 0.014372107, -0.08753681, 0
85, 1565109756, 0.20016034, -0.3953474, -0.11823557, 0.8886268, -0.009861015, 0.023157228, -0.13201904, 0
86, 1565126423, 0.20024697, -0.3949837, -0.118316695, 0.88875836, -0.042493194, 0.007897607, -0.122698784, 0
89, 1565176424, 0.20060244, -0.39413053, -0.11836915, 0.88904977, -0.017136933, -0.008043338, -0.06696224, 0
90, 1565193091, 0.20069389, -0.39391077, -0.11835613, 0.88912845, -0.02259487, 0.023960644, -0.06227684, 0
92, 1565226425, 0.20082542, -0.39355636, -0.11825055, 0.8892697, -0.04247062, 0.0061061503, -0.10546589, 0
93, 1565243092, 0.20086122, -0.39346048, -0.11818844, 0.88931215, -0.033761494, 0.018497318, -0.08597851, 0
94, 1565259759, 0.20090334, -0.39336506, -0.11811927, 0.8893541, -0.0025420128, -0.03155422, -0.10515118, 0
96, 1565293093, 0.20110323, -0.3928794, -0.11796014, 0.8895447, 0.009673362, 0.04914793, -0.08029938, 0
97, 1565309760, 0.20111305, -0.3925644, -0.117852546, 0.8896959, -0.016472597, 0.039310507, -0.10034752, 0
98, 1565326427, 0.20104939, -0.39226073, -0.117764965, 0.88985574, -0.036773663, 0.00814375, -0.09650707, 0
101, 1565376428, 0.20106173, -0.39160177, -0.11747049, 0.89018214, -0.032490708, 0.0057918355, -0.096468925, 0
104, 1565426429, 0.20124264, -0.39097875, -0.11716278, 0.8904555, 0.011115509, 0.006804237, -0.10166359, 0
105, 1565443096, 0.20126346, -0.3906671, -0.11709689, 0.8905963, -0.030041762, -0.029398939, -0.10879135, 0
107, 1565476430, 0.20140597, -0.39005187, -0.11715963, 0.89082533, -0.053556122, 0.01112167, -0.09237099, 0
108, 1565493097, 0.20145148, -0.38979188, -0.11722792, 0.8909199, -0.03455203, 0.009649054, -0.07171917, 0
109, 1565509764, 0.20149404, -0.38958696, -0.11728673, 0.89099216, -0.05171535, -0.01372174, -0.08731365, 0
111, 1565543098, 0.2015884, -0.38938886, -0.117436215, 0.8910377, -0.044522397, 0.0014348973, -0.12208462, 0
112, 1565559765, 0.20163187, -0.3893924, -0.117493436, 0.89101887, -0.022041297, 0.004395159, -0.09942627, 0
113, 1565576432, 0.2016474, -0.38942707, -0.11753169, 0.8909951, -0.036498576, 0.026138164, -0.09041023, 0
115, 1565609766, 0.20162387, -0.38966683, -0.11752732, 0.89089614, -0.034619838, 0.023819441, -0.106879234, 0
119, 1565676434, 0.20125249, -0.39049995, -0.117610015, 0.8906045, -3.678325E-4, -0.027367989, -0.11584282, 0
120, 1565693101, 0.20125706, -0.39067706, -0.11762999, 0.89052314, -6.2262325E-4, -0.021647453, -0.096209526, 0
121, 1565709768, 0.20123817, -0.39077744, -0.11763113, 0.8904831, 0.026972203, 0.025595028, -0.1002779, 0
123, 1565743102, 0.20104058, -0.3908184, -0.1177235, 0.89049757, -0.13584282, 0.05988767, -0.1412983, 0
124, 1565759769, 0.20110606, -0.3908017, -0.11778505, 0.890482, -0.042092923, -0.06813731, -0.0428257, 0
125, 1565776436, 0.20120499, -0.39094478, -0.11772585, 0.8904047, -0.092339575, 0.01396034, -0.07353306, 0
127, 1565809770, 0.20149793, -0.39135072, -0.1177007, 0.8901633, 0.018624887, -0.016982738, -0.13808823, 0
128, 1565826437, 0.20158397, -0.39139554, -0.1177673, 0.89011526, 0.015578657, 0.0632764, -0.10507488, 0
130, 1565859771, 0.20123884, -0.39173746, -0.11773326, 0.89004767, -0.08888046, 0.12671, -0.099393845, 0
131, 1565876438, 0.20080537, -0.39220682, -0.117656685, 0.8899488, -0.08040806, 0.028811434, -0.08900261, 0
135, 1565943106, 0.19863574, -0.39543164, -0.116664425, 0.8891391, -0.10552819, 0.0077234902, -0.06701088, 0
136, 1565959773, 0.19803612, -0.396727, -0.11627796, 0.8887462, -0.08723206, -0.03573497, -0.09149456, 0
138, 1565993107, 0.19721544, -0.39972904, -0.11559275, 0.88767236, -0.043661274, -0.12734327, -0.12937069, 0
139, 1566009774, 0.197079, -0.4011357, -0.1153799, 0.88709563, 0.024003308, -0.06937703, -0.116784096, 0
140, 1566026441, 0.19699112, -0.40230808, -0.1152588, 0.8865999, 0.0898095, 0.013895968, -0.13590908, 0
142, 1566059775, 0.19666353, -0.40372282, -0.11506215, 0.88605475, 0.10650025, -0.027696775, -0.12084961, 0
143, 1566076442, 0.19644041, -0.4040249, -0.11511659, 0.8859596, 0.07031803, -0.025185104, -0.13120174, 0
144, 1566093109, 0.19623433, -0.4041531, -0.11521429, 0.88593405, 0.029682688, -0.037888072, -0.10865593, 0
146, 1566126443, 0.19601008, -0.40434933, -0.11572154, 0.8858281, -0.03252956, 0.0059692487, -0.065797806, 0
148, 1566159777, 0.19555442, -0.40458477, -0.11609547, 0.8857723, 0.07458285, 0.0952463, -0.07256794, 0
151, 1566209778, 0.19461319, -0.40436426, -0.11628976, 0.88605475, -0.07329854, -0.079404265, -0.08679581, 0
152, 1566226445, 0.19450411, -0.40438682, -0.116424546, 0.88605076, -0.08770668, -0.054998826, -0.08180523, 0
154, 1566259779, 0.19450669, -0.4046971, -0.116746806, 0.8858661, -0.006945707, 0.0103195375, -0.100554466, 0
155, 1566276446, 0.19448775, -0.4048663, -0.11686412, 0.8857774, 0.008769768, 0.026322171, -0.090081215, 0
157, 1566309780, 0.19448262, -0.40497315, -0.116943225, 0.8857193, 0.038253292, 0.04651098, -0.097512245, 0
158, 1566326447, 0.19443628, -0.40487552, -0.11693705, 0.88577497, -0.0025457568, 0.022254793, -0.094488144, 0
159, 1566343114, 0.19439018, -0.40474278, -0.116914816, 0.88584846, -0.008324908, 0.006203267, -0.10251713, 0
161, 1566376448, 0.19440533, -0.4046113, -0.11691533, 0.8859052, -0.06517832, -0.0018873434, -0.09321022, 0
163, 1566409782, 0.19451794, -0.40469554, -0.11680037, 0.8858573, 0.014380698, -0.014666976, -0.11509609, 0
165, 1566443116, 0.19470099, -0.40464804, -0.11674596, 0.88584584, 0.006273017, 0.0047523323, -0.119384766, 0
166, 1566459783, 0.19476509, -0.40457147, -0.11677164, 0.8858634, -0.004533346, 0.026613688, -0.09764099, 0
167, 1566476450, 0.1948341, -0.40448263, -0.11675628, 0.8858908, 0.0019592168, 0.062967904, -0.07600689, 0
169, 1566509784, 0.19467936, -0.40432397, -0.116597705, 0.8860181, -0.028386774, 0.035241734, -0.077739716, 0
170, 1566526451, 0.19456688, -0.4042877, -0.116468355, 0.8860765, -0.04770409, 0.0062066754, -0.08778763, 0
171, 1566543118, 0.19450393, -0.40429834, -0.116351366, 0.8861007, -0.044886794, -0.05823971, -0.10614014, 0
173, 1566576452, 0.19454259, -0.40431082, -0.11624385, 0.8861007, -0.0015047311, -0.007825524, -0.07963467, 0
174, 1566593119, 0.19456226, -0.40424177, -0.11623217, 0.88612926, 0.0072464994, -0.015039852, -0.10716057, 0
175, 1566609786, 0.19457191, -0.40416497, -0.11625302, 0.8861595, -0.010250304, 0.008131681, -0.095184326, 0
178, 1566659787, 0.19464993, -0.40411657, -0.11607475, 0.8861878, -0.043250106, -0.0048733647, -0.091825485, 0
181, 1566709788, 0.19479252, -0.40403068, -0.1159053, 0.8862179, -0.0011319395, -0.039617673, -0.105127335, 0
182, 1566726455, 0.19488828, -0.40392196, -0.11589426, 0.8862477, -0.003035292, -0.006613748, -0.10512066, 0
184, 1566759789, 0.19502251, -0.40356562, -0.11592504, 0.88637656, 0.015221079, 0.016126124, -0.064154625, 0
185, 1566776456, 0.19507016, -0.40334082, -0.11592654, 0.88646823, -0.004168237, 0.0058241887, -0.08469868, 0
186, 1566793123, 0.1951162, -0.40312162, -0.115904406, 0.8865607, -0.026793769, 0.007529313, -0.08948326, 0
188, 1566826457, 0.19521648, -0.40284425, -0.11582672, 0.8866748, -0.020826, -0.023874871, -0.1011467, 0
189, 1566843124, 0.19532855, -0.40273744, -0.11581434, 0.8867002, -0.020847738, -0.03249694, -0.09489632, 0
190, 1566859791, 0.1954943, -0.4026391, -0.11582838, 0.8867066, 0.0041796085, -0.0057937913, -0.09281349, 0
193, 1566909792, 0.19590826, -0.4019767, -0.115751475, 0.8869258, 0.014781582, 0.03154891, -0.105584145, 0
194, 1566926459, 0.19601718, -0.40160263, -0.115706965, 0.887077, -0.010663481, -0.011357085, -0.102108, 0
197, 1566976460, 0.19643468, -0.400426, -0.11579237, 0.8875052, -0.048088826, -3.8321296E-4, -0.06613541, 0
198, 1566993127, 0.19660874, -0.4001432, -0.11579256, 0.8875942, -0.06658388, -0.004617219, -0.09834194, 0
200, 1567026461, 0.19703385, -0.3998148, -0.11576209, 0.88765204, -0.04259362, 0.008796911, -0.085279465, 0
201, 1567043128, 0.1972222, -0.39973322, -0.11573312, 0.8876507, -0.0341873, 0.013420165, -0.090530396, 0
202, 1567059795, 0.19738355, -0.39966536, -0.11568196, 0.88765204, -0.005845702, 0.031106355, -0.08930874, 0
204, 1567093129, 0.1975585, -0.3994919, -0.1155432, 0.88770926, -0.005095411, -0.00707195, -0.10077667, 0
205, 1567109796, 0.19761282, -0.39938056, -0.11548397, 0.88775504, -0.0258165, -0.002919191, -0.09251785, 0
208, 1567159797, 0.19771764, -0.3992591, -0.115513615, 0.88778234, -0.0119606815, -0.013572657, -0.10139561, 0
209, 1567176464, 0.19775909, -0.3991897, -0.11557934, 0.8877958, 0.008417149, -0.025660517, -0.11636925, 0
211, 1567209798, 0.19787899, -0.3988293, -0.11573069, 0.8879113, 0.015332527, 0.020058611, -0.10277271, 0
213, 1567243132, 0.19785939, -0.39829928, -0.116039135, 0.8881134, -0.057402026, 4.147283E-4, -0.08642769, 0
215, 1567276466, 0.19791102, -0.39800006, -0.11625825, 0.88820744, -0.044845205, -0.0015942062, -0.069330215, 0
216, 1567293133, 0.19799127, -0.39792627, -0.11628941, 0.8882184, -0.0146650905, -8.6421287E-4, -0.0967226, 0
217, 1567309800, 0.19805689, -0.39784873, -0.11632979, 0.88823324, -0.0046300427, 0.029758403, -0.10946751, 0
219, 1567343134, 0.19802766, -0.39772055, -0.1163762, 0.88829106, -0.05669438, 0.029405085, -0.07273102, 0
220, 1567359801, 0.19799368, -0.39773405, -0.11635682, 0.8882952, -0.041997608, 0.013979841, -0.08533478, 0
223, 1567409802, 0.19783542, -0.39787182, -0.11626187, 0.8882811, -0.06585433, -0.03866249, -0.13614368, 0
224, 1567426469, 0.19798964, -0.3978053, -0.11632697, 0.88826805, -0.05700843, 0.034149148, -0.026203156, 0
225, 1567443136, 0.19803551, -0.39806098, -0.116181895, 0.8881623, -0.08745157, 0.08747587, -0.047283173, 0
227, 1567476470, 0.19823956, -0.39884645, -0.11584468, 0.88780826, -0.0017251987, 0.0038611304, -0.1269474, 0
229, 1567509804, 0.19820885, -0.39944133, -0.11565132, 0.88757306, 7.9124985E-4, 0.17380692, -0.08003712, 0
231, 1567543138, 0.19701546, -0.4004099, -0.11510712, 0.887473, -0.09964343, 0.076476745, -0.0940361, 0
232, 1567559805, 0.19625783, -0.40126362, -0.1146465, 0.8873149, -0.13694306, 0.0041667284, -0.05837059, 0
233, 1567576472, 0.19556312, -0.40238848, -0.11413678, 0.8870244, -0.13149858, -0.08841374, -0.076602936, 0
235, 1567609806, 0.19451287, -0.40513507, -0.113402456, 0.8860989, -0.019924, -0.1461146, -0.122323036, 0
238, 1567659807, 0.19387984, -0.40824726, -0.11324054, 0.88482904, 0.15461044, -0.051504426, -0.11625385, 0
239, 1567676474, 0.19385216, -0.4084875, -0.11344295, 0.8846984, 0.1417846, -0.0836932, -0.09895229, 0
240, 1567693141, 0.19390363, -0.40834126, -0.113685325, 0.8847235, 0.16967116, 0.0037357956, -0.12903404, 0
242, 1567726475, 0.19364129, -0.40733498, -0.114376724, 0.8851555, -0.0023935863, 0.016635511, -0.08252239, 0
243, 1567743142, 0.19341955, -0.40675306, -0.11473626, 0.88542503, -0.053542513, -0.02371886, -0.064801216, 0
244, 1567759809, 0.19327286, -0.406215, -0.1150659, 0.88566136, -0.06528488, -0.053478714, -0.034830093, 0
246, 1567793143, 0.19326611, -0.40534216, -0.115569994, 0.885997, -0.0015159207, -0.021069951, -0.09299564, 0
247, 1567809810, 0.19325784, -0.4048141, -0.11582956, 0.88620645, 0.023005001, 0.067062266, -0.08125687, 0
248, 1567826477, 0.1931949, -0.4041954, -0.11603507, 0.88647556, 0.013858725, 0.06831109, -0.09118748, 0
250, 1567859811, 0.193077, -0.40311727, -0.116470285, 0.88693494, -0.101074345, -0.02322579, -0.10161114, 0
252, 1567893145, 0.19331387, -0.40241975, -0.11693463, 0.8871389, -0.044915933, -0.03559455, -0.077054024, 0
254, 1567926479, 0.19401309, -0.4018852, -0.117633805, 0.8871363, -0.040948454, -0.016163284, -0.1122942, 0
255, 1567943146, 0.19431719, -0.4016903, -0.117990226, 0.8871106, 0.0053864107, 0.10149444, -0.07613754, 0
256, 1567959813, 0.19455975, -0.4014587, -0.11818898, 0.8871358, 0.011055482, 0.09232538, -0.07618904, 0
259, 1568009814, 0.19502926, -0.40072986, -0.118698835, 0.88729423, -0.025705429, -0.016031299, -0.07035446, 0
260, 1568026481, 0.19516517, -0.40054896, -0.1187923, 0.88733345, -0.0015870677, 0.050090205, -0.08754063, 0
262, 1568059815, 0.1952407, -0.40021655, -0.11873973, 0.8874738, -0.03617859, 0.10221935, -0.077186584, 0
263, 1568076482, 0.19515018, -0.40017378, -0.11862164, 0.88752884, -0.037561562, 0.0034814936, -0.08573151, 0
264, 1568093149, 0.19509752, -0.40015456, -0.118527435, 0.88756156, -0.028024083, -0.070976704, -0.10726738, 0
267, 1568143150, 0.19526023, -0.40020648, -0.1184874, 0.8875078, -0.018309455, -0.035101146, -0.09764671, 0
269, 1568176484, 0.19531733, -0.39978296, -0.11859144, 0.8876723, 0.08102875, 0.015058347, -0.11502361, 0
270, 1568193151, 0.19531965, -0.3991535, -0.11860935, 0.88795245, 0.11067194, 0.05753324, -0.08434677, 0
271, 1568209818, 0.19526595, -0.39821854, -0.11854672, 0.88839245, 0.10773977, 0.065503374, -0.08653259, 0
273, 1568243152, 0.19506568, -0.3958053, -0.118296474, 0.88954735, 0.055603374, -0.065373406, -0.089987755, 0
275, 1568276486, 0.19512412, -0.3925457, -0.11823567, 0.89098585, 0.128417, -0.10087771, -0.08748913, 0
277, 1568309820, 0.19484103, -0.38722217, -0.118199475, 0.89337903, 0.40836385, -0.044541046, -0.043717384, 0
278, 1568326487, 0.19433832, -0.38323763, -0.118070535, 0.8952219, 0.3882422, -0.069323495, -0.08379173, 0
279, 1568343154, 0.19324064, -0.37818828, -0.11835495, 0.8975662, 0.46037534, -0.32327482, -0.17582321, 0
282, 1568393155, 0.18796349, -0.35934862, -0.12468813, 0.9055342, -0.2650829, 0.06570716, -0.08323574, 0
283, 1568409822, 0.1878876, -0.35360402, -0.12690453, 0.90750146, -0.39685783, -0.40843907, 0.049134254, 0
285, 1568443156, 0.19194406, -0.34486863, -0.13168028, 0.90933204, -0.47163665, -0.41618744, 0.022232056, 0
286, 1568459823, 0.1949391, -0.34157917, -0.13461755, 0.9095063, -0.05690626, -0.27665898, 0.0018348694, 0
287, 1568476490, 0.19781603, -0.33812404, -0.1375792, 0.90973294, 0.040406223, 0.4326661, -0.41983795, 0
289, 1568509824, 0.2016389, -0.33002913, -0.1395206, 0.9115689, 0.20287472, 0.6716198, -0.025499344, 0
292, 1568559825, 0.20379053, -0.31982106, -0.1389617, 0.9148086, -0.20111004, -0.34737322, 0.075078964, 0
293, 1568576492, 0.20479459, -0.31745714, -0.13930161, 0.915356, -0.18034853, -0.110333875, -0.01775837, 0
298, 1568659827, 0.20944813, -0.3061996, -0.13959345, 0.91808945, 0.20612197, -0.3219607, 0.042188644, 0
300, 1568693161, 0.21197937, -0.29810905, -0.14053817, 0.92002493, -0.29396397, -0.08204049, -0.24549961, 0
301, 1568709828, 0.21333699, -0.2944082, -0.14082392, 0.92085874, -0.17432675, 0.14507355, -0.00749588, 0
302, 1568726495, 0.21453992, -0.29111433, -0.1409398, 0.92160857, -0.1263968, -0.0127708595, 0.023086548, 0
304, 1568759829, 0.21697183, -0.2850877, -0.14128332, 0.9228697, 0.17130992, 0.1399323, 0.3100233, 0
305, 1568776496, 0.2183538, -0.28188267, -0.14179443, 0.92344964, 0.1275368, -0.13505055, 0.0025081635, 0
306, 1568793163, 0.21984449, -0.27893582, -0.14228404, 0.9239153, -0.36543036, 0.23628984, -0.47086334, 0
308, 1568826497, 0.22218625, -0.27461728, -0.14204958, 0.9246848, 0.26218364, 0.4646816, -0.23786831, 0
312, 1568893165, 0.22509906, -0.26998597, -0.1416531, 0.92540467, -0.4123395, -0.013724534, -0.17819405, 0
313, 1568909832, 0.22545442, -0.26983228, -0.14243168, 0.92524344, 0.020774355, 0.037760336, -0.10914326, 0
314, 1568926499, 0.22577126, -0.26974088, -0.14307216, 0.92509395, 0.0011208616, 0.12735115, -0.25105095, 0
316, 1568959833, 0.22604376, -0.26989836, -0.14399675, 0.924838, -0.12835675, -0.0985111, -0.12713432, 0
317, 1568976500, 0.2261464, -0.2699624, -0.14439636, 0.92473197, -0.025642384, 0.039678913, -0.2853222, 0
319, 1569009834, 0.22590514, -0.27079433, -0.14344731, 0.9246955, -0.16137652, 0.012281255, -0.2717762, 0
320, 1569026501, 0.22562999, -0.27142343, -0.14260036, 0.9247092, -0.18535519, -0.037649415, -0.21599293, 0
321, 1569043168, 0.22526859, -0.27220067, -0.14161915, 0.92471963, -0.2635252, 0.12673375, -0.41806984, 0
323, 1569076502, 0.22398886, -0.27538013, -0.13757466, 0.9246994, -0.3039241, 0.4837145, -0.62660885, 0
324, 1569093169, 0.22280796, -0.2781199, -0.13435633, 0.92463815, -0.36365253, 0.5948547, -0.4759817, 0
327, 1569143170, 0.22151756, -0.28966722, -0.12436455, 0.92279875, -0.33629367, -0.5315217, 0.014788628, 0
328, 1569159837, 0.22548273, -0.29620922, -0.120201305, 0.9203101, -1.0600921, -0.4789804, 0.1719122, 0
329, 1569176504, 0.22833696, -0.30427685, -0.116633564, 0.91742903, -1.1460384, 0.42785794, 0.20325375, 0
331, 1569209838, 0.22832933, -0.32541746, -0.10840694, 0.9111632, -0.88876843, 0.9193715, 0.39021683, 0
332, 1569226505, 0.22636738, -0.34028125, -0.10293859, 0.906847, -0.8287672, 0.9813114, 0.298275, 0
333, 1569243172, 0.22324333, -0.35978138, -0.09609002, 0.9008262, -1.3048793, 1.0699494, -0.32708073, 0
335, 1569276506, 0.21021816, -0.41060323, -0.07401625, 0.8841585, -0.23898664, 1.1930013, -0.6808214, 0
336, 1569293173, 0.20130244, -0.43872824, -0.056708716, 0.87394536, -0.09787465, 0.89390796, -0.26642323, 0
337, 1569309840, 0.19195691, -0.4632101, -0.040020056, 0.864285, 2.0792205, -0.7367771, -0.25509453, 0
341, 1569376508, 0.16401745, -0.4986181, -0.009762434, 0.8511077, -0.030799523, -1.6707803, 1.6021137, 0
343, 1569409842, 0.15759769, -0.51410633, -0.0020035654, 0.8431222, -3.3326738, 5.192661, 0.9316883, 0
344, 1569426509, 0.14383952, -0.53891647, 0.01390106, 0.8298717, -4.4784727, 5.4965, 1.3513384, 0
345, 1569443176, 0.12086886, -0.5755145, 0.04019876, 0.8078114, -5.586584, 6.379479, 5.0857296, 0
347, 1569476510, 0.054921474, -0.66074055, 0.08426995, 0.74384505, -10.3842535, 15.794768, 15.725216, 0
348, 1569493177, 0.015544128, -0.69298977, 0.105868, 0.7129634, -1.0758761, 5.624918, 6.7503834, 0
350, 1569526511, -0.018233221, -0.7194796, 0.14003892, 0.68000513, 7.8051295, 26.074944, 3.6685925, 0
351, 1569543178, -0.007593671, -0.7272972, 0.14462575, 0.67086947, -0.48962167, 15.475281, 0.44150543, 0
352, 1569559845, -7.132068E-5, -0.73470306, 0.1445103, 0.66281945, -0.8804231, 9.300259, -3.9752173, 0
354, 1569593179, 0.020228842, -0.7490039, 0.15347874, 0.64422786, -2.93403, 13.543832, -5.8680706, 0
358, 1569659847, 0.08152078, -0.7641202, 0.16102101, 0.6193126, -7.4655423, 7.9018517, -10.158258, 0
359, 1569676514, 0.08940067, -0.7622762, 0.154744, 0.6220916, -9.066875, 9.46938, -9.135148, 0
360, 1569693181, 0.09698746, -0.7553006, 0.1451449, 0.631703, -9.615767, 9.173186, -8.931181, 0
362, 1569726515, 0.10576195, -0.7255939, 0.11909726, 0.6694365, -9.0671835, 5.5142355, -7.624688, 0
363, 1569743182, 0.10510197, -0.70263606, 0.10502351, 0.69586456, -7.1027536, 4.909046, -6.1204767, 0
364, 1569759849, 0.10406767, -0.67593086, 0.09071722, 0.72391915, -4.866488, 5.626574, -4.3326445, 0
366, 1569793183, 0.11432109, -0.6239219, 0.058127247, 0.77089214, -1.0244384, 6.189003, -4.098694, 0
367, 1569809850, 0.12717819, -0.60307443, 0.037619926, 0.7865828, -0.3538096, 7.1215873, -1.2841196, 0
368, 1569826517, 0.14706057, -0.5862055, 0.01434673, 0.796575, 0.48839962, 7.0321736, 1.8688097, 0
371, 1569876518, 0.2403982, -0.53759295, -0.05797269, 0.8061284, -5.519023, -1.5643873, 8.788876, 0
374, 1569926519, 0.31311873, -0.45191005, -0.11328113, 0.8275883, 0.8975089, -5.14845, 6.92568, 0
375, 1569943186, 0.3308879, -0.41993257, -0.12607996, 0.8356284, 4.5265436, -5.07057, 6.1227713, 0
377, 1569976520, 0.3695276, -0.36560234, -0.14526911, 0.84183264, 5.844934, -7.010658, 3.8438683, 0
378, 1569993187, 0.3886578, -0.34324774, -0.1535171, 0.8411657, 4.6860676, -8.842564, 2.9314013, 0
379, 1570009854, 0.40431044, -0.32438987, -0.16091576, 0.8398879, 3.6400201, -10.525834, 0.25749397, 0
381, 1570043188, 0.42025658, -0.2941854, -0.16882233, 0.8416291, 4.667971, -12.960572, 3.1423569, 0
382, 1570059855, 0.42278588, -0.27836707, -0.17471915, 0.84453434, 5.2161064, -13.724465, 2.0289078, 0
383, 1570076522, 0.42369494, -0.26435718, -0.18184753, 0.8470718, 6.2960052, -12.047462, -2.7632895, 0
386, 1570126523, 0.4210632, -0.24048057, -0.187141, 0.8543151, 6.331376, -12.226824, -6.087327, 0
387, 1570143190, 0.4178442, -0.23772469, -0.1825847, 0.85764635, 6.336334, -12.460471, -5.3987765, 0
390, 1570193191, 0.39920762, -0.24486293, -0.16619277, 0.8677884, 4.6479335, -12.379044, -6.016054, 0
391, 1570209858, 0.38897806, -0.2531785, -0.16291001, 0.8706655, 5.1537156, -12.902647, -5.1206083, 0
393, 1570243192, 0.36065587, -0.2856226, -0.1507574, 0.8749975, 5.992287, -11.880942, -13.092135, 0
394, 1570259859, 0.3409438, -0.31541055, -0.13785885, 0.8747968, 9.805185, -14.270088, -8.9990015, 0
395, 1570276526, 0.32231322, -0.34980887, -0.12236008, 0.8710781, 14.356396, -15.892638, 0.60523987, 0
397, 1570309860, 0.29707006, -0.41647765, -0.089331366, 0.8545857, 15.128198, -20.499819, -0.03126335, 0
398, 1570326527, 0.3166538, -0.40910777, -0.065521866, 0.85326976, -7.5475755, 9.056842, 46.067184, 0
401, 1570376528, 0.33516636, -0.41540483, -0.06496213, 0.8431391, -0.70709115, 4.2673864, 0.11539364, 0
402, 1570393195, 0.3307709, -0.42625886, -0.05669308, 0.84004843, 1.0719576, 1.8605299, -0.59382915, 0
404, 1570426529, 0.32324415, -0.45144743, -0.034935914, 0.8309568, 0.29162428, -0.0990472, -0.63804436, 0
405, 1570443196, 0.32191375, -0.46065035, -0.02431164, 0.82679087, 2.2172105, -2.3605096, -0.5431595, 0
406, 1570459863, 0.31999448, -0.46335548, -0.017129041, 0.826204, 2.6712701, -1.1886555, -0.8142662, 0
408, 1570493197, 0.31357384, -0.45998743, -0.010940092, 0.83064103, -1.8688296, -0.8177404, 0.28898716, 0
409, 1570509864, 0.31031215, -0.46077484, -0.011053379, 0.83142763, -1.5070134, 0.20392305, 0.050193787, 0
410, 1570526531, 0.30446827, -0.4663088, -0.010068125, 0.83051497, -1.301036, 2.1493917, 0.26351357, 0
412, 1570559865, 0.2840769, -0.49845114, 0.005767666, 0.8190327, -1.4653516, 2.508475, 0.20083523, 0
413, 1570576532, 0.26945326, -0.52483153, 0.02204895, 0.8071318, -1.5659004, 2.3889344, -0.2519207, 0
416, 1570626533, 0.20021048, -0.6431125, 0.10165565, 0.732113, -5.9730477, 8.443488, 4.9644327, 0
417, 1570643200, 0.1632662, -0.6963375, 0.12967467, 0.6867634, -6.7924056, 7.058306, 12.529587, 0
420, 1570693201, 0.045531884, -0.80371094, 0.15374425, 0.57300913, -4.6037374, 22.0829, 16.150972, 0
421, 1570709868, 0.053660847, -0.80312204, 0.16769284, 0.5692066, -12.852022, 29.21883, 15.196249, 0
422, 1570726535, 0.059508067, -0.798492, 0.18628524, 0.5693578, -1.8429923, -2.624199, -0.33121014, 0
424, 1570759869, 0.038749617, -0.8036164, 0.21977836, 0.55172247, -0.058318775, 17.85444, -3.451858, 0
425, 1570776536, 0.039610248, -0.8068357, 0.2407946, 0.5380205, -3.2496986, 17.396055, -7.439478, 0
426, 1570793203, 0.040375687, -0.8106133, 0.25695896, 0.5246423, -8.8129015, 14.6310425, -10.00503, 0
428, 1570826537, 0.020589085, -0.8109253, 0.26828814, 0.5196144, -11.0067215, 11.823169, -12.735457, 0
431, 1570876538, -0.015462374, -0.77905804, 0.27377108, 0.56380856, -2.4478588, 11.372904, -13.883209, 0
432, 1570893205, -0.015390135, -0.764135, 0.2755541, 0.5830369, -1.0619065, 10.0771885, -14.233082, 0
433, 1570909872, -0.009464292, -0.74968135, 0.2737114, 0.602471, -0.75700283, 9.596503, -13.807183, 0
436, 1570959873, 0.035868943, -0.7076492, 0.2373883, 0.66452545, -1.9870368, 7.451688, -10.2808895, 0
437, 1570976540, 0.055309217, -0.6928692, 0.21571085, 0.68581593, -1.9307666, 6.115805, -9.038186, 0
439, 1571009874, 0.10078545, -0.6647239, 0.16517523, 0.7215974, -3.6194417, 8.450858, -4.049135, 0
440, 1571026541, 0.12752086, -0.64939, 0.13864125, 0.736757, -5.9072323, 6.6686244, -1.528511, 0
441, 1571043208, 0.1524679, -0.63113165, 0.11067319, 0.7524488, -8.442023, 5.988313, 3.6580105, 0
443, 1571076542, 0.18934417, -0.5793009, 0.057469547, 0.7907325, -4.888472, 2.6371906, 9.662523, 0
445, 1571109876, 0.21837564, -0.51750696, 0.0096645225, 0.8272886, 4.432674, 3.4185364, 12.271561, 0
447, 1571143210, 0.25887585, -0.4591787, -0.043384187, 0.84867984, 3.8828845, -2.933202, 11.50136, 0
449, 1571176544, 0.30179328, -0.3975319, -0.09511365, 0.8613036, 3.960069, -6.5415773, 7.5175705, 0
451, 1571209878, 0.34382612, -0.33647734, -0.13968919, 0.8654795, 4.006409, -6.067048, 7.4212227, 0
454, 1571259879, 0.395945, -0.2502522, -0.2066525, 0.85900956, 1.3386096, -13.1558275, 2.260787, 0
455, 1571276546, 0.4033057, -0.22310472, -0.2250533, 0.8584412, 3.3282905, -13.273589, 1.0969429, 0
456, 1571293213, 0.40785658, -0.19826676, -0.23908345, 0.858594, 5.638829, -11.709432, -1.1453867, 0
458, 1571326547, 0.4215831, -0.16320635, -0.25901124, 0.85354894, 5.8404264, -13.798766, -4.540987, 0
460, 1571359881, 0.43977955, -0.14228146, -0.26235086, 0.84706753, 4.837474, -13.797764, -8.349946, 0
462, 1571393215, 0.4541102, -0.1337895, -0.2520394, 0.84401524, 3.096392, -14.391519, -8.785527, 0
463, 1571409882, 0.45638406, -0.13324472, -0.24388257, 0.8452703, 2.3851185, -13.754518, -8.953759, 0
464, 1571426549, 0.45494586, -0.13400549, -0.23564085, 0.84825796, 2.999823, -14.421309, -5.969199, 0
466, 1571459883, 0.44699356, -0.13893597, -0.21984716, 0.85589844, 4.107681, -9.785299, -6.911374, 0
467, 1571476550, 0.44180843, -0.1450249, -0.21037696, 0.85995096, 4.6261954, -9.4049425, -4.973514, 0
470, 1571526551, 0.4260627, -0.16937433, -0.1790535, 0.8704734, 4.1034265, -8.61122, -3.8370614, 0
471, 1571543218, 0.4181986, -0.18070881, -0.16806121, 0.8741915, 5.052334, -9.876809, -2.799735, 0
472, 1571559885, 0.40756306, -0.19449475, -0.15813564, 0.87809944, 5.664139, -12.220897, -2.7227283, 0
475, 1571609886, 0.35679936, -0.25621146, -0.1134046, 0.89117384, 15.905833, -19.208008, -1.5731306, 0
476, 1571626553, 0.33502516, -0.2882074, -0.08447127, 0.8930624, 21.256071, -19.618925, -4.3790483, 0
478, 1571659887, 0.31244153, -0.31330442, -0.090778895, 0.8921777, 1.8220899, 26.485695, 16.249943, 0
479, 1571676554, 0.31156716, -0.3186991, -0.07947184, 0.8916515, -0.23682438, -4.212171, 5.5544224, 0
481, 1571709888, 0.30009252, -0.35919374, -0.064947955, 0.88131, 1.4574867, 1.3803853, -0.3401289, 0
482, 1571726555, 0.2894198, -0.38535964, -0.054665886, 0.87449825, 1.5645436, 0.18213892, -1.557229, 0
483, 1571743222, 0.27655694, -0.40834028, -0.0427472, 0.8688777, 1.0058138, -1.7595589, -0.80176735, 0
485, 1571776556, 0.25353456, -0.4493015, -0.023704777, 0.8563222, -0.71987486, 0.035573427, 0.46034908, 0
486, 1571793223, 0.24057561, -0.47549078, -0.012288891, 0.8460981, -1.1434997, 1.7678468, 0.45119667, 0
487, 1571809890, 0.22466327, -0.5087365, 0.0048114993, 0.8310785, -2.1713035, 3.151713, 0.6491995, 0
490, 1571859891, 0.14834812, -0.6478329, 0.106779926, 0.73953, -7.130494, 10.650628, 6.4853134, 0
491, 1571876558, 0.10633879, -0.7063092, 0.13894734, 0.68594044, -12.053794, 17.062414, 18.63182, 0
493, 1571909892, 0.022876596, -0.78437114, 0.18238169, 0.59243286, -28.90547, 60.94825, 32.357437, 0
494, 1571926559, 0.030017205, -0.7901502, 0.19456878, 0.5804357, -1.6988848, 41.52801, 21.848646, 0
495, 1571943226, 0.047054626, -0.7836627, 0.21581003, 0.5805909, -0.27778083, -1.2656149, 3.8714514, 0
497, 1571976560, -0.0016793888, -0.7845218, 0.23185113, 0.5751254, 1.8252797, 23.463923, -0.05439663, 0
499, 1572009894, -0.018846218, -0.7944799, 0.24663194, 0.5546354, -4.217683, 16.008892, -11.121179, 0
501, 1572043228, -0.033685587, -0.8075554, 0.24127872, 0.5371269, -10.789705, 12.47682, -14.612999, 0
502, 1572059895, -0.04482858, -0.808723, 0.23201832, 0.5386338, -10.084028, 10.153965, -14.936851, 0
505, 1572109896, -0.066695094, -0.7892548, 0.21404278, 0.57167804, -4.7586017, 6.082743, -14.72043, 0
506, 1572126563, -0.065777354, -0.77952504, 0.20979597, 0.5865159, -4.06893, 5.2874665, -14.265886, 0
507, 1572143230, -0.060140345, -0.76916367, 0.20382166, 0.60268396, -4.85646, 7.998452, -12.645853, 0
509, 1572176564, -0.03215473, -0.74077064, 0.18367921, 0.645359, -6.3216486, 3.9353845, -9.655428, 0
510, 1572193231, -0.021616224, -0.7221158, 0.16667807, 0.67104477, -5.665081, 0.44027492, -7.750677, 0
512, 1572226565, -0.005940821, -0.6794681, 0.12752263, 0.72251445, -3.3631394, 2.9178588, -4.936093, 0
513, 1572243232, 0.005681444, -0.65936756, 0.104891986, 0.74444675, -3.291492, 4.4722924, -2.4365616, 0
516, 1572293233, 0.06886477, -0.6079603, 0.03706137, 0.79010737, -2.4237561, 3.1931095, 4.5228605, 0
517, 1572309900, 0.09452892, -0.5914201, 0.013567425, 0.80068946, -3.0944724, 0.3638645, 5.16877, 0
520, 1572359901, 0.17139708, -0.5269024, -0.03927886, 0.83153796, -0.18280081, -0.5274397, 5.147029, 0
521, 1572376568, 0.19422199, -0.5038924, -0.05300888, 0.83997715, 1.8533876, 0.9037921, 5.9556246, 0
522, 1572393235, 0.21829079, -0.4812139, -0.065474875, 0.84646136, 2.596468, 1.560063, 5.36652, 0
524, 1572426569, 0.27115023, -0.43789905, -0.088541254, 0.85257477, 1.1856817, 0.92473143, 5.5667906, 0
525, 1572443236, 0.29765463, -0.41629833, -0.10053581, 0.8532239, -0.026021909, -0.33636978, 5.5128937, 0
526, 1572459903, 0.32256287, -0.39340848, -0.11255743, 0.85353094, 0.07072567, -0.7148796, 7.3648205, 0
528, 1572493237, 0.36876723, -0.34388685, -0.1399728, 0.85215104, 0.5252201, -2.6724956, 7.047043, 0
529, 1572509904, 0.38962805, -0.31905368, -0.15424573, 0.85006124, 0.77646685, -3.7469456, 6.186261, 0
532, 1572559905, 0.4308157, -0.25010943, -0.1939956, 0.84510946, 1.1482625, -7.770586, 4.4789677, 0
536, 1572626573, 0.44438866, -0.17126141, -0.24701963, 0.8439022, 4.5264792, -10.553382, -4.1824107, 0
537, 1572643240, 0.44174725, -0.15839225, -0.25533223, 0.8453272, 5.065507, -9.611509, -6.2693214, 0
539, 1572676574, 0.43220767, -0.13918845, -0.25768468, 0.8528909, 5.4641495, -10.913112, -4.9699183, 0
540, 1572693241, 0.42764893, -0.13297455, -0.25887296, 0.8558154, 5.9425755, -9.083882, -6.017867, 0
541, 1572709908, 0.42500886, -0.12968266, -0.25950432, 0.85744303, 7.0237036, -7.358432, -6.2874312, 0
543, 1572743242, 0.42654222, -0.12952921, -0.24979262, 0.85958654, 6.813371, -5.9324985, -6.4549894, 0
544, 1572759909, 0.42990708, -0.13202834, -0.23972474, 0.8603964, 5.9849577, -5.982654, -6.0681896, 0
545, 1572776576, 0.43426222, -0.13577157, -0.22743425, 0.860963, 5.5125494, -6.738812, -4.5414877, 0
547, 1572809910, 0.44355822, -0.14261366, -0.20382352, 0.8610312, 3.6861188, -7.6475387, -3.488926, 0
551, 1572876578, 0.44531807, -0.15556352, -0.17935464, 0.8633221, 1.9433153, -11.6673, -3.3702374, 0
552, 1572893245, 0.43713364, -0.15896057, -0.18011588, 0.866721, 2.1533067, -14.30333, -4.217607, 0
553, 1572909912, 0.42427498, -0.16304436, -0.18210393, 0.8719211, 4.7576723, -17.088541, -6.4746656, 0
555, 1572943246, 0.38507774, -0.1798667, -0.16836064, 0.88939226, 11.621531, -19.375607, -9.023774, 0
556, 1572959913, 0.3631583, -0.19842543, -0.15032127, 0.8978576, 17.132143, -21.03123, -4.033166, 0
557, 1572976580, 0.3475858, -0.22365722, -0.12861294, 0.9014553, 20.710062, -22.333254, -2.2182693, 0
559, 1573009914, 0.32820064, -0.30488327, -0.069196954, 0.89137167, 20.104132, -25.805944, 0.571434, 0
560, 1573026581, 0.32280105, -0.33310127, -0.07139231, 0.8830331, -13.898329, -27.546757, 70.308365, 0
562, 1573059915, 0.3189813, -0.32667148, -0.0767635, 0.88636637, -1.2456071, -9.31944, 11.390064, 0
564, 1573093249, 0.29696742, -0.36428532, -0.054785937, 0.88096905, -1.2740666, -0.71654576, -0.16366386, 0
566, 1573126583, 0.26995966, -0.4221578, -0.02147147, 0.865127, -1.0799152, -0.2544342, 0.9957466, 0
567, 1573143250, 0.25570542, -0.45979112, -0.0043183807, 0.8504054, -1.5198895, 1.7354031, 1.3119459, 0
568, 1573159917, 0.23647977, -0.50564986, 0.017795652, 0.8295061, -4.619645, 5.4452233, 2.3715286, 0
570, 1573193251, 0.16886115, -0.6219103, 0.09129868, 0.7591967, -8.801576, 14.332981, 7.466852, 0
571, 1573209918, 0.111983806, -0.6929399, 0.11406997, 0.7030529, -15.709988, 21.10404, 25.320835, 0
572, 1573226585, 0.04700008, -0.751169, 0.12962714, 0.6455496, -11.264603, 21.787367, 20.167984, 0
574, 1573259919, -2.0833127E-4, -0.805021, 0.12897857, 0.57905704, -32.567997, 61.542664, 36.48082, 0
575, 1573276586, 0.01863176, -0.8032721, 0.13069455, 0.5807986, -3.5576146, -18.558563, 0.30409336, 0
576, 1573293253, -0.022696018, -0.80607206, 0.14331685, 0.57375443, -3.6486938, -12.114187, 3.4577188, 0
580, 1573359921, -0.11988158, -0.7820934, 0.2724729, 0.54746497, -7.087933, 19.900787, -14.443552, 0
582, 1573393255, -0.15252976, -0.7736223, 0.31838706, 0.52618843, -5.747703, 16.057682, -21.362722, 0
583, 1573409922, -0.15931273, -0.77037424, 0.333296, 0.51967114, -4.1821547, 14.139574, -22.712973, 0
584, 1573426589, -0.15650693, -0.76787525, 0.34585053, 0.51600564, -2.2969878, 9.368388, -22.066757, 0
586, 1573459923, -0.13483521, -0.76500875, 0.36233854, 0.5150661, -1.8410306, 6.074585, -19.401964, 0
587, 1573476590, -0.11710653, -0.7633622, 0.36550984, 0.5195841, -1.5973532, 5.483731, -18.28137, 0
589, 1573509924, -0.07448527, -0.7583819, 0.3605336, 0.53789, -2.4170337, 5.298711, -15.953363, 0
590, 1573526591, -0.04951729, -0.7531721, 0.3508693, 0.55423063, -3.2149768, 6.734301, -14.902119, 0
591, 1573543258, -0.022408575, -0.7451418, 0.3367708, 0.5751938, -3.6104603, 4.9981456, -13.592789, 0
594, 1573593259, 0.056255855, -0.6976339, 0.2653189, 0.6631358, -5.035985, 5.9563017, -6.935178, 0
597, 1573643260, 0.1372053, -0.62218374, 0.17420521, 0.75081015, -0.54892236, 10.937225, 3.031621, 0
598, 1573659927, 0.16878468, -0.597267, 0.13630679, 0.77214336, -0.49808565, 9.755657, 7.3050365, 0
599, 1573676594, 0.20051332, -0.5732495, 0.09501465, 0.78876674, -1.5109627, 7.2664943, 12.476841, 0
601, 1573709928, 0.25714803, -0.5143202, 0.014939386, 0.8180021, -1.4654851, 1.6544107, 21.931581, 0
602, 1573726595, 0.2808031, -0.47711343, -0.022350686, 0.83247465, -0.5162774, -4.0863214, 17.605745, 0
603, 1573743262, 0.29960862, -0.43925536, -0.057992756, 0.84494233, 2.1444497, -4.7574563, 19.92478, 0
605, 1573776596, 0.33319125, -0.35941127, -0.12451817, 0.86273015, 3.5779953, -7.489113, 14.616171, 0
606, 1573793263, 0.34857315, -0.3208465, -0.1534181, 0.86718994, 3.482428, -8.606568, 12.655098, 0
609, 1573843264, 0.39359927, -0.2162111, -0.22170113, 0.8655532, 4.1084423, -12.242368, 8.619474, 0
610, 1573859931, 0.41046828, -0.18672091, -0.24065083, 0.8594996, 3.363226, -13.820366, 3.0904207, 0
613, 1573909932, 0.44012952, -0.12672335, -0.26892313, 0.8472949, 1.7013553, -15.996702, -7.7289147, 0
614, 1573926599, 0.43880427, -0.11481023, -0.26992732, 0.8493584, 2.6630514, -16.650953, -7.7485414, 0
615, 1573943266, 0.43427512, -0.10478997, -0.27252358, 0.852148, 4.958437, -17.53546, -6.169144, 0
617, 1573976600, 0.4285936, -0.09209528, -0.2769132, 0.855071, 7.076599, -10.612237, -9.737627, 0
618, 1573993267, 0.43001115, -0.09084482, -0.27375984, 0.8555083, 6.733614, -10.32756, -8.488198, 0
620, 1574026601, 0.43759805, -0.0928465, -0.25713605, 0.8566035, 3.593724, -9.404141, -7.1842313, 0
621, 1574043268, 0.4407966, -0.09623562, -0.24722002, 0.8575083, 2.6158254, -9.703758, -5.70419, 0
624, 1574093269, 0.4400314, -0.11052479, -0.22315536, 0.86276263, 1.6570051, -7.3458652, -4.2538247, 0
625, 1574109936, 0.43632755, -0.1158604, -0.21536884, 0.8659168, 2.5869703, -6.9676986, -3.1962142, 0
626, 1574126603, 0.43250278, -0.12085129, -0.20805407, 0.86893654, 3.1496496, -6.966008, -2.464889, 0
629, 1574176604, 0.42950362, -0.13729386, -0.18496265, 0.87319356, 2.7841933, -7.791919, -4.0715494, 0
630, 1574193271, 0.42889708, -0.14440867, -0.17820987, 0.8737482, 2.318525, -9.975833, -3.1911864, 0
632, 1574226605, 0.4167902, -0.16328785, -0.16565105, 0.87873995, 3.6149342, -16.899424, -2.3103576, 0
633, 1574243272, 0.40370983, -0.17582083, -0.15772927, 0.8838711, 7.951957, -18.275915, -6.147399, 0
634, 1574259939, 0.38660198, -0.19410205, -0.13971858, 0.8906982, 14.733877, -20.027145, -7.494259, 0
636, 1574293273, 0.34894276, -0.25523415, -0.088769585, 0.89733803, 20.690277, -21.956816, -4.95101, 0
638, 1574326607, 0.33807397, -0.29601184, -0.08800573, 0.8890101, 25.404697, -6.7719703, 34.807476, 0
640, 1574359941, 0.32242846, -0.32778716, -0.07863396, 0.8845412, -0.20060195, 0.46237075, 3.4339714, 0
641, 1574376608, 0.3079157, -0.35428718, -0.06758784, 0.88039833, -0.59077585, 0.12300074, 0.18043423, 0
643, 1574409942, 0.28666523, -0.4221515, -0.03960447, 0.85909474, 0.05333652, 0.9500394, 0.42645073, 0
644, 1574426609, 0.2733496, -0.46278158, -0.024298709, 0.8429256, -1.1038011, 2.622225, 0.85776806, 0
645, 1574443276, 0.25386718, -0.5119773, 4.2710826E-4, 0.82062876, -3.8640316, 5.2868395, 1.1733961, 0
647, 1574476610, 0.1848236, -0.6332605, 0.08789796, 0.746389, -10.686003, 16.004808, 11.827347, 0
648, 1574493277, 0.12651952, -0.70610046, 0.120312266, 0.6862514, -19.286331, 31.454124, 29.917107, 0
649, 1574509944, 0.05794306, -0.7671979, 0.14636761, 0.62179375, -11.522653, 29.188602, 31.66594, 0
651, 1574543278, 0.03577058, -0.8024034, 0.17220935, 0.5702756, -0.38916466, 26.3758, 14.3259945, 0
653, 1574576612, -0.037378237, -0.81643, 0.22462504, 0.53065026, -7.723093, 27.433846, 12.062134, 0
655, 1574609946, -0.07853396, -0.82578266, 0.28659043, 0.47935623, -13.904423, 26.307764, -9.415836, 0
656, 1574626613, -0.10453608, -0.8294387, 0.3062358, 0.45532894, -16.103615, 22.970137, -15.153143, 0
659, 1574676614, -0.16719203, -0.8160144, 0.3414345, 0.43542036, -7.6072454, 14.792081, -24.656189, 0
660, 1574693281, -0.1670866, -0.80689174, 0.3517951, 0.4441274, -4.332104, 10.812455, -22.974293, 0
661, 1574709948, -0.16015746, -0.7979301, 0.36152816, 0.45492354, -0.934593, 5.153006, -20.961433, 0
663, 1574743282, -0.13650529, -0.7828088, 0.37509865, 0.47736633, -1.8792036, 6.6954374, -19.096605, 0
664, 1574759949, -0.118779585, -0.77652, 0.37230518, 0.49426508, -2.0265086, 6.1251035, -17.931023, 0
665, 1574776616, -0.09779804, -0.77136356, 0.3629843, 0.513495, -1.7262323, 3.8913507, -16.503845, 0
668, 1574826617, -0.022579642, -0.7508057, 0.29666463, 0.5897222, -8.892144, 7.096829, -10.907619, 0
670, 1574859951, 0.0340306, -0.7151073, 0.22649592, 0.6604273, -7.701027, 1.1112734, -6.1523514, 0
671, 1574876618, 0.05668823, -0.6913858, 0.19425529, 0.693569, -6.385367, 3.8615556, -2.1963053, 0
672, 1574893285, 0.080832735, -0.6637918, 0.16414899, 0.7251915, -7.4029403, 7.8854246, 0.63666725, 0
675, 1574943286, 0.14393505, -0.5731244, 0.057223924, 0.8046971, -1.0741334, 3.2791781, 12.393818, 0
676, 1574959953, 0.16342083, -0.5399281, 0.026946384, 0.8252552, 1.4471828, 5.218072, 18.554838, 0
678, 1574993287, 0.21607316, -0.4620049, -0.026804619, 0.8597362, 5.3488083, 1.2732105, 15.505814, 0
679, 1575009954, 0.2456862, -0.42276064, -0.053252473, 0.87067616, 4.0588813, -1.9931005, 10.6639, 0
680, 1575026621, 0.2739958, -0.3864633, -0.07991538, 0.8770331, 4.825493, -2.088029, 13.375767, 0
683, 1575076622, 0.35461935, -0.28216606, -0.15173824, 0.8784099, 4.687745, -8.703008, 11.606113, 0
684, 1575093289, 0.37686282, -0.24822682, -0.17345333, 0.8753701, 3.8795233, -10.341458, 9.171635, 0
686, 1575126623, 0.40765756, -0.18797693, -0.21209022, 0.8680431, 2.4025433, -12.4372835, 2.7333279, 0
687, 1575143290, 0.41468108, -0.16549246, -0.22567034, 0.86586696, 2.7892647, -12.38312, -0.3886795, 0
688, 1575159957, 0.41786543, -0.14742039, -0.23771799, 0.86437654, 5.012424, -15.356257, 2.0974188, 0
691, 1575209958, 0.4237651, -0.10481556, -0.26656467, 0.85929114, 5.4951124, -12.507036, -7.883353, 0
692, 1575226625, 0.4245378, -0.09873844, -0.26919314, 0.8588098, 5.8763013, -11.436829, -7.755872, 0
694, 1575259959, 0.4266255, -0.09161206, -0.2613852, 0.8609744, 4.451654, -8.69361, -6.08461, 0
695, 1575276626, 0.427559, -0.09023572, -0.25517285, 0.86251885, 4.394934, -8.679898, -3.797883, 0
698, 1575326627, 0.4397552, -0.091207325, -0.2394499, 0.86079115, 2.7887173, -4.607938, -3.1361995, 0
699, 1575343294, 0.4455585, -0.092627965, -0.23369664, 0.85923487, 1.3081319, -4.7196903, -2.9576955, 0
701, 1575376628, 0.4535396, -0.095835686, -0.2230521, 0.85753495, -0.54140615, -5.050084, -3.4443083, 0
702, 1575393295, 0.4546359, -0.097662985, -0.21873866, 0.8578593, -0.3619686, -6.0504746, -2.9941063, 0
703, 1575409962, 0.45410654, -0.09895805, -0.21568148, 0.85876477, 0.38783777, -6.184052, -3.2286263, 0
705, 1575443296, 0.45037967, -0.10358849, -0.20909022, 0.8618062, 1.7164115, -5.258708, -4.1848397, 0
707, 1575476630, 0.44730493, -0.11174782, -0.1986766, 0.8648464, 2.5576084, -5.3852367, -4.415626, 0
709, 1575509964, 0.44401896, -0.12170289, -0.18608558, 0.86799115, 2.2801826, -8.104689, -3.287591, 0
710, 1575526631, 0.440867, -0.1265271, -0.18074521, 0.87003416, 2.222556, -7.8878813, -4.4053965, 0
713, 1575576632, 0.42028344, -0.15163538, -0.16118926, 0.8799931, 6.5371776, -12.991868, -4.1005235, 0
714, 1575593299, 0.4108598, -0.162066, -0.15294376, 0.8840465, 8.359029, -14.6313715, -5.516493, 0
715, 1575609966, 0.39873078, -0.17672552, -0.13814834, 0.8892118, 11.113422, -15.056151, -10.036875, 0
717, 1575643300, 0.3761165, -0.23495427, -0.08715111, 0.8920418, 20.4827, -21.361664, -6.160966, 0
718, 1575659967, 0.3654683, -0.28126302, -0.061535142, 0.88517714, 17.073162, -26.005177, -4.58533, 0
719, 1575676634, 0.360444, -0.30131578, -0.062096868, 0.8805872, -3.4657671, -67.422455, 43.791557, 0
721, 1575709968, 0.36079282, -0.32739973, -0.071824685, 0.8703335, 9.119709, 6.797554, 2.3822956, 0
722, 1575726635, 0.34659874, -0.3447849, -0.06490953, 0.8699312, 0.4313288, 4.0858417, -0.8121624, 0
724, 1575759969, 0.32035145, -0.4057386, -0.036451954, 0.8552331, -1.557229, 1.4405377, 0.24794102, 0
725, 1575776636, 0.30680463, -0.4523429, -0.016346667, 0.8372518, -0.63482046, 4.059515, 1.0527287, 0
728, 1575826637, 0.20323043, -0.62940943, 0.11645305, 0.7409323, -7.6046867, 14.043846, 11.085968, 0
729, 1575843304, 0.13507964, -0.69933826, 0.14626443, 0.6865036, -19.80841, 34.25008, 35.858593, 0
730, 1575859971, 0.0600955, -0.7558698, 0.16726758, 0.63013655, -6.2108083, 50.642757, 44.54718, 0
732, 1575893305, 0.0791169, -0.78285253, 0.20443408, 0.58231455, -0.7560652, -22.682173, 2.0016356, 0
733, 1575909972, 0.028153017, -0.8016248, 0.22777069, 0.5520206, -17.38565, -1.4485451, 12.714527, 0
734, 1575926639, -0.017934473, -0.8087662, 0.24474508, 0.534487, -13.101026, 46.186237, 7.8752193, 0
737, 1575976640, -0.110439524, -0.8122603, 0.31462398, 0.47859058, -14.341612, 27.804396, -22.573906, 0
738, 1575993307, -0.13039565, -0.80823267, 0.33072186, 0.46944752, -11.198465, 22.469835, -26.380678, 0
740, 1576026641, -0.1475807, -0.793189, 0.3624465, 0.46658817, -4.2563767, 7.6767707, -23.28854, 0
742, 1576059975, -0.14573474, -0.7782609, 0.39059645, 0.46958137, -0.60542774, 8.093796, -22.493063, 0
744, 1576093309, -0.12109337, -0.7716803, 0.40016294, 0.4792876, -1.777424, 5.264735, -19.28694, 0
745, 1576109976, -0.1044005, -0.7703399, 0.39447862, 0.48996377, -1.646043, 5.0297685, -17.95263, 0
746, 1576126643, -0.08296946, -0.7686863, 0.38535705, 0.5037244, -1.9353601, 4.170909, -16.46229, 0
748, 1576159977, -0.034538426, -0.7604865, 0.35491222, 0.5426838, -3.8853674, 2.2049143, -13.342944, 0
749, 1576176644, -0.01010544, -0.75307095, 0.33326256, 0.5672029, -4.7714753, 3.0445645, -12.254766, 0
751, 1576209978, 0.04294742, -0.7270721, 0.28023598, 0.62529224, -7.0627995, 5.016149, -7.115978, 0
753, 1576243312, 0.091338485, -0.6827907, 0.22874136, 0.68784624, -7.2997675, 7.548541, -2.3672333, 0
755, 1576276646, 0.13948567, -0.62268925, 0.17355071, 0.75012213, -2.885174, 10.1994915, 5.1261196, 0
757, 1576309980, 0.19154163, -0.55872166, 0.111334674, 0.79921687, 1.8831798, 9.593305, 11.903204, 0
759, 1576343314, 0.24816403, -0.49928254, 0.04348384, 0.8290004, 3.7008336, 4.1976995, 17.322947, 0
760, 1576359981, 0.2749761, -0.47012538, 0.009573683, 0.8386177, 3.2109468, 0.8599053, 21.603643, 0
761, 1576376648, 0.30032706, -0.43695727, -0.024167538, 0.84751934, 3.8588984, -2.8574169, 23.118427, 0
763, 1576409982, 0.34259346, -0.3644558, -0.092783116, 0.8609261, 2.8422956, -9.983607, 11.738108, 0
764, 1576426649, 0.35538748, -0.33072197, -0.12854095, 0.8647548, 3.276833, -12.553329, 12.125454, 0
765, 1576443316, 0.3652105, -0.29753748, -0.16172132, 0.8671447, 4.837541, -13.366556, 9.693241, 0
767, 1576476650, 0.38591605, -0.24115433, -0.21511963, 0.86408216, 5.118507, -13.934499, 3.6091537, 0
769, 1576509984, 0.40788713, -0.201001, -0.24535799, 0.85616994, 4.626181, -13.444109, -0.5001612, 0
772, 1576559985, 0.44460887, -0.163496, -0.2553594, 0.8428432, -0.20266221, -11.667778, -3.3254638, 0
773, 1576576652, 0.45455682, -0.15511332, -0.2534362, 0.8396957, -2.1957922, -11.134384, -3.2683282, 0
775, 1576609986, 0.46431392, -0.13700327, -0.24799365, 0.8391321, -2.9825413, -9.754387, -3.192171, 0
776, 1576626653, 0.46308872, -0.12755556, -0.2445946, 0.84229034, -1.5639532, -8.566308, -2.8776736, 0
777, 1576643320, 0.46007395, -0.11822459, -0.24303368, 0.84574854, 0.11487186, -8.114603, -1.9019804, 0
779, 1576676654, 0.45591065, -0.102893986, -0.24367762, 0.84981215, 2.153981, -5.659898, -4.8107896, 0
780, 1576693321, 0.4557535, -0.097827174, -0.24319106, 0.8506335, 2.0677938, -6.532958, -5.0673103, 0
782, 1576726655, 0.45722112, -0.088598035, -0.2418842, 0.8512298, 1.4152402, -9.171908, -6.5454936, 0
783, 1576743322, 0.45532674, -0.08589897, -0.23915467, 0.8532907, 2.3047495, -10.515243, -7.3650227, 0
787, 1576809990, 0.43561155, -0.096232556, -0.21884671, 0.86780685, 4.845149, -13.214077, -9.199209, 0
788, 1576826657, 0.42870617, -0.10443698, -0.21189155, 0.8720131, 4.632259, -13.895443, -8.118518, 0
790, 1576859991, 0.40609252, -0.12499335, -0.19453824, 0.8840935, 7.3076487, -15.12139, -6.177699, 0
791, 1576876658, 0.39112517, -0.13658771, -0.18198721, 0.891766, 11.395848, -14.432419, -5.8510036, 0
792, 1576893325, 0.3759709, -0.15237732, -0.16529492, 0.89894694, 16.156229, -14.16638, -5.5512667, 0
794, 1576926659, 0.35731238, -0.20850138, -0.12301626, 0.90206605, 20.800827, -14.670978, -5.443796, 0
795, 1576943326, 0.3523304, -0.25240824, -0.100816056, 0.8955393, 20.720633, -17.545431, -5.506623, 0
796, 1576959993, 0.3466591, -0.30508476, -0.07747811, 0.8836001, 16.263258, -19.803307, -8.0654125, 0
798, 1576993327, 0.34986097, -0.31826466, -0.076179005, 0.87778276, -10.035915, 19.801252, -7.193249, 0
799, 1577009994, 0.33587286, -0.3399388, -0.06517399, 0.8760047, 4.4067025, -2.4652283, 5.527622, 0
802, 1577059995, 0.28389135, -0.45263618, 0.0017611608, 0.8452953, -1.3970726, 0.9681608, 0.8065262, 0
803, 1577076662, 0.26464847, -0.50228864, 0.030663216, 0.8226347, -2.5544007, 4.984303, 2.2184057, 0
805, 1577109996, 0.18972546, -0.61963916, 0.117681295, 0.75246507, -7.8011513, 15.955261, 10.032036, 0
806, 1577126663, 0.1203049, -0.6914914, 0.13931973, 0.6985395, -20.238062, 31.669905, 31.961231, 0
807, 1577143330, 0.031926632, -0.7531648, 0.15333667, 0.6389149, -4.588318, 37.669056, 41.35907, 0
809, 1577176664, 0.032497242, -0.7985908, 0.17694956, 0.5743573, 5.8869414, 18.141289, 14.253527, 0
811, 1577209998, -0.052372467, -0.82852644, 0.21743158, 0.5133474, -15.8159485, 39.414814, 13.484709, 0
813, 1577243332, -0.11115445, -0.8366832, 0.26099026, 0.4684986, -20.3816, 25.286098, -9.106048, 0
814, 1577259999, -0.14333282, -0.83649904, 0.27899134, 0.4493215, -17.991152, 23.050144, -17.22958, 0
818, 1577326667, -0.19213583, -0.81908965, 0.3421407, 0.4184695, -5.8039045, 7.974554, -23.713657, 0
819, 1577343334, -0.18704148, -0.81292975, 0.3551161, 0.42196485, -4.2909827, 5.6355143, -22.551647, 0
821, 1577376668, -0.16554515, -0.7995433, 0.37334138, 0.440389, -2.8249173, 5.1479754, -20.170616, 0
822, 1577393335, -0.14867426, -0.79306495, 0.37683973, 0.45490316, -1.9170737, 3.7602863, -18.48639, 0
823, 1577410002, -0.12822953, -0.78702, 0.37641093, 0.47166988, -1.674137, 3.886838, -17.40532, 0
825, 1577443336, -0.07870478, -0.7744703, 0.3580506, 0.5155599, -2.3602643, 2.6929896, -14.85449, 0
826, 1577460003, -0.05038231, -0.76687306, 0.34263423, 0.5403426, -3.0799875, 3.0716112, -13.820101, 0
827, 1577476670, -0.020938706, -0.7568843, 0.32286814, 0.5678422, -6.6452518, 4.854446, -12.049557, 0
829, 1577510004, 0.035326123, -0.72235966, 0.27055195, 0.6354143, -8.57058, 4.7680154, -7.2005596, 0
832, 1577560005, 0.10496602, -0.632779, 0.18622847, 0.7442396, -3.4092689, 9.691845, 2.9356003, 0
834, 1577593339, 0.14933297, -0.5686968, 0.11070389, 0.80126715, -0.2681998, 7.04329, 9.7392025, 0
836, 1577626673, 0.19153911, -0.5058351, 0.02786129, 0.84063566, -0.31521183, 2.4629269, 19.14772, 0
837, 1577643340, 0.21111211, -0.46945098, -0.011642936, 0.8572704, 2.2409792, 0.17437564, 20.153387, 0
838, 1577660007, 0.23121375, -0.43126854, -0.049206812, 0.87070495, 5.0902643, -1.4498774, 17.82956, 0
840, 1577693341, 0.28063503, -0.36156413, -0.11955888, 0.88103443, 5.9197655, -3.7907753, 15.924395, 0
841, 1577710008, 0.30920452, -0.33022895, -0.15076181, 0.8789843, 4.238078, -7.30464, 14.531963, 0
842, 1577726675, 0.3375089, -0.29851946, -0.1778744, 0.87483454, 4.0393085, -10.507032, 14.463787, 0
844, 1577760009, 0.3856408, -0.23255281, -0.21643028, 0.8662326, 5.275318, -12.1370535, 7.2243195, 0
846, 1577793343, 0.41836202, -0.17649464, -0.24343681, 0.857066, 6.7247047, -12.531845, 1.387824, 0
848, 1577826677, 0.4441373, -0.14214815, -0.26346704, 0.8444654, 3.2871687, -15.058232, -2.8574347, 0
850, 1577860011, 0.4540371, -0.118854344, -0.27534068, 0.83899474, 2.4497602, -14.442419, -5.708681, 0
852, 1577893345, 0.44779813, -0.10493857, -0.2786994, 0.84308493, 4.7262387, -10.16232, -5.4123583, 0
853, 1577910012, 0.44444668, -0.10060704, -0.27826267, 0.84552693, 4.507702, -7.4473996, -5.221342, 0
854, 1577926679, 0.44338292, -0.09830391, -0.27614635, 0.84704894, 5.0189176, -5.2237654, -3.8561578, 0
856, 1577960013, 0.45081517, -0.09527161, -0.26577657, 0.84678966, 3.340366, -3.141837, -2.8666606, 0
857, 1577976680, 0.45801285, -0.094708696, -0.26031053, 0.84468544, 1.5869007, -3.6557543, -2.9574952, 0
858, 1577993347, 0.4656398, -0.09435327, -0.25568166, 0.8419647, 0.36981776, -4.742915, -2.590084, 0
861, 1578043348, 0.47786346, -0.092657536, -0.24545313, 0.8383404, -0.3055303, -6.918793, -4.35652, 0
863, 1578076682, 0.47718686, -0.09199968, -0.23862135, 0.8407672, 0.96911776, -7.306032, -5.388806, 0
864, 1578093349, 0.47485048, -0.09287171, -0.23396853, 0.84329784, 1.7525486, -8.155681, -5.020924, 0
867, 1578143350, 0.461616, -0.10056454, -0.22145624, 0.85308564, 4.1218324, -9.860544, -6.158025, 0
868, 1578160017, 0.45747522, -0.105391994, -0.21630199, 0.8560507, 3.7051377, -10.079408, -6.8985248, 0
869, 1578176684, 0.45255658, -0.11173764, -0.2089291, 0.8596839, 2.8762333, -10.78191, -6.171872, 0
871, 1578210018, 0.43802077, -0.122568704, -0.18750803, 0.8706067, 2.6922352, -10.878219, -4.618894, 0
872, 1578226685, 0.4290027, -0.12881356, -0.1743212, 0.8769132, 4.3899593, -10.49668, -4.177095, 0
873, 1578243352, 0.42059773, -0.1363646, -0.15968883, 0.8826109, 7.1444187, -9.979915, -4.050885, 0
876, 1578293353, 0.41431817, -0.19503675, -0.10736386, 0.8824822, 15.249218, -19.040218, -9.019738, 0
877, 1578310020, 0.4102731, -0.23411563, -0.08710188, 0.87708586, 14.139306, -25.523706, -9.617947, 0
879, 1578343354, 0.41303474, -0.30240172, -0.07531075, 0.855736, 31.984282, 4.954356, 13.320845, 0
880, 1578360021, 0.39987153, -0.31944588, -0.068294466, 0.8563841, -8.626297, 6.948454, 2.1865396, 0
881, 1578376688, 0.3798471, -0.3350091, -0.059950784, 0.8601696, -3.403886, -3.8691335, 3.7406511, 0
883, 1578410022, 0.35262704, -0.40330505, -0.028025499, 0.84392804, -2.0147774, 1.9643557, -0.017614365, 0
884, 1578426689, 0.33699638, -0.45653126, -0.0044050403, 0.8234039, -0.710836, 5.6451306, 1.6991749, 0
886, 1578460023, 0.26461542, -0.5834805, 0.08347161, 0.76325786, -6.378782, 11.815215, 8.957447, 0
887, 1578476690, 0.19859532, -0.6589397, 0.13156308, 0.71347743, -11.4319, 23.915522, 25.751793, 0
888, 1578493357, 0.109393515, -0.72975993, 0.15332386, 0.6572487, -6.059939, 32.603374, 35.42582, 0
891, 1578543358, 0.052219473, -0.8046993, 0.20223618, 0.55572766, -14.061102, -31.034391, 6.848648, 0
892, 1578560025, -0.005506182, -0.8190712, 0.22136033, 0.52923757, -15.806274, 41.734097, 17.404379, 0
894, 1578593359, -0.074952714, -0.82471454, 0.28233033, 0.4842706, -15.764006, 27.289183, -9.394485, 0
896, 1578626693, -0.13884924, -0.82739437, 0.3267311, 0.43518618, -10.831786, 26.5368, -29.909803, 0
898, 1578660027, -0.16287833, -0.82174295, 0.353073, 0.41659224, -7.4523044, 8.654191, -28.866379, 0
899, 1578676694, -0.17138875, -0.8154502, 0.36130917, 0.41847727, -5.158317, 5.383952, -26.84258, 0
900, 1578693361, -0.17584296, -0.8079697, 0.3683695, 0.42493403, -3.989876, 7.8581853, -26.040102, 0
902, 1578726695, -0.1624515, -0.79346746, 0.37809423, 0.44840202, -2.3864708, 5.47233, -22.196316, 0
903, 1578743362, -0.14846428, -0.7874322, 0.37747082, 0.46413967, -2.570831, 5.688625, -20.542683, 0
906, 1578793363, -0.09102756, -0.7737733, 0.34054005, 0.52632856, -3.9212942, 2.228101, -14.751848, 0
907, 1578810030, -0.07063146, -0.76779795, 0.3170685, 0.552237, -5.836203, 3.579446, -12.771861, 0
908, 1578826697, -0.050078727, -0.7587732, 0.2895257, 0.58131814, -6.698688, 2.6377192, -10.499387, 0
910, 1578860031, -0.011161003, -0.7304798, 0.22614066, 0.6443104, -9.757158, 4.7250547, -5.7544084, 0
913, 1578910032, 0.037779856, -0.64907336, 0.1361345, 0.74749225, -6.847889, 4.0175133, 7.0054035, 0
914, 1578926699, 0.051274434, -0.6143745, 0.10983835, 0.77964807, -1.7892022, 5.8162646, 8.211679, 0
915, 1578943366, 0.069439486, -0.5828533, 0.08266388, 0.8053744, 1.9224799, 8.807283, 8.875425, 0
917, 1578976700, 0.12977353, -0.53010195, 0.021134036, 0.8376782, -0.57817703, 6.725993, 14.418579, 0
918, 1578993367, 0.1655481, -0.5023626, -0.009617827, 0.8486068, -0.07019461, 4.1670985, 15.496277, 0
921, 1579043368, 0.2612316, -0.4106375, -0.085591026, 0.8693732, 2.803803, -1.3642777, 10.9730015, 0
922, 1579060035, 0.2865626, -0.38118836, -0.10773976, 0.872336, 4.153696, -2.0789013, 15.38706, 0
923, 1579076702, 0.31041387, -0.35067606, -0.13100573, 0.87378925, 5.094705, -4.043885, 14.680458, 0
925, 1579110036, 0.3550652, -0.29240313, -0.177154, 0.8700841, 5.340448, -6.366472, 9.84609, 0
926, 1579126703, 0.37542185, -0.26582828, -0.19794118, 0.86557126, 4.1153445, -7.488631, 6.894861, 0
929, 1579176704, 0.42524284, -0.20147903, -0.23961037, 0.8492127, 0.6902595, -13.177192, 4.840184, 0
930, 1579193371, 0.43668365, -0.18094529, -0.25099498, 0.84472984, 1.0258632, -13.745666, 2.0545206, 0
931, 1579210038, 0.44493467, -0.16236624, -0.26152757, 0.8409958, 1.3254042, -12.98102, -1.7823658, 0
933, 1579243372, 0.4541461, -0.13330461, -0.27327064, 0.8374396, 2.9717488, -12.144761, -4.38698, 0
935, 1579276706, 0.45772249, -0.11567225, -0.27597535, 0.8372265, 4.4612103, -11.145329, -5.0675907, 0
937, 1579310040, 0.4616663, -0.10609386, -0.27349678, 0.8371431, 4.662426, -8.199227, -5.836577, 0
938, 1579326707, 0.46300185, -0.1037957, -0.27069783, 0.8376031, 3.7067537, -7.1691656, -5.479827, 0
940, 1579360041, 0.46262476, -0.10168493, -0.2635537, 0.8403443, 3.8508878, -4.6873083, -4.102149, 0
941, 1579376708, 0.46142387, -0.10109434, -0.25940034, 0.8423658, 3.5238118, -3.723684, -3.8837566, 0
942, 1579393375, 0.4603693, -0.10014002, -0.25577727, 0.84416276, 3.9633179, -3.7611494, -2.6680007, 0
945, 1579443376, 0.461005, -0.09759847, -0.25248325, 0.8451045, 3.7162404, -4.3460674, -3.9217887, 0
946, 1579460043, 0.46092126, -0.09843644, -0.2514629, 0.8453572, 2.857977, -4.6573415, -5.3996944, 0
948, 1579493377, 0.46045685, -0.10130209, -0.2495834, 0.84582883, 3.9926164, -7.3675847, -3.448596, 0
950, 1579526711, 0.46141484, -0.10503491, -0.24412745, 0.84644336, 3.749023, -8.140029, -5.465133, 0
952, 1579560045, 0.46129963, -0.11283776, -0.2347536, 0.84815204, 3.8215423, -9.315894, -7.0622606, 0
953, 1579576712, 0.45976502, -0.11992032, -0.22758573, 0.8499652, 3.9770195, -10.296431, -7.900707, 0
954, 1579593379, 0.4567191, -0.12903446, -0.21843462, 0.852669, 3.677859, -11.523796, -7.2586164, 0
956, 1579626713, 0.4423169, -0.15656078, -0.19728363, 0.86076957, 4.63334, -13.21239, -9.886743, 0
957, 1579643380, 0.42970917, -0.1805312, -0.18089844, 0.8660457, 10.673231, -17.320179, -8.673223, 0
958, 1579660047, 0.41891262, -0.21045247, -0.15904206, 0.8688661, 17.133139, -23.093803, -3.7788296, 0
960, 1579693381, 0.39699617, -0.29281223, -0.10877496, 0.8630316, 15.796667, -33.33165, -8.661728, 0
961, 1579710048, 0.37054285, -0.34723902, -0.08085794, 0.85766286, 16.770388, -32.946632, -10.423927, 0
962, 1579726715, 0.36131197, -0.3367893, -0.064728074, 0.86708575, 11.545674, -24.645643, 28.145752, 1024
965, 1579776716, 0.3298709, -0.40791768, -0.017568447, 0.8511641, 0.9407266, 8.466185, -1.987822, 0
966, 1579793383, 0.30567282, -0.45353332, 0.022862233, 0.8368688, -1.0971568, -1.623255, 1.0970182, 0
968, 1579826717, 0.2524983, -0.55071187, 0.09561435, 0.78982246, -3.3300526, 0.42594618, 2.4034834, 0
969, 1579843384, 0.2216296, -0.6070299, 0.13139956, 0.7517512, -7.254424, 9.315253, 7.1319714, 0
971, 1579876718, 0.11119517, -0.7362442, 0.18035015, 0.6426932, -15.959315, 32.42519, 30.495117, 0
972, 1579893385, 0.032134145, -0.7844767, 0.1713137, 0.5951604, -9.318805, 58.79862, 60.773518, 1024
975, 1579943386, -0.046214633, -0.8265364, 0.21851233, 0.5166767, -10.228529, 20.343601, 22.558407, 0
976, 1579960053, -0.089794025, -0.8284308, 0.24888217, 0.49365786, -10.664305, 52.059742, 5.9044523, 0
977, 1579976720, -0.12313025, -0.8284936, 0.28662127, 0.46506593, -16.560734, 38.799797, -5.2746763, 0
980, 1580026721, -0.20674023, -0.8283504, 0.35136193, 0.3842388, -10.895061, 20.22127, -31.977549, 0
981, 1580043388, -0.21417516, -0.82798797, 0.36249346, 0.37035686, -8.714108, 12.515845, -29.366287, 0
983, 1580076722, -0.21481177, -0.8233009, 0.37909025, 0.36376184, -3.6553662, 2.4869707, -22.69936, 0
984, 1580093389, -0.21277079, -0.81929386, 0.38602835, 0.3667001, -2.2907777, 2.1527672, -21.721458, 0
985, 1580110056, -0.20646471, -0.81527144, 0.3907144, 0.3742298, -1.7296419, 2.6409938, -21.326122, 0
987, 1580143390, -0.17804986, -0.810035, 0.38777733, 0.4022077, -1.2437793, 0.247948, -18.393486, 0
988, 1580160057, -0.15729919, -0.80866575, 0.3791189, 0.42141014, -1.8651054, -1.4975121, -16.52067, 0
991, 1580210058, -0.083859175, -0.79917336, 0.3320622, 0.49398893, -7.3794494, 0.5114905, -13.923067, 0
992, 1580226725, -0.054507703, -0.7895458, 0.31316537, 0.524952, -8.080213, 1.7244679, -12.712498, 0
995, 1580276726, 0.040560335, -0.7291623, 0.25008634, 0.63571596, -7.0426874, 6.7787633, -6.9587917, 0
996, 1580293393, 0.0693924, -0.7009596, 0.22258295, 0.6740163, -5.6926994, 8.777983, -3.6739373, 0
998, 1580326727, 0.12461673, -0.6365278, 0.15873437, 0.74438375, -4.4970465, 10.896573, 4.861409, 0
999, 1580343394, 0.1495161, -0.6005974, 0.123657614, 0.7756528, -2.567294, 10.180123, 9.759085, 0
1000, 1580360061, 0.1729252, -0.56374097, 0.08740556, 0.80290353, 0.45838293, 9.176968, 13.857105, 0
1002, 1580393395, 0.2162121, -0.49107778, 0.010397982, 0.84379345, 3.359429, 2.6319404, 21.595554, 0
1003, 1580410062, 0.23468845, -0.45454228, -0.029164186, 0.8587566, 5.1383944, -1.8568462, 22.553062, 0
1004, 1580426729, 0.2515313, -0.41720784, -0.06700455, 0.8707359, 6.4789777, -4.3757544, 21.655748, 0
1007, 1580476730, 0.29376405, -0.3094249, -0.16917005, 0.8884486, 10.080821, -9.051389, 11.535948, 0
1010, 1580526731, 0.35562938, -0.22776614, -0.23499519, 0.87545884, 8.296572, -8.255533, 6.5046406, 0
1011, 1580543398, 0.38302642, -0.20679533, -0.24736361, 0.86564344, 7.3084345, -9.437674, 4.6284266, 0
1012, 1580560065, 0.41134474, -0.18827905, -0.2566721, 0.85408807, 5.2831283, -12.2009945, 2.537075, 0
1014, 1580593399, 0.4608078, -0.15959929, -0.2666097, 0.831327, 1.1676655, -13.880604, -3.8565698, 0
1015, 1580610066, 0.47504777, -0.14826061, -0.26841506, 0.8248044, -0.70680726, -14.084905, -5.5481305, 0
1016, 1580626733, 0.4802519, -0.13906664, -0.2692906, 0.82310516, -0.28500193, -12.77758, -5.547576, 0
1018, 1580660067, 0.47415897, -0.12508011, -0.26824892, 0.8291994, 2.0162013, -9.457009, -2.4347692, 0
1019, 1580676734, 0.470137, -0.11887107, -0.26879713, 0.8322197, 2.5987642, -5.75954, -3.0227056, 0
1021, 1580710068, 0.47288272, -0.10957311, -0.2634742, 0.8336413, 2.8443995, -3.7266767, -2.494781, 0
1025, 1580776736, 0.4905628, -0.09903899, -0.24517532, 0.8303188, -1.2767241, -7.5218983, -4.2165527, 0
1026, 1580793403, 0.48967782, -0.09693596, -0.24314745, 0.83168435, -0.47915986, -6.648712, -6.0852, 0
1027, 1580810070, 0.48708335, -0.09570095, -0.23998679, 0.834265, 0.5458189, -6.6493425, -6.64453, 0
1029, 1580843404, 0.47949302, -0.09612233, -0.22806463, 0.84192294, 2.6063437, -7.063136, -5.994671, 0
1030, 1580860071, 0.47608876, -0.097648166, -0.22130473, 0.84547573, 3.357829, -7.5907574, -5.347846, 0
1031, 1580876738, 0.47388646, -0.09934541, -0.21512961, 0.84810483, 4.640377, -8.793688, -4.380828, 0
1033, 1580910072, 0.4740207, -0.10471177, -0.20637076, 0.84955966, 4.060404, -7.962672, -8.991495, 0
1034, 1580926739, 0.47360915, -0.11194131, -0.20083117, 0.8501948, 3.2863195, -10.528565, -8.300106, 0
1035, 1580943406, 0.4718691, -0.12032756, -0.19682492, 0.85095334, 3.522089, -14.021558, -5.917539, 0
1037, 1580976740, 0.46015403, -0.14149684, -0.19079274, 0.855474, 4.06721, -17.470085, -6.667616, 0
1039, 1581010074, 0.42956185, -0.17198776, -0.17087358, 0.86988497, 10.808935, -20.836882, -6.1736584, 0
1041, 1581043408, 0.39065933, -0.22624223, -0.13292465, 0.8823443, 17.61017, -25.364079, -6.148259, 0
1042, 1581060075, 0.3700245, -0.27523467, -0.11568194, 0.87974215, 28.751272, -37.44507, -19.95873, 0
1043, 1581076742, 0.37260568, -0.29607823, -0.09493528, 0.8743516, 11.058094, -41.79721, 37.901695, 0
1045, 1581110076, 0.34435457, -0.32888058, -0.073705055, 0.8762567, 6.5798926, -1.7386174, 5.377247, 0
1046, 1581126743, 0.32568264, -0.35569304, -0.056926366, 0.87417006, -5.1448627, -1.7740232, 1.3409481, 0
1047, 1581143410, 0.31026495, -0.39998835, -0.03317073, 0.8617688, -3.0779352, 2.2761085, -0.3569889, 0
1049, 1581176744, 0.26536593, -0.5157872, 0.038544808, 0.81367046, -4.1502595, 5.4170785, 3.7362041, 0
1050, 1581193411, 0.22640024, -0.5808456, 0.08824203, 0.7769011, -4.3387775, 8.8677225, 6.5529823, 0
1054, 1581260079, 0.05043505, -0.78683436, 0.1627825, 0.59317, -3.3025951, 68.88111, 58.53712, 0
1056, 1581293413, -0.005287092, -0.8180135, 0.18618289, 0.54420835, -16.70271, 26.641531, 20.984484, 0
1057, 1581310080, -0.03472235, -0.82053363, 0.21464682, 0.52862686, -10.911285, 25.314505, 3.5040522, 0
1058, 1581326747, -0.07614358, -0.8213899, 0.24156381, 0.5110463, -19.127993, 21.345072, -1.5800076, 0
1060, 1581360081, -0.15213984, -0.8095508, 0.2885064, 0.48810413, -13.306858, 27.768873, -18.46511, 0
1061, 1581376748, -0.1762295, -0.8002614, 0.31219155, 0.4806891, -8.375537, 19.144754, -23.815945, 0
1062, 1581393415, -0.19230619, -0.7912846, 0.33471406, 0.47418818, -5.4075685, 13.141379, -25.409378, 0
1064, 1581426749, -0.20492797, -0.77758336, 0.37013692, 0.4651539, -2.0314891, 8.746379, -24.38996, 0
1065, 1581443416, -0.20228234, -0.7739048, 0.3810544, 0.46362865, -2.045416, 8.580396, -23.67324, 0
1066, 1581460083, -0.19380064, -0.77224034, 0.38629305, 0.4656874, -1.9406642, 7.519353, -22.522583, 0
1070, 1581526751, -0.1228325, -0.7721288, 0.35931343, 0.5095329, -3.4724164, 3.3499916, -16.11106, 0
1072, 1581560085, -0.069940075, -0.7654725, 0.32128075, 0.5531181, -6.018205, 3.2392864, -12.923284, 0
1073, 1581576752, -0.04198221, -0.7573871, 0.29514617, 0.58094054, -7.436567, 4.8181276, -11.311173, 0
1075, 1581610086, 0.011468461, -0.72942495, 0.23111944, 0.6437331, -9.131093, 3.7841458, -6.757422, 0
1076, 1581626753, 0.036166474, -0.70837545, 0.19932848, 0.67613995, -9.780113, 6.73115, -3.3189125, 0
1079, 1581676754, 0.10194439, -0.6119487, 0.1068473, 0.77698815, -5.0374403, 7.1872067, 7.702135, 0
1080, 1581693421, 0.12144253, -0.5746859, 0.075707495, 0.80576473, 0.02717789, 6.804428, 9.254847, 0
1081, 1581710088, 0.14234962, -0.54034466, 0.04491862, 0.8280986, 3.6132216, 7.8696594, 11.419579, 0
1084, 1581760089, 0.22772281, -0.45149666, -0.051480077, 0.8611872, 2.3835902, -1.3991851, 17.421309, 0
1085, 1581776756, 0.25360554, -0.42171723, -0.08241227, 0.86663014, 2.1343536, -5.9153748, 18.620468, 0
1088, 1581826757, 0.3126777, -0.32732558, -0.15542673, 0.8780283, 9.660218, -6.362996, 12.750259, 0
1089, 1581843424, 0.33421308, -0.29858765, -0.17264718, 0.8771207, 10.359048, -5.9218106, 10.203991, 0
1091, 1581876758, 0.3854119, -0.24816132, -0.19936857, 0.8660985, 9.076836, -6.961699, 9.106064, 0
1092, 1581893425, 0.41350794, -0.22477177, -0.2113474, 0.85663396, 7.9248967, -8.198, 6.5600815, 0
1093, 1581910092, 0.44125465, -0.20318191, -0.22179492, 0.84546983, 5.981296, -8.995995, 2.678585, 0
1095, 1581943426, 0.4899647, -0.16771795, -0.23841402, 0.8215624, 0.709657, -12.587619, 1.354825, 0
1096, 1581960093, 0.5080977, -0.15150374, -0.24537233, 0.8115889, -0.4109699, -13.142192, -0.65409374, 0
1099, 1582010094, 0.5144082, -0.10947382, -0.26515046, 0.8081433, 0.7396196, -12.281183, -5.397894, 0
1100, 1582026761, 0.50680614, -0.09887414, -0.270894, 0.81239694, 2.325434, -10.4976015, -6.654318, 0
1102, 1582060095, 0.49243918, -0.08511455, -0.2788557, 0.8200607, 4.8849196, -7.7651477, -6.371728, 0
1104, 1582093429, 0.48994756, -0.0796566, -0.27813, 0.82234454, 4.117054, -6.311519, -5.8127165, 0
1106, 1582126763, 0.49804518, -0.078849964, -0.27042478, 0.8201248, 1.5811327, -7.002297, -5.4070764, 0
1107, 1582143430, 0.50138426, -0.080129616, -0.265626, 0.81953436, 1.1390892, -7.219527, -5.302378, 0
1108, 1582160097, 0.50307935, -0.082139954, -0.26096898, 0.8197927, 0.94255996, -6.718489, -5.734187, 0
1110, 1582193431, 0.5025912, -0.08967441, -0.25377184, 0.8215601, 1.0772306, -6.274051, -5.3466973, 0
1111, 1582210098, 0.5007372, -0.093749404, -0.24945314, 0.8235576, 2.0792496, -6.1948247, -4.1485972, 0
1114, 1582260099, 0.4900622, -0.107301414, -0.22997642, 0.8339287, 3.4054174, -5.4783792, -4.1316543, 0
1115, 1582276766, 0.48650524, -0.112958804, -0.22238871, 0.8373155, 3.4344404, -6.2842793, -3.443985, 0
1116, 1582293433, 0.48407298, -0.1194354, -0.21549638, 0.8396253, 2.8545904, -5.5380054, -4.4587755, 0
1118, 1582326767, 0.48086354, -0.1362686, -0.20015942, 0.8426971, 3.25869, -7.2190413, -1.498621, 0
1119, 1582343434, 0.47950497, -0.14342043, -0.19049096, 0.84452313, 2.3153045, -7.1281157, -2.1702738, 0
1120, 1582360101, 0.47793013, -0.150897, -0.1806298, 0.8462781, 1.4283781, -7.6376753, -3.1541119, 0
1122, 1582393435, 0.47057146, -0.1667268, -0.16222022, 0.8511463, -1.0460904, -9.848057, -3.1087494, 0
1123, 1582410102, 0.4614837, -0.1742893, -0.15249497, 0.85638905, -0.7585104, -12.221444, -2.2156281, 0
1124, 1582426769, 0.44771945, -0.18285434, -0.14235352, 0.8636248, 2.752211, -15.787941, -3.8027096, 0
1126, 1582460103, 0.4171136, -0.21499231, -0.1076583, 0.8764731, 12.833773, -22.203695, -4.041719, 0
1128, 1582493437, 0.38564137, -0.30800804, -0.075689465, 0.8664201, 52.13238, -60.68612, -2.6563215, 0
1130, 1582526771, 0.37534776, -0.33165118, -0.061514646, 0.86332977, -3.0599942, 15.191095, -1.2350931, 0
1131, 1582543438, 0.35300985, -0.35288534, -0.04690476, 0.8652495, 1.6622733, -5.6940136, 2.5606318, 0
1134, 1582593439, 0.29342392, -0.48898628, 0.024911322, 0.8210816, -1.2739669, 3.40674, 0.65949154, 0
1135, 1582610106, 0.26680407, -0.5478731, 0.063476674, 0.79033035, -3.6307576, 5.557343, 3.4858894, 0
1137, 1582643440, 0.16369905, -0.68718165, 0.14756107, 0.69225025, -11.760052, 26.294796, 23.602283, 0
1138, 1582660107, 0.079609364, -0.7562255, 0.17346373, 0.6258567, -14.798582, 36.0294, 32.123276, 0
1139, 1582676774, 0.008619824, -0.8010735, 0.17683765, 0.5717832, -8.509326, 77.398796, 69.297745, 1024
1141, 1582710108, 0.012857374, -0.8209104, 0.2184959, 0.5274477, -7.4079704, -35.65837, 4.0060043, 0
1143, 1582743442, -0.08934315, -0.8399125, 0.24545792, 0.4757267, -13.0474415, 43.47514, -3.706356, 0
1145, 1582776776, -0.1558707, -0.85005534, 0.27502465, 0.42127478, -21.729004, 28.569185, -18.923, 0
1146, 1582793443, -0.18117008, -0.85018903, 0.28091353, 0.4067486, -14.615912, 24.691912, -25.615189, 0
1147, 1582810110, -0.18801075, -0.85091364, 0.29059628, 0.39516154, -8.972167, 13.649293, -25.274958, 0
1150, 1582860111, -0.17649636, -0.84777385, 0.3311072, 0.37483007, -8.187341, 3.6720102, -21.618431, 0
1151, 1582876778, -0.16913989, -0.8411059, 0.3444562, 0.3811606, -6.6845427, 3.3993852, -20.897358, 0
1153, 1582910112, -0.14092967, -0.82382053, 0.3648927, 0.410259, -3.3510659, 3.6895413, -19.461388, 0
1154, 1582926779, -0.11800222, -0.8144585, 0.37113157, 0.43011007, -3.4638438, 3.6183782, -18.074469, 0
1156, 1582960113, -0.06539254, -0.7924016, 0.36468297, 0.48459312, -4.2919693, 3.0261424, -14.8221245, 0
1158, 1582993447, -0.011645654, -0.7601068, 0.329799, 0.55976385, -6.8431096, 4.7272964, -11.106248, 0
1160, 1583026781, 0.03404957, -0.7076673, 0.26841608, 0.6526876, -6.3674884, 5.4155054, -4.427028, 0
1161, 1583043448, 0.053678505, -0.6745854, 0.23476347, 0.69781095, -3.2151396, 4.8551, -2.1345477, 0
1162, 1583060115, 0.07346311, -0.6406626, 0.20004782, 0.73765594, -3.3292298, 6.0061107, 0.50129414, 0
1164, 1583093449, 0.10727918, -0.5732838, 0.110617645, 0.80473685, -2.942157, 4.097694, 10.194153, 0
1166, 1583126783, 0.13851407, -0.5069317, 0.02193082, 0.8505021, 2.1257393, 4.4574966, 17.400751, 0
1168, 1583160117, 0.18536815, -0.4415164, -0.055139497, 0.8761634, 3.8518724, -0.5662274, 18.375338, 0
1169, 1583176784, 0.21278271, -0.40972516, -0.08947434, 0.88252133, 3.2266405, -5.085341, 15.069899, 0
1170, 1583193451, 0.23888862, -0.3794824, -0.11925495, 0.8858354, 3.757929, -6.997563, 14.535913, 0
1173, 1583243452, 0.30191064, -0.29233208, -0.18315625, 0.8887331, 6.3082166, -9.82942, 7.5292015, 0
1174, 1583260119, 0.31930366, -0.2654198, -0.1967184, 0.88820046, 6.95989, -8.779679, 5.823598, 0
1176, 1583293453, 0.35445768, -0.22054039, -0.21771555, 0.8822257, 6.843498, -7.154898, 2.2392588, 0
1177, 1583310120, 0.37438145, -0.2032555, -0.2258809, 0.87607324, 6.081847, -7.6340947, 1.8744106, 0
1178, 1583326787, 0.3952406, -0.18857928, -0.23203632, 0.86855215, 4.609938, -7.8900995, 0.38355637, 0
1180, 1583360121, 0.4346329, -0.1648303, -0.23644447, 0.85324085, 1.1021903, -9.816407, -0.5045042, 0
1183, 1583410122, 0.46003652, -0.13292506, -0.23338947, 0.8463021, -0.19437295, -10.447264, -1.6449451, 0
1184, 1583426789, 0.45875782, -0.12301979, -0.23695065, 0.8475037, 0.5766697, -9.331096, -2.6675735, 0
1185, 1583443456, 0.45581412, -0.11466999, -0.2408578, 0.84915996, 2.0381384, -6.4766407, -4.843392, 0
1188, 1583493457, 0.4443682, -0.09952868, -0.24314119, 0.8564544, 3.5749454, -4.671033, -3.7723699, 0
1189, 1583510124, 0.4429351, -0.096973635, -0.24212079, 0.857778, 3.7671669, -4.4838686, -3.4877572, 0
1191, 1583543458, 0.4455304, -0.09472679, -0.23982337, 0.8573302, 3.3700686, -4.6089044, -3.6431937, 0
1192, 1583560125, 0.44809493, -0.09536403, -0.23806183, 0.8564133, 2.7751017, -4.333356, -4.0603004, 0
1193, 1583576792, 0.45034727, -0.097264715, -0.23514572, 0.85582346, 2.6966283, -4.815083, -3.8080044, 0
1195, 1583610126, 0.45426214, -0.102402136, -0.22737001, 0.8552563, 2.5241482, -5.310117, -3.9672046, 0
1196, 1583626793, 0.4562395, -0.10555722, -0.22404799, 0.8546966, 1.2959458, -5.174653, -4.2529984, 0
1197, 1583643460, 0.45697266, -0.10963615, -0.22081113, 0.8546338, 1.2210209, -5.4299636, -3.0853915, 0
1199, 1583676794, 0.4525065, -0.11929144, -0.21438624, 0.85734874, 1.9378777, -4.686889, -2.3703752, 0
1200, 1583693461, 0.44839722, -0.12537463, -0.21117733, 0.85943353, 2.2614791, -4.319435, -2.3734293, 0
1203, 1583743462, 0.4337234, -0.14710647, -0.20030329, 0.8660963, 1.419638, -4.2893887, -1.2460442, 0
1204, 1583760129, 0.42679012, -0.1559827, -0.195523, 0.8690749, 1.6300453, -4.2809496, -0.32507515, 0
1205, 1583776796, 0.41848728, -0.1652381, -0.18984506, 0.87265354, 1.9939193, -3.5508442, 0.47269058, 0
1207, 1583810130, 0.4035299, -0.18336073, -0.17422283, 0.879312, 2.4965804, -0.61517423, 0.4836874, 0
1208, 1583826797, 0.39893842, -0.19131067, -0.16441588, 0.88159883, 1.9044083, 0.70111513, 0.16778469, 0
1209, 1583843464, 0.39718068, -0.19878727, -0.15545444, 0.88236374, 0.7171837, 1.2748289, 0.26833534, 0
1212, 1583893465, 0.40861374, -0.21138068, -0.14285675, 0.876325, 1.1701661, -3.4364085, -2.7074404, 0
1214, 1583926799, 0.41432965, -0.22210242, -0.14442079, 0.8707151, 3.4734223, -12.623861, -7.6288977, 0
1215, 1583943466, 0.41333196, -0.23138249, -0.14340317, 0.86893904, 7.1063466, -17.229643, -7.294023, 0
1218, 1583993467, 0.39191267, -0.28574067, -0.09933987, 0.8688436, 10.751643, -26.378944, -14.165039, 0
1219, 1584010134, 0.377062, -0.31728315, -0.074371204, 0.8669632, 7.4204288, -25.908424, -17.911608, 0
1220, 1584026801, 0.38005072, -0.31751877, -0.07088238, 0.86586344, 34.529953, -54.61288, 42.583195, 1024
1222, 1584060135, 0.35689086, -0.3503077, -0.06465346, 0.8635588, 3.2358203, -2.3171368, 4.4370766, 0
1223, 1584076802, 0.33660153, -0.38476017, -0.048215076, 0.85809976, -3.199501, 4.127948, -0.77991486, 0
1224, 1584093469, 0.31862596, -0.4400183, -0.02472756, 0.8391963, -6.8356237, 2.1647873, 0.2021122, 0
1226, 1584126803, 0.2567387, -0.5795092, 0.059195437, 0.771201, -6.3791347, 8.7651415, 8.968212, 0
1228, 1584160137, 0.1265672, -0.7287922, 0.13389435, 0.65948135, -16.28258, 30.081501, 31.173672, 0
1230, 1584193471, 0.056210753, -0.79306275, 0.1479305, 0.5882254, -19.193897, 65.790085, 49.434395, 0
1232, 1584226805, -0.03380809, -0.82286286, 0.17463864, 0.53968114, -13.449945, 35.86809, 21.313934, 0
1234, 1584260139, -0.11145309, -0.83747196, 0.22082493, 0.48729426, -17.019686, 27.592785, -4.506952, 0
1235, 1584276806, -0.14905697, -0.8430987, 0.24262314, 0.45618105, -20.209364, 33.37667, -13.193298, 0
1237, 1584310140, -0.19872738, -0.844135, 0.28224212, 0.41022348, -14.699331, 16.208519, -26.781775, 0
1238, 1584326807, -0.21538094, -0.83979696, 0.29873526, 0.3988859, -11.640541, 10.517596, -26.504635, 0
1239, 1584343474, -0.22745515, -0.8328154, 0.31472477, 0.3945016, -7.8094435, 8.019716, -25.390865, 0
1241, 1584376808, -0.23085944, -0.817437, 0.3501394, 0.39484632, -2.184932, 6.3652625, -23.806171, 0
1242, 1584393475, -0.2223399, -0.8112318, 0.36631238, 0.39784908, -1.7651196, 5.6523447, -22.953897, 0
1245, 1584443476, -0.16788962, -0.80172837, 0.38274798, 0.42725796, -0.801439, 4.8848524, -20.123022, 0
1247, 1584476810, -0.10722826, -0.7977773, 0.36182746, 0.47024998, -3.0800884, 2.874851, -15.832642, 0
1249, 1584510144, -0.040660664, -0.78232074, 0.31978416, 0.5329724, -6.7585764, 6.1213627, -12.055027, 0
1250, 1584526811, -0.008017115, -0.7669563, 0.29229844, 0.5712056, -7.886709, 4.1484733, -10.129842, 0
1251, 1584543478, 0.021091357, -0.74581903, 0.26228318, 0.6119783, -8.626543, 6.687416, -6.842098, 0
1253, 1584576812, 0.07208498, -0.6844657, 0.19838941, 0.6978199, -9.67214, 6.893954, 0.25433064, 0
1254, 1584593479, 0.08952786, -0.6464687, 0.1609486, 0.7403777, -8.912352, 8.491005, 6.8732796, 0
1255, 1584610146, 0.10239219, -0.60551995, 0.11866504, 0.7802439, -6.1171956, 6.869858, 11.106445, 0
1257, 1584643480, 0.12804495, -0.52257097, 0.027918927, 0.8424638, -1.5945204, 6.8142343, 20.997416, 0
1258, 1584660147, 0.14766091, -0.4795047, -0.017809343, 0.86484396, 0.41266695, 1.5168045, 20.38729, 0
1262, 1584726815, 0.24437472, -0.34416026, -0.15881759, 0.8925314, 7.179628, -8.43877, 16.136698, 0
1264, 1584760149, 0.30209836, -0.28892154, -0.19159968, 0.88800395, 6.8943195, -10.494156, 9.168076, 0
1265, 1584776816, 0.32839122, -0.26286554, -0.20338775, 0.884135, 7.448534, -9.886284, 4.821415, 0
1266, 1584793483, 0.35192934, -0.24006757, -0.2121602, 0.87948966, 6.7173476, -10.063666, 1.8520813, 0
1268, 1584826817, 0.38894817, -0.20506474, -0.22072561, 0.8706024, 5.212859, -9.812714, -0.0073432922, 0
1269, 1584843484, 0.40389875, -0.18989992, -0.22382443, 0.86643344, 4.370771, -11.263389, 1.6713142, 0
1270, 1584860151, 0.41798326, -0.17619118, -0.22898129, 0.86128676, 2.9187434, -9.961976, -1.1386833, 0
1272, 1584893485, 0.4380256, -0.15398188, -0.23503001, 0.85392296, 1.9528081, -9.642767, -3.1157937, 0
1273, 1584910152, 0.44212306, -0.1446102, -0.23557296, 0.8533001, 1.7524002, -9.402039, -4.194225, 0
1274, 1584926819, 0.4427162, -0.1363472, -0.23430598, 0.8547005, 1.4951061, -8.734085, -4.7393317, 0
1277, 1584976820, 0.43700397, -0.116192415, -0.23633331, 0.86004305, 3.8280334, -6.1518164, -3.363697, 0
1278, 1584993487, 0.43627638, -0.111887746, -0.23747261, 0.86066926, 4.32504, -4.8420033, -4.106729, 0
1280, 1585026821, 0.44140327, -0.107990354, -0.23499846, 0.8592307, 3.0730698, -4.452272, -4.5029316, 0
1281, 1585043488, 0.44627026, -0.10757343, -0.2308939, 0.8578808, 2.0817456, -5.2890973, -3.62753, 0
1282, 1585060155, 0.4507745, -0.10718345, -0.22628975, 0.85680085, 1.4328074, -6.0208216, -2.5478735, 0
1284, 1585093489, 0.45515838, -0.107883036, -0.21947394, 0.8561683, 1.3976916, -5.4798026, -2.4944358, 0
1285, 1585110156, 0.4557824, -0.10888829, -0.21797156, 0.8560927, 1.5455737, -5.4120893, -2.708705, 0
1286, 1585126823, 0.4560402, -0.1102804, -0.21689063, 0.8560518, 0.9409612, -5.0569944, -3.458694, 0
1288, 1585160157, 0.45425183, -0.11429503, -0.21140262, 0.8578471, 0.8726577, -5.348269, -3.9278321, 0
1292, 1585226825, 0.44816858, -0.12724721, -0.19252469, 0.86364806, 2.8803213, -6.435962, -3.3599277, 0
1293, 1585243492, 0.44737023, -0.1322377, -0.18637425, 0.8646609, 2.3000164, -6.6974034, -4.4527106, 0
1295, 1585276826, 0.4433961, -0.14529322, -0.1746595, 0.86705494, 0.5616684, -9.2113695, -3.1171594, 0
1296, 1585293493, 0.43668002, -0.15140481, -0.16955322, 0.87042487, 1.4071342, -10.7137165, -2.4266577, 0
1297, 1585310160, 0.42663407, -0.15744384, -0.16703904, 0.8748105, 3.2480905, -12.342109, -4.2755365, 0
1299, 1585343494, 0.4016554, -0.1784761, -0.15828562, 0.88417506, 9.620564, -15.289114, -5.1393247, 0
1300, 1585360161, 0.38947964, -0.1947725, -0.14848274, 0.88787556, 12.015573, -15.915531, -6.559148, 0
1301, 1585376828, 0.37598634, -0.21774828, -0.13333741, 0.8907534, 12.853156, -18.433105, -8.712414, 0
1303, 1585410162, 0.34507546, -0.29234022, -0.09848959, 0.8864314, 25.588453, -28.930105, -23.396996, 0
1304, 1585426829, 0.35138252, -0.30196366, -0.08290793, 0.88231236, 41.487633, -27.431023, 32.782898, 0
1308, 1585493497, 0.29199693, -0.43125337, -0.028989492, 0.85318136, -4.389754, 3.0968347, 0.42992306, 0
1309, 1585510164, 0.27082756, -0.49918255, 0.006001342, 0.8230636, -4.455756, 6.1639385, 2.0343828, 0
1311, 1585543498, 0.19036925, -0.64256763, 0.11093607, 0.7338664, -10.496023, 15.43195, 17.514368, 0
1313, 1585576832, 0.069283985, -0.7628901, 0.15314707, 0.6242954, -4.874958, 59.06396, 50.270344, 0
1315, 1585610166, 0.07328494, -0.808148, 0.20453481, 0.54744136, -3.8594012, -26.54705, 7.882805, 0
1316, 1585626833, 0.015698792, -0.82829994, 0.21674621, 0.5164245, -12.789034, 39.198208, 22.955452, 0
1317, 1585643500, -0.02048776, -0.83748484, 0.24135448, 0.4898447, -11.202669, 39.652985, 4.003874, 0
1319, 1585676834, -0.11225664, -0.8474875, 0.28440332, 0.4339109, -19.211006, 37.500504, -15.278832, 0
1322, 1585726835, -0.21156456, -0.83067465, 0.3307014, 0.3947875, -5.329117, 14.312724, -25.972847, 0
1323, 1585743502, -0.22452894, -0.8246243, 0.34402773, 0.3888789, -2.124559, 10.30787, -25.150158, 0
1326, 1585793503, -0.21791935, -0.8179884, 0.3692813, 0.38345513, -3.7585504, 3.1075141, -22.184807, 0
1327, 1585810170, -0.2067974, -0.81796736, 0.3671772, 0.39159375, -2.8770013, 0.42125955, -20.318521, 0
1328, 1585826837, -0.19192944, -0.81845313, 0.3610743, 0.40363756, -3.7716424, -0.22711708, -18.886585, 0
1330, 1585860171, -0.1491596, -0.81655097, 0.33643377, 0.4447569, -5.986909, -2.574869, -16.06585, 0
1331, 1585876838, -0.12510695, -0.8119484, 0.31865284, 0.47280943, -7.494119, -2.1769094, -14.834744, 0
1332, 1585893505, -0.09907547, -0.8035387, 0.29847983, 0.50539076, -8.333412, -0.15525858, -14.014982, 0
1334, 1585926839, -0.035590902, -0.7717668, 0.25585717, 0.5810736, -9.917545, 4.8938966, -10.154283, 0
1336, 1585960173, 0.031781994, -0.7167469, 0.20524593, 0.6656865, -9.089635, 4.940944, -3.8406272, 0
1338, 1585993507, 0.0924831, -0.6434892, 0.1500181, 0.7448916, -4.522039, 9.506155, 3.0204353, 0
1339, 1586010174, 0.12275253, -0.6049971, 0.11856316, 0.7777233, -0.3011961, 10.263024, 7.4442997, 0
1342, 1586060175, 0.22763288, -0.50872153, 0.014459804, 0.83016676, 4.3316803, 5.7591553, 22.108519, 0
1343, 1586076842, 0.2673671, -0.47383067, -0.017444242, 0.8388655, 6.8958745, 3.2787879, 24.613525, 0
1345, 1586110176, 0.3428174, -0.4002335, -0.074844316, 0.8465743, 8.606283, -4.0352783, 19.922901, 0
1346, 1586126843, 0.3763567, -0.3640347, -0.10059483, 0.8459998, 8.148674, -6.764319, 14.225792, 0
1347, 1586143510, 0.40646273, -0.3283488, -0.12344477, 0.8436451, 7.748967, -7.782967, 12.48233, 0
1349, 1586176844, 0.455697, -0.2618714, -0.16605961, 0.8343789, 6.1364927, -10.192202, 7.5486546, 0
1351, 1586210178, 0.4900979, -0.20865832, -0.20568, 0.8209518, 4.1399426, -11.4966, 2.8860455, 0
1353, 1586243512, 0.5102451, -0.16894792, -0.23170479, 0.8108144, 0.6831254, -14.016485, -0.023658752, 0
1354, 1586260179, 0.5118327, -0.15147792, -0.24235973, 0.8101506, -0.37139055, -14.117762, -2.6806312, 0
1355, 1586276846, 0.5077813, -0.13644181, -0.25273848, 0.81219786, 1.3973737, -12.9441, -3.6238136, 0
1357, 1586310180, 0.49034882, -0.112748824, -0.26992986, 0.82096547, 4.558965, -10.560698, -3.6684346, 0
1358, 1586326847, 0.48100322, -0.10407717, -0.27720228, 0.825205, 4.7818894, -8.266124, -4.39076, 0
1359, 1586343514, 0.47377047, -0.09753986, -0.2817391, 0.82864404, 4.908318, -5.9518795, -4.282418, 0
1361, 1586376848, 0.4710281, -0.08728813, -0.27996302, 0.8319463, 3.5853486, -5.4048953, -2.549879, 0
1362, 1586393515, 0.4757887, -0.0826627, -0.27698618, 0.8307052, 2.0109892, -6.2765665, -2.4765687, 0
1363, 1586410182, 0.48280278, -0.079005525, -0.27502164, 0.8276612, 0.30282077, -6.1395545, -3.6010098, 0
1366, 1586460183, 0.49486253, -0.0720412, -0.26860115, 0.823271, -1.9924427, -6.2881985, -4.651657, 0
1367, 1586476850, 0.4933304, -0.07062699, -0.2652489, 0.82539713, -1.065892, -6.2512236, -4.8357873, 0
1369, 1586510184, 0.48507953, -0.066770285, -0.25968376, 0.83234864, 1.1952171, -6.9863396, -3.9371314, 0
1372, 1586560185, 0.47782508, -0.06694783, -0.25203317, 0.83885705, 3.6445937, -5.3706484, -5.9069023, 0
1373, 1586576852, 0.47669363, -0.069395594, -0.24555968, 0.8412184, 3.8907557, -5.900776, -5.8767014, 0
1374, 1586593519, 0.47602543, -0.07259393, -0.2389736, 0.84322125, 3.7706118, -7.887071, -4.838803, 0
1376, 1586626853, 0.47611746, -0.08148854, -0.22988325, 0.8448822, 1.4402444, -8.402231, -7.4877477, 0
1377, 1586643520, 0.4734949, -0.08864485, -0.22581513, 0.84673053, 1.0970054, -10.82439, -6.7474437, 0
1378, 1586660187, 0.4670766, -0.09648634, -0.22228356, 0.850365, 0.37475637, -13.344884, -6.0778446, 0
1381, 1586710188, 0.42103493, -0.12205837, -0.21292685, 0.873209, 5.337584, -18.562296, -6.0251417, 0
1382, 1586726855, 0.39839482, -0.13345884, -0.20034507, 0.88506085, 10.368627, -17.64857, -8.0606575, 0
1384, 1586760189, 0.36618963, -0.18016602, -0.15594481, 0.89951473, 15.083798, -18.818905, -7.613018, 0
1385, 1586776856, 0.35481364, -0.21519595, -0.12759271, 0.9008432, 13.6273155, -16.068207, -10.784403, 0
1388, 1586826857, 0.35132575, -0.3001477, -0.08907239, 0.88235366, 5.453208, 11.336751, 9.117878, 0
1389, 1586843524, 0.33197162, -0.32076836, -0.0805847, 0.8834076, -4.072935, -7.7787704, 7.066284, 0
1390, 1586860191, 0.3155989, -0.3587842, -0.06559439, 0.87599593, -4.611397, -1.0499701, 1.1022472, 0
1392, 1586893525, 0.27747673, -0.48893923, -8.0271624E-4, 0.82700974, -3.3564572, 7.985854, 4.9697924, 0
1393, 1586910192, 0.23988816, -0.5618802, 0.049312912, 0.7901351, -6.2078824, 6.9477153, 8.269989, 0
1396, 1586960193, 0.06325348, -0.74655104, 0.13874853, 0.64761865, -3.0367157, 65.328735, 69.58598, 0
1397, 1586976860, 0.08135761, -0.7606958, 0.14611055, 0.62719613, -1.7190506, 45.59919, 42.26791, 0
1398, 1586993527, 0.07227359, -0.7812714, 0.1741292, 0.5950387, 2.2767358, -21.930965, 6.478672, 0
1400, 1587026861, -0.006857155, -0.8141575, 0.20840973, 0.5419099, -9.137729, 31.640644, 4.65563, 0
1401, 1587043528, -0.04793939, -0.82588077, 0.22708662, 0.5138628, -17.549372, 25.495779, -3.6579275, 0
1404, 1587093529, -0.16495918, -0.83563143, 0.2711199, 0.44833377, -15.192508, 18.224936, -24.283783, 0
1405, 1587110196, -0.19547449, -0.8289255, 0.2860967, 0.43911424, -12.359491, 11.720714, -24.816841, 0
1407, 1587143530, -0.23929115, -0.80777425, 0.32114097, 0.43256164, -5.1876435, 10.539312, -25.745453, 0
1408, 1587160197, -0.24587706, -0.79822135, 0.34197542, 0.43062785, -3.7745168, 9.054413, -25.632788, 0
1411, 1587210198, -0.22947463, -0.7882457, 0.36580315, 0.4384048, -2.0554948, 2.9963894, -21.803493, 0
1412, 1587226865, -0.21274659, -0.7917693, 0.35739762, 0.44733393, -3.0604944, 2.4979842, -19.949326, 0
1413, 1587243532, -0.18930475, -0.7966927, 0.34374654, 0.45965543, -4.4504156, 1.4607598, -17.941465, 0
1415, 1587276866, -0.13207626, -0.8031349, 0.30660063, 0.4934843, -7.365616, -0.021538602, -14.700573, 0
1416, 1587293533, -0.09992097, -0.8005954, 0.28617316, 0.5168832, -10.416768, 2.725694, -13.930137, 0
1417, 1587310200, -0.065833576, -0.7911314, 0.2639801, 0.5478066, -12.790825, 3.7697525, -11.745058, 0
1420, 1587360201, 0.021527687, -0.7135389, 0.20461267, 0.66972613, -11.379485, 9.418556, -1.5040998, 0
1421, 1587376868, 0.046159063, -0.6718221, 0.18762246, 0.7150684, -7.7718215, 10.989209, 1.5143452, 0
1423, 1587410202, 0.09428002, -0.58669364, 0.13544844, 0.79281527, -0.066927716, 10.579369, 8.60643, 0
1426, 1587460203, 0.17241652, -0.47983503, 0.022145063, 0.8599657, 4.038455, 3.3814452, 21.97927, 0
1427, 1587476870, 0.2003025, -0.44462785, -0.01577875, 0.8728899, 6.2344813, -1.0756241, 20.410925, 0
1428, 1587493537, 0.22910085, -0.4101004, -0.051509716, 0.8812932, 6.6871614, -3.2196805, 22.011475, 0
1430, 1587526871, 0.28375125, -0.34191287, -0.11920112, 0.8879034, 5.968251, -11.175271, 13.870192, 0
1431, 1587543538, 0.30590832, -0.30878153, -0.14630334, 0.8886337, 6.71075, -10.80796, 11.397329, 0
1432, 1587560205, 0.3264252, -0.2767465, -0.16832143, 0.8879901, 6.9822974, -9.769289, 9.264275, 0
1434, 1587593539, 0.36911404, -0.21930951, -0.20304166, 0.88001865, 8.037342, -8.929377, 5.488908, 0
1435, 1587610206, 0.39176288, -0.19435576, -0.21557716, 0.8730835, 8.0667715, -8.894654, 3.7860775, 0
1436, 1587626873, 0.41450733, -0.17181346, -0.22516237, 0.86485046, 7.942939, -9.745232, 3.5053291, 0
1438, 1587660207, 0.45857665, -0.13389769, -0.2388965, 0.84540397, 4.7477584, -11.15856, -0.5923338, 0
1440, 1587693541, 0.4925565, -0.10593936, -0.25288045, 0.82596415, -0.25268632, -15.0500765, -0.4857216, 0
1442, 1587726875, 0.49971533, -0.0767279, -0.26937872, 0.81965435, -1.525749, -13.09063, -7.6885405, 0
1443, 1587743542, 0.49330541, -0.06588939, -0.27698225, 0.82194257, -0.23193897, -11.887069, -9.295149, 0
1444, 1587760209, 0.48407298, -0.05778808, -0.28150898, 0.82649094, 2.5468876, -10.71047, -8.763878, 0
1446, 1587793543, 0.46566838, -0.047005847, -0.2846409, 0.8366143, 4.523508, -8.978854, -7.6790524, 0
1447, 1587810210, 0.46053705, -0.045061372, -0.28538406, 0.8393042, 5.169641, -6.469902, -7.8255587, 0
1450, 1587860211, 0.46134725, -0.0485494, -0.26847938, 0.8442281, 1.477076, -5.4382987, -5.300104, 0
1451, 1587876878, 0.46293327, -0.051568024, -0.25984767, 0.8458801, -0.051326174, -6.27859, -4.3433313, 0
1453, 1587910212, 0.460686, -0.057331037, -0.24579647, 0.85092086, 0.292104, -7.9231114, -1.9454308, 0
1455, 1587943546, 0.45254675, -0.06374515, -0.23916814, 0.8567013, 1.3168873, -5.7419124, -3.501975, 0
1457, 1587976880, 0.44457918, -0.07295782, -0.22988404, 0.86265886, 3.4681683, -6.5570173, -2.87667, 0
1458, 1587993547, 0.44205916, -0.07856755, -0.22353798, 0.86512554, 3.6391566, -5.892012, -4.295942, 0
1459, 1588010214, 0.44093084, -0.08600629, -0.21631598, 0.86682785, 3.881548, -6.7873254, -4.0956535, 0
1461, 1588043548, 0.44026503, -0.10312188, -0.20131885, 0.86890966, 3.2666337, -8.67668, -3.0314465, 0
1462, 1588060215, 0.43821153, -0.11316658, -0.19370963, 0.87042576, 3.4678726, -9.2784, -3.1584764, 0
1463, 1588076882, 0.4340627, -0.12400891, -0.1880407, 0.8722687, 4.3771906, -10.953297, -2.8094416, 0
1466, 1588126883, 0.40721157, -0.16869752, -0.17022905, 0.88133, 6.7506824, -13.274461, -4.7305636, 0
1467, 1588143550, 0.39209422, -0.18891343, -0.16104515, 0.88579834, 10.589527, -15.52703, -4.2623534, 0
1470, 1588193551, 0.35659832, -0.29409423, -0.09522188, 0.88163465, 38.92644, -92.59506, 31.803764, 0
1471, 1588210218, 0.35278004, -0.31100655, -0.09716977, 0.8771429, 0.97879004, 49.9478, -10.97731, 0
1473, 1588243552, 0.30832782, -0.37793937, -0.06325323, 0.8706866, -3.5049758, 0.23815797, 0.062242508, 0
1474, 1588260219, 0.2861009, -0.43400735, -0.03060155, 0.85372597, -3.8284845, -0.35852474, 0.62035656, 0
1475, 1588276886, 0.26500368, -0.4993711, 0.006554913, 0.8248389, -3.883636, 3.1897588, 4.581299, 0
1477, 1588310220, 0.19397101, -0.6367491, 0.104155324, 0.7389709, -8.321242, 15.9079485, 17.59716, 0
1478, 1588326887, 0.14067811, -0.7030257, 0.15018216, 0.68074244, -5.0085797, 19.119225, 18.910067, 0
1479, 1588343554, 0.08396835, -0.75810826, 0.1836406, 0.6200787, 15.032268, 37.48215, 46.352455, 0
1482, 1588393555, 0.04434049, -0.8395305, 0.2460471, 0.4823731, -21.496899, 7.939537, 12.313225, 0
1485, 1588443556, -0.1054936, -0.8550441, 0.27990672, 0.42358422, -24.582645, 27.632132, -14.044904, 0
1486, 1588460223, -0.14673619, -0.84613055, 0.2960269, 0.41821066, -17.898773, 26.075647, -20.568964, 0
1488, 1588493557, -0.19422448, -0.8211783, 0.33579457, 0.41855186, -5.488535, 14.569646, -23.935383, 0
1489, 1588510224, -0.2009986, -0.8097453, 0.3585984, 0.41871214, -3.165578, 11.305128, -24.142025, 0
1490, 1588526891, -0.19999185, -0.80043244, 0.37924024, 0.41891345, -2.0207348, 8.7319565, -23.967068, 0
1492, 1588560225, -0.18349062, -0.79042083, 0.40109867, 0.42507237, -0.5886227, 4.757055, -21.577913, 0
1493, 1588576892, -0.16934046, -0.7905241, 0.4007301, 0.4310581, -0.7144136, 3.957887, -20.452473, 0
1494, 1588593559, -0.14984834, -0.79278684, 0.39496163, 0.43936336, -1.6479306, 2.8246427, -18.81694, 0
1496, 1588626893, -0.10388277, -0.7965795, 0.370253, 0.46645766, -4.599296, -0.37168747, -15.426157, 0
1500, 1588693561, -0.011205545, -0.7577098, 0.29479685, 0.58210444, -7.654481, 3.837882, -10.098838, 0
1501, 1588710228, 0.011686545, -0.7339284, 0.27100945, 0.62270945, -6.57059, 4.0144877, -8.058912, 0
1502, 1588726895, 0.033787396, -0.70595354, 0.24441078, 0.66389155, -5.4142795, 7.412917, -5.300678, 0
1504, 1588760229, 0.084160924, -0.64294505, 0.17957884, 0.7397909, -4.1203203, 7.5765815, 0.37956333, 0
1505, 1588776896, 0.10857138, -0.611203, 0.13975643, 0.771435, -4.184714, 6.3236694, 5.222763, 0
1507, 1588810230, 0.14512622, -0.54284817, 0.05365421, 0.8254552, -3.773803, 2.2437356, 14.809114, 0
1508, 1588826897, 0.15896508, -0.5041013, 0.012938539, 0.84879047, -0.8554149, 3.8914907, 22.971767, 0
1509, 1588843564, 0.17658262, -0.46160176, -0.027369782, 0.86890393, 4.4064965, 3.0306723, 24.914951, 0
1511, 1588876898, 0.22912093, -0.3860311, -0.10429755, 0.8874719, 8.793804, -2.966354, 16.994127, 0
1512, 1588893565, 0.26249945, -0.35389045, -0.13604033, 0.88732713, 8.348873, -3.8335516, 18.957268, 0
1515, 1588943566, 0.37345842, -0.26816154, -0.1986724, 0.86553353, 4.7160563, -10.233343, 8.055687, 0
1516, 1588960233, 0.40400863, -0.24272366, -0.21051238, 0.856474, 3.1654792, -11.799869, 6.192564, 0
1517, 1588976900, 0.42964494, -0.22043462, -0.22155583, 0.84718806, -0.119070604, -13.027162, 2.949274, 0
1519, 1589010234, 0.45915404, -0.17966641, -0.23404224, 0.8379276, -2.5684183, -15.337983, 0.1197834, 0
1520, 1589026901, 0.460586, -0.16053121, -0.23840334, 0.8397946, -1.4069825, -14.21214, -2.0742402, 0
1521, 1589043568, 0.45565802, -0.14347099, -0.24115089, 0.8447714, 0.94306016, -12.946592, -2.634313, 0
1523, 1589076902, 0.4392978, -0.11634958, -0.24174117, 0.857346, 3.3763704, -10.471514, -3.9112196, 0
1524, 1589093569, 0.43230245, -0.106021285, -0.24187212, 0.8621907, 4.136988, -9.201955, -3.8670611, 0
1525, 1589110236, 0.4278856, -0.097590506, -0.24202366, 0.86534125, 4.6885595, -8.581288, -3.8458996, 0
1529, 1589176904, 0.4282409, -0.07999614, -0.2402024, 0.8674756, 3.1009417, -7.1075716, -6.9380236, 0
1531, 1589210238, 0.42782313, -0.07880199, -0.2335349, 0.86960906, 2.7009425, -7.936521, -5.1476274, 0
1532, 1589226905, 0.42457178, -0.07998077, -0.23054631, 0.8718894, 3.3726747, -7.2049527, -5.0243554, 0
1534, 1589260239, 0.41739908, -0.08489014, -0.22571526, 0.876142, 3.9619343, -6.53748, -4.624853, 0
1535, 1589276906, 0.41481242, -0.08807021, -0.2229038, 0.87777495, 3.5160902, -5.6897936, -5.1128526, 0
1536, 1589293573, 0.41202834, -0.09249049, -0.21814561, 0.87982476, 3.7341921, -5.3719187, -4.7020097, 0
1538, 1589326907, 0.4057566, -0.10562338, -0.2056753, 0.8842532, 4.1722093, -4.957314, -3.0049963, 0
1539, 1589343574, 0.40321457, -0.11367038, -0.19973883, 0.88577783, 4.1477723, -5.058965, -2.0739584, 0
1540, 1589360241, 0.40132892, -0.12251461, -0.19347192, 0.88684523, 3.2290728, -4.406634, -2.6114035, 0
1542, 1589393575, 0.39664492, -0.14328957, -0.17657842, 0.88936037, 2.1478972, -3.8815873, -1.1486645, 0
1546, 1589460243, 0.38079384, -0.19053291, -0.13745722, 0.8943151, 1.7683051, -2.2143798, 1.1518211, 0
1547, 1589476910, 0.37629098, -0.20258184, -0.12855801, 0.8948962, 1.4894619, -1.5849286, 1.2780333, 0
1548, 1589493577, 0.37139753, -0.21440111, -0.1196471, 0.8954225, 1.3099694, -1.0899496, 1.9029465, 0
1550, 1589526911, 0.36115047, -0.23732607, -0.10274938, 0.89592963, 0.84485215, 0.3205291, 1.3086386, 0
1551, 1589543578, 0.35615295, -0.24841626, -0.09567808, 0.895707, 0.3354576, 0.77451795, 1.1137571, 0
1552, 1589560245, 0.3510737, -0.25905052, -0.08942681, 0.89534575, -0.12378687, 1.0780993, 1.8683252, 0
1554, 1589593579, 0.34044266, -0.27701938, -0.07820967, 0.89512175, -0.596469, 1.8101219, 2.374281, 0
1555, 1589610246, 0.33548564, -0.2845609, -0.07376002, 0.89500546, -0.31187117, 2.2447748, 2.0175533, 0
1556, 1589626913, 0.33123836, -0.29148865, -0.07002118, 0.8946584, 0.06611678, 2.560025, 1.905736, 0
1559, 1589676914, 0.32429847, -0.30957443, -0.06317412, 0.89163, -0.18741888, 1.9545509, 1.2499914, 0
1562, 1589726915, 0.32117045, -0.32260773, -0.061997827, 0.88821787, -0.4877184, 0.8499421, 1.3129444, 0
1563, 1589743582, 0.32025295, -0.32542774, -0.063335255, 0.88742554, -0.82809293, 0.58214295, 0.087433815, 0
1565, 1589776916, 0.3179197, -0.32947603, -0.0640584, 0.88671863, -0.71542263, -0.041693773, -1.0927515, 0
1566, 1589793583, 0.31602457, -0.33231044, -0.06508004, 0.886264, -0.30720776, 0.36252785, 0.15404701, 0
1567, 1589810250, 0.31419376, -0.33426765, -0.065178186, 0.88617164, 0.14293794, 0.10497845, 0.23941231, 0
1569, 1589843584, 0.30998558, -0.3380193, -0.068471804, 0.88598216, 0.15636356, -0.58341163, 0.933671, 0
1570, 1589860251, 0.30769196, -0.33837903, -0.0711278, 0.8864349, -0.42196098, -0.80864125, -0.10307598, 0
1571, 1589876918, 0.30499282, -0.33889884, -0.073342614, 0.88698846, 0.4550349, -0.09158164, 0.55394936, 0
1574, 1589926919, 0.3002754, -0.33822477, -0.0793316, 0.8883389, 0.87325907, 0.16007417, 0.7005949, 0
1575, 1589943586, 0.3006066, -0.33772483, -0.081575625, 0.88821375, -0.4087787, -0.66438174, -0.56870174, 0
1578, 1589993587, 0.30374575, -0.3328861, -0.09076289, 0.88808113, -0.36608583, -1.7112958, -0.9764347, 0
1579, 1590010254, 0.304229, -0.33006147, -0.09303979, 0.88873416, 0.7518425, -1.2360929, 0.85176563, 0
1581, 1590043588, 0.3059638, -0.32391715, -0.09760218, 0.8899093, 1.2506136, -1.2479564, -0.05437374, 0
1582, 1590060255, 0.3076942, -0.3214771, -0.099583074, 0.88997805, 1.8671478, -1.2193047, 1.0206041, 0
1583, 1590076922, 0.3104679, -0.31879008, -0.10188021, 0.88972116, 1.4132733, -1.8888671, -0.5989113, 0
1585, 1590110256, 0.31637982, -0.31570524, -0.107708804, 0.8880503, 1.4950714, -2.112564, 1.079546, 0
1586, 1590126923, 0.31943524, -0.313307, -0.10866013, 0.88769, 1.4274894, -2.6445916, 0.3996458, 0
1589, 1590176924, 0.32527846, -0.3056211, -0.114615366, 0.88749856, 1.7446308, -2.9332163, 0.07401371, 0
1590, 1590193591, 0.32686278, -0.3026699, -0.11722729, 0.8875868, 1.6283337, -3.4768517, -0.44391918, 0
1592, 1590226925, 0.32931235, -0.2966732, -0.124972604, 0.8876492, 2.0462892, -4.111686, -0.48454762, 0
1593, 1590243592, 0.32992065, -0.29362702, -0.12835576, 0.8879534, 2.3245163, -4.4606576, -0.65748024, 0
1594, 1590260259, 0.33018398, -0.2907147, -0.13176398, 0.8883144, 2.644713, -4.4988127, -0.6136532, 0
1596, 1590293593, 0.3313436, -0.28540635, -0.13744193, 0.88874364, 3.2966835, -3.9557922, -1.3635073, 0
1597, 1590310260, 0.3329187, -0.28368032, -0.13947093, 0.8883913, 3.128493, -4.2250514, -0.64058113, 0
1598, 1590326927, 0.3350878, -0.28225923, -0.14125068, 0.887747, 3.2069557, -4.223283, 0.4155426, 0
1600, 1590360261, 0.34074113, -0.28047457, -0.14300425, 0.88587815, 2.937029, -4.143969, -0.5688467, 0
1601, 1590376928, 0.34384233, -0.27993158, -0.14432573, 0.8846363, 2.7015436, -4.222673, 0.19089413, 0
1604, 1590426929, 0.3531449, -0.2780407, -0.14783187, 0.8809817, 1.3918599, -4.211878, -0.47182465, 0
1605, 1590443596, 0.3551867, -0.27757785, -0.14981608, 0.879971, 0.95987123, -4.328485, -0.6699333, 0
1608, 1590493597, 0.35744068, -0.27412358, -0.15578736, 0.8791038, 1.8281198, -4.148499, -0.7956209, 0
1609, 1590510264, 0.3577113, -0.2731195, -0.1574875, 0.8790034, 2.0097466, -3.9576836, -1.2576771, 0
1610, 1590526931, 0.35848644, -0.2728591, -0.15897588, 0.8785003, 2.5449307, -3.7731214, -0.74571705, 0
1612, 1590560265, 0.3635962, -0.27207923, -0.15923207, 0.8765937, 2.591994, -3.8684003, -0.40648365, 0
1613, 1590576932, 0.36757594, -0.27197102, -0.15931004, 0.87495196, 1.9465253, -3.9519258, -1.2650995, 0
1615, 1590610266, 0.37602425, -0.2733293, -0.15830027, 0.8711134, 1.3099641, -4.2675123, -0.55518246, 0
1616, 1590626933, 0.37979096, -0.27433628, -0.15695308, 0.869405, 1.0434364, -4.4049478, -0.4397564, 0
1619, 1590676934, 0.3865237, -0.27828035, -0.15667447, 0.8652244, 0.7025922, -4.338789, -0.50551224, 0
1620, 1590693601, 0.38808212, -0.2786068, -0.1554959, 0.8646343, 1.2123334, -4.314349, 0.24375343, 0
1621, 1590710268, 0.38886142, -0.27844876, -0.15332305, 0.864723, 1.1726553, -4.487903, 0.31343555, 0
1624, 1590760269, 0.3869207, -0.28183532, -0.15372479, 0.864425, 1.2624282, -3.8117323, -0.55858517, 0
1625, 1590776936, 0.38668364, -0.2824545, -0.15265988, 0.86451775, 1.3314534, -4.0090904, -0.008676529, 0
1627, 1590810270, 0.38558403, -0.28374594, -0.14862792, 0.8652883, 1.9151571, -3.4988272, -0.5284395, 0
1628, 1590826937, 0.3847989, -0.28566486, -0.14677691, 0.8653223, 1.9521422, -3.1923993, -0.75884056, 0
1629, 1590843604, 0.3847857, -0.28832847, -0.14544399, 0.8646696, 1.7237618, -2.9485755, -1.0903816, 0
1631, 1590876938, 0.38709298, -0.29315317, -0.14123584, 0.8627129, 1.0031221, -3.227923, -0.80807495, 0
1633, 1590910272, 0.3889236, -0.29730126, -0.1327397, 0.86181873, 1.3710634, -2.9137523, -0.123950005, 0
1635, 1590943606, 0.38975516, -0.30418366, -0.12660792, 0.8599618, 0.62751687, -2.510522, -0.9597378, 0
1636, 1590960273, 0.39009145, -0.30864117, -0.12383714, 0.8586236, 0.184335, -2.397031, -0.80388546, 0
1637, 1590976940, 0.39044827, -0.31255242, -0.120349586, 0.85754174, 0.38928765, -2.5095694, 0.6788893, 0
1640, 1591026941, 0.3894013, -0.31855726, -0.11181169, 0.85696375, -0.1748952, -2.516766, 0.51734924, 0
1641, 1591043608, 0.3873571, -0.3213914, -0.11196977, 0.85681134, -0.43153587, -2.7561283, 0.54344845, 0
1643, 1591076942, 0.3802207, -0.327463, -0.115179315, 0.8572834, -0.5668987, -3.6433012, 0.77310276, 0
1644, 1591093609, 0.37554786, -0.32837424, -0.11679687, 0.85877436, -0.25027186, -4.1602592, 1.7913666, 0
1646, 1591126943, 0.36423275, -0.32590824, -0.121849045, 0.8638702, -0.108376905, -4.252831, -0.91447544, 0
1648, 1591160277, 0.3492468, -0.32498205, -0.124899894, 0.86995053, 0.85730034, -4.5275936, -1.3194036, 0
1650, 1591193611, 0.33251697, -0.32750994, -0.12696818, 0.87524253, 1.8471788, -3.552208, -1.929122, 0
1651, 1591210278, 0.3248959, -0.33094612, -0.12719618, 0.87677765, 2.265995, -3.104142, -1.4066076, 0
1652, 1591226945, 0.31829068, -0.33456394, -0.12660971, 0.8779117, 2.2562664, -3.3390794, 0.35695934, 0
1654, 1591260279, 0.3084337, -0.3346083, -0.12139105, 0.88214, 1.7036221, -3.410972, -0.15854263, 0
1656, 1591293613, 0.29087716, -0.34444022, -0.111215755, 0.8856541, 0.8088949, -5.6593623, -5.486725, 0
1658, 1591326947, 0.26209196, -0.36796904, -0.103776075, 0.88607997, 4.869666, -4.8928432, -1.392211, 0
1659, 1591343614, 0.24737538, -0.38358024, -0.098522775, 0.88428825, 5.3682785, -4.3055377, -5.9568458, 0
1660, 1591360281, 0.23212408, -0.40473774, -0.093229935, 0.87955374, 6.5173674, -4.4258556, -3.1346803, 0
1663, 1591410282, 0.22172628, -0.4449385, -0.06809395, 0.8650036, -2.4832764, 5.987655, 26.295364, 0
1664, 1591426949, 0.22857773, -0.44211864, -0.063787684, 0.86499447, -1.9586829, -2.41932, -5.987949, 0
1666, 1591460283, 0.23168643, -0.43621847, -0.067825645, 0.86685365, 0.82043636, -0.46231174, -0.098241806, 0
1667, 1591476950, 0.23288405, -0.4324427, -0.070027426, 0.86824834, -0.12053622, -0.19170393, 0.35845375, 0
1668, 1591493617, 0.23372605, -0.42793792, -0.0724799, 0.870051, 0.43280602, 0.37859485, 0.06592941, 0
1670, 1591526951, 0.23486258, -0.41803345, -0.07735804, 0.8741306, -0.21116179, -0.25477928, 0.06939983, 0
1671, 1591543618, 0.2355596, -0.41336447, -0.07976764, 0.87594473, -0.090406574, 0.0037493182, 0.23344421, 0
1673, 1591576952, 0.23716553, -0.40487143, -0.08366061, 0.87910944, -0.31018105, -0.4230165, 0.015257835, 0
1674, 1591593619, 0.23848774, -0.40143502, -0.086288296, 0.880073, -0.42789403, -0.776883, -0.12809849, 0
1675, 1591610286, 0.24032861, -0.39868248, -0.08939527, 0.88051337, -0.3571011, -0.35295156, -0.041093826, 0
1678, 1591660287, 0.24576691, -0.3924945, -0.09784763, 0.88089347, -0.043620493, 0.24086869, -0.038399696, 0
1679, 1591676954, 0.24715239, -0.3910223, -0.099884555, 0.8809319, 0.09146859, 0.2631081, 0.03423214, 0
1681, 1591710288, 0.24957001, -0.38969326, -0.102992, 0.8804813, -0.30328757, -0.3165491, 0.060890198, 0
1682, 1591726955, 0.25115573, -0.390435, -0.10425961, 0.87955225, -0.22724791, -0.13644393, 0.1406393, 0
1683, 1591743622, 0.2530339, -0.3919519, -0.10488524, 0.8782639, -0.09440673, -0.0892162, 0.14052486, 0
1686, 1591793623, 0.26091316, -0.39936686, -0.10477906, 0.87261254, 1.245232, 0.17583607, 0.7335167, 0
1687, 1591810290, 0.26543933, -0.4007295, -0.104176305, 0.8706928, 1.3551693, -1.176817, 0.37084484, 0
1689, 1591843624, 0.281542, -0.39945394, -0.10348823, 0.86629176, 1.3263379, -2.2597148, -0.23516846, 0
1690, 1591860291, 0.28955242, -0.39834982, -0.10403914, 0.86409116, 0.7795439, -4.1501813, 0.65709114, 0
1693, 1591910292, 0.29436818, -0.3851461, -0.09485831, 0.86948985, -0.8018902, -4.241271, -2.5169091, 0
1694, 1591926959, 0.28535858, -0.38428935, -0.09042452, 0.8733364, 0.5574388, -3.4189105, -3.5975013, 0
1696, 1591960293, 0.25918162, -0.39086947, -0.079205595, 0.8796438, 3.2038095, -1.6374078, -3.5029154, 0
1697, 1591976960, 0.24553876, -0.4009981, -0.072209366, 0.8796009, 4.1694174, -1.2783978, -5.1375513, 0
1698, 1591993627, 0.23838234, -0.40707195, -0.076868534, 0.87838393, -2.2916439, 6.6673484, 18.391483, 0
1700, 1592026961, 0.23726165, -0.41145012, -0.07851705, 0.87649965, -9.728369, 7.57682, -2.9337974, 0
1702, 1592060295, 0.23727833, -0.41290706, -0.079658926, 0.87570643, 1.3487524, -2.5816276, 0.85229015, 0
1704, 1592093629, 0.24188359, -0.4129389, -0.08197042, 0.8742171, -0.79416627, 0.0427549, -0.28184414, 0
1705, 1592110296, 0.2442981, -0.413317, -0.08375292, 0.8731974, 0.3518556, 0.2087098, -0.21279812, 0
1708, 1592160297, 0.24791563, -0.41302624, -0.088343546, 0.87186205, 0.39472967, 0.5500115, -0.011174202, 0
1709, 1592176964, 0.24790874, -0.4124964, -0.089309074, 0.8720164, -0.033476107, 0.48301983, -0.089214325, 0
1710, 1592193631, 0.24754958, -0.41209933, -0.09030879, 0.87220335, -0.043642946, 0.21191767, -0.067806244, 0
1712, 1592226965, 0.24678896, -0.41231188, -0.09144883, 0.87219954, -0.26293007, -0.10067336, -0.011592865, 0
1713, 1592243632, 0.24689806, -0.4128595, -0.09192087, 0.8718599, -0.30693933, -0.15442264, -0.08591938, 0
1714, 1592260299, 0.2473502, -0.4136708, -0.09272982, 0.8712614, -0.24474658, -0.12851392, -0.17493248, 0
1716, 1592293633, 0.24915314, -0.4160833, -0.09463294, 0.8693924, -0.0060474644, 0.26505888, -0.032155037, 0
1718, 1592326967, 0.25083217, -0.41744447, -0.09527163, 0.8681861, 0.16821902, 0.123368755, -0.16762257, 0
1720, 1592360301, 0.25125355, -0.41732818, -0.09556709, 0.868088, 0.04503261, 0.39042723, -0.06676102, 0
1723, 1592410302, 0.25086787, -0.4159984, -0.095553845, 0.8688388, -0.25850967, 0.09405783, -0.11157608, 0
1724, 1592426969, 0.25090137, -0.4158788, -0.09568933, 0.8688714, -0.19460766, 0.12146186, -0.04703331, 0
1725, 1592443636, 0.2509136, -0.41592884, -0.095862634, 0.86882484, -0.16730277, 0.1379703, -0.076387405, 0
1727, 1592476970, 0.25089175, -0.4165646, -0.096404724, 0.8684667, -0.16554706, 0.108937755, -0.11237621, 0
1728, 1592493637, 0.25089648, -0.4170601, -0.09669529, 0.8681951, -0.17524138, 0.1069847, -0.098257065, 0
1729, 1592510304, 0.25095278, -0.41761416, -0.097136766, 0.8678631, -0.12570453, 0.039881416, -0.12276554, 0
1731, 1592543638, 0.25143996, -0.41875875, -0.09821603, 0.8670485, -0.058443904, 0.12098913, -0.0973444, 0
1732, 1592560305, 0.2517286, -0.41908976, -0.09868848, 0.86675143, 0.013749986, 0.13049133, -0.080560684, 0
1735, 1592610306, 0.25198784, -0.41850412, -0.099399015, 0.8668779, 0.028435597, 0.3385205, -0.05427742, 0
1737, 1592643640, 0.2513296, -0.41717085, -0.09924365, 0.86772895, -0.0671157, 0.21130322, -0.08197689, 0
1739, 1592676974, 0.25049934, -0.41558936, -0.09922219, 0.86872965, -0.19037685, 0.051562317, -0.10977268, 0
1740, 1592693641, 0.25024432, -0.41494367, -0.09925511, 0.8691082, -0.17176567, 0.17193578, -0.107554436, 0
1741, 1592710308, 0.2500901, -0.41437662, -0.099282436, 0.8694198, -0.14871778, 0.14728744, -0.10409546, 0
1743, 1592743642, 0.24996325, -0.41334185, -0.09948743, 0.86992526, -0.08347393, 0.22413947, -0.10292244, 0
1744, 1592760309, 0.24990794, -0.4127722, -0.099464625, 0.8702142, -0.10435853, 0.24367662, -0.1065855, 0
1745, 1592776976, 0.24981183, -0.41224658, -0.099542186, 0.87048197, -0.20286833, 0.060158737, -0.09864521, 0
1747, 1592810310, 0.2498283, -0.411531, -0.09956386, 0.87081325, -0.1606305, 0.29110652, -0.08900356, 0
1748, 1592826977, 0.24978337, -0.4113695, -0.09947536, 0.8709126, -0.1547267, 0.22662415, -0.09744644, 0
1749, 1592843644, 0.24968159, -0.41132274, -0.09936601, 0.87097645, -0.1788205, 0.2618576, -0.10218334, 0
1752, 1592893645, 0.24925427, -0.41161695, -0.09902255, 0.8709989, -0.16189615, 0.23946239, -0.11188412, 0
1754, 1592926979, 0.24901359, -0.41211364, -0.09881371, 0.8708565, -0.1597949, 0.27976358, -0.12535095, 0
1755, 1592943646, 0.24885164, -0.41234395, -0.09866348, 0.8708109, -0.09694919, 0.20518948, -0.12413216, 0
1756, 1592960313, 0.24872586, -0.41246966, -0.09857211, 0.87079763, -0.111744545, 0.1828592, -0.13331127, 0
1758, 1592993647, 0.2483823, -0.41248554, -0.0983094, 0.8709178, -0.11200094, 0.22206593, -0.10133839, 0
1759, 1593010314, 0.2481874, -0.41243756, -0.09827539, 0.871, -0.15613334, 0.23367977, -0.08858776, 0
1760, 1593026981, 0.24796203, -0.41245422, -0.098194346, 0.8710654, -0.16583565, 0.2929184, -0.099684715, 0
1762, 1593060315, 0.24741088, -0.41279775, -0.09775913, 0.8711084, -0.18726152, 0.19088073, -0.08363342, 0
1764, 1593093649, 0.24698573, -0.4132107, -0.097318254, 0.87108254, -0.08995673, 0.26646802, -0.10449219, 0
1767, 1593143650, 0.24626696, -0.4133223, -0.09672059, 0.8712998, -0.081013836, 0.250016, -0.12545013, 0
1768, 1593160317, 0.24603857, -0.4132033, -0.09651667, 0.8714433, -0.13958798, 0.27643156, -0.12169075, 0
1770, 1593193651, 0.24542075, -0.41290966, -0.09610644, 0.8718018, -0.15602922, 0.29858088, -0.079527855, 0
1771, 1593210318, 0.24508157, -0.41279978, -0.09581994, 0.87198097, -0.16531663, 0.25834408, -0.06719303, 0
1772, 1593226985, 0.24477017, -0.4127288, -0.09558871, 0.87212735, -0.21273679, 0.21339318, -0.13034534, 0
1774, 1593260319, 0.24438038, -0.41291425, -0.09519693, 0.8721916, -0.21462387, 0.27702284, -0.119392395, 0
1775, 1593276986, 0.2442501, -0.413108, -0.09501383, 0.8721564, -0.17787677, 0.23597369, -0.123044014, 0
1777, 1593310320, 0.24410222, -0.4134849, -0.094844475, 0.8720376, -0.16363077, 0.29244927, -0.121287346, 0
1778, 1593326987, 0.24401939, -0.41363668, -0.094818376, 0.8719916, -0.15795027, 0.26354602, -0.12124252, 0
1782, 1593393655, 0.24374266, -0.41368854, -0.09474677, 0.8720523, -0.16003482, 0.29204035, -0.09874058, 0
1783, 1593410322, 0.24357165, -0.41356984, -0.09472649, 0.87215847, -0.152843, 0.33799338, -0.103405, 0
1785, 1593443656, 0.2431387, -0.41342387, -0.09459061, 0.87236327, -0.22568129, 0.32739222, -0.0923872, 0
1786, 1593460323, 0.24294135, -0.41344425, -0.094451934, 0.8724236, -0.20843193, 0.25320733, -0.09241295, 0
1787, 1593476990, 0.24280857, -0.4135222, -0.09436754, 0.87243265, -0.20161252, 0.26991603, -0.10677719, 0
1789, 1593510324, 0.24258143, -0.41390067, -0.09425501, 0.8723286, -0.19453037, 0.29064187, -0.07430363, 0
1790, 1593526991, 0.24247643, -0.4141704, -0.094192356, 0.87223655, -0.17793769, 0.30332732, -0.11345291, 0
1791, 1593543658, 0.24234417, -0.4144207, -0.09412626, 0.87216157, -0.15068062, 0.3318877, -0.11716843, 0
1793, 1593576992, 0.24215266, -0.4147917, -0.09404999, 0.8720467, -0.16249484, 0.27279735, -0.11292362, 0
1794, 1593593659, 0.24212122, -0.4149094, -0.093994044, 0.8720054, -0.12802052, 0.32178748, -0.11290932, 0
1798, 1593660327, 0.2420109, -0.4150551, -0.09381346, 0.87198615, -0.18411706, 0.323668, -0.10547352, 0
1799, 1593676994, 0.24196517, -0.41511133, -0.09378304, 0.8719753, -0.18680695, 0.2708336, -0.12365532, 0
1801, 1593710328, 0.24194008, -0.41534337, -0.093680784, 0.87188274, -0.1809457, 0.36304024, -0.1009016, 0
1802, 1593726995, 0.24187048, -0.41550666, -0.09354513, 0.8718388, -0.15344025, 0.37273625, -0.09115887, 0
1804, 1593760329, 0.24153233, -0.41580433, -0.093192674, 0.87182844, -0.17805742, 0.3451134, -0.12713146, 0
1805, 1593776996, 0.24132393, -0.4159853, -0.09304918, 0.8718152, -0.22801621, 0.29403353, -0.10831356, 0
1806, 1593793663, 0.24119535, -0.4162202, -0.0929389, 0.8717503, -0.25601336, 0.26140645, -0.07323551, 0
1808, 1593826997, 0.24113138, -0.4168051, -0.09278449, 0.8715051, -0.16943769, 0.32806545, -0.09482193, 0
1809, 1593843664, 0.24110639, -0.41706103, -0.0927115, 0.8713974, -0.13064234, 0.3589503, -0.11584282, 0
1812, 1593893665, 0.24120265, -0.41653565, -0.092838354, 0.8716084, -0.066741385, 0.37129113, -0.11239815, 0
1814, 1593926999, 0.2409213, -0.41556177, -0.09288933, 0.87214553, -0.25414854, 0.51642746, -0.07107067, 0
1816, 1593960333, 0.24023698, -0.4155384, -0.092676274, 0.872368, -0.34168014, 0.2494533, -0.07520771, 0
1817, 1593977000, 0.24009804, -0.41588938, -0.092632696, 0.8722437, -0.3034538, 0.28714246, -0.08358097, 0
1818, 1593993667, 0.24006791, -0.41637766, -0.09255806, 0.8720268, -0.20454016, 0.3398381, -0.10991478, 0
1820, 1594027001, 0.24005139, -0.41711015, -0.09245357, 0.8716923, -0.06778346, 0.31154025, -0.14152336, 0
1821, 1594043668, 0.24003619, -0.41711357, -0.092508666, 0.871689, -0.028025214, 0.3633819, -0.16907215, 0
1822, 1594060335, 0.23999831, -0.41686562, -0.092583306, 0.87181014, -0.08094065, 0.3497029, -0.14414406, 0
1824, 1594093669, 0.24001035, -0.41596654, -0.09267496, 0.87222636, -0.18459979, 0.37389117, -0.10331631, 0
1826, 1594127003, 0.2400063, -0.41528532, -0.0926591, 0.8725538, -0.27971268, 0.33107442, -0.09896946, 0
1828, 1594160337, 0.2400494, -0.4153995, -0.09258884, 0.872495, -0.28152534, 0.38326895, -0.09485626, 0
1829, 1594177004, 0.24002984, -0.41569066, -0.09247069, 0.8723743, -0.22933689, 0.41057548, -0.11226463, 0
1830, 1594193671, 0.23993796, -0.4160334, -0.092346944, 0.87224936, -0.17972383, 0.37008297, -0.12366104, 0
1832, 1594227005, 0.23961613, -0.4166715, -0.09211683, 0.8720576, -0.14172375, 0.38167217, -0.14132977, 0
1833, 1594243672, 0.23948413, -0.41686285, -0.09200506, 0.8720141, -0.15484442, 0.30320856, -0.12841702, 0
1835, 1594277006, 0.23940012, -0.41669077, -0.09217855, 0.87210107, -0.4953886, 0.37999868, -0.09654617, 0
1836, 1594293673, 0.23989317, -0.4165788, -0.092188, 0.8720181, 0.0021992417, 0.106994085, -0.08018017, 0
1837, 1594310340, 0.2404032, -0.4162363, -0.09225259, 0.87203425, -0.11931209, 0.5093276, -0.12515926, 0
1839, 1594343674, 0.24008216, -0.4156251, -0.09227684, 0.8724116, -0.178502, 0.55335253, -0.14620304, 0
1841, 1594377008, 0.23902532, -0.4154314, -0.091812484, 0.87284297, -0.31425247, 0.4700991, -0.06998253, 0
1844, 1594427009, 0.23708682, -0.41779232, -0.09044645, 0.8723873, -0.35472405, 0.35870644, -0.06834602, 0
