sep=,
DeviceTag:,Xsens_DOT_3,,,,,,,,,,,,,,,,,
FirmwareVersion:,3.0.0,,,,,,,,,,,,,,,,,
AppVersion:,2023.6.1,,,,,,,,,,,,,,,,,
SyncStatus:,Synced,,,,,,,,,,,,,,,,,
OutputRate:,60Hz,,,,,,,,,,,,,,,,,
FilterProfile:,General,,,,,,,,,,,,,,,,,
Measurement Mode:,Sensor fusion Mode - Extended (Quaternion),,,,,,,,,,,,,,,,,
StartTime:,2025-05-05 11:32:50.670 +0200,,,,,,,,,,,,,,,,,
 2025,,,,,,,,,,,,,,,,,,,

PacketCounter,SampleTimeFine,Quat_W,Quat_X,Quat_Y,Quat_Z,FreeAcc_X,FreeAcc_Y,FreeAcc_Z,Status
1, 1563693061, -0.049411397, 0.7023029, 0.006124913, 0.7101352, 0.037565395, -0.057345238, 0.009669304, 0
2, 1563709728, -0.049523056, 0.70224476, 0.006188824, 0.71018434, 0.03938494, -0.09751042, -0.001452446, 0
3, 1563726395, -0.04959729, 0.7021812, 0.0062151486, 0.71024173, 0.025367666, -0.12294618, 0.02264595, 0
4, 1563743062, -0.049630884, 0.7021401, 0.0062328964, 0.71028, 0.065856785, -0.121990636, 0.049162865, 0
5, 1563759729, -0.04963934, 0.70210046, 0.0062216283, 0.7103187, 0.033360206, -0.124597594, -0.006966591, 0
6, 1563776396, -0.049636804, 0.70206064, 0.0062036146, 0.7103583, 0.009460741, -0.13299459, -0.029706955, 0
7, 1563793063, -0.049622938, 0.7020556, 0.006184224, 0.7103646, 0.020895282, -0.12695837, -0.006669998, 0
8, 1563809730, -0.049595017, 0.70205486, 0.0061541637, 0.7103674, -0.06564038, -0.13730413, 0.00825882, 0
9, 1563826397, -0.049576793, 0.7020648, 0.006115419, 0.7103591, -0.066234745, -0.121771, -0.010899544, 0
10, 1563843064, -0.049607344, 0.70206904, 0.006083477, 0.7103531, -0.06326394, -0.09404654, 0.024010658, 0
11, 1563859731, -0.049688265, 0.70207906, 0.006061186, 0.71033776, -0.041863166, -0.081161745, 0.027978897, 0
12, 1563876398, -0.04981886, 0.70211995, 0.0060721636, 0.71028817, -0.055876642, -0.065705836, 0.043515205, 0
13, 1563893065, -0.049989846, 0.702172, 0.0061024562, 0.7102244, -0.03808822, -0.072123624, -0.003232956, 0
14, 1563909732, -0.050174076, 0.7022419, 0.006160493, 0.7101417, -0.057041876, -0.07437642, 0.012711525, 0
15, 1563926399, -0.05038023, 0.7023161, 0.006247609, 0.7100531, -0.03428002, -0.07894343, 0.007868767, 0
16, 1563943066, -0.050598096, 0.70237786, 0.0063605118, 0.70997536, -0.05015018, -0.077151395, 0.035435677, 0
17, 1563959733, -0.050817154, 0.70244724, 0.0064964998, 0.70989007, -0.04048483, -0.10052213, 0.045045853, 0
18, 1563976400, -0.05102258, 0.7025056, 0.006601018, 0.70981646, -0.071003914, -0.104314916, 0.034276962, 0
19, 1563993067, -0.051208068, 0.70254564, 0.006673981, 0.70976275, -0.054131586, -0.12361863, 0.008481979, 0
20, 1564009734, -0.051336512, 0.7025936, 0.0067109154, 0.70970565, -0.04452725, -0.1028122, 0.038412094, 0
21, 1564026401, -0.05142876, 0.7026282, 0.0067548645, 0.70966434, -0.03898428, -0.09132175, 0.047548294, 0
22, 1564043068, -0.05147875, 0.702649, 0.006809512, 0.70963955, -0.036474083, -0.10527692, 0.035057068, 0
23, 1564059735, -0.05150441, 0.70267236, 0.006807847, 0.70961463, -0.03071856, -0.10464935, 0.035904884, 0
24, 1564076402, -0.051522072, 0.7026723, 0.0067790565, 0.7096136, -0.017844614, -0.08583747, 0.04233551, 0
25, 1564093069, -0.051558197, 0.7026572, 0.006788487, 0.70962566, -0.0011407838, -0.06518166, 0.04381752, 0
26, 1564109736, -0.05158098, 0.70266455, 0.006849871, 0.7096163, 0.014300412, -0.10078586, 0.022083282, 0
27, 1564126403, -0.051585823, 0.7026504, 0.0069046523, 0.7096294, -0.029532295, -0.106828086, 0.020581245, 0
28, 1564143070, -0.051561423, 0.70265687, 0.006895847, 0.70962495, -0.03052638, -0.10113633, 0.009160042, 0
29, 1564159737, -0.051519733, 0.7026562, 0.006844101, 0.70962894, -0.047837045, -0.09537412, -0.027861595, 0
30, 1564176404, -0.05148548, 0.70265913, 0.0068162372, 0.70962894, -0.033684306, -0.089164555, -0.010599136, 0
31, 1564193071, -0.05148021, 0.70266026, 0.0067893, 0.7096284, -0.04342628, -0.074331135, 0.022850037, 0
32, 1564209738, -0.05149667, 0.702691, 0.006816681, 0.70959646, -0.030666955, -0.09943749, 0.04855728, 0
33, 1564226405, -0.0615976, 0.7077802, 0.021126011, 0.70342505, -22.07012, -10.197519, 0.90547943, 1024
34, 1564243072, -0.058136635, 0.6840876, 0.0036754739, 0.72707033, 17.15427, 5.613195, 3.7551136, 0
35, 1564259739, -0.056368887, 0.688264, -0.0014084037, 0.7232661, 2.2343621, 2.1675992, -4.057309, 0
36, 1564276406, -0.05173754, 0.68995696, -0.0023419755, 0.72199565, -1.6272689, 2.7030437, -3.6769738, 0
37, 1564293073, -0.051235497, 0.68994284, -0.0033672247, 0.7220408, -1.1280198, -2.3553748, -0.86951447, 0
38, 1564309740, -0.05218576, 0.6896539, -0.0040873094, 0.7222451, -0.89178336, -0.13079269, 1.106308, 0
39, 1564326407, -0.052885495, 0.6897321, -0.0026310775, 0.7221262, -0.045576748, 2.4349148, 1.7178764, 0
40, 1564343074, -0.052493468, 0.69088686, 8.5978303E-4, 0.7210544, 0.428962, 0.8104113, 1.0635672, 0
41, 1564359741, -0.052379314, 0.69283146, 0.0043486147, 0.7191818, 0.47173208, -0.33168977, 0.10150337, 0
42, 1564376408, -0.052403703, 0.69342124, 0.0062190015, 0.71859777, 0.23946251, -0.29515663, 0.21450996, 0
43, 1564393075, -0.052456446, 0.69281477, 0.007020427, 0.7191712, 0.33705163, -0.13691176, 0.55932236, 0
45, 1564426409, -0.052376114, 0.6921331, 0.008896005, 0.7198123, -0.15688407, -0.48577088, 0.86961174, 0
47, 1564459743, -0.050869744, 0.6923971, 0.01008652, 0.719651, -0.25041538, -0.9119606, 0.11553955, 0
48, 1564476410, -0.049830396, 0.69262624, 0.0100056175, 0.7195042, 0.11553669, -0.8340907, -0.44521713, 0
49, 1564493077, -0.048587207, 0.69292605, 0.009713174, 0.7193044, 0.3911484, -0.6152059, -0.6978817, 0
51, 1564526411, -0.046001025, 0.692711, 0.008577066, 0.71969604, 0.26843747, -0.09824128, -0.6719923, 0
52, 1564543078, -0.045224715, 0.6920367, 0.00816835, 0.72039837, 0.251311, 0.2790121, -0.5219917, 0
54, 1564576412, -0.044510722, 0.6905456, 0.008240289, 0.7218712, -0.008000987, 0.40762147, -0.23494148, 0
55, 1564593079, -0.045104988, 0.69021463, 0.008881051, 0.7221432, 0.04106494, 0.27862746, -0.016392708, 0
56, 1564609746, -0.046030372, 0.69015574, 0.009444617, 0.72213393, 0.057516593, 0.09090761, 0.045650482, 0
58, 1564643080, -0.048262026, 0.69051754, 0.010471547, 0.7216281, 0.11500071, 0.23330235, 0.14748573, 0
60, 1564676414, -0.04945082, 0.6911764, 0.011385171, 0.7209027, 0.11424035, 0.086406656, 0.1495924, 0
62, 1564709748, -0.049965676, 0.69192374, 0.011968889, 0.7201404, 0.05599257, -0.1140315, 0.0071697235, 0
63, 1564726415, -0.050077204, 0.6922904, 0.012006514, 0.7197795, 0.10263795, -0.16723579, -0.064593315, 0
64, 1564743082, -0.050158534, 0.69261396, 0.011880329, 0.7194647, 0.0772992, -0.18160829, -0.11285591, 0
66, 1564776416, -0.050242104, 0.693317, 0.011383914, 0.71878934, 0.16575241, -0.20766489, -0.03229904, 0
68, 1564809750, -0.0499859, 0.6941455, 0.010433539, 0.7180215, 0.17416604, -0.06552238, 0.0265522, 0
70, 1564843084, -0.0496884, 0.69509345, 0.0091287745, 0.7171424, 0.13260344, -0.18262729, 0.09035206, 0
72, 1564876418, -0.049297392, 0.6961695, 0.0072786603, 0.7161462, 0.13565339, -0.35185066, 0.07493019, 0
75, 1564926419, -0.04854478, 0.69743985, 0.004041492, 0.7149861, 0.101425566, -0.16832559, 0.090519905, 0
76, 1564943086, -0.04833591, 0.6978469, 0.0027319742, 0.71460927, 0.110374406, -0.31684697, 1.5258789E-5, 0
79, 1564993087, -0.047107913, 0.698401, 2.4642237E-4, 0.714155, 0.0467118, -0.136599, 0.03787899, 0
81, 1565026421, -0.046437528, 0.6986299, -0.001450438, 0.7139735, 0.037808836, -0.081900425, 0.008563995, 0
82, 1565043088, -0.04605961, 0.69873375, -0.0020706775, 0.71389484, 0.013153783, -0.097874016, -0.03149414, 0
83, 1565059755, -0.045677755, 0.69877785, -0.0026958333, 0.71387416, -0.003769352, -0.10367876, 0.019332886, 0
85, 1565093089, -0.04499253, 0.6989857, -0.0044833543, 0.7137052, -0.029672083, -0.13662282, 0.017252922, 0
86, 1565109756, -0.044601366, 0.69917357, -0.005203073, 0.71354073, -0.06425041, -0.06823782, -0.02849865, 0
87, 1565126423, -0.044284686, 0.6993537, -0.0060722604, 0.7133771, -0.09901774, -0.14433566, -0.06915951, 0
89, 1565159757, -0.043824833, 0.69953203, -0.0072426777, 0.7132197, -0.062836, 0.001626853, 0.021625519, 0
90, 1565176424, -0.043597974, 0.69959515, -0.007571822, 0.7131683, -0.09839867, 0.042262167, 0.059425354, 0
91, 1565193091, -0.043360144, 0.69961244, -0.007919908, 0.71316195, -0.14768687, 0.009101825, 0.05356121, 0
94, 1565243092, -0.0431013, 0.6996987, -0.008614374, 0.713085, -0.04689133, 0.057969134, -0.055173874, 0
95, 1565259759, -0.043209627, 0.6998723, -0.008605813, 0.7129082, -0.044978634, 0.107294895, -0.07688999, 0
97, 1565293093, -0.043502674, 0.7001368, -0.00857425, 0.712631, -0.035518132, -0.05130011, 0.002281189, 0
98, 1565309760, -0.04365187, 0.7002178, -0.008533927, 0.71254283, -0.01750903, -0.08923048, 0.061326027, 0
99, 1565326427, -0.04383166, 0.7003256, -0.008492081, 0.7124263, -0.021514142, -0.074370176, 0.10326862, 0
101, 1565359761, -0.043939408, 0.70053494, -0.008672277, 0.7122115, -0.06783274, -0.13323733, 0.073646545, 0
102, 1565376428, -0.04381375, 0.7006987, -0.008991665, 0.7120543, -0.057432033, -0.17435716, 0.01172924, 0
103, 1565393095, -0.043657295, 0.70085835, -0.009357344, 0.7119021, -0.05056057, -0.115935735, -0.025503159, 0
105, 1565426429, -0.04323683, 0.70101786, -0.010215054, 0.71175885, -0.067900136, -0.12836431, 0.015071869, 0
106, 1565443096, -0.043021917, 0.7010248, -0.010624367, 0.7117591, -0.1323743, -0.26623067, 0.092084885, 0
108, 1565476430, -0.042573858, 0.7011619, -0.011325299, 0.71164006, -0.12467401, -0.05631776, 0.06735039, 0
109, 1565493097, -0.042380754, 0.7011819, -0.011703534, 0.7116259, -0.032017764, -0.022202268, 0.06538296, 0
110, 1565509764, -0.04222311, 0.70118296, -0.012444525, 0.7116214, -0.049075205, -0.1504777, 0.07416439, 0
113, 1565559765, -0.041446947, 0.70136356, -0.014826899, 0.7114435, -0.012315715, -0.12866342, 0.049840927, 0
114, 1565576432, -0.041015245, 0.7014748, -0.015495014, 0.7113448, 0.08310197, -0.11465146, 0.007932663, 0
116, 1565609766, -0.040258218, 0.7016489, -0.017551802, 0.7111684, -0.1382386, -0.17367399, 0.059207916, 0
117, 1565626433, -0.039814617, 0.7016419, -0.018495426, 0.7111764, -0.14154683, -0.14877848, 0.05698967, 0
118, 1565643100, -0.039483726, 0.70160156, -0.019345328, 0.7112121, -0.14624578, -0.07638488, 0.035161972, 0
120, 1565676434, -0.03907049, 0.7014851, -0.020594563, 0.7113147, -0.15866618, -0.027365291, -0.05764866, 0
122, 1565709768, -0.039024077, 0.7015869, -0.021816963, 0.7111802, -0.4112053, -0.96348464, -0.6053076, 0
124, 1565743102, -0.048688434, 0.70252997, -0.03306546, 0.70921665, 0.8841219, -0.15857482, -0.11369705, 0
125, 1565759769, -0.04608197, 0.7029795, -0.035073604, 0.70884866, 0.5494386, 3.1523235, -5.048909, 0
126, 1565776436, -0.04432383, 0.69984657, -0.038250975, 0.7118899, -0.89846516, -1.2201933, -4.381308, 0
128, 1565809770, -0.046905197, 0.69466776, -0.04017814, 0.71667475, -0.83653146, 0.49869853, 3.6495085, 0
129, 1565826437, -0.047414083, 0.69605625, -0.038082086, 0.7154074, -0.22925279, 2.4962516, 2.469286, 0
130, 1565843104, -0.046717957, 0.6980003, -0.034865733, 0.71372104, -0.031906027, 0.75380874, 0.13993645, 0
133, 1565893105, -0.046378527, 0.7011082, -0.026266351, 0.7110603, 0.03488651, -0.33370528, -0.08696365, 0
135, 1565926439, -0.050110847, 0.7021082, -0.02164231, 0.7099753, -0.1741414, -0.23933074, 0.61213493, 0
137, 1565959773, -0.051626228, 0.70229584, -0.019274022, 0.7097496, 0.15253566, -0.30430394, 0.17072868, 0
140, 1566009774, -0.04802287, 0.7026195, -0.019303922, 0.7096812, 0.19261935, -0.32254028, -0.08502197, 0
141, 1566026441, -0.046362936, 0.70271266, -0.019683057, 0.7096889, 0.30320904, -0.16695946, -0.49850178, 0
143, 1566059775, -0.044815786, 0.7022042, -0.019434772, 0.7102982, 0.11969859, 0.15478675, -0.42251682, 0
147, 1566126443, -0.050316248, 0.70170414, -0.013954169, 0.71055293, 0.16588531, 0.04516666, 0.19025707, 0
148, 1566143110, -0.052447062, 0.7019242, -0.011916848, 0.7102184, 0.18603206, 0.2558118, 0.11235714, 0
149, 1566159777, -0.054412305, 0.70210034, -0.009861975, 0.70992786, 0.15304397, 0.26182088, 0.010214806, 0
151, 1566193111, -0.057671137, 0.7023845, -0.0057155127, 0.7094348, 0.123296045, 0.0020799278, 0.10853481, 0
152, 1566209778, -0.05888088, 0.70228076, -0.004077046, 0.70944947, 0.14325291, -0.1350205, 0.12605762, 0
153, 1566226445, -0.059862122, 0.7020905, -0.0027552843, 0.70956194, 0.08347707, -0.22788794, 0.10340881, 0
155, 1566259779, -0.060987603, 0.7011191, -9.271167E-4, 0.710431, 0.20511635, -0.341097, 0.09588051, 0
162, 1566376448, -0.060941577, 0.69769603, 0.0017678794, 0.7137951, 0.09595099, -0.09213081, -0.012633324, 0
163, 1566393115, -0.060600147, 0.69756395, 0.0017970167, 0.7139534, 0.10066533, -0.0870909, 0.052347183, 0
164, 1566409782, -0.06003698, 0.6974284, 0.0016216375, 0.7141338, 0.09376414, -0.0804816, 0.00965023, 0
166, 1566443116, -0.058846798, 0.69727594, 0.0012226198, 0.7143825, 0.040168475, -0.0018436746, -0.041916847, 0
167, 1566459783, -0.058468662, 0.6973386, 0.0011183312, 0.7143524, 0.056625865, 0.06271308, 2.1266937E-4, 0
168, 1566476450, -0.05835477, 0.6974239, 9.6556824E-4, 0.71427876, 0.16011176, 0.099545434, -0.06686497, 0
170, 1566509784, -0.058336258, 0.6973972, 7.076189E-4, 0.7143066, 0.05732809, 0.09035157, 0.10076141, 0
171, 1566526451, -0.058202583, 0.6971748, 5.027503E-4, 0.7145347, -0.026855493, 0.0051110988, 0.086200714, 0
172, 1566543118, -0.058137685, 0.6968967, 3.3558812E-4, 0.71481144, -0.07262413, -0.13634673, 0.027498245, 0
174, 1566576452, -0.057940587, 0.69661695, 7.5679272E-6, 0.7151001, -0.10335913, -0.23058346, 0.067424774, 0
176, 1566609786, -0.05739297, 0.69661814, -7.1178563E-4, 0.71514285, 0.019041045, -0.08503847, 0.0136528015, 0
178, 1566643120, -0.056538258, 0.6967218, -0.0018082373, 0.7151079, 0.056197874, -0.089847654, 0.019377708, 0
179, 1566659787, -0.05591304, 0.6968766, -0.0025987606, 0.7150038, 0.0060238726, -0.15638483, 5.4454803E-4, 0
180, 1566676454, -0.05523878, 0.6970373, -0.003533747, 0.71489555, -0.024703301, -0.2571802, -0.025744438, 0
182, 1566709788, -0.053956576, 0.6973772, -0.005757423, 0.71464735, 8.988085E-4, -0.23545179, -0.026895523, 0
183, 1566726455, -0.05332597, 0.6975802, -0.0068907114, 0.7144867, 0.017572928, -0.09904742, -0.033659935, 0
184, 1566743122, -0.052677937, 0.69774026, -0.008099552, 0.7143657, 0.027150283, -0.07687446, -0.069099426, 0
186, 1566776456, -0.0515576, 0.69798964, -0.010492976, 0.71417266, 0.021662256, -0.014019738, 0.038970947, 0
187, 1566793123, -0.05109541, 0.6980821, -0.011527916, 0.7140997, 0.024266815, -0.034245424, 0.092020035, 0
189, 1566826457, -0.05004493, 0.6978156, -0.013853888, 0.7143933, 0.0077009085, -0.17199883, 0.10109615, 0
190, 1566843124, -0.049495496, 0.6976347, -0.015168643, 0.7145813, 0.07270102, -0.17647184, 0.060632706, 0
191, 1566859791, -0.048973996, 0.6977509, -0.016420744, 0.7144761, 0.03992284, -0.14814506, 0.029176712, 0
193, 1566893125, -0.04786464, 0.6981079, -0.0188449, 0.7141427, 0.07167266, -0.16766918, -0.008838654, 0
194, 1566909792, -0.04735472, 0.6983679, -0.020101655, 0.71388817, 0.09064262, -0.18071282, -0.06952, 0
195, 1566926459, -0.04690304, 0.69863474, -0.021357177, 0.71362036, 0.10450461, -0.19610423, -0.0043649673, 0
197, 1566959793, -0.046012342, 0.6990616, -0.024049534, 0.71317464, -0.013839654, -0.22158107, -0.022984505, 0
198, 1566976460, -0.045545682, 0.6991225, -0.025132548, 0.71310735, -0.066909485, -0.16538832, 0.029093742, 0
201, 1567026461, -0.04359493, 0.6990831, -0.028377872, 0.71314627, -0.04981982, -0.021694964, 0.118494034, 0
202, 1567043128, -0.042899977, 0.6991336, -0.029519714, 0.71309245, -0.034996033, -0.092166156, 0.119065285, 0
205, 1567093129, -0.041362256, 0.6995415, -0.03173814, 0.71268773, -0.1520742, 0.047664892, -0.050992966, 0
206, 1567109796, -0.04099986, 0.69951874, -0.03212487, 0.7127137, -0.16733037, 0.029605785, -0.0065660477, 0
207, 1567126463, -0.04069093, 0.69950163, -0.032410808, 0.7127353, -0.18591702, 0.045309525, 0.036789894, 0
209, 1567159797, -0.040418025, 0.69987, -0.032693535, 0.71237636, -0.048129812, 0.0063873576, -0.005264282, 0
210, 1567176464, -0.04048774, 0.70019555, -0.032714922, 0.71205145, -0.027602667, -0.08305546, -0.061525345, 0
211, 1567193131, -0.040725503, 0.7004726, -0.032827504, 0.71176004, -0.12785962, -0.056279555, -0.06775761, 0
213, 1567226465, -0.041418053, 0.7006002, -0.032504875, 0.71160924, -0.18762599, 0.04336034, -0.07292938, 0
214, 1567243132, -0.0417591, 0.70053285, -0.032207876, 0.7116691, -0.2604926, 0.06186819, 0.12969494, 0
216, 1567276466, -0.04229122, 0.7005914, -0.031786434, 0.7115991, -0.17147796, -0.18937956, 0.21868229, 0
217, 1567293133, -0.04246906, 0.7007686, -0.031630166, 0.71142095, -0.12078288, -0.2586089, 0.07522488, 0
220, 1567343134, -0.042876583, 0.7011255, -0.031200062, 0.71106374, -0.0049932175, -0.102982365, -0.09401512, 0
221, 1567359801, -0.042909402, 0.701233, -0.031123713, 0.71095896, -0.051635828, -0.23550585, 0.019880295, 0
222, 1567376468, -0.042889744, 0.70154643, -0.031041047, 0.7106546, -0.25422096, -0.2947227, -0.14636898, 0
224, 1567409802, -0.049622145, 0.70525026, -0.035884228, 0.70630896, -2.9694352, 0.24454516, -3.7104406, 0
225, 1567426469, -0.044868022, 0.70475566, -0.037746742, 0.7070233, -3.5639877, 0.60319483, -4.2407527, 0
226, 1567443136, -0.041282266, 0.7032909, -0.04116518, 0.70850796, -0.7544692, 0.2685233, -5.560951, 0
228, 1567476470, -0.04159105, 0.6970409, -0.042956863, 0.7145343, -0.40072942, 0.563258, 3.4906301, 0
229, 1567493137, -0.040965516, 0.6985067, -0.04162884, 0.7132164, 0.04353255, 1.6544846, 2.2260447, 0
230, 1567509804, -0.040110104, 0.7010319, -0.038385086, 0.71096575, 0.5670549, 0.8956634, 0.57412434, 0
232, 1567543138, -0.04012736, 0.70537424, -0.03152284, 0.7069964, 0.15966937, -0.040807374, -0.054831505, 0
234, 1567576472, -0.042958163, 0.7071949, -0.027793992, 0.70516515, -0.30679443, -0.31352606, 0.22010136, 0
236, 1567609806, -0.045765426, 0.70784485, -0.023943733, 0.7044773, -0.26319423, -0.34474617, 0.14689541, 0
237, 1567626473, -0.046596915, 0.7082176, -0.022210116, 0.70410496, -0.1445119, -0.48917896, 0.082668304, 0
238, 1567643140, -0.047350585, 0.7086842, -0.02053183, 0.7036357, 0.020913124, -0.7264933, -0.19793034, 0
240, 1567676474, -0.049094036, 0.7087635, -0.017583262, 0.7035164, 0.42457572, -0.21020383, -0.32085323, 0
241, 1567693141, -0.050013818, 0.70805985, -0.016877735, 0.70417726, 0.40117657, 0.019855326, -0.45559788, 0
243, 1567726475, -0.05156526, 0.70559317, -0.01539554, 0.70657104, 0.28335598, 0.53792834, 0.056760788, 0
244, 1567743142, -0.05195965, 0.7038645, -0.014581405, 0.7082815, 0.020465614, 0.24327032, 0.4536686, 0
245, 1567759809, -0.05325501, 0.7026478, -0.012929435, 0.7094246, 0.039162107, -0.0063921353, 0.59737396, 0
247, 1567793143, -0.056950852, 0.70150095, -0.009115928, 0.71033114, 0.18643321, -0.21447311, 0.05143261, 0
249, 1567826477, -0.060435437, 0.70041555, -0.006363862, 0.7111438, -0.007542802, -0.28163195, -0.0866003, 0
251, 1567859811, -0.06272634, 0.6992466, -0.005404613, 0.7121031, -0.25992423, -0.5724653, 0.19597054, 0
252, 1567876478, -0.06351064, 0.69887036, -0.005071354, 0.71240526, -0.26800007, -0.56918454, 0.21655655, 0
253, 1567893145, -0.06392698, 0.69862694, -0.004542431, 0.71261036, -0.23795179, -0.43675578, -0.002128601, 0
256, 1567943146, -0.064352825, 0.6975761, -0.0039274525, 0.7136045, -0.06767471, -0.2486901, -0.11804962, 0
257, 1567959813, -0.06427483, 0.6971781, -0.0040798066, 0.7139997, -0.06906006, -0.13954802, -0.049128532, 0
259, 1567993147, -0.06401825, 0.6964112, -0.004865464, 0.7147657, 0.020323632, -0.1776298, 0.05436611, 0
260, 1568009814, -0.06392675, 0.6959326, -0.0052599413, 0.7152369, 0.026921699, -0.12716442, 0.108483315, 0
261, 1568026481, -0.06374803, 0.69547397, -0.0057921214, 0.71569484, 0.07833379, -0.1778881, 0.023350716, 0
263, 1568059815, -0.062898725, 0.6947413, -0.0076789614, 0.7164636, 0.064523526, -0.09734241, -0.07821846, 0
264, 1568076482, -0.062182404, 0.6943968, -0.0084112575, 0.7168516, 0.06310588, -0.033459276, 0.0051050186, 0
265, 1568093149, -0.06146266, 0.6940755, -0.009061788, 0.71721685, -0.04736552, -0.03159593, 0.057103157, 0
267, 1568126483, -0.060760945, 0.6936005, -0.009715899, 0.7177275, -0.11532862, 0.0487004, 0.11657524, 0
268, 1568143150, -0.060796008, 0.6932193, -0.009730099, 0.7180925, -0.07805367, 0.13416485, -0.008796692, 0
270, 1568176484, -0.061729103, 0.69173294, -0.009637257, 0.7194462, -0.18241368, -0.15627056, -0.12428188, 0
276, 1568276486, -0.065351576, 0.6846646, -0.008823268, 0.7258691, 0.14293426, -0.25892675, -0.21323204, 0
278, 1568309820, -0.0657121, 0.6792115, -0.010204328, 0.73092407, 0.49453107, -0.530759, -0.05760765, 0
279, 1568326487, -0.06607425, 0.6765452, -0.011348859, 0.73334336, 0.58384997, -0.7013946, -0.3080387, 0
282, 1568376488, -0.06726506, 0.669562, -0.020142984, 0.7394302, -0.18689921, -1.0333738, -0.9070616, 0
286, 1568443156, -0.06307952, 0.6612565, -0.031874646, 0.7468233, 0.31820208, -0.51415336, 0.37737274, 0
287, 1568459823, -0.060751405, 0.65860945, -0.03517823, 0.7492034, -0.032228917, -0.6596063, 0.07473564, 0
288, 1568476490, -0.058053065, 0.6555134, -0.038916104, 0.75194293, 0.0950425, -0.7414478, -0.24314499, 0
291, 1568526491, -0.0522807, 0.6446339, -0.043984376, 0.7614326, -1.0938423, 1.2226212, 0.69608784, 0
293, 1568559825, -0.05065545, 0.63667303, -0.043450024, 0.7682411, -0.9791155, -0.13220993, 1.3921909, 0
294, 1568576492, -0.04959773, 0.6330366, -0.0451698, 0.7712101, -0.2880235, 0.806952, 0.24245834, 0
297, 1568626493, -0.046124645, 0.62203974, -0.050025478, 0.78002363, -0.7448777, 0.14889473, -0.46725273, 0
299, 1568659827, -0.043053858, 0.61492616, -0.05321809, 0.7856084, -1.0278276, -0.46340594, -0.6650858, 0
301, 1568693161, -0.040699966, 0.60812384, -0.05884111, 0.7906118, -0.74161613, -0.35488817, -0.4258833, 0
302, 1568709828, -0.038965043, 0.6044411, -0.06162671, 0.7933066, -0.8379519, 0.17750044, 0.034895897, 0
305, 1568759829, -0.03129296, 0.5911832, -0.0701179, 0.8028743, -1.1087024, 0.5290686, 0.012797356, 0
306, 1568776496, -0.028752353, 0.5866386, -0.072492406, 0.8060853, -1.2840989, 0.09254168, -0.07084274, 0
309, 1568826497, -0.023729768, 0.57223517, -0.07552766, 0.8162597, -1.1174548, 0.28163096, 0.21287346, 0
311, 1568859831, -0.021720994, 0.5622089, -0.07709711, 0.8231075, -1.0656335, 0.014143976, 0.23372269, 0
315, 1568926499, -0.018298723, 0.5403376, -0.08453031, 0.836992, -1.4158643, -0.025224123, -0.1462698, 0
317, 1568959833, -0.017882815, 0.52966344, -0.08668655, 0.8435772, -1.7813585, 0.08312615, -0.500535, 0
318, 1568976500, -0.017631615, 0.52433956, -0.08831522, 0.8467336, -1.7481279, 0.23073334, -0.5513725, 0
319, 1568993167, -0.017480634, 0.5191365, -0.09019709, 0.84973913, -1.7594458, 0.3438533, -0.6028414, 0
321, 1569026501, -0.016652271, 0.5086999, -0.09344993, 0.8556955, -1.6183065, 0.21374966, -0.78863335, 0
322, 1569043168, -0.015884751, 0.50384736, -0.09576653, 0.85832095, -1.6101946, 0.41964957, -0.94152164, 0
325, 1569093169, -0.013892378, 0.49012426, -0.10041705, 0.8657379, -1.5604556, 0.89564514, -1.2752094, 0
326, 1569109836, -0.012884571, 0.48628527, -0.10123448, 0.86782056, -1.405678, 0.84359413, -1.5503025, 0
328, 1569143170, -0.012078623, 0.47994798, -0.097573124, 0.8717706, -1.4672779, 0.9550208, -2.3301468, 0
330, 1569176504, -0.010743905, 0.47265923, -0.090358056, 0.87653506, -1.4593854, 1.2926339, -0.94253063, 0
332, 1569209838, -0.012199537, 0.4648831, -0.07206036, 0.88235056, -1.9391336, 1.0722821, -0.17761421, 0
333, 1569226505, -0.015137759, 0.46095294, -0.060671706, 0.885219, -1.9926202, 1.0649344, -0.22884083, 0
334, 1569243172, -0.019577911, 0.4573733, -0.05124271, 0.88758165, -2.3867066, 0.3338591, -1.0495005, 0
336, 1569276506, -0.030121962, 0.45225403, -0.039327595, 0.8905127, -2.9147675, 0.797197, -1.482254, 0
338, 1569309840, -0.032995977, 0.45009154, -0.042941574, 0.89133906, -5.0445566, -0.48161593, -2.337154, 0
341, 1569359841, -0.0249581, 0.4481861, -0.056305867, 0.89181626, -8.6362, -1.0645105, 1.4203749, 0
345, 1569426509, -0.0124311205, 0.43351626, -0.062433466, 0.89889467, -6.39678, 1.8344922, 9.619774, 0
348, 1569476510, -0.0052511906, 0.42534068, -0.07270975, 0.90209293, -2.1308105, 0.525668, 3.7240953, 0
349, 1569493177, -0.0033761458, 0.42500997, -0.07266297, 0.90226156, -0.25560948, -1.2942736, 1.9131069, 0
351, 1569526511, -0.0030586636, 0.42738417, -0.06621757, 0.9016369, 0.49243614, -0.41797566, 3.3182974, 0
353, 1569559845, -0.0032123504, 0.43344358, -0.058211036, 0.8992933, 0.62627983, -1.0483923, 2.3044262, 0
355, 1569593179, -6.0208235E-4, 0.44151443, -0.049383894, 0.89589417, 0.7720754, -1.2900354, 0.88984585, 0
356, 1569609846, 0.001584772, 0.44634962, -0.044726543, 0.89373916, 0.5897546, -1.0916742, 0.40750504, 0
357, 1569626513, 0.0047419127, 0.45101714, -0.039886758, 0.89161116, 0.6193822, -1.0176841, 0.143013, 0
359, 1569659847, 0.011668959, 0.45935336, -0.029377054, 0.88769126, 0.0123888375, -0.77272046, -0.18236351, 0
360, 1569676514, 0.015280767, 0.46337298, -0.023930455, 0.88570863, 0.14496344, -0.5163138, -0.7186632, 0
361, 1569693181, 0.018298827, 0.46738142, -0.018553572, 0.883672, 0.23120531, 0.041221853, -1.0056458, 0
365, 1569759849, 0.031398118, 0.48248622, 5.524205E-4, 0.8753407, 0.59395, 0.6719766, -1.8691888, 0
367, 1569793183, 0.03461907, 0.48952928, 0.0067115584, 0.87127376, 0.062287305, -0.22986901, -2.029961, 0
368, 1569809850, 0.036087967, 0.49310553, 0.012805764, 0.86912656, 0.19117846, 0.7020023, -2.3713498, 0
369, 1569826517, 0.0359691, 0.4971898, 0.02231854, 0.8666087, 1.024862, 1.5521263, -3.1526003, 0
371, 1569859851, 0.038181927, 0.50689375, 0.03771112, 0.8603365, 0.89397836, -1.1380813, -2.5726595, 0
372, 1569876518, 0.0393364, 0.5127464, 0.041429304, 0.8566374, 0.28928113, -1.4492213, -2.7993517, 0
373, 1569893185, 0.040138625, 0.5181046, 0.044674084, 0.8532064, -0.10180786, -1.6929215, -2.4809804, 0
375, 1569926519, 0.042581778, 0.5297049, 0.05010596, 0.8456295, 1.4016768, -1.8222432, -1.819951, 0
378, 1569976520, 0.05084061, 0.5479981, 0.0445153, 0.83374596, -0.06634338, -1.2659405, -0.9363575, 0
379, 1569993187, 0.053482674, 0.55230105, 0.0426655, 0.830833, 0.42095542, -0.99412394, -0.10916519, 0
380, 1570009854, 0.05605913, 0.5572529, 0.04034408, 0.8274657, 0.8797238, -0.8651166, 0.15845394, 0
382, 1570043188, 0.06053233, 0.5679731, 0.036241077, 0.8200181, 0.3475182, -0.42631525, 0.29557133, 0
384, 1570076522, 0.0617838, 0.57746017, 0.034461208, 0.81334823, 0.09042753, -0.7554527, 0.41520596, 0
387, 1570126523, 0.062327657, 0.58688474, 0.028115017, 0.8067787, 0.38994315, -0.36994097, 0.122281075, 0
388, 1570143190, 0.06299425, 0.588873, 0.026286205, 0.80533826, 0.038021874, -0.67258537, -0.22419548, 0
392, 1570209858, 0.061385244, 0.5890777, 0.017012492, 0.80556214, 0.19670711, -0.55458456, -1.1838741, 0
394, 1570243192, 0.05734733, 0.58354354, 0.011197025, 0.80997735, 0.89384466, -0.93183357, -1.2744131, 0
395, 1570259859, 0.054420833, 0.5797144, 0.005838411, 0.81297964, 1.0504582, -1.0093633, -1.4651775, 0
399, 1570326527, 0.050328694, 0.55094475, -0.020535354, 0.83276975, 0.8293878, -1.8838861, -3.7624912, 0
402, 1570376528, 0.041155223, 0.51934004, -7.979125E-4, 0.8535761, 1.3772061, -0.37916487, -2.723836, 0
403, 1570393195, 0.038313217, 0.5103521, 0.0018610642, 0.85910994, -0.8996796, -1.4345672, -2.7688742, 0
405, 1570426529, 0.03360698, 0.4945969, -0.00999329, 0.8684153, -3.940626, -0.17582925, -4.007824, 0
406, 1570443196, 0.03252879, 0.48741546, -0.015985817, 0.8724179, -4.6318793, -0.47049388, -3.1775298, 0
407, 1570459863, 0.031504832, 0.48000887, -0.019698149, 0.8764767, -5.3466573, 0.5768974, -1.3910837, 0
409, 1570493197, 0.028162537, 0.46527117, -0.02523058, 0.8843605, -6.6559973, 2.4281378, 3.6120186, 0
415, 1570593199, 0.018043472, 0.4227055, -0.045127355, 0.90496325, -9.96919, -0.50623566, 6.7405186, 0
417, 1570626533, 0.025225164, 0.412557, -0.058851853, 0.90867895, -5.9564075, 0.93406326, 4.6166363, 0
419, 1570659867, 0.03516666, 0.4067483, -0.08151848, 0.90921634, 0.8479476, -0.45635715, -0.006752014, 0
422, 1570709868, 0.04548735, 0.40835246, -0.09006311, 0.90723115, 2.9143853, 0.30572385, 4.294797, 0
423, 1570726535, 0.047168095, 0.40888795, -0.088839784, 0.90702486, 1.334732, -0.06849152, 4.868454, 0
425, 1570759869, 0.051483486, 0.41103557, -0.08768243, 0.9059313, 0.94154185, -0.6178391, 1.8294382, 0
426, 1570776536, 0.052911162, 0.41260552, -0.08652498, 0.90524644, 1.0400848, 0.34660003, 0.5184326, 0
428, 1570809870, 0.05317976, 0.41806874, -0.08012894, 0.90331066, 0.809325, 1.3836201, -1.0014458, 0
429, 1570826537, 0.0517304, 0.42209283, -0.07518559, 0.90194744, 0.5647216, 1.7196302, -0.9952049, 0
430, 1570843204, 0.050202284, 0.42600968, -0.07044834, 0.90057373, 0.44889915, 1.7498733, -0.5992584, 0
432, 1570876538, 0.04835634, 0.43508175, -0.06306074, 0.8968774, 0.89092094, 0.37796712, -1.4113436, 0
434, 1570909872, 0.04773941, 0.4454201, -0.05551015, 0.8923233, 0.44307318, -0.9575803, -1.68328, 0
436, 1570943206, 0.050308358, 0.45639962, -0.04840498, 0.88703203, 0.295844, -1.1396407, -1.6671886, 0
438, 1570976540, 0.056023747, 0.4692447, -0.041164424, 0.8803277, 0.13619123, -1.5191333, -2.2339206, 0
441, 1571026541, 0.064611696, 0.48888624, -0.022429006, 0.8696625, 0.6253135, -0.43334872, -1.7055349, 0
442, 1571043208, 0.06762331, 0.49574545, -0.016274676, 0.8656785, 0.47707796, 0.09474225, -2.095058, 0
444, 1571076542, 0.07331864, 0.50851077, -0.0050167143, 0.8579139, 0.68687636, -0.40785617, -2.0791001, 0
446, 1571109876, 0.07831969, 0.5183957, -5.7441276E-4, 0.8515469, 1.0416418, -1.0227528, -1.6823759, 0
448, 1571143210, 0.08133806, 0.5307045, 9.6982345E-4, 0.8436447, 1.4245566, -0.45875868, -1.4246016, 0
449, 1571159877, 0.08243321, 0.5384622, 3.7154742E-4, 0.83860797, 0.9701819, -0.29112348, -1.5897636, 0
450, 1571176544, 0.08381384, 0.5456255, -0.0016011065, 0.8338261, -0.26643047, -0.43015397, -1.4665861, 0
452, 1571209878, 0.08496494, 0.5561682, -0.0021876711, 0.8267125, -0.115793176, -0.68433875, -0.36805153, 0
453, 1571226545, 0.08552799, 0.56122136, -0.0028985823, 0.82323, 0.9989101, -1.1517212, 0.358325, 0
454, 1571243212, 0.086421065, 0.5675771, -0.0043891724, 0.8187606, -0.09270612, 0.044881064, -0.50838566, 0
456, 1571276546, 0.087832436, 0.5755619, -0.007032387, 0.81299746, -0.78183573, -0.87613684, 0.6220579, 0
457, 1571293213, 0.08839147, 0.57743883, -0.010576981, 0.8115662, -0.29898354, -1.0655006, 0.841032, 0
459, 1571326547, 0.0866461, 0.58361346, -0.014779815, 0.8072607, 1.0104966, 0.79803574, -0.19997692, 0
460, 1571343214, 0.08473184, 0.5875923, -0.015540727, 0.8045587, 0.63497305, 0.20048106, 0.14509487, 0
461, 1571359881, 0.08260901, 0.591587, -0.016654557, 0.80182517, 0.42663622, -0.14051603, -0.002040863, 0
463, 1571393215, 0.078017466, 0.597378, -0.017165955, 0.79797167, -0.23854445, -0.10366095, 0.19858265, 0
465, 1571426549, 0.074593656, 0.5976679, -0.01750082, 0.79807454, 0.5239258, -0.31838354, 0.18344021, 0
467, 1571459883, 0.07247916, 0.5954627, -0.0209558, 0.79983276, 0.2631522, -0.28101274, -0.517478, 0
471, 1571526551, 0.066931166, 0.5806933, -0.028325113, 0.81087214, 1.5739163, -0.4339635, -1.7479057, 0
472, 1571543218, 0.06415327, 0.5756465, -0.02895794, 0.81466395, 1.654281, -0.42523038, -1.6797428, 0
473, 1571559885, 0.060525086, 0.570056, -0.02852158, 0.8188772, 1.3857483, -0.021342888, -2.1789427, 0
475, 1571593219, 0.055248376, 0.5523777, -0.027733143, 0.83129877, 0.45504034, -1.1624829, -3.6480393, 0
477, 1571626553, 0.05398127, 0.5289718, -0.023154378, 0.8466045, 1.0413519, -0.94776434, -5.884344, 0
479, 1571659887, 0.050923165, 0.5001145, -0.008966748, 0.86441445, 1.5624522, 0.7953743, -4.75157, 0
480, 1571676554, 0.046371676, 0.48491535, 0.013536109, 0.8732262, 3.0978878, 2.294819, -3.137125, 0
483, 1571726555, 0.031554166, 0.4530817, 0.015338032, 0.8907785, -8.934365, 1.2586677, -0.7152395, 0
484, 1571743222, 0.030102002, 0.44504508, 0.008108412, 0.89496565, -10.943028, 0.6943838, 0.80138016, 0
487, 1571793223, 0.026762294, 0.41928473, 0.010430179, 0.90740037, -10.850812, 2.1522918, 7.9147873, 0
490, 1571843224, 0.028098188, 0.39819694, -0.020400368, 0.91664284, -8.672088, -0.08256496, 7.7496624, 0
492, 1571876558, 0.030164693, 0.38965765, -0.044980656, 0.9193662, -1.1908635, 2.4646466, 4.511859, 0
495, 1571926559, 0.03165125, 0.38365346, -0.06342348, 0.920753, 3.812466, -0.9139427, 5.2361937, 0
496, 1571943226, 0.029657228, 0.3826132, -0.0608724, 0.9214242, 1.4758906, 1.2108049, 8.3617, 0
500, 1572009894, 0.027870879, 0.38096324, -0.049889162, 0.92282283, 0.5443914, 0.4223936, 0.95275307, 0
502, 1572043228, 0.023950975, 0.38499954, -0.041976184, 0.92165077, -0.055301726, 0.8750053, -1.0766153, 0
503, 1572059895, 0.021242261, 0.38838395, -0.037218932, 0.9205008, 0.15746099, 1.3581002, -1.5358753, 0
504, 1572076562, 0.017834071, 0.39259514, -0.03130901, 0.9190056, 0.23323663, 1.4219426, -2.011365, 0
506, 1572109896, 0.00996216, 0.40210265, -0.016384374, 0.915394, 0.35317364, 0.69652545, -2.5342603, 0
507, 1572126563, 0.0055768993, 0.4069644, -0.009027174, 0.9133827, 0.594237, 0.15517431, -2.150416, 0
510, 1572176564, -0.0074795815, 0.4228032, 0.01729307, 0.9060259, 0.1452793, -0.42205745, -2.7577372, 0
511, 1572193231, -0.01094983, 0.4284737, 0.026413746, 0.903102, 0.7863909, -0.9940238, -2.4071512, 0
513, 1572226565, -0.015423252, 0.44063318, 0.035213005, 0.896864, 1.2220603, -1.4262942, -1.5023584, 0
514, 1572243232, -0.02003395, 0.44714713, 0.04469464, 0.8931187, 0.07076427, -0.24724624, -2.1955905, 0
515, 1572259899, -0.024977297, 0.4537868, 0.06081028, 0.8886823, -0.46143505, 0.53739077, -2.0094743, 0
517, 1572293233, -0.028941229, 0.46733975, 0.08337171, 0.8796622, 1.1139028, -0.5356343, -0.9983463, 0
518, 1572309900, -0.027798563, 0.47436717, 0.08339598, 0.87592727, 1.9884367, -1.2142684, -1.6853094, 0
519, 1572326567, -0.0263627, 0.4812798, 0.08256729, 0.87227166, 1.1385244, -2.021749, -2.3845143, 0
521, 1572359901, -0.023790339, 0.49382955, 0.09528389, 0.8639952, 0.13456537, -1.077651, -1.9225135, 0
523, 1572393235, -0.021102354, 0.5056043, 0.10290087, 0.8563474, 0.6991017, -1.0560246, -1.3410568, 0
527, 1572459903, -0.011500303, 0.5321851, 0.09721952, 0.8409493, 0.05579288, -0.5629769, -1.0708475, 0
529, 1572493237, -0.005207831, 0.54432833, 0.09064763, 0.8339444, 0.3478348, -0.08643076, -0.4089899, 0
531, 1572526571, 0.0010025986, 0.5562707, 0.08792364, 0.8263363, -0.5253438, 0.16251694, -0.62661934, 0
533, 1572559905, 0.004669234, 0.5656934, 0.085945316, 0.82011145, 0.27757594, -0.70040464, 0.8912344, 0
534, 1572576572, 0.0067652008, 0.57130426, 0.08197156, 0.8166068, 0.12760992, -0.59655875, 0.8449764, 0
535, 1572593239, 0.008987831, 0.5767201, 0.078479245, 0.81311405, 0.091358595, 0.30443493, 0.5434818, 0
537, 1572626573, 0.011646733, 0.58790046, 0.07775273, 0.805104, 0.54607755, 0.26322362, 0.28046227, 0
538, 1572643240, 0.011972966, 0.593954, 0.07938018, 0.800484, 0.93621296, 0.5870704, 0.11409283, 0
541, 1572693241, 0.019226745, 0.6106544, 0.07176907, 0.78840417, 0.15968743, -1.8078479, 0.5495825, 0
542, 1572709908, 0.024824262, 0.6134621, 0.06475249, 0.7866738, 0.06713827, -1.4330705, 0.12591648, 0
544, 1572743242, 0.03718212, 0.6148166, 0.053653657, 0.7859642, 0.58868355, -0.5140085, -0.18089485, 0
545, 1572759909, 0.043921106, 0.6148462, 0.04638126, 0.78605616, 0.5692684, -0.042810053, 0.02954197, 0
546, 1572776576, 0.05070197, 0.6140788, 0.038645204, 0.7866661, 0.41442397, 0.028111046, -0.14956188, 0
548, 1572809910, 0.0641219, 0.6094671, 0.02271881, 0.78988767, 0.8291186, -0.38139305, -1.3299608, 0
549, 1572826577, 0.069198005, 0.6063585, 0.01648511, 0.7920037, 1.3545362, 0.26558465, -1.6910524, 0
550, 1572843244, 0.07219492, 0.60322005, 0.011832802, 0.7942127, 1.516743, 0.83662355, -1.7440329, 0
552, 1572876578, 0.07685135, 0.59490037, -2.9953476E-4, 0.8001174, 0.72378147, -0.5467358, -1.9410505, 0
553, 1572893245, 0.078066126, 0.58845764, -0.0057403445, 0.8047303, 0.89449936, -0.13954718, -2.1806726, 0
554, 1572909912, 0.07684164, 0.58018875, -0.007455021, 0.8108153, 1.2806431, 0.15455765, -2.551034, 0
557, 1572959913, 0.06504358, 0.54873204, -0.008710765, 0.8334191, -0.6826585, -1.1722295, -2.1845517, 0
560, 1573009914, 0.059128385, 0.5120098, -0.016566254, 0.8567822, -3.2500992, -2.7660673, -7.2558236, 0
561, 1573026581, 0.057775244, 0.4987686, -0.02059354, 0.8645625, -3.5027635, -1.6121023, -6.0813346, 0
564, 1573076582, 0.042409867, 0.46403542, -0.010021463, 0.88474435, -5.386388, 2.784916, 1.0786285, 0
565, 1573093249, 0.03700829, 0.45580944, -0.017243844, 0.88914067, -10.197252, 2.1457105, 2.1631594, 0
567, 1573126583, 0.027666753, 0.43825293, -0.021002429, 0.89818054, -12.310022, 1.9669473, 8.303633, 0
571, 1573193251, 0.016838964, 0.4009086, -0.042587914, 0.914973, -4.5581636, 3.4537919, 6.829445, 0
572, 1573209918, 0.016434643, 0.3954505, -0.056012575, 0.91663074, 0.50058216, 1.5548321, 3.2254763, 0
573, 1573226585, 0.014643565, 0.3926619, -0.06538791, 0.91723883, 4.7809005, 0.63655585, 1.013731, 0
575, 1573259919, 0.012838764, 0.39100155, -0.058560383, 0.91843575, 2.7607706, 1.4092265, 6.4389496, 0
577, 1573293253, 0.014916738, 0.38750428, -0.050101575, 0.9203849, 1.6525934, -1.877423, 8.18453, 0
579, 1573326587, 0.019751247, 0.38536948, -0.044962727, 0.92145497, 2.555201, -1.1324466, 2.3332777, 0
580, 1573343254, 0.022300601, 0.38521785, -0.043890525, 0.92151177, 1.8577099, -0.9027367, 0.7690697, 0
581, 1573359921, 0.024656273, 0.3861745, -0.042987753, 0.9210937, 0.8798908, -0.32094488, -0.19382763, 0
583, 1573393255, 0.02906233, 0.39124897, -0.042246014, 0.9188554, 0.5676358, 0.85522026, 0.17654991, 0
584, 1573409922, 0.031342223, 0.3954198, -0.042710822, 0.91697174, 1.0563895, 0.994173, -0.5004816, 0
585, 1573426589, 0.033114012, 0.40054083, -0.042780135, 0.91468066, 0.64632946, 1.0047337, -0.88404274, 0
588, 1573476590, 0.03925945, 0.41904074, -0.03879748, 0.9062884, 0.58545494, 0.033719666, -1.7846241, 0
589, 1573493257, 0.04111486, 0.42620936, -0.034806285, 0.9030194, 0.44772333, -0.48270327, -1.8443527, 0
591, 1573526591, 0.04233753, 0.44148403, -0.022799687, 0.89598, 0.26336113, -0.57738495, -1.8560672, 0
594, 1573576592, 0.041771308, 0.46365464, -0.007377916, 0.8850003, 0.18305263, -0.031454474, -1.9226446, 0
595, 1573593259, 0.040403124, 0.47121337, -0.0016021822, 0.88109213, 0.040011115, 0.5843268, -1.629631, 0
596, 1573609926, 0.03999252, 0.47904316, 0.0036262227, 0.87687254, 0.27616635, 0.11199516, -1.2933197, 0
598, 1573643260, 0.040857576, 0.49578726, 0.007831554, 0.86744726, 0.17747635, -0.81811106, -1.7970085, 0
599, 1573659927, 0.04063351, 0.504481, 0.01141485, 0.86239076, 0.6985911, -0.44181764, -2.0875597, 0
600, 1573676594, 0.039679132, 0.5139489, 0.017195595, 0.8567304, 0.9611066, -0.50562036, -1.8886485, 0
602, 1573709928, 0.037403807, 0.5349892, 0.026534589, 0.8436138, -0.06374398, -0.59556794, -2.5367799, 0
603, 1573726595, 0.036422163, 0.54426533, 0.030361973, 0.83757234, -0.5126662, -0.5444389, -2.643001, 0
604, 1573743262, 0.03489349, 0.55170226, 0.033773243, 0.8326266, -0.17225266, -0.63656795, -1.7798891, 0
606, 1573776596, 0.032327957, 0.56487083, 0.03681598, 0.82372385, 0.8271235, -0.31979764, 0.085700035, 0
610, 1573843264, 0.022633027, 0.58734435, 0.042970084, 0.807879, 0.35127246, -0.86735845, -0.57388115, 0
611, 1573859931, 0.01979966, 0.59115636, 0.04529608, 0.80504096, 1.4905499, -0.5264222, -0.27668858, 0
612, 1573876598, 0.017920163, 0.5953841, 0.04618469, 0.8019129, 1.9033389, -1.4177274, -0.020383835, 0
614, 1573909932, 0.016859226, 0.60464, 0.04454802, 0.7950737, 0.8942393, -1.1717765, -0.3440895, 0
618, 1573976600, 0.02112176, 0.6183501, 0.04120403, 0.7845379, -0.35231495, 0.3129536, 0.63961506, 0
619, 1573993267, 0.020899847, 0.6208156, 0.041526817, 0.7825772, 0.13397202, 0.5398341, 0.5847521, 0
621, 1574026601, 0.021973763, 0.62483877, 0.03882745, 0.77947825, -0.06775538, -0.6746727, 0.42164993, 0
622, 1574043268, 0.023285575, 0.6263065, 0.036639586, 0.7783676, -0.31063694, -0.34977207, 0.18223381, 0
623, 1574059935, 0.02486027, 0.6272075, 0.03371457, 0.77772534, 0.0637765, -0.330278, 0.7442064, 0
625, 1574093269, 0.028696626, 0.6280686, 0.024546042, 0.7772414, 0.18025343, -0.4190005, -0.09262657, 0
626, 1574109936, 0.031620152, 0.6271926, 0.019731086, 0.77797234, 0.0027466782, -0.53018177, -1.0148783, 0
627, 1574126603, 0.03477254, 0.62450397, 0.015643984, 0.7800906, 0.3166333, -0.6924081, -1.4337769, 0
629, 1574159937, 0.039555117, 0.61413395, 0.00936585, 0.7881545, 1.8123889, -0.04531526, -2.5563107, 0
633, 1574226605, 0.037195884, 0.5825122, 0.002576312, 0.8119667, 0.41242567, -1.7103761, -4.046714, 0
635, 1574259939, 0.031384103, 0.5538503, 0.013983617, 0.83190733, 1.1727991, -1.355096, -5.289333, 0
637, 1574293273, 0.031535067, 0.5238801, 0.015478723, 0.85106766, -1.6802942, 0.35191795, -6.482704, 0
638, 1574309940, 0.0361704, 0.50959986, 0.008405008, 0.8596102, -1.878592, -1.3594062, -5.7629285, 0
639, 1574326607, 0.040748965, 0.49545455, 0.0017206888, 0.86767614, -0.5071107, -1.6774846, -1.1317139, 0
641, 1574359941, 0.042857938, 0.46815863, -0.0010279613, 0.8826041, -5.0763526, 0.24684542, 3.9713068, 0
643, 1574393275, 0.050186485, 0.443964, -0.022576198, 0.89435333, -12.531148, 1.3912257, 5.509655, 0
645, 1574426609, 0.05660773, 0.41835773, -0.039139733, 0.9056715, -9.715065, 2.1283548, 6.5881157, 0
646, 1574443276, 0.057834625, 0.40600383, -0.047323603, 0.9108112, -8.392789, 2.051052, 6.05019, 0
648, 1574476610, 0.057163134, 0.38519162, -0.07661411, 0.91787297, -3.1438522, 2.3248892, 3.4602213, 0
649, 1574493277, 0.057344932, 0.37725297, -0.09393471, 0.9195481, 2.503135, 1.8512115, 0.684206, 0
650, 1574509944, 0.058387406, 0.3716372, -0.10426336, 0.92065537, 6.5995283, -0.40543133, -0.36964607, 0
654, 1574576612, 0.052883983, 0.3558965, -0.0978803, 0.9278798, 1.2259289, -2.2722292, 6.1756115, 0
656, 1574609946, 0.048636816, 0.3501009, -0.096396916, 0.9304688, 2.1321242, -0.099808, 0.78210735, 0
657, 1574626613, 0.043392554, 0.34961697, -0.0939497, 0.93116003, 1.2737542, 1.391926, -0.312253, 0
658, 1574643280, 0.03789939, 0.35219595, -0.0888446, 0.9309291, 0.79996, 2.1704278, -0.35377216, 0
661, 1574693281, 0.02986223, 0.3664699, -0.076679684, 0.9267841, 0.2681192, 0.18837608, -0.329072, 0
662, 1574709948, 0.028005434, 0.3719935, -0.0737935, 0.92487377, 0.68569154, -0.23634338, -0.32585526, 0
664, 1574743282, 0.025727157, 0.3854919, -0.063460335, 0.92016697, 0.037781164, -0.0571025, -1.672946, 0
666, 1574776616, 0.024739008, 0.39964154, -0.045146987, 0.91522515, 0.035702538, 0.21778707, -0.9008646, 0
668, 1574809950, 0.022974065, 0.41580233, -0.027989516, 0.9087341, 0.16470404, 0.4744881, -1.3989944, 0
669, 1574826617, 0.022594083, 0.424689, -0.018700104, 0.9048644, -0.2076624, 0.62044317, -1.4579277, 0
672, 1574876618, 0.014618106, 0.45133743, 0.0074060396, 0.8922031, 0.15043083, 0.34904638, -1.5441647, 0
673, 1574893285, 0.012009041, 0.4605338, 0.014331893, 0.8874455, 0.02209866, 0.008497278, -1.7254028, 0
676, 1574943286, 0.009753179, 0.49212256, 0.031097496, 0.86991584, 0.66435426, -0.64856464, -2.5293007, 0
677, 1574959953, 0.011549402, 0.50446737, 0.03655767, 0.8625796, 1.3076652, -1.4300684, -2.9470162, 0
680, 1575009954, 0.018760119, 0.5394313, 0.0403088, 0.84085524, 0.2586237, -2.3967018, -2.7735796, 0
681, 1575026621, 0.019773502, 0.5487168, 0.04398267, 0.8346167, -0.4133414, -1.336857, -2.4642367, 0
683, 1575059955, 0.020205392, 0.56293714, 0.05058217, 0.82470316, 0.453687, -0.5131634, -1.7426176, 0
684, 1575076622, 0.020738207, 0.56967443, 0.049958337, 0.8200887, 1.2427738, -0.38722184, -1.3039007, 0
685, 1575093289, 0.020489004, 0.5760317, 0.049601316, 0.8156641, 0.90186363, -0.1599523, -1.0682821, 0
687, 1575126623, 0.020748697, 0.58643, 0.048552968, 0.8082777, 0.7695968, 0.19178288, 0.4210453, 0
688, 1575143290, 0.022098938, 0.5906459, 0.04676814, 0.8052715, 0.46578997, 0.64092374, 0.6071768, 0
691, 1575193291, 0.027415138, 0.6011302, 0.040265445, 0.7976653, 1.1659749, -0.7495014, 1.0406656, 0
693, 1575226625, 0.026898686, 0.6104491, 0.044353172, 0.7903552, 0.8051431, -0.28444806, 0.9407692, 0
695, 1575259959, 0.02659398, 0.61883956, 0.04720425, 0.78364706, -0.8280557, 0.36700353, 0.8926649, 0
699, 1575326627, 0.03136965, 0.6266206, 0.053078517, 0.7768821, -0.51095504, 0.7833731, 0.25784397, 0
700, 1575343294, 0.031920966, 0.6277058, 0.055213153, 0.775834, -0.17428474, 0.28354698, 0.30989838, 0
703, 1575393295, 0.03448838, 0.62997854, 0.053230606, 0.77401835, 0.79795814, -0.5869492, -0.220891, 0
704, 1575409962, 0.036157478, 0.630236, 0.049704965, 0.773967, 0.9543479, -0.62415016, -0.6879921, 0
706, 1575443296, 0.040202722, 0.6286414, 0.041354083, 0.77555394, 1.063461, -0.19200917, -1.0885992, 0
707, 1575459963, 0.042140614, 0.62692124, 0.037204385, 0.7770524, 0.76720303, 0.3338519, -1.516017, 0
708, 1575476630, 0.04276546, 0.6240143, 0.035274085, 0.7794442, 1.232855, 0.61676425, -1.9774466, 0
710, 1575509964, 0.044248216, 0.6167222, 0.026529096, 0.7854888, 1.4965298, -0.27896592, -2.0267072, 0
711, 1575526631, 0.046162207, 0.61155003, 0.019368116, 0.7896208, 1.2507683, 0.06717562, -3.1301112, 0
712, 1575543298, 0.046672147, 0.6054701, 0.015909215, 0.79433936, 2.4252503, -0.18245453, -3.199047, 0
714, 1575576632, 0.04151332, 0.59225327, 0.015370782, 0.80453527, 0.86286396, -0.16026823, -3.678646, 0
715, 1575593299, 0.038774986, 0.58367413, 0.013311716, 0.8109527, 2.3680985, -1.3575978, -3.1235929, 0
716, 1575609966, 0.03671439, 0.5733582, 0.010495259, 0.81841475, 0.07703956, -0.7866548, -4.6866093, 0
718, 1575643300, 0.029822694, 0.5467085, 0.016090922, 0.8366374, -0.5271792, -3.69905, -4.995984, 0
719, 1575659967, 0.029717356, 0.5320552, 0.009091747, 0.8461393, -3.4335504, -2.655807, -4.885521, 0
720, 1575676634, 0.0342172, 0.51677424, -0.00480087, 0.8554244, -0.62815136, -1.0810305, -3.224586, 0
723, 1575726635, 0.040303826, 0.47639662, -0.018247327, 0.87811685, -8.690954, -0.2136509, 4.3999367, 0
724, 1575743302, 0.041281193, 0.46344233, -0.023596806, 0.88485056, -11.159751, 1.9863256, 6.6468506, 0
726, 1575776636, 0.04401216, 0.43465808, -0.042717457, 0.8985049, -9.796382, 4.1308627, 8.473108, 0
729, 1575826637, 0.048587922, 0.39968255, -0.0834064, 0.9115575, -1.916701, 3.931333, 2.8616228, 0
730, 1575843304, 0.048488803, 0.3931925, -0.1006372, 0.9126451, 2.2794876, 5.699186, 2.0051765, 0
731, 1575859971, 0.046732508, 0.3887375, -0.10677681, 0.9139467, 6.63013, 4.904596, 1.9913206, 0
733, 1575893305, 0.042195525, 0.38184655, -0.091417514, 0.91872525, 2.2754645, -0.5002822, 11.878012, 0
735, 1575926639, 0.04314978, 0.37674704, -0.08739015, 0.9211749, 0.7216909, -1.7878519, 3.844822, 0
737, 1575959973, 0.04564872, 0.37523755, -0.086928695, 0.9217142, 1.7940723, -0.020362673, -0.47804737, 0
738, 1575976640, 0.047131516, 0.3763367, -0.08892977, 0.9210001, 0.8555259, 0.13749087, -1.3332262, 0
739, 1575993307, 0.047524262, 0.37914285, -0.085205756, 0.9201807, -0.046661183, 1.3011502, -1.3223228, 0
741, 1576026641, 0.044642504, 0.3876512, -0.074827425, 0.9176792, 0.28043193, 2.9084637, 0.9678745, 0
742, 1576043308, 0.042786404, 0.392465, -0.07296033, 0.9158699, 0.8991535, 2.078825, -0.98270607, 0
745, 1576093309, 0.03606597, 0.4098467, -0.05531015, 0.9097617, 1.665132, -0.29416537, -1.8609791, 0
746, 1576109976, 0.033715293, 0.4163359, -0.048858427, 0.9072713, 1.4501266, -0.99362653, -2.049324, 0
747, 1576126643, 0.031758964, 0.42322382, -0.042083696, 0.9044901, 1.3855036, -1.0403415, -2.361782, 0
749, 1576159977, 0.028632961, 0.43801856, -0.030674838, 0.89798623, 1.0110048, -1.1876671, -1.9549546, 0
750, 1576176644, 0.026951183, 0.4462626, -0.025640652, 0.8941288, -0.07546794, -0.79415494, -2.7879467, 0
752, 1576209978, 0.02286204, 0.4632637, -0.011673766, 0.8858488, 0.475894, -0.11401698, -2.0409718, 0
753, 1576226645, 0.023986842, 0.47081468, -0.013963817, 0.88179576, 1.0546858, -1.2832086, -1.2527657, 0
754, 1576243312, 0.025865026, 0.4801496, -0.017019387, 0.87664026, 1.406426, -1.8476048, -1.4774284, 0
756, 1576276646, 0.028137948, 0.5001219, -0.007825426, 0.8654627, 0.19376895, -0.26957315, -1.50947, 0
757, 1576293313, 0.029035017, 0.51012677, -7.7498145E-5, 0.85960925, -0.076672286, -0.7579759, -0.6247301, 0
760, 1576343314, 0.035454273, 0.5397796, 0.0110980775, 0.84098655, 0.8655814, -2.0183802, -1.382019, 0
761, 1576359981, 0.038679697, 0.54932415, 0.009216425, 0.8346631, 0.1813239, -2.1440728, -1.3141947, 0
762, 1576376648, 0.041012827, 0.5585367, 0.009245589, 0.82841396, -0.31276977, -0.7239101, -2.2131724, 0
764, 1576409982, 0.043412708, 0.5735697, 0.0109643545, 0.81793237, 0.38298106, -0.22668947, -0.349308, 0
765, 1576426649, 0.044843845, 0.5811904, 0.009327721, 0.81247807, 0.8444105, -0.03926173, -0.48416042, 0
766, 1576443316, 0.04581067, 0.5888794, 0.008365888, 0.80687857, 0.61791813, 0.4483818, -0.8380852, 0
768, 1576476650, 0.046064325, 0.6016815, 0.007405196, 0.7973727, -0.1297349, -0.1835215, 0.41903305, 0
769, 1576493317, 0.04416145, 0.60665685, 0.008574615, 0.7936901, -0.19884272, -0.112405725, 0.71582985, 0
770, 1576509984, 0.041953832, 0.6103904, 0.01117391, 0.79091036, -0.011892763, 0.5200622, 0.6975069, 0
772, 1576543318, 0.03508257, 0.6164651, 0.019056078, 0.78636956, 0.5945854, 0.9882973, 0.9786663, 0
776, 1576609986, 0.017326951, 0.6247319, 0.044149615, 0.7793979, 0.96490836, -2.0888927, 0.69249725, 0
777, 1576626653, 0.015568026, 0.6257888, 0.046342388, 0.7784595, 0.752281, -2.1314218, 1.2435093, 0
778, 1576643320, 0.014627109, 0.6269974, 0.04764379, 0.7774258, 0.43833342, -1.0668553, 0.96485424, 0
780, 1576676654, 0.013454069, 0.62871987, 0.053394753, 0.77568036, 0.78955203, -0.44765455, -0.107154846, 0
781, 1576693321, 0.013492943, 0.62893105, 0.054869693, 0.77540547, 1.2878499, -0.80089355, -0.30008698, 0
783, 1576726655, 0.018589325, 0.62819356, 0.04614338, 0.77646536, 1.6679881, -2.1793363, -0.08658981, 0
784, 1576743322, 0.02244221, 0.6271915, 0.03965407, 0.7775315, 1.2373407, -1.102806, -0.3193407, 0
785, 1576759989, 0.02633198, 0.6249609, 0.035188384, 0.7794182, 1.6113198, -0.16785571, -1.1433392, 0
787, 1576793323, 0.03381346, 0.6176406, 0.02992681, 0.7851634, 1.1655434, 0.81822133, -3.4176135, 0
788, 1576809990, 0.034982212, 0.61249757, 0.028715087, 0.78917605, 1.7486298, 1.5858189, -3.7641182, 0
789, 1576826657, 0.03458183, 0.60693216, 0.028315615, 0.7934962, 1.1125224, 0.44142073, -3.9130397, 0
791, 1576859991, 0.034671478, 0.5922275, 0.02420429, 0.804661, 2.292889, -1.1599721, -3.2031693, 0
792, 1576876658, 0.035798337, 0.58396816, 0.019249912, 0.81075853, 1.4156951, -1.0491273, -3.2355142, 0
795, 1576926659, 0.026744442, 0.5547189, 0.027990073, 0.83113694, -0.22623162, -2.0672004, -3.767177, 0
796, 1576943326, 0.028701212, 0.5426441, 0.022578897, 0.8391687, -1.5416723, -3.7887762, -4.6133795, 0
797, 1576959993, 0.03281928, 0.529429, 0.01586207, 0.8475711, -2.8643544, -2.7851405, -6.2640743, 0
799, 1576993327, 0.037254237, 0.5044797, 0.009799864, 0.86256397, -2.7428997, -0.27098644, 2.5191545, 0
800, 1577009994, 0.03808952, 0.4926332, 0.0028647352, 0.86939853, -7.323034, 0.13027227, 3.1047754, 0
801, 1577026661, 0.04041057, 0.48042265, -0.0078732725, 0.87607044, -10.577359, 1.18114, 5.148961, 0
804, 1577076662, 0.04674537, 0.4396046, -0.040692538, 0.8960509, -8.345089, 3.5768154, 6.9368496, 0
805, 1577093329, 0.046639696, 0.4264945, -0.051927343, 0.90179336, -7.0952206, 3.9238393, 6.4812183, 0
807, 1577126663, 0.04512416, 0.4044465, -0.08760228, 0.90923774, 1.4784061, 3.9046917, 2.5520582, 0
810, 1577176664, 0.034343675, 0.38033745, -0.07749931, 0.9209551, 3.1578405, -0.4530086, 12.275995, 0
811, 1577193331, 0.03209773, 0.37380505, -0.07240555, 0.92411983, -0.48425803, -2.352743, 11.406063, 0
812, 1577209998, 0.03248186, 0.3680078, -0.07199508, 0.92646223, 0.29628006, -1.6775284, 6.7767525, 0
815, 1577259999, 0.03323286, 0.36272594, -0.07331001, 0.9284134, 0.8000219, 1.4391632, -1.0676069, 0
816, 1577276666, 0.032328397, 0.36476234, -0.073214956, 0.92765474, -0.26177266, 1.602595, 0.1318121, 0
818, 1577310000, 0.029022, 0.37264204, -0.071270026, 0.9247793, -0.26532263, 2.2234087, 0.55568314, 0
819, 1577326667, 0.026983496, 0.3780072, -0.07025511, 0.922739, 0.37459898, 1.9258945, 0.22824955, 0
822, 1577376668, 0.025960978, 0.3978384, -0.06428104, 0.91483283, 0.8741992, -0.053669393, -2.037324, 0
824, 1577410002, 0.028689371, 0.41370055, -0.05216713, 0.9084645, 0.72348595, -0.50203365, -1.8320851, 0
826, 1577443336, 0.031626746, 0.43086967, -0.03545788, 0.90116274, 0.57866526, 0.13932168, -2.176931, 0
830, 1577510004, 0.026817564, 0.46479604, 6.538341E-4, 0.88501155, 1.1110702, 0.28814986, -1.5713882, 0
831, 1577526671, 0.023780014, 0.47311392, 0.009028124, 0.8806342, 0.64410824, 0.18440093, -1.1903286, 0
832, 1577543338, 0.020017542, 0.48181048, 0.0188648, 0.8758438, 0.25206387, 0.7845557, -2.3267546, 0
834, 1577576672, 0.013850113, 0.49903572, 0.03560025, 0.86573935, 0.84152955, -0.2664386, -2.068603, 0
835, 1577593339, 0.0122545855, 0.5092453, 0.038522962, 0.8596717, 1.4277928, -1.2736108, -1.9177818, 0
837, 1577626673, 0.011137504, 0.53141904, 0.042900924, 0.845949, 0.99101967, -1.6040233, -2.11656, 0
838, 1577643340, 0.0115753915, 0.54259485, 0.04441315, 0.83874005, 0.2338121, -1.9072568, -2.6459484, 0
841, 1577693341, 0.014060057, 0.5678067, 0.047999296, 0.82164127, 0.5623404, -1.3887168, -0.6365948, 0
842, 1577710008, 0.014366398, 0.57488716, 0.047734503, 0.8167132, 1.142981, -1.5916225, -0.4744587, 0
843, 1577726675, 0.014308381, 0.582014, 0.04786372, 0.811643, 0.56833124, -1.2191639, -0.42093468, 0
845, 1577760009, 0.015098252, 0.5923179, 0.046518072, 0.8042189, 0.8002145, -1.5557071, 0.82892513, 0
846, 1577776676, 0.017463086, 0.5975686, 0.043491103, 0.80044717, -0.024140332, -0.87538403, 0.672884, 0
847, 1577793343, 0.019522786, 0.6020189, 0.04399525, 0.79703015, 0.11009495, 0.75793654, -0.20227623, 0
849, 1577826677, 0.018424792, 0.6099985, 0.054836027, 0.79028845, 2.3189788, -0.5131901, 0.4313221, 0
850, 1577843344, 0.019809008, 0.615098, 0.053844996, 0.7863608, 1.2324145, -2.0269272, 1.0279617, 0
851, 1577860011, 0.021738268, 0.6200693, 0.05160231, 0.7825467, -0.63270754, -0.587498, 1.06528, 0
854, 1577910012, 0.025683578, 0.6292857, 0.056647494, 0.77468145, 0.33888724, -0.7012702, 0.71639824, 0
859, 1577993347, 0.03489485, 0.64243364, 0.060670584, 0.76313895, 0.585275, -1.0959018, 0.43896675, 0
861, 1578026681, 0.04095536, 0.64442337, 0.057320636, 0.761417, 0.8692312, 0.4572652, -0.7590523, 0
862, 1578043348, 0.04266355, 0.6441783, 0.057817277, 0.7614931, 1.2847263, 0.5809274, -1.2628727, 0
865, 1578093349, 0.048054144, 0.6426665, 0.048026532, 0.7631283, 1.292638, -0.4060809, -0.124212265, 0
866, 1578110016, 0.05075747, 0.6402388, 0.040078655, 0.7654489, 1.079508, 0.5933574, -0.10029411, 0
868, 1578143350, 0.049595073, 0.6326821, 0.03455064, 0.7720495, 1.0950376, 2.6812534, -2.4589634, 0
869, 1578160017, 0.04527939, 0.627251, 0.036501035, 0.7766429, 2.7255943, 1.2861545, -2.6524515, 0
870, 1578176684, 0.04196575, 0.6218407, 0.034273498, 0.78126746, 3.06582, -0.6391837, -2.1205287, 0
872, 1578210018, 0.039098527, 0.6081828, 0.02099601, 0.79255587, 1.5336078, -2.606852, -2.3211317, 0
873, 1578226685, 0.03858661, 0.5991151, 0.015670607, 0.7995793, 1.2785801, -1.8133771, -3.2068415, 0
876, 1578276686, 0.03588805, 0.5639804, 0.009631619, 0.82495207, -1.1470095, -2.023442, -5.2665243, 0
877, 1578293353, 0.036704678, 0.54973704, 0.0063601164, 0.8345072, -1.7250441, -1.7861587, -5.2526145, 0
878, 1578310020, 0.039456684, 0.53464395, 0.0013459497, 0.84415495, -2.15238, -2.2072482, -4.905753, 0
880, 1578343354, 0.04620763, 0.50530666, -0.014175842, 0.8615855, -2.6151328, 0.30865344, 0.11698341, 0
881, 1578360021, 0.046001617, 0.49256748, -0.017261732, 0.8688864, -7.296747, 3.1015823, 3.7719555, 0
882, 1578376688, 0.04773378, 0.48046824, -0.024087673, 0.87538105, -9.496316, -0.5692893, 5.070795, 0
884, 1578410022, 0.049302574, 0.45375606, -0.039243534, 0.8888954, -12.828426, 2.2458472, 8.578735, 0
885, 1578426689, 0.05154166, 0.43927318, -0.051571317, 0.89539015, -10.580707, 2.5880754, 6.839115, 0
886, 1578443356, 0.0546343, 0.42547154, -0.06515844, 0.9009683, -7.5758734, 2.8666737, 5.6654015, 0
889, 1578493357, 0.057817094, 0.4004201, -0.11684107, 0.9070114, 6.423642, 3.3257565, 0.5544081, 0
892, 1578543358, 0.05779308, 0.38862652, -0.10314161, 0.91377896, 0.366018, -3.5886383, 10.718151, 0
895, 1578593359, 0.056637254, 0.37990093, -0.10042601, 0.91781414, 1.4742426, 0.55781937, -0.4535246, 0
896, 1578610026, 0.054829337, 0.37897348, -0.10016496, 0.9183357, 0.74582785, 1.5712104, -0.9442911, 0
897, 1578626693, 0.05236518, 0.37947568, -0.09914168, 0.91838306, 0.050175462, 1.9434994, -0.7704878, 0
899, 1578660027, 0.047839414, 0.38393608, -0.095491804, 0.91716206, 0.1933961, 1.6884547, 0.13895416, 0
901, 1578693361, 0.043625593, 0.392321, -0.090509765, 0.9143248, 0.5009099, 0.9960533, -0.29382515, 0
904, 1578743362, 0.033818416, 0.40782115, -0.065642856, 0.9100713, 1.4081959, 0.58144784, -0.5427599, 0
907, 1578793363, 0.021480884, 0.42436278, -0.037635747, 0.90445507, 0.3151521, -0.0011877338, -1.673542, 0
909, 1578826697, 0.010502214, 0.43643367, -0.028686233, 0.89921784, 1.0184591, -0.1467957, -1.805356, 0
912, 1578876698, -0.0020623272, 0.46010572, -0.026521547, 0.88746583, 0.34497505, -0.44265327, -2.6038423, 0
913, 1578893365, -0.003911554, 0.46925953, -0.02405883, 0.88272405, -0.70912886, -0.3917097, -2.4981365, 0
915, 1578926699, -0.004011764, 0.48822182, -0.019091748, 0.8725019, 0.0085801035, -1.6618792, -1.0278263, 0
916, 1578943366, -0.002592232, 0.49724102, -0.016177386, 0.867458, 0.3988639, -1.6394036, -0.7078762, 0
918, 1578976700, 4.3639354E-4, 0.51378953, -0.003727587, 0.8579083, 1.2179184, -1.4531345, -0.48164177, 0
919, 1578993367, 0.002181151, 0.52237326, 0.0027109617, 0.85271, 1.4592288, -0.5345753, -0.55282974, 0
920, 1579010034, 0.0048803743, 0.5316175, 0.0065314597, 0.8469456, 1.7317713, -1.0405315, -0.5416975, 0
922, 1579043368, 0.011374713, 0.5490474, 0.010564389, 0.83564734, 1.1901296, -1.4956352, -0.9264183, 0
923, 1579060035, 0.012137716, 0.55697006, 0.012937257, 0.8303435, -0.21263662, -1.3401066, -1.4122381, 0
924, 1579076702, 0.011635871, 0.5636162, 0.019573703, 0.8257232, 0.25299704, -0.42367223, -1.3090601, 0
927, 1579126703, 0.011305883, 0.5842166, 0.029122178, 0.8109966, -0.3352746, 0.6298373, -0.85860825, 0
928, 1579143370, 0.01069238, 0.5898717, 0.0322701, 0.80678135, 0.5047107, -0.17119947, -0.15717602, 0
930, 1579176704, 0.008642966, 0.5994749, 0.040793784, 0.79930675, -0.322837, -0.51194817, -0.2480793, 0
931, 1579193371, 0.007963696, 0.60221183, 0.04592763, 0.7969746, 0.3824808, -0.31062308, -0.17119408, 0
932, 1579210038, 0.008100865, 0.60434, 0.050995495, 0.7950518, 1.0426663, -0.91143936, 0.25238228, 0
934, 1579243372, 0.011608667, 0.610624, 0.054974694, 0.7899252, 0.853379, -0.66710603, 0.63409805, 0
935, 1579260039, 0.014559664, 0.6143042, 0.05596291, 0.7869478, -0.09888911, 0.18132032, 0.48870468, 0
936, 1579276706, 0.017254476, 0.6180888, 0.058541838, 0.78373563, 0.2209288, 0.80488425, 0.662302, 0
938, 1579310040, 0.020932566, 0.6267847, 0.06652457, 0.7760655, 0.80113786, -1.303712, 0.9441738, 0
939, 1579326707, 0.023910215, 0.6307982, 0.066394955, 0.7727317, 0.7540752, -2.2264576, 1.253808, 0
942, 1579376708, 0.033877768, 0.64105403, 0.060808994, 0.7643329, 1.0071656, 0.13077866, 0.057388306, 0
943, 1579393375, 0.037289165, 0.64385283, 0.058869917, 0.76196986, 0.81746525, 0.75728136, -0.0020103455, 0
945, 1579426709, 0.041170105, 0.6464952, 0.05629104, 0.75972396, 1.119864, 0.9260821, 0.36580276, 0
946, 1579443376, 0.043085277, 0.64762634, 0.05300929, 0.75889003, 0.7915363, 1.171609, 0.0020742416, 0
947, 1579460043, 0.043230906, 0.64705706, 0.05250164, 0.7594024, 1.4408493, 1.0806742, -0.93254185, 0
949, 1579493377, 0.04535755, 0.6462658, 0.044589248, 0.76045746, 1.0488085, 5.624983E-4, -1.0467834, 0
950, 1579510044, 0.045184698, 0.64483684, 0.040222965, 0.7619229, 0.9290273, 0.17299101, -0.74868965, 0
951, 1579526711, 0.04550242, 0.64160514, 0.034202095, 0.76492053, 1.5713285, -0.6254546, -0.30250072, 0
953, 1579560045, 0.049735576, 0.63125116, 0.018723652, 0.773756, 2.1955438, -0.82149667, -2.0720997, 0
954, 1579576712, 0.048973348, 0.6246078, 0.01710283, 0.7792144, 2.2049954, 0.2871129, -3.3387065, 0
955, 1579593379, 0.04816749, 0.6174321, 0.01541201, 0.7849971, 2.4415126, -0.4255168, -2.710236, 0
957, 1579626713, 0.05130013, 0.5997312, 0.0022702455, 0.79855245, 0.24476284, -1.1033657, -3.246111, 0
959, 1579660047, 0.049242515, 0.5698179, 0.005250576, 0.82027775, -0.27100137, -3.0591433, -5.5382886, 0
961, 1579693381, 0.0526143, 0.5371146, -0.0011277832, 0.8418662, -2.6398647, -1.9352503, -5.390279, 0
966, 1579776716, 0.061688323, 0.4668899, -0.022983346, 0.8818619, -10.656034, 4.2598076, 5.964798, 0
967, 1579793383, 0.06373808, 0.4539381, -0.036666688, 0.88799405, -13.5783, 2.1584368, 6.6580486, 0
969, 1579826717, 0.071495816, 0.42461538, -0.064845994, 0.90021425, -8.615288, 1.3176192, 4.1553144, 0
970, 1579843384, 0.07249956, 0.41145128, -0.07385996, 0.9055368, -4.7741823, 3.5436642, 2.972886, 0
972, 1579876718, 0.0698823, 0.39213863, -0.105041325, 0.9112138, 4.38701, 6.542832, 2.4247084, 0
974, 1579910052, 0.066164725, 0.38028333, -0.10179905, 0.91686654, 9.390637, -0.39165953, 10.399019, 0
976, 1579943386, 0.063156284, 0.36708996, -0.08602837, 0.9240432, 1.3171049, -4.598055, 13.996555, 0
977, 1579960053, 0.06240315, 0.3633035, -0.08421859, 0.92575604, 3.0201237, -2.5136664, 6.0826607, 0
981, 1580026721, 0.039181326, 0.36262348, -0.069893755, 0.92848486, -0.67328286, 2.324875, 0.8374386, 0
982, 1580043388, 0.031656273, 0.36548775, -0.0648215, 0.92801696, 0.2737516, 1.9265827, 0.2920351, 0
984, 1580076722, 0.017003046, 0.37440303, -0.054439962, 0.9255106, 0.752819, 1.3128783, -0.71106625, 0
985, 1580093389, 0.012364095, 0.37974158, -0.04819476, 0.9237538, 1.1782036, 0.26426443, -1.4372892, 0
986, 1580110056, 0.009605181, 0.38617986, -0.040988233, 0.9214626, 1.0678201, -0.4317881, -2.3991032, 0
988, 1580143390, 0.0072851125, 0.40127718, -0.021006204, 0.91568696, 0.6679345, -0.8083252, -1.3960886, 0
989, 1580160057, 0.007754568, 0.40967825, -0.011937715, 0.91211927, 0.7061353, -0.8434077, -1.4079285, 0
994, 1580243392, 0.013171982, 0.45977977, 0.026721478, 0.8875334, 0.10042216, -0.31576592, -1.9252381, 0
996, 1580276726, 0.018754974, 0.4806946, 0.0332328, 0.8760577, 0.2342763, 0.029308528, -2.3941736, 0
999, 1580326727, 0.027650617, 0.5146163, 0.04530054, 0.85577685, 0.802544, -0.50247335, -2.3178997, 0
1000, 1580343394, 0.031149795, 0.52574164, 0.046605125, 0.8487956, 0.50338686, -0.99111414, -2.4140487, 0
1001, 1580360061, 0.03289734, 0.53620684, 0.05249793, 0.8418102, 0.524412, -0.22214672, -2.752339, 0
1004, 1580410062, 0.03473959, 0.5627707, 0.062385716, 0.82352334, 1.4860048, -1.6806782, -1.387661, 0
1005, 1580426729, 0.036893435, 0.5697458, 0.057503626, 0.81897646, 1.5400431, -2.177148, -0.9307804, 0
1007, 1580460063, 0.03938282, 0.5824205, 0.05407785, 0.8101305, 0.6498158, -0.18702628, 0.22840595, 0
1008, 1580476730, 0.040578783, 0.58840543, 0.053063773, 0.8058022, 0.704765, 0.5343391, -0.24025345, 0
1009, 1580493397, 0.041644588, 0.59320086, 0.05165072, 0.8023161, 0.54941744, 0.51173025, 0.027720451, 0
1012, 1580543398, 0.044658147, 0.60652333, 0.042154647, 0.7926909, 1.0694706, -1.0368068, 0.34762764, 0
1013, 1580560065, 0.045188244, 0.6113538, 0.040657494, 0.78901947, 0.77092856, -0.39246404, 0.1691351, 0
1015, 1580593399, 0.047317855, 0.61899483, 0.041110083, 0.78289, 0.68376964, -0.02410062, -0.2140131, 0
1016, 1580610066, 0.047555365, 0.62182933, 0.04265181, 0.78054345, 1.1990627, -0.68763894, 0.5337086, 0
1017, 1580626733, 0.04887118, 0.6257725, 0.04091453, 0.7773975, 1.1927754, -1.1536125, 0.8996458, 0
1019, 1580660067, 0.04819588, 0.63278145, 0.04513976, 0.77150995, -0.63428503, 1.4130377, 0.14055634, 0
1020, 1580676734, 0.046750017, 0.63592434, 0.04880875, 0.76878655, 0.20912965, 0.6733884, 0.9978037, 0
1021, 1580693401, 0.047020804, 0.63909775, 0.049225923, 0.7661073, -0.25755018, 0.2588363, 0.80142784, 0
1023, 1580726735, 0.045484122, 0.64389014, 0.0481394, 0.76224655, 0.08012906, -0.3873591, 0.73420715, 0
1024, 1580743402, 0.04615834, 0.6451283, 0.045464944, 0.7613229, 0.19477624, -0.33946857, 0.6230736, 0
1027, 1580793403, 0.04852539, 0.64497554, 0.03846415, 0.7616908, 1.3998162, -0.5298395, -0.871398, 0
1028, 1580810070, 0.049632438, 0.6445607, 0.034275003, 0.76217043, 1.034013, -0.36659098, -1.0927582, 0
1030, 1580843404, 0.052542284, 0.64256364, 0.023485586, 0.7640681, 1.4088193, -1.051308, -0.65025425, 0
1031, 1580860071, 0.05611562, 0.64062196, 0.014736291, 0.7656616, 0.75581, -0.81213206, -1.1282616, 0
1032, 1580876738, 0.059116222, 0.63703394, 0.00794097, 0.7685247, 1.3977473, -0.10408775, -1.9679303, 0
1034, 1580910072, 0.0633436, 0.62843454, -0.002919646, 0.77527386, 1.4339591, 1.0973514, -3.2516885, 0
1035, 1580926739, 0.06283187, 0.623268, -0.004400366, 0.77946794, 2.1858907, 0.7356655, -2.9910016, 0
1036, 1580943406, 0.06280275, 0.6173551, -0.006404927, 0.784148, 1.3774074, -0.006288062, -3.4802365, 0
1039, 1580993407, 0.05890151, 0.5902606, -0.0043148063, 0.8050496, 0.6658452, -1.6678766, -3.5506773, 0
1043, 1581060075, 0.049757972, 0.53328764, -0.0043390384, 0.84445846, -2.3122501, -1.7246852, -5.4175467, 0
1044, 1581076742, 0.0485567, 0.5199782, -0.00948457, 0.8527457, -0.54484224, -0.7514713, -1.1007452, 0
1047, 1581126743, 0.04164675, 0.4866638, -0.01240631, 0.87250817, -11.3005905, 2.931142, 8.66947, 0
1050, 1581176744, 0.048369907, 0.45168865, -0.039904498, 0.8899696, -8.696738, 2.0881383, 6.2187614, 0
1051, 1581193411, 0.050934877, 0.4420331, -0.052395318, 0.89401764, -6.3352857, 3.2854881, 4.0913887, 0
1053, 1581226745, 0.053156283, 0.4271037, -0.08314236, 0.8988018, 3.8511612, 2.5956419, 1.2635651, 0
1055, 1581260079, 0.04718864, 0.41735783, -0.07677328, 0.90426326, 9.883596, 3.6614783, 6.4925537, 0
1057, 1581293413, 0.038116507, 0.40579864, -0.059249062, 0.9112435, 1.029215, -1.6526548, 11.842577, 0
1058, 1581310080, 0.036032602, 0.40060347, -0.054512788, 0.9139188, 2.2381134, -1.8976327, 6.32633, 0
1059, 1581326747, 0.034734916, 0.39742535, -0.05170596, 0.9155182, 1.7572289, -2.2898698, 0.5237417, 0
1063, 1581393415, 0.026982792, 0.39916405, -0.04213547, 0.91551346, -0.60346586, 1.2441243, -0.6687641, 0
1065, 1581426749, 0.02034261, 0.40825376, -0.03365224, 0.91202134, -0.1820009, 2.1556575, -0.43843842, 0
1066, 1581443416, 0.01623578, 0.41393462, -0.028198548, 0.9097252, 0.2574059, 1.5794752, -0.8383112, 0
1069, 1581493417, 0.0067860056, 0.43181375, -0.010833017, 0.90187234, 1.383157, -1.536255, 0.21078205, 0
1070, 1581510084, 0.003418602, 0.4375542, -0.0033506872, 0.89917964, -0.53093153, 0.4490705, -2.6239057, 0
1073, 1581560085, -0.00897657, 0.45613533, 0.02688539, 0.88945913, 0.61675125, -0.90311277, -1.6137505, 0
1074, 1581576752, -0.010187613, 0.4634267, 0.028668877, 0.8856131, 0.79214853, -1.3791375, -2.0328698, 0
1075, 1581593419, -0.014355417, 0.47116065, 0.034010142, 0.8812749, 0.18384686, -0.8984501, -3.06888, 0
1078, 1581643420, -0.01950907, 0.495122, 0.046965897, 0.86733407, 1.8717136, -1.3468008, -0.8712282, 0
1080, 1581676754, -0.01927098, 0.5139643, 0.059304778, 0.85554236, 1.1097784, 1.5018815, -3.1094294, 0
1082, 1581710088, -0.015450362, 0.5360714, 0.06715646, 0.8413556, 2.7745454, -1.9251511, -2.3715677, 0
1084, 1581743422, -0.0045119347, 0.55994874, 0.06083793, 0.8262787, 0.7592345, -1.2425836, -2.3018632, 0
1085, 1581760089, -0.0010428755, 0.56838036, 0.06646099, 0.8200769, 0.9465636, -1.350462, -1.7772369, 0
1086, 1581776756, 0.0025320658, 0.5764393, 0.06803977, 0.81429875, 2.941964, -3.7883751, -0.5696192, 0
1088, 1581810090, 0.015213369, 0.5944429, 0.05919512, 0.8018121, 0.61239994, -0.1282207, -0.004835129, 0
1089, 1581826757, 0.019653039, 0.6013192, 0.055602524, 0.7968299, 0.54767954, 0.2359583, 0.38070965, 0
1090, 1581843424, 0.025503736, 0.60608286, 0.054081727, 0.7931512, 0.9562145, 0.9985576, 0.80158234, 0
1092, 1581876758, 0.036742922, 0.6171901, 0.044092793, 0.78471804, 0.0788861, -0.3296366, 2.5253153, 0
1093, 1581893425, 0.040338878, 0.6249676, 0.041250713, 0.7785162, -0.24924368, 2.5067115, 0.25064564, 0
1094, 1581910092, 0.03844767, 0.6314673, 0.047473736, 0.7729928, -0.8033085, 3.0812721, -0.8851328, 0
1098, 1581976760, 0.03949259, 0.64463, 0.0487723, 0.76191485, -0.7679277, 1.8381932, -0.5177326, 0
1101, 1582026761, 0.04280813, 0.6494904, 0.052914843, 0.75731766, -0.32571706, -0.13834961, 0.3077259, 0
1105, 1582093429, 0.04286635, 0.65752494, 0.05955323, 0.7498516, 0.486649, 0.85777944, 0.044258118, 0
1107, 1582126763, 0.046915043, 0.66170913, 0.056167774, 0.7461808, 0.05237934, -1.5007732, 1.6043425, 0
1108, 1582143430, 0.04942966, 0.66360563, 0.054061867, 0.7444879, -0.36264995, -0.6055701, 0.67523956, 0
1109, 1582160097, 0.051618624, 0.664539, 0.05430173, 0.7434885, 0.43758908, 0.28900713, -0.84158707, 0
1111, 1582193431, 0.05241461, 0.6657142, 0.05833043, 0.7420751, 1.9590331, -1.0436703, -0.42445087, 0
1112, 1582210098, 0.055043902, 0.66596335, 0.053315733, 0.7420383, 0.8323129, -1.0876969, 0.6287432, 0
1113, 1582226765, 0.057693917, 0.66566485, 0.047605798, 0.74249303, 0.21386002, -0.91747314, 1.3064384, 0
1116, 1582276766, 0.06476288, 0.66074187, 0.035081528, 0.74699104, 1.0885247, 0.59050536, -1.6821594, 0
1119, 1582326767, 0.067844965, 0.64841586, 0.019070923, 0.75801766, 1.6125401, -1.7495612, -0.9556217, 0
1120, 1582343434, 0.07042074, 0.64213043, 0.010065752, 0.76328796, 1.6194808, -1.0511714, -2.744793, 0
1121, 1582360101, 0.07043791, 0.63512397, 0.007082003, 0.76915956, 1.7014153, 1.0444874, -4.224021, 0
1123, 1582393435, 0.062579796, 0.61781347, 0.013824467, 0.7837088, 2.9633718, -0.55451113, -3.329132, 0
1124, 1582410102, 0.06559895, 0.60788846, 0.00411232, 0.79129755, 1.8959318, -2.3415756, -3.6424317, 0
1125, 1582426769, 0.0664555, 0.59636045, -0.001760439, 0.7999595, 0.11950816, -1.9791715, -4.6769876, 0
1127, 1582460103, 0.058687948, 0.5689657, 0.009781986, 0.82020634, -0.33728933, -1.9088136, -6.707464, 0
1128, 1582476770, 0.056528345, 0.55346423, 0.009606924, 0.8308971, -1.1803466, -1.1295816, -5.9929924, 0
1129, 1582493437, 0.05922214, 0.53903145, 8.0673024E-5, 0.84020156, -1.8943566, 0.3957457, -5.9724755, 0
1131, 1582526771, 0.053359494, 0.51698554, -0.004833081, 0.85431594, -7.911424, 0.7074187, 1.9912872, 0
1132, 1582543438, 0.04679692, 0.5077742, -0.004298798, 0.86020774, -9.315134, 1.3306116, 4.3963585, 0
1134, 1582576772, 0.03543127, 0.48631966, -0.01647165, 0.8729073, -11.2700815, 2.9200902, 7.940441, 0
1135, 1582593439, 0.033791706, 0.47455987, -0.031461954, 0.87901175, -11.496559, 0.9546701, 6.0217705, 0
1136, 1582610106, 0.032985047, 0.46233475, -0.045296323, 0.88493353, -8.705539, 1.7434531, 4.361808, 0
1139, 1582660107, 0.033351142, 0.43438524, -0.082790636, 0.8962942, 8.722075, 2.7910023, 1.6515503, 0
1140, 1582676774, 0.030101128, 0.42662856, -0.07742108, 0.9006045, 10.73217, 0.5002541, 6.5622253, 0
1142, 1582710108, 0.016155595, 0.41125143, -0.062043183, 0.9092647, 1.1028647, -0.78457326, 16.387104, 0
1143, 1582726775, 0.013416409, 0.40433425, -0.061677463, 0.91243094, 1.8999321, -1.9840175, 9.27726, 0
1144, 1582743442, 0.009987303, 0.39911076, -0.05978348, 0.9148973, 3.589462, -1.4002293, 1.1729603, 0
1147, 1582793443, -0.005269098, 0.3963721, -0.053590145, 0.9165097, -0.563643, -0.2005929, -0.012868881, 0
1148, 1582810110, -0.010658558, 0.39902568, -0.050606776, 0.9154804, -1.266284, 0.59227437, 0.9030132, 0
1150, 1582843444, -0.019057656, 0.40742877, -0.04750362, 0.9118018, -0.30915496, 0.49286765, 0.14924622, 0
1151, 1582860111, -0.02111077, 0.4117348, -0.047948245, 0.9097969, 0.38673902, -0.19297616, -0.59304523, 0
1152, 1582876778, -0.022794433, 0.41616842, -0.04547528, 0.9078638, 0.7298719, -0.40531537, -0.835515, 0
1154, 1582910112, -0.02786188, 0.42547417, -0.027309626, 0.90412945, 0.17477416, 0.36944366, -0.2078867, 0
1155, 1582926779, -0.030981522, 0.4300729, -0.014219011, 0.90215063, -0.100200385, 0.69683105, -0.6165495, 0
1156, 1582943446, -0.034635015, 0.43467736, -0.0013866653, 0.8999193, 0.6718598, 0.43241844, -1.1110058, 0
1158, 1582976780, -0.04036183, 0.44617754, 0.012823358, 0.8939421, 0.84573686, -0.24839805, -1.0926399, 0
1159, 1582993447, -0.045221142, 0.45248786, 0.0186178, 0.89042884, 0.3331926, -0.9558506, -2.1770768, 0
1162, 1583043448, -0.061361663, 0.4708965, 0.04562314, 0.8788687, -0.11612013, -0.27345195, -2.2711658, 0
1163, 1583060115, -0.064329885, 0.47817972, 0.05302988, 0.8742965, 0.8278361, -0.7306599, -1.5963478, 0
1165, 1583093449, -0.06209971, 0.49652857, 0.056628138, 0.86394256, 1.0121757, -1.7880487, -2.0347881, 0
1166, 1583110116, -0.059329554, 0.5062451, 0.058667466, 0.85834414, 1.1970532, -1.8218576, -2.5379777, 0
1167, 1583126783, -0.056566037, 0.5157837, 0.06181089, 0.8526121, 1.0980834, -1.7054662, -2.6577086, 0
1169, 1583160117, -0.04850885, 0.53437793, 0.06539253, 0.8413153, 0.6823314, -1.667827, -3.0929666, 0
1170, 1583176784, -0.044640195, 0.54226154, 0.0659934, 0.836424, 0.7614015, -1.9790465, -2.4833536, 0
1171, 1583193451, -0.04208094, 0.5499627, 0.067132175, 0.83142275, 1.300931, -2.3805997, -1.6705065, 0
1173, 1583226785, -0.037610073, 0.56474024, 0.069429055, 0.8214827, 0.7217359, -1.0035347, -1.3153791, 0
1174, 1583243452, -0.035280667, 0.5714151, 0.070689596, 0.81684977, 0.94646233, -0.51742274, -1.059474, 0
1178, 1583310120, -0.025553562, 0.59827906, 0.07562552, 0.79730207, 0.5015338, 0.15019557, 0.42470932, 0
1179, 1583326787, -0.022513496, 0.6053074, 0.07579765, 0.792055, -0.032549605, 0.089067616, 0.19144249, 0
1181, 1583360121, -0.017651875, 0.616746, 0.07593949, 0.7832921, 0.44023487, 0.05095528, 0.46199608, 0
1182, 1583376788, -0.015014552, 0.62211764, 0.07575419, 0.77910596, 0.3748381, -0.09957417, 0.44382286, 0
1183, 1583393455, -0.012918573, 0.62741244, 0.07617423, 0.77484494, 0.05459108, 0.050216436, 0.7822695, 0
1185, 1583426789, -0.008899409, 0.6369499, 0.07880976, 0.7668149, -0.2568046, 0.37976146, 0.15727615, 0
1186, 1583443456, -0.006559581, 0.64065975, 0.0796124, 0.7636584, 0.15710656, 0.16063565, 0.27083588, 0
1187, 1583460123, -0.0033754893, 0.6443619, 0.079144284, 0.76060694, 0.11293148, -0.24037376, 0.42645836, 0
1189, 1583493457, 0.0031210966, 0.6505102, 0.07734969, 0.7555422, -0.011528671, -0.13937894, 0.4853077, 0
1190, 1583510124, 0.006770254, 0.6524522, 0.07592263, 0.75398713, -0.07939397, 0.36900976, 0.29778767, 0
1193, 1583560125, 0.014271931, 0.65652174, 0.075550884, 0.75037855, 0.374455, 0.5625013, 0.64686775, 0
1194, 1583576792, 0.016150208, 0.6578308, 0.07493429, 0.7492552, -0.52467054, 0.87165064, 0.10547352, 0
1196, 1583610126, 0.016635202, 0.6562682, 0.07912736, 0.750183, 1.4155875, 1.2265499, -1.4790382, 0
1197, 1583626793, 0.016061276, 0.6558527, 0.08197463, 0.75025326, 2.2991545, -0.34748742, -0.29876614, 0
1198, 1583643460, 0.016840873, 0.65656596, 0.080972865, 0.749721, 1.3524613, -1.5229468, 0.49435616, 0
1201, 1583693461, 0.021443855, 0.6526086, 0.07374924, 0.7537929, 1.5628214, 1.3966328, 0.2083931, 0
1202, 1583710128, 0.021281129, 0.6515604, 0.07405616, 0.7546737, 1.7988541, 0.9439198, 0.2947321, 0
1204, 1583743462, 0.019057997, 0.6516836, 0.07189862, 0.7548351, 1.9703252, 0.15839848, -0.036070824, 0
1205, 1583760129, 0.017527401, 0.6510129, 0.06985733, 0.75564235, 2.2780879, -0.4106669, 0.12710667, 0
1206, 1583776796, 0.017348167, 0.6496869, 0.066867694, 0.757057, 1.9054523, -0.43517554, 0.7221937, 0
1208, 1583810130, 0.018794619, 0.64436585, 0.05927943, 0.76218486, 1.7759494, 0.36704007, -0.85530376, 0
1209, 1583826797, 0.019321531, 0.6409173, 0.05591569, 0.7653271, 1.6825165, -0.020517554, -1.2126074, 0
1210, 1583843464, 0.020481696, 0.6361482, 0.051923297, 0.76954556, 2.302551, -0.8568745, -1.3241854, 0
1212, 1583876798, 0.02837427, 0.62413895, 0.035019714, 0.78001255, 1.0197843, -1.0138911, -2.7966638, 0
1213, 1583893465, 0.02935743, 0.61582553, 0.031231925, 0.7867161, 0.07879943, 0.574222, -4.362956, 0
1215, 1583926799, 0.023462296, 0.5933888, 0.035741918, 0.8037799, 1.3153851, 0.054346252, -4.6476965, 0
1216, 1583943466, 0.022888549, 0.5812142, 0.03510715, 0.81267095, 0.58628356, -1.6160842, -4.919153, 0
1217, 1583960133, 0.023374816, 0.56807816, 0.031152777, 0.8220527, -0.5833113, -2.7438357, -6.4695954, 0
1219, 1583993467, 0.029493075, 0.5400442, 0.014333094, 0.840998, -2.6142836, -2.8861766, -8.138601, 0
1221, 1584026801, 0.03127061, 0.51580656, -0.007550462, 0.85610116, -2.1147804, -0.83996546, -1.3592186, 0
1223, 1584060135, 0.02005835, 0.49196377, -0.0065640286, 0.87036026, -8.036364, 5.6334743, 6.783684, 0
1224, 1584076802, 0.013555071, 0.4795304, -0.005518169, 0.8774035, -10.15164, 6.983631, 8.763094, 0
1227, 1584126803, 6.915042E-4, 0.44426954, -0.03027991, 0.8953813, -3.3367543, 1.5003895, 5.1777925, 0
1228, 1584143470, 0.0022547292, 0.43535024, -0.046289317, 0.8990677, 0.5968481, -1.3100579, 1.100234, 0
1229, 1584160137, 0.0037090378, 0.42844662, -0.056540735, 0.9017889, 4.4013796, -0.58596826, -1.362792, 0
1231, 1584193471, 0.0026781587, 0.41579497, -0.04885839, 0.9081415, 6.2866287, 0.19103174, 9.485615, 0
1232, 1584210138, 1.3713073E-4, 0.40975648, -0.043455206, 0.9111597, 2.9694886, -0.26770514, 11.61025, 0
1233, 1584226805, -0.0011750702, 0.40273532, -0.03979388, 0.91445065, 0.9704689, -0.591119, 11.11025, 0
1235, 1584260139, -0.0030244412, 0.39076445, -0.03548801, 0.91980165, 2.3017685, -0.30574858, 0.9427557, 0
1237, 1584293473, -0.010703596, 0.386259, -0.03372274, 0.92171186, 0.25167236, 1.0784645, -0.15044212, 0
1239, 1584326807, -0.019537725, 0.38801235, -0.032726035, 0.92086595, -0.47303873, 1.048599, -0.08772087, 0
1240, 1584343474, -0.023355473, 0.38979042, -0.03215739, 0.92004585, -0.30187818, 0.5292806, 0.031749725, 0
1242, 1584376808, -0.027500112, 0.39522064, -0.032290433, 0.9176068, 0.7536115, -0.7450696, -0.17225742, 0
1243, 1584393475, -0.028651793, 0.3987272, -0.031281333, 0.9160883, 0.5646643, -1.1081415, -0.96280575, 0
1244, 1584410142, -0.029575877, 0.40280306, -0.027680483, 0.9143901, 0.7040388, -1.1801803, -0.7363157, 0
1246, 1584443476, -0.031488486, 0.41228613, -0.015655853, 0.9103757, 0.49440318, -0.42688182, -0.79937935, 0
1247, 1584460143, -0.031587753, 0.41749537, -0.010124501, 0.90807366, 0.8049333, -0.39508232, -0.730917, 0
1248, 1584476810, -0.03116743, 0.4230022, -0.005650288, 0.9055751, 0.83411735, -0.2079578, -0.9405012, 0
1250, 1584510144, -0.032668054, 0.43509546, 0.006067208, 0.89977145, 0.6137818, 0.37268975, -1.3679247, 0
1252, 1584543478, -0.03779606, 0.44749373, 0.02293114, 0.8931938, 0.21881984, 1.2099236, -1.0321312, 0
1254, 1584576812, -0.041137774, 0.4616691, 0.03622132, 0.8853575, 0.21297316, 0.16345064, -0.95525265, 0
1255, 1584593479, -0.042442832, 0.46929342, 0.03997182, 0.88111573, 0.24493764, -0.2784671, -0.8758192, 0
1256, 1584610146, -0.04390596, 0.47747698, 0.043858465, 0.87645024, 0.14324547, -0.06289558, -1.6051397, 0
1258, 1584643480, -0.045869567, 0.494672, 0.051591244, 0.86633396, 0.60923123, -0.70901555, -1.5739937, 0
1259, 1584660147, -0.04469439, 0.50382054, 0.05298943, 0.8610225, 0.8141254, -1.2607924, -1.5969152, 0
1260, 1584676814, -0.042994272, 0.512954, 0.054422263, 0.85560983, 0.27860653, -1.3244152, -2.5666127, 0
1262, 1584710148, -0.038107216, 0.530047, 0.05614344, 0.84524924, 1.8270262, -2.65973, -1.2615194, 0
1263, 1584726815, -0.03481032, 0.5390626, 0.054778703, 0.8397615, 0.27915463, -2.270489, -1.6799488, 0
1264, 1584743482, -0.032781407, 0.54634875, 0.05705194, 0.8349693, 0.6671434, -1.4257426, -1.5160007, 0
1267, 1584793483, -0.023296777, 0.56752867, 0.06326101, 0.82058954, 0.99266183, -0.9125085, -1.3420792, 0
1269, 1584826817, -0.017514348, 0.5826083, 0.064657636, 0.80998814, 0.21632983, -0.032534197, -1.0761175, 0
1270, 1584843484, -0.0145993065, 0.5899565, 0.06439471, 0.80473113, 1.1471785, -0.5902557, 0.1517086, 0
1271, 1584860151, -0.0115169985, 0.5974371, 0.06276259, 0.79937327, 0.8537087, -0.5786551, 0.64385986, 0
1273, 1584893485, -0.004984986, 0.6104424, 0.059489936, 0.78980803, -0.1464592, 0.72610193, -0.36618614, 0
1274, 1584910152, -0.0036711209, 0.6145322, 0.06012365, 0.786589, 0.17663845, 1.5797484, -0.35650253, 0
1275, 1584926819, -0.0015703449, 0.61833847, 0.0600424, 0.78361374, 1.0612203, 0.8533008, 0.11094761, 0
1277, 1584960153, 0.0049993284, 0.62803215, 0.055961426, 0.7761568, 0.6683106, -1.2112191, 1.1338453, 0
1278, 1584976820, 0.008461097, 0.63284576, 0.05310529, 0.7724086, -0.28461483, -0.31446356, 0.40243816, 0
1279, 1584993487, 0.010776802, 0.63548386, 0.05271371, 0.7702376, -0.09617893, 1.1065938, 0.45731068, 0
1281, 1585026821, 0.014266498, 0.63735896, 0.054276522, 0.76852113, 0.9772012, 1.1428255, -0.047842026, 0
1282, 1585043488, 0.016106434, 0.63876265, 0.054132, 0.76732844, 1.4986763, -0.017058635, 0.5164747, 0
1283, 1585060155, 0.018352024, 0.6410408, 0.05164682, 0.76554745, 0.5477794, -0.69173247, 0.6470604, 0
1285, 1585093489, 0.021274123, 0.64217997, 0.04907432, 0.76468575, 0.28819665, 1.4847934, 0.2740965, 0
1286, 1585110156, 0.021603417, 0.64088434, 0.05016645, 0.76569194, 1.0959615, 1.3900892, 0.21304989, 0
1287, 1585126823, 0.022447951, 0.6408802, 0.049936965, 0.76568615, 1.1452076, 0.3925047, -0.031039238, 0
1289, 1585160157, 0.023852326, 0.6402477, 0.048387766, 0.7662721, 1.2033554, -0.10428619, -0.1366911, 0
1290, 1585176824, 0.025034005, 0.63915867, 0.046561137, 0.7672561, 1.3442895, -0.28769192, -0.22068214, 0
1291, 1585193491, 0.026484877, 0.63766545, 0.04389035, 0.7686061, 1.8071086, -0.61454093, 0.20978737, 0
1294, 1585243492, 0.03683133, 0.63093144, 0.030785985, 0.77435255, 1.7656304, 1.0627424, -2.528657, 0
1296, 1585276826, 0.043813672, 0.622675, 0.023030628, 0.7809139, 1.9127021, -1.0898583, -3.5944228, 0
1297, 1585293493, 0.047332283, 0.6176837, 0.018406013, 0.78478545, 1.0331733, -0.14792864, -4.071822, 0
1298, 1585310160, 0.045648277, 0.6099026, 0.020117365, 0.790905, 0.66609395, 0.40412384, -4.0559916, 0
1300, 1585343494, 0.041433014, 0.5893697, 0.028781815, 0.80628693, 2.703517, -1.1625689, -4.32047, 0
1301, 1585360161, 0.040682063, 0.5792818, 0.030218428, 0.8135508, 1.3381602, -1.3196528, -5.364734, 0
1304, 1585410162, 0.04548057, 0.53553706, 0.015075037, 0.84315157, -3.9696572, -1.6723219, -7.475842, 0
1305, 1585426829, 0.046438105, 0.5208764, 0.006717086, 0.85234183, -1.4439665, -0.56446433, -1.3692074, 0
1306, 1585443496, 0.044171594, 0.50667536, 0.009970945, 0.8609473, -10.27978, 2.4680905, 6.883791, 0
1308, 1585476830, 0.046561368, 0.47847426, 0.0021956167, 0.8768638, -10.8337145, 1.9696368, 9.660423, 0
1310, 1585510164, 0.051729735, 0.44730493, -0.018845992, 0.8926856, -9.518266, 3.6708286, 6.9860783, 0
1312, 1585543498, 0.05312541, 0.4179645, -0.056719773, 0.90513355, -0.5540789, 2.3502421, -0.93778324, 0
1313, 1585560165, 0.05413807, 0.40771332, -0.07829305, 0.9081353, 3.9087794, 2.9744494, -1.1817722, 0
1316, 1585610166, 0.047459412, 0.38750222, -0.07867715, 0.9172786, 4.157783, 0.34984037, 13.415972, 0
1317, 1585626833, 0.043914825, 0.382018, -0.07585119, 0.9199896, 2.9139621, -0.80469906, 10.239382, 0
1318, 1585643500, 0.040634565, 0.37756523, -0.072010845, 0.92228425, 2.7260432, 0.103896506, 4.2983017, 0
1320, 1585676834, 0.029417004, 0.37361193, -0.06136682, 0.92508554, 2.0532289, 2.5287855, -0.5049257, 0
1321, 1585693501, 0.022908939, 0.37498266, -0.057117708, 0.92498726, 0.33584315, 1.8650423, -0.27307796, 0
1323, 1585726835, 0.012518391, 0.381478, -0.048249155, 0.92303324, 0.30301085, 1.4992313, 0.6382189, 0
1324, 1585743502, 0.0073872553, 0.38577738, -0.044522036, 0.92148757, 0.72104067, 0.8940773, 0.09402847, 0
1328, 1585810170, -0.0066767624, 0.40964055, -0.02195333, 0.9119586, 0.54289913, -1.117634, -1.4688139, 0
1331, 1585860171, -0.009622252, 0.43204015, 0.0061775157, 0.90178216, -0.4567807, 0.28203663, -1.0050974, 0
1332, 1585876838, -0.010909546, 0.4403182, 0.015967071, 0.89763373, -0.44274008, 0.113785185, -0.33526516, 0
1333, 1585893505, -0.012399795, 0.44889882, 0.022393702, 0.893216, -0.117131025, 0.40813985, -0.53065205, 0
1335, 1585926839, -0.018919835, 0.46582597, 0.039219648, 0.8838045, -0.7416264, 0.8231388, -0.91451263, 0
1336, 1585943506, -0.020536194, 0.4741212, 0.045695543, 0.87903345, -0.26215738, 0.3286194, 0.2673111, 0
1337, 1585960173, -0.019891888, 0.48276287, 0.048475947, 0.87418234, -0.061597027, -0.5971773, -0.20851707, 0
1339, 1585993507, -0.016643414, 0.5015747, 0.052531686, 0.8633577, 0.10235056, -1.1562338, -0.90292835, 0
1340, 1586010174, -0.014872599, 0.5116343, 0.055620465, 0.85727227, -0.038313024, -1.5765682, -0.9287529, 0
1341, 1586026841, -0.011800047, 0.520998, 0.05896409, 0.85143733, -0.042086825, -0.96617407, -1.5003242, 0
1344, 1586076842, 0.007998634, 0.54691327, 0.053612795, 0.83543277, 1.0968978, -1.9186678, -2.0065622, 0
1345, 1586093509, 0.015912574, 0.55416286, 0.049930513, 0.83075714, 1.1189932, -1.4183017, -2.3588676, 0
1347, 1586126843, 0.028006092, 0.5678312, 0.04537999, 0.8214161, 1.5090212, -0.72431636, -2.2367196, 0
1348, 1586143510, 0.03397213, 0.57489383, 0.0420029, 0.81644315, 1.5270973, -0.1560268, -2.5651217, 0
1350, 1586176844, 0.041742098, 0.5886944, 0.039645605, 0.80630344, 1.9852207, 0.26754668, -1.8245778, 0
1352, 1586210178, 0.04800851, 0.60387284, 0.034191072, 0.7948987, 0.9372649, -0.09476142, -0.49524593, 0
1354, 1586243512, 0.049197067, 0.61754644, 0.03160193, 0.7843582, 0.32191435, 1.2096354, 0.14462566, 0
1355, 1586260179, 0.0475166, 0.6232622, 0.031965956, 0.77991354, 1.3459032, 1.0509584, 0.38314915, 0
1356, 1586276846, 0.046990003, 0.6291208, 0.030656576, 0.7752804, 0.9756745, -0.27903026, 0.8294668, 0
1358, 1586310180, 0.04502376, 0.63996387, 0.02898109, 0.7665376, 0.19586116, -0.068852216, 0.7819052, 0
1359, 1586326847, 0.042435218, 0.64430386, 0.029869404, 0.7630073, 0.46127144, 0.5336739, 0.58358574, 0
1360, 1586343514, 0.040381305, 0.64936745, 0.032254066, 0.758717, 0.7552758, 0.8202421, 0.06567955, 0
1362, 1586376848, 0.03727549, 0.6576235, 0.035375495, 0.75159216, -0.2672764, 0.6643537, 0.8059807, 0
1363, 1586393515, 0.03569426, 0.66045386, 0.03773886, 0.74906796, -0.04693188, 0.34723294, 0.57336426, 0
1364, 1586410182, 0.03509848, 0.6626909, 0.038690224, 0.74706924, 0.07391825, -0.4105573, 0.6187105, 0
1366, 1586443516, 0.03493452, 0.6648468, 0.039930843, 0.74509364, 0.81049347, -1.0490482, 0.5953436, 0
1367, 1586460183, 0.036078107, 0.6652771, 0.038250625, 0.74474305, 0.79252666, -0.836034, 0.5149307, 0
1368, 1586476850, 0.03757267, 0.6653322, 0.036255646, 0.7447196, 0.6852253, -0.394534, 0.27842808, 0
1370, 1586510184, 0.041548505, 0.66476077, 0.030959409, 0.7452575, 0.8288437, -0.22518982, -0.16109467, 0
1374, 1586576852, 0.06023029, 0.6603105, 0.012279666, 0.74847305, 0.82229465, -0.5465767, -0.78040123, 0
1375, 1586593519, 0.06472836, 0.6574241, 0.008641455, 0.7506862, 0.12591617, 0.35758048, -1.7563705, 0
1377, 1586626853, 0.06933603, 0.6482043, 0.0052401572, 0.7582854, 1.5793772, 0.7375965, -2.2117372, 0
1379, 1586660187, 0.07371478, 0.63841504, -0.0013272902, 0.76615345, 1.4641645, 0.2449004, -3.8661728, 0
1381, 1586693521, 0.07207812, 0.6234256, 0.0034665624, 0.7785458, 0.4461114, -0.28887624, -3.7131686, 0
1382, 1586710188, 0.0694822, 0.6122766, 0.008307055, 0.7875411, 1.3019264, -0.78160024, -3.509244, 0
1383, 1586726855, 0.06638647, 0.5990453, 0.012403361, 0.7978623, 0.9648002, -1.1682128, -4.200588, 0
1385, 1586760189, 0.06339135, 0.5699305, 0.012307273, 0.8191518, -0.9778496, -2.6016042, -4.780972, 0
1386, 1586776856, 0.067683436, 0.5537835, 6.4373016E-5, 0.8299055, -3.489744, -2.2063973, -5.908576, 0
1387, 1586793523, 0.07007172, 0.53943163, -0.014697243, 0.83898026, -4.0993495, -3.860614, -5.462578, 0
1390, 1586843524, 0.051739488, 0.5030984, -0.0030339798, 0.8626738, -9.260081, 4.0768237, 10.553755, 0
1391, 1586860191, 0.04850334, 0.4906782, -0.008811732, 0.86994547, -10.265725, 3.395494, 10.997671, 0
1394, 1586910192, 0.041532416, 0.4506787, -0.04094045, 0.89077955, -4.9253893, 1.4035836, 4.7729893, 0
1395, 1586926859, 0.04114545, 0.44009897, -0.057162575, 0.8951832, 0.37534982, 0.730099, 0.10850334, 0
1398, 1586976860, 0.03489612, 0.41992941, -0.06903578, 0.90425444, 9.044481, 0.9715423, 4.796856, 0
1399, 1586993527, 0.033000983, 0.4145882, -0.06344418, 0.90719503, 4.3541164, -1.990443, 8.700014, 0
1404, 1587076862, 0.028942619, 0.4056514, -0.053611577, 0.9119955, 0.04731192, 2.3800483, -2.751142, 0
1405, 1587093529, 0.025961976, 0.40749252, -0.049054444, 0.9115208, -0.22029325, 2.362153, -0.68061066, 0
1406, 1587110196, 0.023612382, 0.4101476, -0.050126962, 0.9103345, 0.13165921, 1.967832, -0.21636868, 0
1408, 1587143530, 0.017514473, 0.4159494, -0.053779077, 0.9076275, 0.5242793, 0.8428141, -0.4681177, 0
1412, 1587210198, 0.0070212195, 0.43345913, -0.043976806, 0.90007246, 1.484707, -0.52928865, -1.4989023, 0
1413, 1587226865, 0.00855313, 0.43886155, -0.044039305, 0.89743435, 1.3124903, -1.208611, -1.2316856, 0
1414, 1587243532, 0.009435256, 0.4449969, -0.041610274, 0.89451534, -0.065233395, -0.615224, -1.5607252, 0
1416, 1587276866, 0.009118034, 0.4582731, -0.02707603, 0.88835245, 0.07892799, -0.3176304, -0.8083687, 0
1417, 1587293533, 0.009104065, 0.46558982, -0.021689482, 0.8846882, 0.74781966, -0.7352307, -0.75438976, 0
1418, 1587310200, 0.009212641, 0.47327515, -0.014323036, 0.8807503, 0.82415706, 0.015533354, -1.2792807, 0
1420, 1587343534, 0.006476585, 0.48856425, 0.005949583, 0.8724839, 0.4037767, 0.5014853, -0.7778282, 0
1421, 1587360201, 0.004540383, 0.4958525, 0.015043011, 0.8682649, 0.7223536, 0.30746114, -0.45510197, 0
1422, 1587376868, 0.0025831023, 0.5029861, 0.022100037, 0.86400837, 0.6444268, 0.093090646, 0.052480698, 0
1424, 1587410202, -0.0013015503, 0.51709914, 0.033274025, 0.8552778, 0.91476643, -0.49307305, -0.46495056, 0
1426, 1587443536, -0.0024767565, 0.5322125, 0.04039369, 0.8456432, 1.5702478, -0.95821, -1.5297012, 0
1428, 1587476870, 5.015051E-4, 0.54816025, 0.041500494, 0.83534336, 1.6760608, -1.3622582, -1.9937854, 0
1429, 1587493537, 0.0040652333, 0.55757964, 0.039588906, 0.8291693, 0.93420076, -2.393894, -2.232952, 0
1431, 1587526871, 0.011703361, 0.5754905, 0.037359364, 0.8168711, 1.5034503, -1.3740584, -2.0574017, 0
1432, 1587543538, 0.016886905, 0.58506507, 0.03419531, 0.81008935, 0.80593425, -2.5469887, -1.3389053, 0
1436, 1587610206, 0.032621883, 0.60922104, 0.02806299, 0.7918324, 0.68442184, -0.87968576, 0.56548405, 0
1437, 1587626873, 0.035729118, 0.6148726, 0.025075212, 0.7874178, 0.044246007, -0.0348569, -0.11884022, 0
1439, 1587660207, 0.03547752, 0.6255708, 0.030741852, 0.77875423, 0.5716871, 2.03519, 0.8150253, 0
1441, 1587693541, 0.03417235, 0.6365512, 0.032977775, 0.7697713, 0.046053246, -0.5320716, 1.6857119, 0
1443, 1587726875, 0.033608913, 0.64442766, 0.03617274, 0.76306975, -0.023344576, 0.5846652, 0.3830614, 0
1444, 1587743542, 0.032482184, 0.64663297, 0.039761286, 0.7610719, 1.0027822, -0.53018904, 0.7265358, 0
1445, 1587760209, 0.03303242, 0.6494975, 0.038885586, 0.75865036, 0.73406243, -1.9631286, 0.94896317, 0
1447, 1587793543, 0.032569952, 0.6536562, 0.040018108, 0.75503105, -0.09607482, 1.2417903, -0.5652666, 0
1448, 1587810210, 0.030247565, 0.6539133, 0.0437913, 0.7546953, 0.883836, 1.4978441, -0.258173, 0
1449, 1587826877, 0.029945519, 0.65463364, 0.04463433, 0.7540332, 0.20302747, 0.91099334, -0.23441982, 0
1451, 1587860211, 0.027393427, 0.6559186, 0.048301384, 0.7527867, 0.45878652, -0.0513787, 0.62133694, 0
1452, 1587876878, 0.026067624, 0.6567019, 0.04839484, 0.7521447, 0.46536788, -0.67043537, 0.98967457, 0
1453, 1587893545, 0.025335189, 0.6569549, 0.047404144, 0.75201166, 0.16413999, -0.36506617, 0.115190506, 0
1455, 1587926879, 0.021212915, 0.65459114, 0.049670167, 0.7540515, 0.5873262, 1.1384368, 0.17005539, 0
1458, 1587976880, 0.017187282, 0.6468945, 0.047886565, 0.7608806, 0.4240613, -0.14474316, -0.07267761, 0
1459, 1587993547, 0.01584109, 0.6424959, 0.049022652, 0.7645556, 0.2733991, 0.37453398, -1.2800074, 0
1460, 1588010214, 0.012887001, 0.6368116, 0.052332416, 0.76913357, 1.7990476, 0.21652831, -0.828372, 0
1462, 1588043548, 0.011099348, 0.6244228, 0.046375234, 0.77962995, 1.3477749, -1.3164756, -1.0566425, 0
1463, 1588060215, 0.01088451, 0.61582005, 0.041832503, 0.7867006, 0.92481214, -0.21742645, -2.2710056, 0
1464, 1588076882, 0.010062496, 0.60597605, 0.041146286, 0.7943545, 1.2814513, 1.0861819, -3.6267962, 0
1466, 1588110216, 0.002530842, 0.583946, 0.053401485, 0.8100305, 1.7215176, -0.4837168, -4.3438487, 0
1468, 1588143550, 6.821081E-4, 0.55687606, 0.05383537, 0.8288492, 0.92212594, -1.6828188, -5.548038, 0
1471, 1588193551, 0.008034146, 0.5225213, 0.0299235, 0.8520633, -1.0771556, -1.5077447, -2.9324994, 0
1472, 1588210218, 0.010225718, 0.5135557, 0.017229803, 0.85782254, -8.569439, -2.7151034, 1.5449667, 0
1475, 1588260219, 0.019131647, 0.4792521, 0.004342151, 0.87745833, -9.886463, 2.7134602, 4.555353, 0
1476, 1588276886, 0.024491508, 0.46590528, -0.007488827, 0.88446414, -7.0755563, 1.9755805, 4.5019283, 0
1478, 1588310220, 0.034648586, 0.44134268, -0.05012319, 0.89526767, -0.62004983, 2.752635, 0.6970434, 0
1479, 1588326887, 0.038313884, 0.43248984, -0.06846737, 0.898219, 2.1084309, 1.8428124, -0.65354156, 0
1480, 1588343554, 0.04066088, 0.4230822, -0.07588029, 0.90199274, 5.268973, 3.182737, 3.2445736, 0
1485, 1588426889, 0.0351399, 0.3868311, -0.074315295, 0.9184795, 1.432692, 1.2593056, 0.94173145, 0
1486, 1588443556, 0.030233026, 0.38434651, -0.07372348, 0.919744, 0.37510413, 2.749284, 0.45599174, 0
1489, 1588493557, 0.014992123, 0.38770136, -0.07332795, 0.9187417, 0.40560696, 1.1437826, 1.453681, 0
1490, 1588510224, 0.010818514, 0.39130116, -0.07508806, 0.91713077, 0.7555021, 0.227965, 0.69386864, 0
1491, 1588526891, 0.0075020716, 0.39602187, -0.074716374, 0.9151657, 0.36068973, 0.2903943, 3.528595E-5, 0
1498, 1588643560, 0.010314381, 0.4394376, -0.03829016, 0.89739764, 0.7123203, -0.2437916, -0.93913937, 0
1499, 1588660227, 0.008687738, 0.44668743, -0.032022886, 0.8940748, 0.8304848, 0.660426, -1.6584749, 0
1501, 1588693561, 0.004226951, 0.4619317, -0.015409758, 0.8867718, 0.6771659, 0.09096642, -1.7141819, 0
1502, 1588710228, 0.003590391, 0.4696026, -0.013026197, 0.8827749, 0.719239, -0.6978106, -0.49943733, 0
1503, 1588726895, 0.0037324242, 0.47762033, -0.013070887, 0.87846154, 0.434464, -1.0379102, -1.1247072, 0
1505, 1588760229, 0.0013756659, 0.49290535, 0.0037550395, 0.8700741, -0.48852214, -0.42914623, -1.3131714, 0
1506, 1588776896, 0.0015420131, 0.5004494, 0.009734262, 0.86571, 0.31360584, -1.3954004, -0.5857086, 0
1507, 1588793563, 0.0028936472, 0.50829285, 0.011389349, 0.8611044, 0.62443113, -1.839798, -0.7463503, 0
1509, 1588826897, 0.0065502636, 0.52409375, 0.011469931, 0.85155857, 0.21150415, -1.3177521, -1.1770697, 0
1510, 1588843564, 0.0064855386, 0.53109795, 0.017572962, 0.84710366, -0.30472147, 0.015873827, -2.2805686, 0
1513, 1588893565, 0.012275426, 0.54816145, 0.017833322, 0.8360927, 1.6280375, -1.3211623, -0.7405062, 0
1514, 1588910232, 0.011907687, 0.5528, 0.017537408, 0.8330445, 0.6258031, -1.2521913, -0.72779465, 0
1516, 1588943566, 0.0089513585, 0.5616617, 0.023602966, 0.8269822, 1.9819828, -1.4084591, -0.26202202, 0
1517, 1588960233, 0.008799203, 0.5669985, 0.024535459, 0.8233067, 1.9643148, -0.84385175, -0.66417694, 0
1518, 1588976900, 0.008075682, 0.572535, 0.026869386, 0.8194004, 1.7060213, -0.0680438, -0.9275789, 0
1520, 1589010234, 0.0056695724, 0.58305085, 0.037146673, 0.8115665, 1.3641653, 0.21481113, -0.22026253, 0
1522, 1589043568, 0.0041394467, 0.59444076, 0.045534775, 0.8028388, -0.49859366, -0.1668163, -0.02064228, 0
1524, 1589076902, 0.0015406078, 0.60321754, 0.05852196, 0.79542565, -0.2451535, 0.37738374, 0.34157085, 0
1525, 1589093569, 0.0025690272, 0.6077412, 0.059489913, 0.7919, 0.055699963, -0.7155283, 0.8755255, 0
1528, 1589143570, 0.003201061, 0.62117356, 0.06382907, 0.78106296, -1.586774, 1.494154, -1.7753925, 0
1529, 1589160237, 0.0013513304, 0.62384105, 0.07173865, 0.7782508, 0.24619466, 1.1192845, -1.8574319, 0
1530, 1589176904, 0.0012524137, 0.6262209, 0.07509918, 0.7760197, 1.2111946, -1.1803305, -0.15713596, 0
1532, 1589210238, 0.0026876489, 0.631657, 0.06944518, 0.7721269, -1.0627226, -0.89199126, 1.4942532, 0
1533, 1589226905, 0.0013187472, 0.6324832, 0.0742912, 0.77100223, -1.2070119, 1.1433848, 0.37703323, 0
1534, 1589243572, -7.8277197E-4, 0.6325326, 0.081765085, 0.77020574, -0.13295166, 1.284573, -0.056189537, 0
1536, 1589276906, -0.0019324394, 0.63281983, 0.087674, 0.7693171, 0.79650265, -0.25273627, -0.065229416, 0
1537, 1589293573, -0.0021842243, 0.63263696, 0.08871278, 0.76934797, 0.5999265, -0.81306463, 0.20069313, 0
1539, 1589326907, -0.0029523047, 0.63181984, 0.09202254, 0.76962817, 0.5430012, -0.3493071, 0.45971584, 0
1540, 1589343574, -0.0036196914, 0.63075495, 0.093607865, 0.7703072, 0.33243755, 0.4616777, -0.04227829, 0
1543, 1589393575, -0.0024247244, 0.62685746, 0.09039063, 0.77386945, 1.3185455, -0.2874314, 0.44609356, 0
1544, 1589410242, -0.002082605, 0.62650526, 0.08861917, 0.7743603, 0.65064067, 0.37616697, 0.1396637, 0
1545, 1589426909, -0.0027420335, 0.6261742, 0.0900661, 0.77445906, 0.30481258, 0.7359883, -0.5813122, 0
1547, 1589460243, -0.0045169853, 0.62290186, 0.09409807, 0.7766074, 0.8615965, 0.7244452, 0.03516102, 0
1548, 1589476910, -0.004521995, 0.62109303, 0.09304944, 0.77818084, 1.0298202, 0.11990299, 0.4304285, 0
1549, 1589493577, -0.0040837973, 0.61969423, 0.09039123, 0.77961034, 0.4673956, -0.27997103, 0.59390736, 0
1551, 1589526911, -0.0049071796, 0.6166927, 0.090945475, 0.7819177, -0.044927355, 0.5916924, -0.40888977, 0
1552, 1589543578, -0.004975085, 0.61515754, 0.09032484, 0.78319746, 0.82174677, 0.100669615, -0.14122581, 0
1553, 1589560245, -0.004954718, 0.61331105, 0.087829635, 0.7849276, 0.77175057, 0.17846486, -0.0059518814, 0
1555, 1589593579, -0.0062185624, 0.60912204, 0.08624179, 0.7883494, 0.8122782, 0.79601884, 0.090880394, 0
1557, 1589626913, -0.0072267433, 0.60546654, 0.08580193, 0.7911994, -0.060469657, 0.87878275, 0.060595512, 0
1559, 1589660247, -0.008085848, 0.6026751, 0.083758004, 0.79353786, 0.31648985, 0.097228475, 0.27450085, 0
1560, 1589676914, -0.009821247, 0.60099846, 0.08607205, 0.7945417, 0.9594557, 0.9608008, -0.79996586, 0
1561, 1589693581, -0.010154222, 0.60001147, 0.08551101, 0.7953435, 2.4946873, -0.6295622, 0.8543129, 0
1563, 1589726915, -0.010519443, 0.5990353, 0.0837567, 0.7962608, 3.2596836, -0.052627396, 0.13154316, 0
1564, 1589743582, -0.008424052, 0.59989536, 0.078029886, 0.79622, 1.9081652, -0.9862403, 0.58395004, 0
1566, 1589776916, -0.009622168, 0.5986397, 0.081205934, 0.7968338, 3.6563, 0.09466498, 0.39167976, 0
1567, 1589793583, -0.0076515414, 0.599375, 0.07773188, 0.79664886, 1.2288389, 0.1955088, -0.2227726, 0
1568, 1589810250, -0.0083565, 0.59859556, 0.08004542, 0.79699856, 2.4972634, 0.7666812, -0.765954, 0
1571, 1589860251, -0.00854676, 0.5969142, 0.07862916, 0.79839736, 3.5243716, -0.5014844, 0.5877228, 0
1574, 1589910252, -0.009371266, 0.5956539, 0.07661851, 0.79952407, 2.5445826, -0.24454999, 0.4001646, 0
1575, 1589926919, -0.010017386, 0.5953645, 0.077200085, 0.79967576, 2.2408822, 0.47918475, -0.8800783, 0
1576, 1589943586, -0.0115226135, 0.5948307, 0.07824006, 0.79995173, 3.4064596, 0.44199476, 0.48499012, 0
1578, 1589976920, -0.011958331, 0.5952604, 0.078624204, 0.7995879, 3.1345258, 0.54918015, -0.40597725, 0
1579, 1589993587, -0.011232295, 0.59577805, 0.07647998, 0.7994208, 3.3872046, -0.5726526, 0.36706448, 0
1580, 1590010254, -0.009452609, 0.5965814, 0.073306724, 0.7991419, 2.725161, -0.6563604, -0.35181522, 0
1582, 1590043588, -0.0074735573, 0.5971625, 0.07049707, 0.79898167, 3.439327, -0.53597164, 0.62963676, 0
1583, 1590060255, -0.0057673287, 0.59796864, 0.06903659, 0.7985203, 1.9903576, 0.8479291, -0.83237934, 0
1584, 1590076922, -0.0066686785, 0.59778863, 0.07346134, 0.7982533, 3.9143114, 1.4678178, -0.55047417, 0
1586, 1590110256, -0.0025685169, 0.6005848, 0.065225415, 0.7968923, 2.440865, -0.589944, -0.5454407, 0
1588, 1590143590, -0.0034328895, 0.6010464, 0.06936328, 0.79619133, 4.352716, 0.4138115, 1.1041117, 0
1590, 1590176924, -3.236439E-4, 0.60391676, 0.06608295, 0.79430354, 3.2377005, 0.5788654, -0.6900463, 0
1591, 1590193591, -2.7104653E-4, 0.6043811, 0.067993104, 0.79378897, 3.8990097, 0.8541853, -0.553421, 0
1593, 1590226925, 0.0029684706, 0.6059543, 0.063338205, 0.79296863, 3.1719384, -0.5318189, -0.49395752, 0
1594, 1590243592, 0.0046124924, 0.60637134, 0.061272398, 0.79280424, 3.2765582, -0.099415556, 0.19730282, 0
1595, 1590260259, 0.0066650454, 0.6070315, 0.05911117, 0.79244864, 3.4571502, 0.2480118, -0.06318283, 0
1597, 1590293593, 0.010025712, 0.6087538, 0.05766725, 0.7911974, 3.4606225, 0.7667737, -0.44354916, 0
1598, 1590310260, 0.01143156, 0.6095188, 0.055758376, 0.79072607, 4.3336334, -0.24065495, 0.6488104, 0
1599, 1590326927, 0.013696419, 0.61081636, 0.05174537, 0.78996116, 2.954546, 0.096066706, -0.15990543, 0
1601, 1590360261, 0.013032045, 0.6119148, 0.05582257, 0.78884363, 3.441049, 1.160706, 0.52275276, 0
1602, 1590376928, 0.012602805, 0.61257464, 0.056093965, 0.78831947, 4.1870728, 0.2993804, 0.55860233, 0
1603, 1590393595, 0.013264279, 0.61400133, 0.052536137, 0.78744334, 3.6776912, -0.47918507, 0.3226328, 0
1605, 1590426929, 0.011368657, 0.6152211, 0.054731313, 0.7863706, 3.4878967, 0.96756715, -0.19252205, 0
1606, 1590443596, 0.011121311, 0.61578345, 0.054401096, 0.78595686, 3.6580133, -0.44966573, 0.45003128, 0
1607, 1590460263, 0.01208534, 0.6165015, 0.051919825, 0.78554726, 3.1379333, -0.45258644, 0.011385918, 0
1609, 1590493597, 0.013587593, 0.6172929, 0.05053637, 0.7849913, 3.2663898, 0.6131394, -0.38100815, 0
1610, 1590510264, 0.014625468, 0.61730796, 0.050072446, 0.78499055, 3.7192624, 0.05116586, -0.10972023, 0
1611, 1590526931, 0.01608885, 0.6178747, 0.048041347, 0.78464293, 3.4278977, -0.32625908, -0.32561684, 0
1613, 1590560265, 0.01675521, 0.6181254, 0.04800471, 0.7844337, 2.5861313, 1.2563543, -0.56390667, 0
1615, 1590593599, 0.01705473, 0.61824095, 0.046543244, 0.7844244, 3.5486212, -0.73250294, 0.18626976, 0
1617, 1590626933, 0.017712891, 0.61838764, 0.044129316, 0.78443354, 2.2325032, 0.71528155, -0.16658878, 0
1618, 1590643600, 0.016320411, 0.6180641, 0.047370568, 0.78452975, 2.6369407, 1.3606585, -0.42425346, 0
1620, 1590676934, 0.016087852, 0.61793786, 0.04606821, 0.78471154, 3.9033148, -1.269926, 0.60079575, 0
1621, 1590693601, 0.017466586, 0.6181564, 0.041521594, 0.7847636, 2.816443, -1.0587493, 0.20183563, 0
1622, 1590710268, 0.017526338, 0.6178899, 0.040892597, 0.78500533, 2.2922883, 0.545443, 0.0017728806, 0
1624, 1590743602, 0.016415332, 0.617095, 0.045262106, 0.78541464, 2.9047637, 0.88721853, 0.25131607, 0
1625, 1590760269, 0.017239153, 0.617092, 0.04351379, 0.78549814, 3.534609, -0.47332746, 0.47791862, 0
1626, 1590776936, 0.018831512, 0.61732656, 0.039782155, 0.785475, 3.301775, -1.2728093, 0.19299793, 0
1628, 1590810270, 0.021165513, 0.61650634, 0.036921266, 0.7861992, 1.9725686, 0.5716633, -0.27762794, 0
1630, 1590843604, 0.02119489, 0.6149521, 0.04046066, 0.78724074, 2.2733936, 0.5789068, -0.07194424, 0
1632, 1590876938, 0.026022257, 0.61427516, 0.03414633, 0.78792334, 3.269357, -1.5740772, -0.052482605, 0
1633, 1590893605, 0.029244896, 0.61412406, 0.030042633, 0.78809536, 2.5852468, -1.4538996, -0.22494698, 0
1634, 1590910272, 0.031963937, 0.6137463, 0.027957413, 0.7883608, 2.3579679, -0.15191266, -0.25930214, 0
1637, 1590960273, 0.039036565, 0.6135101, 0.022926033, 0.78838855, 2.4374228, 0.093541734, -0.017550468, 0
1638, 1590976940, 0.041235924, 0.614216, 0.020348221, 0.78779733, 2.429629, -0.12781465, -0.04567623, 0
1640, 1591010274, 0.043883268, 0.61519223, 0.017846158, 0.78695285, 2.7222884, 0.51792854, 0.28788185, 0
1641, 1591026941, 0.04464444, 0.6153216, 0.017957944, 0.78680646, 2.9003065, 0.7538612, 0.46707344, 0
1642, 1591043608, 0.04506561, 0.6153941, 0.01814472, 0.7867212, 2.4526324, 1.0178773, 0.3809824, 0
1644, 1591076942, 0.043801304, 0.61445206, 0.021641225, 0.7874404, 2.8548336, 0.475519, 0.45855427, 0
1646, 1591110276, 0.041921567, 0.6150196, 0.026075702, 0.7869649, 3.2096725, -0.023322012, 0.1695013, 0
1648, 1591143610, 0.03761029, 0.6172973, 0.029531183, 0.78527576, 3.3945987, -0.54419535, -0.9223261, 0
1649, 1591160277, 0.035213828, 0.6183684, 0.031557743, 0.7844648, 2.8283648, -0.24342299, -0.9042406, 0
1651, 1591193611, 0.030337516, 0.6187891, 0.035068855, 0.78418756, 2.9748182, 0.29166484, -0.8207264, 0
1652, 1591210278, 0.027785053, 0.61978453, 0.03784374, 0.78336656, 2.5102296, 0.16838855, -0.24337864, 0
1653, 1591226945, 0.024995849, 0.6205198, 0.04056686, 0.782742, 2.308792, -0.04123965, -0.34057617, 0
1655, 1591260279, 0.018537536, 0.6242542, 0.04548852, 0.77967566, 2.7384787, -0.73671126, 0.6578207, 0
1656, 1591276946, 0.0158339, 0.6266961, 0.046411373, 0.77771956, 2.8557892, -0.6645455, 0.23971081, 0
1657, 1591293613, 0.012179449, 0.6298956, 0.050299257, 0.77495384, 2.9147794, -0.41360754, -0.2243166, 0
1659, 1591326947, 0.007969019, 0.6349649, 0.052576974, 0.7707088, 2.4813771, -0.8703517, -0.5157795, 0
1661, 1591360281, 0.0067419326, 0.6430414, 0.04466977, 0.76449823, 1.8125676, -0.4191354, -0.53141975, 0
1663, 1591393615, 0.0056921523, 0.65071654, 0.038562648, 0.75831974, 1.9810208, -0.94322467, -1.0026646, 0
1664, 1591410282, 0.0058513517, 0.65638566, 0.033047464, 0.75367886, 1.6073878, -1.1344154, -0.6640339, 0
1665, 1591426949, 0.005860027, 0.66290927, 0.027486846, 0.7481723, 1.2182856, -0.6759426, -0.60945797, 0
1667, 1591460283, 0.0069302972, 0.6757028, 0.022468168, 0.73679936, 1.825691, 0.19602695, -0.3950138, 0
1668, 1591476950, 0.0075928885, 0.6816622, 0.022996891, 0.73126644, 2.163977, 0.25618443, -0.041934013, 0
1669, 1591493617, 0.007656738, 0.68672484, 0.024087923, 0.72647816, 2.4437945, -0.1754304, 0.15582943, 0
1671, 1591526951, 0.006153037, 0.69621104, 0.024579864, 0.71739036, 3.0562832, 0.19432741, 0.101428986, 0
1672, 1591543618, 0.004852756, 0.701339, 0.023346007, 0.71242934, 3.154436, 0.61373395, 0.040825844, 0
1674, 1591576952, 0.0019202689, 0.71366304, 0.019275514, 0.70022166, 2.2379284, 1.4539474, -0.13931942, 0
1675, 1591593619, -4.8288144E-5, 0.7188886, 0.017363515, 0.6949088, 1.5365285, 1.4813561, -0.49765778, 0
1676, 1591610286, -0.0022539748, 0.7228115, 0.016165368, 0.69085276, 1.0740408, 1.2103813, -0.43514442, 0
1678, 1591643620, -0.00488902, 0.7271065, 0.016492136, 0.68630946, 1.2966913, 0.6613933, 0.9134064, 0
1679, 1591660287, -0.005086817, 0.728121, 0.018137045, 0.6851902, 1.5560409, 0.4054086, 0.93962383, 0
1680, 1591676954, -0.0051930514, 0.7287366, 0.020497518, 0.6844679, 1.404699, 0.44951418, 0.6003723, 0
1683, 1591726955, -0.0072879884, 0.7282694, 0.028199608, 0.68467206, 1.5747746, 0.48155314, 0.7991562, 0
1686, 1591776956, -0.01044011, 0.72332746, 0.033649176, 0.68960613, 0.9606102, 0.813381, 0.23810005, 0
1688, 1591810290, -0.011820035, 0.71626186, 0.038257867, 0.69668204, 0.8138154, -0.39247566, -0.19934559, 0
1690, 1591843624, -0.013963148, 0.70895755, 0.042198095, 0.70384955, 0.47650754, -1.1554984, -0.3055849, 0
1694, 1591910292, -0.024477042, 0.70247746, 0.054733578, 0.7091764, 0.25147405, -1.2614715, 1.1198711, 0
1695, 1591926959, -0.025205689, 0.7018996, 0.054784734, 0.7097188, 0.38946384, -0.8552187, 0.62123203, 0
1696, 1591943626, -0.025606139, 0.70167845, 0.054588784, 0.70993817, 0.07312435, -0.44032654, 0.31922722, 0
1699, 1591993627, -0.02335904, 0.70621383, 0.046951033, 0.7060541, -0.7718599, -0.6535981, -0.14826584, 0
1701, 1592026961, -0.019524701, 0.709812, 0.038495827, 0.7030678, -0.53438836, -0.38512832, 0.13454628, 0
1702, 1592043628, -0.017564632, 0.7118893, 0.032831922, 0.7013043, -1.2898533, -0.0879518, -0.09870243, 0
1703, 1592060295, -0.015164716, 0.7134111, 0.02892964, 0.6999843, -0.6620284, 0.07544185, -0.15814304, 0
1706, 1592110296, -0.012928208, 0.7150779, 0.014473468, 0.6987756, -0.8458632, 0.036925778, -0.3687029, 0
1709, 1592160297, -0.015748344, 0.7152605, 0.0057385974, 0.6986574, -0.657357, 0.3197421, -0.06877804, 0
1710, 1592176964, -0.01760851, 0.7153541, 0.0029491056, 0.6985344, -0.7514873, 0.25766373, -0.14278698, 0
1713, 1592226965, -0.020964514, 0.7154414, -0.0034083202, 0.6983501, -0.590851, 0.33151, 0.019396782, 0
1714, 1592243632, -0.021267256, 0.71563244, -0.004839101, 0.69813675, -0.6367036, -0.095625035, -0.15191936, 0
1717, 1592293633, -0.021365955, 0.7154461, -0.008541636, 0.69828933, -0.090836465, -0.056236826, -0.06331539, 0
1718, 1592310300, -0.020935949, 0.71542597, -0.00985507, 0.69830555, -0.17064254, 0.036786698, -0.19260597, 0
1719, 1592326967, -0.020181816, 0.7153718, -0.011545145, 0.6983572, -0.27161044, -0.07549837, -0.28358746, 0
1721, 1592360301, -0.018553851, 0.71550125, -0.014675349, 0.6982112, -0.19146174, 0.18423219, -0.10573578, 0
1722, 1592376968, -0.017659668, 0.7156366, -0.015941925, 0.69806784, -0.2405999, 0.2784931, -0.019106865, 0
1723, 1592393635, -0.017006572, 0.7157499, -0.017092511, 0.6979406, -0.20336649, 0.22561239, 0.018378258, 0
1725, 1592426969, -0.01689844, 0.716031, -0.018836001, 0.69760996, -0.14382836, 0.4468507, 0.1894207, 0
1726, 1592443636, -0.017132545, 0.7161684, -0.019429985, 0.69744676, -0.13060613, 0.46770912, 0.19985485, 0
1729, 1592493637, -0.01844376, 0.71638125, -0.019796368, 0.6971846, -0.2921352, 0.40948915, 0.0102882385, 0
1730, 1592510304, -0.018945921, 0.71630174, -0.01969947, 0.69725555, -0.24053039, 0.23316917, 0.033474922, 0
1732, 1592543638, -0.01992198, 0.71626717, -0.018993407, 0.69728357, -0.17078318, 0.20144679, -0.10177231, 0
1733, 1592560305, -0.02026624, 0.71634185, -0.018364822, 0.69721365, -0.12957782, 0.25410753, -0.10028553, 0
1734, 1592576972, -0.02071106, 0.7163847, -0.017626975, 0.69717556, -0.07246259, 0.35701826, -0.053419113, 0
1736, 1592610306, -0.021880236, 0.716554, -0.015743416, 0.69701093, 0.07629474, 0.44599435, 0.11598492, 0
1737, 1592626973, -0.022619834, 0.716694, -0.015124314, 0.6968571, -0.02576348, 0.44137892, 0.057029724, 0
1738, 1592643640, -0.02352557, 0.71675134, -0.014497201, 0.69678146, -0.012005847, 0.3036487, -0.020043373, 0
1740, 1592676974, -0.025632286, 0.7164558, -0.0137199, 0.6970268, -0.15410438, 0.29175058, -0.04031849, 0
1741, 1592693641, -0.026591104, 0.7162383, -0.0135161895, 0.6972183, -0.2044622, 0.23735952, -0.03216839, 0
1744, 1592743642, -0.028554752, 0.7158098, -0.013363421, 0.69758356, -0.13701662, 0.090298176, 0.053318024, 0
1745, 1592760309, -0.028923072, 0.7157548, -0.013337206, 0.69762516, -0.114703186, 0.090349495, 0.0061273575, 0
1746, 1592776976, -0.029146183, 0.7158242, -0.0134681575, 0.69754237, -0.09277423, 0.021775275, -8.459091E-4, 0
1748, 1592810310, -0.029118715, 0.71604973, -0.0139472205, 0.6973026, -0.20375621, 0.12388668, 0.081962585, 0
1749, 1592826977, -0.028879521, 0.7161572, -0.014190679, 0.6971973, -0.16581602, 0.18572436, 0.09161949, 0
1750, 1592843644, -0.028610589, 0.71640927, -0.014455512, 0.6969439, -0.058565907, 0.18435137, 0.03392601, 0
1752, 1592876978, -0.028014354, 0.71698767, -0.015108801, 0.69635916, -0.12351843, 0.1904727, -0.061546326, 0
1753, 1592893645, -0.027747095, 0.71723783, -0.015281167, 0.69610846, -0.21976121, 0.16499825, -0.04661846, 0
1755, 1592926979, -0.027460944, 0.7178372, -0.0151609145, 0.6955043, -0.28487155, 0.24727581, -0.014359474, 0
1756, 1592943646, -0.027334182, 0.7181806, -0.01498687, 0.69515854, -0.18944311, 0.1259395, 0.017374992, 0
1757, 1592960313, -0.02724497, 0.7185778, -0.014861909, 0.694754, -0.19443642, 0.03347099, -0.049307823, 0
1759, 1592993647, -0.027245454, 0.71928596, -0.014721249, 0.694024, -0.14334233, 0.09046262, -0.045936584, 0
1760, 1593010314, -0.027323624, 0.7195352, -0.014676809, 0.6937634, -0.21802595, 0.14100976, 0.0057229996, 0
1763, 1593060315, -0.027811185, 0.7201223, -0.01391407, 0.69315034, -0.17757748, 0.18811294, 0.20425701, 0
1764, 1593076982, -0.027899576, 0.7203712, -0.013673819, 0.6928929, -0.16181217, 0.08902098, 0.040035248, 0
1765, 1593093649, -0.027966045, 0.7205907, -0.0134307025, 0.69266665, -0.12137616, 0.0582625, -0.035424232, 0
1767, 1593126983, -0.027969833, 0.72091925, -0.012713191, 0.6923381, -0.04509853, 0.01811472, -0.049180984, 0
1768, 1593143650, -0.02800472, 0.72083426, -0.012444257, 0.6924301, -0.11115565, 0.10834648, -0.01924324, 0
1769, 1593160317, -0.028069377, 0.72076964, -0.01227595, 0.6924976, -0.14067246, 0.08211874, 0.038030624, 0
1772, 1593210318, -0.028522976, 0.7204189, -0.011649713, 0.69285476, -0.21680449, 0.081413195, 0.11261082, 0
1773, 1593226985, -0.028581314, 0.7202618, -0.011538263, 0.69301766, -0.19941095, 0.044941846, 0.04436779, 0
1775, 1593260319, -0.02869254, 0.71973, -0.0111983195, 0.69357073, -0.23072551, 0.030942127, 0.033564568, 0
1776, 1593276986, -0.02876582, 0.71954733, -0.010879455, 0.69376236, -0.20951349, 0.080151886, 0.030638695, 0
1777, 1593293653, -0.028837036, 0.71948254, -0.010572457, 0.6938313, -0.30042806, -0.011976313, -0.019046783, 0
1779, 1593326987, -0.029056422, 0.7194576, -0.009869048, 0.69385827, -0.19702344, -0.006887978, -0.023514748, 0
1780, 1593343654, -0.029215313, 0.7194301, -0.009292191, 0.69388825, -0.20460758, 0.14518155, -0.015413284, 0
1781, 1593360321, -0.029309582, 0.71940655, -0.008792689, 0.6939152, -0.17539597, -0.040476047, -0.0104551315, 0
1783, 1593393655, -0.02974996, 0.7192241, -0.007791223, 0.69409764, -0.18889323, 0.015328085, -0.0042858124, 0
1784, 1593410322, -0.030080564, 0.71911496, -0.0074407645, 0.6942002, -0.2609798, 0.024847938, 0.056904793, 0
1787, 1593460323, -0.031172521, 0.7188855, -0.0060920715, 0.69440275, -0.16141245, 0.12687382, 0.086548805, 0
1788, 1593476990, -0.031493038, 0.71853316, -0.0052816607, 0.6947594, -0.2174888, 0.25015736, 0.03958893, 0
1790, 1593510324, -0.03209286, 0.7179274, -0.0036648158, 0.6953686, -0.27865815, 0.008008595, 0.10360718, 0
1791, 1593526991, -0.032342937, 0.7176574, -0.0026271585, 0.6956402, -0.24087927, -0.09519306, 0.066820145, 0
1792, 1593543658, -0.032665644, 0.71740425, -0.0020241486, 0.69588816, -0.25293368, -0.11223678, 0.04038906, 0
1794, 1593576992, -0.033291116, 0.7170331, -0.001288509, 0.6962429, -0.21897854, -0.16165654, -0.017121315, 0
1795, 1593593659, -0.03355554, 0.7168518, -0.0010055406, 0.6964172, -0.26236778, -0.07398846, -0.020949364, 0
1796, 1593610326, -0.033685617, 0.71669394, -8.33611E-4, 0.69657373, -0.24461088, -0.08682662, -0.0021715164, 0
1798, 1593643660, -0.033774015, 0.7164407, -6.9876947E-4, 0.69682986, -0.1682667, -0.07952458, -0.017993927, 0
1799, 1593660327, -0.03377667, 0.71634614, -3.682617E-4, 0.69692725, -0.16457276, 0.050853305, 0.0497427, 0
1802, 1593710328, -0.03375136, 0.71614635, 1.1879206E-4, 0.69713384, -0.13107848, 0.091494605, 0.079431534, 0
1803, 1593726995, -0.03375286, 0.71604866, 3.101295E-4, 0.69723415, -0.21041797, 0.054764614, 0.109989166, 0
1804, 1593743662, -0.033732075, 0.7159542, 4.192982E-4, 0.697332, -0.20810921, 0.053167067, 0.05700779, 0
1806, 1593776996, -0.03372452, 0.7158319, 4.8802886E-4, 0.697458, -0.14593048, 0.021783015, -0.035352707, 0
1807, 1593793663, -0.03361436, 0.71580774, 4.0845945E-4, 0.6974882, -0.10161169, -0.007973154, -0.018541336, 0
1809, 1593826997, -0.0331707, 0.7157466, 3.547566E-4, 0.69757223, -0.12198671, 0.12625647, -0.024481773, 0
1810, 1593843664, -0.032888822, 0.71576375, 6.440822E-4, 0.6975676, -0.1675096, 0.2806637, -0.031615257, 0
1811, 1593860331, -0.032640137, 0.71606284, 0.0010126522, 0.69727176, 0.033160195, 0.044549193, 0.0018720627, 0
1813, 1593893665, -0.0324455, 0.7163724, 0.0024747346, 0.69695926, -0.09128764, 0.25103578, -0.38290215, 0
1814, 1593910332, -0.032716185, 0.71613747, 0.0031502694, 0.6971852, -0.11207505, 0.44840738, 0.011996269, 0
1817, 1593960333, -0.034448642, 0.7152892, 0.005067472, 0.6979608, -0.27186787, 0.08546871, 0.47547722, 0
1818, 1593977000, -0.03498357, 0.7151362, 0.005803283, 0.6980853, -0.27511576, -0.08767758, 0.28598595, 0
1819, 1593993667, -0.035452466, 0.7150718, 0.0064636976, 0.6981219, -0.22207114, -0.17151745, 0.043785095, 0
1821, 1594027001, -0.03604585, 0.71508974, 0.007210425, 0.69806564, -0.23780392, -0.23760009, -0.32916164, 0
1822, 1594043668, -0.036181577, 0.71493024, 0.007251583, 0.6982217, -0.32665494, -0.23553985, -0.24132347, 0
1823, 1594060335, -0.03628975, 0.71476513, 0.007213891, 0.6983855, -0.37124938, -0.1800053, -0.09147835, 0
1825, 1594093669, -0.03634147, 0.7144632, 0.0070351753, 0.69869363, -0.40400615, -0.080235735, 0.10827637, 0
1826, 1594110336, -0.036232356, 0.7142738, 0.0068832347, 0.6988942, -0.3332387, -0.10371461, 0.18339252, 0
1827, 1594127003, -0.036068514, 0.7141259, 0.0066723563, 0.69905585, -0.30161384, -0.0132908765, 0.3106842, 0
1829, 1594160337, -0.035577197, 0.71415246, 0.006124339, 0.69905907, -0.11292981, 0.15204304, 0.14169121, 0
1830, 1594177004, -0.035351805, 0.7141815, 0.0059793303, 0.69904214, -0.040719174, 0.12942034, -0.0042409897, 0
1831, 1594193671, -0.03520423, 0.7141674, 0.0059401924, 0.6990641, -0.05021129, 0.108849734, -0.12523746, 0
1833, 1594227005, -0.03530992, 0.71408796, 0.006177825, 0.699138, 3.0619517E-4, 0.07507978, -0.17452812, 0
1834, 1594243672, -0.035526093, 0.71435606, 0.0067953547, 0.6988473, -0.56206393, -0.28107822, -0.40644646, 0
1836, 1594277006, -0.038123712, 0.74912596, -0.0056589628, 0.66130584, -6.26199, 8.135262, -10.7093725, 0
1837, 1594293673, -0.031849638, 0.7527938, -0.0028341487, 0.6574797, 3.9609923, 2.239828, -0.84592247, 0
1838, 1594310340, -0.03293544, 0.7535828, 0.0025649155, 0.6565228, -3.530646, -6.1447725, 1.004468, 0
1840, 1594343674, -0.04824447, 0.7453769, 0.01033221, 0.66481525, 0.22200805, 0.897629, 1.0157347, 0
1841, 1594360341, -0.054260217, 0.74329454, 0.01799076, 0.66651756, 0.17835236, 4.221208, -0.87994194, 0
1844, 1594410342, -0.05215378, 0.73689395, 0.027330369, 0.6734394, -0.028051995, -0.5006037, 0.7305708, 0
1845, 1594427009, -0.05256727, 0.7367277, 0.028335461, 0.6735477, 0.043886065, -0.44548428, 0.16396427, 0
1846, 1594443676, -0.053054214, 0.7375133, 0.02967496, 0.67259157, -0.21494584, -0.28078133, 0.015987396, 0
1848, 1594477010, -0.05275346, 0.7394934, 0.031033518, 0.67037594, -0.12955649, -0.34911758, -0.23666954, 0
1849, 1594493677, -0.051952243, 0.73989755, 0.030742962, 0.67000616, -0.15101926, -0.44097966, -0.35161018, 0
1850, 1594510344, -0.050896823, 0.73982507, 0.030020036, 0.6701997, -0.18524319, -0.51998305, -0.4310646, 0
1852, 1594543678, -0.04916129, 0.73829234, 0.028996091, 0.67206204, -0.15914159, -0.0662958, -0.24284363, 0
1853, 1594560345, -0.048301857, 0.736486, 0.028669134, 0.67411727, -0.009764787, 0.14949751, -0.124700546, 0
1854, 1594577012, -0.047335595, 0.73410875, 0.028229758, 0.67679167, -0.0015623503, 0.17978092, -0.18229961, 0
1856, 1594610346, -0.04505347, 0.7285348, 0.02756064, 0.6829701, 0.0773102, 0.55316293, 0.016402245, 0
1858, 1594643680, -0.04434773, 0.7262592, 0.028193977, 0.68540984, -0.009296291, 0.329687, 0.2962227, 0
1860, 1594677014, -0.04489838, 0.72488093, 0.028481755, 0.68681955, -0.08561793, 0.24942772, 0.16793728, 0
1861, 1594693681, -0.04484164, 0.7243226, 0.028383035, 0.68741614, -0.093047276, 0.11237322, 0.14310837, 0
1863, 1594727015, -0.044128295, 0.7236214, 0.028313374, 0.6882031, -0.088206455, -0.08300405, -0.09222031, 0
1864, 1594743682, -0.04355673, 0.7234311, 0.028101148, 0.68844825, -0.11255581, -0.13578083, -0.21271706, 0
1865, 1594760349, -0.04299087, 0.7232589, 0.02756487, 0.6886864, -0.14894456, -0.08171715, -0.26016235, 0
1867, 1594793683, -0.042256646, 0.7235727, 0.027097318, 0.6884207, -0.22415097, 0.12282191, -0.044635773, 0
1868, 1594810350, -0.04209487, 0.723808, 0.026866991, 0.68819237, -0.27582282, 0.15047538, -0.007789612, 0
1869, 1594827017, -0.042122647, 0.72403055, 0.026559804, 0.6879683, -0.31737968, 0.1377558, -0.0028352737, 0
1871, 1594860351, -0.04263431, 0.7247674, 0.025857262, 0.68718725, -0.30412534, 0.18466257, 0.16179562, 0
1873, 1594893685, -0.04298065, 0.7256938, 0.025847875, 0.68618786, -0.26243156, 0.10167372, -0.020396233, 0
