sep=,
DeviceTag:,Xsens_DOT_1,,,,,,,,,,,,,,,,,
FirmwareVersion:,3.0.0,,,,,,,,,,,,,,,,,
AppVersion:,2023.6.1,,,,,,,,,,,,,,,,,
SyncStatus:,Synced,,,,,,,,,,,,,,,,,
OutputRate:,60Hz,,,,,,,,,,,,,,,,,
FilterProfile:,General,,,,,,,,,,,,,,,,,
Measurement Mode:,Sensor fusion Mode - Extended (Quaternion),,,,,,,,,,,,,,,,,
StartTime:,2025-05-05 11:32:50.671 +0200,,,,,,,,,,,,,,,,,
 2025,,,,,,,,,,,,,,,,,,,

PacketCounter,SampleTimeFine,Quat_W,Quat_X,Quat_Y,Quat_Z,FreeAcc_X,FreeAcc_Y,FreeAcc_Z,Status
1, 1563693061, 0.9626373, 0.13330635, 0.14049637, -0.18940294, 0.06535776, 0.08539882, 0.37411308, 0
2, 1563709728, 0.9626332, 0.13334674, 0.14049116, -0.18939891, 0.043437954, 0.07004963, 0.37550735, 0
3, 1563726395, 0.96263695, 0.13336074, 0.14047605, -0.1893821, 0.021185452, 0.026527468, 0.36811733, 0
4, 1563743062, 0.96263635, 0.13337146, 0.14043775, -0.18940493, 0.035668757, 0.03220598, 0.3716812, 0
5, 1563759729, 0.9626337, 0.13337661, 0.1404022, -0.18944103, 0.09703748, 0.06323754, 0.35881805, 0
6, 1563776396, 0.96263146, 0.13338563, 0.14035726, -0.18947944, 0.060485456, 0.09568054, 0.35139084, 0
7, 1563793063, 0.9626368, 0.13338193, 0.14031316, -0.18948802, 0.0033136914, 0.09171245, 0.36374187, 0
8, 1563809730, 0.96264803, 0.13336988, 0.14026438, -0.18947506, 0.052238666, 0.06307432, 0.38562775, 0
9, 1563826397, 0.96265507, 0.13334534, 0.14020443, -0.18950146, 0.0770048, 0.06982665, 0.40109825, 0
10, 1563843064, 0.96266234, 0.13332638, 0.1401534, -0.18951505, 0.041348107, 0.08200302, 0.35638046, 0
11, 1563859731, 0.9626681, 0.13332343, 0.14011747, -0.18951496, 0.07355029, 0.08130317, 0.39603996, 0
12, 1563876398, 0.96267265, 0.13331755, 0.14009714, -0.1895107, 0.118016966, 0.095608786, 0.39913082, 0
13, 1563893065, 0.9626714, 0.13331236, 0.14008959, -0.18952614, 0.09950372, 0.115084894, 0.37952423, 0
14, 1563909732, 0.96267414, 0.13332132, 0.14007671, -0.1895158, 0.022211488, 0.13405631, 0.36133003, 0
15, 1563926399, 0.96267366, 0.13335174, 0.14007458, -0.18949857, 0.01906465, 0.118145816, 0.35607052, 0
16, 1563943066, 0.9626725, 0.13337836, 0.14008397, -0.18947873, 0.063323006, 0.11333149, 0.38051796, 0
17, 1563959733, 0.96266955, 0.13340467, 0.14008746, -0.18947193, 0.098440915, 0.05279292, 0.38371086, 0
18, 1563976400, 0.96266353, 0.13343574, 0.14009571, -0.18947512, 0.08905929, 0.034135543, 0.3622265, 0
19, 1563993067, 0.96265197, 0.13347061, 0.14011806, -0.18949255, 0.08535881, 0.033368725, 0.34611797, 0
20, 1564009734, 0.96264386, 0.13350478, 0.140132, -0.18949896, 0.07773781, 0.090226814, 0.34681797, 0
21, 1564026401, 0.9626363, 0.13353422, 0.14014801, -0.18950483, 0.076621026, 0.09986978, 0.39234447, 0
22, 1564043068, 0.96262914, 0.13358124, 0.14012985, -0.18952173, 0.049077746, 0.09729941, 0.37633514, 0
23, 1564059735, 0.9626243, 0.13362665, 0.14011452, -0.18952537, 0.058749486, 0.09391453, 0.37330627, 0
24, 1564076402, 0.9626193, 0.13367541, 0.14008287, -0.18953997, 0.06363425, 0.089321144, 0.3882513, 0
25, 1564093069, 0.96261835, 0.1337094, 0.14004785, -0.18954667, 0.06351389, 0.07036143, 0.38027096, 0
26, 1564109736, 0.96261597, 0.13374299, 0.14001651, -0.18955857, 0.027840327, 0.055956442, 0.36510563, 0
27, 1564126403, 0.9626131, 0.13377446, 0.14002126, -0.18954715, 0.043239027, 0.06667425, 0.37441635, 0
28, 1564143070, 0.9626038, 0.13380636, 0.14001812, -0.1895741, 0.09549133, 0.07771579, 0.37346077, 0
29, 1564159737, 0.9626014, 0.1338291, 0.14001332, -0.1895738, 0.080251545, 0.11274991, 0.37675, 0
30, 1564176404, 0.9625937, 0.13385794, 0.13999736, -0.18960431, 0.028856808, 0.101995215, 0.38570118, 0
31, 1564193071, 0.9625909, 0.13388184, 0.13997956, -0.18961495, 0.009211193, 0.07316744, 0.3991518, 0
32, 1564209738, 0.96258783, 0.13390692, 0.13996997, -0.18961996, 0.039308105, 0.065992534, 0.37270355, 0
33, 1564226405, 0.96258307, 0.13392702, 0.13996565, -0.18963319, 0.08984628, 0.06441593, 0.3411436, 0
34, 1564243072, 0.96257514, 0.13395202, 0.13995026, -0.18966645, 0.13576949, -0.028214013, 0.32886124, 0
35, 1564259739, 0.9625662, 0.13399866, 0.13991715, -0.1897037, 0.15368974, 0.04790383, 0.35115623, 0
36, 1564276406, 0.96253985, 0.13406369, 0.13991451, -0.18979311, 0.07410192, 0.038189396, 0.44441223, 0
37, 1564293073, 0.9625016, 0.1341209, 0.13996789, -0.1899074, -0.058833417, 0.15525658, 0.4179802, 0
38, 1564309740, 0.9624641, 0.13414328, 0.14002803, -0.1900374, -0.048403855, 0.33515722, 0.3845358, 0
39, 1564326407, 0.9624257, 0.13409019, 0.14017645, -0.19015959, 0.06829785, 0.43001118, 0.36474323, 0
40, 1564343074, 0.96234244, 0.13394096, 0.1405645, -0.1903998, -0.051307064, 0.5147062, 0.13877869, 0
41, 1564359741, 0.9622402, 0.13373773, 0.14114587, -0.19062936, -0.32309312, 0.38972843, 0.048924446, 0
42, 1564376408, 0.9620851, 0.13372032, 0.14197904, -0.19080535, 0.07327392, 0.21581078, 0.1304102, 0
43, 1564393075, 0.9619019, 0.13365942, 0.14294776, -0.19104865, 0.41023847, 0.10070284, 0.50044537, 0
44, 1564409742, 0.96166956, 0.13368537, 0.14403942, -0.19137964, -0.025795296, -0.05627475, 0.6780596, 0
45, 1564426409, 0.9614432, 0.13388208, 0.14502284, -0.19163656, -0.3717207, -0.11217294, 0.7228899, 0
46, 1564443076, 0.9612354, 0.13413371, 0.14583503, -0.19188675, -0.14434746, 0.06581755, 0.5665808, 0
47, 1564459743, 0.96104455, 0.13439599, 0.14648484, -0.19216377, 0.388107, 0.068852074, 0.4525957, 0
48, 1564476410, 0.96089077, 0.13466614, 0.14695188, -0.19238675, 0.53708124, -0.18768653, 0.49212742, 0
49, 1564493077, 0.9607893, 0.13496648, 0.14725026, -0.19245473, 0.32111627, -0.43401253, 0.43007755, 0
50, 1564509744, 0.96073234, 0.13519694, 0.14741728, -0.19244951, 0.08253339, -0.3996433, 0.32266808, 0
51, 1564526411, 0.96072924, 0.13527441, 0.14736983, -0.19244736, 0.036871478, -0.17488131, 0.2920227, 0
54, 1564576412, 0.96102285, 0.13453041, 0.14608589, -0.19248194, -0.016901705, 0.2631181, 0.23511219, 0
55, 1564593079, 0.9610722, 0.13435675, 0.14580876, -0.19256678, 0.01441748, 0.27489164, 0.2801323, 0
56, 1564609746, 0.9610815, 0.13423024, 0.14570653, -0.19268626, 0.025535796, 0.15180564, 0.41563416, 0
58, 1564643080, 0.9611331, 0.13394795, 0.14557582, -0.1927236, -0.0012448555, 0.13921946, 0.32054138, 0
59, 1564659747, 0.9611709, 0.13373579, 0.1455266, -0.19271973, -0.080044016, 0.10966901, 0.40133762, 0
60, 1564676414, 0.9612073, 0.13348828, 0.14548716, -0.19274041, -0.20298944, 0.064195044, 0.40989304, 0
62, 1564709748, 0.9612782, 0.13296852, 0.14547516, -0.19275486, 0.013797902, 0.10261952, 0.35799694, 0
63, 1564726415, 0.961318, 0.13267887, 0.14545895, -0.19276777, 0.17280568, 0.054658193, 0.44940567, 0
64, 1564743082, 0.96136653, 0.13237156, 0.14540163, -0.19278046, 0.14705174, -0.019904276, 0.40089703, 0
66, 1564776416, 0.9614831, 0.13176088, 0.14537945, -0.19263452, 0.07619456, 0.07638843, 0.36500645, 0
68, 1564809750, 0.9616034, 0.13101, 0.14530489, -0.19260216, -0.008005116, 0.11085036, 0.37155437, 0
70, 1564843084, 0.961714, 0.13027051, 0.14519574, -0.192633, 0.20966935, 0.12677833, 0.44777012, 0
71, 1564859751, 0.96176815, 0.12998946, 0.14509918, -0.192626, 0.27683154, 0.11008885, 0.44979095, 0
72, 1564876418, 0.9618082, 0.12978537, 0.14503585, -0.1926114, 0.18421468, 0.1413922, 0.39037895, 0
75, 1564926419, 0.96187603, 0.12983704, 0.14478505, -0.19242632, 0.23490138, 0.080687895, 0.396348, 0
76, 1564943086, 0.9618962, 0.12999818, 0.1446278, -0.19233486, 0.17919335, 0.03629339, 0.3807001, 0
78, 1564976420, 0.96191823, 0.1305384, 0.14422889, -0.19215807, 0.15451574, 0.07373152, 0.38180828, 0
79, 1564993087, 0.9619248, 0.13090101, 0.14396375, -0.19207746, 0.13372992, 0.08246796, 0.36473656, 0
81, 1565026421, 0.96193135, 0.13180491, 0.14336874, -0.1918717, 0.13751568, 0.10864387, 0.36433315, 0
82, 1565043088, 0.96192944, 0.1323518, 0.14302193, -0.19176343, 0.16381611, 0.10941001, 0.36400318, 0
83, 1565059755, 0.96193457, 0.13292016, 0.1426583, -0.19161558, 0.16393714, 0.060917843, 0.39462185, 0
85, 1565093089, 0.9619289, 0.13416404, 0.14197972, -0.19128036, 0.009757123, 0.05204329, 0.3507061, 0
86, 1565109756, 0.9619169, 0.13479076, 0.14163628, -0.19115457, 0.09143993, 0.07939809, 0.36074734, 0
87, 1565126423, 0.96190447, 0.1354073, 0.1412858, -0.19104126, 0.043816585, 0.1227893, 0.36882877, 0
89, 1565159757, 0.96187115, 0.13661237, 0.14067206, -0.19080466, 0.026995672, 0.11974511, 0.29928303, 0
90, 1565176424, 0.9618497, 0.13716616, 0.14042144, -0.19069943, 0.04574528, 0.070898674, 0.3876562, 0
91, 1565193091, 0.96183693, 0.13765003, 0.14017232, -0.19059828, -0.0567429, 0.005413316, 0.39640236, 0
93, 1565226425, 0.96182925, 0.13846685, 0.13975586, -0.19035116, -0.0521734, 0.09165357, 0.33477688, 0
94, 1565243092, 0.9618442, 0.13862447, 0.13957971, -0.19028994, -0.09567092, 0.13228245, 0.3745346, 0
97, 1565293093, 0.9619168, 0.13863821, 0.13913053, -0.19024163, 0.068045504, 0.043258585, 0.3454113, 0
98, 1565309760, 0.9619318, 0.13858877, 0.13907337, -0.19024318, 0.02546159, -0.032991827, 0.45032692, 0
99, 1565326427, 0.96196157, 0.13847116, 0.13901776, -0.19021967, -0.10585931, 0.014970311, 0.41068268, 0
101, 1565359761, 0.96207404, 0.1379027, 0.13898799, -0.19008496, -0.08679906, 0.16983774, 0.38484573, 0
102, 1565376428, 0.962139, 0.13740869, 0.13897064, -0.19012716, -0.120800145, 0.16089308, 0.36522388, 0
103, 1565393095, 0.9622097, 0.13693735, 0.13894068, -0.19013199, -0.029223425, 0.07268753, 0.34113216, 0
105, 1565426429, 0.9623574, 0.13605788, 0.13889846, -0.19004592, 0.1682316, 0.08905209, 0.35964298, 0
106, 1565443096, 0.96239674, 0.1356796, 0.13888921, -0.1901243, 0.09355235, 0.015019288, 0.37430763, 0
108, 1565476430, 0.96248233, 0.13499025, 0.13895985, -0.19013128, 0.024913872, 0.027917188, 0.45598984, 0
109, 1565493097, 0.96252656, 0.13466394, 0.13895178, -0.19014314, 0.10318152, 0.11815867, 0.36196804, 0
112, 1565543098, 0.9626249, 0.13416977, 0.13891435, -0.19002303, 0.22023234, 0.22558704, 0.40786457, 0
113, 1565559765, 0.96264124, 0.13412386, 0.1388831, -0.18999499, 0.19241661, 0.20867957, 0.38016415, 0
114, 1565576432, 0.96264386, 0.13414289, 0.13884756, -0.18999445, 0.056324147, 0.15098189, 0.38409328, 0
116, 1565609766, 0.96262944, 0.13429593, 0.13881005, -0.18998647, 0.12525342, 0.05451411, 0.4238968, 0
117, 1565626433, 0.9626124, 0.13441214, 0.13878646, -0.19000843, 0.1379883, 0.044371877, 0.3638525, 0
118, 1565643100, 0.96258485, 0.13457565, 0.13877076, -0.19004345, 0.15506077, 0.062425856, 0.33277225, 0
120, 1565676434, 0.96252453, 0.13505057, 0.13872348, -0.19004706, 0.12561071, 0.14456367, 0.3427534, 0
121, 1565693101, 0.96249473, 0.13533846, 0.13868397, -0.19002163, 0.05397134, 0.06793226, 0.36031914, 0
122, 1565709768, 0.9624562, 0.13562867, 0.13868323, -0.19001094, 0.05766869, 0.06767184, 0.37862968, 0
124, 1565743102, 0.962397, 0.136117, 0.13865525, -0.18998209, -0.009551826, 0.100392856, 0.39020348, 0
126, 1565776436, 0.9622761, 0.13665682, 0.13887288, -0.19004747, 0.045475498, 0.24437203, 0.32080173, 0
128, 1565809770, 0.9621592, 0.13674657, 0.13915935, -0.19036478, -0.28695545, 0.2880944, 0.28406334, 0
129, 1565826437, 0.9621031, 0.1366308, 0.139377, -0.19057229, 0.030506054, 0.21865799, 0.28235912, 0
132, 1565876438, 0.9618975, 0.13563849, 0.14054213, -0.19146109, -0.09434884, -0.16217929, 0.44619274, 0
133, 1565893105, 0.9618283, 0.13524401, 0.14101204, -0.19174248, -0.036762293, -0.0118179405, 0.37960052, 0
135, 1565926439, 0.9616239, 0.13472077, 0.14216948, -0.19228089, 0.019334095, 0.3142754, 0.45567036, 0
136, 1565943106, 0.96153677, 0.13452728, 0.14268817, -0.19246837, -0.03515725, 0.26877823, 0.49634266, 0
137, 1565959773, 0.961459, 0.13432193, 0.14316635, -0.19264454, -0.011339706, 0.08350768, 0.51152325, 0
139, 1565993107, 0.961326, 0.13382722, 0.14398398, -0.19304308, -0.016303482, -0.22903216, 0.32587242, 0
140, 1566009774, 0.9612887, 0.13350281, 0.14429054, -0.19322455, 0.14439206, -0.25943974, 0.24569893, 0
143, 1566059775, 0.9612519, 0.13233052, 0.14497451, -0.1937007, -0.0032040582, 0.10850246, 0.3467245, 0
144, 1566076442, 0.96126163, 0.13192019, 0.14515822, -0.1937947, -0.19933288, 0.21639484, 0.3974743, 0
145, 1566093109, 0.9612919, 0.13148247, 0.14530411, -0.19383293, -0.09833408, 0.3263111, 0.47379017, 0
147, 1566126443, 0.9613112, 0.1305094, 0.14570665, -0.19409242, 0.19360949, 0.3192012, 0.3677969, 0
148, 1566143110, 0.9612785, 0.13019328, 0.14609566, -0.1941739, 0.18188311, 0.26181355, 0.3620777, 0
149, 1566159777, 0.9612433, 0.12994781, 0.14648944, -0.19421619, 0.13698846, 0.09400614, 0.35372734, 0
151, 1566193111, 0.9611516, 0.12953912, 0.14719203, -0.19441086, -0.060772613, -0.14494419, 0.3124857, 0
152, 1566209778, 0.961112, 0.12934346, 0.14746225, -0.19453323, 0.07781257, -0.11846245, 0.37028122, 0
153, 1566226445, 0.9610768, 0.12918998, 0.14768812, -0.19463757, 0.22204784, 0.006206452, 0.35873985, 0
155, 1566259779, 0.9610112, 0.12903571, 0.1480375, -0.19479746, 0.13998494, 0.1569972, 0.40210056, 0
156, 1566276446, 0.96098304, 0.1290732, 0.14813887, -0.19483447, 0.066113345, 0.16900703, 0.45914173, 0
157, 1566293113, 0.960974, 0.12913238, 0.1481598, -0.19482449, 0.09400016, 0.16403049, 0.37243748, 0
159, 1566326447, 0.9609606, 0.12932706, 0.14806318, -0.19483468, 0.098790936, -0.06701922, 0.35111427, 0
160, 1566343114, 0.9609549, 0.12944755, 0.14797567, -0.19484901, 0.1076444, -0.101080686, 0.3956108, 0
162, 1566376448, 0.96096915, 0.12964156, 0.14769405, -0.19486368, 0.14147162, 0.17154561, 0.30230427, 0
163, 1566393115, 0.9609654, 0.129756, 0.1475387, -0.19492367, -0.0012474258, 0.20754771, 0.36775208, 0
164, 1566409782, 0.9609773, 0.1298242, 0.14737676, -0.1949417, -0.106470175, 0.23604041, 0.38624573, 0
166, 1566443116, 0.96100456, 0.12993714, 0.14707035, -0.19496381, 0.08438609, 0.09417453, 0.441226, 0
167, 1566459783, 0.96101576, 0.12996332, 0.14694841, -0.1949831, 0.012316123, -0.0085671395, 0.36573124, 0
170, 1566509784, 0.9610448, 0.1300373, 0.14675118, -0.194938, 0.035631318, 0.10158597, 0.3261509, 0
171, 1566526451, 0.96104884, 0.13005473, 0.14671333, -0.19493538, -0.03501051, 0.122062854, 0.35109234, 0
172, 1566543118, 0.9610609, 0.13007158, 0.14666519, -0.19490099, -0.038620804, 0.13175583, 0.37482452, 0
174, 1566576452, 0.9610969, 0.13013084, 0.14653149, -0.19478425, 0.10098941, 0.10180697, 0.3937893, 0
175, 1566593119, 0.96111345, 0.1301412, 0.14646149, -0.1947478, 0.07591137, 0.0574188, 0.4255991, 0
176, 1566609786, 0.96112895, 0.13014857, 0.14639083, -0.19472063, 0.08690206, 0.0755711, 0.35878754, 0
178, 1566643120, 0.96114314, 0.13017872, 0.14629336, -0.19470355, 0.104449615, 0.14220707, 0.36591625, 0
180, 1566676454, 0.9611535, 0.13025019, 0.1461562, -0.19470733, 0.066885136, 0.13811782, 0.44949055, 0
182, 1566709788, 0.9611521, 0.13050315, 0.1459673, -0.19468716, 0.19345404, 0.11161351, 0.35931778, 0
183, 1566726455, 0.96114826, 0.13069612, 0.14585781, -0.19465837, 0.13607357, 0.03364979, 0.32185555, 0
186, 1566776456, 0.96113336, 0.13150701, 0.14545982, -0.19448379, 0.10127607, 0.0553662, 0.3620777, 0
187, 1566793123, 0.96112823, 0.13184291, 0.14528418, -0.19441244, 0.13852003, 0.12677144, 0.3708992, 0
189, 1566826457, 0.9611087, 0.13263851, 0.1449996, -0.1941801, 0.057364266, 0.19906078, 0.43118572, 0
190, 1566843124, 0.96109366, 0.13305567, 0.14483851, -0.19408947, 0.04980539, 0.17002748, 0.368824, 0
191, 1566859791, 0.9610771, 0.13348867, 0.14464574, -0.19401759, 0.09563784, 0.11449895, 0.3413973, 0
193, 1566893125, 0.9610468, 0.13435118, 0.14428444, -0.19384143, 1.3164913E-4, 0.021635914, 0.34568024, 0
194, 1566909792, 0.9610332, 0.1347838, 0.14410038, -0.19374514, 0.09354319, -0.01643013, 0.3881035, 0
195, 1566926459, 0.9610143, 0.13519734, 0.14390816, -0.19369337, 0.14540401, 0.05818137, 0.33671284, 0
197, 1566959793, 0.96100986, 0.135966, 0.14348711, -0.19349003, -0.029850375, 0.117590286, 0.4339552, 0
198, 1566976460, 0.96103555, 0.13632487, 0.14325172, -0.19328469, -0.057270836, 0.067632705, 0.40104198, 0
201, 1567026461, 0.96111095, 0.13710052, 0.14252117, -0.19289991, 0.020345155, 0.02810248, 0.40311623, 0
202, 1567043128, 0.9611422, 0.13726512, 0.14228857, -0.19279936, -0.026652243, 0.06095908, 0.39683914, 0
203, 1567059795, 0.96116555, 0.13739718, 0.14207776, -0.19274408, 0.0012311094, 0.14350286, 0.38665485, 0
205, 1567093129, 0.9612124, 0.13756068, 0.14169583, -0.19267416, -0.005693769, 0.15531437, 0.4005394, 0
206, 1567109796, 0.96124035, 0.1375326, 0.14151734, -0.19268653, -0.041965116, 0.102826715, 0.38899326, 0
210, 1567176464, 0.96133447, 0.137413, 0.14117353, -0.19255406, -2.0999042E-4, 0.11622886, 0.32356644, 0
211, 1567193131, 0.9613381, 0.13740231, 0.14116599, -0.19254968, -0.06654495, 0.15627512, 0.2892189, 0
213, 1567226465, 0.96135014, 0.13741472, 0.14113529, -0.19250312, 0.07545518, 0.06364719, 0.35492992, 0
214, 1567243132, 0.96135956, 0.13741858, 0.14108308, -0.1924915, 0.04494365, 0.017508384, 0.36883068, 0
216, 1567276466, 0.9613894, 0.1374948, 0.14102012, -0.19233385, 0.12702867, 0.100253046, 0.40135288, 0
218, 1567309800, 0.9614067, 0.13758713, 0.14100304, -0.19219413, 0.008744498, 0.2765134, 0.36729336, 0
220, 1567343134, 0.9614215, 0.13768643, 0.14093404, -0.19209981, 0.09261103, 0.081494026, 0.35596848, 0
221, 1567359801, 0.9614148, 0.1377447, 0.14090204, -0.1921145, 0.164342, 0.0013410252, 0.3776884, 0
222, 1567376468, 0.9614105, 0.13778643, 0.1408586, -0.19213814, 0.104030974, -3.4915516E-4, 0.3674326, 0
224, 1567409802, 0.9614173, 0.13779633, 0.14074616, -0.1921789, 0.0708013, 0.09403833, 0.3270073, 0
225, 1567426469, 0.9613915, 0.13788843, 0.14071946, -0.19226143, 0.218788, -0.09103087, 0.61171913, 0
226, 1567443136, 0.9613489, 0.13795975, 0.140766, -0.19238913, 0.09085176, 0.25801063, 0.33752823, 0
228, 1567476470, 0.96122885, 0.13810915, 0.14096364, -0.19273725, -0.13859804, 0.3629624, 0.36463547, 0
229, 1567493137, 0.9611715, 0.13799155, 0.14111207, -0.19299898, -0.018535482, 0.3829624, 0.13397598, 0
230, 1567509804, 0.9610804, 0.13777934, 0.14145584, -0.19335267, -0.07223, 0.1031303, 0.34419918, 0
232, 1567543138, 0.96095824, 0.13715942, 0.14218663, -0.19386363, 0.034796722, -0.094333895, 0.4887066, 0
233, 1567559805, 0.9608952, 0.13679889, 0.14261125, -0.19411868, 0.1330224, -0.021402707, 0.4213667, 0
234, 1567576472, 0.9608332, 0.13648462, 0.14301795, -0.19434822, -0.074648075, 0.114411086, 0.41135788, 0
236, 1567609806, 0.9607786, 0.1361081, 0.14352399, -0.19450876, 0.056095045, 0.043727934, 0.3284588, 0
237, 1567626473, 0.96077406, 0.13592744, 0.14364351, -0.19456905, 0.17082258, -0.037878852, 0.35652065, 0
238, 1567643140, 0.9607668, 0.1357524, 0.14372556, -0.19466645, 0.073675685, -0.15385431, 0.39055347, 0
240, 1567676474, 0.9608016, 0.13541324, 0.1438593, -0.19463176, 0.13107973, -0.019406429, 0.27228928, 0
241, 1567693141, 0.9608202, 0.13519585, 0.14389983, -0.19466126, 0.1597151, 0.17918625, 0.333786, 0
243, 1567726475, 0.96091247, 0.13441311, 0.1438658, -0.1947729, -0.21714865, 0.17256404, 0.43207932, 0
245, 1567759809, 0.9609761, 0.13352357, 0.1440599, -0.194927, 0.04053265, 0.3269368, 0.48856163, 0
247, 1567793143, 0.9609891, 0.13273701, 0.14436701, -0.19517297, 0.220132, 0.17368245, 0.38370037, 0
248, 1567809810, 0.9609955, 0.13231888, 0.14451002, -0.19531965, 0.15754254, 0.08710074, 0.2451334, 0
249, 1567826477, 0.9609983, 0.13186146, 0.14469574, -0.19547763, -0.046708845, 0.028008716, 0.3539133, 0
251, 1567859811, 0.96097183, 0.13090892, 0.14518711, -0.19588342, -0.025223773, -0.07185578, 0.51454544, 0
252, 1567876478, 0.96096826, 0.13039476, 0.14538679, -0.19609618, 0.060935106, 0.08797252, 0.4104061, 0
253, 1567893145, 0.9609717, 0.12989818, 0.14553773, -0.19629651, 0.120605804, 0.1310304, 0.36940765, 0
255, 1567926479, 0.96101826, 0.12899797, 0.14576295, -0.19649431, 0.15099742, 0.04732666, 0.35105133, 0
256, 1567943146, 0.9610548, 0.12855613, 0.14584483, -0.19654486, 0.07610739, -0.042382974, 0.3840294, 0
257, 1567959813, 0.9611096, 0.12811278, 0.14586955, -0.19654793, 0.04254938, -0.10103347, 0.3633604, 0
260, 1568009814, 0.96131486, 0.12670566, 0.14579582, -0.19651106, 0.03047532, 0.28154093, 0.30564594, 0
261, 1568026481, 0.96137524, 0.1261938, 0.14579253, -0.19654843, -0.06726712, 0.36268827, 0.2923107, 0
263, 1568059815, 0.9614593, 0.12521636, 0.14588171, -0.1966953, 0.16832067, 0.10854233, 0.39265347, 0
264, 1568076482, 0.96150196, 0.124695435, 0.1459059, -0.19680032, 0.14670026, 0.043870565, 0.4173441, 0
266, 1568109816, 0.9615761, 0.123574466, 0.14603113, -0.19705194, -0.09580134, 0.09844323, 0.3365717, 0
267, 1568126483, 0.9615953, 0.123084635, 0.14615315, -0.19717377, 0.05601894, 0.086347945, 0.44517326, 0
268, 1568143150, 0.96162456, 0.122632965, 0.14620797, -0.19727162, 0.1314264, 0.14763874, 0.3669052, 0
270, 1568176484, 0.961676, 0.12202986, 0.14629793, -0.1973286, 0.23833254, 0.061047673, 0.36071873, 0
271, 1568193151, 0.96170795, 0.12174795, 0.14626987, -0.19736826, 0.26483166, -0.027385896, 0.4067402, 0
272, 1568209818, 0.9617357, 0.12144391, 0.14622587, -0.19745252, 0.014226376, 0.014976933, 0.31036663, 0
275, 1568259819, 0.9618273, 0.120466314, 0.14596806, -0.19779581, 0.15364583, 0.031810056, 0.40851593, 0
276, 1568276486, 0.961889, 0.11994672, 0.14572322, -0.19799212, 0.13904049, 0.060482185, 0.35783768, 0
278, 1568309820, 0.9621, 0.11862284, 0.1449881, -0.19830388, 0.15287873, 0.05514221, 0.32045174, 0
279, 1568326487, 0.9622403, 0.11781089, 0.1445034, -0.19846156, 0.14178489, 0.0096127335, 0.19923115, 0
280, 1568343154, 0.96238244, 0.116989665, 0.14401226, -0.1986149, 0.04789156, -0.11601135, 0.21914387, 0
282, 1568376488, 0.9626234, 0.11553232, 0.14317125, -0.19890758, -0.13887675, -0.09906633, 0.32067013, 0
283, 1568393155, 0.96271944, 0.11491013, 0.14279363, -0.19907516, 0.06380244, -0.07254968, 0.6246443, 0
284, 1568409822, 0.9627689, 0.11438039, 0.14264482, -0.19924688, 0.08002513, 0.29148987, 0.9470062, 0
286, 1568443156, 0.96266425, 0.1139995, 0.14312373, -0.19962674, -0.20322044, 1.4499803, 0.5878086, 0
287, 1568459823, 0.9625741, 0.1140406, 0.14343248, -0.19981697, -0.15307888, 1.0405796, 0.6968336, 0
290, 1568509824, 0.9618637, 0.1142947, 0.14597182, -0.20124829, -0.19089046, 0.13477401, -0.023382187, 0
291, 1568526491, 0.9616888, 0.1137505, 0.14681464, -0.20177919, -0.39700326, -0.7202446, -0.024399757, 0
292, 1568543158, 0.961601, 0.11281517, 0.14749165, -0.20222792, -0.31538492, -0.15986682, -0.33855438, 0
294, 1568576492, 0.9619802, 0.1097637, 0.14669205, -0.20268491, -0.03790858, -0.5477108, 0.53545666, 0
297, 1568626493, 0.9619752, 0.10718264, 0.14788023, -0.20322576, -0.32933438, -0.34562445, 0.58623695, 0
298, 1568643160, 0.96200943, 0.10624045, 0.14800388, -0.20346865, -0.57015496, 0.35473248, -0.13455582, 0
299, 1568659827, 0.96201295, 0.10519366, 0.14827925, -0.20379469, 0.0057581407, -0.10957823, -0.22982597, 0
301, 1568693161, 0.96220636, 0.10255554, 0.14792818, -0.20448023, 0.74591416, -0.19680142, 0.692749, 0
302, 1568709828, 0.9622272, 0.10156961, 0.1480021, -0.20482025, -0.20957011, 0.26976413, 1.0810585, 0
303, 1568726495, 0.96207374, 0.10132671, 0.14872858, -0.20513517, -0.37933278, 1.7479715, 0.103043556, 0
305, 1568759829, 0.96136165, 0.101135746, 0.15161933, -0.20644745, -0.2690449, 0.91462624, 0.5226717, 0
306, 1568776496, 0.9608948, 0.10097399, 0.15317298, -0.20754993, -0.5750469, 1.0527554, 0.38864326, 0
307, 1568793163, 0.960442, 0.10058612, 0.154578, -0.20878825, 0.09495177, 1.4716755, 0.4308195, 0
309, 1568826497, 0.95940363, 0.10005391, 0.15760861, -0.2115348, -0.044422418, 2.092434, 0.45303822, 0
310, 1568843164, 0.95875114, 0.09990102, 0.15925606, -0.21332332, 0.20704341, 2.3607621, 0.85577106, 0
311, 1568859831, 0.9578669, 0.09993158, 0.16037953, -0.21641761, -0.71747804, 2.7742972, 0.40681267, 0
313, 1568893165, 0.9555571, 0.10191703, 0.16372687, -0.22309247, -0.100843795, 3.2389092, 0.56572914, 0
314, 1568909832, 0.9543716, 0.10342205, 0.16534787, -0.22625744, 0.39822656, 2.9786963, 0.64899635, 0
315, 1568926499, 0.95334077, 0.105028816, 0.16679262, -0.22878781, 0.55808526, 3.2270918, 0.2877741, 0
318, 1568976500, 0.9523704, 0.11150126, 0.16943789, -0.22782081, -0.15441996, 3.3794856, 0.11259937, 0
319, 1568993167, 0.9525257, 0.11346474, 0.16936617, -0.22625002, -0.28808028, 3.2333167, 0.38748455, 0
321, 1569026501, 0.95273226, 0.11650514, 0.16819842, -0.22470066, -1.0173525, 3.5231113, 0.7443142, 0
322, 1569043168, 0.95277727, 0.11767683, 0.16725056, -0.22460699, -0.59722024, 3.424923, 0.46543694, 0
324, 1569076502, 0.9527296, 0.11936316, 0.16564855, -0.225106, -0.23087916, 3.8179076, 0.022369385, 0
325, 1569093169, 0.9525051, 0.120532304, 0.16481036, -0.2260465, -0.32507154, 4.410787, -0.6493635, 0
326, 1569109836, 0.95223916, 0.12149866, 0.16382217, -0.22736421, -0.71650064, 3.885246, 0.19748592, 0
328, 1569143170, 0.95252043, 0.120435745, 0.15938547, -0.22989142, -0.60214347, 3.9390368, 0.1419735, 0
329, 1569159837, 0.95261204, 0.11960497, 0.15640445, -0.23198333, -0.80312294, 4.1028285, 0.03957081, 0
330, 1569176504, 0.95264053, 0.119788036, 0.15517876, -0.23259431, -0.23015252, 4.875868, 0.21339321, 0
333, 1569226505, 0.95200264, 0.12196464, 0.15529825, -0.23399138, -0.025063066, 4.245088, 0.038326263, 0
334, 1569243172, 0.9515891, 0.12311773, 0.15651235, -0.23425972, -0.59521276, 3.8390331, -0.13925171, 0
336, 1569276506, 0.95146954, 0.124367505, 0.15697558, -0.23377502, -0.08492408, 4.3295727, -0.20889473, 0
337, 1569293173, 0.95154727, 0.12527613, 0.15675065, -0.23312348, 0.4929034, 3.9057279, 0.4684353, 0
338, 1569309840, 0.95171773, 0.1263166, 0.15603748, -0.23234332, 0.5446052, 3.488534, 0.44483757, 0
340, 1569343174, 0.9515786, 0.1305307, 0.15575339, -0.2307694, -0.13883552, 2.894733, 0.86658955, 0
341, 1569359841, 0.95126235, 0.13394558, 0.15507779, -0.23057127, 0.47051117, 3.026327, -0.44931698, 0
342, 1569376508, 0.9513209, 0.13828662, 0.15228938, -0.22962335, 0.80734545, 2.7737658, -1.5817652, 0
344, 1569409842, 0.952597, 0.14282347, 0.1441417, -0.22679785, -0.89214516, 1.1812855, -0.33744717, 0
345, 1569426509, 0.95334905, 0.14349006, 0.14008258, -0.22575817, -0.6409162, -0.6349331, 0.5177851, 0
348, 1569476510, 0.9542684, 0.1445677, 0.13256234, -0.22572759, 1.3786491, -3.1196935, 2.1890097, 0
349, 1569493177, 0.95403445, 0.14620873, 0.13183643, -0.22608393, 1.3537867, -3.966957, 1.3611917, 0
351, 1569526511, 0.9531591, 0.15030926, 0.13136192, -0.22736046, 1.3630708, -2.4495318, 0.72915936, 0
352, 1569543178, 0.9526596, 0.15240382, 0.13147594, -0.22799248, 0.6931478, -3.0673885, 1.2642479, 0
353, 1569559845, 0.9522834, 0.153872, 0.13136719, -0.2286393, 0.34906197, -2.2749784, 0.03231144, 0
355, 1569593179, 0.9514479, 0.15620403, 0.1318268, -0.23026618, 0.07138859, -1.9547404, -0.086930275, 0
356, 1569609846, 0.9511137, 0.15700406, 0.13190536, -0.23105612, 0.7788776, -1.8785652, 0.85659885, 0
357, 1569626513, 0.95079696, 0.15809496, 0.13176166, -0.23169711, 0.73124164, -1.2162659, 0.92434216, 0
359, 1569659847, 0.9502201, 0.16087857, 0.13059945, -0.23280337, -0.805397, -0.9422588, -0.59152794, 0
360, 1569676514, 0.95004785, 0.16216563, 0.12974642, -0.23308986, -0.47100818, -0.8860011, 0.6772623, 0
363, 1569726515, 0.94960165, 0.1652162, 0.12777883, -0.23385164, -0.093137175, 0.63998127, 0.025671959, 0
364, 1569743182, 0.94946486, 0.16574499, 0.12727134, -0.23430926, -0.3047124, -0.17506829, 0.1993885, 0
365, 1569759849, 0.949407, 0.16592512, 0.12648095, -0.23484391, -0.6426168, 0.35546088, 1.2071085, 0
367, 1569793183, 0.9492928, 0.16512786, 0.12493026, -0.23668963, 0.15817498, 0.096428, 0.1352272, 0
368, 1569809850, 0.94931906, 0.16377361, 0.124137, -0.23793972, 0.3004688, 0.896645, -1.0418558, 0
369, 1569826517, 0.94951475, 0.16086997, 0.12340214, -0.23951674, 0.077491604, 0.88527167, 0.3062029, 0
371, 1569859851, 0.9495459, 0.15512472, 0.123397075, -0.24315807, 0.1945231, 0.11976084, 0.760376, 0
372, 1569876518, 0.9494412, 0.15324159, 0.12340981, -0.24474925, 0.5121067, 0.8527512, -0.1524477, 0
373, 1569893185, 0.9494477, 0.1513319, 0.12290716, -0.24616098, 0.97237813, 1.855485, -0.8743334, 0
375, 1569926519, 0.9495164, 0.14803663, 0.12116341, -0.24875057, -0.112815484, 1.7622758, 0.6411762, 0
376, 1569943186, 0.94949013, 0.14678825, 0.12067741, -0.24982506, -0.14777593, 1.5031369, 0.5599718, 0
378, 1569976520, 0.94930524, 0.14516862, 0.12044632, -0.25157928, -0.61969674, 1.5514064, -0.12337875, 0
379, 1569993187, 0.9493638, 0.14439525, 0.1198837, -0.25207147, -0.44697103, 2.0733142, 0.6285353, 0
380, 1570009854, 0.9493451, 0.14392838, 0.11969068, -0.25250068, -0.77196455, 1.7122929, 0.85318756, 0
382, 1570043188, 0.9492835, 0.14350353, 0.1195473, -0.25304082, -0.5136067, 1.5398623, 0.9555559, 0
383, 1570059855, 0.94931984, 0.14305212, 0.119326934, -0.25326407, -0.5299557, 1.7661648, 0.544816, 0
384, 1570076522, 0.9492687, 0.14280486, 0.11937132, -0.2535741, -0.5953671, 2.044335, 1.057601, 0
386, 1570109856, 0.9492557, 0.14209217, 0.11979897, -0.25382093, -0.37291795, 1.7398175, 0.74633026, 0
387, 1570126523, 0.9492388, 0.14149663, 0.12046838, -0.25390053, -0.42191958, 2.1394062, 0.81948185, 0
390, 1570176524, 0.94936144, 0.14023302, 0.12187803, -0.25346962, -0.21760237, 3.2570345, -0.23209858, 0
391, 1570193191, 0.9495081, 0.14001092, 0.12216993, -0.2529022, -0.26595986, 2.120964, 0.35092354, 0
392, 1570209858, 0.94968665, 0.13990119, 0.12242901, -0.25216553, -0.63588107, 1.8588399, 0.23289204, 0
394, 1570243192, 0.9500818, 0.13992207, 0.12341823, -0.25017527, -0.83623403, 2.5486655, 0.17583561, 0
395, 1570259859, 0.95047355, 0.13980012, 0.12357133, -0.24867567, -0.61210865, 2.5749578, 1.2289438, 0
396, 1570276526, 0.9505991, 0.14030492, 0.12459847, -0.2473957, -0.4260223, 2.594058, 1.0071373, 0
398, 1570309860, 0.9500084, 0.14197053, 0.12935239, -0.24627239, -0.49456164, 3.5603385, -0.80542564, 0
399, 1570326527, 0.9496814, 0.14242297, 0.13242, -0.24564159, -0.54072076, 4.4814515, -1.1400232, 0
400, 1570343194, 0.94941753, 0.14276397, 0.13564652, -0.24470115, -0.75141984, 4.248784, 1.3143082, 0
402, 1570376528, 0.9484596, 0.14421566, 0.14268021, -0.24356174, -1.0908657, 3.077279, 1.087472, 0
405, 1570426529, 0.94756794, 0.14673302, 0.14784808, -0.24244395, 0.58227295, 3.85502, -1.6555843, 0
406, 1570443196, 0.9474178, 0.14824425, 0.14840554, -0.24177006, 0.86006737, 2.6702468, -1.2544384, 0
407, 1570459863, 0.9476992, 0.15088576, 0.14741202, -0.23963112, 2.0091348, 0.6798769, 1.7818613, 0
409, 1570493197, 0.94807327, 0.15767638, 0.14504018, -0.2351858, 0.09212846, 2.0368137, 0.2965088, 0
410, 1570509864, 0.9478922, 0.1616196, 0.14475235, -0.23340982, 0.3146906, 0.84674585, 0.38745594, 0
411, 1570526531, 0.9478402, 0.16530225, 0.14373438, -0.2316637, 0.050158765, 0.74923545, -1.80863, 0
413, 1570559865, 0.94773597, 0.16973235, 0.14094256, -0.2306003, 0.1964001, -0.8021168, 1.8972397, 0
414, 1570576532, 0.94800603, 0.17105277, 0.13810688, -0.23023069, -1.1114678, 1.9425138, -0.59319687, 0
415, 1570593199, 0.9478015, 0.1726629, 0.13718536, -0.23042122, 0.79503894, -1.2046026, -0.67297554, 0
417, 1570626533, 0.9482446, 0.1741686, 0.13185382, -0.23057812, 0.72442436, 0.36979124, 0.2099247, 0
419, 1570659867, 0.94846845, 0.1745261, 0.12768388, -0.23173079, 0.95429647, -1.0793566, 2.4642467, 0
421, 1570693201, 0.9481052, 0.17538628, 0.12574758, -0.23361856, 0.7633019, -1.6674875, 1.3170424, 0
422, 1570709868, 0.94793, 0.17617029, 0.12484376, -0.23422363, 0.16275576, -1.3518442, 2.023161, 0
423, 1570726535, 0.9477818, 0.17659667, 0.124431334, -0.234721, 0.09632, -1.2389638, 1.1068239, 0
425, 1570759869, 0.9478575, 0.17657791, 0.12376733, -0.23478112, -1.1320424, -2.49496, 0.52102184, 0
426, 1570776536, 0.94805825, 0.17628661, 0.12341355, -0.23437488, -0.71115696, -3.183771, 0.9634304, 0
427, 1570793203, 0.94814676, 0.17604667, 0.12361186, -0.23409262, -0.01793088, -3.0539072, -0.24711704, 0
429, 1570826537, 0.94845843, 0.17483105, 0.12416677, -0.23344666, -0.20250006, -1.6167045, -0.60643864, 0
430, 1570843204, 0.948796, 0.1736049, 0.12390086, -0.23313078, -0.16808152, -1.5111253, 0.87483406, 0
432, 1570876538, 0.9493129, 0.17116575, 0.12408294, -0.2327331, -0.41444442, -2.1014707, 0.9489145, 0
434, 1570909872, 0.9498314, 0.16799448, 0.12431237, -0.23280597, 0.4529175, -0.31237772, 0.36529922, 0
436, 1570943206, 0.95060515, 0.16337277, 0.12414358, -0.23302674, 0.9905133, 0.46224236, 0.66954136, 0
437, 1570959873, 0.9508573, 0.16154978, 0.12419216, -0.23324317, 0.023872992, -0.25981498, -0.052269936, 0
438, 1570976540, 0.9509076, 0.16066077, 0.12490651, -0.2332702, 0.36596704, -0.8013578, 0.06972122, 0
440, 1571009874, 0.9512774, 0.1582006, 0.12567256, -0.23303244, -0.7658906, 0.79865, 0.25604057, 0
441, 1571026541, 0.9513992, 0.15729423, 0.12613773, -0.23289725, -1.3504119, 0.6217071, 0.019223213, 0
442, 1571043208, 0.9515843, 0.1563797, 0.12641086, -0.23260877, -1.0589306, 1.3546572, -0.5774374, 0
444, 1571076542, 0.95203894, 0.15422136, 0.12642603, -0.23218048, -0.781898, 0.66045654, 0.80547047, 0
445, 1571093209, 0.9522964, 0.15307836, 0.12629443, -0.2319532, -0.35623127, 1.0435761, 0.87124825, 0
446, 1571109876, 0.95250434, 0.15212071, 0.12629455, -0.2317287, 0.485724, 0.82182395, 0.2824316, 0
448, 1571143210, 0.95281965, 0.15036641, 0.12638128, -0.23152989, 0.14676754, 2.0284257, 0.32279682, 0
449, 1571159877, 0.95293677, 0.14954945, 0.12634626, -0.2315968, -0.89573264, 1.8653613, 0.68849945, 0
450, 1571176544, 0.9530102, 0.14905222, 0.12639287, -0.23158935, -0.86306846, 1.3357401, 0.5981016, 0
452, 1571209878, 0.952986, 0.1485883, 0.1266666, -0.23183733, 0.29591328, 1.2406161, 1.0883942, 0
453, 1571226545, 0.9529159, 0.1484655, 0.12689894, -0.23207724, -0.08127087, 2.2794383, -0.52732563, 0
454, 1571243212, 0.9527474, 0.14857078, 0.12746155, -0.23239246, -0.026373522, 2.15706, -0.3951578, 0
456, 1571276546, 0.9527442, 0.14838515, 0.1272826, -0.23262244, -1.0793924, 2.1671338, 0.81478405, 0
457, 1571293213, 0.95266706, 0.14849418, 0.12758645, -0.23270255, -0.43016118, 1.4822526, 1.1508493, 0
459, 1571326547, 0.9525046, 0.14902523, 0.12809443, -0.23274916, -0.22716248, 1.8551759, 0.74753284, 0
461, 1571359881, 0.9526207, 0.15043718, 0.12784377, -0.23149997, 2.0897207E-5, 1.0500339, 1.1382542, 0
463, 1571393215, 0.9523835, 0.15421736, 0.12835102, -0.22970092, -0.30657977, 0.93151337, 0.34611607, 0
464, 1571409882, 0.9523938, 0.15528814, 0.12856844, -0.2288135, -0.4006767, 1.3977553, 1.3363256, 0
465, 1571426549, 0.9524441, 0.15568063, 0.12869579, -0.22826499, -0.4697317, 2.3283527, 1.0700178, 0
467, 1571459883, 0.95240223, 0.15647098, 0.1294987, -0.22744405, -0.14916104, 1.8164005, 0.33712864, 0
468, 1571476550, 0.9524313, 0.15687539, 0.1294944, -0.22704595, 0.527561, 1.6056163, 1.1138821, 0
469, 1571493217, 0.9522744, 0.15780325, 0.12980168, -0.22688547, 0.4281299, 1.6587013, 1.5027819, 0
471, 1571526551, 0.9515835, 0.1605918, 0.13106856, -0.22709891, 0.23505718, 3.4481769, -0.21180248, 0
472, 1571543218, 0.9512855, 0.16171594, 0.1314256, -0.22734338, -0.038296264, 4.4242525, -1.5928869, 0
473, 1571559885, 0.95100605, 0.1626459, 0.13160676, -0.2277439, 0.018193172, 2.6845129, -0.08686638, 0
476, 1571609886, 0.9489111, 0.16770706, 0.13530152, -0.23062831, -0.584768, 4.0936184, 1.1250677, 0
477, 1571626553, 0.9479517, 0.17009008, 0.13685133, -0.23191077, -0.13859993, 5.1535044, -1.1376104, 0
479, 1571659887, 0.9461354, 0.17293543, 0.14024356, -0.23517352, 0.049894128, 2.8038466, 3.4659624, 0
480, 1571676554, 0.9445237, 0.17336091, 0.14446066, -0.23875901, 0.1749323, 3.7492976, -1.5204954, 0
481, 1571693221, 0.94044846, 0.17228845, 0.14908125, -0.252393, 1.4531957, 1.9510303, 0.3625021, 0
483, 1571726555, 0.9353343, 0.16519472, 0.14744365, -0.27599788, -1.7181499, 5.3255677, -0.6045437, 0
484, 1571743222, 0.93516827, 0.16425994, 0.14721644, -0.2772368, 7.0235353, -6.357912, -4.9414883, 0
486, 1571776556, 0.93700504, 0.16954848, 0.13367464, -0.27469987, 4.2988772, -3.2050288, -0.328063, 0
487, 1571793223, 0.9380016, 0.16985096, 0.1282652, -0.27368942, -0.49147862, 0.7518413, 0.8370714, 0
488, 1571809890, 0.9373946, 0.17199336, 0.12841253, -0.27436092, -2.0992749, 0.09304938, 0.70965767, 0
491, 1571859891, 0.93657863, 0.17271712, 0.12752283, -0.27709448, 0.21179697, -2.7461798, -1.9615993, 0
492, 1571876558, 0.9372591, 0.16928367, 0.123853974, -0.27857238, -0.103531204, 2.03368, 12.359783, 0
494, 1571909892, 0.93665886, 0.16597776, 0.12357872, -0.28267333, 1.8498566, -8.610835, -2.3406343, 0
495, 1571926559, 0.9364501, 0.16457361, 0.12412553, -0.28394344, 1.0268492, -3.8544142, -6.0056505, 0
496, 1571943226, 0.9368285, 0.16170895, 0.12232766, -0.28511915, -0.4997904, -0.3211125, 3.211731, 0
498, 1571976560, 0.936857, 0.15994287, 0.120983705, -0.28659075, -0.63322246, -4.4201484, 0.25148773, 0
499, 1571993227, 0.93723476, 0.16023883, 0.11999019, -0.28560606, -0.8038315, -4.0053277, -0.47447968, 0
500, 1572009894, 0.93785274, 0.1605799, 0.11846717, -0.28401756, -0.3531993, -1.9165498, 1.0930939, 0
502, 1572043228, 0.93878776, 0.16264088, 0.11777875, -0.280014, -2.6344113, -3.126312, 0.2846489, 0
503, 1572059895, 0.9394187, 0.1635039, 0.11802583, -0.27727804, -2.2394712, -2.1057909, -0.2652521, 0
506, 1572109896, 0.9414271, 0.16431871, 0.12018907, -0.26892927, -2.3284423, -1.4824959, 1.095541, 0
507, 1572126563, 0.9423422, 0.16368037, 0.12012182, -0.26612926, -2.4320478, 1.020532, 0.43614292, 0
508, 1572143230, 0.94308305, 0.1639037, 0.12031136, -0.26326668, -1.2387961, 1.138794, 0.22332764, 0
510, 1572176564, 0.9445319, 0.16398448, 0.11977793, -0.25821707, 0.25129035, 1.8922083, -0.7161083, 0
511, 1572193231, 0.9451904, 0.163858, 0.11969328, -0.25591624, 0.13885273, -1.9999484, 3.1309195, 0
513, 1572226565, 0.94581074, 0.16494846, 0.12113747, -0.25221816, 1.5573269, 0.053276617, 1.6556149, 0
514, 1572243232, 0.94577444, 0.16611865, 0.122061506, -0.25113833, 0.4280158, 2.1461494, -2.8471775, 0
515, 1572259899, 0.94586843, 0.16705826, 0.12262538, -0.24988294, -0.41780847, 3.8701766, -3.749689, 0
517, 1572293233, 0.9466362, 0.16678199, 0.121442996, -0.24772829, -0.3803018, -0.89742345, 2.50844, 0
518, 1572309900, 0.946733, 0.16620295, 0.12138378, -0.24777701, 1.0985153, -1.0779707, 2.5690203, 0
519, 1572326567, 0.9466548, 0.16603023, 0.12165919, -0.24805632, 1.8041711, 0.5392589, -0.5188532, 0
521, 1572359901, 0.94638944, 0.16739398, 0.12235103, -0.2478118, 0.67431134, 1.8943948, 0.17318344, 0
522, 1572376568, 0.94630873, 0.16832764, 0.12150155, -0.2479051, -1.228221, 1.0298692, 0.45388508, 0
523, 1572393235, 0.94602835, 0.1699405, 0.12102696, -0.24810722, -1.2841859, 0.72180945, -0.2284956, 0
525, 1572426569, 0.9459986, 0.17184697, 0.11830543, -0.24821979, 0.53753996, 1.9368864, 0.60890007, 0
526, 1572443236, 0.94589, 0.17288865, 0.11689733, -0.24857706, 0.7101731, 2.2309432, -0.51328564, 0
527, 1572459903, 0.94568264, 0.1737788, 0.11591167, -0.24920663, 0.5138969, -1.0854508, 0.99268436, 0
529, 1572493237, 0.94545853, 0.1740628, 0.1155273, -0.25003552, 0.27724054, -0.75260705, 0.20662117, 0
530, 1572509904, 0.9452121, 0.17423105, 0.11575209, -0.25074482, 0.6841527, 1.0335698, -0.91787624, 0
533, 1572559905, 0.94460404, 0.17408562, 0.114120506, -0.25386646, 0.7498479, 0.5748008, 1.1023102, 0
534, 1572576572, 0.9442086, 0.17499867, 0.11409309, -0.25472012, 1.6421751, -1.3325491, 0.3865986, 0
535, 1572593239, 0.94376385, 0.17535383, 0.11413737, -0.25610065, 1.3380979, -1.1994771, 1.0500784, 0
537, 1572626573, 0.942888, 0.17609696, 0.11424767, -0.2587536, -0.20098375, 1.2943282, -0.2725191, 0
538, 1572643240, 0.94270515, 0.17547111, 0.11346686, -0.26018476, 0.51240325, 1.2316334, 1.2665195, 0
540, 1572676574, 0.94197226, 0.17463459, 0.11193178, -0.26403898, 1.000854, 0.07815348, 1.5227623, 0
541, 1572693241, 0.941517, 0.17501101, 0.11141931, -0.2656253, 1.6390058, 1.6450928, -0.3079281, 0
542, 1572709908, 0.94080615, 0.17583762, 0.11185069, -0.26741052, 1.8984915, -0.05023357, 0.11374283, 0
544, 1572743242, 0.93947494, 0.17683709, 0.11254514, -0.2711146, -0.746659, 2.0796146, 1.2722254, 0
545, 1572759909, 0.9388784, 0.17811581, 0.11215576, -0.27250177, -0.12554455, 3.5754187, -0.83797073, 0
548, 1572809910, 0.9370914, 0.18076521, 0.11141663, -0.2771712, -0.1931647, 5.168721, -0.9390793, 0
549, 1572826577, 0.9364688, 0.18124804, 0.111979194, -0.27872932, -0.72776926, 4.0484705, -0.4185505, 0
550, 1572843244, 0.9358766, 0.18143927, 0.11255418, -0.28035757, -0.41579646, 1.6404799, 1.4456482, 0
552, 1572876578, 0.93488985, 0.18082611, 0.114383295, -0.2832903, -0.30952844, 3.1175718, 1.0781898, 0
553, 1572893245, 0.93458176, 0.18062033, 0.115090966, -0.28415015, -0.68158174, 5.834539, 0.007419586, 0
554, 1572909912, 0.9340886, 0.18095288, 0.11688078, -0.28482836, -1.1984674, 6.161112, -2.7671824, 0
556, 1572943246, 0.93417203, 0.17962475, 0.118211016, -0.28484657, -1.5792495, 2.7122657, 1.6019964, 0
557, 1572959913, 0.93456936, 0.17876284, 0.118322134, -0.28403834, -0.94151527, 2.6168785, 2.8505716, 0
558, 1572976580, 0.9347913, 0.17874959, 0.11906387, -0.28300446, -0.4254645, 3.6359985, 2.3961344, 0
560, 1573009914, 0.9344181, 0.18085378, 0.12302087, -0.28120157, -1.3163733, 4.2376676, -1.5494184, 0
563, 1573059915, 0.93441236, 0.18454736, 0.12717295, -0.276942, 0.47293586, -0.3182075, 0.9313841, 0
564, 1573076582, 0.93484116, 0.18447253, 0.12666476, -0.27577448, 0.24597041, -0.6045845, 1.7923822, 0
565, 1573093249, 0.9352076, 0.18412393, 0.12599383, -0.2750717, -0.71454334, 0.5426454, -1.8766952, 0
567, 1573126583, 0.9358902, 0.18220389, 0.123994015, -0.27493775, 1.2820679, -1.0246016, -2.1050124, 0
568, 1573143250, 0.9362318, 0.18208589, 0.121951826, -0.2747662, 2.1412377, 0.562806, 0.2611885, 0
569, 1573159917, 0.9361295, 0.18293451, 0.12132804, -0.27482703, 3.348159, -4.879185, 1.2478609, 0
571, 1573193251, 0.936073, 0.18448102, 0.1192964, -0.27487513, 2.0219648, -5.043346, 1.7192497, 0
572, 1573209918, 0.93612915, 0.18436812, 0.118006274, -0.2753162, 0.70832115, -2.9016147, 1.4993391, 0
573, 1573226585, 0.9360008, 0.18431702, 0.117115, -0.2761661, 0.8975198, -2.033976, 2.0846033, 0
575, 1573259919, 0.93492365, 0.18571553, 0.11687033, -0.2789672, 3.0319057, -4.2604427, 1.0712948, 0
577, 1573293253, 0.93417716, 0.18428326, 0.11578533, -0.28284326, -0.38399994, -3.6050653, 0.42259312, 0
579, 1573326587, 0.9338558, 0.1827865, 0.11498349, -0.28519323, 0.7805386, -1.8156431, 1.4659538, 0
580, 1573343254, 0.93345344, 0.18255651, 0.11499788, -0.2866484, 1.9184736, -2.1568496, -1.4156256, 0
581, 1573359921, 0.9333465, 0.18186717, 0.1143101, -0.28770775, 0.8070755, -2.106012, -1.3500662, 0
583, 1573393255, 0.93322766, 0.18048282, 0.11299835, -0.2894775, 0.6234895, -2.0888548, 1.7684011, 0
584, 1573409922, 0.933054, 0.179813, 0.11280848, -0.29052666, -0.26913843, -1.1683683, -0.45303345, 0
585, 1573426589, 0.93281657, 0.17948574, 0.112877056, -0.29146308, -0.78461766, -1.9825637, 1.0032444, 0
587, 1573459923, 0.933089, 0.17614645, 0.11151032, -0.2931499, -0.9547025, -0.1395516, -0.45492744, 0
588, 1573476590, 0.93348444, 0.1735322, 0.11091258, -0.29367605, -1.1434939, -0.31667003, -0.011346817, 0
589, 1573493257, 0.93379724, 0.17142832, 0.11083832, -0.29394513, -0.9649255, -1.2901111, 0.1262312, 0
591, 1573526591, 0.93453753, 0.16759889, 0.110265866, -0.2940161, -0.3098179, -0.1506809, 0.48984814, 0
592, 1573543258, 0.93482375, 0.1665504, 0.11028532, -0.29369482, -0.38077635, -0.4371205, 1.1106558, 0
594, 1573576592, 0.93558574, 0.16507685, 0.11053913, -0.29199904, -0.63575935, 4.987412E-4, -1.4976635, 0
595, 1573593259, 0.93612844, 0.16324686, 0.11080198, -0.2911883, -0.62006694, 0.19033358, 0.7630644, 0
596, 1573609926, 0.93679404, 0.16126773, 0.11048976, -0.29026824, -1.4377503, 0.8667423, -0.16111279, 0
598, 1573643260, 0.9377372, 0.1586457, 0.110994354, -0.2884691, -0.627847, 0.053564984, 0.4774351, 0
599, 1573659927, 0.93830216, 0.1569688, 0.11080572, -0.2876206, -0.31564823, 0.089985356, 0.13314629, 0
600, 1573676594, 0.93888307, 0.15591547, 0.11063677, -0.2863604, -0.9364798, 2.2487147, -0.6307249, 0
602, 1573709928, 0.9397359, 0.15526006, 0.11129809, -0.28365013, -1.076568, -0.35023722, -0.0015478134, 0
604, 1573743262, 0.9408072, 0.15499058, 0.11175444, -0.28004387, -1.4864875, 1.5392939, 0.19168282, 0
606, 1573776596, 0.9418357, 0.15487324, 0.11204585, -0.27651292, -0.40265357, 1.5426549, -0.50781727, 0
607, 1573793263, 0.9422149, 0.15470582, 0.11263051, -0.2750737, 0.1952997, 0.34768447, 0.86761475, 0
608, 1573809930, 0.942814, 0.1538446, 0.11190994, -0.27379513, -0.21149924, 1.8228952, 1.7308903, 0
610, 1573843264, 0.9431882, 0.15394875, 0.11298989, -0.27199826, 0.7406327, -0.036523346, -0.1322298, 0
611, 1573859931, 0.943591, 0.15282102, 0.11247213, -0.2714506, -0.2329024, 1.6556938, 1.2731352, 0
612, 1573876598, 0.94374335, 0.1522232, 0.112667896, -0.2711759, -0.7874993, 3.5742157, -0.8392582, 0
614, 1573909932, 0.94369066, 0.15183859, 0.1134152, -0.27126342, -0.010704148, 1.0791963, 0.5138998, 0
615, 1573926599, 0.943833, 0.1515207, 0.11300927, -0.27111575, 0.72639525, 2.215966, 1.3099079, 0
616, 1573943266, 0.94376016, 0.15187243, 0.11315421, -0.27111143, 0.29549754, 2.5702357, -0.33180046, 0
619, 1573993267, 0.9435612, 0.15442535, 0.113088526, -0.27038866, -0.39986792, -0.65655434, 1.2657223, 0
621, 1574026601, 0.9433858, 0.1576802, 0.11268841, -0.26928702, -0.23305048, 0.81111544, 0.8593931, 0
622, 1574043268, 0.9431728, 0.15998892, 0.11238963, -0.26879597, 0.42767182, 0.9510597, 0.6566658, 0
623, 1574059935, 0.9430003, 0.16143249, 0.11215146, -0.26863712, 0.62082076, 2.3977313, -0.027620316, 0
625, 1574093269, 0.94279814, 0.16279027, 0.11205791, -0.26856628, 0.57861733, 0.39063218, 0.67970276, 0
626, 1574109936, 0.94248784, 0.16370624, 0.11266775, -0.26884383, 1.0351468, 1.1522728, 0.88809204, 0
627, 1574126603, 0.94197476, 0.16483946, 0.113909245, -0.26942578, 0.43514922, 2.7905946, 0.6143484, 0
629, 1574159937, 0.9403718, 0.16918465, 0.117645144, -0.27072316, -0.5620163, 4.133329, -2.2309408, 0
630, 1574176604, 0.9400594, 0.16993262, 0.117532656, -0.2713878, -0.3670152, 2.344931, -0.41323185, 0
631, 1574193271, 0.9402547, 0.16956675, 0.116042085, -0.2715815, -0.88834506, 4.357072, 1.174573, 0
634, 1574243272, 0.9388453, 0.17099155, 0.11889603, -0.2743163, 1.3285575, 2.6642528, 1.4565697, 0
635, 1574259939, 0.9384725, 0.17108627, 0.11951131, -0.27526337, 0.2367266, 5.510287, -1.1538572, 0
637, 1574293273, 0.93793905, 0.17054945, 0.12042055, -0.27701327, 0.075583026, 2.1515172, 2.6627064, 0
638, 1574309940, 0.9376997, 0.17001638, 0.12100825, -0.27789313, 0.4449321, 3.808777, -1.9751487, 0
639, 1574326607, 0.9368848, 0.17015998, 0.123870015, -0.2792892, 1.2957672, -1.467098, -0.79568386, 0
641, 1574359941, 0.93787616, 0.16642646, 0.11933699, -0.2801838, 0.24056956, 8.225462, 2.2044134, 0
642, 1574376608, 0.9371868, 0.16730946, 0.120383844, -0.28151393, 0.65459746, 1.216725, -2.5959678, 0
643, 1574393275, 0.9369958, 0.1677363, 0.1194351, -0.28229862, 2.6077032, -3.5608873, -2.5058775, 0
645, 1574426609, 0.9379133, 0.16650459, 0.11372949, -0.28233746, 0.63936013, -1.9943218, 0.020148277, 0
646, 1574443276, 0.93812287, 0.1669698, 0.1118515, -0.28211617, 0.39539173, -2.4893909, 0.5913515, 0
649, 1574493277, 0.93793, 0.16959572, 0.11001766, -0.28191245, -1.6699473, -4.7178254, -1.1841717, 0
650, 1574509944, 0.93786764, 0.17089753, 0.109506354, -0.28153235, -2.2318804, -6.2914243, 2.101797, 0
652, 1574543278, 0.93820494, 0.1733377, 0.10849917, -0.27929795, -0.3913418, -4.231262, 1.496254, 0
653, 1574559945, 0.9385197, 0.17352211, 0.10852509, -0.27811307, -1.6205584, -6.1193786, 0.8554468, 0
654, 1574576612, 0.9392475, 0.17281504, 0.10817121, -0.27622798, -2.0359957, -5.33585, 4.4020367, 0
656, 1574609946, 0.9406389, 0.17133488, 0.10848304, -0.272265, -0.4735237, -3.766312, 0.0670023, 0
657, 1574626613, 0.9411541, 0.1713711, 0.10906602, -0.27022088, 0.06087761, -2.214637, -4.491218, 0
658, 1574643280, 0.94178665, 0.17114687, 0.10884405, -0.26824173, 0.07014485, -2.2447162, -1.1904497, 0
660, 1574676614, 0.94281507, 0.16931386, 0.11031499, -0.26517367, 0.087395914, -6.135748, -0.17148018, 0
661, 1574693281, 0.94354016, 0.16705905, 0.11019874, -0.26407114, -0.1630764, -2.0935645, 3.5600986, 0
662, 1574709948, 0.9439064, 0.16595684, 0.11080337, -0.26320255, 0.018260784, -1.1598129, 1.7356567, 0
664, 1574743282, 0.9445586, 0.16486783, 0.11263315, -0.2607591, -0.6724004, -1.9779881, -1.8512268, 0
665, 1574759949, 0.9451437, 0.16405718, 0.11254606, -0.2591836, -1.0184159, -0.057609983, -0.29170895, 0
666, 1574776616, 0.94550544, 0.1640791, 0.11295887, -0.25766614, -1.5418372, 0.36782774, 0.117144585, 0
668, 1574809950, 0.9461808, 0.16536544, 0.11332009, -0.25418237, -0.77466685, -0.29688737, 0.34522915, 0
669, 1574826617, 0.94648373, 0.16628572, 0.11370942, -0.25227264, -0.62951666, -0.9006898, 0.19007301, 0
670, 1574843284, 0.94668984, 0.1673778, 0.11395444, -0.2506612, -0.87962574, 0.11542015, 0.8289814, 0
672, 1574876618, 0.94681245, 0.1696213, 0.11541226, -0.24800959, 1.2741593, -0.20591469, 1.28967, 0
673, 1574893285, 0.94692194, 0.16994755, 0.11613375, -0.24702954, 0.8570108, 0.95501363, -0.22244835, 0
676, 1574943286, 0.94723463, 0.16865018, 0.11744018, -0.24610046, 0.96743524, 0.5689237, -0.73975086, 0
677, 1574959953, 0.947462, 0.16701984, 0.11714362, -0.24647781, 0.45199284, 0.33971894, 0.45866585, 0
679, 1574993287, 0.94754744, 0.16555884, 0.11658985, -0.24739599, 0.48119634, 1.8038075, 0.5249853, 0
680, 1575009954, 0.9473761, 0.16579105, 0.11689937, -0.2477504, 0.89143384, 1.3560735, 0.051077843, 0
681, 1575026621, 0.94717145, 0.16674152, 0.11698047, -0.24785694, 0.5554699, 1.8286064, -0.9369621, 0
683, 1575059955, 0.94709027, 0.16890296, 0.11633828, -0.24700427, -1.5296541, 0.44316176, 0.15267563, 0
684, 1575076622, 0.9469739, 0.17038858, 0.11593329, -0.24661997, -0.82777756, 0.9162347, 1.1765766, 0
685, 1575093289, 0.9468347, 0.17141962, 0.11573444, -0.24653354, 0.33090734, 0.7643673, -0.37536335, 0
687, 1575126623, 0.94643456, 0.1731694, 0.11515055, -0.2471196, 0.73066676, 4.0828495, -1.6379309, 0
688, 1575143290, 0.9460564, 0.17349845, 0.115332395, -0.24824953, 1.0909485, 0.90188825, 1.1585255, 0
691, 1575193291, 0.94495434, 0.17232081, 0.11439869, -0.25364032, 1.0862898, 1.0056062, 0.6210289, 0
692, 1575209958, 0.9444204, 0.17208806, 0.114555046, -0.2557082, 1.3718938, 0.7063353, 0.90491104, 0
693, 1575226625, 0.9441756, 0.17134717, 0.113999605, -0.25735253, 0.9054189, 2.4392347, 0.7454281, 0
695, 1575259959, 0.9435896, 0.17053984, 0.11350779, -0.26023966, -0.23707773, 1.4910368, 0.5423784, 0
696, 1575276626, 0.9434084, 0.17001721, 0.11348978, -0.2612442, -0.9737516, -0.25670496, -0.061998367, 0
697, 1575293293, 0.94333464, 0.16963665, 0.113258585, -0.26185775, -0.7255008, -1.0666411, 1.9775925, 0
699, 1575326627, 0.9434074, 0.16920796, 0.11276032, -0.2620882, -0.19812614, 0.25965294, 0.013394356, 0
700, 1575343294, 0.94328773, 0.16969681, 0.11275436, -0.26220578, -0.24526937, 1.3044593, -0.3055029, 0
702, 1575376628, 0.94306177, 0.17286813, 0.11176451, -0.26136875, 0.76247185, 0.9086419, 0.17328167, 0
703, 1575393295, 0.9428875, 0.17399414, 0.11182167, -0.261226, 1.4165338, -0.29895625, 0.4214115, 0
706, 1575443296, 0.9419601, 0.17864467, 0.11281361, -0.261006, -0.18647586, 2.6202843, -0.5479746, 0
707, 1575459963, 0.9412245, 0.18148655, 0.11376278, -0.26128754, 0.49023902, 2.5186157, -1.0538797, 0
708, 1575476630, 0.9406513, 0.18348476, 0.113987125, -0.26185763, 0.31781486, 1.8742641, 0.6858454, 0
710, 1575509964, 0.93931377, 0.18794046, 0.11469557, -0.26318586, 1.6529702, 2.1191082, 0.47480488, 0
711, 1575526631, 0.93831855, 0.19037077, 0.11627981, -0.26429185, 1.7443756, 1.1388417, 2.8058882, 0
712, 1575543298, 0.9374854, 0.191802, 0.11708185, -0.26585492, -0.053492013, 4.518269, -0.73850155, 0
714, 1575576632, 0.93580663, 0.1941217, 0.1186421, -0.26937056, 1.036765, 2.598982, 1.5985069, 0
715, 1575593299, 0.935376, 0.19334903, 0.118803225, -0.27134386, 1.9565585, 2.7945576, 2.3827343, 0
716, 1575609966, 0.9344193, 0.19292869, 0.12055091, -0.27415428, 1.6956336, 0.09251676, 1.3707342, 0
718, 1575643300, 0.9330584, 0.19153683, 0.12265449, -0.27879268, 0.9827116, 5.5453205, -1.7075605, 0
720, 1575676634, 0.9321664, 0.18913989, 0.12275433, -0.2833326, 2.3687446, 4.11005, 2.922945, 0
722, 1575709968, 0.9304887, 0.18922225, 0.12504892, -0.28775406, 1.3270175, 2.2723002, -1.0951376, 0
723, 1575726635, 0.9299042, 0.19037578, 0.12475874, -0.28900588, 1.9582258, 1.7679161, -4.1689563, 0
724, 1575743302, 0.92976046, 0.19145608, 0.12254166, -0.28970242, 0.43626168, 0.50014913, -3.481114, 0
726, 1575776636, 0.9300335, 0.19467402, 0.11649909, -0.28917396, -0.90318286, -3.0653212, 0.5905771, 0
727, 1575793303, 0.9299798, 0.19748838, 0.114878, -0.28808448, 0.5336363, -6.753287, 0.6466303, 0
729, 1575826637, 0.93063784, 0.20018178, 0.10933293, -0.28625256, -1.2977422, -1.8971434, 0.57923317, 0
730, 1575843304, 0.93078387, 0.20103139, 0.108129546, -0.28563914, 0.21857533, -3.7931588, 0.7230272, 0
731, 1575859971, 0.9308244, 0.20104602, 0.10721807, -0.2858403, 1.3949503, -4.319597, 0.35889816, 0
733, 1575893305, 0.9308256, 0.19832419, 0.105197236, -0.28847623, 1.3293806, -6.077448, 4.4016504, 0
734, 1575909972, 0.9308698, 0.19603938, 0.105156906, -0.28990626, 1.5543746, -8.670124, 0.9937582, 0
735, 1575926639, 0.9310419, 0.19240043, 0.10658315, -0.29126814, 1.7182248, -7.255242, -4.666553, 0
737, 1575959973, 0.93268716, 0.18229687, 0.10426664, -0.29333425, 0.5921556, 3.0654955, 3.9490328, 0
738, 1575976640, 0.9324701, 0.1813211, 0.105166204, -0.29430622, 1.1646599, -4.775958, -0.01829052, 0
739, 1575993307, 0.9323431, 0.18124321, 0.10670232, -0.29420358, 0.006009928, -7.955586, -2.9248376, 0
741, 1576026641, 0.9330347, 0.17981884, 0.10631742, -0.29302198, -2.9407592, 0.25952944, -0.903615, 0
742, 1576043308, 0.9331212, 0.18000385, 0.107184276, -0.29231647, -3.6037385, -1.6514834, -1.0999193, 0
743, 1576059975, 0.93343484, 0.17997742, 0.10775013, -0.29112113, -2.5637176, -0.696604, -0.4199505, 0
745, 1576093309, 0.9341386, 0.1785074, 0.108168185, -0.28960958, -0.18177962, 1.2788858, 2.128274, 0
747, 1576126643, 0.9345802, 0.17647378, 0.10951725, -0.28892398, 0.68078774, -0.8519245, 1.209938, 0
749, 1576159977, 0.9350834, 0.1735343, 0.10971525, -0.2890012, 1.4408014, 2.7749655, 0.42334843, 0
750, 1576176644, 0.93515, 0.17305422, 0.1093031, -0.28922933, -0.42034099, 3.185297, -3.630021, 0
753, 1576226645, 0.93634725, 0.16703762, 0.10651593, -0.28993213, 0.46530828, -2.772036, 4.258067, 0
754, 1576243312, 0.9365353, 0.16393498, 0.10655396, -0.29107946, -0.17090762, -0.0045830007, 1.5198364, 0
756, 1576276646, 0.9369951, 0.15867163, 0.106999926, -0.29235014, -0.09239958, 2.4044418, -0.47781754, 0
757, 1576293313, 0.937412, 0.15604548, 0.106805705, -0.29249787, -0.8745967, 1.714739, -0.41134262, 0
758, 1576309980, 0.9376745, 0.15392904, 0.10732489, -0.29258788, -1.8457794, -1.7632128, 0.11904621, 0
760, 1576343314, 0.93871486, 0.14981566, 0.10671641, -0.2916083, -1.7330536, 1.7439884, 2.5265522, 0
761, 1576359981, 0.93902147, 0.14906615, 0.107261166, -0.29080418, -0.5914097, 3.5097318, -2.0777116, 0
764, 1576409982, 0.9401953, 0.14836131, 0.10828312, -0.28696772, -1.5500705, -1.5158842, 0.98605156, 0
765, 1576426649, 0.9405098, 0.14857364, 0.1092043, -0.28547442, -2.1643863, -0.59843004, -0.5081587, 0
766, 1576443316, 0.9409148, 0.14890216, 0.10974312, -0.28375697, -1.8870813, 0.45758176, 0.4512806, 0
768, 1576476650, 0.9419065, 0.14951746, 0.10986531, -0.28007224, -0.8162655, 0.7907712, 1.199256, 0
769, 1576493317, 0.9422983, 0.15050529, 0.11015926, -0.2781029, -1.1412653, 0.9416424, 0.031960487, 0
770, 1576509984, 0.9426331, 0.15151173, 0.11085355, -0.27613872, -0.845437, -1.0347472, 1.0416765, 0
772, 1576543318, 0.9434651, 0.15320343, 0.11147156, -0.27208537, -1.1829575, 2.2799606, 0.15079784, 0
773, 1576559985, 0.94385874, 0.15394294, 0.11166531, -0.2702171, -0.42559877, 2.960955, -2.238865, 0
774, 1576576652, 0.9441291, 0.15459985, 0.11219945, -0.26867175, -0.13665168, 1.022087, 0.23711014, 0
776, 1576609986, 0.94502604, 0.155136, 0.11216564, -0.26520103, 0.0588228, -0.011802099, 1.9830875, 0
778, 1576643320, 0.9452337, 0.15587205, 0.11305922, -0.26364553, 0.9534294, 1.8498449, -0.6151056, 0
780, 1576676654, 0.94525975, 0.15723376, 0.11405518, -0.2623113, 0.40620065, 2.0036912, -0.32624245, 0
781, 1576693321, 0.94544315, 0.15731272, 0.11335017, -0.26190817, -0.32118118, 1.3116802, 1.5959682, 0
783, 1576726655, 0.9452723, 0.15884534, 0.11275592, -0.2618564, -0.5020177, 1.7052522, 0.2436924, 0
784, 1576743322, 0.9449053, 0.16062617, 0.11341194, -0.26181123, 0.9094088, -0.28098473, 2.400281, 0
785, 1576759989, 0.944471, 0.16266683, 0.11397219, -0.26187503, 0.68619114, 3.1470103, 0.49695873, 0
787, 1576793323, 0.94235873, 0.17055611, 0.11781873, -0.26276127, -0.33017132, 3.6645827, 0.9984808, 0
788, 1576809990, 0.9413303, 0.17503574, 0.118907884, -0.2630106, -1.0577413, 5.0825324, -1.7423439, 0
789, 1576826657, 0.940285, 0.17922851, 0.12031814, -0.2632847, -0.35466912, 2.5636926, -1.9014416, 0
791, 1576859991, 0.939638, 0.18395853, 0.11908997, -0.26289082, -0.566777, 4.6684957, 0.72577, 0
793, 1576893325, 0.93862796, 0.18682586, 0.11901854, -0.26450413, 0.6356901, 5.1782575, -1.5253077, 0
795, 1576926659, 0.9381126, 0.18650436, 0.118522845, -0.2667722, 0.90616524, 3.706119, 2.5518675, 0
796, 1576943326, 0.93764895, 0.18630058, 0.11934251, -0.26817536, 1.4980762, 3.4344769, 3.519308, 0
797, 1576959993, 0.9368478, 0.18682346, 0.12169832, -0.26954913, 1.7663546, 2.7537913, 2.2100315, 0
799, 1576993327, 0.93494916, 0.18821332, 0.12594266, -0.27320045, 1.602193, 3.2825873, -2.9273767, 0
800, 1577009994, 0.93470436, 0.18799405, 0.12436764, -0.2749051, 1.8132447, 1.0726144, 0.059185028, 0
801, 1577026661, 0.9347304, 0.18761441, 0.12084419, -0.27664167, 1.5136648, 2.4069161, -0.54894066, 0
803, 1577059995, 0.93390846, 0.1916802, 0.117521435, -0.27805874, 2.0653746, -3.433337, -1.0970049, 0
804, 1577076662, 0.93388855, 0.19366415, 0.11516059, -0.27773845, 1.8591269, -4.209158, 1.675457, 0
805, 1577093329, 0.9335433, 0.19676737, 0.11353129, -0.27738863, 0.58403164, -6.7755437, -2.2468681, 0
807, 1577126663, 0.93312377, 0.20005262, 0.10914882, -0.27820823, 1.7546299, -4.5732684, 0.51643467, 0
808, 1577143330, 0.9329051, 0.20065327, 0.10734041, -0.27921045, 2.4379728, -6.6078315, 2.716507, 0
810, 1577176664, 0.9318296, 0.20137417, 0.106455475, -0.28260168, 0.9080379, -9.670584, 2.5940828, 0
811, 1577193331, 0.9315778, 0.2004462, 0.105473384, -0.28445375, 1.7546583, -5.5520263, 2.6792479, 0
812, 1577209998, 0.9314115, 0.19917454, 0.104969665, -0.28607306, 2.1235378, -5.6883035, 1.2083635, 0
814, 1577243332, 0.9316244, 0.19622387, 0.10429465, -0.28766155, 0.40384164, -5.344397, -0.4400444, 0
815, 1577259999, 0.9317223, 0.19490056, 0.10410122, -0.28831327, 0.3980502, -4.8393025, 1.4144773, 0
816, 1577276666, 0.9315202, 0.19419868, 0.104547545, -0.2892769, -0.13802429, -4.650216, -0.30684853, 0
818, 1577310000, 0.93139535, 0.19140102, 0.10622331, -0.29092842, 1.015273, -2.2053304, -1.972599, 0
820, 1577343334, 0.9319697, 0.18471971, 0.10706826, -0.29309, -1.6139311, 0.26096675, -0.53338623, 0
822, 1577376668, 0.9323348, 0.17764097, 0.10820533, -0.29587388, 0.03582544, -0.762775, -0.004889488, 0
823, 1577393335, 0.9325775, 0.17430763, 0.10808027, -0.2971349, 0.91881686, -0.6732302, 0.6564665, 0
824, 1577410002, 0.9328744, 0.17151998, 0.108076625, -0.29782534, -0.74109644, 1.3553957, -0.8589792, 0
826, 1577443336, 0.933705, 0.16721928, 0.10790393, -0.29773095, -2.0951107, 0.9908306, 0.35244942, 0
827, 1577460003, 0.9341119, 0.16654956, 0.10816839, -0.29673216, -2.3114197, 0.15996848, 0.46664143, 0
828, 1577476670, 0.93472606, 0.16567704, 0.1082746, -0.29524454, -2.1426418, 0.120727226, 0.85280704, 0
830, 1577510004, 0.93590105, 0.16499433, 0.10879689, -0.29169086, -1.2396709, 1.6897339, 2.7234697, 0
831, 1577526671, 0.9364316, 0.16519761, 0.10941334, -0.28963542, -1.8012857, 3.7978964, -3.0809727, 0
832, 1577543338, 0.93694365, 0.16574933, 0.110016964, -0.28742716, -0.6180112, 0.11882834, 0.09106636, 0
835, 1577593339, 0.93879795, 0.16453719, 0.10908524, -0.28238362, -0.65341747, 1.5772218, -0.26225567, 0
837, 1577626673, 0.939659, 0.16414782, 0.10813115, -0.280104, 0.9056156, 2.5464783, -0.36940384, 0
838, 1577643340, 0.9397031, 0.16500767, 0.1084523, -0.27932522, 1.0830419, 1.9367276, -0.46954823, 0
839, 1577660007, 0.9399041, 0.16469397, 0.108294725, -0.27889472, 0.33248392, 1.4319232, 0.6394234, 0
841, 1577693341, 0.94013834, 0.16533235, 0.107936114, -0.2778652, -0.5506862, 0.33078662, 0.5450201, 0
842, 1577710008, 0.94028497, 0.16544159, 0.10768707, -0.27740017, 0.30787492, 1.6760802, -0.33759212, 0
843, 1577726675, 0.9403335, 0.1656111, 0.10745861, -0.2772234, 0.88656676, -0.41382793, 0.6845741, 0
845, 1577760009, 0.9405791, 0.16564701, 0.10619398, -0.27685556, -0.5512346, 1.7395781, -0.53474426, 0
846, 1577776676, 0.94023025, 0.16718946, 0.10718285, -0.27673268, 1.079372, -0.29025975, -1.365242, 0
847, 1577793343, 0.9396938, 0.16838384, 0.108863875, -0.2771737, 1.3882442, -1.8880771, -1.0615749, 0
850, 1577843344, 0.93947226, 0.16786753, 0.107754625, -0.27866784, 0.5975602, 3.3656116, -0.36081886, 0
851, 1577860011, 0.9391978, 0.16770288, 0.10771784, -0.2797043, 2.237068, -0.27525005, 0.08568478, 0
853, 1577893345, 0.9387237, 0.16675851, 0.107990265, -0.28174806, -0.9224611, -0.47667128, 1.0345688, 0
854, 1577910012, 0.93858963, 0.16640711, 0.10811517, -0.2823538, -0.5802052, 0.8932721, 1.7252808, 0
855, 1577926679, 0.9385687, 0.16566269, 0.10766275, -0.28303275, 0.13169049, 2.5600786, -0.68346786, 0
857, 1577960013, 0.9384927, 0.16486123, 0.10723394, -0.28391457, -0.17484592, 0.19539358, 1.9669304, 0
858, 1577976680, 0.93856716, 0.16441905, 0.10701433, -0.28400776, -0.9811963, 0.09888497, 0.37185478, 0
859, 1577993347, 0.93836975, 0.1649269, 0.107859164, -0.2840458, -0.94432455, -1.6368665, 0.51987743, 0
861, 1578026681, 0.93833244, 0.16596863, 0.10787036, -0.28355777, -0.31992906, 3.6562235, -3.0040746, 0
862, 1578043348, 0.9383987, 0.16667145, 0.10749483, -0.28306836, -0.9421404, 2.2388248, 0.1227808, 0
865, 1578093349, 0.9378962, 0.17244552, 0.106791124, -0.28153786, 0.752235, 3.2665954, 0.7841425, 0
866, 1578110016, 0.93718386, 0.17529193, 0.10786175, -0.28174374, 0.34515765, 2.5514607, -0.25493717, 0
868, 1578143350, 0.9349783, 0.18092902, 0.11327982, -0.2833773, 1.0473727, 1.4217315, 1.1173363, 0
869, 1578160017, 0.9344862, 0.18175043, 0.11362529, -0.28433454, 0.27004144, 3.4494147, 1.1375523, 0
870, 1578176684, 0.93406105, 0.18256958, 0.11341863, -0.2852875, -0.27701882, 5.1809955, 0.35184574, 0
872, 1578210018, 0.93289673, 0.18484968, 0.11542893, -0.28681883, 0.90956813, 4.0893497, 1.0134602, 0
873, 1578226685, 0.93237484, 0.18568064, 0.116646126, -0.28748554, 0.41460758, 4.1155777, 0.6051693, 0
874, 1578243352, 0.9322049, 0.1860642, 0.116564564, -0.28782177, -0.4713602, 5.9325676, -0.31915283, 0
876, 1578276686, 0.9316845, 0.18776962, 0.11664887, -0.28836486, 0.13104956, 3.6246495, -0.8793154, 0
877, 1578293353, 0.93189454, 0.1872832, 0.11527465, -0.28855488, 0.27701032, 3.855762, 1.6895599, 0
878, 1578310020, 0.9314786, 0.188153, 0.11615088, -0.2889804, -0.5834593, 2.185264, -0.18728924, 0
880, 1578343354, 0.93073523, 0.18992026, 0.117574595, -0.28964284, 0.54994714, 4.705683, -2.614512, 0
881, 1578360021, 0.93071306, 0.18920982, 0.117674164, -0.29013848, 0.55215746, 0.15753344, 1.7032499, 0
882, 1578376688, 0.93099666, 0.18757099, 0.11638638, -0.29081154, 0.580935, 0.75410503, 1.1826487, 0
884, 1578410022, 0.93066204, 0.1867143, 0.11535527, -0.2928373, 3.1645348, -4.5695424, -2.4168243, 0
885, 1578426689, 0.9307747, 0.18525772, 0.11367335, -0.29405978, 2.712915, -6.7591834, -0.014760017, 0
886, 1578443356, 0.9310358, 0.18384919, 0.11106759, -0.29511046, 2.2629113, -6.342835, -0.32841682, 0
888, 1578476690, 0.93100756, 0.1823121, 0.10791901, -0.29731393, 1.832193, -6.02912, 1.5929604, 0
889, 1578493357, 0.9308969, 0.1822664, 0.106362484, -0.29824814, 0.4118196, -2.7796314, 1.7846069, 0
892, 1578543358, 0.9303653, 0.18295391, 0.1036887, -0.30041927, -0.5588794, -4.5383925, 2.91358, 0
893, 1578560025, 0.9304652, 0.18163753, 0.103431635, -0.3009967, -0.59714925, -6.3589096, 3.169035, 0
895, 1578593359, 0.9315523, 0.17666337, 0.10230195, -0.3009805, 0.2463942, -1.5831312, -0.15834904, 0
896, 1578610026, 0.93206847, 0.17389722, 0.10227554, -0.3010027, 0.97403795, -2.4441164, -2.0120277, 0
897, 1578626693, 0.9323542, 0.17162673, 0.102627434, -0.30130085, 0.74905497, -4.9261107, -1.3353462, 0
899, 1578660027, 0.9331315, 0.16554888, 0.1030364, -0.30215475, -0.2187585, -3.9247472, -0.34918213, 0
900, 1578676694, 0.93358004, 0.16311319, 0.10292027, -0.3021332, -0.12855247, -1.9773849, 0.38975334, 0
901, 1578693361, 0.9339347, 0.16137564, 0.103320844, -0.30183342, -0.9075391, 0.15897042, -0.26326084, 0
903, 1578726695, 0.9347097, 0.15940176, 0.1048649, -0.29994515, -2.9812818, -2.68232, 1.4021225, 0
904, 1578743362, 0.9353127, 0.15870254, 0.10557651, -0.2981814, -1.4046199, -1.2368983, 2.3348026, 0
907, 1578793363, 0.9372349, 0.15811932, 0.1074018, -0.2917341, -2.0625181, 1.1520581, -1.8366165, 0
908, 1578810030, 0.9381221, 0.1579443, 0.10755099, -0.2889088, -0.6767705, -0.08651675, 1.57689, 0
909, 1578826697, 0.93897057, 0.15778513, 0.107588105, -0.28621256, -1.1096119, -0.40038654, 2.3509092, 0
911, 1578860031, 0.9401726, 0.15851115, 0.10823069, -0.28158617, -0.5102609, 0.24156962, 0.118011475, 0
912, 1578876698, 0.9407691, 0.15921414, 0.10786983, -0.27932686, -0.14561936, 2.9121733, -1.4274683, 0
913, 1578893365, 0.94108486, 0.16089243, 0.107958585, -0.2772591, 0.29528672, 0.42548183, -1.0043097, 0
915, 1578926699, 0.94163114, 0.16384016, 0.1075647, -0.27380982, -0.8501388, -0.11039541, 0.3460703, 0
916, 1578943366, 0.94183314, 0.16492225, 0.107648246, -0.27242905, -0.25409988, -0.42624086, 1.0902195, 0
918, 1578976700, 0.94232273, 0.16564497, 0.107083015, -0.27051336, -0.06420287, 1.8670875, 0.039618492, 0
919, 1578993367, 0.9425203, 0.16609949, 0.10615456, -0.26991212, -0.6077848, 1.6310251, 0.5602646, 0
922, 1579043368, 0.9427129, 0.16855255, 0.10456319, -0.26833537, 0.4135479, 1.244578, 0.41923332, 0
923, 1579060035, 0.94240814, 0.1709944, 0.10511986, -0.26764286, 0.7927363, 0.21215042, -0.6113663, 0
924, 1579076702, 0.9423866, 0.17253031, 0.104193, -0.26709446, 0.9411534, 0.3206542, 0.6740389, 0
926, 1579110036, 0.94192576, 0.17665875, 0.10371654, -0.26620546, 0.11456972, -0.5439828, -0.21242619, 0
927, 1579126703, 0.941805, 0.17800926, 0.10346775, -0.26582995, -0.1154944, -1.0961337, 1.1767473, 0
928, 1579143370, 0.94162774, 0.17896289, 0.103529, -0.26579344, 0.40748447, 1.1109043, -0.44364357, 0
930, 1579176704, 0.9411446, 0.18100742, 0.10351453, -0.2661258, 0.8321668, 1.1597748, -0.44995403, 0
931, 1579193371, 0.9408469, 0.1820496, 0.10333897, -0.2665353, 1.1336405, 0.8516007, 0.55705166, 0
932, 1579210038, 0.94047, 0.18324825, 0.10291268, -0.2672084, 0.9639438, -0.41473702, 1.6806908, 0
934, 1579243372, 0.9394061, 0.18497072, 0.10237927, -0.2699546, 1.879499, 2.3185062, -0.59601593, 0
936, 1579276706, 0.93833333, 0.18318968, 0.10265519, -0.27475238, 2.025458, 1.3403472, -0.43388462, 0
938, 1579310040, 0.937425, 0.17833462, 0.1020041, -0.28121373, 1.3768142, 0.44504982, 1.9638567, 0
939, 1579326707, 0.93686235, 0.17616388, 0.101709925, -0.28454405, 1.6607271, 0.71653837, 1.8094702, 0
940, 1579343374, 0.9361673, 0.17450203, 0.10217256, -0.28767273, 1.9270797, 0.9852596, -0.4100294, 0
942, 1579376708, 0.93518555, 0.17176253, 0.10214795, -0.29248306, -0.3185767, 3.1806152, 0.12691116, 0
943, 1579393375, 0.93485844, 0.17096202, 0.10177353, -0.29412353, -1.569193, 1.0811864, -0.1187439, 0
945, 1579426709, 0.9346893, 0.1697514, 0.10130256, -0.29552177, -1.4732442, 1.2391936, 0.64928055, 0
946, 1579443376, 0.9344402, 0.1702576, 0.10267232, -0.2955458, -0.7301755, -0.81057394, -0.6581974, 0
947, 1579460043, 0.9345695, 0.16979356, 0.10284821, -0.29534224, -0.27944183, 1.4867761, 1.8737745, 0
949, 1579493377, 0.9345781, 0.1701595, 0.104787424, -0.29442126, -0.7921869, 0.6982318, -0.48981285, 0
950, 1579510044, 0.93487763, 0.16985296, 0.10447368, -0.29375836, -0.46402752, 1.3823284, 2.0690699, 0
951, 1579526711, 0.93491507, 0.16955392, 0.1051148, -0.29358327, 0.46691477, 2.4423707, 1.2292156, 0
953, 1579560045, 0.9341965, 0.17026547, 0.10893291, -0.29406658, -1.0835623, 3.9722006, -1.3352356, 0
954, 1579576712, 0.9340093, 0.17014697, 0.11018837, -0.294262, -0.6097707, 3.5956073, -0.71929646, 0
955, 1579593379, 0.93417335, 0.16958782, 0.11001663, -0.29412827, -0.4613635, 3.9277368, 0.4000988, 0
957, 1579626713, 0.9340208, 0.16958994, 0.110884845, -0.29428568, 0.5413511, 2.5333352, 3.0464373, 0
958, 1579643380, 0.9334892, 0.17085278, 0.113105655, -0.29439688, 0.62906724, 5.3632746, -1.9881134, 0
959, 1579660047, 0.9327588, 0.17292182, 0.11568176, -0.2945028, -0.11993303, 2.2040994, -2.7870007, 0
961, 1579693381, 0.93307424, 0.17482498, 0.1149238, -0.29267102, -1.3365064, 3.502, 2.430705, 0
963, 1579726715, 0.9323727, 0.17889823, 0.11817238, -0.29114777, 0.7030362, 2.8374155, -1.4211073, 0
965, 1579760049, 0.9321691, 0.18123025, 0.120025225, -0.28959548, -0.10144225, 0.25689465, -3.5291147, 0
966, 1579776716, 0.9324837, 0.17903514, 0.119888164, -0.29000494, 1.3062277, -1.7098047, -0.6282282, 0
967, 1579793383, 0.93305945, 0.175466, 0.118036285, -0.2910916, -1.2967675, 0.16701573, 1.0284224, 0
969, 1579826717, 0.93384355, 0.17088746, 0.11434415, -0.29276994, 2.330528, -5.768113, -1.6781855, 0
970, 1579843384, 0.9341526, 0.16943319, 0.112396166, -0.29338282, 2.921346, -8.443282, 0.14545727, 0
972, 1579876718, 0.9349047, 0.16757259, 0.10921193, -0.2932583, -1.1893148, -5.214432, 2.098462, 0
973, 1579893385, 0.9351441, 0.16778705, 0.10896365, -0.2924643, -1.8006583, -5.271624, -0.9889269, 0
974, 1579910052, 0.9354452, 0.16769168, 0.10820456, -0.29183686, -2.2948935, -4.910628, -0.117515564, 0
976, 1579943386, 0.9361125, 0.16718428, 0.10766002, -0.29018477, -0.5895816, -7.6449475, 4.2746124, 0
978, 1579976720, 0.9378303, 0.16662642, 0.10706979, -0.28513342, -0.5030386, -3.939605, -2.1091557, 0
980, 1580010054, 0.938902, 0.16928025, 0.10711816, -0.2799787, 0.09585308, -2.7488987, -0.9912157, 0
981, 1580026721, 0.9390265, 0.17237183, 0.10786354, -0.27737707, 0.6171974, -5.62618, 1.1801376, 0
982, 1580043388, 0.9392266, 0.17562647, 0.10886955, -0.27424717, 1.2375238, -2.642142, -0.54572487, 0
984, 1580076722, 0.93983567, 0.17863679, 0.109315105, -0.27000588, -1.4676377, 1.5988467, -0.17262936, 0
985, 1580093389, 0.9401181, 0.17954358, 0.10906261, -0.2685196, -1.5688566, 1.2164071, -0.7892561, 0
986, 1580110056, 0.94014686, 0.18081217, 0.109895885, -0.26722434, 0.7573492, -1.0423071, -2.4379258, 0
988, 1580143390, 0.9404164, 0.18014249, 0.11014044, -0.2666269, 1.630877, 0.09700711, 1.4429512, 0
989, 1580160057, 0.9407108, 0.1789643, 0.10889564, -0.2668924, -0.08727823, 1.2129765, 4.175002, 0
990, 1580176724, 0.94066936, 0.1790614, 0.10845983, -0.26715106, 1.1627812, 4.0894666, -0.9870701, 0
993, 1580226725, 0.9398787, 0.17807631, 0.10883516, -0.2704198, -0.20528804, 1.3469713, 1.7748423, 0
994, 1580243392, 0.9395676, 0.17787874, 0.10901399, -0.2715562, -1.1805404, -0.49016845, 1.257844, 0
996, 1580276726, 0.9388931, 0.1780055, 0.109522566, -0.27359363, 1.2179084, 0.83982056, -2.3725047, 0
997, 1580293393, 0.9387764, 0.1772552, 0.10911922, -0.2746405, 0.3650113, -0.3764108, 1.0780163, 0
999, 1580326727, 0.9385184, 0.17619914, 0.109253064, -0.27614483, -0.12558478, -0.96130866, 0.27060795, 0
1000, 1580343394, 0.9383826, 0.17674796, 0.10919252, -0.27627945, 0.29814705, 2.1682372, -0.5199995, 0
1001, 1580360061, 0.93836653, 0.1767293, 0.108795635, -0.27650255, -0.42689478, 4.486524, -2.6791482, 0
1003, 1580393395, 0.9384929, 0.1767695, 0.107198976, -0.27667162, -1.6767584, 0.27603132, 2.6582527, 0
1004, 1580410062, 0.9386895, 0.17597787, 0.10638449, -0.27682373, 0.224156, 0.1784301, 2.1622639, 0
1005, 1580426729, 0.9386614, 0.17569657, 0.106246695, -0.27715027, 0.87652117, 0.41402072, 0.780426, 0
1008, 1580476730, 0.9382722, 0.17579718, 0.105978526, -0.2785039, 0.3522981, 0.24421738, 0.23890877, 0
1009, 1580493397, 0.9381912, 0.17493637, 0.10602514, -0.27929965, -0.18674642, 0.037345085, 1.221447, 0
1011, 1580526731, 0.93839574, 0.17184839, 0.10400958, -0.28128028, 0.36593553, 3.1628895, -0.6517277, 0
1012, 1580543398, 0.9382105, 0.17092223, 0.10401846, -0.28245687, 1.3743728, 0.90156716, 0.69412994, 0
1013, 1580560065, 0.93811226, 0.16980857, 0.10380203, -0.2835323, 0.6927699, 0.61557835, -1.3296547, 0
1015, 1580593399, 0.9379183, 0.16802387, 0.10457265, -0.2849508, -0.7199359, -1.8419876, 2.8626204, 0
1016, 1580610066, 0.9381177, 0.16632925, 0.10390252, -0.28553286, -1.5448755, 1.7210975, 1.5543432, 0
1017, 1580626733, 0.93812966, 0.16592932, 0.103735015, -0.2857865, -0.88504905, 2.2313347, 0.017302513, 0
1019, 1580660067, 0.9381384, 0.16518831, 0.10421102, -0.2860141, -0.21906371, -1.2987318, 1.60151, 0
1020, 1580676734, 0.93828416, 0.1651608, 0.1040261, -0.28561926, -1.6417973, 1.3580363, 0.27417374, 0
1021, 1580693401, 0.9384588, 0.16521043, 0.1036745, -0.28514406, -0.40137663, 0.871045, -0.147151, 0
1023, 1580726735, 0.9386885, 0.16553114, 0.10330337, -0.28433567, -0.020608006, 0.43911314, -0.046325684, 0
1024, 1580743402, 0.93862695, 0.16647007, 0.103767835, -0.28382117, 1.7314764, 0.061467208, 0.03660965, 0
1026, 1580776736, 0.93833816, 0.16725415, 0.104880266, -0.28390625, -1.3002471, 1.418105, 0.22523117, 0
1027, 1580793403, 0.93835753, 0.16755262, 0.10484267, -0.28367978, -0.8004018, 4.8119445, -1.080905, 0
1028, 1580810070, 0.9383609, 0.16786568, 0.104581356, -0.28358027, -0.26180217, 0.29328045, 1.2846985, 0
1030, 1580843404, 0.93818325, 0.16866578, 0.10359034, -0.2840566, 1.4567572, 1.5811043, 1.174963, 0
1031, 1580860071, 0.93771946, 0.17015363, 0.10462714, -0.2843206, 0.71243316, 0.04933499, 1.425766, 0
1032, 1580876738, 0.9373883, 0.17094135, 0.10550843, -0.28461412, 0.3096513, 2.266453, 1.7168789, 0
1035, 1580926739, 0.93559456, 0.17396823, 0.10981454, -0.28704336, -0.42419273, 6.73449, -2.4821343, 0
1036, 1580943406, 0.9348296, 0.17487282, 0.112156205, -0.28807855, 0.41656452, 0.8101894, -0.9861965, 0
1038, 1580976740, 0.93466204, 0.17277318, 0.11216069, -0.28988189, 0.1405349, 6.7891636, 0.68994904, 0
1039, 1580993407, 0.93411756, 0.17246573, 0.11377871, -0.2911863, 1.2942791, 4.5655127, -1.7067652, 0
1040, 1581010074, 0.93380576, 0.17183234, 0.11436261, -0.29232997, 1.1172018, 3.9388974, 0.12103748, 0
1042, 1581043408, 0.933384, 0.16994251, 0.11420498, -0.2948324, 0.18717858, 1.9718986, 2.483222, 0
1043, 1581060075, 0.9328419, 0.17067227, 0.115437865, -0.29564553, 0.3876468, 2.616452, 1.4943953, 0
1044, 1581076742, 0.93230474, 0.17149483, 0.116522245, -0.2964374, 1.3465387, 3.1415455, -2.5046005, 0
1046, 1581110076, 0.93186593, 0.17346829, 0.11649676, -0.29667908, -0.18677078, 1.251184, -0.3173275, 0
1047, 1581126743, 0.9317734, 0.17498758, 0.11615806, -0.2962096, -0.8703009, -2.5405698, -1.120059, 0
1050, 1581176744, 0.9327744, 0.18075415, 0.11045103, -0.29174536, 0.92266506, -6.8702908, -2.790338, 0
1051, 1581193411, 0.93283457, 0.18317269, 0.1091624, -0.29052714, 0.73416907, -5.9839816, 1.45257, 0
1053, 1581226745, 0.93255097, 0.18762396, 0.108730346, -0.28875405, 0.43331987, -6.6252637, 3.2385654, 0
1054, 1581243412, 0.9324448, 0.18966119, 0.108988166, -0.28766632, -0.4305843, -3.2380912, 2.360877, 0
1055, 1581260079, 0.9322901, 0.19110158, 0.10959502, -0.28698337, -0.3099167, -5.8667603, 1.19104, 0
1057, 1581293413, 0.9324115, 0.19113402, 0.10974529, -0.28650936, -0.35145447, -4.4598665, 3.0490313, 0
1058, 1581310080, 0.93287456, 0.18928967, 0.109434314, -0.28634572, -0.2840986, -4.16908, 1.1023054, 0
1059, 1581326747, 0.93340874, 0.18775107, 0.10944054, -0.28561443, 0.20358175, -5.831418, -0.48742104, 0
1061, 1581360081, 0.93484926, 0.18298766, 0.109173805, -0.2840927, -0.12682942, -3.0901184, -0.10398674, 0
1062, 1581376748, 0.93539107, 0.18138553, 0.109688394, -0.28313705, -0.61728287, -4.1962414, -1.9670191, 0
1065, 1581426749, 0.93706125, 0.17806624, 0.11093931, -0.27920648, -1.8419484, -3.5231383, -1.1477766, 0
1066, 1581443416, 0.9375248, 0.17675918, 0.1117568, -0.27815214, -2.4927022, -2.0999177, -1.418087, 0
1067, 1581460083, 0.9379167, 0.17543541, 0.11317532, -0.27709407, -1.5707968, -3.239153, -0.4395237, 0
1069, 1581493417, 0.9394628, 0.17129833, 0.11273119, -0.2746143, -0.4745523, 6.133139, 1.2755499, 0
1070, 1581510084, 0.93927026, 0.17282143, 0.11530192, -0.27324829, 0.60153794, -4.627837, -1.619914, 0
1071, 1581526751, 0.9398222, 0.17200534, 0.11530122, -0.27186218, 1.6158859, -0.8670156, -1.7306461, 0
1073, 1581560085, 0.9403397, 0.17167176, 0.115242705, -0.27030373, 0.38939118, -1.8582615, 3.782362, 0
1074, 1581576752, 0.9403286, 0.17251404, 0.11590259, -0.26952308, 0.9585875, 1.8567849, -1.4515285, 0
1075, 1581593419, 0.94026375, 0.17342316, 0.11638542, -0.26895723, 1.7325703, -3.6707788, 1.6776838, 0
1077, 1581626753, 0.9410844, 0.17286766, 0.11175876, -0.26840588, -0.95821524, 0.8550742, 10.089706, 0
1080, 1581676754, 0.9398584, 0.17799182, 0.1128376, -0.26890096, 0.7804999, -1.3133608, -0.87641716, 0
1081, 1581693421, 0.9403462, 0.17651972, 0.10914621, -0.26968876, -3.2140887, 4.97943, 2.0224257, 0
1082, 1581710088, 0.94027966, 0.17649357, 0.107692346, -0.27052078, -2.539254, 3.1715438, 0.6801758, 0
1084, 1581743422, 0.9392577, 0.17794888, 0.10766609, -0.2731157, 3.9367898, -2.9719806, -0.812871, 0
1085, 1581760089, 0.9392349, 0.17653823, 0.106268845, -0.2746524, -0.737672, 1.3118201, 2.2478275, 0
1086, 1581776756, 0.93900055, 0.1768558, 0.105531305, -0.27553236, -1.4143354, 4.605037, 1.9218245, 0
1088, 1581810090, 0.93835145, 0.17717576, 0.10410995, -0.27806726, 1.3236254, 0.40652618, 1.1988811, 0
1089, 1581826757, 0.93795437, 0.17691131, 0.10341732, -0.2798284, 0.1601819, 1.6339206, 0.10840988, 0
1090, 1581843424, 0.937405, 0.17598931, 0.104193605, -0.28195465, -0.17017964, -6.2884264, 4.7213573, 0
1092, 1581876758, 0.9364681, 0.17492577, 0.10575056, -0.28513157, 1.5963379, 4.5452003, -1.9730387, 0
1093, 1581893425, 0.9359686, 0.17464688, 0.1060271, -0.2868356, 0.37632895, 4.2915716, -3.9545403, 0
1094, 1581910092, 0.9357223, 0.17397559, 0.106041424, -0.28803903, -0.97772175, 0.90250784, 0.2465725, 0
1096, 1581943426, 0.9358685, 0.17277208, 0.105419986, -0.28851628, -0.6319623, -1.2363111, 0.58230877, 0
1097, 1581960093, 0.9356382, 0.17347838, 0.10623411, -0.2885405, 0.3706409, 1.5141708, -2.7689247, 0
1098, 1581976760, 0.93605447, 0.17257819, 0.105343774, -0.28805637, -0.74714124, 2.0660381, -0.3164673, 0
1100, 1582010094, 0.93617344, 0.17398645, 0.1054758, -0.2867717, -0.861816, 0.4429229, -0.83886147, 0
1101, 1582026761, 0.9359549, 0.17563282, 0.105607964, -0.28643253, 0.22416326, -2.0074844, 2.9167643, 0
1102, 1582043428, 0.93550336, 0.17813501, 0.10615419, -0.28616056, 1.0411069, 0.6585941, 1.1402617, 0
1104, 1582076762, 0.93430924, 0.18396844, 0.10833729, -0.2855521, 0.49640673, 0.16618747, 0.706954, 0
1107, 1582126763, 0.9339825, 0.18621856, 0.10521607, -0.28632838, 1.3168997, 0.7364429, -0.37542057, 0
1108, 1582143430, 0.93310827, 0.1881643, 0.10619106, -0.28754422, 2.4137623, -1.1603692, -2.086491, 0
1109, 1582160097, 0.9325352, 0.18835932, 0.10702661, -0.28896296, 2.1682734, -1.4892129, 0.24589539, 0
1111, 1582193431, 0.9327636, 0.18463852, 0.10361332, -0.29185632, -0.9111243, 4.6954226, 0.21110535, 0
1112, 1582210098, 0.9326029, 0.18277471, 0.10327128, -0.29365867, 1.2235221, 0.8514864, 1.2360325, 0
1113, 1582226765, 0.9322469, 0.18126768, 0.10377022, -0.29554132, 1.4352785, -2.160483, 1.9460926, 0
1115, 1582260099, 0.9317285, 0.1786458, 0.10495321, -0.2983419, -0.17462553, 5.622235, -1.5402098, 0
1116, 1582276766, 0.93125, 0.1782241, 0.10604064, -0.29969993, -0.62820315, 4.1416483, -3.170514, 0
1117, 1582293433, 0.93138504, 0.17624313, 0.105354965, -0.3006922, -1.1121198, 0.7735912, 4.202462, 0
1119, 1582326767, 0.9311536, 0.17337188, 0.10736857, -0.302361, 0.6540919, 0.14839064, 2.5034428, 0
1121, 1582360101, 0.9296714, 0.172893, 0.11364461, -0.30489236, -0.1597161, 4.9794564, -5.2798853, 0
1123, 1582393435, 0.9310255, 0.1672765, 0.11163662, -0.3046348, -1.1948484, 5.9242325, 3.1880636, 0
1124, 1582410102, 0.93085635, 0.16622585, 0.11372714, -0.30495355, 0.48780808, 0.2569098, 2.6692123, 0
1125, 1582426769, 0.93069756, 0.16591574, 0.11515782, -0.3050702, 0.5329128, 6.31099, -1.3161526, 0
1127, 1582460103, 0.9307666, 0.16549757, 0.11693306, -0.30441073, -1.0350089, 1.297045, 1.5485783, 0
1128, 1582476770, 0.9316168, 0.16445452, 0.11476165, -0.30319938, -2.838616, 5.7661085, 4.5710745, 0
1129, 1582493437, 0.9317011, 0.16505523, 0.115795754, -0.30221888, -1.6453761, 1.5000728, 1.3764753, 0
1131, 1582526771, 0.93121314, 0.16753604, 0.119335555, -0.3009781, 1.4233507, -0.5108545, -1.1012087, 0
1132, 1582543438, 0.9314259, 0.16753307, 0.11898902, -0.30045837, -0.18469901, -2.9919593, -1.7248783, 0
1134, 1582576772, 0.93323123, 0.16249667, 0.11344075, -0.2997677, -0.91716784, -2.492949, 0.5915022, 0
1136, 1582610106, 0.93394506, 0.15891926, 0.11153376, -0.30017808, 3.2091408, -7.299432, -3.2489324, 0
1138, 1582643440, 0.93476886, 0.15521446, 0.107746616, -0.30093452, -2.120754, -3.1775334, 3.9316072, 0
1139, 1582660107, 0.9349083, 0.15618221, 0.10763748, -0.30003858, -1.8792849, -2.7936628, 3.2604628, 0
1140, 1582676774, 0.934928, 0.15764254, 0.10842405, -0.29892793, 0.019338788, -10.048571, 2.489727, 0
1142, 1582710108, 0.9358038, 0.15705274, 0.10815728, -0.29658583, -2.4247847, -4.860545, 4.4716215, 0
1143, 1582726775, 0.9364301, 0.15684168, 0.108366415, -0.29463813, -1.7106797, -4.374343, -1.4324942, 0
1144, 1582743442, 0.9372151, 0.15569626, 0.10835178, -0.2927489, 0.4610823, -6.464466, 0.48297405, 0
1146, 1582776776, 0.9381994, 0.15240245, 0.10918794, -0.29101333, 1.634076, -4.86465, 1.7060852, 0
1147, 1582793443, 0.938674, 0.1502323, 0.1101799, -0.29023656, 1.5718328, -4.184338, -0.1628313, 0
1148, 1582810110, 0.9392574, 0.14834335, 0.11103383, -0.2889924, 1.5880263, -3.3216953, -2.7289062, 0
1151, 1582860111, 0.9412446, 0.1403591, 0.11141424, -0.2863562, -2.4164135, -4.0697937, 1.270628, 0
1152, 1582876778, 0.9419259, 0.13976988, 0.111307025, -0.28444, -1.6596137, -3.0946755, 0.07634163, 0
1154, 1582910112, 0.943292, 0.13982639, 0.11181169, -0.27964678, -3.4667904, -0.6115955, -1.5730553, 0
1155, 1582926779, 0.94400847, 0.14056726, 0.11234495, -0.27662748, -4.582403, -2.9109893, -0.2821331, 0
1156, 1582943446, 0.94481754, 0.14201397, 0.112867035, -0.27288842, -3.5501864, -1.274541, 0.70948124, 0
1158, 1582976780, 0.9464339, 0.14388512, 0.114065155, -0.26571447, -0.8279508, 0.8832974, -0.07986736, 0
1159, 1582993447, 0.9471239, 0.14473778, 0.11470759, -0.26249707, -1.7603341, -0.25749832, 1.0329523, 0
1161, 1583026781, 0.9485024, 0.14691623, 0.11528705, -0.25597394, 0.025938455, 2.28034, -1.2586508, 0
1162, 1583043448, 0.9488085, 0.14901724, 0.11587734, -0.25334597, 0.11804021, -0.07822751, -0.063705444, 0
1163, 1583060115, 0.9493774, 0.14962927, 0.11503182, -0.25122994, -0.60047525, 2.7537684, 2.5707588, 0
1165, 1583093449, 0.9496509, 0.15291083, 0.115077615, -0.24818131, 1.5082493, 0.95843506, 0.42322826, 0
1166, 1583110116, 0.94947684, 0.15470706, 0.11566871, -0.2474578, 1.6365976, 1.4656376, -1.0328302, 0
1167, 1583126783, 0.9495121, 0.15534821, 0.11505399, -0.24720752, 1.0875766, 1.5259658, -0.4520502, 0
1169, 1583160117, 0.9495942, 0.15620774, 0.11257103, -0.24749318, -0.04147909, 1.328045, -0.3799219, 0
1170, 1583176784, 0.9496652, 0.15639085, 0.11073555, -0.24793246, 0.66617537, 0.6643415, 1.6247883, 0
1171, 1583193451, 0.94963175, 0.15657935, 0.10932467, -0.2485674, 0.45815238, 0.8011018, -0.11845589, 0
1173, 1583226785, 0.9492498, 0.15853228, 0.10841414, -0.24918658, 0.48411185, -0.20757411, 0.6089182, 0
1174, 1583243452, 0.94919026, 0.15933308, 0.1077587, -0.24918664, -0.7328394, 1.0516798, 0.87959576, 0
1175, 1583260119, 0.9489149, 0.16099419, 0.10817594, -0.24898699, -1.1956953, 0.6201879, -0.4430971, 0
1178, 1583310120, 0.9483479, 0.1660824, 0.10758951, -0.24805751, 0.13174848, 1.2421054, 0.58450603, 0
1179, 1583326787, 0.9479196, 0.1681305, 0.10781695, -0.24821568, 0.78562224, 0.1353221, 0.24317741, 0
1181, 1583360121, 0.9470748, 0.17079991, 0.10818051, -0.2494573, 1.0911655, 0.1978145, 0.64761543, 0
1182, 1583376788, 0.9467864, 0.17166528, 0.10781201, -0.2501164, 1.1680526, -0.24055251, 1.2030602, 0
1183, 1583393455, 0.94625735, 0.17294815, 0.10837551, -0.25098994, 0.73993474, 2.320122, -0.16418362, 0
1185, 1583426789, 0.9450129, 0.17594895, 0.108671635, -0.25345296, 0.619189, 0.4815354, 0.6683216, 0
1186, 1583443456, 0.9446279, 0.17652342, 0.10838855, -0.25460732, 1.2169569, 1.1879526, 0.35018826, 0
1188, 1583476790, 0.9438708, 0.1779299, 0.107507765, -0.25680014, 0.79825985, 2.293814, 0.04708767, 0
1189, 1583493457, 0.94349474, 0.1783894, 0.10712566, -0.25801966, 1.382526, 0.92611325, -0.79415417, 0
1190, 1583510124, 0.94302094, 0.17916913, 0.10718287, -0.2591849, 0.6206388, -0.6424543, 0.83820724, 0
1193, 1583560125, 0.94208264, 0.18044664, 0.10607594, -0.26214868, -0.21179506, 4.039572, -2.645378, 0
1194, 1583576792, 0.9413743, 0.18189153, 0.10693367, -0.26334408, 1.6709716, -0.37243864, -2.3330135, 0
1196, 1583610126, 0.9403081, 0.18387559, 0.10755917, -0.26551148, -0.42007807, -1.1696947, 4.2965755, 0
1197, 1583626793, 0.9401127, 0.18376318, 0.10657756, -0.26667514, -0.8959643, 3.4044042, 2.3276834, 0
1198, 1583643460, 0.93978757, 0.18401694, 0.10570626, -0.26798934, 1.5059307, 4.4703045, -0.3637495, 0
1200, 1583676794, 0.9386155, 0.18473789, 0.106542595, -0.2712502, 2.0024767, -1.9259517, -0.5287037, 0
1201, 1583693461, 0.93815225, 0.18475735, 0.106829405, -0.27272263, 1.0719742, -0.9480879, 2.8723335, 0
1202, 1583710128, 0.9379755, 0.18414769, 0.10624374, -0.27396902, -0.4701033, 3.7031884, -1.9159279, 0
1204, 1583743462, 0.93737686, 0.18347561, 0.105781265, -0.27663454, 0.2957166, 3.3127577, 0.6947899, 0
1205, 1583760129, 0.93720436, 0.18235777, 0.105423525, -0.27809045, 0.9055753, 0.57579696, 0.6608038, 0
1208, 1583810130, 0.9369036, 0.17879608, 0.104408085, -0.28177586, 0.29257154, 3.279234, -0.111014366, 0
1209, 1583826797, 0.93669, 0.17788187, 0.10448921, -0.28303182, -1.0381713, 1.3428521, 1.6397934, 0
1210, 1583843464, 0.9366361, 0.17691083, 0.103987195, -0.28400213, -0.017288728, 1.2043525, 2.3252935, 0
1212, 1583876798, 0.9360318, 0.17691736, 0.105423264, -0.28545737, 0.06832802, 3.9034297, -1.3702946, 0
1213, 1583893465, 0.9353251, 0.17785004, 0.10844605, -0.28606063, 0.20056248, 3.24087, -3.1917844, 0
1214, 1583910132, 0.93478847, 0.17857745, 0.11129123, -0.28626904, -0.21928935, 0.49353042, -1.5926027, 0
1216, 1583943466, 0.93569005, 0.17589097, 0.10962773, -0.28562775, -2.018887, 4.0687675, 2.1808977, 0
1217, 1583960133, 0.935601, 0.17603071, 0.110648565, -0.28544024, -0.5827421, 1.1198233, 3.1296263, 0
1219, 1583993467, 0.93492365, 0.176362, 0.114482164, -0.28594288, 0.61105996, 2.2573001, -0.5610695, 0
1220, 1584010134, 0.93426895, 0.17780979, 0.11740712, -0.2859999, -0.50405693, 1.4635174, -3.3076644, 0
1223, 1584060135, 0.93445873, 0.17871188, 0.11459448, -0.28595856, 2.0679154, -4.236697, 1.1614933, 0
1224, 1584076802, 0.9349303, 0.17860492, 0.11175242, -0.28560793, -0.2983419, 2.599763, -5.947301, 0
1225, 1584093469, 0.93489265, 0.17917684, 0.111269034, -0.28556177, 0.59147227, -8.263274, -1.2092543, 0
1227, 1584126803, 0.93558073, 0.17626321, 0.10652659, -0.2869272, 2.303317, -4.485528, 2.880537, 0
1228, 1584143470, 0.9353167, 0.17544079, 0.105982326, -0.2884894, 2.4231913, -5.7809753, 1.3752251, 0
1229, 1584160137, 0.9352008, 0.17450096, 0.10530722, -0.28967947, 1.4117408, -2.9810472, 1.448699, 0
1231, 1584193471, 0.9349855, 0.17304303, 0.10445849, -0.29155034, -1.995447, -5.1649575, 1.2439718, 0
1232, 1584210138, 0.93515444, 0.17253235, 0.103431426, -0.29167756, -2.7579694, -5.408387, 3.6260204, 0
1233, 1584226805, 0.9353944, 0.17243108, 0.10327199, -0.2910239, -0.5995058, -6.7512727, 2.4920254, 0
1235, 1584260139, 0.93645155, 0.17120343, 0.10345639, -0.28827062, 0.065485835, -4.9333196, 0.44215393, 0
1236, 1584276806, 0.936898, 0.17083484, 0.10404176, -0.28682405, -0.109332256, -3.4350662, -0.27246094, 0
1237, 1584293473, 0.937331, 0.16977482, 0.104666166, -0.28580973, 1.0494198, -3.877048, 0.198102, 0
1239, 1584326807, 0.9384227, 0.16450809, 0.106004074, -0.2848128, 1.1353849, -3.7336242, -0.7573309, 0
1240, 1584343474, 0.93903464, 0.1609072, 0.10647025, -0.2846786, -0.18061255, -3.0462558, -1.6128283, 0
1242, 1584376808, 0.94030136, 0.1552223, 0.10614896, -0.28377268, -1.3602443, -1.5072998, 0.7541151, 0
1243, 1584393475, 0.9409057, 0.15350541, 0.10617687, -0.28269064, -0.9891022, -4.167459, 0.84972286, 0
1244, 1584410142, 0.9415322, 0.15235958, 0.10625697, -0.2811909, -1.3144314, 0.20467965, -1.3179655, 0
1246, 1584443476, 0.9429047, 0.15201129, 0.10634084, -0.27671298, -4.173844, -1.0873879, -0.42585278, 0
1247, 1584460143, 0.94372725, 0.15281984, 0.10626811, -0.2734725, -2.9154248, -1.1726153, 0.9471445, 0
1250, 1584510144, 0.9460337, 0.15581247, 0.107534245, -0.26312372, -2.7644472, -0.68070185, 0.9915056, 0
1251, 1584526811, 0.946911, 0.15687801, 0.107728526, -0.25922716, -1.9379714, 1.8145111, -0.5735264, 0
1252, 1584543478, 0.94756126, 0.15830255, 0.10842652, -0.25566894, -0.95399225, -0.23129946, 0.629508, 0
1254, 1584576812, 0.94868875, 0.1598501, 0.109311305, -0.2500878, -0.3334298, -0.2068964, 2.3152199, 0
1255, 1584593479, 0.9490956, 0.1605507, 0.10976758, -0.24788573, 0.19517408, 1.3626548, 0.37284184, 0
1256, 1584610146, 0.9493221, 0.16144463, 0.11019606, -0.24624228, 1.0995827, 0.39660004, 0.26595306, 0
1258, 1584643480, 0.949643, 0.16195644, 0.11021384, -0.24465525, 0.51531684, 0.770814, 1.261241, 0
1259, 1584660147, 0.9494593, 0.16245157, 0.11086884, -0.24474385, 1.6224437, 0.36675647, -1.4082556, 0
1260, 1584676814, 0.94915235, 0.16230822, 0.112397686, -0.24533191, 2.2751307, -1.1595798, -1.3966513, 0
1262, 1584710148, 0.94948685, 0.15975334, 0.110003754, -0.24679497, -1.2178065, 5.4450974, 1.3461189, 0
1264, 1584743482, 0.94894207, 0.16042516, 0.10981672, -0.24853188, 1.8176298, -1.7617652, 0.70330334, 0
1266, 1584776816, 0.94848394, 0.16197924, 0.10987432, -0.2492468, -1.162589, -0.9991639, 1.6759901, 0
1267, 1584793483, 0.9481921, 0.16359915, 0.1101921, -0.24915868, -1.5516075, 3.858902, -0.47115993, 0
1269, 1584826817, 0.9474822, 0.166683, 0.11032486, -0.24975514, -0.19012806, -0.14002441, 1.6436024, 0
1270, 1584843484, 0.94719315, 0.16779281, 0.110055126, -0.2502275, 0.37758937, 0.15064767, 1.5015717, 0
1271, 1584860151, 0.9468745, 0.16886081, 0.10992833, -0.25077072, 1.3400688, 0.27966857, 2.0100412, 0
1273, 1584893485, 0.9459762, 0.17159373, 0.110414475, -0.25208852, 0.7171389, 3.0238655, -1.6588383, 0
1274, 1584910152, 0.9456905, 0.17225768, 0.110190086, -0.25280488, -0.821451, 1.7137597, -0.47072315, 0
1275, 1584926819, 0.9454607, 0.17245375, 0.109760545, -0.2537162, -0.429109, -0.76043105, 2.244501, 0
1277, 1584960153, 0.94475687, 0.17278212, 0.10904092, -0.25640994, 0.8662839, 2.2559597, 0.015621185, 0
1279, 1584993487, 0.9440059, 0.17372507, 0.10944682, -0.25835907, 0.902962, 3.5307918, -1.99859, 0
1281, 1585026821, 0.9434834, 0.17350547, 0.109252, -0.2604888, -1.4474033, -1.320922, 3.812479, 0
1282, 1585043488, 0.9434943, 0.17275307, 0.10808412, -0.26143476, -0.24658497, 3.8704586, 0.9602184, 0
1283, 1585060155, 0.9432661, 0.17247693, 0.107856125, -0.2625324, 1.6117944, 0.5656189, 0.800477, 0
1285, 1585093489, 0.9427818, 0.17250377, 0.107900806, -0.26423082, 1.0104024, -0.23564118, -0.3579626, 0
1286, 1585110156, 0.94279385, 0.17195825, 0.10731147, -0.26478288, -0.49635264, 0.78089535, 1.0049219, 0
1287, 1585126823, 0.94236934, 0.17244136, 0.10823711, -0.2656017, -0.22349943, 1.0267773, -0.31247807, 0
1289, 1585160157, 0.94194126, 0.17248507, 0.108061336, -0.2671592, 0.47146693, 3.8178759, 0.16599369, 0
1290, 1585176824, 0.9418259, 0.17256676, 0.10738293, -0.26778546, 0.34562433, 1.4954548, 1.4071293, 0
1291, 1585193491, 0.94176936, 0.17250687, 0.10620121, -0.26849347, 0.0057455124, 3.8542051, 2.3426008, 0
1294, 1585243492, 0.9398433, 0.17579062, 0.109463744, -0.27178216, 1.1425165, -0.43069887, 6.64872, 0
1296, 1585276826, 0.93835115, 0.17896315, 0.11065207, -0.27437368, 0.46553782, 6.850631, -1.2028999, 0
1297, 1585293493, 0.93672794, 0.18248188, 0.11397939, -0.27623448, 0.6064938, 1.3844678, -2.5403752, 0
1298, 1585310160, 0.9357505, 0.18416083, 0.11578829, -0.27767676, 1.3646699, 0.9950221, 0.0038385391, 0
1300, 1585343494, 0.9352468, 0.18434513, 0.11375831, -0.28008032, -0.76109743, 6.3822327, -1.0966063, 0
1301, 1585360161, 0.9348593, 0.18468286, 0.113803625, -0.28113094, 0.97077084, 3.1968853, 2.1596403, 0
1302, 1585376828, 0.9341759, 0.18492053, 0.11513703, -0.2826991, 1.8633723, 0.5690885, 4.9060497, 0
1304, 1585410162, 0.9324559, 0.18645664, 0.118310556, -0.28603873, -0.8361243, 7.7790422, -3.578999, 0
1305, 1585426829, 0.9309102, 0.18725327, 0.120993204, -0.2894104, -0.19541529, 4.003632, -7.112891, 0
1306, 1585443496, 0.93081236, 0.18620008, 0.117717765, -0.2917463, 3.0858247, -2.2631726, 2.2948189, 0
1308, 1585476830, 0.9308547, 0.18422928, 0.111769676, -0.29518113, 2.3770478, -3.246501, 1.8434763, 0
1309, 1585493497, 0.9307432, 0.18434678, 0.109963335, -0.29613638, 0.6128843, -3.132555, -3.4113607, 0
1310, 1585510164, 0.9306511, 0.1852063, 0.108626805, -0.2963829, 1.0562431, -10.20349, -3.334988, 0
1312, 1585543498, 0.93138, 0.18573977, 0.10269079, -0.29587507, 0.8661962, -2.8280795, 1.2988749, 0
1313, 1585560165, 0.9314941, 0.18649241, 0.101856805, -0.29533052, -1.3507832, -8.393261, 1.2978134, 0
1314, 1585576832, 0.9317192, 0.18735813, 0.101500146, -0.29419282, -1.8859131, -7.613143, 1.1197624, 0
1316, 1585610166, 0.9324203, 0.1875857, 0.10153944, -0.2918034, -3.538296, -4.642913, 2.2723618, 0
1317, 1585626833, 0.93314946, 0.18748417, 0.10134583, -0.28959697, -3.0999887, -4.7987237, 1.5773048, 0
1318, 1585643500, 0.9340997, 0.18771333, 0.101630814, -0.28626588, -1.765421, -4.6588764, -1.2686605, 0
1321, 1585693501, 0.93606263, 0.19021843, 0.10347273, -0.27740315, -0.008628047, -3.7493632, -0.23861122, 0
1323, 1585726835, 0.93666995, 0.19077437, 0.10489131, -0.2744226, 2.0835068, -1.0278033, 2.3910046, 0
1324, 1585743502, 0.93688494, 0.18978769, 0.105985664, -0.2739518, 1.1627729, -2.4507377, 0.018525124, 0
1325, 1585760169, 0.9368919, 0.18937191, 0.10761717, -0.27357972, 0.7940272, -4.5700293, -2.121665, 0
1327, 1585793503, 0.93779653, 0.18485552, 0.108174376, -0.27334967, 1.2020352, -0.14459229, -1.1726503, 0
1328, 1585810170, 0.9381228, 0.1831141, 0.10802207, -0.27346236, 1.0058874, -2.5262415, 0.12296677, 0
1329, 1585826837, 0.938252, 0.1824931, 0.10802584, -0.27343297, 0.83383155, -0.040781323, 0.4726572, 0
1331, 1585860171, 0.9385276, 0.182489, 0.10755337, -0.27267477, -0.9417771, -1.8295342, 0.6548338, 0
1332, 1585876838, 0.9386885, 0.18250512, 0.107062876, -0.27230364, -0.4575043, -0.30314437, 1.7185411, 0
1333, 1585893505, 0.9386945, 0.18297136, 0.10735115, -0.27185577, 0.15178686, -1.2927862, 1.2539148, 0
1336, 1585943506, 0.9386956, 0.1836591, 0.10802006, -0.27112243, 0.052998833, 1.9386309, 1.0808992, 0
1337, 1585960173, 0.93857664, 0.18319859, 0.10785347, -0.27191058, 0.31874198, -0.9944315, 3.0967464, 0
1339, 1585993507, 0.9382129, 0.18158567, 0.107641846, -0.27432135, 1.8108003, -0.69503, 1.2726498, 0
1340, 1586010174, 0.9378903, 0.18093014, 0.10764602, -0.27585196, 1.8985955, 1.2392969, -2.052528, 0
1341, 1586026841, 0.9374731, 0.18019645, 0.107281975, -0.2778841, 1.6657848, -1.308383, 0.7981386, 0
1343, 1586060175, 0.9372337, 0.17681628, 0.104522936, -0.2818859, 0.31578347, 1.2047936, 1.645155, 0
1344, 1586076842, 0.93710077, 0.17539759, 0.10359451, -0.2835522, 0.28731743, 1.2549827, -0.6147604, 0
1345, 1586093509, 0.936847, 0.17399369, 0.10305838, -0.28544477, 1.066712, 0.04528768, 0.58200264, 0
1347, 1586126843, 0.9367256, 0.17038274, 0.10110687, -0.28870043, -1.2489582, 2.0357854, -1.0474272, 0
1348, 1586143510, 0.93636817, 0.17027152, 0.101774365, -0.28968912, -0.2390379, -0.11727072, -0.4230976, 0
1352, 1586210178, 0.93585587, 0.16622949, 0.101443894, -0.29377955, 0.535894, 2.9867666, -0.5707245, 0
1354, 1586243512, 0.93549395, 0.16464533, 0.10244245, -0.29547337, -0.71844554, 1.2184274, 1.7505913, 0
1355, 1586260179, 0.9356115, 0.16258836, 0.102223076, -0.2963149, -1.3966366, 1.7422198, 1.1551437, 0
1356, 1586276846, 0.9356539, 0.16082893, 0.10218836, -0.29715163, -1.2114979, 0.9239499, 1.5066919, 0
1358, 1586310180, 0.93563914, 0.15944599, 0.10302833, -0.297653, 0.9646635, 0.96452063, 0.71572495, 0
1359, 1586326847, 0.93561494, 0.15902902, 0.10350958, -0.29778504, -0.37754983, 1.5052898, -0.13406277, 0
1360, 1586343514, 0.9357022, 0.15896416, 0.10378601, -0.29744938, -2.0137026, 1.6497647, -0.10217571, 0
1362, 1586376848, 0.9359781, 0.16028091, 0.10433183, -0.29567802, -0.24118881, 0.23389786, -0.6167345, 0
1363, 1586393515, 0.9360672, 0.16054165, 0.1045913, -0.29516235, 0.37268674, 0.47911146, 0.4340639, 0
1364, 1586410182, 0.93605614, 0.16141726, 0.1046437, -0.29470095, 0.048342947, 0.2730819, 0.15064907, 0
1367, 1586460183, 0.9356301, 0.16563286, 0.10487175, -0.29363188, 1.8946621, 0.2713377, 0.8086977, 0
1368, 1586476850, 0.93552434, 0.1656099, 0.10473559, -0.29402983, -0.02868163, 0.8093229, 1.3244333, 0
1370, 1586510184, 0.93525416, 0.16515113, 0.104628935, -0.29518363, 0.4839611, 0.6036449, 1.3864174, 0
1371, 1586526851, 0.9351498, 0.16409983, 0.10423872, -0.29623646, 0.034447256, 1.3243444, -0.60287, 0
1372, 1586543518, 0.93483776, 0.163509, 0.10469524, -0.29738516, 0.12927493, -1.8291141, 2.9144287, 0
1374, 1586576852, 0.9343036, 0.1627315, 0.10560499, -0.2991633, 0.08675656, 3.6464999, -1.1270504, 0
1375, 1586593519, 0.93372154, 0.16339116, 0.10711009, -0.30008447, -0.529548, 3.2523808, -0.94150543, 0
1377, 1586626853, 0.9334783, 0.16333558, 0.10743468, -0.30075482, -1.0533171, 1.6977118, 0.83422947, 0
1378, 1586643520, 0.93328965, 0.16392002, 0.10855448, -0.30061993, -0.8833498, 1.2412914, 0.88289165, 0
1379, 1586660187, 0.9332928, 0.16398038, 0.10925539, -0.3003233, -0.44202024, 2.9399648, 0.4808979, 0
1381, 1586693521, 0.9332648, 0.16353166, 0.11206878, -0.29961762, -1.7214775, 2.4166007, 1.016923, 0
1382, 1586710188, 0.93334746, 0.16319725, 0.11327472, -0.29908884, -1.8237967, 2.9393208, 1.8399487, 0
1383, 1586726855, 0.93331015, 0.1632697, 0.11503862, -0.29849154, -1.3945357, 3.7721705, -1.5947304, 0
1385, 1586760189, 0.9339584, 0.16288544, 0.11535485, -0.29654583, -1.175781, 4.020735, 1.4070988, 0
1386, 1586776856, 0.9339363, 0.16339792, 0.11651518, -0.2958786, -0.5833973, 1.4976953, 1.767045, 0
1387, 1586793523, 0.9338113, 0.16421033, 0.11761291, -0.29538882, 0.114508815, -0.35903543, 0.7330513, 0
1389, 1586826857, 0.93393993, 0.16755792, 0.11702123, -0.29332998, 0.64548415, 3.8877075, -4.112192, 0
1390, 1586843524, 0.9342765, 0.16867498, 0.11513318, -0.29236335, 0.3838558, -2.793604, 0.32057858, 0
1391, 1586860191, 0.9343791, 0.1703485, 0.1144474, -0.29133275, -0.6099893, -3.1112041, -4.208081, 0
1394, 1586910192, 0.9356998, 0.17215802, 0.10778404, -0.28855848, 2.8486032, -2.8620784, 2.9004173, 0
1395, 1586926859, 0.93567145, 0.17323104, 0.10706217, -0.28827682, 4.459829, -4.406342, 0.31399536, 0
1397, 1586960193, 0.935202, 0.1745243, 0.10564455, -0.28954032, 2.8370159, -2.9042187, 0.92260265, 0
1398, 1586976860, 0.9348853, 0.17474815, 0.10469654, -0.2907696, 1.1093965, -3.4553251, 2.0850315, 0
1399, 1586993527, 0.93461096, 0.17439513, 0.103842996, -0.29216626, 0.007878161, -5.3521633, 2.2182465, 0
1401, 1587026861, 0.93437684, 0.17063461, 0.10279692, -0.29548645, 2.0638025, -5.3859797, 3.4752655, 0
1402, 1587043528, 0.9344344, 0.16828234, 0.10292562, -0.29660672, 1.8944969, -3.1877015, -1.1601944, 0
1404, 1587076862, 0.9349756, 0.16536051, 0.1024711, -0.2967019, 0.91745216, -1.0450763, -4.2275515, 0
1405, 1587093529, 0.9349725, 0.16436592, 0.10209446, -0.29739356, -1.2599634, -3.1378455, 0.7951307, 0
1406, 1587110196, 0.93486613, 0.16414732, 0.10220468, -0.2978103, -1.1031362, -6.036648, 3.8609056, 0
1409, 1587160197, 0.93531394, 0.16021948, 0.103123404, -0.29822648, -1.495415, -0.49247068, -2.656148, 0
1410, 1587176864, 0.93545413, 0.15835647, 0.10409153, -0.29844472, -0.93798506, -2.9213102, -1.9739265, 0
1412, 1587210198, 0.93632174, 0.15186037, 0.103747636, -0.29921976, 0.5141793, -1.6638634, 1.7157869, 0
1413, 1587226865, 0.936763, 0.14855984, 0.10352959, -0.2995705, 0.07632431, -0.7839237, 0.08388424, 0
1414, 1587243532, 0.93705237, 0.14639738, 0.1042585, -0.29947704, -1.1034462, -1.8034023, -0.8276377, 0
1416, 1587276866, 0.9383659, 0.14272377, 0.103755765, -0.2973042, -2.9227884, 0.60913885, 1.5473881, 0
1417, 1587293533, 0.9390039, 0.14202923, 0.103819646, -0.2955954, -2.2953236, 0.14556196, 0.22844887, 0
1418, 1587310200, 0.9396297, 0.14196485, 0.10444017, -0.29341125, -2.5793252, -1.237921, -0.6398525, 0
1420, 1587343534, 0.9411445, 0.14385673, 0.10519926, -0.2872996, -2.283581, 0.20857997, 0.99317837, 0
1421, 1587360201, 0.9417851, 0.14521572, 0.10573704, -0.2843036, -2.4151099, 1.4548122, 0.74425983, 0
1424, 1587410202, 0.9434891, 0.14919941, 0.107048236, -0.27597868, -0.1526094, 2.5464575, -0.4909811, 0
1425, 1587426869, 0.94383824, 0.15026082, 0.10757166, -0.27399826, 0.29115704, 0.44570374, 0.4379177, 0
1426, 1587443536, 0.94414675, 0.15076995, 0.107607916, -0.27263823, 0.30818334, 0.6029324, 1.1592903, 0
1428, 1587476870, 0.944616, 0.15143198, 0.1073781, -0.2707296, 0.94656706, 1.6532241, -1.0138559, 0
1429, 1587493537, 0.94423544, 0.1527981, 0.10903345, -0.27062804, 1.8635525, -1.9216226, -0.66285133, 0
1431, 1587526871, 0.94427025, 0.15188463, 0.10864037, -0.2711784, -1.760304, 3.4487028, 1.413228, 0
1432, 1587543538, 0.9441614, 0.15274526, 0.10825327, -0.2712288, -1.4328698, 3.858704, -1.1700268, 0
1433, 1587560205, 0.9438778, 0.15416557, 0.10831499, -0.27138743, 0.68714553, 1.6159412, -0.05755329, 0
1435, 1587593539, 0.94337964, 0.15535647, 0.1085442, -0.27234787, -0.8744491, -3.1352692, 3.5950022, 0
1436, 1587610206, 0.94331443, 0.15592997, 0.108470395, -0.27227524, -1.2748518, 2.988362, 0.32124424, 0
1439, 1587660207, 0.9426764, 0.15817033, 0.109882206, -0.27262586, -1.0008938, 1.3319343, 0.8567686, 0
1440, 1587676874, 0.94254225, 0.1585442, 0.11006862, -0.27279726, 0.144345, -0.666219, 2.3512974, 0
1441, 1587693541, 0.94240665, 0.159036, 0.11008084, -0.27297464, 0.14218375, 1.9322653, 0.65415096, 0
1443, 1587726875, 0.9422006, 0.15944943, 0.110105306, -0.27343458, 0.20229353, 1.3638505, 0.15530586, 0
1444, 1587743542, 0.9422937, 0.15910994, 0.10933666, -0.27362004, -0.2260366, -0.012313344, 2.7265415, 0
1445, 1587760209, 0.94206095, 0.15941632, 0.110051334, -0.27395672, 0.35494035, -1.3268039, 0.28849125, 0
1447, 1587793543, 0.9416573, 0.16104114, 0.11152506, -0.27379778, -0.6056644, 1.4960309, 0.6265087, 0
1448, 1587810210, 0.94178003, 0.16179495, 0.11102459, -0.27313384, -1.6694361, 4.43598, -1.1297684, 0
1449, 1587826877, 0.9417906, 0.16330522, 0.11081456, -0.272283, -1.3740472, 1.1974778, -0.26565075, 0
1451, 1587860211, 0.9419825, 0.16591062, 0.11025471, -0.27026397, -0.4744515, -1.6769942, 2.808854, 0
1452, 1587876878, 0.94212323, 0.16726044, 0.10991089, -0.26907852, -0.46229586, 1.0223582, 1.4095621, 0
1453, 1587893545, 0.9421271, 0.16874926, 0.110308066, -0.2679709, 0.28699192, 1.436385, -1.2932863, 0
1455, 1587926879, 0.94210696, 0.17184792, 0.10995994, -0.26620978, -0.60257405, 2.3887038, -0.64725685, 0
1456, 1587943546, 0.94186056, 0.17391431, 0.11027227, -0.26560983, 0.07751597, -1.5072373, 2.5253763, 0
1458, 1587976880, 0.94142026, 0.1784665, 0.11008796, -0.2642236, 0.885948, 3.696501, -2.5977283, 0
1459, 1587993547, 0.9411957, 0.17991109, 0.11029421, -0.26395813, 0.42197984, 0.23659933, 0.07899475, 0
1460, 1588010214, 0.941089, 0.18057896, 0.10981708, -0.26408163, -0.06105491, 1.1685773, 2.7553787, 0
1462, 1588043548, 0.9404719, 0.1825799, 0.10963268, -0.2649789, 1.3210078, 2.6000783, 1.5788193, 0
1463, 1588060215, 0.93982124, 0.18408605, 0.11081609, -0.2657521, 2.1363132, 2.8079386, -0.017498016, 0
1466, 1588110216, 0.93792355, 0.18729432, 0.112817176, -0.26934874, 0.15286207, 4.3360367, 1.6202793, 0
1467, 1588126883, 0.9369873, 0.18829507, 0.11435818, -0.2712529, 1.9003228, 3.1581006, 0.9506922, 0
1468, 1588143550, 0.93579173, 0.18931532, 0.11694996, -0.27355543, 3.2200942, 2.0354376, -1.2543888, 0
1470, 1588176884, 0.93386006, 0.19014974, 0.11963118, -0.27837574, 0.5048145, 3.7574902, -0.3194437, 0
1471, 1588193551, 0.93288505, 0.19083206, 0.12071505, -0.2807007, 0.62146133, 3.305122, -0.73253345, 0
1472, 1588210218, 0.9322929, 0.19050598, 0.119997315, -0.28318614, 2.193845, 4.0828466, 1.2760305, 0
1474, 1588243552, 0.9310461, 0.18934552, 0.11672103, -0.28936818, 2.903228, -0.24173331, -5.109537, 0
1475, 1588260219, 0.93053246, 0.18920949, 0.1148862, -0.29183343, 2.8961816, -4.7254333, -2.8570104, 0
1476, 1588276886, 0.9303906, 0.18813008, 0.11139204, -0.29432726, 3.6271174, -4.1509852, 2.827674, 0
1478, 1588310220, 0.92948604, 0.18829413, 0.107196085, -0.29860744, 2.9882383, -3.7713408, -1.5839624, 0
1480, 1588343554, 0.92856205, 0.18773742, 0.104166806, -0.30287427, -1.4171187, -5.148614, 2.8267288, 0
1482, 1588376888, 0.9280304, 0.18657525, 0.102081046, -0.3059167, 0.13501523, -9.705257, 3.8559942, 0
1483, 1588393555, 0.92806506, 0.18578808, 0.10225986, -0.30623016, 1.6261595, -9.877552, 0.9587097, 0
1485, 1588426889, 0.92878187, 0.18188004, 0.10249856, -0.3063238, -2.0726638, -5.001213, -0.109101295, 0
1486, 1588443556, 0.92914754, 0.18065487, 0.10322951, -0.30569348, -1.0098747, -3.7746868, -4.053866, 0
1487, 1588460223, 0.9294132, 0.17922264, 0.104466766, -0.30530816, 1.0813841, -6.649824, -0.80305576, 0
1489, 1588493557, 0.93002224, 0.17387554, 0.10638455, -0.30588296, 1.1189553, -4.3492746, 3.122013, 0
1490, 1588510224, 0.93035674, 0.1700967, 0.10803595, -0.30641103, -0.05881453, -2.2802382, -0.39470577, 0
1491, 1588526891, 0.9308467, 0.16624124, 0.10891977, -0.30672643, -1.0049174, -2.1374445, -0.599823, 0
1493, 1588560225, 0.9320618, 0.15857445, 0.10917304, -0.30700493, -1.2340024, 0.542965, 0.2687416, 0
1495, 1588593559, 0.933287, 0.15304606, 0.109260656, -0.30605632, -1.6255772, -0.7220715, 2.680519, 0
1497, 1588626893, 0.9343779, 0.14968516, 0.11014828, -0.30406526, -3.4769793, -3.3426135, 1.5603905, 0
1498, 1588643560, 0.93526393, 0.14870937, 0.11001983, -0.30185828, -3.5023391, 1.9230717, 0.9842272, 0
1501, 1588693561, 0.93779296, 0.14776954, 0.1110296, -0.29400143, -2.4326696, 0.9894791, 2.4751234, 0
1502, 1588710228, 0.9388195, 0.14669448, 0.10986732, -0.29169148, -2.3273184, 1.3186563, 3.474763, 0
1503, 1588726895, 0.93954515, 0.14684296, 0.110143304, -0.28916532, -1.0832119, 1.6914512, -0.7951803, 0
1505, 1588760229, 0.94087124, 0.14672248, 0.110707864, -0.28466454, -1.1487719, 0.44661978, 0.32084846, 0
1506, 1588776896, 0.94168186, 0.14624745, 0.11002364, -0.2824853, -2.3961048, 1.547215, 1.835515, 0
1507, 1588793563, 0.94241357, 0.14650011, 0.10936056, -0.28016236, -1.4977317, 1.2514409, 2.4820127, 0
1509, 1588826897, 0.9432217, 0.14838676, 0.1095812, -0.27633718, 1.4681464, 0.9573936, -2.6631808, 0
1511, 1588860231, 0.94399726, 0.14695457, 0.10987256, -0.2743313, -1.426575, 0.024627594, 1.0954523, 0
1513, 1588893565, 0.94501853, 0.14432462, 0.10840053, -0.27279234, -0.7773555, 2.0854204, -0.120619774, 0
1514, 1588910232, 0.9451146, 0.14412466, 0.10893831, -0.27235046, 0.9874715, -0.97387844, -0.5685854, 0
1516, 1588943566, 0.94551957, 0.14428443, 0.1095672, -0.27060336, -1.0325526, 0.29546323, 1.4553318, 0
1517, 1588960233, 0.9457884, 0.14564295, 0.109685995, -0.26888195, -1.6629555, 1.4022639, 1.4809809, 0
1518, 1588976900, 0.9460846, 0.14687033, 0.10969913, -0.26716167, -1.460518, 3.0547018, -1.7346268, 0
1520, 1589010234, 0.9461912, 0.15090452, 0.111245334, -0.26387668, -1.4098648, -0.99151087, 1.4776878, 0
1521, 1589026901, 0.9462075, 0.15246688, 0.11218599, -0.26251745, -0.7675502, -1.67801, 1.523139, 0
1522, 1589043568, 0.9461713, 0.15408543, 0.11311681, -0.2613011, -0.69948995, 0.9168232, -1.2222672, 0
1524, 1589076902, 0.9465243, 0.1562852, 0.11309242, -0.258714, -0.27411762, 1.5450345, 1.2516241, 0
1525, 1589093569, 0.94666433, 0.15740506, 0.11296576, -0.25757557, -0.38946295, -0.0407116, 1.55054, 0
1526, 1589110236, 0.9467088, 0.15893702, 0.11284288, -0.25652298, 0.30959395, -0.15415977, 1.3388863, 0
1528, 1589143570, 0.9462327, 0.16210383, 0.11523436, -0.2552317, 1.2808017, -1.9266003, -1.3782005, 0
1529, 1589160237, 0.94637704, 0.16226788, 0.11423735, -0.25504065, -1.4130354, 0.9459418, 2.7037773, 0
1530, 1589176904, 0.9465002, 0.1626356, 0.1125803, -0.25508606, -1.8810312, -0.81835014, 4.3965178, 0
1532, 1589210238, 0.945732, 0.16696703, 0.11294353, -0.25497696, 3.5595276, 2.5730088, -1.6014204, 0
1533, 1589226905, 0.94517934, 0.16900581, 0.11389442, -0.25525984, 2.3264408, 1.4750056, -0.9937153, 0
1534, 1589243572, 0.94487023, 0.17036642, 0.11393183, -0.2554829, -0.7554241, 0.186844, -0.4051056, 0
1536, 1589276906, 0.94433683, 0.17256816, 0.11360128, -0.25612321, -0.3742663, 1.4258864, 0.83665943, 0
1539, 1589326907, 0.94297314, 0.17497806, 0.114177935, -0.2592376, 1.5858771, 3.388156, -0.32020187, 0
1540, 1589343574, 0.9428016, 0.17560095, 0.11326696, -0.259839, 0.7705732, 3.1750596, -0.15174675, 0
1541, 1589360241, 0.9425584, 0.17592323, 0.11253583, -0.2608193, 0.37208202, 1.1156094, 0.5053911, 0
1543, 1589393575, 0.9418951, 0.17687847, 0.11222398, -0.26269707, 0.36527348, -1.1349195, 0.65498257, 0
1544, 1589410242, 0.9415535, 0.17763522, 0.11232168, -0.26336846, 1.6924666, -1.0976183, 0.6779089, 0
1545, 1589426909, 0.9411417, 0.17805855, 0.112739466, -0.26437384, 0.7599778, 1.4711819, -1.3546782, 0
1547, 1589460243, 0.94065714, 0.17795165, 0.112316296, -0.26634383, -0.18712069, 0.30145976, 1.4052992, 0
1548, 1589476910, 0.94058704, 0.17794307, 0.1115026, -0.26693782, 1.0556444, 0.33314618, 1.3084345, 0
1549, 1589493577, 0.94038427, 0.17794032, 0.111227676, -0.26776743, 1.6468639, 1.4380069, 0.22430325, 0
1551, 1589526911, 0.93999326, 0.17762296, 0.110718116, -0.26955637, -0.6291064, -2.2617927, 2.1642895, 0
1553, 1589560245, 0.9398608, 0.17692375, 0.109864786, -0.27082372, 1.0385467, -2.3111393, 1.3764219, 0
1555, 1589593579, 0.93972886, 0.17624018, 0.10898714, -0.27207965, 0.15525255, 0.55973417, 0.78515816, 0
1556, 1589610246, 0.9395456, 0.17660038, 0.10923013, -0.27238166, 1.1191323, -7.3490663, 0.32080173, 0
1557, 1589626913, 0.9393987, 0.17666504, 0.109455705, -0.27275506, -0.13289745, 3.5078015, 0.6006212, 0
1559, 1589660247, 0.93914235, 0.177096, 0.10986427, -0.27319354, 1.5381643, -1.7277355, -2.9714265, 0
1560, 1589676914, 0.9391904, 0.17655665, 0.10854919, -0.27390233, 0.11559352, 3.1754417, 4.1298065, 0
1561, 1589693581, 0.9388442, 0.17647548, 0.109498605, -0.2747624, 1.6163746, -13.920704, -3.349133, 0
1563, 1589726915, 0.9388102, 0.17554495, 0.10820545, -0.27598414, 0.035303988, -6.359377, 3.3269043, 0
1564, 1589743582, 0.9384953, 0.17553355, 0.11032854, -0.2762222, 2.6441, -6.8122396, -4.161909, 0
1566, 1589776916, 0.93825173, 0.17505845, 0.10965604, -0.27761504, 1.3823525, -13.981952, -0.45441723, 0
1568, 1589810250, 0.93779695, 0.17600438, 0.111640215, -0.27776304, 1.4414066, -6.2883286, -0.016786575, 0
1570, 1589843584, 0.93774754, 0.17544426, 0.111099906, -0.2784998, -2.5548518, 4.669651, 3.9721012, 0
1571, 1589860251, 0.93745035, 0.1762273, 0.112375356, -0.27849415, 2.7769651, -14.711965, -1.7791166, 0
1572, 1589876918, 0.93740034, 0.17652819, 0.11291667, -0.27825275, 0.8654531, 10.918748, -1.1011496, 0
1574, 1589910252, 0.93695885, 0.17665944, 0.11338999, -0.27946135, -0.016180998, -2.6508224, -2.7622514, 0
1575, 1589926919, 0.9368027, 0.17765453, 0.11324029, -0.27941504, -0.33985636, 2.5067263, 1.7253723, 0
1576, 1589943586, 0.9364935, 0.1781105, 0.11401351, -0.2798461, 3.4306502, -11.504297, -0.73999786, 0
1578, 1589976920, 0.9360856, 0.17822286, 0.1139308, -0.28116953, 0.7564949, -6.610613, 1.880311, 0
1579, 1589993587, 0.93589854, 0.17816058, 0.11421481, -0.28171635, 1.0312705, -7.358601, 0.18768692, 0
1580, 1590010254, 0.93577635, 0.1781157, 0.11395166, -0.28225678, 1.115817, 1.5597613, 0.07202625, 0
1583, 1590060255, 0.9351765, 0.17857805, 0.11380949, -0.2840045, 0.46347702, 2.2478034, -2.9536824, 0
1584, 1590076922, 0.93530154, 0.17812821, 0.11214066, -0.28453878, 0.49492115, -3.7455869, 4.429034, 0
1586, 1590110256, 0.9346953, 0.17890787, 0.11337419, -0.28555077, -0.1886979, -0.75272155, -2.324964, 0
1587, 1590126923, 0.9347434, 0.17858303, 0.11260512, -0.28590074, 1.1586488, 0.90850973, 0.7703457, 0
1588, 1590143590, 0.93480384, 0.17774142, 0.111688815, -0.28658703, 1.03322, -4.1724916, 1.5614262, 0
1590, 1590176924, 0.9343381, 0.17811555, 0.113128826, -0.28730762, 0.74593854, -1.0096525, -0.81846523, 0
1591, 1590193591, 0.9342574, 0.17784043, 0.11298545, -0.28779614, 1.9743277, -6.013891, 1.6520205, 0
1593, 1590226925, 0.93391424, 0.17761078, 0.11315138, -0.28898466, -0.4904537, 0.25874233, 0.3603077, 0
1594, 1590243592, 0.93379116, 0.17756298, 0.11304552, -0.2894526, 1.0172068, -3.3080606, 0.84665775, 0
1595, 1590260259, 0.93354785, 0.17777465, 0.113415815, -0.28996217, 1.7482123, -5.5651517, -0.306736, 0
1597, 1590293593, 0.93338454, 0.17741199, 0.11241077, -0.2910993, -0.38121185, 0.3431874, 2.1808538, 0
1598, 1590310260, 0.93317306, 0.17766304, 0.11233086, -0.2916544, 0.62470037, -11.945482, 1.9971848, 0
1599, 1590326927, 0.9328792, 0.17833623, 0.11323718, -0.29183307, 1.1377711, -1.184424, -1.7593975, 0
1601, 1590360261, 0.93266845, 0.17801894, 0.11280083, -0.29286772, -0.6904612, 0.5558095, 1.0351925, 0
1602, 1590376928, 0.9326365, 0.17788367, 0.11210106, -0.29332012, -0.6370915, -5.748767, 1.9700737, 0
1603, 1590393595, 0.9324346, 0.17821103, 0.11273034, -0.2935217, 1.5325978, -7.845207, -0.12220192, 0
1605, 1590426929, 0.9321306, 0.17757523, 0.11315991, -0.2947053, 1.1796848, -3.3800216, 0.5156412, 0
1606, 1590443596, 0.9320792, 0.17729671, 0.112861566, -0.2951491, -0.63522404, -2.855756, 0.95280457, 0
1607, 1590460263, 0.9319197, 0.17751454, 0.113290064, -0.29535776, 0.6813338, -5.114058, 0.25959587, 0
1610, 1590510264, 0.9317088, 0.17712577, 0.11240161, -0.29659355, 0.06290571, -4.964349, 1.7941599, 0
1611, 1590526931, 0.93161446, 0.17736171, 0.11234725, -0.29676935, 0.54439247, -5.545257, 0.26173973, 0
1613, 1590560265, 0.93147695, 0.17716788, 0.11197947, -0.29745507, -0.08255898, 3.2422566, -0.21683979, 0
1614, 1590576932, 0.9315135, 0.17666826, 0.11108969, -0.2979711, -0.05912823, -5.483125, 2.5621529, 0
1615, 1590593599, 0.93142664, 0.17682567, 0.1108883, -0.29822418, 0.5002554, -5.739905, 1.4889202, 0
1617, 1590626933, 0.9309773, 0.1770109, 0.11168371, -0.29921868, 1.1844702, 1.129034, -2.5501966, 0
1618, 1590643600, 0.9308642, 0.17699346, 0.111374974, -0.2996956, 0.119005784, 1.7753904, -0.9060011, 0
1620, 1590676934, 0.9308293, 0.17675048, 0.10964616, -0.30058357, 0.6385507, -7.074574, 2.6675406, 0
1621, 1590693601, 0.93054205, 0.17695072, 0.1101544, -0.3011691, 1.9100612, -5.841443, -0.29702473, 0
1622, 1590710268, 0.9302366, 0.17697299, 0.1107149, -0.3018926, 1.8747982, -1.2484112, -1.7985077, 0
1625, 1590760269, 0.9299535, 0.17543449, 0.10921842, -0.30419913, -0.12830058, -4.2119317, 2.4355783, 0
1626, 1590776936, 0.9297519, 0.17518313, 0.108936094, -0.3050604, 1.227534, -5.5563297, 2.1039753, 0
1628, 1590810270, 0.9290886, 0.17474507, 0.10950167, -0.3071232, 1.5597209, -2.693938, -2.04284, 0
1629, 1590826937, 0.92888504, 0.17393798, 0.10940845, -0.30822834, -0.04830059, -0.2298693, -1.446702, 0
1630, 1590843604, 0.92877495, 0.1728665, 0.10896543, -0.30931798, -0.45653504, -1.9270724, 0.12725258, 0
1632, 1590876938, 0.9285524, 0.17080218, 0.10734434, -0.31169075, 0.89147514, -4.9420867, 1.9855537, 0
1633, 1590893605, 0.9283842, 0.16984016, 0.10704735, -0.31281728, 1.0576911, -3.9350054, 0.07745075, 0
1634, 1590910272, 0.92820597, 0.16930455, 0.10697529, -0.31366017, 1.0226419, -4.9447064, -0.14514732, 0
1636, 1590943606, 0.92771435, 0.16849251, 0.10714124, -0.31548968, -0.0070834607, -3.8376682, 0.006467819, 0
1637, 1590960273, 0.92752415, 0.16827428, 0.107082844, -0.31618437, -1.002885, -4.3547487, 0.65318966, 0
1640, 1591010274, 0.9271947, 0.16771176, 0.10701966, -0.31746843, -0.29110852, -2.7651687, 0.37520123, 0
1641, 1591026941, 0.9271145, 0.16763939, 0.10729486, -0.31764773, -0.06945196, -6.0984488, 0.7877369, 0
1642, 1591043608, 0.92703277, 0.16772515, 0.10767667, -0.317712, 0.48074305, -2.7362003, -0.36954498, 0
1644, 1591076942, 0.92688155, 0.16750696, 0.108603545, -0.31795266, -0.5130732, -1.3563153, -0.48987198, 0
1645, 1591093609, 0.926895, 0.16746429, 0.108934104, -0.3178227, -0.6763443, -1.7219719, 0.10056877, 0
1647, 1591126943, 0.9270836, 0.1670861, 0.10904817, -0.31743217, 0.4613722, -1.820377, 1.1445036, 0
1648, 1591143610, 0.927098, 0.16688019, 0.10943164, -0.3173665, 0.6407114, -3.5194113, 0.21447945, 0
1649, 1591160277, 0.9271384, 0.16684212, 0.10974446, -0.31716064, 0.1792718, -2.0301065, 0.45190716, 0
1651, 1591193611, 0.9271282, 0.16671701, 0.11069664, -0.3169251, 0.78854007, -3.5033443, -0.24600315, 0
1652, 1591210278, 0.927112, 0.16654803, 0.11107228, -0.31692985, 0.10983326, -4.480069, 0.102516174, 0
1655, 1591260279, 0.9272629, 0.16569433, 0.11162872, -0.31674019, 0.87775517, -3.1107895, 0.36269188, 0
1656, 1591276946, 0.92731047, 0.16526793, 0.11175002, -0.3167811, 0.68973994, -3.510256, 0.57279205, 0
1657, 1591293613, 0.92736197, 0.1649002, 0.111875504, -0.31677765, 0.5941711, -4.257791, 0.85838604, 0
1659, 1591326947, 0.92735845, 0.16455172, 0.11225833, -0.31683365, 0.91690946, -3.6835744, 0.01709652, 0
1660, 1591343614, 0.9273232, 0.16438708, 0.11246024, -0.31695065, 0.5785625, -3.980261, 0.27857494, 0
1661, 1591360281, 0.9273174, 0.16429952, 0.11258876, -0.31696725, 0.18265177, -4.3445888, 0.34396744, 0
1663, 1591393615, 0.927317, 0.16419551, 0.11266337, -0.31699625, 0.8928745, -4.2229095, 0.18843651, 0
1664, 1591410282, 0.9273168, 0.16393693, 0.11264872, -0.31713536, 0.9982467, -4.3708334, 0.22480679, 0
1665, 1591426949, 0.9273189, 0.16374828, 0.11282362, -0.31716475, 0.39212275, -3.8944852, -0.39922142, 0
1667, 1591460283, 0.92745626, 0.16337356, 0.11296572, -0.31690574, 0.045731086, 0.06552524, 0.20492458, 0
1668, 1591476950, 0.9275896, 0.16290775, 0.11253789, -0.3169072, -0.56451607, 1.301932, 1.0429354, 0
1669, 1591493617, 0.92772555, 0.1625787, 0.11209128, -0.31683657, -0.8847578, 2.0166912, 1.0506086, 0
1671, 1591526951, 0.92791075, 0.16263898, 0.11151201, -0.31646743, 0.914129, 1.5145802, 0.6478033, 0
1672, 1591543618, 0.92797863, 0.1624154, 0.11131016, -0.3164548, 0.3531661, 0.73125, 0.5778389, 0
1674, 1591576952, 0.9280559, 0.16233292, 0.1115524, -0.31618485, -0.27981642, -0.9613876, 0.17305279, 0
1675, 1591593619, 0.92806554, 0.16207597, 0.11188684, -0.31617033, 0.059035584, -1.5618736, -0.006549835, 0
1676, 1591610286, 0.9280725, 0.16162226, 0.112262316, -0.31624895, -0.20554274, -1.5875882, -0.1165123, 0
1678, 1591643620, 0.9281213, 0.16024412, 0.11289404, -0.31658188, 0.26611194, -0.98011994, 0.31329727, 0
1679, 1591660287, 0.928203, 0.15953624, 0.11303833, -0.31664872, -0.31248507, 0.20406179, 0.23336887, 0
1682, 1591710288, 0.928648, 0.15741217, 0.11278233, -0.31649825, 0.04983836, 1.276813, 0.6497259, 0
1683, 1591726955, 0.9287691, 0.15677248, 0.11265387, -0.31650606, 0.047735143, 0.51121795, 0.52618694, 0
1684, 1591743622, 0.9288768, 0.15635678, 0.11261799, -0.31640828, 0.43418208, -0.060120683, 0.4417944, 0
1686, 1591776956, 0.9289857, 0.15597284, 0.11275533, -0.3162291, 0.13575529, -0.57997787, 0.10508728, 0
1687, 1591793623, 0.9289712, 0.15590715, 0.1129543, -0.3162332, -0.36580902, -0.56672627, 0.09960842, 0
1688, 1591810290, 0.92896545, 0.15581495, 0.1130635, -0.31625628, -0.33887112, -0.48755327, 0.15169811, 0
1690, 1591843624, 0.92904675, 0.15513308, 0.11270198, -0.31648168, 0.19878148, -0.28708133, 0.32629108, 0
