sep=,
DeviceTag:,Xsens_DOT_4,,,,,,,,,,,,,,,,,
FirmwareVersion:,3.0.0,,,,,,,,,,,,,,,,,
AppVersion:,2023.6.1,,,,,,,,,,,,,,,,,
SyncStatus:,Synced,,,,,,,,,,,,,,,,,
OutputRate:,60Hz,,,,,,,,,,,,,,,,,
FilterProfile:,General,,,,,,,,,,,,,,,,,
Measurement Mode:,Sensor fusion Mode - Extended (Quaternion),,,,,,,,,,,,,,,,,
StartTime:,2025-05-05 11:32:50.671 +0200,,,,,,,,,,,,,,,,,
 2025,,,,,,,,,,,,,,,,,,,

PacketCounter,SampleTimeFine,Quat_W,Quat_X,Quat_Y,Quat_Z,FreeAcc_X,FreeAcc_Y,FreeAcc_Z,Status
1, 1563693061, -0.5155194, -0.45716217, 0.46814844, -0.55323964, -0.009426212, 0.0658344, 0.05360222, 0
2, 1563709728, -0.5155245, -0.4571894, 0.46814027, -0.55321926, -0.013826512, 0.06026155, 0.0533638, 0
3, 1563726395, -0.5155453, -0.4571978, 0.46812865, -0.55320287, 0.0030619039, 0.01878783, 0.077890396, 0
4, 1563743062, -0.51557356, -0.45721418, 0.4681189, -0.55317104, 0.012064558, 0.046560653, 0.05644512, 0
5, 1563759729, -0.515619, -0.45720327, 0.46811533, -0.5531407, 0.025916997, 0.07642176, 0.045859337, 0
6, 1563776396, -0.51564974, -0.45719042, 0.46812212, -0.5531169, -0.01851939, 0.067871496, 0.030373573, 0
7, 1563793063, -0.51565266, -0.45720086, 0.46813095, -0.553098, -0.0060681533, 0.08154133, 0.06990433, 0
8, 1563809730, -0.5156528, -0.45720994, 0.468142, -0.55308104, 0.0133473, 0.07705006, 0.07997894, 0
9, 1563826397, -0.51565856, -0.45720312, 0.46815777, -0.5530681, 0.011445428, 0.07017368, 0.057590485, 0
10, 1563843064, -0.5156485, -0.45720366, 0.46816304, -0.5530725, -0.023303013, 0.06811892, 0.068841934, 0
11, 1563859731, -0.5156678, -0.45720753, 0.4681541, -0.553059, 0.0359382, 0.07761912, 0.07173729, 0
12, 1563876398, -0.5156835, -0.45720214, 0.46815646, -0.55304676, 0.07685255, 0.109321, 0.08590031, 0
13, 1563893065, -0.5156999, -0.45718879, 0.46816558, -0.55303466, 0.028094685, 0.11519567, 0.06345463, 0
14, 1563909732, -0.5157049, -0.45718515, 0.46816194, -0.5530362, -0.043167282, 0.11660895, 0.05347824, 0
15, 1563926399, -0.5157303, -0.4571826, 0.4681615, -0.5530149, 0.0010022321, 0.08334061, 0.050971985, 0
16, 1563943066, -0.5157427, -0.4572008, 0.46815893, -0.55299056, 0.0591118, 0.08729008, 0.06371021, 0
17, 1563959733, -0.5157657, -0.45721415, 0.46814743, -0.5529679, 0.06479372, 0.052078072, 0.07932472, 0
18, 1563976400, -0.51579607, -0.45722598, 0.46814093, -0.55293536, 0.033593327, 0.022647673, 0.056012154, 0
19, 1563993067, -0.5158186, -0.45724234, 0.4681418, -0.5528998, 0.008962199, 0.048929445, 0.062208176, 0
20, 1564009734, -0.51585096, -0.45726055, 0.46812737, -0.5528668, 0.02363739, 0.082016066, 0.054769516, 0
21, 1564026401, -0.51589715, -0.4572613, 0.46811903, -0.55283016, 0.046877373, 0.090731956, 0.06950855, 0
22, 1564043068, -0.51592284, -0.45729554, 0.46809414, -0.55279905, 0.024337655, 0.10007636, 0.08277035, 0
23, 1564059735, -0.5159621, -0.45732737, 0.46807307, -0.5527539, 0.0018895785, 0.08090275, 0.083088875, 0
24, 1564076402, -0.51599616, -0.4573559, 0.46805456, -0.5527142, 0.006473664, 0.06946276, 0.06940651, 0
25, 1564093069, -0.51604486, -0.45736644, 0.46803004, -0.5526808, -0.006691084, 0.053412892, 0.06898403, 0
26, 1564109736, -0.51606953, -0.45739534, 0.46799362, -0.5526647, -0.036705073, 0.028859993, 0.06213951, 0
27, 1564126403, -0.51609963, -0.45741156, 0.46797433, -0.5526394, 0.007032835, 0.058192715, 0.0664196, 0
28, 1564143070, -0.5161194, -0.45743716, 0.46795654, -0.55261487, 0.051229168, 0.09160835, 0.05876255, 0
29, 1564159737, -0.5161795, -0.45740566, 0.4679906, -0.5525559, 0.019263912, 0.11456447, 0.057564735, 0
30, 1564176404, -0.51618624, -0.45741823, 0.46799296, -0.55253726, -0.03690601, 0.1052071, 0.062161446, 0
31, 1564193071, -0.516197, -0.45743343, 0.4679921, -0.5525154, -0.02527395, 0.05164781, 0.06236458, 0
32, 1564209738, -0.51619923, -0.45745268, 0.46798664, -0.552502, 0.006947453, 0.050412007, 0.07859516, 0
33, 1564226405, -0.5162277, -0.45745638, 0.46799815, -0.55246246, 0.05217664, 0.021451432, 0.031682014, 0
34, 1564243072, -0.51624674, -0.45745113, 0.46800852, -0.5524402, 0.057399243, 0.0063558146, 0.018677711, 0
35, 1564259739, -0.5162635, -0.45744008, 0.46801728, -0.5524262, 0.02365281, -0.055180654, 0.19117165, 0
36, 1564276406, -0.51627046, -0.45739943, 0.4680291, -0.55244344, 0.0044783056, 0.06906707, 0.05594921, 0
37, 1564293073, -0.5162792, -0.45733866, 0.4680481, -0.5524695, -0.03168799, 0.22257827, 0.11664295, 0
38, 1564309740, -0.5162839, -0.45724908, 0.46810248, -0.55249316, -0.08074294, 0.33257878, 0.0586586, 0
39, 1564326407, -0.5162136, -0.45711634, 0.46820664, -0.5525805, 0.055991113, 0.33757922, 0.043032646, 0
40, 1564343074, -0.5160558, -0.45691386, 0.46839547, -0.55273545, -0.09610252, 0.252767, -0.084347725, 0
41, 1564359741, -0.5158461, -0.4566912, 0.46864766, -0.55290127, -0.15805227, 0.09632626, -0.19769287, 0
42, 1564376408, -0.51559895, -0.45648393, 0.46892533, -0.5530675, 0.29214105, 0.004519432, 0.043049812, 0
43, 1564393075, -0.5153303, -0.45626417, 0.4692096, -0.5532582, 0.28397948, -0.011287181, 0.20161438, 0
44, 1564409742, -0.51513845, -0.45608687, 0.46942475, -0.55340046, -0.2535893, 0.0882009, 0.35660458, 0
45, 1564426409, -0.5150924, -0.45601973, 0.46946383, -0.55346537, -0.34313798, 0.16474625, 0.25931644, 0
46, 1564443076, -0.5151749, -0.45604357, 0.4693872, -0.55343395, 0.038307216, 0.21227384, 0.089084625, 0
47, 1564459743, -0.5153023, -0.45613837, 0.46924716, -0.5533561, 0.3546022, 0.07662002, 0.07168007, 0
48, 1564476410, -0.5154407, -0.4562499, 0.46909738, -0.5532623, 0.25383204, -0.20012791, 0.13117886, 0
49, 1564493077, -0.5155806, -0.45633742, 0.46892986, -0.5532016, 0.047971047, -0.390314, 0.09523773, 0
50, 1564509744, -0.51570797, -0.4563931, 0.4688091, -0.5531394, -0.017148808, -0.28911468, -0.018947601, 0
51, 1564526411, -0.51580197, -0.4564168, 0.46874204, -0.5530891, 0.017212734, -0.041087717, -0.042250633, 0
52, 1564543078, -0.51588, -0.45639527, 0.46874285, -0.55303323, -0.034985814, 0.10645967, -0.03665924, 0
53, 1564559745, -0.5159077, -0.4563642, 0.4687591, -0.5530193, -0.06393745, 0.16526727, 0.0246315, 0
54, 1564576412, -0.5159243, -0.4563019, 0.4688084, -0.5530135, -0.0875089, 0.12611808, -0.029779434, 0
55, 1564593079, -0.5158948, -0.45621872, 0.46889314, -0.5530376, -0.03401331, 0.104135804, 0.07012653, 0
56, 1564609746, -0.5158126, -0.4561077, 0.46900582, -0.5531103, -0.07379325, 0.09876948, 0.107559204, 0
57, 1564626413, -0.51569796, -0.45598984, 0.4691284, -0.5532105, -0.11689124, 0.1008182, -0.017098427, 0
58, 1564643080, -0.5155497, -0.45587125, 0.46926424, -0.55333126, -0.054839797, 0.1265879, 0.036491394, 0
59, 1564659747, -0.515365, -0.45573917, 0.4694133, -0.55348575, -0.10857298, 0.116019316, 0.08627319, 0
60, 1564676414, -0.51519936, -0.45561782, 0.46954897, -0.5536247, -0.23266, 0.070283875, 0.1054945, 0
61, 1564693081, -0.5150388, -0.45552704, 0.46964765, -0.5537652, -0.14559545, 0.06289744, 0.04271412, 0
62, 1564709748, -0.514884, -0.45542264, 0.46977144, -0.55388993, -0.027125021, 0.07893915, 0.07213974, 0
63, 1564726415, -0.5146806, -0.45531258, 0.46989164, -0.5540674, 0.06747789, 0.032631774, 0.09559059, 0
64, 1564743082, -0.5144516, -0.45516428, 0.47003558, -0.5542796, -0.011790085, -0.01727487, 0.07587528, 0
65, 1564759749, -0.51418555, -0.45501292, 0.47018218, -0.55452645, -0.028401569, -0.026330274, 0.0016613007, 0
66, 1564776416, -0.513911, -0.45484054, 0.4703609, -0.5547708, 0.043784846, 0.050872218, 0.06979561, 0
67, 1564793083, -0.5136373, -0.4546407, 0.47055346, -0.55502474, 0.047574956, 0.083600104, 0.03885746, 0
68, 1564809750, -0.51337504, -0.45444718, 0.4707501, -0.5552591, -0.0073359185, 0.120436825, 0.07250118, 0
69, 1564826417, -0.51314366, -0.45427445, 0.47092363, -0.55546725, 0.085994154, 0.1281811, 0.07208729, 0
70, 1564843084, -0.5129439, -0.4541195, 0.47108173, -0.5556441, 0.19644353, 0.11143596, 0.1560278, 0
71, 1564859751, -0.5127832, -0.45398527, 0.4711884, -0.55581176, 0.22611621, 0.083069034, 0.10567188, 0
72, 1564876418, -0.5126718, -0.45388773, 0.47127765, -0.5559185, 0.14424677, 0.12393995, 0.09420681, 0
73, 1564893085, -0.51264584, -0.45383984, 0.47131076, -0.55595344, 0.13322423, 0.10444738, 0.012609482, 0
74, 1564909752, -0.5126591, -0.4538765, 0.4712945, -0.5559251, 0.2336433, 0.094536506, 0.077207565, 0
75, 1564926419, -0.5127452, -0.45395234, 0.4712302, -0.5558382, 0.25063202, 0.049212858, 0.08342934, 0
76, 1564943086, -0.51290613, -0.45407102, 0.47111872, -0.5556873, 0.18556984, 0.018230164, 0.07034588, 0
77, 1564959753, -0.5131229, -0.45424855, 0.47095492, -0.5554809, 0.15668169, 0.044674877, 0.04909706, 0
78, 1564976420, -0.5133921, -0.4544518, 0.4707634, -0.5552282, 0.16601738, 0.050531585, 0.07884884, 0
79, 1564993087, -0.51370364, -0.45471004, 0.47054467, -0.5549139, 0.1419723, 0.06980824, 0.06307316, 0
80, 1565009754, -0.5140799, -0.45499173, 0.4702848, -0.5545549, 0.12595692, 0.0851191, 0.047593117, 0
81, 1565026421, -0.51449037, -0.4553016, 0.46999097, -0.5541689, 0.12431925, 0.07433996, 0.06254768, 0
82, 1565043088, -0.514936, -0.45565492, 0.46966845, -0.5537378, 0.13663213, 0.07649239, 0.060077667, 0
83, 1565059755, -0.51539236, -0.45600995, 0.46935079, -0.55329007, 0.064749025, 0.048228063, 0.09345436, 0
84, 1565076422, -0.5158747, -0.4563779, 0.46900713, -0.55282843, -0.042137332, 0.016839914, 0.048295975, 0
85, 1565093089, -0.5163579, -0.4567685, 0.4686406, -0.5523653, 0.020870522, 0.04596477, 0.0701561, 0
86, 1565109756, -0.5168413, -0.45715505, 0.4682817, -0.55189776, 0.06295868, 0.06854159, 0.057617188, 0
87, 1565126423, -0.5173117, -0.4575446, 0.46793094, -0.55143136, -0.02941701, 0.11446015, 0.04493332, 0
88, 1565143090, -0.517767, -0.45793092, 0.46758038, -0.5509806, -0.077298604, 0.12415206, 0.02777195, 0
89, 1565159757, -0.5182014, -0.45829356, 0.46725753, -0.5505445, -0.02509067, 0.066497564, 0.025509834, 0
90, 1565176424, -0.51858044, -0.45863605, 0.4669632, -0.55015177, -0.067001134, 0.05699223, 0.08780861, 0
91, 1565193091, -0.5189299, -0.4589406, 0.46670353, -0.5497887, -0.1393572, 0.013319137, 0.08884239, 0
92, 1565209758, -0.5192551, -0.45923197, 0.46643656, -0.54946476, -0.10347264, 0.046826858, 0.084251404, 0
93, 1565226425, -0.51955795, -0.4594647, 0.46622515, -0.54916316, -0.118408896, 0.0644846, 0.027701378, 0
94, 1565243092, -0.51980245, -0.4596597, 0.46604916, -0.54891807, -0.18289171, 0.1209252, 0.04450226, 0
95, 1565259759, -0.5199936, -0.45982075, 0.4659248, -0.5487077, -0.24662934, 0.085317574, 0.027899742, 0
96, 1565276426, -0.52011144, -0.45995435, 0.46583384, -0.5485612, -0.13627964, 0.039824422, 0.037379265, 0
97, 1565293093, -0.5201594, -0.46000448, 0.465807, -0.5484966, -0.070431836, -0.0117002325, 0.0828495, 0
98, 1565309760, -0.52014923, -0.45999643, 0.46584347, -0.5484818, -0.18074375, -0.015833434, 0.13325119, 0
99, 1565326427, -0.52009386, -0.45992664, 0.46590707, -0.5485388, -0.22350378, 0.0585057, 0.07226658, 0
100, 1565343094, -0.51995295, -0.45983297, 0.46599224, -0.54867846, -0.16241948, 0.15230642, 0.10651493, 0
101, 1565359761, -0.51976687, -0.45965853, 0.46616197, -0.54885703, -0.14298436, 0.15141237, 0.06404209, 0
102, 1565376428, -0.519543, -0.4594691, 0.46636915, -0.54905134, -0.1724208, 0.12955347, 0.0560627, 0
103, 1565393095, -0.519301, -0.4592862, 0.4665458, -0.5492832, -0.06531406, 0.07152727, 0.051418304, 0
104, 1565409762, -0.519046, -0.45909137, 0.46672434, -0.5495354, 0.078833245, 0.046440627, 0.043278694, 0
105, 1565426429, -0.5187661, -0.458865, 0.46693754, -0.5498077, 0.073109746, 0.018264584, 0.075143814, 0
106, 1565443096, -0.51849145, -0.45860493, 0.46719468, -0.5500653, 0.0011573501, -0.001189983, 0.06894112, 0
107, 1565459763, -0.51821417, -0.45836318, 0.46743056, -0.5503274, -0.06005212, 0.008887098, 0.062173843, 0
108, 1565476430, -0.51795906, -0.45817795, 0.46760795, -0.55057114, 0.029273938, 0.11284588, 0.11598492, 0
109, 1565493097, -0.51774037, -0.45800972, 0.46776932, -0.55077976, 0.12676649, 0.07941527, 0.060281754, 0
110, 1565509764, -0.517557, -0.4578646, 0.46790278, -0.55095947, 0.13181363, 0.12517776, 0.10472107, 0
111, 1565526431, -0.5174252, -0.4577515, 0.46799412, -0.55109966, 0.15010184, 0.17204927, 0.07000542, 0
112, 1565543098, -0.51731855, -0.45767564, 0.46806183, -0.55120504, 0.2263091, 0.19230339, 0.07449055, 0
113, 1565559765, -0.5172391, -0.45761177, 0.46811783, -0.5512851, 0.15290275, 0.14143856, 0.073036194, 0
114, 1565576432, -0.5172036, -0.45754185, 0.4681769, -0.5513262, 0.061709244, 0.09203034, 0.07169914, 0
115, 1565593099, -0.51720005, -0.45750287, 0.46820244, -0.5513404, 0.08550287, 0.07476956, 0.09820461, 0
116, 1565609766, -0.5172154, -0.45750627, 0.46819395, -0.55133027, 0.14218867, 0.037688307, 0.10573578, 0
117, 1565626433, -0.5172988, -0.45751607, 0.46817636, -0.5512588, 0.1464363, 0.0591346, 0.065727234, 0
118, 1565643100, -0.5174178, -0.4575605, 0.4681133, -0.55116385, 0.13568488, 0.06056642, 0.03417015, 0
119, 1565659767, -0.51758343, -0.45762202, 0.46803644, -0.5510225, 0.08864479, 0.103281535, 0.038926125, 0
120, 1565676434, -0.51771426, -0.4577394, 0.46791792, -0.5509027, 0.046690293, 0.08606344, 0.05355072, 0
121, 1565693101, -0.5178883, -0.45784503, 0.4678149, -0.55073893, 0.007914817, 0.04996811, 0.058029175, 0
122, 1565709768, -0.51806164, -0.457955, 0.4677073, -0.55057585, 0.005713885, 0.044351675, 0.07378292, 0
123, 1565726435, -0.5182099, -0.45805523, 0.46759737, -0.5504464, 0.005681699, 0.035328906, 0.05642128, 0
124, 1565743102, -0.51835644, -0.4581505, 0.46749294, -0.55031765, -0.20653681, -0.053757675, 0.19447994, 0
125, 1565759769, -0.5184851, -0.45822284, 0.4673861, -0.55022687, 0.07153688, 0.10128289, 0.002272606, 0
126, 1565776436, -0.5185827, -0.45824105, 0.46733984, -0.55015904, 0.028170679, 0.26913643, 0.04767704, 0
127, 1565793103, -0.5186505, -0.458221, 0.46732953, -0.5501206, -0.2437677, 0.24853143, -0.08498287, 0
128, 1565809770, -0.51866734, -0.4581884, 0.46735603, -0.5501093, -0.22836341, 0.24326167, 0.007946968, 0
129, 1565826437, -0.51860166, -0.45805892, 0.46748924, -0.5501659, 0.021645665, 0.10572409, 0.0076389313, 0
130, 1565843104, -0.5184249, -0.45780402, 0.46775934, -0.550315, 0.006468912, -0.031986717, 0.07606506, 0
131, 1565859771, -0.51817787, -0.45750076, 0.46806237, -0.55054235, -0.1476531, -0.13981451, 0.19032383, 0
132, 1565876438, -0.5179443, -0.4571969, 0.46833768, -0.5507803, -0.13454631, -0.114212215, 0.14811897, 0
133, 1565893105, -0.5177242, -0.45691624, 0.46857086, -0.55102175, -0.022035249, 0.043943096, 0.07330227, 0
134, 1565909772, -0.51751727, -0.45665634, 0.4687833, -0.5512509, 0.016647022, 0.267389, -9.460449E-4, 0
135, 1565926439, -0.5173037, -0.45644808, 0.46897092, -0.55146426, -0.06994458, 0.3520707, 0.0958519, 0
136, 1565943106, -0.5170984, -0.45628196, 0.469121, -0.55166644, -0.12905444, 0.2914139, 0.14031029, 0
137, 1565959773, -0.5169046, -0.4561096, 0.4692589, -0.5518734, -0.08187481, 0.056075823, 0.13439369, 0
138, 1565976440, -0.51667243, -0.45592776, 0.46938828, -0.55213094, -0.12509282, -0.082797244, 0.0685873, 0
139, 1565993107, -0.516438, -0.45573488, 0.46954715, -0.5523743, -0.119361505, -0.21515134, -0.005159378, 0
140, 1566009774, -0.5161748, -0.45552537, 0.4697257, -0.5526413, 0.042568937, -0.26965296, -0.03674507, 0
141, 1566026441, -0.5158923, -0.4552687, 0.4699402, -0.5529341, 0.1416026, -0.17492549, -0.031593323, 0
142, 1566043108, -0.51557, -0.45499182, 0.47021738, -0.5532272, 0.11434163, -0.040196795, 0.0532341, 0
143, 1566059775, -0.51524395, -0.4546956, 0.4704964, -0.55353713, -0.10534389, 0.112868235, 0.04587841, 0
144, 1566076442, -0.5149273, -0.45443004, 0.47073033, -0.5538507, -0.1899936, 0.3109139, 0.08136082, 0
145, 1566093109, -0.5146187, -0.4541812, 0.47096407, -0.5541431, -0.016405404, 0.34804723, 0.15325165, 0
146, 1566109776, -0.51432174, -0.4538806, 0.4712268, -0.5544415, 0.15367834, 0.29030222, 0.1506691, 0
147, 1566126443, -0.5140235, -0.45356882, 0.47149122, -0.5547484, 0.12084496, 0.17692593, 0.054636, 0
148, 1566143110, -0.5136996, -0.453318, 0.47171727, -0.5550612, 0.11152402, 0.16222772, 0.06740761, 0
149, 1566159777, -0.5134061, -0.45306358, 0.47192293, -0.5553654, 0.120637454, 0.039218806, 0.019690514, 0
150, 1566176444, -0.51314044, -0.45284018, 0.4721301, -0.555617, 0.044509027, -0.06281452, 0.043271065, 0
151, 1566193111, -0.5129246, -0.45264366, 0.4723103, -0.5558232, -0.004285861, -0.14514887, 0.04134655, 0
152, 1566209778, -0.5127719, -0.45249075, 0.4724435, -0.55597544, 0.09765169, -0.11918337, 0.07108784, 0
153, 1566226445, -0.5126598, -0.45238763, 0.4725302, -0.5560891, 0.23422056, 6.381295E-4, 0.05616474, 0
154, 1566243112, -0.51261353, -0.45228004, 0.47262317, -0.5561403, 0.20984335, 0.090299904, 0.08534622, 0
155, 1566259779, -0.5125897, -0.45222375, 0.4726751, -0.55616385, 0.0932049, 0.16529365, 0.08550644, 0
156, 1566276446, -0.51262176, -0.45220402, 0.4726909, -0.5561369, 0.043265626, 0.20734827, 0.09926796, 0
157, 1566293113, -0.5126539, -0.45224607, 0.47264588, -0.55611145, 0.070948824, 0.12660868, 0.04370022, 0
158, 1566309780, -0.51272035, -0.4522849, 0.47261256, -0.5560469, 0.107634455, 0.0049919384, 0.06272125, 0
159, 1566326447, -0.5128254, -0.4523399, 0.47255793, -0.5559516, 0.062160965, -0.105200395, 0.058297157, 0
160, 1566343114, -0.5129562, -0.45242974, 0.47246736, -0.5558348, 0.08584082, -0.0714077, 0.08404827, 0
161, 1566359781, -0.5130949, -0.45252243, 0.47236863, -0.5557153, 0.13084982, 0.02374906, 0.04220867, 0
162, 1566376448, -0.51321167, -0.4526194, 0.47228983, -0.5555954, 0.04893727, 0.12875575, 4.119873E-4, 0
163, 1566393115, -0.5133245, -0.4526872, 0.47223195, -0.5554852, -0.067382224, 0.21607266, 0.054367065, 0
164, 1566409782, -0.51344395, -0.45276824, 0.47217762, -0.5553549, -0.1188767, 0.20208946, 0.05313778, 0
165, 1566426449, -0.513536, -0.45285273, 0.47212142, -0.55524856, -0.025069213, 0.13577406, 0.06722641, 0
166, 1566443116, -0.51359564, -0.4528953, 0.47210208, -0.5551751, -0.01765283, 0.04653607, 0.10368347, 0
167, 1566459783, -0.5136447, -0.45292294, 0.472086, -0.5551208, -0.07011892, -0.054259334, 0.06460762, 0
168, 1566476450, -0.51366854, -0.45294467, 0.47207206, -0.555093, -0.046797577, -0.056502733, 0.06903458, 0
169, 1566493117, -0.51369727, -0.45296374, 0.4720577, -0.55506295, 0.0044678003, 0.012080205, 0.042898178, 0
170, 1566509784, -0.51370895, -0.45298254, 0.4720599, -0.555035, -0.010842837, 0.07901898, 0.054826736, 0
171, 1566526451, -0.51372916, -0.4530004, 0.47206607, -0.5549964, -0.072374836, 0.13496047, 0.062431335, 0
172, 1566543118, -0.513735, -0.45303765, 0.47204727, -0.5549766, -0.05756889, 0.15879634, 0.0743618, 0
173, 1566559785, -0.5137487, -0.45306867, 0.47202334, -0.554959, 0.024745343, 0.13635139, 0.102570534, 0
174, 1566576452, -0.5137695, -0.4530818, 0.47201416, -0.5549368, 0.07158891, 0.050990302, 0.078229904, 0
175, 1566593119, -0.5137809, -0.45310006, 0.47199637, -0.5549267, 0.06004765, 0.03866193, 0.09683514, 0
176, 1566609786, -0.51380163, -0.45312342, 0.47197795, -0.55490375, 0.04073099, 0.04324238, 0.03983116, 0
177, 1566626453, -0.51381326, -0.45314285, 0.47196457, -0.55488855, 0.068702295, 0.09512868, 0.04054451, 0
178, 1566643120, -0.5138284, -0.45315367, 0.47196415, -0.55486614, 0.059525747, 0.10781952, 0.07612133, 0
179, 1566659787, -0.51384985, -0.45318156, 0.4719536, -0.55483246, 0.043098886, 0.12121219, 0.11302948, 0
180, 1566676454, -0.51388884, -0.45322233, 0.4719106, -0.5547996, 0.06016075, 0.123030916, 0.115115166, 0
181, 1566693121, -0.5139445, -0.4532793, 0.4718559, -0.554748, 0.1265117, 0.120887876, 0.06827927, 0
182, 1566709788, -0.51405036, -0.4533503, 0.47179893, -0.5546404, 0.16728604, 0.05474056, 0.044527054, 0
183, 1566726455, -0.5142012, -0.45343772, 0.47172847, -0.554489, 0.09380817, -0.032965254, 0.04443264, 0
184, 1566743122, -0.5143464, -0.45359153, 0.47159663, -0.5543406, 0.042595983, -0.047363065, 0.05389881, 0
185, 1566759789, -0.5145547, -0.45375234, 0.4714558, -0.5541354, 0.04777947, -0.023097605, 0.0637455, 0
186, 1566776456, -0.5147814, -0.4539502, 0.47128636, -0.5539069, 0.09382466, 0.028532846, 0.063536644, 0
187, 1566793123, -0.5150008, -0.45417732, 0.47108227, -0.5536905, 0.09404218, 0.108826, 0.08188248, 0
188, 1566809790, -0.515257, -0.45440573, 0.47088015, -0.5534367, 0.06972956, 0.1551475, 0.08537865, 0
189, 1566826457, -0.5155148, -0.45465174, 0.47067043, -0.5531729, 0.05086864, 0.1817623, 0.10094643, 0
190, 1566843124, -0.51580906, -0.45488176, 0.4704625, -0.5528863, 0.04937468, 0.13876802, 0.042342186, 0
191, 1566859791, -0.51609313, -0.45512497, 0.47024706, -0.55260426, 0.056623433, 0.07209679, 0.050225258, 0
192, 1566876458, -0.5163765, -0.45536053, 0.47004288, -0.55231905, -0.052825946, 0.016737545, 0.06421375, 0
193, 1566893125, -0.51666975, -0.45560214, 0.46982616, -0.55202985, -0.008374136, 0.012379042, 0.076610565, 0
194, 1566909792, -0.5169684, -0.45582908, 0.46962175, -0.5517367, 0.10653142, -0.004101686, 0.08625889, 0
195, 1566926459, -0.5172665, -0.45605454, 0.46941593, -0.551446, 0.08833433, 7.7335484E-5, 0.03491497, 0
196, 1566943126, -0.5175124, -0.45629287, 0.4692016, -0.55120045, -0.025429515, 0.10466911, 0.07078934, 0
197, 1566959793, -0.51776606, -0.45651639, 0.4690007, -0.5509482, -0.13752149, 0.12027992, 0.09618378, 0
198, 1566976460, -0.51803315, -0.45672095, 0.46881282, -0.5506875, -0.019965662, 0.063856274, 0.04524994, 0
199, 1566993127, -0.5182903, -0.45692927, 0.4686388, -0.55042064, -0.013767951, 0.009904977, 0.04485035, 0
200, 1567009794, -0.5185252, -0.45714247, 0.46846068, -0.5501741, -0.038405336, 0.005828771, 0.045327187, 0
201, 1567026461, -0.5187342, -0.45733646, 0.4683, -0.5499526, -0.10273572, 0.024874756, 0.10710144, 0
202, 1567043128, -0.51892436, -0.4575056, 0.46815342, -0.54975706, -0.090488106, 0.056396566, 0.072548866, 0
203, 1567059795, -0.51909053, -0.45764154, 0.46802956, -0.5495927, -0.051131047, 0.16474044, 0.083354, 0
204, 1567076462, -0.51922935, -0.45774913, 0.46794212, -0.5494463, -0.03615635, 0.1660594, 0.04563141, 0
205, 1567093129, -0.5193335, -0.45783702, 0.4678684, -0.5493374, -0.06477226, 0.120214656, 0.08394146, 0
206, 1567109796, -0.5194203, -0.45789653, 0.46781257, -0.54925334, -0.09392372, 0.046089936, 0.07665253, 0
207, 1567126463, -0.51948154, -0.45794624, 0.46777162, -0.5491887, -0.0722785, 0.020811962, 0.11628628, 0
208, 1567143130, -0.51951265, -0.4579778, 0.46773434, -0.5491646, -0.006208743, 0.010026568, 0.04507351, 0
209, 1567159797, -0.51952595, -0.45798504, 0.46772546, -0.5491536, -0.0030326238, 0.016806386, 0.03359604, 0
210, 1567176464, -0.5195051, -0.45799235, 0.46772093, -0.54917103, -0.0665597, 0.06998101, 0.03421116, 0
211, 1567193131, -0.5194801, -0.45799732, 0.4677322, -0.549181, -0.08032216, 0.09501323, 0.033216476, 0
212, 1567209798, -0.5194613, -0.4580071, 0.4677371, -0.5491865, 0.028178055, 0.10110944, 0.100180626, 0
213, 1567226465, -0.5194552, -0.45801812, 0.4677325, -0.54918694, 0.058576934, 0.042804074, 0.04526043, 0
214, 1567243132, -0.5194747, -0.45805746, 0.4677128, -0.5491524, 0.0038949368, -0.0071602375, 0.0895071, 0
215, 1567259799, -0.5195158, -0.4581063, 0.46766287, -0.5491153, 0.018447641, 3.1962354E-5, 0.09690094, 0
216, 1567276466, -0.5195616, -0.4581596, 0.46759883, -0.54908216, 0.110262744, 0.080748305, 0.08536911, 0
217, 1567293133, -0.5195924, -0.45818016, 0.46757355, -0.54905736, 0.06965222, 0.21048751, 0.08025265, 0
218, 1567309800, -0.51961726, -0.4582159, 0.467553, -0.5490216, -0.0066325236, 0.224559, 0.07123852, 0
219, 1567326467, -0.51965225, -0.45826003, 0.46752858, -0.54897237, 0.0029548414, 0.11190064, 0.037531853, 0
220, 1567343134, -0.51970166, -0.4583012, 0.46749592, -0.54891914, 0.08180686, 0.03521849, 0.053390503, 0
221, 1567359801, -0.51975745, -0.45831528, 0.4674745, -0.54887265, 0.09515036, -0.019816883, 0.073516846, 0
222, 1567376468, -0.5197999, -0.45832768, 0.467454, -0.54883957, 0.013216992, -0.009819372, 0.049391747, 0
223, 1567393135, -0.51984656, -0.45833924, 0.46744043, -0.54879737, -0.011564313, 0.02280053, 0.034329414, 0
224, 1567409802, -0.5199023, -0.45834872, 0.46743488, -0.5487413, -0.026762547, -0.01901894, 0.1855402, 0
225, 1567426469, -0.5199843, -0.45830002, 0.46744883, -0.5486924, 0.21297231, 0.101236396, 0.064450264, 0
226, 1567443136, -0.520045, -0.45824453, 0.46745232, -0.5486782, -0.032572318, 0.24018188, 0.15732098, 0
227, 1567459803, -0.5201007, -0.4582056, 0.46744153, -0.5486672, -0.17716733, 0.30324203, -0.037510872, 0
228, 1567476470, -0.52011406, -0.45812944, 0.46749052, -0.5486763, -0.07236813, 0.33236063, 0.050297737, 0
229, 1567493137, -0.52002263, -0.45794794, 0.4676665, -0.54876465, -0.029412964, 0.14366743, -0.124684334, 0
230, 1567509804, -0.519851, -0.4576959, 0.46791846, -0.5489227, -0.15526171, 0.02008398, 0.1366806, 0
231, 1567526471, -0.5196246, -0.45742118, 0.46818206, -0.5491411, -0.14056082, -0.12836774, 0.11994648, 0
232, 1567543138, -0.5193836, -0.4571431, 0.46844622, -0.5493754, 0.040671982, -0.1070256, 0.18187523, 0
233, 1567559805, -0.51915497, -0.4568554, 0.46870077, -0.54961365, 0.030545058, 0.016378582, 0.09475231, 0
234, 1567576472, -0.51895803, -0.45662883, 0.4689054, -0.5498135, -0.16163786, 0.13939922, 0.04611492, 0
235, 1567593139, -0.5188272, -0.4565052, 0.46900553, -0.5499541, -0.100691244, 0.110958315, 0.012399673, 0
236, 1567609806, -0.51873255, -0.4564379, 0.46905124, -0.5500604, 0.06125519, 0.02397703, 0.010501862, 0
237, 1567626473, -0.5186297, -0.4563789, 0.469087, -0.5501759, 0.078840844, -0.09156164, 0.0557909, 0
238, 1567643140, -0.51851636, -0.45632258, 0.4691285, -0.5502939, -0.099077486, -0.14471883, 0.107670784, 0
239, 1567659807, -0.51841164, -0.45626616, 0.4691498, -0.5504212, -0.07813231, -0.1802518, 0.047465324, 0
240, 1567676474, -0.51828665, -0.4561886, 0.46921077, -0.5505513, 0.06656507, -0.022738196, -0.020030975, 0
241, 1567693141, -0.51810616, -0.45603493, 0.4693467, -0.55073273, 0.049440395, 0.14770809, 0.025838852, 0
242, 1567709808, -0.51785046, -0.455833, 0.4695612, -0.55095726, -0.14357333, 0.2230467, 0.08505058, 0
243, 1567726475, -0.5175912, -0.45564032, 0.46975946, -0.5511913, -0.2088628, 0.20765606, 0.12437725, 0
244, 1567743142, -0.5173622, -0.45543092, 0.46994045, -0.55142486, -0.025467737, 0.21755478, 0.15827465, 0
245, 1567759809, -0.51713014, -0.4552299, 0.47011504, -0.55165964, 0.08687658, 0.29546067, 0.13790226, 0
246, 1567776476, -0.5169055, -0.45502427, 0.4702898, -0.55189085, 0.16558734, 0.21551767, 0.08284855, 0
247, 1567793143, -0.516687, -0.4548218, 0.47045863, -0.55211854, 0.1734018, 0.09542081, 0.0367136, 0
248, 1567809810, -0.5164488, -0.45459613, 0.47064987, -0.5523642, -0.010410832, 0.011809269, -0.036719322, 0
249, 1567826477, -0.51617265, -0.45433608, 0.47089633, -0.5526262, -0.18548825, -0.019051574, 0.09395218, 0
250, 1567843144, -0.51587987, -0.4540663, 0.47114617, -0.5529082, -0.17936625, -0.03934789, 0.1278305, 0
251, 1567859811, -0.51558065, -0.45380563, 0.47137204, -0.5532088, -0.04443974, 0.026064293, 0.16347027, 0
252, 1567876478, -0.51531726, -0.45351985, 0.4715993, -0.55349493, 0.009430012, 0.07332544, 0.05247116, 0
253, 1567893145, -0.5150472, -0.45324844, 0.47182485, -0.5537762, 0.013402731, 0.10827862, 0.033340454, 0
254, 1567909812, -0.5147547, -0.45298743, 0.47204614, -0.554073, 0.05783867, 0.032502137, 0.03261566, 0
255, 1567926479, -0.5144422, -0.45270222, 0.47229585, -0.5543836, 0.037696354, -0.021110129, 0.056012154, 0
256, 1567943146, -0.5141204, -0.45242026, 0.47253886, -0.55470496, -0.01516446, -0.071188204, 0.034690857, 0
257, 1567959813, -0.5138205, -0.45212993, 0.47277173, -0.5550212, -0.032914072, -0.09026481, 0.060412407, 0
258, 1567976480, -0.51353, -0.4518686, 0.47299293, -0.5553143, -0.01960164, -0.061202317, 0.06657314, 0
259, 1567993147, -0.5132234, -0.4515965, 0.4732033, -0.5556397, 0.033210896, 0.11350703, 0.06271076, 0
260, 1568009814, -0.51289374, -0.45128253, 0.47345895, -0.5559816, -0.01647268, 0.24684323, -0.013478279, 0
261, 1568026481, -0.51255214, -0.45097193, 0.47375202, -0.55629873, -0.05345103, 0.27169028, -0.008111954, 0
262, 1568043148, -0.5121964, -0.45067066, 0.47403583, -0.55662847, 0.08459518, 0.14966382, 0.07069969, 0
263, 1568059815, -0.51185393, -0.45036477, 0.4743076, -0.5569596, 0.16449437, 0.045408223, 0.08444691, 0
264, 1568076482, -0.51153016, -0.45003605, 0.47459483, -0.55727816, 0.08423957, 0.007547809, 0.09934521, 0
265, 1568093149, -0.5111822, -0.44972, 0.47487932, -0.55761003, -0.06781204, 0.032076344, 0.086517334, 0
266, 1568109816, -0.5108745, -0.44941634, 0.47516105, -0.5578968, -0.014271302, 0.035442226, 0.051033974, 0
267, 1568126483, -0.5106209, -0.44914556, 0.47539002, -0.5581517, 0.100732595, 0.08419353, 0.12565136, 0
268, 1568143150, -0.5104203, -0.44893157, 0.47556803, -0.5583557, 0.15888284, 0.10639619, 0.030369759, 0
269, 1568159817, -0.5102567, -0.44880626, 0.47567394, -0.5585156, 0.17111146, 0.08112716, 0.009562492, 0
270, 1568176484, -0.5101733, -0.44868058, 0.4757695, -0.5586114, 0.24881709, 1.6696418E-4, 0.07396507, 0
271, 1568193151, -0.51006866, -0.44857806, 0.47585246, -0.5587187, 0.17291118, -0.047194313, 0.078858376, 0
272, 1568209818, -0.50995094, -0.4484737, 0.47594318, -0.5588326, -0.10429718, -0.007419289, 0.035954475, 0
273, 1568226485, -0.5098271, -0.4483839, 0.47603962, -0.55893564, -0.122948885, 0.057304613, 0.08145428, 0
274, 1568243152, -0.5097371, -0.44828147, 0.47614807, -0.55900747, 0.07503732, 0.041039437, 0.04886055, 0
275, 1568259819, -0.5096482, -0.44813424, 0.4763035, -0.5590742, 0.18311389, 0.046373796, 0.07508087, 0
276, 1568276486, -0.509537, -0.44795984, 0.47645545, -0.5591858, 0.014085786, 0.061874196, 0.029997826, 0
277, 1568293153, -0.5093972, -0.44775847, 0.47664958, -0.5593088, -0.01694541, 0.020475352, -0.0027570724, 0
278, 1568309820, -0.50914806, -0.44752, 0.4768827, -0.55952775, -0.034821305, -0.0039054418, 0.0015993118, 0
279, 1568326487, -0.508834, -0.44723073, 0.4772133, -0.55976295, -0.02691409, -0.08106435, -0.09560585, 0
280, 1568343154, -0.5084903, -0.44693863, 0.47756296, -0.56001043, -0.04870079, -0.19846877, 0.021191597, 0
281, 1568359821, -0.5081813, -0.4466913, 0.4778494, -0.56024384, -0.082928, -0.18063535, -0.083200455, 0
282, 1568376488, -0.5079136, -0.44653973, 0.47806618, -0.5604223, -0.030441124, -0.14785047, 0.116744995, 0
283, 1568393155, -0.50774336, -0.44637918, 0.47825545, -0.56054306, 0.037637793, -0.02069864, 0.31713295, 0
284, 1568409822, -0.5075433, -0.4461842, 0.4783901, -0.5607645, 0.03142704, 0.43882343, 0.591732, 0
285, 1568426489, -0.5073588, -0.44594252, 0.47851902, -0.5610137, -0.14789009, 1.1457556, 0.27320766, 0
286, 1568443156, -0.50716305, -0.4457454, 0.47863677, -0.5612467, -0.036587954, 1.4334364, 0.10208988, 0
287, 1568459823, -0.5070299, -0.44555762, 0.47874177, -0.5614265, 0.040622585, 0.8803391, 0.2957344, 0
288, 1568476490, -0.50698036, -0.44533578, 0.4788022, -0.56159586, -0.04916257, 0.28691822, 0.23095036, 0
289, 1568493157, -0.50688946, -0.44503438, 0.4788986, -0.56183463, 0.039963, 0.05364423, 0.1680069, 0
290, 1568509824, -0.5066357, -0.44470856, 0.4791078, -0.562143, -0.20702888, -0.05185143, -0.40976524, 0
291, 1568526491, -0.5063335, -0.4443967, 0.4793513, -0.5624543, -0.32498494, -0.722032, -0.6344719, 0
292, 1568543158, -0.5061054, -0.4440025, 0.479545, -0.56280553, -0.1490581, 1.2797064, -0.63358116, 0
293, 1568559825, -0.5057665, -0.44372645, 0.47991854, -0.5630095, -0.006409234, 0.79566586, 0.511549, 0
294, 1568576492, -0.5055132, -0.44346654, 0.48012283, -0.5632676, -0.10974017, -0.25730476, 0.34608555, 0
295, 1568593159, -0.50528216, -0.44319233, 0.48016822, -0.56365204, 0.39027733, 0.402541, 0.48970318, 0
296, 1568609826, -0.5047506, -0.4428479, 0.48048955, -0.5641248, 0.19645023, -0.22642198, -0.30518055, 0
297, 1568626493, -0.504259, -0.4422388, 0.48093918, -0.564659, -0.59778696, 0.20978658, 0.26165676, 0
298, 1568643160, -0.5036755, -0.44171283, 0.48137003, -0.56522405, -0.49408776, 0.2111085, -0.703001, 0
299, 1568659827, -0.5030036, -0.44115844, 0.48194665, -0.5657637, 0.34637937, 0.24771248, -0.5568981, 0
300, 1568676494, -0.5023121, -0.44043443, 0.48267737, -0.56631887, 0.6214322, -0.35385767, 0.5193682, 0
301, 1568693161, -0.50165445, -0.4396485, 0.48324925, -0.56702447, -0.010440066, -0.261813, 0.73813534, 0
302, 1568709828, -0.50132084, -0.43892443, 0.48366213, -0.56752795, -0.10018119, 0.58884376, 0.33965588, 0
303, 1568726495, -0.50092643, -0.43870738, 0.48379463, -0.5679309, -0.27087557, 0.9535787, -0.25333595, 0
304, 1568743162, -0.5004849, -0.4384901, 0.4839336, -0.5683696, -0.15184085, 0.9142578, 0.28905678, 0
305, 1568759829, -0.5000397, -0.43801397, 0.48427248, -0.5688398, -0.18088077, 1.0108675, -0.14734936, 0
306, 1568776496, -0.49962285, -0.43747294, 0.48461133, -0.56933373, -0.08219734, 1.096826, -0.02167511, 0
307, 1568793163, -0.49922383, -0.43690163, 0.48492584, -0.56985456, 0.2834245, 1.6250345, -0.28042698, 0
308, 1568809830, -0.498756, -0.43647602, 0.4851961, -0.57035995, 0.53856844, 1.8851373, -0.2950325, 0
309, 1568826497, -0.49839213, -0.43609017, 0.4854365, -0.5707683, 0.5059798, 1.9950646, -0.16061115, 0
310, 1568843164, -0.49816242, -0.4356309, 0.48569277, -0.57110155, 0.45454735, 2.4634337, 0.11640644, 0
311, 1568859831, -0.49797797, -0.43523523, 0.4859253, -0.57136625, 0.03542669, 2.742275, -0.61458015, 0
312, 1568876498, -0.49793237, -0.4350694, 0.48598632, -0.5714804, -0.25115547, 2.9622753, -0.6439028, 0
313, 1568893165, -0.49798226, -0.43506953, 0.48594245, -0.5714741, 0.49245134, 3.1610963, -0.20417786, 0
314, 1568909832, -0.49813634, -0.4350659, 0.48588598, -0.5713906, 0.86647683, 3.0587716, -0.28192997, 0
315, 1568926499, -0.4983858, -0.43515632, 0.4857459, -0.57122326, 0.511634, 3.2685988, -0.65028095, 0
316, 1568943166, -0.49872506, -0.43541235, 0.48547667, -0.5709609, 0.20375285, 3.3865793, -0.64105225, 0
317, 1568959833, -0.4991602, -0.43576726, 0.48513138, -0.5706032, 0.29455888, 3.4653962, -0.45489693, 0
318, 1568976500, -0.49965855, -0.4362045, 0.48479187, -0.57012135, 0.41017386, 3.5035017, -0.4979391, 0
319, 1568993167, -0.5002819, -0.43664777, 0.48439705, -0.5695707, 0.35623428, 3.5241997, -0.46574497, 0
320, 1569009834, -0.5009341, -0.43721476, 0.48395765, -0.5689357, 0.13919762, 3.5272694, -0.8011055, 0
321, 1569026501, -0.50160366, -0.4378909, 0.48344243, -0.56826335, -0.14830822, 3.7059355, 0.24338818, 0
322, 1569043168, -0.5023013, -0.43854585, 0.48291203, -0.5675925, 0.092251286, 3.232983, -0.7535887, 0
323, 1569059835, -0.5030345, -0.4389948, 0.48244524, -0.5669927, 0.23619846, 3.3278801, -0.09835625, 0
324, 1569076502, -0.5036907, -0.4393727, 0.48210037, -0.56641036, 0.102135696, 3.751111, -1.2852058, 0
325, 1569093169, -0.50429106, -0.4398176, 0.4817582, -0.56582195, 0.08893413, 3.7892175, -1.3356009, 0
326, 1569109836, -0.5048527, -0.440278, 0.4814207, -0.56525, 0.20462823, 4.36839, -0.3207674, 0
327, 1569126503, -0.5053642, -0.44068775, 0.48117864, -0.56467956, 0.28048941, 4.313676, -0.6200094, 0
328, 1569143170, -0.50592846, -0.4410236, 0.4809666, -0.56409234, 0.013042539, 4.103203, -0.84135246, 0
329, 1569159837, -0.50661916, -0.4413547, 0.4806803, -0.56345713, -0.35024524, 3.997305, -1.4129381, 0
330, 1569176504, -0.50741374, -0.4417814, 0.4802924, -0.56273806, 0.076654665, 4.11294, 0.029364586, 0
331, 1569193171, -0.50814956, -0.4422792, 0.47995582, -0.5619697, 1.1081867, 4.596604, 1.0824404, 0
332, 1569209838, -0.5089434, -0.4427128, 0.47961977, -0.5611964, 0.7226506, 3.8648672, -0.19720745, 0
333, 1569226505, -0.50984585, -0.44311413, 0.47918987, -0.5604271, 0.42563996, 3.6962612, -1.2188063, 0
334, 1569243172, -0.5108458, -0.44362688, 0.47864467, -0.5595762, 0.043117102, 3.9603846, -0.9641819, 0
335, 1569259839, -0.51193815, -0.44431505, 0.47802383, -0.5585618, -0.057374567, 4.455743, -0.43508816, 0
336, 1569276506, -0.5130835, -0.4451486, 0.4773724, -0.557403, 0.6780922, 3.8888693, -1.5110397, 0
337, 1569293173, -0.5142917, -0.4459477, 0.47673568, -0.55619454, 0.90636235, 3.9859788, 0.109357834, 0
338, 1569309840, -0.5155302, -0.44674554, 0.47607204, -0.5549748, 0.4635301, 3.7658353, -0.2606411, 0
339, 1569326507, -0.5167865, -0.44769877, 0.47537327, -0.5536354, 0.10836467, 2.8850262, -1.1052771, 0
340, 1569343174, -0.5181975, -0.44862354, 0.47451535, -0.5523025, 0.3564826, 3.5027175, 0.21307755, 0
341, 1569359841, -0.5195897, -0.44953123, 0.47390628, -0.5507772, 0.6729416, 3.3420115, -1.5312862, 0
342, 1569376508, -0.5209468, -0.4504908, 0.47336814, -0.54917157, 0.10115302, 2.9014158, -2.2576914, 0
343, 1569393175, -0.522165, -0.4516482, 0.47284937, -0.5475086, 0.6289706, 2.0105715, -2.8089619, 0
344, 1569409842, -0.5233372, -0.4528889, 0.47235265, -0.54579055, -0.23486964, 0.50537485, -0.31092834, 0
345, 1569426509, -0.52454215, -0.4540373, 0.47197685, -0.54400176, 0.24990223, -1.3475918, 0.79684925, 0
346, 1569443176, -0.5258123, -0.45487055, 0.47171715, -0.54230213, 0.363899, -2.8208475, 1.1071568, 0
347, 1569459843, -0.52702975, -0.4555136, 0.4715489, -0.54072464, 0.2119466, -3.099003, 2.7269783, 0
348, 1569476510, -0.5281295, -0.45605993, 0.4714494, -0.5392758, 0.111106984, -4.0873375, 2.2679996, 0
349, 1569493177, -0.52925336, -0.45631102, 0.47134024, -0.53805584, 0.325227, -4.2382855, 1.5880451, 0
350, 1569509844, -0.5304215, -0.45609432, 0.47143805, -0.5370027, 0.862281, -3.2066417, 2.0158472, 0
351, 1569526511, -0.53143555, -0.4557074, 0.4717203, -0.5360799, 0.43451923, -3.0971878, 0.103170395, 0
352, 1569543178, -0.5323093, -0.4552218, 0.47202536, -0.5353566, -0.058380913, -2.44549, 1.6492023, 0
353, 1569559845, -0.53314126, -0.45458913, 0.47245625, -0.5346858, -0.1026224, -2.6827128, 0.11707783, 0
354, 1569576512, -0.5340523, -0.4539076, 0.4728993, -0.53396326, -0.30802834, -2.2374728, 0.1852436, 0
355, 1569593179, -0.5351609, -0.45315394, 0.47318453, -0.53324026, -0.14029707, -1.8531792, 0.5297241, 0
356, 1569609846, -0.5362174, -0.45253423, 0.47341785, -0.5324975, 0.35375217, -1.6959982, 0.3230543, 0
357, 1569626513, -0.53722996, -0.45206425, 0.4734879, -0.53181344, 0.37373713, -1.2215664, 0.9900942, 0
358, 1569643180, -0.53812915, -0.4517993, 0.4735609, -0.53106403, -0.29162407, -0.9558393, -0.3507452, 0
359, 1569659847, -0.5390748, -0.45164433, 0.47361514, -0.5301876, -0.9364757, -1.108878, -0.37141228, 0
360, 1569676514, -0.5400455, -0.4515253, 0.47358635, -0.52932614, -0.5318317, -0.58184373, 0.08800125, 0
361, 1569693181, -0.5408243, -0.45129362, 0.47364643, -0.5286744, 0.12460825, -0.885738, 0.28945827, 0
362, 1569709848, -0.5413845, -0.45081323, 0.47387427, -0.5283066, -0.15395953, -0.08065331, -0.035627365, 0
363, 1569726515, -0.54167813, -0.45023847, 0.47438625, -0.52803624, -0.49228907, 0.14585406, -0.099619865, 0
364, 1569743182, -0.54176915, -0.44933796, 0.47508806, -0.5280789, -0.9253374, 0.14134021, -0.065956116, 0
365, 1569759849, -0.5415297, -0.4481861, 0.47615474, -0.52834266, -0.6223499, 0.84545964, 0.55339146, 0
366, 1569776516, -0.5410687, -0.44667614, 0.47754404, -0.5288396, -0.29915333, -0.011400949, 0.38428307, 0
367, 1569793183, -0.54049546, -0.44483116, 0.47911546, -0.52955896, 0.53266466, 0.5752516, -1.2273092, 0
368, 1569809850, -0.5397362, -0.4428815, 0.4808793, -0.53036815, 0.5869211, 0.4022109, -0.29684448, 0
369, 1569826517, -0.5390209, -0.44088167, 0.48265344, -0.5311497, 0.19713463, 0.980856, 0.19617844, 0
370, 1569843184, -0.53840494, -0.4390786, 0.4843236, -0.53174764, 0.041628618, 0.8367051, 0.5154457, 0
371, 1569859851, -0.5380892, -0.43744636, 0.4856297, -0.53222084, 0.18834409, 0.19522604, -0.15943909, 0
372, 1569876518, -0.5380028, -0.43606955, 0.48664, -0.5325151, 0.4639806, 0.9468757, -0.31875896, 0
373, 1569893185, -0.53794676, -0.43492278, 0.48756278, -0.5326653, 0.628944, 1.6990981, -1.7375498, 0
374, 1569909852, -0.53787655, -0.43404567, 0.48843494, -0.532653, 0.008495951, 2.0329711, -0.1506195, 0
375, 1569926519, -0.5378471, -0.4334981, 0.48913366, -0.5324874, -0.4183883, 1.3961735, 0.4638071, 0
376, 1569943186, -0.53788906, -0.43306562, 0.4896576, -0.5323151, -0.2693577, 1.1655233, 0.2912712, 0
377, 1569959853, -0.537908, -0.43279278, 0.4900114, -0.5321922, -0.5419181, 1.6373026, -0.5363903, 0
378, 1569976520, -0.53797203, -0.43268323, 0.49022448, -0.5320205, -0.55995965, 1.6101267, -0.23818398, 0
379, 1569993187, -0.53802884, -0.43269664, 0.4903286, -0.5318562, -0.46995342, 2.2199707, -0.2367611, 0
380, 1570009854, -0.53797996, -0.43283796, 0.49040976, -0.53171575, -0.6132961, 2.2694726, 0.3116274, 0
381, 1570026521, -0.5378715, -0.43298534, 0.4904515, -0.53166693, -0.7033119, 1.8277916, -0.98781013, 0
382, 1570043188, -0.53768504, -0.43304947, 0.49052218, -0.5317381, -0.9046003, 2.184761, 0.59604645, 0
383, 1570059855, -0.53738517, -0.43296194, 0.4906503, -0.5319942, -0.5285038, 2.1230645, -0.67220116, 0
384, 1570076522, -0.5369459, -0.4328511, 0.4907804, -0.5324078, -0.59311175, 2.0679176, 0.2811947, 0
385, 1570093189, -0.53642565, -0.43266934, 0.4908929, -0.53297603, -0.44010523, 2.4102628, 0.38360882, 0
386, 1570109856, -0.53584456, -0.43244356, 0.49104545, -0.53360295, -0.16620646, 1.7230417, -0.13709545, 0
387, 1570126523, -0.5352394, -0.4322268, 0.49107897, -0.5343546, -0.2721657, 1.9094323, 0.06956482, 0
388, 1570143190, -0.53462785, -0.43207645, 0.49105465, -0.5351102, -1.2492231, 2.0311167, -0.04956627, 0
389, 1570159857, -0.5340508, -0.43202072, 0.49099386, -0.5357868, -0.49042585, 2.647005, -0.71830845, 0
390, 1570176524, -0.5333382, -0.43224406, 0.49087325, -0.5364265, 0.04421712, 2.4192963, -0.8136034, 0
391, 1570193191, -0.53263307, -0.43261814, 0.49065116, -0.53702855, -0.22482453, 2.1133265, -0.024122238, 0
392, 1570209858, -0.5320185, -0.43305176, 0.49027938, -0.5376273, -0.2346752, 1.9550426, -0.66974354, 0
393, 1570226525, -0.53147334, -0.43362224, 0.48977512, -0.53816605, -0.3983249, 2.1713457, -0.32249832, 0
394, 1570243192, -0.5309285, -0.43446913, 0.48914194, -0.5385966, -0.7498547, 2.700709, 0.043927193, 0
395, 1570259859, -0.5303771, -0.4355183, 0.4883813, -0.5389825, -0.5757754, 2.4726868, 0.280653, 0
396, 1570276526, -0.52998, -0.43643752, 0.4875809, -0.53935426, 0.006937619, 1.8713377, 0.77818966, 0
397, 1570293193, -0.5297339, -0.43723872, 0.48661262, -0.5398213, -0.03641165, 2.3612797, -0.2713499, 0
398, 1570309860, -0.52954125, -0.43816, 0.4855292, -0.5402387, 0.06996347, 3.198495, -1.5277596, 0
399, 1570326527, -0.52933407, -0.43933833, 0.48441938, -0.5404809, -0.22013165, 3.9914873, -1.3885174, 0
400, 1570343194, -0.5292215, -0.44065216, 0.48319298, -0.54061943, -0.18961442, 4.743445, 0.82466984, 0
401, 1570359861, -0.5292315, -0.4420144, 0.48199946, -0.54056317, -0.02962843, 4.1275473, -0.100494385, 0
402, 1570376528, -0.52947766, -0.44333985, 0.48056453, -0.5405142, -0.05036451, 3.3865685, 0.20740414, 0
403, 1570393195, -0.5298841, -0.44474825, 0.47901192, -0.5403368, 0.057724793, 4.357533, -0.104372025, 0
404, 1570409862, -0.53037834, -0.44653657, 0.4773685, -0.53983104, 0.66906, 3.7938235, -2.2828903, 0
405, 1570426529, -0.5310434, -0.44853786, 0.47567207, -0.5390151, 1.1848334, 3.0956209, -2.4698443, 0
406, 1570443196, -0.531918, -0.45060763, 0.47399053, -0.53790677, 0.78281635, 2.7937078, -0.84708405, 0
407, 1570459863, -0.5330841, -0.45267162, 0.4720506, -0.53672385, 0.9793285, 1.5784578, 1.1861897, 0
408, 1570476530, -0.53443253, -0.4545878, 0.4701054, -0.5354693, 1.1903683, 1.1600857, 1.7132063, 0
409, 1570493197, -0.5358188, -0.4566057, 0.46823612, -0.5340028, 0.75586694, 0.9295797, -0.1937027, 0
410, 1570509864, -0.53718346, -0.45878783, 0.46652916, -0.5322525, 0.38175508, 1.0615662, -0.43557167, 0
411, 1570526531, -0.53860945, -0.46083525, 0.46498612, -0.53038967, 0.5818203, -0.7676899, -2.4559913, 0
412, 1570543198, -0.5399788, -0.46247718, 0.46383995, -0.5285685, 0.69978464, -1.3700141, -1.5538282, 0
413, 1570559865, -0.54112923, -0.46386045, 0.46308792, -0.5268365, -0.8216723, 0.3679792, 1.6982365, 0
414, 1570576532, -0.54194415, -0.46535015, 0.4626517, -0.52506554, -0.69061077, 0.31896886, -1.1275978, 0
415, 1570593199, -0.5426712, -0.4664635, 0.46227518, -0.5236562, 0.45983788, -0.9322111, -0.6683445, 0
416, 1570609866, -0.54325813, -0.46702114, 0.462325, -0.5225054, 1.2996176, -0.014357019, -1.4284029, 0
417, 1570626533, -0.54363596, -0.46729445, 0.46286088, -0.52139246, 0.8729531, 0.44230196, 0.5312815, 0
418, 1570643200, -0.54404104, -0.46752024, 0.46342325, -0.52026683, 0.4093926, 0.2744652, -0.09927368, 0
419, 1570659867, -0.54449254, -0.46760887, 0.46394512, -0.5192486, 1.0177318, -0.74635, 2.1054392, 0
420, 1570676534, -0.5451789, -0.46741885, 0.46426523, -0.518413, 0.79188114, -1.0721843, 0.99018, 0
421, 1570693201, -0.54603535, -0.46710855, 0.46447277, -0.51760465, -0.013693074, -1.5213809, 1.636035, 0
422, 1570709868, -0.546981, -0.4669838, 0.46444735, -0.5167411, 0.012658344, -0.7684627, 1.4197035, 0
423, 1570726535, -0.54778385, -0.46696055, 0.4644175, -0.51593775, -0.36352974, -2.2668202, 1.1589289, 0
424, 1570743202, -0.5486083, -0.4667878, 0.4642208, -0.51539457, -1.383656, -2.7873356, 0.5574131, 0
425, 1570759869, -0.5491748, -0.4668286, 0.46402305, -0.51493233, -1.948493, -2.5208614, 0.970871, 0
426, 1570776536, -0.549561, -0.46689594, 0.4637537, -0.51470155, -1.3931625, -2.9300294, 0.7976036, 0
427, 1570793203, -0.54971826, -0.4667665, 0.46362457, -0.5147676, -1.0759232, -3.540536, 0.11035824, 0
428, 1570809870, -0.54977083, -0.46647084, 0.46354225, -0.51505345, -0.96741325, -2.9640832, -0.63982487, 0
429, 1570826537, -0.5495265, -0.46631962, 0.4635177, -0.5154731, -0.6519075, -1.9095514, 0.32619095, 0
430, 1570843204, -0.54909116, -0.4661577, 0.46374932, -0.5158749, -0.4185461, -0.89455116, 0.27802467, 0
431, 1570859871, -0.54851454, -0.46599627, 0.46405846, -0.51635605, -0.79943854, -1.7442456, -0.054286957, 0
432, 1570876538, -0.54804903, -0.46548188, 0.46438515, -0.51702, -0.8091368, -1.8249456, 1.3864307, 0
433, 1570893205, -0.54768234, -0.46469122, 0.4647486, -0.5177928, -0.07057623, -0.38703704, 0.39758778, 0
434, 1570909872, -0.54714805, -0.46403012, 0.46514997, -0.51858956, 0.39682022, -0.063411966, -0.3028965, 0
435, 1570926539, -0.5465478, -0.46335527, 0.46564382, -0.519382, 0.7251615, 0.2634635, -0.12718868, 0
436, 1570943206, -0.5458762, -0.46263042, 0.46639323, -0.52006173, 0.26350635, 0.28685898, 0.56600857, 0
437, 1570959873, -0.54540324, -0.46186355, 0.46698287, -0.5207098, -0.3987288, -0.72601724, -0.8395605, 0
438, 1570976540, -0.545033, -0.46123233, 0.46718165, -0.52147835, -0.2866871, -1.2061327, 0.5007973, 0
439, 1570993207, -0.5447511, -0.460574, 0.46715668, -0.5223761, -0.0980938, 0.09823059, 0.8416443, 0
440, 1571009874, -0.54441786, -0.4600852, 0.46718156, -0.5231317, -0.5063968, 0.82377553, -0.694191, 0
441, 1571026541, -0.5441099, -0.4598584, 0.46710542, -0.52371895, -0.84542704, 0.74594206, -0.36037254, 0
442, 1571043208, -0.5437731, -0.4598662, 0.46697098, -0.52418184, -0.7254178, 1.1394253, -0.51641655, 0
443, 1571059875, -0.5433304, -0.4599451, 0.46689618, -0.5246382, -0.40542993, 0.78108615, -0.8804865, 0
444, 1571076542, -0.5428292, -0.46001735, 0.46688125, -0.5251064, -0.646397, 1.0116742, 0.40985203, 0
445, 1571093209, -0.54234064, -0.46012628, 0.4668129, -0.52557635, -0.5508003, 0.7867008, 0.5911083, 0
446, 1571109876, -0.5418443, -0.4600957, 0.4667709, -0.5261522, 0.35633597, 0.9825455, -0.26355648, 0
447, 1571126543, -0.5412165, -0.45999348, 0.46687338, -0.5267962, 0.5681118, 1.3302972, -1.3737679, 0
448, 1571143210, -0.54051334, -0.4598219, 0.46717545, -0.52739984, 0.12461339, 2.1398635, -0.18082523, 0
449, 1571159877, -0.5398566, -0.4597632, 0.4675001, -0.5278359, -0.72190684, 1.9559748, 0.15296364, 0
450, 1571176544, -0.53938186, -0.4598656, 0.46750128, -0.52823085, -0.349547, 1.12653, 0.058002472, 0
451, 1571193211, -0.539039, -0.45994052, 0.46737665, -0.5286259, 0.41228282, 1.17018, 0.49081707, 0
452, 1571209878, -0.53882104, -0.45996344, 0.46723682, -0.5289515, 0.44539538, 1.7340184, 0.42903805, 0
453, 1571226545, -0.5386606, -0.46007907, 0.46701562, -0.52920973, 0.33387572, 1.5910476, -1.6499043, 0
454, 1571243212, -0.538504, -0.46030134, 0.46677855, -0.52938485, 0.14033999, 2.2255995, -0.080527306, 0
455, 1571259879, -0.53826123, -0.46073413, 0.4666161, -0.5293983, -0.5532679, 3.2156606, -0.0014629364, 0
456, 1571276546, -0.538051, -0.4612555, 0.46642685, -0.5293251, -0.47797015, 1.7927784, 0.13647747, 0
457, 1571293213, -0.5379536, -0.4616561, 0.46602568, -0.529428, -0.38023308, 1.6636574, 0.17453957, 0
458, 1571309880, -0.5379512, -0.46193185, 0.465619, -0.5295479, -0.1350966, 1.557166, -0.52763367, 0
459, 1571326547, -0.53790534, -0.4622471, 0.4652116, -0.52967715, -0.18904239, 2.9218147, -0.36685562, 0
460, 1571343214, -0.53771883, -0.46280724, 0.46481156, -0.529729, -0.20238629, 1.880453, -0.7479143, 0
461, 1571359881, -0.53756136, -0.4633744, 0.46430057, -0.5298409, -0.27007025, 1.1848377, 0.7786045, 0
462, 1571376548, -0.5374725, -0.46387988, 0.4636804, -0.530032, -0.4794201, 1.1425217, -1.1726685, 0
463, 1571393215, -0.53742886, -0.46433, 0.4630637, -0.53022116, -0.086279355, 1.3737288, -0.2295742, 0
464, 1571409882, -0.53733194, -0.4645812, 0.46259692, -0.53050655, 0.3860252, 2.051416, 0.8885336, 0
465, 1571426549, -0.53716946, -0.46475855, 0.4623494, -0.5307314, -0.1391053, 1.9961958, 0.094898224, 0
466, 1571443216, -0.5370106, -0.46499452, 0.462119, -0.53088623, -0.10260206, 1.9325093, -0.52455616, 0
467, 1571459883, -0.53682697, -0.46533558, 0.46186453, -0.5309945, 0.44848937, 2.0387552, -0.32270813, 0
468, 1571476550, -0.53674835, -0.46549106, 0.46168098, -0.53109735, 0.4760656, 1.5943079, 0.5432558, 0
469, 1571493217, -0.53682905, -0.46541536, 0.46148717, -0.53125054, 0.5697654, 1.8487098, 0.8572407, 0
470, 1571509884, -0.53691787, -0.46538147, 0.46133563, -0.53132206, 0.92154616, 2.3625202, 0.2842207, 0
471, 1571526551, -0.53694385, -0.46550214, 0.4611854, -0.53132063, 0.710599, 3.375684, -1.4381857, 0
472, 1571543218, -0.5369336, -0.46571586, 0.4612979, -0.53104573, 0.46176758, 3.6363115, -2.4298353, 0
473, 1571559885, -0.53699803, -0.46586084, 0.4614999, -0.530678, 0.76735306, 3.0512416, -0.11527252, 0
474, 1571576552, -0.5372813, -0.46584168, 0.4615319, -0.53038025, 0.7509405, 2.8880203, 0.2939291, 0
475, 1571593219, -0.53768605, -0.46568856, 0.46154857, -0.5300899, 0.6380517, 3.1479933, 0.9538479, 0
476, 1571609886, -0.5380161, -0.4656271, 0.46164867, -0.52972186, 0.5075578, 5.073386, -0.099191666, 0
477, 1571626553, -0.5381849, -0.46557263, 0.46207276, -0.52922803, 0.6171158, 3.8540142, -2.902573, 0
478, 1571643220, -0.53846717, -0.46509257, 0.4626385, -0.5288687, 1.0733461, 3.3064616, 1.617692, 0
479, 1571659887, -0.53884983, -0.46443918, 0.46319464, -0.5285665, 0.6712199, 3.5313447, 0.1591444, 0
480, 1571676554, -0.539624, -0.46335146, 0.46339095, -0.52855897, 2.2904596, -1.0423424, -3.629253, 0
481, 1571693221, -0.54066795, -0.46193707, 0.46333268, -0.52878124, 1.6568332, 2.307954, 0.1572504, 0
482, 1571709888, -0.54164076, -0.46153775, 0.46328408, -0.5281768, -1.9258419, 3.2476335, -1.339963, 0
483, 1571726555, -0.5429292, -0.4620568, 0.46284053, -0.526787, -0.71228105, 4.21061, -0.8809757, 0
484, 1571743222, -0.5439513, -0.46297622, 0.46296218, -0.5248149, 2.8931866, 0.4450572, -3.9080782, 0
485, 1571759889, -0.54513425, -0.46311823, 0.46297622, -0.5234478, 1.8241948, -2.512834, 1.3743496, 0
486, 1571776556, -0.5460257, -0.46295828, 0.4632883, -0.522383, 1.9987276, -1.6535767, -0.3577404, 0
487, 1571793223, -0.5463271, -0.4626899, 0.46406028, -0.52162, 0.14889026, -2.8424933, -0.06179619, 0
488, 1571809890, -0.5466266, -0.46290994, 0.46458724, -0.5206407, -3.4042554, -1.8152908, 1.9989071, 0
489, 1571826557, -0.546957, -0.4627356, 0.46499428, -0.52008504, 0.22859095, -1.940308, -1.3806477, 0
490, 1571843224, -0.54706645, -0.46180645, 0.46576193, -0.52010906, 0.37555754, -3.1673472, -6.7494154, 0
491, 1571859891, -0.547199, -0.46032074, 0.46671802, -0.5204293, -0.092872314, -1.2019583, 2.6181793, 0
492, 1571876558, -0.5466585, -0.45946372, 0.468587, -0.5200752, 1.9617271, 4.9098454, 13.314524, 0
493, 1571893225, -0.54565746, -0.4591154, 0.47097692, -0.51927483, 0.01122035, -2.0954952, 4.360652, 0
494, 1571909892, -0.5456488, -0.45765656, 0.4722269, -0.51943636, -0.5257832, -7.6104264, -5.293965, 0
495, 1571926559, -0.5460762, -0.45571056, 0.4726742, -0.5202906, 0.67817473, -2.3798997, -3.328662, 0
496, 1571943226, -0.54590595, -0.4544238, 0.4735568, -0.5207918, -0.56112593, 1.4366213, 3.6674738, 0
497, 1571959893, -0.54563034, -0.4536595, 0.47476274, -0.52064914, -2.2004697, -0.73517114, 2.3414345, 0
498, 1571976560, -0.5455456, -0.45327657, 0.47522372, -0.5206507, -2.0515397, -3.8432145, -0.11982155, 0
499, 1571993227, -0.5455639, -0.45333913, 0.47476038, -0.52099955, -1.4429699, -2.3892746, -0.20903587, 0
500, 1572009894, -0.54521674, -0.45383006, 0.47437486, -0.5212866, -1.3475115, -2.0243385, 0.9799652, 0
501, 1572026561, -0.5448836, -0.45437524, 0.4738448, -0.5216422, -2.8684492, -2.4352307, -0.17380333, 0
502, 1572043228, -0.5446363, -0.45525977, 0.47283387, -0.5220464, -2.9322395, -2.5809247, 0.9339485, 0
503, 1572059895, -0.5444154, -0.45664895, 0.47114083, -0.5225938, -2.6589193, -1.9301667, -0.42757416, 0
504, 1572076562, -0.5440932, -0.458301, 0.46925536, -0.5231793, -1.2987437, -1.4322711, -0.5264387, 0
505, 1572093229, -0.5437073, -0.45971566, 0.46760204, -0.5238194, -1.0835837, -0.8991289, -2.0211158, 0
506, 1572109896, -0.54326284, -0.46121037, 0.4658477, -0.52452916, -1.9253949, 0.22777691, 1.3728571, 0
507, 1572126563, -0.54273975, -0.46310088, 0.46402097, -0.52502394, -2.30565, 0.8913793, 0.12493324, 0
508, 1572143230, -0.54211, -0.46520004, 0.46235943, -0.52528465, -0.6029595, 1.1944883, -0.36623955, 0
509, 1572159897, -0.5413012, -0.4671163, 0.46111256, -0.525514, 0.33374763, 1.5513955, -1.9567533, 0
510, 1572176564, -0.5402538, -0.46891466, 0.46029162, -0.52570987, 0.023964165, 1.3615837, -0.9388552, 0
511, 1572193231, -0.5394067, -0.47028178, 0.45914856, -0.52635777, -0.25549966, -1.0251371, 3.457427, 0
512, 1572209898, -0.5388877, -0.47107175, 0.4578339, -0.5273271, 0.4833253, -1.3856751, 4.800805, 0
513, 1572226565, -0.5386127, -0.47108507, 0.45688203, -0.52842075, 1.1536891, 0.45058447, 1.0099163, 0
514, 1572243232, -0.53809756, -0.47115222, 0.4564785, -0.52923393, 0.8215071, 2.6198022, -5.8069243, 0
515, 1572259899, -0.5372747, -0.47166023, 0.4564079, -0.5296779, 0.20779452, 2.1961613, -2.864727, 0
516, 1572276566, -0.53648365, -0.47218272, 0.45638734, -0.530032, 0.21118242, 1.0124648, 0.34339142, 0
517, 1572293233, -0.5360941, -0.47239584, 0.45635292, -0.5302658, 0.33027393, -1.0489049, 2.9337025, 0
518, 1572309900, -0.5362893, -0.47196448, 0.45634148, -0.5304624, 1.0614091, -0.5854808, 2.3185396, 0
519, 1572326567, -0.5364994, -0.471575, 0.45622897, -0.53069293, 1.4668381, 0.10030021, -1.7825804, 0
520, 1572343234, -0.5366126, -0.4714114, 0.45596284, -0.5309525, 1.2876394, 0.80304503, -1.4292955, 0
521, 1572359901, -0.536635, -0.4714372, 0.45594373, -0.53092337, 0.7575403, 1.8452241, -0.033269882, 0
522, 1572376568, -0.53679466, -0.4715768, 0.4560089, -0.53058183, -0.7211892, 1.0649941, -0.31832886, 0
523, 1572393235, -0.53716755, -0.47181997, 0.45596504, -0.5300257, -0.77163, 0.55434966, 0.07737827, 0
524, 1572409902, -0.537562, -0.47219735, 0.45570153, -0.52951634, 0.2937718, 0.7469725, -0.26728916, 0
525, 1572426569, -0.5377278, -0.47269994, 0.45570564, -0.52889544, 0.8159071, 1.6653606, -0.5053797, 0
526, 1572443236, -0.5377986, -0.47301206, 0.45616496, -0.5281481, 0.73881894, 0.7863738, 0.06601143, 0
527, 1572459903, -0.537886, -0.4729982, 0.4565719, -0.5277195, 0.20770344, -0.73020655, 0.12290001, 0
528, 1572476570, -0.5382197, -0.47284895, 0.45651388, -0.5275632, -0.8538421, -0.8726386, 0.54022694, 0
529, 1572493237, -0.53877354, -0.47263178, 0.45604965, -0.52759415, 0.40855262, -0.30441526, -0.17673397, 0
530, 1572509904, -0.53944844, -0.4720929, 0.45596302, -0.52746165, 1.644155, 0.41943973, -1.5482006, 0
531, 1572526571, -0.5400441, -0.47148517, 0.45621267, -0.5271798, 0.81762785, 1.9066831, 2.0340128, 0
532, 1572543238, -0.5402574, -0.47142354, 0.45670643, -0.52658844, -0.044698566, 1.8449645, 0.010029793, 0
533, 1572559905, -0.54044783, -0.4714241, 0.45726573, -0.52590674, 0.57337284, -0.16499212, 0.77980137, 0
534, 1572576572, -0.5408042, -0.4709989, 0.45777944, -0.5254744, 1.9253515, -1.616318, 0.6460123, 0
535, 1572593239, -0.54124683, -0.4699584, 0.45853776, -0.5252889, 1.2930001, -0.38466892, 0.5275574, 0
536, 1572609906, -0.541557, -0.4690023, 0.45929536, -0.5251619, -0.7853691, 2.0501592, -1.789609, 0
537, 1572626573, -0.54166406, -0.46828112, 0.46023726, -0.5248705, 0.5466347, 1.1441329, -0.9373827, 0
538, 1572643240, -0.541763, -0.4672184, 0.46147028, -0.5246327, 1.1753889, 1.390439, 1.5038633, 0
539, 1572659907, -0.5419155, -0.4659613, 0.4629504, -0.52428913, 0.9168374, 0.43056867, 0.32313728, 0
540, 1572676574, -0.5422065, -0.46473318, 0.46422553, -0.5239509, 0.7432626, 0.56643903, 0.052145958, 0
541, 1572693241, -0.5424921, -0.46366856, 0.46520868, -0.5237261, 1.5136727, 0.26042992, -0.029642105, 0
542, 1572709908, -0.54286766, -0.46221003, 0.46617523, -0.52376705, 1.4566926, 0.33867353, -0.85583687, 0
543, 1572726575, -0.54331, -0.4607221, 0.4670451, -0.5238442, -0.18585192, 1.8977392, -0.60352135, 0
544, 1572743242, -0.54386014, -0.4596094, 0.4675712, -0.5237813, -0.8274206, 3.128984, -0.12230015, 0
545, 1572759909, -0.5443463, -0.45893145, 0.46808925, -0.52340794, 0.5636556, 2.8471227, -1.681694, 0
546, 1572776576, -0.54487455, -0.4582202, 0.46868604, -0.5229472, 0.7960535, 1.9236315, 0.89301777, 0
547, 1572793243, -0.5453299, -0.4576039, 0.469272, -0.52248657, 0.4272951, 3.277284, 0.98263454, 0
548, 1572809910, -0.5454029, -0.45745358, 0.47007263, -0.521822, -0.027798977, 3.867939, -1.5634003, 0
549, 1572826577, -0.5453257, -0.457468, 0.47097167, -0.5210787, 0.1615698, 3.6700096, -1.4390621, 0
550, 1572843244, -0.54542, -0.45728564, 0.47167504, -0.5205035, 0.12057496, 2.0289757, 1.1560936, 0
551, 1572859911, -0.54591227, -0.4566886, 0.47194743, -0.5202646, -0.5661912, 1.7903129, 1.6175747, 0
552, 1572876578, -0.5463775, -0.45623153, 0.47195426, -0.5201711, 0.08181882, 3.6471593, 0.45624256, 0
553, 1572893245, -0.54637444, -0.4563207, 0.47210315, -0.51996094, -0.12701297, 5.3888717, -2.595222, 0
554, 1572909912, -0.5461826, -0.45666188, 0.4723613, -0.5196285, -0.24291992, 4.6081567, -2.5482788, 0
555, 1572926579, -0.5459202, -0.45711267, 0.47258458, -0.5193048, -1.0629175, 3.3626528, -2.7626762, 0
556, 1572943246, -0.5459634, -0.4576219, 0.47225592, -0.51910985, -1.3632041, 3.4538422, 1.1302996, 0
557, 1572959913, -0.54601, -0.45832947, 0.47155884, -0.5190702, -0.5196486, 3.4570198, 2.3513746, 0
558, 1572976580, -0.5461089, -0.45896527, 0.4707199, -0.51916593, -0.39253613, 3.2779777, 1.0513124, 0
559, 1572993247, -0.5459619, -0.45985734, 0.47001243, -0.5191722, -0.8306488, 3.7677526, -0.58423996, 0
560, 1573009914, -0.54577535, -0.4610039, 0.46923155, -0.5190578, -1.2055565, 3.1101372, -2.3026347, 0
561, 1573026581, -0.5455658, -0.46258375, 0.46837726, -0.51864415, -0.21514072, 3.8187375, -0.05132675, 0
562, 1573043248, -0.5456489, -0.46428755, 0.46721306, -0.5180837, 0.41337636, 0.6993722, -2.450644, 0
563, 1573059915, -0.5460871, -0.46565166, 0.4660265, -0.51746595, 0.91644293, 0.71786106, 2.1459293, 0
564, 1573076582, -0.54670703, -0.46672565, 0.46491784, -0.5168408, 0.31910497, -0.10732958, 0.05776596, 0
565, 1573093249, -0.5473659, -0.46791136, 0.4638591, -0.51602215, 0.09645188, -1.288805, -3.1244454, 0
566, 1573109916, -0.5480557, -0.46899587, 0.4630351, -0.5150443, 0.3517372, -0.40731817, -2.8082466, 0
567, 1573126583, -0.5485837, -0.47004437, 0.4628291, -0.5137099, 1.0509523, -0.8609854, -1.3071918, 0
568, 1573143250, -0.54893994, -0.47115627, 0.46303433, -0.51212347, 1.3037417, -2.1431773, 0.45321846, 0
569, 1573159917, -0.54941005, -0.47187606, 0.46322122, -0.5107858, 2.0356908, -4.612405, 2.0134287, 0
570, 1573176584, -0.5500932, -0.4718732, 0.46334368, -0.5099414, 1.7865399, -5.81597, 1.6892948, 0
571, 1573193251, -0.55090725, -0.47144392, 0.4633232, -0.50947803, 1.0882195, -4.7029448, 1.5489998, 0
572, 1573209918, -0.5517305, -0.47085008, 0.4635343, -0.50894403, 0.638022, -2.9147449, 2.237894, 0
573, 1573226585, -0.5527796, -0.47008127, 0.4640229, -0.5080703, 0.6176025, -2.36945, 1.5180397, 0
574, 1573243252, -0.5538325, -0.46943906, 0.4645587, -0.50702703, 1.2624475, -3.8356192, 1.1185675, 0
575, 1573259919, -0.5548879, -0.46830577, 0.46523675, -0.50629866, 1.2056291, -4.078385, 1.9828424, 0
576, 1573276586, -0.55555415, -0.46669558, 0.46642643, -0.5059603, 0.6408899, -3.5314515, 2.2060604, 0
577, 1573293253, -0.55608493, -0.4650786, 0.4674896, -0.5058849, -1.9486057, -3.6390252, 0.086224556, 0
578, 1573309920, -0.55657274, -0.46372724, 0.46812156, -0.50600433, -1.7012787, -3.3123717, 2.5917149, 0
579, 1573326587, -0.5569737, -0.4623023, 0.46913725, -0.5059265, 0.7894086, -1.6916955, 0.0764904, 0
580, 1573343254, -0.55711263, -0.4608675, 0.47027594, -0.5060253, 0.5377266, -2.8799825, -1.5031948, 0
581, 1573359921, -0.5571778, -0.45944598, 0.47135863, -0.5062389, 0.12144912, -1.4124656, -0.8535118, 0
582, 1573376588, -0.55700445, -0.45825925, 0.47244292, -0.5064946, -0.12563597, -1.5301721, 0.034659386, 0
583, 1573393255, -0.5567144, -0.4569829, 0.47349524, -0.50698376, -0.6313769, -1.3495985, 1.8081036, 0
584, 1573409922, -0.5564049, -0.455421, 0.47468805, -0.5076131, -1.2227725, -1.8785986, -0.5839281, 0
585, 1573426589, -0.5559398, -0.4540584, 0.4757088, -0.5083872, -0.49149135, -0.37250558, 0.7735815, 0
586, 1573443256, -0.5552196, -0.45281714, 0.47695372, -0.50911456, -0.44903463, 0.113180704, -0.53419304, 0
587, 1573459923, -0.55428916, -0.4517197, 0.47846016, -0.5096893, -0.79101616, -0.40893283, -0.31524086, 0
588, 1573476590, -0.5533145, -0.4510056, 0.47964334, -0.5102684, -1.458671, -0.030525388, -0.44381046, 0
589, 1573493257, -0.55245155, -0.4504996, 0.48047408, -0.51086843, -1.421055, -1.4792379, -0.077718735, 0
590, 1573509924, -0.551712, -0.44991615, 0.48107094, -0.51161957, -0.6645253, -0.7936735, 0.9321785, 0
591, 1573526591, -0.5509493, -0.44942176, 0.4815338, -0.5124399, -0.8421045, -0.34136665, 0.23305988, 0
592, 1573543258, -0.5501419, -0.44919822, 0.48170325, -0.51334333, -1.1381769, 0.10243264, 0.8445873, 0
593, 1573559925, -0.54925776, -0.44916323, 0.4818073, -0.5142223, -0.7128407, 0.7626973, -0.36489964, 0
594, 1573576592, -0.5483369, -0.44922408, 0.4818211, -0.51513815, -0.7135194, -0.24129352, -2.2965326, 0
595, 1573593259, -0.5474374, -0.44927028, 0.48176947, -0.516102, -1.0847673, 1.2275676, 1.0789614, 0
596, 1573609926, -0.5465631, -0.4494538, 0.48171192, -0.5169218, -1.3108076, 0.11418055, -0.64272785, 0
597, 1573626593, -0.54587, -0.44972554, 0.48127478, -0.5178242, -0.90957075, -0.009601222, 0.61302567, 0
598, 1573643260, -0.545319, -0.44995242, 0.48067307, -0.5187657, -0.7505232, 0.25552762, 0.8211851, 0
599, 1573659927, -0.54471505, -0.45027465, 0.48011434, -0.51963747, -0.5793458, 0.75806093, -1.0923204, 0
600, 1573676594, -0.5439991, -0.4510108, 0.4795522, -0.5202676, -0.8958951, 1.0738219, -0.2019043, 0
601, 1573693261, -0.54338354, -0.45190543, 0.47869146, -0.520927, -1.2457592, 0.71575934, 0.98688316, 0
602, 1573709928, -0.5428542, -0.4528892, 0.47768414, -0.52154857, -0.8959416, -0.4867046, -1.0578566, 0
603, 1573726595, -0.5423835, -0.4540131, 0.47638318, -0.52225053, -0.80350584, 0.9883014, 1.2888765, 0
604, 1573743262, -0.5417935, -0.45528036, 0.4750513, -0.5229724, -1.691927, 1.7685595, -0.3987589, 0
605, 1573759929, -0.5412091, -0.45648062, 0.47398573, -0.523498, -1.0707511, 1.1051135, 0.46211815, 0
606, 1573776596, -0.5406582, -0.457407, 0.47290972, -0.52423114, -0.19061387, 0.5829953, -1.0041647, 0
607, 1573793263, -0.540034, -0.4580934, 0.47204873, -0.52505064, 0.3488514, 1.2065296, 1.689475, 0
608, 1573809930, -0.5393015, -0.45859525, 0.47151792, -0.5258418, -0.36448547, 2.5211382, -0.21445084, 0
609, 1573826597, -0.53850883, -0.45916376, 0.47126296, -0.52638656, -0.011798094, 1.7367918, -2.210535, 0
610, 1573843264, -0.5378342, -0.45933598, 0.47106138, -0.5271059, 1.2434893, 0.77052695, 0.28034592, 0
611, 1573859931, -0.53723496, -0.45931622, 0.47098997, -0.5277975, 0.123986214, 2.2235663, -0.20543575, 0
612, 1573876598, -0.5366982, -0.4594756, 0.47095668, -0.52823424, -0.4894668, 2.2183077, -0.6689205, 0
613, 1573893265, -0.5364032, -0.4594963, 0.4708498, -0.52861106, 0.30129355, 1.3107965, -1.3881531, 0
614, 1573909932, -0.53624713, -0.4595568, 0.47056773, -0.528968, 0.45046934, 1.1351418, 1.1227684, 0
615, 1573926599, -0.53606606, -0.45967776, 0.4702921, -0.52929145, 0.6627376, 2.3426063, 0.36905384, 0
616, 1573943266, -0.53570414, -0.45986325, 0.47035223, -0.5294433, 0.18896993, 1.8003336, -0.84179974, 0
617, 1573959933, -0.5353246, -0.46029565, 0.4703428, -0.52945995, -0.4377479, 2.1295214, 0.26265526, 0
618, 1573976600, -0.5350618, -0.46086866, 0.4701608, -0.52938867, -0.44232163, 1.2760458, -1.3055925, 0
619, 1573993267, -0.5350249, -0.46125132, 0.4698277, -0.5293885, 0.06991061, -0.10305892, 0.72246075, 0
620, 1574009934, -0.535132, -0.46160018, 0.4692389, -0.52949816, -0.73701364, 0.954797, 1.0430956, 0
621, 1574026601, -0.5353012, -0.46205568, 0.4686271, -0.5294716, -0.11159578, 1.3011602, 0.24972248, 0
622, 1574043268, -0.5353868, -0.4623241, 0.46838877, -0.5293618, 1.3449757, 1.821937, -0.96145725, 0
623, 1574059935, -0.53539205, -0.46240225, 0.46848062, -0.5292069, 0.96011937, 0.762668, 0.13949966, 0
624, 1574076602, -0.53552943, -0.4623935, 0.46837592, -0.52916825, 0.1415141, 0.9560528, 0.5715723, 0
625, 1574093269, -0.53582305, -0.4622252, 0.4682305, -0.5291467, 1.2615997, 0.1789809, 0.2649107, 0
626, 1574109936, -0.536218, -0.4618309, 0.46809304, -0.5292127, 0.993455, 1.2245593, 0.60287285, 0
627, 1574126603, -0.5366314, -0.46144313, 0.46805885, -0.5291619, 0.45939377, 2.6657465, 0.21078682, 0
628, 1574143270, -0.5369356, -0.4613399, 0.46813205, -0.5288785, 0.7479679, 3.535667, -1.9989638, 0
629, 1574159937, -0.5371391, -0.4613816, 0.46829006, -0.52849543, 1.1753513, 3.8953042, -2.5226579, 0
630, 1574176604, -0.5373194, -0.46147683, 0.46859843, -0.5279554, -0.048890665, 3.8422012, -1.720501, 0
631, 1574193271, -0.5376316, -0.46166345, 0.46900135, -0.527116, 0.031027174, 3.4620798, 1.4611864, 0
632, 1574209938, -0.53800905, -0.46181735, 0.46930683, -0.52632356, 0.7429772, 3.036625, 2.3358316, 0
633, 1574226605, -0.53854936, -0.46171054, 0.4694205, -0.525763, 1.0583131, 1.6951631, -0.17617512, 0
634, 1574243272, -0.5390315, -0.4613726, 0.46960726, -0.5253986, 1.4858208, 3.6605668, 1.4034729, 0
635, 1574259939, -0.5391075, -0.4612237, 0.4702044, -0.5249169, 1.0181304, 5.534112, -3.9650893, 0
636, 1574276606, -0.53908, -0.46107897, 0.47106406, -0.5243014, 0.44156975, 3.382027, -2.109867, 0
637, 1574293273, -0.5392229, -0.460809, 0.47186866, -0.52366805, 0.4977172, 4.672984, -0.46848392, 0
638, 1574309940, -0.53975534, -0.46017677, 0.47227183, -0.5233119, 1.0781219, -0.29086748, -2.192397, 0
639, 1574326607, -0.54082346, -0.45898655, 0.47208935, -0.52341896, 0.8372599, 1.155424, -0.6242361, 0
640, 1574343274, -0.54154444, -0.45831245, 0.47225964, -0.52311057, 1.4359355, 6.3445134, 4.6872635, 0
641, 1574359941, -0.5419143, -0.45824802, 0.47305527, -0.52206427, 1.457782, 4.372287, -0.16316032, 0
642, 1574376608, -0.542351, -0.45844376, 0.47376707, -0.5207916, 1.3084128, -0.44148636, -3.9654255, 0
643, 1574393275, -0.543195, -0.45836958, 0.4740012, -0.51976347, 1.0927676, -3.4014997, -2.9146986, 0
644, 1574409942, -0.54424906, -0.45791024, 0.47426134, -0.5188272, 1.2108195, -2.6163805, 0.7792101, 0
645, 1574426609, -0.5450958, -0.45792344, 0.47450116, -0.5177062, 0.256039, -2.9250627, 1.5614376, 0
646, 1574443276, -0.5458617, -0.4586345, 0.47449216, -0.51627606, -0.8945415, -4.920574, -0.33344555, 0
647, 1574459943, -0.54669, -0.45959908, 0.4740726, -0.5149256, -0.4017462, -5.3911805, 2.3654203, 0
648, 1574476610, -0.5472941, -0.4609141, 0.47359157, -0.51354927, -1.2119179, -3.7815611, -0.93638515, 0
649, 1574493277, -0.5479603, -0.46241474, 0.47294676, -0.51208186, -3.2853146, -5.590605, -0.32281494, 0
650, 1574509944, -0.54886895, -0.46409863, 0.4715163, -0.5109033, -3.4917665, -3.8638675, 2.80402, 0
651, 1574526611, -0.5493068, -0.46591192, 0.4701663, -0.51002574, -1.8746239, -2.3584273, 3.3568563, 0
652, 1574543278, -0.5492573, -0.46727067, 0.46928158, -0.5096505, -2.0690312, -3.6900082, -0.028780937, 0
653, 1574559945, -0.5490649, -0.46808553, 0.46830678, -0.51000667, -2.9758563, -4.9021425, 2.0503292, 0
654, 1574576612, -0.5486676, -0.46871004, 0.4673158, -0.5107692, -2.3290408, -4.1629896, 4.5224667, 0
655, 1574593279, -0.5482187, -0.46916628, 0.46634862, -0.5117155, -1.6300603, -3.787057, 3.7047129, 0
656, 1574609946, -0.5477501, -0.46963722, 0.46547177, -0.51258296, -1.061687, -3.651118, -1.5194998, 0
657, 1574626613, -0.54723823, -0.47026187, 0.46466538, -0.51328796, 0.081588484, -3.2018135, -3.4150782, 0
658, 1574643280, -0.54646736, -0.47123072, 0.4639973, -0.5138248, -0.4394048, -1.9526596, -1.0292912, 0
659, 1574659947, -0.54573464, -0.47218773, 0.46342224, -0.51424384, -1.2524233, -3.3699667, -0.23147297, 0
660, 1574676614, -0.54531837, -0.4727107, 0.46262366, -0.5149237, -0.82498676, -4.3291535, 1.5942745, 0
661, 1574693281, -0.54481125, -0.4730781, 0.4620424, -0.51564443, -0.24090517, -1.2765677, 2.8267841, 0
662, 1574709948, -0.54417855, -0.47353336, 0.46161208, -0.5162796, -0.8668764, -1.553818, 1.7985592, 0
663, 1574726615, -0.54367566, -0.47393772, 0.46079788, -0.51716495, -1.3323243, -1.9877477, -2.3740573, 0
664, 1574743282, -0.543128, -0.47448066, 0.4598379, -0.51809615, -0.99050635, -1.3346927, -0.9439831, 0
665, 1574759949, -0.5423988, -0.4752823, 0.4589113, -0.5189463, -1.2840551, 0.15659474, -0.6615305, 0
666, 1574776616, -0.5416531, -0.476168, 0.45825997, -0.51948833, -1.705468, -0.25689194, 0.67697144, 0
667, 1574793283, -0.5410498, -0.47716358, 0.4572175, -0.5201218, -1.1819457, -1.0976483, 0.49605846, 0
668, 1574809950, -0.540487, -0.47823215, 0.45604274, -0.5207565, -0.7798099, -0.7544769, 0.12745667, 0
669, 1574826617, -0.5399576, -0.47917843, 0.4548736, -0.5214581, -0.4983103, -0.31757638, 0.3215418, 0
670, 1574843284, -0.5393691, -0.48007494, 0.45386216, -0.52212316, -1.0142401, 0.33221266, 0.35128117, 0
671, 1574859951, -0.53895617, -0.4806817, 0.45304522, -0.5227007, -0.019090213, -0.352419, 0.7329645, 0
672, 1574876618, -0.53849244, -0.4810932, 0.452181, -0.52354765, 1.0787603, 0.3441306, 0.77610016, 0
673, 1574893285, -0.53801066, -0.4811496, 0.4517138, -0.52439374, 0.93764335, -0.06474545, -0.68634796, 0
674, 1574909952, -0.5375664, -0.48094472, 0.451544, -0.52518284, 0.48919743, 1.9856529, 1.2058315, 0
675, 1574926619, -0.5370754, -0.48095945, 0.45163587, -0.52559257, 0.12091749, 1.223534, -3.4009628, 0
676, 1574943286, -0.5367405, -0.48066258, 0.45194456, -0.5259409, 1.2720073, 0.42710352, -0.5785427, 0
677, 1574959953, -0.5366544, -0.4802169, 0.45216182, -0.5262489, 0.81130177, 1.423596, 0.43127155, 0
678, 1574976620, -0.5367975, -0.47994566, 0.45214877, -0.52636164, 0.4695587, -0.012272873, 1.3614416, 0
679, 1574993287, -0.53730476, -0.47970173, 0.45192677, -0.52625686, 0.7453071, 1.1381593, 0.5447397, 0
680, 1575009954, -0.5378023, -0.47977415, 0.4515059, -0.52604413, 0.9602157, 1.7396863, -0.774395, 0
681, 1575026621, -0.53818595, -0.4801305, 0.4511828, -0.5256036, 0.6512781, 1.5863746, -1.940269, 0
682, 1575043288, -0.5384942, -0.4809641, 0.45075145, -0.5248954, -0.6486109, 2.076227, -0.44159317, 0
683, 1575059955, -0.5389134, -0.48207492, 0.44999933, -0.524091, -0.76883906, 1.2228951, -0.3389902, 0
684, 1575076622, -0.5394834, -0.48295003, 0.44931743, -0.5232832, -0.29782364, 0.87630934, 0.096009254, 0
685, 1575093289, -0.54013646, -0.48337823, 0.44868213, -0.52275884, 0.4495487, 0.75333613, -0.050099373, 0
686, 1575109956, -0.5405654, -0.48351294, 0.44849962, -0.5223474, 1.4622352, 2.2255065, -0.54796124, 0
687, 1575126623, -0.54077536, -0.48339075, 0.44876498, -0.52201533, 1.339712, 1.798625, -1.0250998, 0
688, 1575143290, -0.54094285, -0.48281124, 0.4495787, -0.5216777, 1.6556009, 2.131801, 0.20122051, 0
689, 1575159957, -0.54113346, -0.4821617, 0.4505808, -0.5212159, 0.8360549, 2.0350828, 0.5111637, 0
690, 1575176624, -0.54154676, -0.48128083, 0.45164132, -0.52068275, 1.127582, 1.3305948, 1.1178637, 0
691, 1575193291, -0.5420822, -0.48015907, 0.45274732, -0.52020043, 1.2991524, 0.83465797, -0.7126522, 0
692, 1575209958, -0.5426683, -0.47902417, 0.45361805, -0.51987714, 1.2488822, 0.8083029, 1.0502291, 0
693, 1575226625, -0.54304224, -0.47801495, 0.45452443, -0.51962376, 0.67316604, 2.56166, -0.15221691, 0
694, 1575243292, -0.54321116, -0.47709227, 0.45566148, -0.5192994, -0.015463744, 1.1118255, -0.3815689, 0
695, 1575259959, -0.5432869, -0.47631598, 0.45662925, -0.5190824, -0.6798366, 1.1346112, -0.050509453, 0
696, 1575276626, -0.5434617, -0.475534, 0.45735493, -0.51897776, -1.0233114, -0.35837078, 0.6877241, 0
697, 1575293293, -0.5435791, -0.47492334, 0.45773503, -0.5190787, -0.71151525, 0.47469816, 0.09145069, 0
698, 1575309960, -0.5435218, -0.47458532, 0.45802206, -0.5191949, -0.5455556, 0.5788999, 0.40997887, 0
699, 1575326627, -0.5433938, -0.4742518, 0.45851052, -0.51920253, -0.018659085, 0.54540557, -1.7168455, 0
700, 1575343294, -0.5431983, -0.4741041, 0.4589292, -0.5191718, -0.51714844, 1.0000558, 1.1222181, 0
701, 1575359961, -0.54305106, -0.474246, 0.45914444, -0.5190059, -0.15154245, 0.7293789, -0.49480534, 0
702, 1575376628, -0.54299545, -0.4744607, 0.4592782, -0.5187495, 1.4178766, 0.28930333, -0.7550554, 0
703, 1575393295, -0.5432284, -0.47436935, 0.4592336, -0.5186285, 1.1795439, -0.6028891, 0.4923067, 0
704, 1575409962, -0.5437696, -0.47410098, 0.4590039, -0.5185101, 0.3276948, -0.17136939, -0.19414616, 0
705, 1575426629, -0.5444325, -0.47412744, 0.45844907, -0.51828104, 0.030058693, 1.607763, 0.75249386, 0
706, 1575443296, -0.54512304, -0.4744472, 0.45784664, -0.51779515, 0.7647916, 2.2425518, -2.098815, 0
707, 1575459963, -0.54581064, -0.47469488, 0.45758227, -0.5170769, 1.0881723, 1.5193985, -1.1927109, 0
708, 1575476630, -0.5466552, -0.47474596, 0.4574629, -0.5162425, 0.56640977, 2.3968723, 0.8598976, 0
709, 1575493297, -0.54748267, -0.47489998, 0.45736477, -0.51531005, 0.8071672, 2.2178195, 1.6975403E-4, 0
710, 1575509964, -0.54841185, -0.4748865, 0.45718125, -0.5144969, 1.7370408, 0.6050661, 0.35379314, 0
711, 1575526631, -0.549369, -0.4743894, 0.45722044, -0.5138994, 2.290167, 1.9376571, 3.0050974, 0
712, 1575543298, -0.55007225, -0.47397056, 0.45762974, -0.5131686, 0.51691985, 3.7413914, -3.712212, 0
713, 1575559965, -0.5506665, -0.4737253, 0.45824414, -0.51220846, 0.6790557, 3.0483387, -1.6153221, 0
714, 1575576632, -0.5512308, -0.47325864, 0.45915195, -0.51121885, 1.6129915, 2.9206884, -0.30644798, 0
715, 1575593299, -0.55186933, -0.47217274, 0.4603317, -0.51047266, 2.2223227, 1.3165762, 3.215703, 0
716, 1575609966, -0.55270433, -0.47036204, 0.46142814, -0.51025105, 1.6323862, 1.0037556, -1.1776981, 0
717, 1575626633, -0.5533613, -0.46893364, 0.46248132, -0.50990003, 1.0216409, 3.3130243, -1.7162237, 0
718, 1575643300, -0.55392945, -0.4678937, 0.46367392, -0.5091549, 1.754755, 6.2248383, -1.798337, 0
719, 1575659967, -0.5543934, -0.46677905, 0.4654425, -0.50805795, 3.113215, 4.1026692, -1.2970276, 0
720, 1575676634, -0.5551053, -0.46539867, 0.46704307, -0.50707746, 2.744535, 2.6027699, 3.4331532, 0
721, 1575693301, -0.55601114, -0.4640432, 0.46832263, -0.50614625, 1.7183597, 2.735744, 0.9228859, 0
722, 1575709968, -0.5570743, -0.46308443, 0.4693042, -0.50494456, 1.2138042, 1.0424725, -2.9223914, 0
723, 1575726635, -0.5582285, -0.46258953, 0.46991444, -0.5035542, 1.2507766, 1.172808, -4.175346, 0
724, 1575743302, -0.5591706, -0.46266338, 0.47064304, -0.5017575, 0.5069879, 0.87309784, -2.1525083, 0
725, 1575759969, -0.560005, -0.46369824, 0.47104505, -0.49948922, -1.7842706, -0.5998717, -1.2544346, 0
726, 1575776636, -0.5610371, -0.46531397, 0.47055405, -0.49728617, -1.7927154, -3.7571137, 1.033124, 0
727, 1575793303, -0.5622674, -0.46669278, 0.46944454, -0.49565056, -0.8688601, -5.345344, 1.0747814, 0
728, 1575809970, -0.56312513, -0.4679167, 0.46850038, -0.49441466, -1.4568993, -3.9960926, 3.093627, 0
729, 1575826637, -0.563501, -0.46922976, 0.46800226, -0.49321237, -1.7567868, -3.568417, 0.6096506, 0
730, 1575843304, -0.56359816, -0.47024915, 0.4678837, -0.49224228, 0.051375795, -3.318061, 0.87463, 0
731, 1575859971, -0.5634649, -0.4705384, 0.46849474, -0.4915366, 0.7524541, -4.7031302, 1.2442007, 0
732, 1575876638, -0.56312823, -0.4699958, 0.46982452, -0.49117205, -0.2783398, -5.106437, 5.5847397, 0
733, 1575893305, -0.5628679, -0.4685898, 0.47131082, -0.49138993, -0.11845565, -5.8658814, 4.4621897, 0
734, 1575909972, -0.5628318, -0.466186, 0.47260457, -0.49247372, 0.047287744, -8.27821, -1.5087137, 0
735, 1575926639, -0.5632019, -0.46290514, 0.47348028, -0.49430093, 0.030992754, -7.2833734, -3.7366862, 0
736, 1575943306, -0.56318605, -0.46001315, 0.47458595, -0.49595574, 0.74191105, -1.1223625, 4.6497746, 0
737, 1575959973, -0.5625256, -0.45843145, 0.47646734, -0.4963657, -0.22082208, -0.27659193, 4.274824, 0
738, 1575976640, -0.5618916, -0.45750868, 0.4777891, -0.49666455, -1.8784925, -6.576252, -1.4384241, 0
739, 1575993307, -0.5618151, -0.45663515, 0.477745, -0.4975967, -1.8040035, -6.007002, -0.87020206, 0
740, 1576009974, -0.5613353, -0.45619035, 0.47775304, -0.49853736, -0.9898649, -0.657171, 1.363553, 0
741, 1576026641, -0.5606105, -0.45618647, 0.47796956, -0.49914876, -3.112442, -0.6232274, -1.842946, 0
742, 1576043308, -0.560112, -0.4565313, 0.47764376, -0.49970475, -3.806279, -1.3411971, -1.0592756, 0
743, 1576059975, -0.5598296, -0.45717585, 0.47673604, -0.50029814, -1.7049499, -0.09712979, -0.63151836, 0
744, 1576076642, -0.55939615, -0.45770484, 0.4759151, -0.50108045, 0.24867873, -0.07968773, 1.1956854, 0
745, 1576093309, -0.5588373, -0.45773065, 0.47570205, -0.501882, -0.64978355, 1.3414943, 0.49184227, 0
746, 1576109976, -0.5581049, -0.45772135, 0.4755846, -0.5028161, -0.92428666, 0.86239904, 0.87078667, 0
747, 1576126643, -0.55738026, -0.45732957, 0.47550917, -0.50404596, 0.83627486, 0.7063479, -0.7222576, 0
748, 1576143310, -0.5563843, -0.45672008, 0.4759571, -0.5052747, 1.5748975, 1.0903288, 0.9751682, 0
749, 1576159977, -0.55530137, -0.45572168, 0.47696412, -0.5064166, 1.0924804, 3.3125966, -0.6233578, 0
750, 1576176644, -0.5538269, -0.45519817, 0.4785272, -0.5070272, 0.07380705, 2.203951, -5.911919, 0
751, 1576193311, -0.5524466, -0.45483184, 0.47982702, -0.50763303, -0.0285245, -0.09398988, -0.8528843, 0
752, 1576209978, -0.5514057, -0.45408314, 0.48084694, -0.5084694, 0.32776275, -0.4807281, 3.329401, 0
753, 1576226645, -0.55074126, -0.45279542, 0.48165822, -0.50956863, 0.0301966, -1.5904053, 3.1452732, 0
754, 1576243312, -0.55029774, -0.4512498, 0.48233417, -0.51077795, -0.48991358, 0.4226706, 0.31415367, 0
755, 1576259979, -0.54960006, -0.4501173, 0.48304272, -0.51185805, -0.23919307, 1.2856419, -1.4846354, 0
756, 1576276646, -0.54857063, -0.44953048, 0.4837607, -0.51279885, 0.11375267, 2.5976555, -0.9185562, 0
757, 1576293313, -0.54735446, -0.44920373, 0.48453423, -0.51365376, -0.8251584, 0.51431805, -1.3920221, 0
758, 1576309980, -0.5465714, -0.4487461, 0.4847376, -0.5146947, -2.478909, -1.0664676, 0.04744339, 0
759, 1576326647, -0.54608214, -0.44850445, 0.48433718, -0.5158004, -2.178992, -0.022562739, 2.0337324, 0
760, 1576343314, -0.5454525, -0.44884688, 0.48382902, -0.516645, -1.4356552, 2.3929114, 0.043619156, 0
761, 1576359981, -0.5444676, -0.4496858, 0.48355672, -0.517209, -0.9507401, 1.0929337, -0.5724058, 0
762, 1576376648, -0.5434633, -0.45052272, 0.48317966, -0.5178888, -0.74429816, -0.064815626, -0.36778355, 0
763, 1576393315, -0.5425805, -0.4515918, 0.48246753, -0.5185468, -1.8555818, -0.09764543, 0.7832527, 0
764, 1576409982, -0.541956, -0.45272622, 0.48118433, -0.5194025, -2.114584, -0.68317604, -0.22586918, 0
765, 1576426649, -0.5415444, -0.45389354, 0.47958192, -0.52029425, -2.1909528, 0.5568986, -1.2619171, 0
766, 1576443316, -0.54118085, -0.45530957, 0.4779183, -0.52096564, -1.3399932, 0.59673804, 0.45201302, 0
767, 1576459983, -0.54065585, -0.4569122, 0.47630894, -0.521581, -0.8096922, 2.1104982, 0.31974316, 0
768, 1576476650, -0.5399043, -0.45869854, 0.474985, -0.52199894, -1.0520983, 0.9390251, 0.46255302, 0
769, 1576493317, -0.5391407, -0.46040532, 0.47369525, -0.52245724, -1.1260076, -0.10391788, -0.5684185, 0
770, 1576509984, -0.5385612, -0.46183452, 0.4722533, -0.5230986, -0.9588081, -0.29656243, 1.6722269, 0
771, 1576526651, -0.5381321, -0.46305773, 0.4705825, -0.5239638, -1.3606327, 0.5490672, 0.5976362, 0
772, 1576543318, -0.53761697, -0.4644226, 0.46928397, -0.52444893, -0.061216958, 2.5384107, -0.8485832, 0
773, 1576559985, -0.5369367, -0.46571988, 0.4683585, -0.5248227, 0.4538758, 1.620223, -3.1806436, 0
774, 1576576652, -0.53628045, -0.46680066, 0.46767473, -0.525143, -0.26693884, 0.96593225, 0.39567947, 0
775, 1576593319, -0.5360247, -0.46769977, 0.46661106, -0.52555025, -0.5874289, 0.34993255, 1.1798658, 0
776, 1576609986, -0.53597987, -0.46844038, 0.46543023, -0.52598315, 0.9801345, 0.67538553, 1.3448849, 0
777, 1576626653, -0.5360306, -0.46870646, 0.46474716, -0.52629846, 1.3935969, 1.1286901, -0.34175873, 0
778, 1576643320, -0.5360822, -0.46884584, 0.46432805, -0.5264917, 0.88980174, 1.596186, -0.5681772, 0
779, 1576659987, -0.53611547, -0.46919006, 0.46384823, -0.5265741, 0.38413864, 1.6783923, -2.3671875, 0
780, 1576676654, -0.5361322, -0.46967122, 0.46338144, -0.526539, 0.59621835, 2.312691, 0.3730936, 0
781, 1576693321, -0.5363248, -0.46998888, 0.46314713, -0.52626556, 0.2472297, 1.9683418, 0.07326794, 0
782, 1576709988, -0.5366918, -0.4705101, 0.46289554, -0.52564675, -0.5377713, 1.6920849, 1.6850233, 0
783, 1576726655, -0.53736824, -0.47120816, 0.46221268, -0.52493066, -0.01702463, 0.5863537, -0.13170052, 0
784, 1576743322, -0.5382118, -0.47197285, 0.4612766, -0.52420247, 1.2432696, 1.1667587, 2.7269535, 0
785, 1576759989, -0.53905565, -0.47274134, 0.46028388, -0.523515, 0.8042211, 2.0864742, -1.6516304, 0
786, 1576776656, -0.5397819, -0.47365552, 0.45955384, -0.52258086, 0.35689622, 2.4264724, -0.0744257, 0
787, 1576793323, -0.5405897, -0.47464862, 0.45875904, -0.521542, -0.2039302, 4.8257585, -0.22570992, 0
788, 1576809990, -0.5411903, -0.4759788, 0.4581847, -0.52021, 0.6739418, 4.169469, -4.0080466, 0
789, 1576826657, -0.542066, -0.47703102, 0.45744434, -0.5189846, 0.2767525, 2.7978966, -2.0859032, 0
790, 1576843324, -0.54308146, -0.4779068, 0.4566404, -0.5178241, 0.64206856, 4.68754, 0.9826317, 0
791, 1576859991, -0.54410565, -0.4785285, 0.4560978, -0.5166517, 1.0421462, 3.6603532, 0.22843838, 0
792, 1576876658, -0.5449789, -0.47889882, 0.4559825, -0.5154884, 1.1499072, 4.6371107, -0.89288807, 0
793, 1576893325, -0.545605, -0.479098, 0.45642683, -0.5142464, 1.7755955, 4.1180205, -2.5628686, 0
794, 1576909992, -0.54611313, -0.4789219, 0.45707437, -0.5132951, 1.8148559, 4.422728, 0.023159027, 0
795, 1576926659, -0.54659086, -0.47830752, 0.45803425, -0.512503, 1.6576955, 3.3935077, 1.7861977, 0
796, 1576943326, -0.54730064, -0.47723463, 0.45890212, -0.51196903, 1.3938527, 2.5074303, 1.9167118, 0
797, 1576959993, -0.54811, -0.4759666, 0.4596893, -0.5115773, 2.2586944, 3.8517933, 1.0687389, 0
798, 1576976660, -0.5488394, -0.4746201, 0.4607101, -0.511128, 2.1235483, 2.5292788, -5.3908777, 0
799, 1576993327, -0.5496719, -0.47307974, 0.4619945, -0.51050156, 1.9422896, 2.9349988, -2.3849463, 0
800, 1577009994, -0.55058444, -0.47167614, 0.46339276, -0.50954884, 2.5832438, 2.461286, -0.18509674, 0
801, 1577026661, -0.5513969, -0.47094798, 0.46478793, -0.50807106, 1.6334269, -0.50907624, -1.392539, 0
802, 1577043328, -0.5523857, -0.47095507, 0.46565652, -0.50619155, 0.9268047, -2.5959787, -0.02234459, 0
803, 1577059995, -0.55352914, -0.47160646, 0.4659536, -0.5040582, 0.94670117, -4.480349, 0.3941288, 0
804, 1577076662, -0.55471545, -0.47260618, 0.46593884, -0.50182635, -0.033799183, -4.367158, 0.8773508, 0
805, 1577093329, -0.5558688, -0.47372812, 0.46573418, -0.4996776, 0.35992023, -6.5345473, -0.22233582, 0
806, 1577109996, -0.55688035, -0.47460485, 0.46586683, -0.49759138, 0.26389214, -5.4341598, 0.22097015, 0
807, 1577126663, -0.55771446, -0.47525176, 0.46634293, -0.49558952, 0.56625485, -5.9671054, 3.17451, 0
808, 1577143330, -0.55845916, -0.4753213, 0.46704346, -0.49402222, 1.018481, -5.846221, 2.1247597, 0
809, 1577159997, -0.5591631, -0.4745744, 0.46799842, -0.4930393, 0.18950322, -7.970154, 2.8916607, 0
810, 1577176664, -0.5601424, -0.47288534, 0.46880314, -0.49278605, -0.38248745, -7.883783, 3.4614916, 0
811, 1577193331, -0.5609611, -0.47094646, 0.46989986, -0.492667, 0.5736317, -5.2619247, 2.9084902, 0
812, 1577209998, -0.5614789, -0.4689935, 0.47122714, -0.4926724, 1.077556, -5.7456193, 1.240942, 0
813, 1577226665, -0.5617381, -0.46725273, 0.47241554, -0.492893, -0.334847, -5.920339, -0.7725811, 0
814, 1577243332, -0.56187457, -0.46583983, 0.473464, -0.49306855, -1.1830094, -5.771227, 1.6558218, 0
815, 1577259999, -0.561938, -0.464329, 0.47454146, -0.49338564, -1.1333672, -4.320127, 1.2151155, 0
816, 1577276666, -0.56198585, -0.4626894, 0.47571766, -0.49373832, -1.0230689, -4.534794, -0.21795368, 0
817, 1577293333, -0.5619726, -0.46095708, 0.47670153, -0.49442434, -0.07719489, -3.5802085, -1.1559048, 0
818, 1577310000, -0.5616642, -0.45915365, 0.4777151, -0.49547344, -0.2474751, -3.0540996, -0.53493786, 0
819, 1577326667, -0.5611798, -0.45719314, 0.4788471, -0.49674112, -1.1010234, -0.08094969, 1.8192205, 0
820, 1577343334, -0.5604974, -0.45541766, 0.4802915, -0.49774688, -1.624765, -1.8875761, -1.18219, 0
821, 1577360001, -0.5600411, -0.45341927, 0.48148128, -0.49893406, -1.0678287, -1.452792, 0.40635967, 0
822, 1577376668, -0.5594692, -0.4516196, 0.48254356, -0.5001802, -0.061865255, -0.33443797, 0.021842003, 0
823, 1577393335, -0.55859524, -0.4501746, 0.4835366, -0.50149894, -0.66314864, -0.19452779, 0.22430325, 0
824, 1577410002, -0.55762684, -0.4491176, 0.484331, -0.50275594, -1.7136005, 0.18339953, -0.86903286, 0
825, 1577426669, -0.5565729, -0.44849727, 0.484827, -0.5039982, -2.078203, 0.66379863, 1.2455168, 0
826, 1577443336, -0.5554063, -0.4484202, 0.48505056, -0.50513744, -2.3403356, 1.4113046, -0.85526466, 0
827, 1577460003, -0.5541755, -0.44894835, 0.4848258, -0.5062343, -2.4269261, 0.120817915, 0.72744846, 0
828, 1577476670, -0.55310726, -0.449681, 0.48404026, -0.50750256, -2.4279406, 0.7070584, -0.30329418, 0
829, 1577493337, -0.5521347, -0.45055062, 0.48302397, -0.5087573, -1.5663406, 0.18471558, 1.0065536, 0
830, 1577510004, -0.5511077, -0.45145544, 0.48203033, -0.51000935, -1.4316456, 3.1686318, 0.58956337, 0
831, 1577526671, -0.5499086, -0.45266876, 0.48123354, -0.51097965, -1.4542605, 1.8466929, -3.09767, 0
832, 1577543338, -0.5487101, -0.45383435, 0.48037848, -0.5120377, -0.0964367, 1.5031822, -0.67751217, 0
833, 1577560005, -0.5473857, -0.45490322, 0.4798513, -0.51300013, -0.34325936, 2.6448994, 0.12189579, 0
834, 1577576672, -0.54623854, -0.4558087, 0.47948426, -0.51376176, -0.74471545, 1.2268765, -1.0894308, 0
835, 1577593339, -0.54546136, -0.456576, 0.47897056, -0.5143852, 0.061308708, 0.2779055, 0.9173155, 0
836, 1577610006, -0.5449033, -0.4571978, 0.4782614, -0.5150835, 1.1508255, 1.3562127, 1.423356, 0
837, 1577626673, -0.5443038, -0.45781696, 0.47775352, -0.51563853, 1.0493802, 1.7142648, -1.3267622, 0
838, 1577643340, -0.54376715, -0.45831245, 0.47755608, -0.51594746, 1.1754901, 0.17296885, -0.55608654, 0
839, 1577660007, -0.5434565, -0.45870936, 0.47727507, -0.5161819, 0.17040114, 2.2043962, 0.40670967, 0
840, 1577676674, -0.54333615, -0.4594592, 0.4768024, -0.5160785, -0.16839801, 0.61709315, -0.51637745, 0
841, 1577693341, -0.5435474, -0.4602942, 0.47599587, -0.51585656, -0.32073328, 0.9448458, -0.56840134, 0
842, 1577710008, -0.5438551, -0.46106777, 0.47531632, -0.5154679, 0.6472627, 0.45495123, 0.23963642, 0
843, 1577726675, -0.54422086, -0.4615989, 0.47469333, -0.51518035, 0.5778541, 0.18141429, 0.08451939, 0
844, 1577743342, -0.5443781, -0.46227574, 0.47425416, -0.51481175, -0.3238211, 2.178239, 2.4268913, 0
845, 1577760009, -0.5444854, -0.46305472, 0.47385082, -0.51436937, -0.38640454, 0.5284799, -1.6666794, 0
846, 1577776676, -0.5447463, -0.4634154, 0.473396, -0.514187, 1.2051176, -1.4031079, -2.8263307, 0
847, 1577793343, -0.54547054, -0.46289, 0.4728243, -0.5144186, 1.0686325, -1.4019469, 0.07381153, 0
848, 1577810010, -0.5462352, -0.46213758, 0.47227296, -0.51478994, 0.16361797, 1.9231678, 2.6995268, 0
849, 1577826677, -0.54661244, -0.4620937, 0.47215578, -0.5145365, -0.6873922, 3.5553246, 0.4508295, 0
850, 1577843344, -0.5466807, -0.4623247, 0.4725721, -0.5138736, 1.6901189, 1.7388012, 0.08627319, 0
851, 1577860011, -0.5466873, -0.46196035, 0.4734826, -0.51335585, 1.8872877, -0.7847592, -1.3863811, 0
852, 1577876678, -0.5467904, -0.46137345, 0.47425628, -0.51305974, -0.23382585, -0.9448224, 1.8329554, 0
853, 1577893345, -0.5470812, -0.46083918, 0.47441143, -0.5130863, -1.1247977, 0.67035806, 0.08543968, 0
854, 1577910012, -0.5472154, -0.4605257, 0.47468355, -0.5129731, 0.06792201, 1.6371846, 0.9696884, 0
855, 1577926679, -0.5472789, -0.4600766, 0.47513777, -0.51288795, 0.20993231, 1.5346409, -2.0873113, 0
856, 1577943346, -0.54713947, -0.45977613, 0.4756741, -0.51280874, 0.004609284, 0.19560803, -0.17253399, 0
857, 1577960013, -0.54704344, -0.45955893, 0.47587705, -0.5129177, -0.89970636, 1.3492415, 0.9633293, 0
858, 1577976680, -0.54697007, -0.45952547, 0.47587913, -0.51302403, -1.1181902, -0.26561162, -0.27044487, 0
859, 1577993347, -0.5471948, -0.45933494, 0.47551852, -0.5132893, -0.8165836, -0.71586704, 0.34105778, 0
860, 1578010014, -0.5472451, -0.45948166, 0.475163, -0.5134336, 0.10694592, 2.6794596, -1.1595564, 0
861, 1578026681, -0.54691637, -0.4600375, 0.47528487, -0.51317316, -0.064171016, 2.5465739, -3.4568043, 0
862, 1578043348, -0.5465832, -0.46088505, 0.47518927, -0.51285636, -0.85548824, 1.836977, 0.42971516, 0
863, 1578060015, -0.54658264, -0.46160808, 0.47471645, -0.51264423, -0.21404137, -0.40365368, 1.9509354, 0
864, 1578076682, -0.5469306, -0.46171263, 0.4740756, -0.5127722, 0.5601838, -0.25553408, 2.1161213, 0
865, 1578093349, -0.5472066, -0.4616297, 0.4737357, -0.5128665, 0.5692019, 1.7162402, 1.0363026, 0
866, 1578110016, -0.54735863, -0.46153525, 0.47362274, -0.5128936, 0.9541025, 2.52077, -2.515226, 0
867, 1578126683, -0.5474591, -0.4615701, 0.4735344, -0.5128363, 1.2550479, 1.8455807, -2.9670615, 0
868, 1578143350, -0.5478977, -0.46118647, 0.47339827, -0.5128387, 1.2567693, 2.8056157, 1.2262135, 0
869, 1578160017, -0.5484477, -0.46061826, 0.4736144, -0.51256186, 1.3173552, 5.163093, -0.46501064, 0
870, 1578176684, -0.5489688, -0.46027032, 0.47398895, -0.5119702, 1.1157886, 3.7844758, -0.6035404, 0
871, 1578193351, -0.5495357, -0.46009552, 0.47408554, -0.5114295, 1.2869691, 4.1565022, 1.5055637, 0
872, 1578210018, -0.5500568, -0.45997348, 0.47414252, -0.5109258, 1.6720928, 3.8855698, -0.37251186, 0
873, 1578226685, -0.55047905, -0.45988905, 0.47436395, -0.5103412, 1.0083547, 4.561142, -0.9386816, 0
874, 1578243352, -0.55088913, -0.4599743, 0.47464874, -0.50955635, -0.032206874, 4.992044, -0.51335144, 0
875, 1578260019, -0.5512405, -0.4602196, 0.47493705, -0.5086855, 0.43549392, 4.2149253, -2.8995452, 0
876, 1578276686, -0.5515974, -0.46034965, 0.47520527, -0.50793, 1.0597501, 2.697707, -0.21650124, 0
877, 1578293353, -0.5518025, -0.4603803, 0.4755311, -0.50737435, 0.51396906, 4.4453616, -0.60015583, 0
878, 1578310020, -0.5521377, -0.46026948, 0.47569218, -0.506959, -0.088076845, 1.818794, 0.7312231, 0
879, 1578326687, -0.55239975, -0.46007803, 0.47598943, -0.50656813, 0.7754899, 3.1995602, -2.2389145, 0
880, 1578343354, -0.55232114, -0.46001843, 0.47673452, -0.50600684, 1.4679738, 3.111542, -2.6714778, 0
881, 1578360021, -0.552307, -0.45987415, 0.47754142, -0.50539255, 1.0340264, 1.3410835, 1.9260111, 0
882, 1578376688, -0.5526722, -0.459975, 0.47814798, -0.5043264, 0.7136068, -1.8162445, 0.762558, 0
883, 1578393355, -0.5535363, -0.45999783, 0.47849628, -0.50302625, 2.5845642, -4.8991637, 0.7558336, 0
884, 1578410022, -0.55463314, -0.45980704, 0.47881404, -0.5016885, 2.0486326, -6.5031047, -2.0166407, 0
885, 1578426689, -0.55561996, -0.45937282, 0.47941706, -0.50041664, 1.0135057, -6.1265526, 1.458703, 0
886, 1578443356, -0.5563588, -0.45882425, 0.48026207, -0.49928758, 0.19049384, -6.411621, 0.4654312, 0
887, 1578460023, -0.5569331, -0.45816562, 0.48116514, -0.4983819, -0.15500847, -7.817897, 0.7022047, 0
888, 1578476690, -0.557422, -0.45751315, 0.48192284, -0.49770203, 0.26460627, -4.9132547, 2.8322058, 0
889, 1578493357, -0.55764973, -0.45735922, 0.48265085, -0.4968822, -1.1728076, -2.6531126, 2.0184908, 0
890, 1578510024, -0.5579248, -0.4574418, 0.4831638, -0.4959982, -2.3945346, -4.1378403, -0.7958231, 0
891, 1578526691, -0.55831194, -0.457436, 0.4833265, -0.49540898, -2.0280845, -4.7101455, 1.8174324, 0
892, 1578543358, -0.55854577, -0.45705155, 0.48345697, -0.49537298, -1.7466959, -4.221226, 2.9185648, 0
893, 1578560025, -0.5587762, -0.4560445, 0.4834511, -0.4960463, -1.9877948, -4.6357937, 3.2837915, 0
894, 1578576692, -0.55875003, -0.45491803, 0.48353294, -0.4970294, -1.2781309, -3.3878043, 0.7463913, 0
895, 1578593359, -0.55821717, -0.45406097, 0.4839458, -0.49800926, -0.23468079, -2.401264, 0.25567245, 0
896, 1578610026, -0.5575182, -0.45298037, 0.4846713, -0.49906987, -0.4317794, -3.4180884, -2.6667576, 0
897, 1578626693, -0.55672395, -0.45165956, 0.48566782, -0.5001833, -0.40987894, -4.4460573, 0.5436468, 0
898, 1578643360, -0.5558887, -0.4502971, 0.4866564, -0.5013784, -0.99973994, -2.562171, -0.028214455, 0
899, 1578660027, -0.5550246, -0.44913793, 0.48739102, -0.5026603, -1.0558162, -3.2398129, 1.1284618, 0
900, 1578676694, -0.5541516, -0.44820538, 0.48793134, -0.50392973, -0.7863932, -0.90897894, -1.1407061, 0
901, 1578693361, -0.5530951, -0.44779393, 0.48846593, -0.5049375, -1.3975936, -0.76582086, 0.32850933, 0
902, 1578710028, -0.5522866, -0.4476923, 0.4882919, -0.5060798, -3.4407313, -1.6529776, -0.9609661, 0
903, 1578726695, -0.55164415, -0.44816175, 0.4873692, -0.50725293, -2.9494278, -1.5434493, 1.6837215, 0
904, 1578743362, -0.5511194, -0.4487666, 0.48613805, -0.5084686, -1.4993651, 0.3054653, 2.1758823, 0
905, 1578760029, -0.5503737, -0.4496224, 0.4850419, -0.5095657, -1.6506451, 0.71699154, -1.0988703, 0
906, 1578776696, -0.54959923, -0.4507706, 0.48377782, -0.5105881, -2.5182254, 1.3443899, -1.4628658, 0
907, 1578793363, -0.548652, -0.45245323, 0.48246148, -0.51136327, -1.5168456, 0.9984167, -1.7546949, 0
908, 1578810030, -0.5477826, -0.45406875, 0.48103234, -0.5122091, -0.86280227, 0.24738951, 1.6604013, 0
909, 1578826697, -0.5469438, -0.45547083, 0.47970563, -0.5131042, -0.92388254, 0.34738874, 2.0662613, 0
910, 1578843364, -0.5462791, -0.45654556, 0.478434, -0.5140437, -0.8448383, -0.54107165, -0.9078722, 0
911, 1578860031, -0.5455438, -0.45760652, 0.47737348, -0.5148662, 0.010730857, 1.4300681, 0.016626358, 0
912, 1578876698, -0.54472536, -0.45898035, 0.47647953, -0.5153377, -0.061560497, 1.4875507, -2.1592617, 0
913, 1578893365, -0.54398364, -0.46041986, 0.4755867, -0.5156618, 0.19305573, -0.19865452, -0.73245525, 0
914, 1578910032, -0.5435582, -0.4616049, 0.47460496, -0.51595545, -0.17840268, 0.32861388, 0.21740437, 0
915, 1578926699, -0.5433701, -0.46266267, 0.473477, -0.5162425, -0.5735166, -0.7152001, 0.8090019, 0
916, 1578943366, -0.5434423, -0.46346766, 0.47216055, -0.51665, -0.46203926, 0.706336, -0.04855728, 0
917, 1578960033, -0.543406, -0.46441764, 0.47120246, -0.51670974, 0.5396137, 1.8316984, -0.3899231, 0
918, 1578976700, -0.5432968, -0.46540242, 0.47052792, -0.5165531, 0.20230247, 1.7375581, -0.75625324, 0
919, 1578993367, -0.5431531, -0.46648237, 0.47012687, -0.51609516, -0.30776444, 1.0551878, 0.7121391, 0
920, 1579010034, -0.5432721, -0.46736985, 0.4694894, -0.51574695, -0.7212593, -0.7533424, 0.42532444, 0
921, 1579026701, -0.5435115, -0.4680431, 0.46872252, -0.51558167, 0.112714455, -0.13299401, 2.7610273, 0
922, 1579043368, -0.54382706, -0.46852764, 0.46796072, -0.5155008, -0.22592488, 0.34717485, -1.5203819, 0
923, 1579060035, -0.54401445, -0.46911967, 0.46731347, -0.515352, 1.1857702, 0.005216792, 0.33756256, 0
924, 1579076702, -0.5441676, -0.4695428, 0.46678466, -0.51528406, 0.52970606, 1.3306155, -0.6960211, 0
925, 1579093369, -0.5442226, -0.47019506, 0.46648034, -0.5149066, -0.18043217, -0.009157103, -0.49113846, 0
926, 1579110036, -0.5446623, -0.47067088, 0.46582314, -0.5146019, -0.45180506, -0.84132576, 0.59045315, 0
927, 1579126703, -0.5451637, -0.47116226, 0.46514374, -0.5142359, 1.1454554, -0.02256922, -0.16206837, 0
928, 1579143370, -0.5456897, -0.47151208, 0.46463478, -0.513817, 0.5207474, 0.39151758, 0.07672691, 0
929, 1579160037, -0.5461521, -0.47181517, 0.46451202, -0.5131583, 0.6704177, 1.317196, -0.5289135, 0
930, 1579176704, -0.5463526, -0.47224337, 0.46466675, -0.51241046, 1.3633103, 0.7902722, -1.5167637, 0
931, 1579193371, -0.54651123, -0.47244272, 0.46496347, -0.5117879, 0.9781454, 0.16318077, 1.3242607, 0
932, 1579210038, -0.5468641, -0.47214875, 0.46544528, -0.511244, 0.82037765, -0.11878643, 1.111187, 0
933, 1579226705, -0.54725486, -0.47138545, 0.46622762, -0.5108172, 1.9678125, -0.21711132, 1.2163515, 0
934, 1579243372, -0.54767334, -0.47017515, 0.46740586, -0.5104071, 2.0933623, 0.97825027, -0.9485893, 0
935, 1579260039, -0.54792243, -0.46878597, 0.46894222, -0.5100083, 2.436056, 1.1240376, -1.2022772, 0
936, 1579276706, -0.54811853, -0.46708146, 0.47086838, -0.50958663, 2.4460664, 0.7985454, -0.8269377, 0
937, 1579293373, -0.548441, -0.46494228, 0.47307548, -0.5091517, 1.6122291, 0.45679432, 0.6565361, 0
938, 1579310040, -0.5489877, -0.46263334, 0.47516996, -0.50871503, 1.3817714, 0.936216, 1.1323376, 0
939, 1579326707, -0.54969144, -0.46031788, 0.47705528, -0.5082909, 1.5940144, 0.67449325, 0.4227743, 0
940, 1579343374, -0.5503986, -0.4581931, 0.47859046, -0.5080022, 1.4857271, 0.49619865, -0.810627, 0
941, 1579360041, -0.55090976, -0.45649964, 0.47992247, -0.50771576, 0.6116857, 1.323511, -0.7395096, 0
942, 1579376708, -0.5512776, -0.45531675, 0.4810825, -0.5072808, -0.97115844, 2.8189838, 0.03941059, 0
943, 1579393375, -0.5515019, -0.45459765, 0.4819933, -0.5068172, -1.6396521, 1.322933, -1.3856258, 0
944, 1579410042, -0.5517502, -0.4542321, 0.48236072, -0.50652504, -1.8889915, 0.47915462, 2.373581, 0
945, 1579426709, -0.55202645, -0.4541969, 0.4821891, -0.50641906, -1.9470842, 0.8789723, -1.0970755, 0
946, 1579443376, -0.5522244, -0.45416045, 0.48188353, -0.50652677, -0.3805487, 0.009120669, 0.29564476, 0
947, 1579460043, -0.5521585, -0.45403254, 0.4816327, -0.5069515, -0.7044994, 1.9608814, 0.21209908, 0
948, 1579476710, -0.5518172, -0.45414183, 0.48157457, -0.5072804, -1.1843597, 2.4792597, -1.8913689, 0
949, 1579493377, -0.5514421, -0.45430896, 0.48134363, -0.50775766, -0.41054657, 1.961889, 0.05772209, 0
950, 1579510044, -0.5510877, -0.45430967, 0.48122042, -0.5082585, 0.34362054, 1.5871384, 0.15948677, 0
951, 1579526711, -0.55088425, -0.45397782, 0.48125517, -0.50874203, 0.20300229, 1.9204439, 1.523427, 0
952, 1579543378, -0.5507215, -0.4535192, 0.4812321, -0.5093488, 0.48086634, 2.4104598, -0.9648428, 0
953, 1579560045, -0.5504218, -0.4532929, 0.48128936, -0.50981987, 0.4180087, 3.2852023, -2.3074427, 0
954, 1579576712, -0.55007887, -0.4533746, 0.481381, -0.51003075, 0.024803009, 4.597246, -2.0169153, 0
955, 1579593379, -0.5499599, -0.45349234, 0.48158005, -0.5098665, 0.91632587, 3.3449254, 0.38288212, 0
956, 1579610046, -0.550253, -0.45348933, 0.48137262, -0.5097488, 0.72112864, 2.4378662, 2.7635107, 0
957, 1579626713, -0.5506212, -0.45371896, 0.4808937, -0.50959885, 0.9912929, 2.4990156, 0.51806355, 0
958, 1579643380, -0.5510052, -0.45413685, 0.48028624, -0.5093846, 0.7353602, 3.377427, -2.8546324, 0
959, 1579660047, -0.5511233, -0.45489338, 0.47986576, -0.50897783, 0.22358175, 4.096111, -3.5650477, 0
960, 1579676714, -0.5513923, -0.4558445, 0.47932878, -0.50834113, -0.79477566, 3.0779808, 1.5818672, 0
961, 1579693381, -0.5518081, -0.4571226, 0.47842234, -0.5075956, -0.83050174, 3.239785, 2.331664, 0
962, 1579710048, -0.55232805, -0.45832542, 0.4774158, -0.50689256, 0.6279925, 1.7491937, -0.1184454, 0
963, 1579726715, -0.55269873, -0.45955297, 0.4766916, -0.506058, 0.8108066, 2.0292404, -1.6528549, 0
964, 1579743382, -0.55293536, -0.4608953, 0.47617006, -0.5050688, 0.41399506, 1.7199512, -2.6162877, 0
965, 1579760049, -0.5533811, -0.4618354, 0.47568747, -0.50417584, 1.9256035, -1.8009621, -2.929799, 0
966, 1579776716, -0.55389166, -0.46197692, 0.47555047, -0.5036145, 1.2994223, -0.010941406, -0.98432064, 0
967, 1579793383, -0.55412555, -0.46232525, 0.47608685, -0.50252974, -0.5950827, 1.4350164, 1.6958933, 0
968, 1579810050, -0.5540858, -0.4634101, 0.47687, -0.5008289, -1.054169, -1.6078117, -1.4121246, 0
969, 1579826717, -0.5542288, -0.4643726, 0.4772796, -0.49938673, 0.1870803, -6.196883, -1.1600504, 0
970, 1579843384, -0.55453545, -0.46471924, 0.4772846, -0.49871868, 0.37140968, -6.8063273, 1.6780987, 0
971, 1579860051, -0.55463326, -0.4650149, 0.4771445, -0.49846843, -1.4743371, -3.973481, 5.551529, 0
972, 1579876718, -0.5546452, -0.46575433, 0.47645152, -0.49842766, -3.064089, -5.2680516, 1.1616583, 0
973, 1579893385, -0.5548372, -0.46673605, 0.4753738, -0.49832445, -2.9511375, -5.306835, -0.5919857, 0
974, 1579910052, -0.5550593, -0.46790057, 0.47431058, -0.49799806, -2.9844885, -3.960102, 0.68666935, 0
975, 1579926719, -0.5552024, -0.46883962, 0.47331804, -0.4978998, -2.4610665, -5.811796, 4.6437654, 0
976, 1579943386, -0.5552659, -0.46941265, 0.4720273, -0.49851394, -3.3737428, -6.5791445, 4.722087, 0
977, 1579960053, -0.5551272, -0.47024357, 0.47017843, -0.49963135, -2.8626866, -5.1679883, 2.8453188, 0
978, 1579976720, -0.55484504, -0.47128963, 0.4683669, -0.5006595, -1.0030158, -4.494423, -2.0362358, 0
979, 1579993387, -0.55447197, -0.47222257, 0.46702427, -0.5014474, -0.53820777, -3.8020377, -0.5728512, 0
980, 1580010054, -0.5540894, -0.47318694, 0.46591923, -0.50198895, -1.5504153, -3.6399388, 0.4780674, 0
981, 1580026721, -0.55382496, -0.47412488, 0.46452382, -0.5026883, -0.26498955, -4.78431, 0.6681528, 0
982, 1580043388, -0.5535762, -0.4750479, 0.46289825, -0.50358975, 0.41862524, -3.1771362, 0.20073414, 0
983, 1580060055, -0.5532403, -0.4756636, 0.46191233, -0.50428236, 0.30595952, -0.07720875, 0.25855923, 0
984, 1580076722, -0.55275, -0.4763629, 0.46158493, -0.5044596, -0.7542246, 1.7438328, -0.30258656, 0
985, 1580093389, -0.55229706, -0.47746906, 0.4613261, -0.50414664, -0.86556846, 0.035685185, -2.7597508, 0
986, 1580110056, -0.5522259, -0.47818333, 0.4609026, -0.5039349, 1.3102629, -2.2229078, -1.503727, 0
987, 1580126723, -0.55234617, -0.47798502, 0.46057317, -0.5042923, 2.022291, -1.1966337, 0.37214756, 0
988, 1580143390, -0.5523963, -0.47722986, 0.4607653, -0.50477684, 0.63394016, -0.08967519, 3.0238352, 0
989, 1580160057, -0.5521388, -0.4765431, 0.46153435, -0.50500464, 0.632136, 2.4537714, 2.1154432, 0
990, 1580176724, -0.55164415, -0.47621283, 0.46266887, -0.50481874, 1.1689657, 0.8675955, -1.4664698, 0
991, 1580193391, -0.55146605, -0.47516078, 0.46378562, -0.50497997, 1.5226431, -3.0490482, -3.0001354, 0
992, 1580210058, -0.5514337, -0.47367078, 0.46478978, -0.5054915, 1.4776455, -1.019977, 1.605958, 0
993, 1580226725, -0.55137026, -0.47222668, 0.46581256, -0.50597024, -0.6567305, 0.62622947, 2.3762026, 0
994, 1580243392, -0.5513677, -0.47116163, 0.4666302, -0.5062126, -0.9308584, 0.46382794, -0.43954754, 0
995, 1580260059, -0.5513579, -0.47027728, 0.46737465, -0.50635856, 0.20364936, 0.68421763, -1.0372963, 0
996, 1580276726, -0.5512703, -0.4692542, 0.46823475, -0.5066084, 1.3639923, 0.39366174, -1.8567138, 0
997, 1580293393, -0.55112463, -0.46820816, 0.4690387, -0.506991, 0.24944963, 0.5758995, 0.39359474, 0
998, 1580310060, -0.5511375, -0.46738353, 0.46955678, -0.50725836, -1.2506189, 0.6972625, 1.9015541, 0
999, 1580326727, -0.5514305, -0.46665943, 0.4695369, -0.50762475, 0.09478827, 0.109705746, -0.5264635, 0
1000, 1580343394, -0.5514871, -0.4663495, 0.46951988, -0.5078638, 0.62626386, 2.0126877, -1.8349819, 0
1001, 1580360061, -0.55136, -0.46628216, 0.46983084, -0.50777596, -0.2732067, 3.0343635, -2.3040543, 0
1002, 1580376728, -0.55109555, -0.4665383, 0.47016236, -0.50752103, -0.92759264, 1.645208, -1.3034124, 0
1003, 1580393395, -0.55100816, -0.466892, 0.47018996, -0.50726503, -0.94768757, -0.015082431, 3.0794115, 0
1004, 1580410062, -0.5512205, -0.4668383, 0.47013012, -0.5071392, 0.07338444, 0.27845624, 1.7116184, 0
1005, 1580426729, -0.55127734, -0.46667278, 0.47014195, -0.50721866, 0.8027995, 1.047098, -0.52405643, 0
1006, 1580443396, -0.55100244, -0.46649384, 0.47055984, -0.5072945, 1.2321619, 1.9250214, -0.6621685, 0
1007, 1580460063, -0.55055517, -0.46602616, 0.4714398, -0.5073929, 1.3638247, 1.6851267, -1.2636518, 0
1008, 1580476730, -0.5501142, -0.4654732, 0.47230554, -0.50757354, 0.36849755, 0.38047785, -1.4276505, 0
1009, 1580493397, -0.5499735, -0.4646571, 0.47298938, -0.50783706, -0.25772497, 0.4537758, 2.5511093, 0
1010, 1580510064, -0.5499065, -0.46382996, 0.47373, -0.50797534, 0.4408214, 2.1922321, 1.0272436, 0
1011, 1580526731, -0.5496828, -0.4631342, 0.4746912, -0.507955, 0.9167661, 0.89377767, -1.7728395, 0
1012, 1580543398, -0.5493684, -0.46226698, 0.47599763, -0.50786257, 1.4726522, 0.7687994, 0.5888872, 0
1013, 1580560065, -0.5491143, -0.46151108, 0.47692797, -0.50795215, 0.36550158, -0.075162046, -1.690505, 0
1014, 1580576732, -0.5490466, -0.46078622, 0.4773307, -0.5083048, -0.4686736, -1.4672092, -1.0479679, 0
1015, 1580593399, -0.5492202, -0.45993826, 0.47741753, -0.5088034, -0.89069736, 0.4628647, 3.0406208, 0
1016, 1580610066, -0.549352, -0.45942354, 0.47740045, -0.509142, -1.3982769, 1.9793793, 1.236453, 0
1017, 1580626733, -0.54923207, -0.45930746, 0.47758242, -0.50920546, -0.27755213, 0.8787982, -1.6706448, 0
1018, 1580643400, -0.548953, -0.45920646, 0.47780868, -0.5093852, 0.3546688, 0.305639, 0.5637636, 0
1019, 1580660067, -0.5486382, -0.45925647, 0.47788072, -0.5096116, -0.9768034, 0.3041753, 0.07698059, 0
1020, 1580676734, -0.5483456, -0.45955437, 0.477862, -0.50967556, -1.1546044, 1.4921097, 0.1402626, 0
1021, 1580693401, -0.5480251, -0.45985183, 0.47785833, -0.5097556, -0.22586408, 0.025957678, -0.8375397, 0
1022, 1580710068, -0.5478168, -0.4599731, 0.47777653, -0.50994664, -0.4930754, 0.82365483, 1.6574936, 0
1023, 1580726735, -0.54770947, -0.46017292, 0.47751, -0.51013106, 0.14172867, -0.7798112, -0.7955942, 0
1024, 1580743402, -0.54775757, -0.46012443, 0.4771121, -0.5104953, 1.1305943, -0.46898204, -0.27602196, 0
1025, 1580760069, -0.54778844, -0.4596646, 0.47705808, -0.5109266, 0.78514963, 0.74032074, -0.25771523, 0
1026, 1580776736, -0.5477943, -0.45939755, 0.47702107, -0.51119506, -0.5856866, 2.0267336, -1.2200737, 0
1027, 1580793403, -0.54764324, -0.4597466, 0.47702098, -0.51104325, -0.3295323, 2.780962, 0.24207878, 0
1028, 1580810070, -0.54756236, -0.4600739, 0.47705382, -0.51080465, 0.68238014, 2.3434517, -0.6538639, 0
1029, 1580826737, -0.54747534, -0.46022514, 0.47742525, -0.5104146, 1.1485736, 1.2912201, 1.2596607, 0
1030, 1580843404, -0.5475953, -0.46005398, 0.47765204, -0.510228, 0.4960063, 0.9541907, 0.22068882, 0
1031, 1580860071, -0.5477335, -0.45978025, 0.47767937, -0.5103007, 0.87123364, 1.256864, 1.5891762, 0
1032, 1580876738, -0.54794014, -0.45924655, 0.47761646, -0.5106183, 0.73874474, 1.4300023, -0.09482479, 0
1033, 1580893405, -0.5480041, -0.45876253, 0.47788525, -0.5107334, 0.7614674, 3.9256594, 0.103419304, 0
1034, 1580910072, -0.5478841, -0.45847103, 0.47847855, -0.5105683, 0.6260708, 5.593055, -2.021245, 0
1035, 1580926739, -0.54761153, -0.4584042, 0.47938216, -0.51007295, 0.5449336, 3.3604207, -4.275761, 0
1036, 1580943406, -0.54753006, -0.457891, 0.4801033, -0.5099432, 1.0133252, 1.3809625, 0.3438778, 0
1037, 1580960073, -0.5477485, -0.45694777, 0.48058802, -0.51009804, 1.4532287, 3.2611535, 1.2438917, 0
1038, 1580976740, -0.54799926, -0.45619428, 0.48117584, -0.5099491, 1.347875, 4.362257, -0.5860748, 0
1039, 1580993407, -0.54818094, -0.4554952, 0.48190457, -0.5096904, 2.000233, 4.748716, -3.646502, 0
1040, 1581010074, -0.5483028, -0.4549195, 0.48279148, -0.5092337, 1.9827709, 3.3786201, 0.003750801, 0
1041, 1581026741, -0.54871976, -0.45428544, 0.48338643, -0.5087861, 0.9419111, 3.7048733, 2.4005136, 0
1042, 1581043408, -0.54934484, -0.45387915, 0.48368877, -0.5081865, 0.6527334, 2.2572517, 0.1465435, 0
1043, 1581060075, -0.55028456, -0.45375374, 0.48363504, -0.5073322, 1.4277984, 2.4425993, 0.55688953, 0
1044, 1581076742, -0.55124855, -0.45400077, 0.4833291, -0.50635546, 1.0279638, 1.9877229, -3.571135, 0
1045, 1581093409, -0.55223733, -0.45462376, 0.48284665, -0.5051781, 0.25325292, 0.3739897, -0.7253027, 0
1046, 1581110076, -0.55326974, -0.45568648, 0.4820982, -0.5038038, -0.8758339, -0.090966195, 0.033118248, 0
1047, 1581126743, -0.5542215, -0.4573197, 0.48114786, -0.50218344, -1.5171639, -3.094041, -1.1448612, 0
1048, 1581143410, -0.55519736, -0.45936593, 0.4798386, -0.5004879, -2.2714777, -5.748073, 0.09173012, 0
1049, 1581160077, -0.5561453, -0.4618548, 0.47829556, -0.49861845, -1.9470162, -6.384265, 0.14471912, 0
1050, 1581176744, -0.55712193, -0.46411195, 0.47672415, -0.4969342, -0.6814407, -6.81501, -2.7344913, 0
1051, 1581193411, -0.557691, -0.46609238, 0.4755949, -0.49552238, -0.036499217, -4.35274, 1.9924698, 0
1052, 1581210078, -0.558095, -0.4678306, 0.47463027, -0.49435332, -1.551911, -4.733375, 2.383233, 0
1053, 1581226745, -0.55835146, -0.46932256, 0.47361156, -0.49362585, -0.8241678, -4.398179, 2.3841705, 0
1054, 1581243412, -0.5586883, -0.47061437, 0.47263947, -0.49294612, -0.54246575, -3.4501393, 2.3992472, 0
1055, 1581260079, -0.55916315, -0.4714167, 0.47155356, -0.49268094, -1.8016181, -4.7431436, 1.8132038, 0
1056, 1581276746, -0.55969566, -0.47149193, 0.47072634, -0.49279532, -1.3236418, -3.637806, 1.4900885, 0
1057, 1581293413, -0.56000113, -0.47122124, 0.47035548, -0.49306118, -1.2427135, -3.7581236, 3.8660564, 0
1058, 1581310080, -0.560315, -0.4707257, 0.46982074, -0.49368748, -1.4381222, -3.9494698, 0.35977077, 0
1059, 1581326747, -0.560368, -0.4702688, 0.46937358, -0.49448755, -0.44664347, -5.8507814, 0.48525047, 0
1060, 1581343414, -0.56018823, -0.46952167, 0.469155, -0.4956072, -0.935243, -3.800216, 0.7261629, 0
1061, 1581360081, -0.5595269, -0.46895042, 0.46938932, -0.49667215, -2.1266124, -3.4557, 0.58498955, 0
1062, 1581376748, -0.55870694, -0.46847177, 0.46942112, -0.49801487, -2.329112, -3.9733593, -1.6531572, 0
1063, 1581393415, -0.5574281, -0.46825477, 0.4695897, -0.49949095, -1.47817, -2.2678623, 0.33455658, 0
1064, 1581410082, -0.55602, -0.4679613, 0.46989608, -0.5010451, -2.0660722, -2.0072482, -0.9393444, 0
1065, 1581426749, -0.5546558, -0.46754587, 0.47018835, -0.50266796, -1.8455957, -2.4035072, -1.8338618, 0
1066, 1581443416, -0.553487, -0.467153, 0.47016442, -0.50434107, -2.0180206, -2.3899882, -1.7186785, 0
1067, 1581460083, -0.55263114, -0.4667759, 0.46966052, -0.5060952, -1.6681336, -2.9524927, -0.32532215, 0
1068, 1581476750, -0.55173326, -0.466735, 0.46917704, -0.5075589, 0.15370868, 1.385496, 9.944729, 0
1069, 1581493417, -0.5506669, -0.46721596, 0.46913478, -0.50831294, -0.521155, 1.9574183, -2.6147742, 0
1070, 1581510084, -0.5497535, -0.46782047, 0.4688632, -0.50899595, 0.58988756, -3.8378289, -1.8711233, 0
1071, 1581526751, -0.5491994, -0.46804821, 0.4683573, -0.5098496, 0.78535074, -0.40586856, -1.9147415, 0
1072, 1581543418, -0.54863095, -0.46828678, 0.46833253, -0.5102651, 0.61049414, -0.63590217, 2.8454351, 0
1073, 1581560085, -0.54830915, -0.46845052, 0.4680728, -0.5106989, 0.89078474, 0.67150646, 0.56256676, 0
1074, 1581576752, -0.54806614, -0.46879464, 0.4679034, -0.5107992, 0.13166858, -1.5621861, -0.41099453, 0
1075, 1581593419, -0.548284, -0.46860182, 0.46744666, -0.5111603, 1.5890642, -0.6988499, 1.0941753, 0
1076, 1581610086, -0.5482434, -0.4687669, 0.46740288, -0.5110926, 1.43815, 1.2637928, 3.1835766, 0
1077, 1581626753, -0.54780227, -0.46949518, 0.46791586, -0.51042736, 0.3175442, 4.8035645, 1.2722807, 0
1078, 1581643420, -0.54740345, -0.47074112, 0.46856242, -0.5091131, 0.07177962, 1.4225935, -3.0459123, 0
1079, 1581660087, -0.54755795, -0.47079855, 0.46870014, -0.50876665, 1.8341223, -6.2185764, -6.28914, 0
1080, 1581676754, -0.5481662, -0.47007158, 0.46849015, -0.5089773, 0.85564804, 1.3808255, 2.3336782, 0
1081, 1581693421, -0.54826385, -0.47033465, 0.4687597, -0.50838053, -1.7873461, 5.339322, -0.15766907, 0
1082, 1581710088, -0.5486362, -0.4708987, 0.46894827, -0.50728166, -0.21676677, 4.0669074, -0.33291054, 0
1083, 1581726755, -0.5489622, -0.4709698, 0.46964252, -0.5062196, 2.5153444, -2.2505386, -4.232476, 0
1084, 1581743422, -0.5498076, -0.46983537, 0.4698991, -0.5061183, 1.7628411, -1.3439952, 2.7251854, 0
1085, 1581760089, -0.55049545, -0.46889248, 0.46998942, -0.5061611, -0.25060707, 4.101252, -0.29237938, 0
1086, 1581776756, -0.5508042, -0.468809, 0.4702553, -0.5056552, -0.27292743, 3.0476503, 0.90377235, 0
1087, 1581793423, -0.5510013, -0.46854576, 0.470915, -0.50507015, 1.960024, 2.604021, -0.25656796, 0
1088, 1581810090, -0.5510324, -0.46771583, 0.47226885, -0.50454104, 1.3103058, 0.79501367, -0.13711548, 0
1089, 1581826757, -0.5511106, -0.4667757, 0.47348744, -0.5041842, 0.04260224, 0.8969763, -0.1125021, 0
1090, 1581843424, -0.5516502, -0.46537206, 0.47376543, -0.50463015, -0.30023602, -2.2694564, 4.2512436, 0
1091, 1581860091, -0.552281, -0.46369398, 0.473967, -0.50529516, 0.21902996, -1.2355653, 1.0914631, 0
1092, 1581876758, -0.5526643, -0.46199793, 0.4747168, -0.50572586, 1.3246517, 3.354513, -1.255662, 0
1093, 1581893425, -0.5523395, -0.46099895, 0.476063, -0.50572664, 1.3767594, 4.2034035, -6.0309916, 0
1094, 1581910092, -0.5518403, -0.46058214, 0.47712624, -0.5056493, -1.3000928, -0.61123216, 0.71881485, 0
1095, 1581926759, -0.55199915, -0.46012267, 0.47705406, -0.5059623, -2.2179112, -0.8756234, 4.872758, 0
1096, 1581943426, -0.552244, -0.45957115, 0.47693363, -0.50630987, -0.7904488, -0.65337366, -3.256312, 0
1097, 1581960093, -0.5522383, -0.45922866, 0.4769608, -0.5066012, 0.24609312, 0.6367873, -1.2602825, 0
1098, 1581976760, -0.5519475, -0.45944932, 0.4768555, -0.5068172, -0.94861025, 1.8350841, 0.040740967, 0
1099, 1581993427, -0.55156296, -0.46010453, 0.47678396, -0.5067084, -0.68872947, 0.59358066, 0.70874405, 0
1100, 1582010094, -0.5515363, -0.46061057, 0.4764492, -0.5065928, -0.7635891, -1.1040881, 0.99391556, 0
1101, 1582026761, -0.55186796, -0.4607936, 0.47590315, -0.5065783, -0.04936194, -0.7057377, 1.8608923, 0
1102, 1582043428, -0.5523157, -0.4608338, 0.47530845, -0.5066123, 0.9974431, 0.73303646, -0.22747803, 0
1103, 1582060095, -0.5524849, -0.46095634, 0.47483394, -0.50676113, 1.3775446, 0.64759046, -3.2809668, 0
1104, 1582076762, -0.552511, -0.46101397, 0.47463104, -0.5068703, 1.065048, 2.2507646, 1.4503279, 0
1105, 1582093429, -0.5524019, -0.46121195, 0.47495198, -0.5065084, 0.18674038, 2.3724687, 0.22238922, 0
1106, 1582110096, -0.5523554, -0.46140745, 0.475558, -0.5058119, 0.3625558, 1.5629555, 2.0729465, 0
1107, 1582126763, -0.5524634, -0.46120152, 0.47627756, -0.5052046, 1.6087093, -0.5213365, -2.5044813, 0
1108, 1582143430, -0.55282134, -0.46034384, 0.47678888, -0.5051128, 1.8805139, -2.8919363, -2.693143, 0
1109, 1582160097, -0.55324847, -0.45891437, 0.4773324, -0.5054326, 1.7468939, 0.9975658, 2.537057, 0
1110, 1582176764, -0.5532291, -0.45786032, 0.47840494, -0.5053954, -0.10356328, 4.04265, -0.5752497, 0
1111, 1582193431, -0.55293906, -0.45721367, 0.47991014, -0.50487095, 0.42215854, 1.9478517, 0.38912106, 0
1112, 1582210098, -0.55278647, -0.45614383, 0.48131162, -0.5046716, 0.9033417, 0.1256277, 1.7249069, 0
1113, 1582226765, -0.5528682, -0.45471373, 0.48226306, -0.5049642, 0.5173093, -0.5582978, 0.48967266, 0
1114, 1582243432, -0.5530042, -0.4532891, 0.48302507, -0.5053677, 0.57488513, 2.066987, -0.472867, 0
1115, 1582260099, -0.55275637, -0.45235962, 0.4840019, -0.5055371, 0.44960168, 4.5652804, -2.6546144, 0
1116, 1582276766, -0.55231315, -0.45163086, 0.48518267, -0.50554115, -0.047010586, 3.136395, -2.8308926, 0
1117, 1582293433, -0.55196404, -0.45086148, 0.48617905, -0.5056519, -0.7307387, 2.5690572, 2.660903, 0
1118, 1582310100, -0.55215716, -0.44995505, 0.486327, -0.5061063, -0.9534041, 1.317095, 3.135582, 0
1119, 1582326767, -0.55239874, -0.44898373, 0.48624027, -0.5067879, 1.1361128, 1.6048819, -0.37992573, 0
1120, 1582343434, -0.55223274, -0.44806993, 0.486728, -0.50730926, 2.1826935, 5.623837, -3.884419, 0
1121, 1582360101, -0.5513996, -0.44747105, 0.4878274, -0.5076879, -0.07273943, 5.9655576, -4.3710785, 0
1122, 1582376768, -0.55077124, -0.44700217, 0.4885809, -0.50805837, -1.437622, 4.1949635, 2.0041428, 0
1123, 1582393435, -0.5503444, -0.44671097, 0.48902333, -0.5083514, -0.20440885, 3.8111157, 4.3848677, 0
1124, 1582410102, -0.55013865, -0.44607878, 0.48921368, -0.5089455, 1.2503158, 2.5369956, -0.9856062, 0
1125, 1582426769, -0.5497718, -0.44560456, 0.48956516, -0.5094192, 0.9134174, 3.8371878, -3.6844316, 0
1126, 1582443436, -0.5492611, -0.44532317, 0.48982343, -0.50996757, 0.013257168, 3.0820556, -3.889299, 0
1127, 1582460103, -0.5486284, -0.4453604, 0.48998117, -0.5104643, -0.29389295, 4.0156713, 0.6755991, 0
1128, 1582476770, -0.54797775, -0.446038, 0.48986894, -0.51067966, -2.009766, 4.108988, 5.128525, 0
1129, 1582493437, -0.54785776, -0.44676572, 0.48927614, -0.5107401, -0.78489345, 1.7033795, -1.329628, 0
1130, 1582510104, -0.5478653, -0.4472487, 0.48893258, -0.51063836, 1.269393, -1.4497823, -2.5716872, 0
1131, 1582526771, -0.5479256, -0.44731572, 0.48872524, -0.51071346, 0.44277692, -0.5923547, -1.0002489, 0
1132, 1582543438, -0.5477322, -0.44756123, 0.48867157, -0.5107572, 0.31779474, -2.569116, -1.2973423, 0
1133, 1582560105, -0.5472816, -0.44800264, 0.4888197, -0.51071143, -0.86618733, -3.6594682, 1.2884903, 0
1134, 1582576772, -0.54699945, -0.44843107, 0.48925847, -0.5102175, -0.76775897, -3.445611, 1.5070095, 0
1135, 1582593439, -0.54695565, -0.4487134, 0.48959404, -0.50969374, 0.508298, -8.95624, -3.4729934, 0
1136, 1582610106, -0.5469136, -0.44887957, 0.48982778, -0.5093679, -0.09971271, -8.446155, -2.251698, 0
1137, 1582626773, -0.54650533, -0.4493849, 0.4900342, -0.50916207, -1.9595327, -5.333686, 0.94028187, 0
1138, 1582643440, -0.54579896, -0.4506131, 0.4900536, -0.5088156, -2.9825513, -0.9256867, 3.3393087, 0
1139, 1582660107, -0.5449291, -0.45243204, 0.48982117, -0.50835747, -3.198112, -4.5751133, 2.0898466, 0
1140, 1582676774, -0.54445374, -0.453387, 0.4890731, -0.5087361, -2.3851218, -7.4779673, 3.2980232, 0
1141, 1582693441, -0.5438418, -0.453531, 0.48839837, -0.5099091, -2.487818, -4.060282, 5.2192354, 0
1142, 1582710108, -0.5429198, -0.45359272, 0.4878593, -0.5113507, -3.1319163, -3.45823, 2.5300112, 0
1143, 1582726775, -0.54193044, -0.4535232, 0.48731717, -0.51297617, -2.038815, -5.2815733, -1.1197071, 0
1144, 1582743442, -0.54082453, -0.45308295, 0.48710638, -0.51472956, 0.036747318, -4.977943, 0.8550768, 0
1145, 1582760109, -0.5397045, -0.45216683, 0.48758426, -0.5162562, 0.5755615, -4.545525, 1.8968849, 0
1146, 1582776776, -0.53865945, -0.45103946, 0.48827422, -0.51767945, -0.06284961, -4.9809294, 1.3687086, 0
1147, 1582793443, -0.5376303, -0.45019278, 0.4887075, -0.5190757, -0.092324935, -4.057773, -0.26617336, 0
1148, 1582810110, -0.53645015, -0.44976395, 0.48890603, -0.5204797, 0.24077284, -4.7393875, -2.2845263, 0
1149, 1582826777, -0.53534585, -0.4492609, 0.48916003, -0.5218108, -0.26611698, -2.9392142, 0.08360672, 0
1150, 1582843444, -0.53428465, -0.44918913, 0.48943806, -0.52269864, -2.6157863, -2.8372862, 1.1994572, 0
1151, 1582860111, -0.5335383, -0.44984028, 0.48886788, -0.52343404, -3.8836048, -3.0604181, 1.6841106, 0
1152, 1582876778, -0.532858, -0.4511156, 0.4875828, -0.5242275, -2.140497, -2.5569935, 0.00562191, 0
