sep=,
DeviceTag:,Xsens_DOT_4,,,,,,,,,,,,,,,,,
FirmwareVersion:,3.0.0,,,,,,,,,,,,,,,,,
AppVersion:,2023.6.1,,,,,,,,,,,,,,,,,
SyncStatus:,Synced,,,,,,,,,,,,,,,,,
OutputRate:,60Hz,,,,,,,,,,,,,,,,,
FilterProfile:,General,,,,,,,,,,,,,,,,,
Measurement Mode:,Sensor fusion Mode - Extended (Quaternion),,,,,,,,,,,,,,,,,
StartTime:,2025-05-05 12:02:33.031 +0200,,,,,,,,,,,,,,,,,
 2025,,,,,,,,,,,,,,,,,,,

PacketCounter,SampleTimeFine,Quat_W,Quat_X,Quat_Y,Quat_Z,FreeAcc_X,FreeAcc_Y,FreeAcc_Z,Status
1, 3346028707, 0.723667, 0.011753619, -0.68991303, 0.013953432, -0.657399, -0.42001528, -0.057118416, 0
2, 3346045374, 0.7237756, 0.0110043585, -0.6897933, 0.014826521, -0.6235046, -0.5268049, 0.017168045, 0
3, 3346062041, 0.7238889, 0.010203466, -0.68966603, 0.015766352, -0.6075449, -0.6254039, 0.030403137, 0
4, 3346078708, 0.7239929, 0.009342387, -0.68954504, 0.016777754, -0.6675098, -0.5981107, 0.084524155, 0
5, 3346095375, 0.7241013, 0.008455455, -0.68941677, 0.017806247, -0.6939098, -0.523228, 0.083901405, 0
6, 3346112042, 0.7242164, 0.0075989068, -0.689278, 0.018854842, -0.6848164, -0.61885166, 0.08378887, 0
7, 3346128709, 0.72433907, 0.006723553, -0.68912995, 0.01986146, -0.63243794, -0.7781388, 0.0039863586, 0
8, 3346145376, 0.72444856, 0.005878359, -0.6889927, 0.020870522, -0.644361, -0.83272654, -0.014222145, 0
9, 3346162043, 0.7245502, 0.005065009, -0.68886226, 0.021836877, -0.645817, -0.8265581, 0.0013046265, 0
10, 3346178710, 0.72465533, 0.0043303967, -0.6887267, 0.022762075, -0.6468353, -0.8904626, 0.011165619, 0
11, 3346195377, 0.72475296, 0.0036311597, -0.68859774, 0.023660272, -0.5926524, -0.97380024, 0.021072388, 0
12, 3346212044, 0.7248578, 0.0029405802, -0.68846035, 0.024528578, -0.67061484, -0.89705944, 0.08063984, 0
13, 3346228711, 0.7249659, 0.0022409707, -0.6883217, 0.02528584, -0.745519, -0.84958386, 0.10123062, 0
14, 3346245378, 0.72508985, 0.001643151, -0.68816525, 0.026025087, -0.74774784, -0.8830166, 0.08909416, 0
15, 3346262045, 0.7251985, 0.0011136979, -0.68802655, 0.026689366, -0.6358126, -0.9695945, -0.051325798, 0
16, 3346278712, 0.72530717, 5.942732E-4, -0.6878922, 0.027206704, -0.58334243, -0.99364895, -0.014102936, 0
17, 3346295379, 0.7254183, 1.7280877E-4, -0.6877594, 0.027607754, -0.5563099, -0.95591795, 0.07808876, 0
18, 3346312046, 0.7255315, -1.2418628E-4, -0.68762773, 0.027910277, -0.5753724, -0.98796976, 0.013933182, 0
19, 3346328713, 0.7256393, -2.8418005E-4, -0.6875043, 0.028145999, -0.5860483, -1.0149475, -2.8800964E-4, 0
20, 3346345380, 0.72574663, -4.2398274E-4, -0.6873858, 0.028267264, -0.5857595, -0.94875234, 0.009833336, 0
21, 3346362047, 0.7258542, -5.082041E-4, -0.6872702, 0.028314933, -0.63405305, -0.8608163, 0.011526108, 0
22, 3346378714, 0.7259606, -5.119145E-4, -0.68715847, 0.028298616, -0.620704, -0.80306584, 0.007123947, 0
23, 3346395381, 0.72605634, -4.823655E-4, -0.68706125, 0.028205633, -0.6262055, -0.870708, 0.015059471, 0
24, 3346412048, 0.7261564, -3.60474E-4, -0.6869601, 0.02809541, -0.613434, -0.9126809, 0.0828743, 0
25, 3346428715, 0.7262647, -2.2360682E-4, -0.6868541, 0.027889192, -0.6473248, -0.8883398, 0.08812904, 0
26, 3346445382, 0.7263815, -3.1620264E-5, -0.68674153, 0.027618244, -0.6746001, -0.82075036, 0.07952213, 0
27, 3346462049, 0.72649896, 2.1333992E-4, -0.68663, 0.027299538, -0.6451889, -0.8082958, 0.015658379, 0
28, 3346478716, 0.72661006, 4.4973195E-4, -0.68652654, 0.026939958, -0.5990098, -0.78388876, -0.0031433105, 0
29, 3346495383, 0.72673047, 5.9741735E-4, -0.6864169, 0.026479766, -0.5752638, -0.6787986, -0.057318687, 0
30, 3346512050, 0.72682714, 8.393526E-4, -0.6863291, 0.026087627, -0.5799339, -0.6684009, -0.011113167, 0
31, 3346528717, 0.7269316, 0.001129061, -0.68623215, 0.02571845, -0.569587, -0.7115371, 0.01798153, 0
32, 3346545384, 0.7270299, 0.0014497489, -0.68614024, 0.025372371, -0.61342686, -0.7563673, 0.08934116, 0
33, 3346562051, 0.72713816, 0.0017436147, -0.6860405, 0.024946868, -0.7178436, -0.6801452, 0.0978775, 0
34, 3346578718, 0.7272591, 0.002176255, -0.6859227, 0.024623647, -0.71414536, -0.6832138, 0.06695938, 0
35, 3346595385, 0.72737247, 0.002576068, -0.68581504, 0.024238661, -0.6895748, -0.76786935, 0.07654095, 0
36, 3346612052, 0.7274876, 0.0028790534, -0.68570685, 0.023799703, -0.62806916, -0.79609007, -0.047351837, 0
37, 3346628719, 0.7275783, 0.0032132864, -0.6856225, 0.023412213, -0.63855684, -0.7097854, -0.13034344, 0
38, 3346645386, 0.7276512, 0.0035891682, -0.6855566, 0.023017496, -0.724882, -0.69335836, 0.0028324127, 0
39, 3346662053, 0.7277329, 0.004039049, -0.68547994, 0.02264008, -0.76082826, -0.7098628, 0.10989761, 0
40, 3346678720, 0.72782815, 0.0044018924, -0.6853932, 0.022131637, -0.70943636, -0.76759034, 0.11730385, 0
41, 3346695387, 0.7279208, 0.0047513545, -0.68530947, 0.021600053, -0.68477577, -0.78374726, 0.059700966, 0
42, 3346712054, 0.7280154, 0.0051416606, -0.6852216, 0.021103993, -0.649998, -0.7408361, 0.028817177, 0
43, 3346728721, 0.72810733, 0.005575061, -0.68513525, 0.020617679, -0.6751486, -0.7626227, -0.012147903, 0
44, 3346745388, 0.7281998, 0.006043747, -0.6850473, 0.02013342, -0.5983017, -0.7766008, -0.0117816925, 0
45, 3346762055, 0.72828805, 0.0064724237, -0.6849647, 0.01961422, -0.54612976, -0.76225936, -0.015974045, 0
46, 3346778722, 0.7283717, 0.00689587, -0.6848854, 0.019133493, -0.54333365, -0.62258863, 0.042040825, 0
47, 3346795389, 0.72844195, 0.007334754, -0.6848189, 0.018665314, -0.507572, -0.4680032, 0.048272133, 0
48, 3346812056, 0.7285032, 0.0077489763, -0.6847627, 0.018159628, -0.4132444, -0.4741879, 0.04121685, 0
49, 3346828723, 0.728579, 0.008208528, -0.68468994, 0.017655402, -0.30781624, -0.5054214, -0.02788353, 0
50, 3346845390, 0.7286601, 0.00864549, -0.6846123, 0.017104805, -0.25074175, -0.4919587, -0.0033054352, 0
51, 3346862057, 0.72873306, 0.009113252, -0.6845415, 0.01657939, -0.32361412, -0.4770394, -0.110206604, 0
52, 3346878724, 0.7287997, 0.009751916, -0.6844697, 0.01624979, -0.39835685, -0.44900608, 0.029244423, 0
53, 3346895391, 0.7288771, 0.01024279, -0.684391, 0.015776277, -0.42521954, -0.54066956, 0.15833187, 0
54, 3346912058, 0.7289664, 0.010708481, -0.68429923, 0.015328184, -0.4222714, -0.6483939, 0.16271114, 0
55, 3346928725, 0.729048, 0.011141807, -0.68421423, 0.014923975, -0.41438407, -0.6282261, 0.06569862, 0
56, 3346945392, 0.72912794, 0.011525944, -0.68413115, 0.014530927, -0.4734429, -0.63531786, -0.03617859, 0
57, 3346962059, 0.7292209, 0.011884883, -0.6840337, 0.014148995, -0.49208477, -0.61462057, 0.008118629, 0
58, 3346978726, 0.7292992, 0.012146726, -0.68395424, 0.013737813, -0.47024578, -0.63326764, -0.059275627, 0
59, 3346995393, 0.72937584, 0.012440175, -0.6838743, 0.013373598, -0.49910355, -0.61035335, -0.039030075, 0
60, 3347012060, 0.72945124, 0.012735888, -0.6837956, 0.013006359, -0.49945396, -0.66108054, 0.018610954, 0
61, 3347028727, 0.72952676, 0.013022587, -0.6837167, 0.012627378, -0.50581115, -0.65460193, 0.039484024, 0
62, 3347045394, 0.72959924, 0.013351366, -0.6836398, 0.012253225, -0.48459664, -0.6890189, 0.078645706, 0
63, 3347062061, 0.72967595, 0.013676882, -0.68355906, 0.011833459, -0.43780467, -0.70822346, 0.035801888, 0
64, 3347078728, 0.7297434, 0.014019042, -0.6834876, 0.011383593, -0.37038332, -0.6789393, 0.055343628, 0
65, 3347095395, 0.7298186, 0.014356434, -0.6834088, 0.010865495, -0.42359504, -0.5990544, 0.02941227, 0
66, 3347112062, 0.7298933, 0.014788181, -0.6833271, 0.010381967, -0.41429242, -0.57271546, -4.644394E-4, 0
67, 3347128729, 0.7299689, 0.015318513, -0.6832415, 0.009921536, -0.46552786, -0.5451243, -0.042717934, 0
68, 3347145396, 0.73004276, 0.015857652, -0.6831583, 0.009359688, -0.47327036, -0.45581377, 0.0538311, 0
69, 3347162063, 0.73010504, 0.01642029, -0.68308604, 0.008797526, -0.4433679, -0.5843698, -0.0038642883, 0
70, 3347178730, 0.7301557, 0.016952038, -0.68302554, 0.008251563, -0.45528516, -0.71913856, -6.2561035E-4, 0
71, 3347195397, 0.7302179, 0.01741004, -0.6829539, 0.007712811, -0.49934983, -0.6731658, 0.04979515, 0
72, 3347212064, 0.7302718, 0.01789108, -0.682889, 0.0072309226, -0.61714387, -0.59188455, -0.0314188, 0
73, 3347228731, 0.73032993, 0.018410444, -0.6828179, 0.006778285, -0.5847615, -0.6053893, 0.1214695, 0
74, 3347245398, 0.73038733, 0.018860891, -0.6827486, 0.0062998235, -0.5574815, -0.67758876, 0.0972805, 0
75, 3347262065, 0.7304477, 0.019282207, -0.6826763, 0.0058624893, -0.5908051, -0.6344523, 0.08415222, 0
76, 3347278732, 0.73050785, 0.019686311, -0.6826038, 0.005444944, -0.60384035, -0.5292325, 0.07782173, 0
77, 3347295399, 0.73057467, 0.020061195, -0.68252456, 0.005034238, -0.5344901, -0.5602722, 0.019465446, 0
78, 3347312066, 0.73064303, 0.020389304, -0.68244404, 0.004677117, -0.46885598, -0.5922951, 0.031431198, 0
79, 3347328733, 0.73069865, 0.020604864, -0.6823806, 0.004307568, -0.4464251, -0.52130497, -0.037373543, 0
80, 3347345400, 0.7307592, 0.02084145, -0.6823103, 0.004012093, -0.48882106, -0.48632127, 0.098059654, 0
81, 3347362067, 0.730827, 0.02106066, -0.68223256, 0.0037208647, -0.4997705, -0.5063342, 0.026947975, 0
82, 3347378734, 0.73088896, 0.021259293, -0.68216145, 0.0034389794, -0.53185713, -0.5256772, 0.06635857, 0
83, 3347395401, 0.7309564, 0.021457508, -0.6820842, 0.0032020956, -0.48858815, -0.57902867, 0.0684185, 0
84, 3347412068, 0.7310324, 0.021634027, -0.6819982, 0.002984941, -0.4891742, -0.585665, 0.022595406, 0
85, 3347428735, 0.7310906, 0.02182135, -0.68193066, 0.0027959496, -0.5007601, -0.5860796, 0.11593342, 0
86, 3347445402, 0.7311552, 0.022028, -0.68185526, 0.002651602, -0.5789173, -0.6073324, 0.0413208, 0
87, 3347462069, 0.73123235, 0.022170573, -0.6817687, 0.0024681687, -0.5674685, -0.56885767, 0.10362053, 0
88, 3347478736, 0.73130774, 0.022414714, -0.6816799, 0.0023887902, -0.5456112, -0.5243307, 0.05871582, 0
89, 3347495403, 0.7313843, 0.02259104, -0.6815927, 0.0022130162, -0.5253829, -0.6018282, 0.021237373, 0
90, 3347512070, 0.731464, 0.022808358, -0.6815004, 0.0020617396, -0.46532625, -0.7096794, 0.060746193, 0
91, 3347528737, 0.7315352, 0.022968128, -0.68141896, 0.001873523, -0.5307002, -0.6948723, -0.028460503, 0
92, 3347545404, 0.7315973, 0.02313745, -0.68134725, 0.0016824454, -0.60711664, -0.60625386, 0.023742676, 0
93, 3347562071, 0.73166347, 0.023288995, -0.68127143, 0.0014755726, -0.60930526, -0.6512962, 0.021837234, 0
94, 3347578738, 0.7317301, 0.023463756, -0.68119425, 0.0013161749, -0.58684355, -0.7197148, 0.10274696, 0
95, 3347595405, 0.7318015, 0.023624882, -0.6811123, 0.001165092, -0.6252538, -0.69047666, 0.13114166, 0
96, 3347612072, 0.7318692, 0.02378875, -0.68103397, 9.956956E-4, -0.6363579, -0.674886, 0.14212227, 0
97, 3347628739, 0.73194265, 0.023937538, -0.68095, 7.9512596E-4, -0.6511183, -0.665881, 0.034445763, 0
98, 3347645406, 0.73202014, 0.024094775, -0.68086153, 6.226152E-4, -0.66582745, -0.65590376, -0.0051984787, 0
99, 3347662073, 0.73208755, 0.02426131, -0.6807832, 4.902482E-4, -0.66683483, -0.6629047, -0.033517838, 0
100, 3347678740, 0.73215985, 0.024395391, -0.68070084, 3.4181774E-4, -0.7048213, -0.6527451, 0.009821892, 0
101, 3347695407, 0.732213, 0.024516076, -0.6806393, 1.9089878E-4, -0.6814338, -0.72872734, 0.064549446, 0
102, 3347712074, 0.73226976, 0.024666488, -0.68057287, 1.218766E-4, -0.628455, -0.7763094, 0.1193676, 0
103, 3347728741, 0.73234797, 0.024737656, -0.68048614, -5.4836273E-6, -0.64518714, -0.7481223, 0.13033867, 0
104, 3347745408, 0.7324233, 0.024786428, -0.6804032, -1.3078749E-4, -0.7269978, -0.5928053, 0.06330776, 0
105, 3347762075, 0.73249, 0.024866179, -0.6803284, -2.3034215E-4, -0.698191, -0.5194791, 0.07719612, 0
106, 3347778742, 0.7325607, 0.024947852, -0.6802493, -3.0124187E-4, -0.6146137, -0.6518866, 0.032860756, 0
107, 3347795409, 0.7326281, 0.024951011, -0.68017656, -3.7916005E-4, -0.49773878, -0.62616897, -0.017526627, 0
108, 3347812076, 0.7326965, 0.024902359, -0.68010473, -4.5971572E-4, -0.49464446, -0.6045965, 0.0014829636, 0
109, 3347828743, 0.7327572, 0.024890184, -0.6800397, -4.7525764E-4, -0.4829927, -0.5416515, 0.115875244, 0
110, 3347845410, 0.7328199, 0.024843618, -0.67997366, -5.198568E-4, -0.50472856, -0.6101104, 0.1863327, 0
111, 3347862077, 0.73289657, 0.024788827, -0.67989314, -5.378425E-4, -0.5662464, -0.56810355, 0.110569954, 0
112, 3347878744, 0.7329837, 0.024792522, -0.679799, -5.080253E-4, -0.5125617, -0.49790183, 0.056773186, 0
113, 3347895411, 0.7330628, 0.02478996, -0.6797139, -4.8072636E-4, -0.4201458, -0.50582904, -0.0029697418, 0
114, 3347912078, 0.73313487, 0.024828464, -0.67963487, -3.812313E-4, -0.31696105, -0.58069295, 0.05110073, 0
115, 3347928745, 0.73320735, 0.02475907, -0.67955905, -3.7887692E-4, -0.32217336, -0.5517688, -0.004099846, 0
116, 3347945412, 0.7332688, 0.024731219, -0.6794938, -3.4624338E-4, -0.36915758, -0.4827615, -0.0042772293, 0
117, 3347962079, 0.7333358, 0.024751157, -0.6794208, -3.1290948E-4, -0.34087694, -0.50227565, 0.06412697, 0
118, 3347978746, 0.73340535, 0.024757773, -0.67934555, -3.248006E-4, -0.34063107, -0.51641196, 0.06682682, 0
119, 3347995413, 0.7334828, 0.02478902, -0.6792608, -3.4725666E-4, -0.33191362, -0.47767368, 0.030632019, 0
120, 3348012080, 0.7335608, 0.024867043, -0.67917365, -3.9692223E-4, -0.33130878, -0.5261477, -0.026356697, 0
121, 3348028747, 0.7336326, 0.02496773, -0.67909235, -4.6914816E-4, -0.28561202, -0.60051864, 0.005235672, 0
122, 3348045414, 0.7337004, 0.02504155, -0.6790164, -5.5736303E-4, -0.3256965, -0.64392275, 0.04936123, 0
123, 3348062081, 0.7337652, 0.025099576, -0.678944, -6.4973533E-4, -0.38315797, -0.5355318, 0.06314659, 0
124, 3348078748, 0.7338317, 0.025226146, -0.6788675, -6.953031E-4, -0.4407157, -0.48533693, 0.06932163, 0
125, 3348095415, 0.7339015, 0.02530837, -0.67878884, -8.036792E-4, -0.40645206, -0.534508, 0.015465736, 0
126, 3348112082, 0.73396826, 0.02536942, -0.67871416, -8.817315E-4, -0.35093725, -0.5782241, 0.011795998, 0
127, 3348128749, 0.7340222, 0.025399119, -0.67865485, -9.6550584E-4, -0.38336852, -0.51416856, 0.009488106, 0
128, 3348145416, 0.7340851, 0.025429502, -0.6785853, -0.0010878742, -0.41445246, -0.48542833, 0.040862083, 0
129, 3348162083, 0.73414385, 0.025518388, -0.6785182, -0.0011671185, -0.3935026, -0.52658314, 0.059919357, 0
130, 3348178750, 0.73420733, 0.02558586, -0.67844677, -0.001227498, -0.4307993, -0.55241174, 0.038337708, 0
131, 3348195417, 0.73426855, 0.02560477, -0.67837983, -0.0012801588, -0.4794411, -0.48194277, 0.07021332, 0
132, 3348212084, 0.7343254, 0.025616601, -0.67831784, -0.0012806952, -0.5181173, -0.49223578, 0.03713703, 0
133, 3348228751, 0.7343886, 0.02559413, -0.67825055, -0.0011953115, -0.5004817, -0.5322194, 0.039063454, 0
134, 3348245418, 0.7344429, 0.025467739, -0.6781966, -0.0010828674, -0.6161537, -0.5664205, 0.06402969, 0
135, 3348262085, 0.7345078, 0.025342807, -0.6781313, -8.687526E-4, -0.708827, -0.5250324, 0.101296425, 0
136, 3348278752, 0.7345729, 0.025181085, -0.67806715, -6.5237284E-4, -0.75114745, -0.50660765, 0.10663509, 0
137, 3348295419, 0.7346438, 0.02497375, -0.6779981, -4.1289628E-4, -0.74600446, -0.5390624, 0.12580967, 0
138, 3348312086, 0.73472315, 0.024726346, -0.6779214, -1.2524426E-4, -0.69863224, -0.5919021, 0.12241745, 0
139, 3348328753, 0.7347925, 0.024440661, -0.67785645, 2.0319223E-4, -0.5746165, -0.5873293, 0.056322098, 0
140, 3348345420, 0.7348677, 0.02415274, -0.6777849, 5.687922E-4, -0.5030651, -0.6370066, 0.01373291, 0
141, 3348362087, 0.7349378, 0.023826852, -0.6777202, 9.3488395E-4, -0.44663656, -0.63115245, -0.018555641, 0
142, 3348378754, 0.7349876, 0.023485199, -0.6776776, 0.0012895018, -0.47715232, -0.5840061, 0.101018906, 0
143, 3348395421, 0.7350514, 0.023183003, -0.677618, 0.0016420484, -0.5605848, -0.5221652, 0.12386799, 0
144, 3348412088, 0.73512137, 0.022909671, -0.67755044, 0.0019616485, -0.5645642, -0.5655601, 0.0013608932, 0
145, 3348428755, 0.73518705, 0.02264589, -0.677487, 0.0022781193, -0.493028, -0.6873413, -0.0053625107, 0
146, 3348445422, 0.7352418, 0.022340715, -0.6774367, 0.0025726855, -0.46020514, -0.7392018, 0.038791656, 0
147, 3348462089, 0.7353101, 0.022049218, -0.6773709, 0.0028922856, -0.46101922, -0.6823687, 0.115737915, 0
148, 3348478756, 0.7353849, 0.021782294, -0.67729694, 0.0032053292, -0.4682945, -0.5831916, 0.15239906, 0
149, 3348495423, 0.73545647, 0.02152887, -0.67722607, 0.003452748, -0.40454414, -0.55694777, 0.087893486, 0
150, 3348512090, 0.7355291, 0.021293089, -0.6771535, 0.003665492, -0.34777677, -0.54999554, 0.035170555, 0
151, 3348528757, 0.73560286, 0.021070927, -0.6770793, 0.003861919, -0.29086858, -0.5618732, -0.028593063, 0
152, 3348545424, 0.73565495, 0.020909786, -0.67702645, 0.004083514, -0.28284314, -0.52424425, 0.011209488, 0
153, 3348562091, 0.7357192, 0.020763025, -0.67696, 0.0042452067, -0.22373602, -0.469091, 0.051317215, 0
154, 3348578758, 0.7357853, 0.020639718, -0.6768913, 0.0043599457, -0.20777228, -0.4551713, -0.016349792, 0
155, 3348595425, 0.7358377, 0.020545736, -0.6768366, 0.004432276, -0.1895752, -0.5317009, 0.005859375, 0
156, 3348612092, 0.7358819, 0.020480886, -0.6767901, 0.00450553, -0.18315054, -0.61310184, 0.06888199, 0
157, 3348628759, 0.73593926, 0.020502403, -0.67672634, 0.0046169013, -0.26691157, -0.5922166, 0.105745316, 0
158, 3348645426, 0.7360064, 0.020503134, -0.6766537, 0.004574582, -0.3172489, -0.5117471, 0.09070587, 0
159, 3348662093, 0.73607635, 0.020620644, -0.6765742, 0.004531443, -0.27345827, -0.5027006, 0.064356804, 0
160, 3348678760, 0.7361313, 0.020735204, -0.6765116, 0.0044291615, -0.21124417, -0.5261323, -0.047260284, 0
161, 3348695427, 0.73618114, 0.020861715, -0.67645425, 0.00430654, -0.16386136, -0.48228395, -0.013834953, 0
162, 3348712094, 0.7362382, 0.020988658, -0.6763892, 0.004161507, -0.2141348, -0.46528983, 0.042087555, 0
163, 3348728761, 0.73628944, 0.02113831, -0.6763296, 0.004014805, -0.24987452, -0.47471112, 0.12212181, 0
164, 3348745428, 0.73634696, 0.021315306, -0.67626256, 0.0038392246, -0.27303404, -0.48079982, 0.0709734, 0
165, 3348762095, 0.7364116, 0.021533161, -0.6761859, 0.0036697239, -0.28752616, -0.4667583, 0.06428146, 0
166, 3348778762, 0.7364761, 0.02172044, -0.67611104, 0.0034331232, -0.2881176, -0.5083451, 0.03144455, 0
167, 3348795429, 0.7365351, 0.021924749, -0.67604136, 0.0032089949, -0.28934422, -0.50773525, -0.09304142, 0
168, 3348812096, 0.73657686, 0.022127971, -0.6759903, 0.0029954314, -0.25893217, -0.50630254, -0.016507149, 0
169, 3348828763, 0.7366232, 0.022298098, -0.6759351, 0.0027869195, -0.3435506, -0.5091742, 0.06505966, 0
170, 3348845430, 0.73666614, 0.022466287, -0.6758833, 0.0026028752, -0.4252383, -0.44366786, 0.06845951, 0
171, 3348862097, 0.7367182, 0.022641927, -0.67582154, 0.0023946017, -0.52013165, -0.42425364, 0.010242462, 0
172, 3348878764, 0.73676777, 0.022865176, -0.6757605, 0.0022533238, -0.493643, -0.49732324, 0.053404808, 0
173, 3348895431, 0.736809, 0.022979558, -0.6757121, 0.0021308064, -0.45042643, -0.5783183, 0.115694046, 0
174, 3348912098, 0.73685837, 0.02300565, -0.67565745, 0.002076134, -0.5586514, -0.5493827, 0.0911417, 0
175, 3348928765, 0.7369178, 0.022969514, -0.67559385, 0.0021226406, -0.6454983, -0.4605118, 0.14628506, 0
176, 3348945432, 0.73697567, 0.022853449, -0.67553425, 0.0022309273, -0.6885513, -0.36757243, 0.055706978, 0
177, 3348962099, 0.73701704, 0.02269283, -0.67549384, 0.0024303347, -0.6889988, -0.36060148, -0.0017271042, 0
178, 3348978766, 0.7370677, 0.022458762, -0.6754454, 0.0027032048, -0.63962704, -0.4328201, 0.09185505, 0
179, 3348995433, 0.7371376, 0.022153333, -0.67537767, 0.0030419081, -0.5933415, -0.47952828, 0.13168144, 0
180, 3349012100, 0.7372038, 0.021809042, -0.67531437, 0.0035262257, -0.58720875, -0.45891592, 0.14133072, 0
181, 3349028767, 0.737272, 0.021343112, -0.6752516, 0.004071206, -0.58967006, -0.44011903, 0.022058487, 0
182, 3349045434, 0.7373312, 0.02075997, -0.67520106, 0.004703656, -0.5459881, -0.4310834, 0.06668568, 0
183, 3349062101, 0.73740315, 0.020018786, -0.67513984, 0.0053483844, -0.5781386, -0.47172868, 0.08206558, 0
184, 3349078768, 0.7374716, 0.019341215, -0.67507833, 0.006149009, -0.5235411, -0.4679143, 0.10378361, 0
185, 3349095435, 0.73753995, 0.018630505, -0.6750159, 0.006945297, -0.4635215, -0.4748126, 0.104159355, 0
186, 3349112102, 0.7376117, 0.017922133, -0.674948, 0.007732272, -0.38450977, -0.4720948, 0.10460663, 0
187, 3349128769, 0.737685, 0.017257407, -0.6748759, 0.008508399, -0.32580277, -0.5330221, 0.061590195, 0
188, 3349145436, 0.7377591, 0.016597703, -0.6748017, 0.009247214, -0.2244374, -0.58864695, -0.009168625, 0
189, 3349162103, 0.7378286, 0.015963823, -0.67473084, 0.00996235, -0.18049699, -0.5634397, 0.008013725, 0
190, 3349178770, 0.7379045, 0.015358582, -0.67465186, 0.010619909, -0.17733651, -0.53678936, 0.08860588, 0
191, 3349195437, 0.73798513, 0.0148111135, -0.67456603, 0.0112237185, -0.20243658, -0.496393, 0.046079636, 0
192, 3349212104, 0.7380574, 0.0143485665, -0.67448884, 0.011715472, -0.15835223, -0.5122595, -0.010427475, 0
193, 3349228771, 0.7381348, 0.013991088, -0.674404, 0.0121359825, -0.07947763, -0.5621094, 0.02712822, 0
194, 3349245438, 0.7381916, 0.013711438, -0.6743414, 0.012476519, -0.074732006, -0.5884611, 0.07584953, 0
195, 3349262105, 0.7382558, 0.013493046, -0.6742698, 0.01278469, -0.1430836, -0.4904671, 0.043216705, 0
196, 3349278772, 0.73831415, 0.01331155, -0.6742048, 0.013022482, -0.16695479, -0.4586025, 0.008069038, 0
197, 3349295439, 0.7383611, 0.013191104, -0.6741524, 0.01319319, -0.13392852, -0.46466863, 0.0256176, 0
198, 3349312106, 0.7384238, 0.013103157, -0.67408276, 0.013335675, -0.10898402, -0.48203576, 0.02515316, 0
199, 3349328773, 0.7384796, 0.013071224, -0.67401993, 0.013450488, -0.11917711, -0.42201167, 0.0034837723, 0
200, 3349345440, 0.7385209, 0.013066739, -0.6739737, 0.013503507, -0.167337, -0.4495492, 0.019919395, 0
201, 3349362107, 0.7385756, 0.013115764, -0.67391247, 0.0135279745, -0.17118992, -0.50200415, 0.07928085, 0
202, 3349378774, 0.73862725, 0.013160735, -0.67385507, 0.0135201365, -0.21344683, -0.5454345, 0.05722046, 0
203, 3349395441, 0.73868316, 0.013198376, -0.6737938, 0.013478324, -0.2710604, -0.46882713, 0.11033535, 0
204, 3349412108, 0.7387398, 0.013248816, -0.67373234, 0.013398439, -0.29217345, -0.45852643, 0.08282375, 0
205, 3349428775, 0.73879385, 0.013326108, -0.6736726, 0.013336837, -0.19349249, -0.45743218, 0.0032186508, 0
206, 3349445442, 0.73883784, 0.01338391, -0.6736253, 0.013239175, -0.15096468, -0.45689178, -0.051128387, 0
207, 3349462109, 0.7388831, 0.013490096, -0.67357624, 0.013100818, -0.15253463, -0.42429012, -0.011316299, 0
208, 3349478776, 0.7389211, 0.013628542, -0.67353517, 0.012928441, -0.17834456, -0.44646809, 0.045897484, 0
209, 3349495443, 0.7389652, 0.013811067, -0.6734862, 0.012759522, -0.23690325, -0.48424673, 0.022128105, 0
210, 3349512110, 0.7390086, 0.013977855, -0.67343867, 0.012578577, -0.2760622, -0.47856387, 0.044695854, 0
211, 3349528777, 0.7390555, 0.014065191, -0.67338973, 0.012336701, -0.35771638, -0.43217024, 0.09528828, 0
212, 3349545444, 0.7390975, 0.014167681, -0.6733443, 0.012179434, -0.3555385, -0.40077618, 0.034778595, 0
213, 3349562111, 0.73914576, 0.01427573, -0.6732908, 0.0120792985, -0.29774833, -0.39510295, 0.013731003, 0
214, 3349578778, 0.7391798, 0.014317378, -0.67325425, 0.011990279, -0.24045569, -0.41788408, 0.053339005, 0
215, 3349595445, 0.7392055, 0.01435338, -0.67322606, 0.011942163, -0.26548377, -0.43855062, 0.08824253, 0
216, 3349612112, 0.73923886, 0.014390081, -0.6731893, 0.011902273, -0.37307754, -0.48712805, 0.06199169, 0
217, 3349628779, 0.73928225, 0.014439151, -0.673141, 0.011880338, -0.37107933, -0.49061003, 0.14031506, 0
218, 3349645446, 0.739332, 0.014477655, -0.6730859, 0.011858076, -0.37727422, -0.44419578, 0.09330177, 0
219, 3349662113, 0.7393771, 0.014488146, -0.67303675, 0.011833504, -0.31551582, -0.40036345, 0.06908417, 0
220, 3349678780, 0.7394299, 0.014520079, -0.67297804, 0.011837229, -0.2448419, -0.4076999, -0.024456024, 0
221, 3349695447, 0.73945695, 0.014543161, -0.6729477, 0.011839658, -0.17779294, -0.44397965, -0.041301727, 0
222, 3349712114, 0.73949194, 0.014561117, -0.6729086, 0.011845335, -0.1716624, -0.44406393, 0.02735424, 0
223, 3349728781, 0.73952055, 0.0145878345, -0.6728769, 0.011833549, -0.25001177, -0.44341406, 0.059688568, 0
224, 3349745448, 0.73955005, 0.014629632, -0.6728444, 0.011788204, -0.25219414, -0.40807095, 0.11947441, 0
225, 3349762115, 0.73956716, 0.014725432, -0.672825, 0.0117082745, -0.30240005, -0.46461794, 0.11262798, 0
226, 3349778782, 0.73961174, 0.01486589, -0.67277527, 0.0115662515, -0.3469842, -0.5557715, 0.08447075, 0
227, 3349795449, 0.7396439, 0.015055358, -0.6727384, 0.011411563, -0.2884086, -0.5542468, 0.03384018, 0
228, 3349812116, 0.7396808, 0.015229017, -0.6726972, 0.01121442, -0.30897135, -0.58674204, 0.009414673, 0
229, 3349828783, 0.7397108, 0.015421465, -0.67266303, 0.011008233, -0.27707112, -0.5467211, 0.06381607, 0
230, 3349845450, 0.73974985, 0.01563707, -0.6726184, 0.010805443, -0.34065208, -0.50248396, 0.09971714, 0
231, 3349862117, 0.739789, 0.015880153, -0.67257375, 0.010544121, -0.35644594, -0.498583, 0.12612629, 0
232, 3349878784, 0.7398154, 0.016176805, -0.6725425, 0.010250345, -0.40210116, -0.56133986, 0.041547775, 0
233, 3349895451, 0.7398486, 0.016534194, -0.6725015, 0.009954542, -0.38667697, -0.55625266, 0.05930233, 0
234, 3349912118, 0.73988175, 0.016816989, -0.6724638, 0.009565145, -0.34737864, -0.5458079, 0.022247314, 0
235, 3349928785, 0.73992336, 0.017145902, -0.67241436, 0.009233102, -0.35983843, -0.4590089, 0.039711, 0
236, 3349945452, 0.73995954, 0.01744385, -0.6723714, 0.008892834, -0.32715055, -0.42609805, 0.051894188, 0
237, 3349962119, 0.7399861, 0.017698988, -0.6723401, 0.008554876, -0.35171103, -0.4450608, 0.10622597, 0
238, 3349978786, 0.7400276, 0.017969161, -0.67229027, 0.008286729, -0.3675845, -0.4365492, 0.09757519, 0
239, 3349995453, 0.74006397, 0.018199041, -0.67224735, 0.008020401, -0.41431522, -0.42725888, 0.01974678, 0
240, 3350012120, 0.7401045, 0.018427372, -0.67219925, 0.007783413, -0.43144974, -0.3878076, 0.13075352, 0
241, 3350028787, 0.74015045, 0.018655196, -0.67214495, 0.0075647086, -0.46551803, -0.4606432, 0.09415913, 0
242, 3350045454, 0.7401903, 0.018866241, -0.6720973, 0.007376179, -0.4334788, -0.50190294, 0.096933365, 0
243, 3350062121, 0.7402255, 0.019040436, -0.67205554, 0.007202089, -0.44445193, -0.5085833, -0.018894196, 0
244, 3350078788, 0.7402522, 0.019219324, -0.6720225, 0.007061839, -0.47122073, -0.4954786, -0.013776779, 0
245, 3350095455, 0.7402735, 0.01935479, -0.67199683, 0.0068965107, -0.4197086, -0.5190344, 0.120051384, 0
246, 3350112122, 0.7403071, 0.019480452, -0.6719575, 0.0067649186, -0.44127983, -0.5661619, 0.12624168, 0
247, 3350128789, 0.74034804, 0.019595906, -0.67191046, 0.006625816, -0.41995117, -0.561814, 0.19059467, 0
248, 3350145456, 0.7403908, 0.01976879, -0.6718598, 0.0064879805, -0.44902635, -0.54012084, 0.09568024, 0
249, 3350162123, 0.74043566, 0.019913778, -0.6718082, 0.0062551945, -0.4913986, -0.5601801, -0.049168587, 0
250, 3350178790, 0.7404596, 0.020101994, -0.6717783, 0.0060221255, -0.374099, -0.57133704, 0.09545612, 0
251, 3350195457, 0.7404995, 0.020343304, -0.67172885, 0.005828142, -0.41948554, -0.5936925, 0.07846928, 0
252, 3350212124, 0.7405308, 0.020569637, -0.6716893, 0.0055956095, -0.3906622, -0.5093078, 0.06901932, 0
253, 3350228791, 0.74055225, 0.020873636, -0.67165774, 0.005417049, -0.39015305, -0.52240545, 0.04702568, 0
254, 3350245458, 0.7405803, 0.02106765, -0.671623, 0.0051310062, -0.35721707, -0.56205964, 0.086149216, 0
255, 3350262125, 0.7406213, 0.02126214, -0.67157376, 0.0048623085, -0.335256, -0.5387582, 0.12598038, 0
256, 3350278792, 0.7406512, 0.021476135, -0.67153573, 0.004571274, -0.39460722, -0.46820724, 0.011481285, 0
257, 3350295459, 0.7406819, 0.021750003, -0.67149514, 0.004270971, -0.36404002, -0.45860434, 0.04125786, 0
258, 3350312126, 0.7407027, 0.022045955, -0.6714646, 0.0039708167, -0.30527934, -0.47183964, 0.048163414, 0
259, 3350328793, 0.7407428, 0.022274598, -0.6714146, 0.0036421418, -0.2951821, -0.46878818, 0.080373764, 0
260, 3350345460, 0.74077404, 0.022498026, -0.6713741, 0.0033678263, -0.27029154, -0.3759099, 0.03796196, 0
261, 3350362127, 0.7408101, 0.022717744, -0.67132795, 0.003131017, -0.27417037, -0.35432178, 0.10068989, 0
262, 3350378794, 0.7408493, 0.022934929, -0.6712782, 0.0029453635, -0.2597538, -0.3641784, 0.0667696, 0
263, 3350395461, 0.7408833, 0.023036182, -0.67123836, 0.0027070194, -0.25563356, -0.33891326, 0.050271034, 0
264, 3350412128, 0.74092144, 0.023157135, -0.6711925, 0.002546236, -0.24155179, -0.26629847, 0.06638527, 0
265, 3350428795, 0.7409492, 0.02335757, -0.6711551, 0.0024956167, -0.23247986, -0.23838048, -0.02822113, 0
266, 3350445462, 0.7409601, 0.023437321, -0.67114073, 0.0023928434, -0.1910772, -0.2682408, -0.018865585, 0
267, 3350462129, 0.74098897, 0.023510024, -0.6711063, 0.002374217, -0.19403607, -0.30226484, 0.12667847, 0
268, 3350478796, 0.74101985, 0.02358441, -0.67106956, 0.0024145097, -0.25843105, -0.30651405, 0.17041779, 0
269, 3350495463, 0.7410552, 0.023586571, -0.6710302, 0.0024620295, -0.3624106, -0.30391315, 0.067103386, 0
270, 3350512130, 0.7411075, 0.023557693, -0.67097324, 0.0025205761, -0.302544, -0.324439, 0.13749123, 0
271, 3350528797, 0.7411469, 0.023510918, -0.670931, 0.0026361644, -0.25852537, -0.42412856, 0.07201576, 0
272, 3350545464, 0.74118406, 0.023408666, -0.670893, 0.0027394593, -0.25062567, -0.41136453, 0.022116661, 0
273, 3350562131, 0.74121433, 0.023322657, -0.67086214, 0.0028505176, -0.23772839, -0.37408358, 0.04138565, 0
274, 3350578798, 0.74125445, 0.023290873, -0.6708183, 0.0029601306, -0.25112575, -0.44557834, 0.13132477, 0
275, 3350595465, 0.7413057, 0.023258671, -0.67076254, 0.0030227602, -0.2181111, -0.46625596, 0.120467186, 0
276, 3350612132, 0.74134976, 0.023197755, -0.6707161, 0.0030170828, -0.2906151, -0.48847795, 0.08055115, 0
277, 3350628799, 0.74140435, 0.023202151, -0.6706556, 0.0030044317, -0.290958, -0.48168606, 0.11690998, 0
278, 3350645466, 0.74145275, 0.023292005, -0.67059875, 0.0030460954, -0.23545481, -0.5233692, 0.07749653, 0
279, 3350662133, 0.74149895, 0.023293808, -0.6705479, 0.0030032545, -0.20491756, -0.5355253, 0.030601501, 0
280, 3350678800, 0.7415558, 0.02325216, -0.6704868, 0.0029197633, -0.2053047, -0.4437176, -0.061507225, 0
281, 3350695467, 0.7415879, 0.023279011, -0.67045075, 0.002868116, -0.22364393, -0.43557468, -0.016166687, 0
282, 3350712134, 0.7416124, 0.023334444, -0.67042196, 0.0027683526, -0.27657136, -0.48020416, 0.08261585, 0
283, 3350728801, 0.7416456, 0.023408279, -0.6703832, 0.0026480705, -0.25433987, -0.47081038, 0.18122292, 0
284, 3350745468, 0.7416942, 0.023458496, -0.67032826, 0.0024843365, -0.33353865, -0.4392709, 0.06629944, 0
285, 3350762135, 0.74174774, 0.023553208, -0.6702662, 0.0023580194, -0.34965876, -0.39659402, 0.055330276, 0
286, 3350778802, 0.7417931, 0.023650855, -0.670213, 0.0022283643, -0.33239862, -0.43792, 0.023698807, 0
287, 3350795469, 0.7418277, 0.023710713, -0.670173, 0.0020933896, -0.29048905, -0.4842056, -0.009181023, 0
288, 3350812136, 0.7418578, 0.02372481, -0.6701397, 0.0019627959, -0.25776988, -0.43066344, 0.0038414001, 0
289, 3350828803, 0.74188805, 0.023748994, -0.67010564, 0.0018494278, -0.31317294, -0.39960405, 0.060753822, 0
290, 3350845470, 0.74192953, 0.023793742, -0.6700583, 0.0017481744, -0.35540617, -0.3721162, 0.2248249, 0
291, 3350862137, 0.74196965, 0.023877382, -0.6700111, 0.0016822964, -0.3838187, -0.419665, 0.11261177, 0
292, 3350878804, 0.742015, 0.023882076, -0.66996086, 0.001572594, -0.31997535, -0.3945348, 0.08042908, 0
293, 3350895471, 0.74205846, 0.023893073, -0.6699125, 0.0015204102, -0.29382566, -0.3817874, 0.0426569, 0
294, 3350912138, 0.7421017, 0.023835063, -0.6698668, 0.0014410913, -0.27156958, -0.33945796, 0.09781933, 0
295, 3350928805, 0.7421424, 0.023831189, -0.6698218, 0.0014308542, -0.24956116, -0.35169896, 0.08856583, 0
296, 3350945472, 0.74218637, 0.023819834, -0.6697736, 0.0014472008, -0.2208475, -0.37365526, -0.002439499, 0
297, 3350962139, 0.74223065, 0.023761839, -0.66972667, 0.0014406443, -0.16709426, -0.33604747, 0.01670456, 0
298, 3350978806, 0.74226624, 0.02373293, -0.669688, 0.0014813691, -0.16318814, -0.32180557, 0.06830788, 0
299, 3350995473, 0.7423026, 0.023700625, -0.66964895, 0.001492098, -0.16848093, -0.30302972, 0.06313324, 0
300, 3351012140, 0.74234015, 0.023690805, -0.6696076, 0.0014807135, -0.17611301, -0.31879273, 0.09297848, 0
301, 3351028807, 0.7423869, 0.023735225, -0.6695542, 0.001509428, -0.13162589, -0.39191824, 0.06991577, 0
302, 3351045474, 0.7424325, 0.023737788, -0.6695037, 0.0014897436, -0.18074465, -0.39930055, 0.031700134, 0
303, 3351062141, 0.74245894, 0.02377002, -0.66947323, 0.0015038997, -0.17809825, -0.3746285, 0.020067215, 0
304, 3351078808, 0.74250126, 0.023790255, -0.66942555, 0.0014704615, -0.19925554, -0.3632089, 0.0048208237, 0
305, 3351095475, 0.7425332, 0.0238294, -0.66938865, 0.0014562756, -0.14347789, -0.3829206, 0.041786194, 0
306, 3351112142, 0.74255216, 0.023844063, -0.6693672, 0.0014231354, -0.18010809, -0.3722113, 0.030628204, 0
307, 3351128809, 0.74257344, 0.023863032, -0.66934294, 0.001395449, -0.20614734, -0.36220598, 0.10833454, 0
308, 3351145476, 0.74259984, 0.02391103, -0.66931206, 0.0013933033, -0.2306457, -0.39653993, 0.15298176, 0
309, 3351162143, 0.7426444, 0.023927554, -0.66926205, 0.0013585091, -0.23448588, -0.3958245, 0.063287735, 0
310, 3351178810, 0.742685, 0.023956865, -0.669216, 0.0013437867, -0.1893785, -0.381641, 0.035147667, 0
311, 3351195477, 0.7427171, 0.023995891, -0.66917896, 0.0013260245, -0.17172188, -0.3755324, 0.0020227432, 0
312, 3351212144, 0.74275, 0.023993775, -0.6691426, 0.001281172, -0.17949656, -0.39599925, 0.009396553, 0
313, 3351228811, 0.7427729, 0.023989871, -0.66911745, 0.0012406707, -0.18657207, -0.3466402, 0.012465477, 0
314, 3351245478, 0.7427914, 0.024015099, -0.669096, 0.0012126267, -0.19329087, -0.3476003, 0.07441521, 0
315, 3351262145, 0.74281347, 0.024038717, -0.6690708, 0.0011713505, -0.19974503, -0.40566897, 0.1362772, 0
316, 3351278812, 0.74285036, 0.024089098, -0.669028, 0.0011644363, -0.22844723, -0.38920265, 0.10220623, 0
317, 3351295479, 0.7428813, 0.0241445, -0.6689916, 0.0011415035, -0.29757175, -0.37373468, 0.04393387, 0
318, 3351312146, 0.7429198, 0.024195522, -0.6689473, 0.0010912418, -0.24014276, -0.3533142, 0.07101345, 0
319, 3351328813, 0.7429429, 0.024220318, -0.66892064, 0.001006782, -0.25217402, -0.40391943, -0.0043325424, 0
320, 3351345480, 0.74296397, 0.024296224, -0.6688947, 9.7575784E-4, -0.22308962, -0.43804863, 0.03937626, 0
321, 3351362147, 0.74297875, 0.024352744, -0.66887623, 9.409487E-4, -0.25604466, -0.40605408, 0.065909386, 0
322, 3351378814, 0.7430034, 0.024404809, -0.668847, 8.7469816E-4, -0.25777972, -0.3604397, 0.09490204, 0
323, 3351395481, 0.7430286, 0.024459407, -0.6688171, 7.969141E-4, -0.2443466, -0.3786304, 0.08596611, 0
324, 3351412148, 0.74305445, 0.024511173, -0.6687866, 7.157624E-4, -0.21144639, -0.41596296, 0.06978798, 0
325, 3351428815, 0.7430836, 0.024586871, -0.6687516, 6.637275E-4, -0.16211395, -0.42139667, 0.13192272, 0
326, 3351445482, 0.74310446, 0.024664298, -0.6687255, 6.136745E-4, -0.45106927, -0.45770934, -0.63510036, 0
327, 3351462149, 0.7430862, 0.024735972, -0.66874325, 5.34758E-4, -0.060063742, -0.4190452, 0.4879074, 0
328, 3351478816, 0.7430964, 0.024786651, -0.6687302, 4.041493E-4, -0.27582482, -0.28323194, 0.4964819, 0
329, 3351495483, 0.7431704, 0.02490431, -0.66864365, 3.1001866E-4, -0.22340523, -0.38191402, 0.020506859, 0
330, 3351512150, 0.7432395, 0.024963766, -0.6685645, 2.079457E-4, 0.15646979, -0.2847993, 0.15659714, 0
331, 3351528817, 0.74329203, 0.024982378, -0.66850555, 1.21831894E-4, 0.041832685, -0.2766394, -0.26502514, 0
332, 3351545484, 0.74331784, 0.02498433, -0.6684767, 5.827844E-5, 0.26612884, -0.09797623, -0.015293121, 0
333, 3351562151, 0.74332345, 0.024963483, -0.66847134, 1.37239695E-5, 0.18350637, -0.071017556, 0.07684612, 0
334, 3351578818, 0.74336606, 0.024984628, -0.6684231, -2.591312E-5, 0.13791665, 0.03455828, -0.023554802, 0
335, 3351595485, 0.74340165, 0.025069922, -0.6683803, -4.093349E-5, 0.1523661, 0.005010825, -0.05778122, 0
336, 3351612152, 0.7434212, 0.025193393, -0.66835386, -2.8982759E-5, 0.04749963, -0.131433, -0.21686935, 0
337, 3351628819, 0.743422, 0.025278017, -0.6683498, -2.2038817E-5, 0.098149456, -0.25163177, 0.078276634, 0
338, 3351645486, 0.7434183, 0.025327906, -0.6683521, 3.1784177E-5, -0.07351967, -0.31727216, 0.1314745, 0
339, 3351662153, 0.74342227, 0.025364742, -0.6683464, 1.3642013E-4, -0.32554036, -0.27716613, 0.051997185, 0
340, 3351678820, 0.7434374, 0.025388047, -0.6683286, 2.2029877E-4, -0.33904412, -0.26012528, 0.21053696, 0
341, 3351695487, 0.7434594, 0.025396466, -0.66830367, 3.4615397E-4, -0.38048252, -0.45487234, 0.08611202, 0
342, 3351712154, 0.74347657, 0.025340408, -0.6682867, 4.6771765E-4, -0.3477553, -0.4561249, 0.058979034, 0
343, 3351728821, 0.7434872, 0.025298163, -0.6682763, 5.9454143E-4, -0.3706216, -0.46067038, 0.06997776, 0
344, 3351745488, 0.74349594, 0.02531825, -0.66826564, 7.600039E-4, -0.3692984, -0.50954306, 0.07559395, 0
345, 3351762155, 0.74350786, 0.02529651, -0.6682532, 8.779317E-4, -0.42091826, -0.56405574, 0.094558716, 0
346, 3351778822, 0.74353147, 0.0251811, -0.6682312, 8.8630617E-4, -0.5504311, -0.49528304, 0.14360523, 0
347, 3351795489, 0.74355257, 0.025190443, -0.6682072, 9.416193E-4, -0.60320157, -0.4693916, 0.14811993, 0
348, 3351812156, 0.74357605, 0.02521497, -0.66818017, 9.124726E-4, -0.5141705, -0.655548, 0.15410042, 0
349, 3351828823, 0.7436043, 0.02525559, -0.6681472, 8.775145E-4, -0.42148554, -0.8253278, 0.07655907, 0
350, 3351845490, 0.7436313, 0.02529329, -0.6681158, 8.5923076E-4, -0.4163492, -0.7323705, 0.05263996, 0
351, 3351862157, 0.7436493, 0.025425613, -0.6680907, 8.7863207E-4, -0.49504855, -0.5629765, 0.069701195, 0
352, 3351878824, 0.74368215, 0.025432706, -0.6680542, 6.581247E-4, -0.48219165, -0.5619984, 0.09323788, 0
353, 3351895491, 0.74371034, 0.025546774, -0.6680187, 4.964173E-4, -0.4157377, -0.5990861, 0.13520813, 0
354, 3351912158, 0.7437372, 0.025573194, -0.6679879, 2.6892126E-4, -0.40237427, -0.5274761, 0.11863327, 0
355, 3351928825, 0.7437749, 0.025635168, -0.6679436, 9.6186996E-5, -0.35748887, -0.40282476, 0.11027241, 0
356, 3351945492, 0.74380696, 0.025705352, -0.66790515, -5.416572E-5, -0.32015952, -0.37532172, 0.04483223, 0
357, 3351962159, 0.7438308, 0.025860935, -0.66787255, -9.7334385E-5, -0.2927765, -0.36212263, 0.077851295, 0
358, 3351978826, 0.7438722, 0.025871888, -0.66782606, -2.501905E-4, -0.24680568, -0.3357595, 0.058488846, 0
359, 3351995493, 0.7439126, 0.025908023, -0.6677796, -3.630668E-4, -0.2435108, -0.29802042, 0.024586678, 0
360, 3352012160, 0.7439393, 0.025952667, -0.667748, -5.095601E-4, -0.18743797, -0.34016916, 0.07762146, 0
361, 3352028827, 0.74396116, 0.026052624, -0.6677196, -5.5250525E-4, -0.1864326, -0.35788828, 0.11487293, 0
362, 3352045494, 0.74399054, 0.026095882, -0.66768515, -5.8825314E-4, -0.19507273, -0.30249327, 0.14141273, 0
363, 3352062161, 0.7440222, 0.026086017, -0.6676503, -6.722212E-4, -0.2779245, -0.22114775, 0.051094055, 0
364, 3352078828, 0.7440495, 0.026114479, -0.6676187, -7.132739E-4, -0.22497116, -0.2242187, 0.021383286, 0
365, 3352095495, 0.74408644, 0.026114717, -0.66757745, -7.161349E-4, -0.13910016, -0.2902432, 0.030944824, 0
366, 3352112162, 0.744131, 0.02605851, -0.66753, -6.648302E-4, -0.12854454, -0.18917388, 0.09982872, 0
367, 3352128829, 0.74416596, 0.025990665, -0.66749394, -5.674809E-4, -0.1661117, -0.115981095, 0.045425415, 0
368, 3352145496, 0.7441951, 0.0259213, -0.667464, -4.646182E-4, -0.13863927, -0.1832329, 0.055394173, 0
369, 3352162163, 0.7442209, 0.025801733, -0.66744006, -3.5759807E-4, -0.049430784, -0.3242205, 0.07344532, 0
370, 3352178830, 0.7442515, 0.02567041, -0.66741115, -1.9212067E-4, -0.07091485, -0.3382095, 0.03195381, 0
371, 3352195497, 0.74428064, 0.02552393, -0.66738415, -2.9802322E-6, -0.17591336, -0.2417771, 0.034103394, 0
372, 3352212164, 0.744312, 0.025394365, -0.6673541, 2.2295117E-4, -0.18863688, -0.17220366, 0.0077819824, 0
373, 3352228831, 0.74433565, 0.025175467, -0.6673361, 4.3028593E-4, -0.20408075, -0.1994881, 0.05195141, 0
374, 3352245498, 0.7443646, 0.024966419, -0.66731125, 7.330179E-4, -0.16652207, -0.23334228, 0.14378166, 0
375, 3352262165, 0.7444017, 0.024698228, -0.6672794, 0.0010241717, -0.14639428, -0.31969705, 0.12582207, 0
376, 3352278832, 0.7444294, 0.024462253, -0.6672566, 0.0013581216, -0.21628857, -0.3633459, -0.004500389, 0
377, 3352295499, 0.744454, 0.024208516, -0.6672376, 0.0016558319, -0.21954113, -0.36762673, 0.04102993, 0
378, 3352312166, 0.744488, 0.023988008, -0.6672072, 0.0019401461, -0.26924774, -0.41535324, 0.08536816, 0
379, 3352328833, 0.74452066, 0.023805946, -0.6671761, 0.002241671, -0.27728122, -0.39889106, 0.07281685, 0
380, 3352345500, 0.74455345, 0.023601905, -0.66714585, 0.0024947822, -0.27130315, -0.32583407, 0.048301697, 0
381, 3352362167, 0.7445763, 0.023383096, -0.6671274, 0.0027179867, -0.23829655, -0.36958483, 0.12685585, 0
382, 3352378834, 0.7446028, 0.023133963, -0.66710544, 0.0029297322, -0.20285365, -0.48483568, 0.05422592, 0
383, 3352395501, 0.7446348, 0.02293706, -0.66707516, 0.0032337308, -0.17443693, -0.49251062, 0.03963852, 0
384, 3352412168, 0.7446584, 0.022708625, -0.66705555, 0.0034487695, -0.2783416, -0.41706902, 0.05704403, 0
385, 3352428835, 0.7446878, 0.022578135, -0.6670259, 0.0036742687, -0.28013995, -0.38363296, 0.046627045, 0
386, 3352445502, 0.7447144, 0.022493407, -0.66699827, 0.003845334, -0.277127, -0.42143255, 0.073638916, 0
387, 3352462169, 0.7447353, 0.022308722, -0.66698086, 0.003863871, -0.25093397, -0.44550157, 0.09743881, 0
388, 3352478836, 0.74475634, 0.022182837, -0.66696095, 0.0039598197, -0.2865682, -0.41768, 0.07712269, 0
389, 3352495503, 0.74478066, 0.022086337, -0.6669362, 0.0040962547, -0.28178278, -0.381661, 0.031308174, 0
390, 3352512170, 0.7447945, 0.022009566, -0.66692257, 0.004242182, -0.24436493, -0.4210041, 0.07138634, 0
391, 3352528837, 0.7448169, 0.021872535, -0.6669013, 0.0043438226, -0.21580668, -0.47741082, 0.13915157, 0
392, 3352545504, 0.7448499, 0.021782696, -0.66686624, 0.00451687, -0.24108197, -0.35924008, 0.123851776, 0
393, 3352562171, 0.7448715, 0.021706939, -0.6668436, 0.0046438277, -0.24274848, -0.2659423, 0.0525198, 0
394, 3352578838, 0.7448777, 0.021703586, -0.6668359, 0.0047697425, -0.17888144, -0.3526012, 0.016997337, 0
395, 3352595505, 0.7449032, 0.021631226, -0.6668093, 0.004834518, -0.123922735, -0.46732894, 0.073262215, 0
396, 3352612172, 0.74492514, 0.021560058, -0.6667868, 0.004875481, -0.18771905, -0.3994986, 0.048080444, 0
397, 3352628839, 0.74494606, 0.02152054, -0.66676486, 0.0048751235, -0.20081879, -0.26707843, 0.004152298, 0
398, 3352645506, 0.74496055, 0.021628246, -0.6667449, 0.0049048513, -0.13065673, -0.33130878, 0.01798153, 0
399, 3352662173, 0.74496984, 0.021703735, -0.6667323, 0.0048565716, -0.09607347, -0.4276811, 0.119662285, 0
400, 3352678840, 0.7449777, 0.021718547, -0.6667238, 0.0047571957, -0.29778633, -0.464991, -0.16979313, 0
401, 3352695507, 0.74495757, 0.021767229, -0.66674525, 0.004685864, -0.38660365, -0.554734, -0.21057606, 0
402, 3352712174, 0.74494505, 0.021809295, -0.6667585, 0.0046028346, -0.09035824, -0.37304804, 1.1397486, 0
403, 3352728841, 0.7450031, 0.021910414, -0.66669136, 0.0044289827, -0.48442274, -0.32785147, 0.023798943, 0
404, 3352745508, 0.74508977, 0.02207686, -0.6665901, 0.0042880177, 0.08485491, -0.3515755, 0.10243988, 0
405, 3352762175, 0.745132, 0.022177428, -0.66654056, 0.00413388, -0.01953101, -0.27677777, -0.2747364, 0
406, 3352778842, 0.7451676, 0.022272408, -0.66649854, 0.003959492, 0.10398627, -0.11174374, -0.1605072, 0
407, 3352795509, 0.74516904, 0.02241075, -0.666493, 0.0038552582, 0.22119871, -0.0634969, -0.026919365, 0
408, 3352812176, 0.7451787, 0.022575125, -0.6664767, 0.0038226396, 0.20821798, -0.020651134, 0.13672638, 0
409, 3352828843, 0.7452159, 0.022677347, -0.6664321, 0.0037296116, 0.30011755, 0.0069200727, 0.22236538, 0
410, 3352845510, 0.7452559, 0.022747308, -0.6663857, 0.0036178827, 0.24018031, 0.02337074, -0.015068054, 0
411, 3352862177, 0.7452964, 0.02285251, -0.666337, 0.0035745353, 0.33279425, 0.079230204, -0.060069084, 0
412, 3352878844, 0.74532527, 0.022926733, -0.6663023, 0.0035618395, 0.31024447, -0.070359305, -0.09750843, 0
413, 3352895511, 0.7453422, 0.022951514, -0.6662822, 0.0036257803, 0.26388073, -0.10062441, -0.16317654, 0
414, 3352912178, 0.7453353, 0.022961318, -0.66628885, 0.003762871, 0.021302573, -0.09320535, -3.1471252E-5, 0
415, 3352928845, 0.74534917, 0.02297829, -0.66627204, 0.0038846433, -0.2555236, -0.07466048, 0.13655376, 0
416, 3352945512, 0.745368, 0.02303499, -0.66624796, 0.004016921, -0.42122626, -0.21723771, 0.15202427, 0
417, 3352962179, 0.74539024, 0.023181051, -0.66621614, 0.0043408126, -0.3888303, -0.43885943, 0.0629673, 0
418, 3352978846, 0.74540895, 0.023002908, -0.6662002, 0.0045282245, -0.31984615, -0.47760504, 0.067502975, 0
419, 3352995513, 0.74542445, 0.022824422, -0.6661864, 0.004875928, -0.40980205, -0.34714702, 0.17048931, 0
420, 3353012180, 0.74545866, 0.022670984, -0.66615003, 0.005329296, -0.51077133, -0.3283335, 0.14264965, 0
421, 3353028847, 0.7454918, 0.022304773, -0.66612303, 0.0055954754, -0.5261693, -0.419553, 0.13954163, 0
422, 3353045514, 0.7455219, 0.021992609, -0.6660965, 0.0059738457, -0.5069484, -0.47232455, 0.05957508, 0
423, 3353062181, 0.7455612, 0.021693096, -0.6660589, 0.0063563734, -0.5100311, -0.3943533, 0.14862728, 0
424, 3353078848, 0.74559176, 0.021423832, -0.6660297, 0.0067299157, -0.43110374, -0.40167803, 0.0844717, 0
425, 3353095515, 0.74561495, 0.02117522, -0.666008, 0.0070875436, -0.33705708, -0.5320602, 0.052293777, 0
426, 3353112182, 0.74563986, 0.020899177, -0.6659848, 0.0074431, -0.27131343, -0.5725432, 0.014383316, 0
427, 3353128849, 0.74565285, 0.020599455, -0.6659755, 0.0077954084, -0.31824535, -0.5144814, 0.029767036, 0
428, 3353145516, 0.7456728, 0.020321175, -0.6659574, 0.008149713, -0.4211306, -0.4564871, 0.16012287, 0
429, 3353162183, 0.74571157, 0.020050138, -0.66591805, 0.008494079, -0.42561337, -0.46220893, 0.13589478, 0
430, 3353178850, 0.7457302, 0.019766346, -0.6659013, 0.008824199, -0.4000882, -0.4632754, 0.14801216, 0
431, 3353195517, 0.74575853, 0.019494146, -0.6658734, 0.009127155, -0.41498086, -0.3889882, 0.13001919, 0
432, 3353212184, 0.74579114, 0.019275859, -0.6658398, 0.009399921, -0.41078642, -0.31295222, 0.054833412, 0
433, 3353228851, 0.7458247, 0.019082993, -0.665804, 0.0096550435, -0.2781702, -0.48308262, 0.027612686, 0
434, 3353245518, 0.74585223, 0.018852487, -0.6657759, 0.009918928, -0.22936453, -0.53795034, 0.06397343, 0
435, 3353262185, 0.74587685, 0.018611684, -0.6657508, 0.010194853, -0.30330038, -0.3692406, 0.1278801, 0
436, 3353278852, 0.74589664, 0.018404812, -0.6657304, 0.010452107, -0.3411429, -0.28680992, 0.061566353, 0
437, 3353295519, 0.7459235, 0.018233314, -0.6657017, 0.010670066, -0.25853297, -0.40504146, 0.16242123, 0
438, 3353312186, 0.74595076, 0.01803355, -0.66567343, 0.010862708, -0.20914644, -0.5475333, 0.09263992, 0
439, 3353328853, 0.74598247, 0.017828956, -0.66564035, 0.011054128, -0.25027505, -0.47390056, 0.06677818, 0
440, 3353345520, 0.74600935, 0.017679438, -0.6656114, 0.011217147, -0.28003445, -0.36335573, 0.008781433, 0
441, 3353362187, 0.7460287, 0.017589077, -0.66559, 0.011339396, -0.27036172, -0.38747883, 0.11282253, 0
442, 3353378854, 0.74605805, 0.017526105, -0.66555756, 0.011405423, -0.26216638, -0.465016, 0.13836002, 0
443, 3353395521, 0.7460941, 0.017454162, -0.66551834, 0.011446744, -0.27957895, -0.47145543, 0.031028748, 0
444, 3353412188, 0.74611574, 0.01740861, -0.66549444, 0.011492401, -0.35754248, -0.4240937, 0.07223034, 0
445, 3353428855, 0.7461375, 0.017381638, -0.6654701, 0.011533767, -0.34389526, -0.42997935, 0.12198639, 0
446, 3353445522, 0.7461621, 0.017357945, -0.6654428, 0.011549577, -0.26286852, -0.3639252, 0.23815346, 0
447, 3353462189, 0.74620396, 0.017334267, -0.6653963, 0.011561707, -0.22300558, -0.29249576, 0.17377567, 0
448, 3353478856, 0.746246, 0.017323464, -0.6653494, 0.011558175, -0.14791775, -0.24960776, 0.023676872, 0
449, 3353495523, 0.7462736, 0.017304704, -0.665319, 0.01155816, -0.102725215, -0.28736657, -0.13497162, 0
450, 3353512190, 0.74628574, 0.01725462, -0.6653065, 0.011569902, -0.094340794, -0.30005363, -0.069000244, 0
451, 3353528857, 0.74630153, 0.017171264, -0.6652903, 0.0116125345, -0.1342763, -0.22768225, 0.12632847, 0
452, 3353545524, 0.74633557, 0.01711905, -0.66525245, 0.011672109, -0.17567985, -0.16653168, 0.21822453, 0
453, 3353562191, 0.74637455, 0.017080158, -0.66520864, 0.01173, -0.074659586, -0.20851132, 0.15077877, 0
454, 3353578858, 0.7464159, 0.01699996, -0.6651629, 0.011801362, -0.0136709465, -0.2624279, -0.04405594, 0
455, 3353595525, 0.74644566, 0.016878754, -0.66513145, 0.011873946, 0.021694167, -0.2564801, -0.03847027, 0
456, 3353612192, 0.7464688, 0.016770959, -0.66510653, 0.011963144, -0.020041512, -0.25324756, 0.107824326, 0
457, 3353628859, 0.7465052, 0.016670063, -0.665066, 0.01207675, -0.07842265, -0.25764248, 0.09728813, 0
458, 3353645526, 0.7465513, 0.016522974, -0.6650169, 0.012145206, -0.07956047, -0.20269117, -0.0054626465, 0
459, 3353662193, 0.74657935, 0.016394362, -0.66498643, 0.012265354, -0.10333093, -0.17531027, -0.032813072, 0
460, 3353678860, 0.74659973, 0.016348973, -0.664961, 0.012458146, -0.13977115, -0.21893854, 0.012529373, 0
461, 3353695527, 0.7466197, 0.016323566, -0.6649351, 0.012677059, -0.15342331, -0.30587524, 0.05783081, 0
462, 3353712194, 0.74663615, 0.01628317, -0.6649138, 0.012879178, -0.21685897, -0.32695776, 0.19640541, 0
463, 3353728861, 0.74666524, 0.01613836, -0.664883, 0.012966782, -0.21345174, -0.32882398, 0.27648258, 0
464, 3353745528, 0.7467052, 0.016057149, -0.6648367, 0.013134688, -0.20419517, -0.27483454, 0.12921238, 0
465, 3353762195, 0.74674416, 0.015951857, -0.6647926, 0.013276905, -0.19324528, -0.20748417, -0.047794342, 0
466, 3353778862, 0.74677545, 0.01585649, -0.66475695, 0.013415962, -0.186349, -0.25124162, -0.13020611, 0
467, 3353795529, 0.74678326, 0.015773177, -0.6647465, 0.013593107, -0.20759258, -0.34064537, -0.06622791, 0
468, 3353812196, 0.7467886, 0.015533134, -0.66474545, 0.0136280805, -0.18814427, -0.41784438, 0.09334278, 0
469, 3353828863, 0.7467976, 0.015456483, -0.66473186, 0.013882935, -0.22072262, -0.39705142, 0.2122593, 0
470, 3353845530, 0.7468256, 0.015289605, -0.66470075, 0.014061779, -0.21614015, -0.36813837, 0.17529202, 0
471, 3353862197, 0.7468395, 0.015139222, -0.6646837, 0.014278188, -0.21230558, -0.37477502, -0.008105278, 0
472, 3353878864, 0.7468424, 0.014948517, -0.6646817, 0.014428258, -0.2608025, -0.17906797, -0.030993462, 0
473, 3353895531, 0.74684525, 0.014876589, -0.6646761, 0.014613703, -0.27820882, -0.12787433, 0.060113907, 0
474, 3353912198, 0.74687225, 0.014772043, -0.6646452, 0.014732957, -0.18478307, -0.24198943, 0.22130013, 0
475, 3353928865, 0.7469096, 0.014652923, -0.6646017, 0.014923096, -0.048152737, -0.34425947, 0.2626257, 0
476, 3353945532, 0.7469681, 0.014426768, -0.66453654, 0.015118673, 0.06321841, -0.31550843, 0.119838715, 0
477, 3353962199, 0.74700224, 0.01412034, -0.6644996, 0.015343189, 0.10430322, -0.19748084, -0.025680542, 0
478, 3353978866, 0.7470321, 0.013743266, -0.6644692, 0.015545398, 0.12946542, -0.11697987, -0.08022499, 0
479, 3353995533, 0.7470585, 0.013479874, -0.66443646, 0.015893787, 0.1089268, 0.032170556, -0.078196526, 0
480, 3354012200, 0.7470814, 0.013188973, -0.66441095, 0.016131893, 0.026235057, 0.06818419, -0.12047672, 0
481, 3354028867, 0.7470913, 0.012965515, -0.664399, 0.016351745, 0.034214918, -0.12816791, 0.03145504, 0
482, 3354045534, 0.74710155, 0.012740895, -0.6643862, 0.016578421, 0.07491081, -0.4002928, 0.1578474, 0
483, 3354062201, 0.7471143, 0.012592301, -0.66436493, 0.016964063, 0.029374545, -0.5291281, 0.15938091, 0
484, 3354078868, 0.7471389, 0.012311727, -0.66433686, 0.01718615, -0.09441813, -0.44979972, 0.082839966, 0
485, 3354095535, 0.7471537, 0.012205243, -0.6643146, 0.0174727, -0.25140113, -0.38272974, 0.1312666, 0
486, 3354112202, 0.74717677, 0.012132704, -0.6642864, 0.01760818, -0.5143851, -0.45338657, -0.43174267, 0
487, 3354128869, 0.7471608, 0.012071773, -0.6643056, 0.017604023, -0.19754522, -0.5741406, 0.5207443, 0
488, 3354145536, 0.74717474, 0.011932403, -0.66429746, 0.017411739, -0.33957878, -0.42754945, 0.39287376, 0
489, 3354162203, 0.7472255, 0.011975303, -0.66424555, 0.017182216, -0.3700932, -0.36389172, -0.12371826, 0
490, 3354178870, 0.7472521, 0.012182012, -0.6642164, 0.017008021, 0.025352627, -0.6271144, 0.045531273, 0
491, 3354195537, 0.7472714, 0.012334198, -0.6641973, 0.016797677, -0.06600606, -0.7657122, -0.033216476, 0
492, 3354212204, 0.74729717, 0.012532413, -0.66416985, 0.01658754, 0.031067854, -0.38883823, 0.14601803, 0
493, 3354228871, 0.7472991, 0.012877241, -0.6641658, 0.016397968, -0.10778912, -0.057562523, 0.004831314, 0
494, 3354245538, 0.74732715, 0.013179332, -0.6641382, 0.015992135, -0.020282013, 0.008020874, 0.05531597, 0
495, 3354262205, 0.747335, 0.013606802, -0.6641293, 0.015635833, 0.11556893, -0.01948022, 0.08627701, 0
496, 3354278872, 0.747347, 0.014073014, -0.66411394, 0.015290409, 0.18803921, -0.0215861, 0.079945564, 0
497, 3354295539, 0.74738777, 0.014462769, -0.66407007, 0.014836058, 0.26178867, -0.022151923, 0.11361599, 0
498, 3354312206, 0.74742854, 0.014975086, -0.66401875, 0.014574185, 0.29538935, -0.047404304, -0.050870895, 0
499, 3354328873, 0.7474562, 0.015275374, -0.66398793, 0.014247596, 0.34792608, -0.051188268, -0.09740448, 0
500, 3354345540, 0.74748164, 0.0155207515, -0.66395813, 0.0140248835, 0.24684457, 0.008713429, -0.05686474, 0
501, 3354362207, 0.7474917, 0.015834033, -0.663941, 0.0139505565, 0.13352843, 0.016871205, -0.1130476, 0
502, 3354378874, 0.7474948, 0.015989184, -0.6639378, 0.013761222, 0.08286251, -0.16697301, -0.036715508, 0
503, 3354395541, 0.7474865, 0.016081557, -0.6639482, 0.013608396, -0.04659932, -0.26805887, 0.10575771, 0
504, 3354412208, 0.74750316, 0.016193718, -0.6639266, 0.013596281, -0.15313856, -0.28070578, 0.24866676, 0
505, 3354428875, 0.74752474, 0.016208693, -0.6639043, 0.013482034, -0.2774064, -0.26848197, 0.061527252, 0
506, 3354445542, 0.7475332, 0.016406044, -0.66388893, 0.01353848, -0.37456033, -0.3356644, -0.08507061, 0
507, 3354462209, 0.74754196, 0.016559094, -0.663877, 0.013456121, -0.46719572, -0.4000016, 0.13820267, 0
508, 3354478876, 0.7475638, 0.01681298, -0.6638462, 0.013441369, -0.4982882, -0.52789664, 0.4079647, 0
509, 3354495543, 0.747602, 0.016974851, -0.6638023, 0.013283879, -0.5348526, -0.54292536, 0.23078632, 0
510, 3354512210, 0.74763596, 0.0171908, -0.66376203, 0.0130984485, -0.51978475, -0.40082914, 0.024847984, 0
511, 3354528877, 0.74766266, 0.017375648, -0.6637318, 0.012870505, -0.401803, -0.40042323, -0.0195055, 0
512, 3354545544, 0.7476651, 0.017601192, -0.6637247, 0.012778595, -0.28310552, -0.4070798, 0.05099392, 0
513, 3354562211, 0.74768054, 0.017755836, -0.66370434, 0.01271452, -0.31875673, -0.23760724, 0.025375366, 0
514, 3354578878, 0.74768806, 0.017891318, -0.66369194, 0.012737781, -0.3211367, -0.20291881, -0.03759384, 0
515, 3354595545, 0.7476845, 0.017776087, -0.6637016, 0.012608692, -0.25517714, -0.37333202, 0.033061028, 0
516, 3354612212, 0.74768066, 0.017701805, -0.6637068, 0.012667969, -0.31772724, -0.39846617, 0.095231056, 0
517, 3354628879, 0.7476818, 0.017560452, -0.6637071, 0.01278013, -0.31239602, -0.3151555, 0.2733307, 0
518, 3354645546, 0.74770045, 0.01740934, -0.6636869, 0.012938321, -0.36432567, -0.239643, 0.23062325, 0
519, 3354662213, 0.7477339, 0.017306104, -0.66364694, 0.013196006, -0.3729327, -0.25795072, 0.037734985, 0
520, 3354678880, 0.74775934, 0.01708965, -0.6636199, 0.013403192, -0.30214903, -0.28968927, -0.003622055, 0
521, 3354695547, 0.74775946, 0.01680781, -0.66362214, 0.013634801, -0.30100623, -0.44428083, 0.12675285, 0
522, 3354712214, 0.7477604, 0.01669468, -0.663613, 0.014141291, -0.38039088, -0.4125221, 0.14341354, 0
523, 3354728881, 0.7477602, 0.016279176, -0.6636194, 0.0143446475, -0.51588756, -0.22759889, 0.067964554, 0
524, 3354745548, 0.7477719, 0.016009927, -0.6636051, 0.014694199, -0.43526107, -0.048945874, 0.28718185, 0
525, 3354762215, 0.74780226, 0.015671924, -0.66357225, 0.01499857, -0.2610059, -0.20116065, 0.16116905, 0
526, 3354778882, 0.74782807, 0.015341073, -0.6635391, 0.015514776, -0.017967312, -0.36050004, 0.05165863, 0
527, 3354795549, 0.7478461, 0.014809862, -0.66351855, 0.01602441, 0.01913271, -0.32850337, -0.032725334, 0
528, 3354812216, 0.7478619, 0.014226839, -0.66349846, 0.016639411, -0.03213893, -0.14584936, 0.065050125, 0
529, 3354828883, 0.74788725, 0.013542429, -0.6634694, 0.017219022, -0.11203945, 0.041736238, 0.011413574, 0
530, 3354845550, 0.74791414, 0.012861937, -0.6634374, 0.017801628, -0.0786028, 0.11496065, -0.025605202, 0
531, 3354862217, 0.74794877, 0.012127921, -0.6633964, 0.018367633, 0.111595996, 4.8055284E-4, -0.032149315, 0
532, 3354878884, 0.7479572, 0.011605814, -0.66337025, 0.01928632, 0.23635288, -0.14183763, 0.009451866, 0
533, 3354895551, 0.747969, 0.010891229, -0.663344, 0.020129725, 0.2125865, -0.22097445, 0.13747597, 0
534, 3354912218, 0.747989, 0.010051012, -0.66331005, 0.020932212, 0.06341867, -0.084162794, 0.100131035, 0
535, 3354928885, 0.74798304, 0.00934051, -0.66329676, 0.021873504, -0.16275096, 0.02988346, 0.051581383, 0
536, 3354945552, 0.7479841, 0.008650541, -0.66327673, 0.02271007, -0.28464508, -0.11650725, 0.0070705414, 0
537, 3354962219, 0.7479995, 0.007936865, -0.66324043, 0.023510203, -0.23960052, -0.31051615, 0.040304184, 0
538, 3354978886, 0.74799716, 0.007212013, -0.6632203, 0.02437152, -0.21082994, -0.31734258, 0.15334606, 0
539, 3354995553, 0.7480041, 0.0064992905, -0.66318566, 0.02528669, -0.14044258, -0.30115935, 0.25893497, 0
540, 3355012220, 0.7480185, 0.0056840032, -0.6631438, 0.026135594, -0.16676839, -0.317818, 0.15836525, 0
541, 3355028887, 0.7480405, 0.004851505, -0.6630899, 0.027025655, -0.20978345, -0.3299866, 0.006709099, 0
542, 3355045554, 0.7480493, 0.0040569752, -0.6630477, 0.027934149, -0.22661978, -0.24237923, 0.014852524, 0
543, 3355062221, 0.7480642, 0.0033103526, -0.66299665, 0.028831497, -0.21824074, -0.31626323, 0.14226532, 0
544, 3355078888, 0.7480929, 0.002590701, -0.66293144, 0.02964975, -0.13150877, -0.34361652, 0.25149727, 0
545, 3355095555, 0.7481128, 0.0019335747, -0.66287696, 0.03040059, -0.08153085, -0.43227187, 0.026141167, 0
546, 3355112222, 0.7481153, 0.0014203638, -0.6628392, 0.031185254, 0.0025145207, -0.5003309, -0.020812035, 0
547, 3355128889, 0.7481298, 8.844286E-4, -0.662791, 0.031875864, 0.05318178, -0.44278845, -0.039782524, 0
548, 3355145556, 0.74814755, 3.1541288E-4, -0.6627423, 0.032472074, 0.021891752, -0.3386778, 0.08379173, 0
549, 3355162223, 0.7481828, -1.975447E-4, -0.6626751, 0.033029243, 0.061332848, -0.12602812, 0.20571804, 0
550, 3355178890, 0.74821246, -6.7040324E-4, -0.66262174, 0.033421338, 0.20139992, -0.13943498, 0.03844261, 0
551, 3355195557, 0.7482294, -9.043515E-4, -0.6625782, 0.03389445, 0.40914002, -0.36175355, -0.03460121, 0
552, 3355212224, 0.7482515, -0.0012256056, -0.6625394, 0.03415309, 0.6374013, -0.45025885, -0.054522514, 0
553, 3355228891, 0.7482782, -0.0014365762, -0.6624947, 0.034424365, 0.5780724, -0.24129537, -0.021360397, 0
554, 3355245558, 0.7483255, -0.0016985238, -0.6624418, 0.034405395, 0.54928535, 0.14442524, 0.03644371, 0
555, 3355262225, 0.7483617, -0.0017680675, -0.66239846, 0.0344456, 0.57710063, 0.10897631, -0.023404121, 0
556, 3355278892, 0.7484033, -0.0018724799, -0.66235065, 0.034456402, 0.62907004, 0.17780702, -0.03420067, 0
557, 3355295559, 0.7484452, -0.002054602, -0.6623049, 0.03441924, 0.6121898, 0.18691903, 0.031071663, 0
558, 3355312226, 0.7484988, -0.002158165, -0.66223913, 0.03451091, 0.60108757, 0.3492828, 0.2989502, 0
559, 3355328893, 0.74858516, -0.00231117, -0.6621336, 0.0346549, 0.58331203, 0.338081, 0.27816296, 0
560, 3355345560, 0.7486916, -0.0026489347, -0.66200155, 0.034853056, 0.7144154, 0.45193538, -0.15296078, 0
561, 3355362227, 0.74876785, -0.0031563789, -0.6618951, 0.035195112, 0.8364038, 0.4120241, -0.5611248, 0
562, 3355378894, 0.7487952, -0.003810227, -0.6618293, 0.03578016, 0.8823679, 0.4571687, -0.46620274, 0
563, 3355395561, 0.7488447, -0.0045847595, -0.6617293, 0.03649339, 1.2513176, 0.39830127, 0.28585148, 0
564, 3355412228, 0.74897504, -0.005286485, -0.661545, 0.03706141, 1.5861588, 0.68984544, 0.22584629, 0
565, 3355428895, 0.7490773, -0.0055463165, -0.6614065, 0.037427083, 1.6019353, 0.87070465, -0.72661495, 0
566, 3355445562, 0.7490966, -0.0056756735, -0.66136694, 0.037721366, 2.2494183, 0.32114258, 0.41615105, 0
567, 3355462229, 0.7491213, -0.006075993, -0.6613071, 0.038212106, 1.7133493, 0.24994174, -0.47625446, 0
568, 3355478896, 0.74917924, -0.006467432, -0.66121346, 0.03863156, 1.1302943, 1.2170055, -0.6711397, 0
569, 3355495563, 0.74921423, -0.0065473914, -0.661158, 0.038883314, 1.3335936, 1.0264173, 0.4809618, 0
570, 3355512230, 0.7492642, -0.0064146817, -0.66109437, 0.039024666, 1.3199575, -0.020029135, 0.11684704, 0
571, 3355528897, 0.7494113, -0.0062782317, -0.66092587, 0.039080128, 1.4975725, -0.47827324, 0.03366661, 0
572, 3355545564, 0.74955034, -0.006367862, -0.66076404, 0.039132863, 1.8120685, -0.08991049, -0.19304943, 0
573, 3355562231, 0.7496145, -0.0065304786, -0.6606857, 0.03920044, 1.5434164, 1.1875762, -0.33454514, 0
574, 3355578898, 0.7496639, -0.006390184, -0.66063184, 0.03918627, 1.2099601, 1.3548949, -0.5804968, 0
575, 3355595565, 0.74971414, -0.0061585903, -0.66058016, 0.039133355, 2.6411612, 0.55039996, -1.115551, 0
576, 3355612232, 0.74963176, -0.0060400367, -0.6606769, 0.039097622, 2.83953, 0.75365305, -0.28040886, 0
577, 3355628899, 0.7495612, -0.005841464, -0.6607647, 0.038998812, 1.8424956, 1.3604412, -0.22877502, 0
578, 3355645566, 0.749586, -0.005476147, -0.66074836, 0.038850337, 1.6732117, 0.9099803, 0.9152765, 0
579, 3355662233, 0.74965525, -0.0051965266, -0.66067517, 0.038795173, 1.8623592, 0.451683, -0.5291109, 0
580, 3355678900, 0.7496597, -0.004962787, -0.66067433, 0.03875488, 1.1833267, 0.54400957, -1.5835629, 0
581, 3355695567, 0.7497176, -0.0045844167, -0.66061723, 0.038655594, 0.9393087, 1.085924, 0.14045715, 0
582, 3355712234, 0.7498237, -0.0039185584, -0.6605136, 0.038440734, 0.7281548, 1.0077062, 0.27099228, 0
583, 3355728901, 0.7498435, -0.0032102317, -0.6605136, 0.038119137, 1.1335933, 0.09687694, -0.23845577, 0
584, 3355745568, 0.74959534, -0.0027198642, -0.6608077, 0.03794062, 3.576353, -0.6896999, -1.0195637, 0
585, 3355762235, 0.74947923, -0.002194792, -0.66094863, 0.03781338, 2.362684, 1.7598308, 2.3193264, 0
586, 3355778902, 0.7495758, -0.0012077093, -0.6608611, 0.037473053, 1.8699784, 2.1119204, -1.4473934, 0
587, 3355795569, 0.74955714, -4.9114227E-5, -0.6609122, 0.036962286, 2.2130737, 1.0075707, -1.138174, 0
588, 3355812236, 0.74959844, 9.908974E-4, -0.66089404, 0.036428854, 2.8255138, 0.8641301, 0.36066628, 0
589, 3355828903, 0.74967635, 0.00211367, -0.6608319, 0.035902426, 3.3363338, 1.4386895, 0.33236694, 0
590, 3355845570, 0.74966455, 0.0034136772, -0.66086686, 0.035401255, 3.0840766, 1.4887938, -1.226798, 0
591, 3355862237, 0.7496635, 0.004710838, -0.6608912, 0.034814373, 3.2691195, 1.5599723, -0.951807, 0
592, 3355878904, 0.749631, 0.0059428364, -0.6609524, 0.034156516, 3.8750222, 1.6530405, 0.0382452, 0
593, 3355895571, 0.7495893, 0.0073577464, -0.6610231, 0.033420667, 3.3074417, 1.7132934, -0.43313026, 0
594, 3355912238, 0.7497259, 0.00907971, -0.66088885, 0.03257905, 3.2055109, 1.4975669, 0.05070877, 0
595, 3355928905, 0.74990225, 0.010836154, -0.6607083, 0.031632364, 3.3795292, 1.2807505, -0.6746216, 0
596, 3355945572, 0.7500024, 0.012527034, -0.66061443, 0.03057672, 3.514793, 1.7688568, -0.6024189, 0
597, 3355962239, 0.7500091, 0.014361545, -0.6606216, 0.02943112, 3.264316, 1.7632825, -0.8564625, 0
598, 3355978906, 0.74995697, 0.016311571, -0.6606877, 0.028232396, 3.1004188, 1.2345597, -0.9591675, 0
599, 3355995573, 0.7499238, 0.0182828, -0.66072494, 0.027007252, 2.8841522, 0.68866575, -0.25333977, 0
600, 3356012240, 0.7499196, 0.02025202, -0.6607261, 0.025654241, 2.476897, 0.59944844, -0.30904293, 0
601, 3356028907, 0.7497712, 0.022299036, -0.66088563, 0.024143293, 2.3246517, 0.5573239, -2.3129501, 0
602, 3356045574, 0.74943703, 0.02458717, -0.66124296, 0.022457182, 2.7120786, 0.65031135, -1.937983, 0
603, 3356062241, 0.74887246, 0.027084976, -0.6618449, 0.020604447, 2.717586, -0.07651385, -2.957498, 0
604, 3356078908, 0.7481552, 0.02945815, -0.662613, 0.01863183, 1.8184757, -0.83676493, -2.1904597, 0
605, 3356095575, 0.7472368, 0.031800553, -0.6635977, 0.016453966, 0.17639464, 0.4107066, -0.4123869, 0
606, 3356112242, 0.74636465, 0.03420651, -0.6645187, 0.013831511, -0.6280066, -0.24018691, 3.9821138, 0
607, 3356128909, 0.74587333, 0.035799637, -0.6650318, 0.01143752, 0.15611354, -3.323854, 5.0655327, 0
608, 3356145576, 0.74577093, 0.03651488, -0.6651374, 0.009553, -0.9154362, -2.5815446, 1.7093372, 0
609, 3356162243, 0.74565095, 0.036815554, -0.6652755, 0.008027181, -0.13291332, -0.83304244, -0.80638313, 0
610, 3356178910, 0.7453832, 0.036673054, -0.6655995, 0.0065532476, -0.18318094, -0.97853255, -0.33650684, 0
611, 3356195577, 0.7452182, 0.035853535, -0.6658427, 0.004972413, -0.19377947, -1.2619101, 0.7245741, 0
612, 3356212244, 0.7452435, 0.03439085, -0.66590077, 0.0035069883, -0.5001102, -2.0376604, 0.8705044, 0
613, 3356228911, 0.7454622, 0.03226629, -0.6657672, 0.0024008602, -0.39236045, -2.5138772, 1.3568182, 0
614, 3356245578, 0.74566096, 0.029356495, -0.6656816, 0.0016475469, -0.4026957, -2.3855746, 0.8302622, 0
615, 3356262245, 0.7458987, 0.025897995, -0.66555995, 9.904802E-4, -1.755152, -1.9731523, 0.6782017, 0
616, 3356278912, 0.746298, 0.022306949, -0.665243, 1.9313395E-4, -2.0063922, -1.8927158, 1.0487738, 0
617, 3356295579, 0.74663377, 0.018736705, -0.6649762, -7.0914626E-4, -2.2574573, -2.0632882, -0.5732298, 0
618, 3356312246, 0.7469037, 0.015038565, -0.66476524, -0.0016713887, -0.9505778, -2.5025222, -0.8103075, 0
619, 3356328913, 0.74718815, 0.011173695, -0.66451865, -0.0025933683, -1.0509249, -2.6820633, -0.11241722, 0
620, 3356345580, 0.7472912, 0.007320419, -0.66445196, -0.0035610348, -1.446013, -1.4252794, 0.19538498, 0
621, 3356362247, 0.7474575, 0.0038169175, -0.66428685, -0.0047357827, -1.700285, -0.8833795, 1.8521795, 0
622, 3356378914, 0.7475833, 5.493164E-4, -0.66414565, -0.0060154498, -1.5423051, -1.3899487, -0.36371994, 0
623, 3356395581, 0.74779755, -0.0025593787, -0.6638862, -0.0073592365, -1.5548457, -1.2111671, -0.23013115, 0
624, 3356412248, 0.74793196, -0.0053533316, -0.6637017, -0.008709386, -0.8364606, -0.6574807, -0.25261688, 0
625, 3356428915, 0.7479251, -0.0078458935, -0.66366714, -0.009956032, -1.4788426, -0.2475206, 0.21167564, 0
626, 3356445582, 0.7480102, -0.010350436, -0.66351956, -0.01105836, -1.3923833, 0.04464146, -0.060081482, 0
627, 3356462249, 0.7480988, -0.012955934, -0.66335887, -0.011926785, -1.2143687, 0.5468057, 0.4688015, 0
628, 3356478916, 0.7481892, -0.015410662, -0.66319406, -0.012483925, -1.2295767, 1.1138523, -0.5339012, 0
629, 3356495583, 0.74823064, -0.017612837, -0.6630851, -0.012875661, -0.99667156, 0.6503403, -0.3948307, 0
630, 3356512250, 0.74831426, -0.019704953, -0.66292715, -0.013113514, -0.99655396, 0.55600125, 0.47708416, 0
631, 3356528917, 0.7483279, -0.022005029, -0.66284025, -0.013061389, -0.32811388, -0.37516096, 0.35753536, 0
632, 3356545584, 0.7483534, -0.02454222, -0.6627327, -0.012531042, -1.1919869, 0.39264646, 0.7602396, 0
633, 3356562251, 0.74845356, -0.026947252, -0.66254014, -0.011767715, -0.8348718, 1.3393203, -0.68200016, 0
634, 3356578918, 0.74859333, -0.028819397, -0.662317, -0.010974407, -0.11772875, 1.2274922, 0.22244358, 0
635, 3356595585, 0.7486742, -0.030389585, -0.6621682, -0.010177717, 0.3633002, 0.1902958, -1.0745287, 0
636, 3356612252, 0.74872905, -0.03202048, -0.6620404, -0.009434417, 0.05806643, 0.54948163, 1.0544767, 0
637, 3356628919, 0.74877495, -0.033356808, -0.6619332, -0.008641124, -0.22474809, 1.1069036, 0.13286114, 0
638, 3356645586, 0.7488645, -0.034146428, -0.66180336, -0.0076974332, -0.16507505, 1.5515218, 0.20571041, 0
639, 3356662253, 0.7489942, -0.034696855, -0.66163987, -0.006572902, 0.35184157, 0.7908675, -0.4619999, 0
640, 3356678920, 0.7491225, -0.03531885, -0.66147256, -0.0053828806, 0.75910544, 0.9490293, -0.38940048, 0
641, 3356695587, 0.7491538, -0.035823315, -0.66141874, -0.0041690916, 0.8544194, 1.8469702, -0.579504, 0
642, 3356712254, 0.7491681, -0.03587734, -0.66140604, -0.0030000955, 0.576186, 1.6104198, -0.11355877, 0
643, 3356728921, 0.7492539, -0.03566771, -0.66132486, -0.0016726255, 0.7970414, 0.8372701, 0.5601721, 0
644, 3356745588, 0.7493206, -0.035624944, -0.66125345, -1.783073E-4, 1.1093118, 0.95151275, 0.2694769, 0
645, 3356762255, 0.74937296, -0.03580354, -0.6611829, 0.001495406, 0.740464, 1.2950364, -0.011800766, 0
646, 3356778922, 0.7494974, -0.035691857, -0.66104114, 0.0033048987, 0.66055363, 2.0228503, -1.0562859, 0
647, 3356795589, 0.74956733, -0.03524463, -0.66097426, 0.005146578, 1.4222147, 1.5640073, -0.13825607, 0
648, 3356812256, 0.74957263, -0.03483034, -0.66097236, 0.0070717633, 1.2267907, 0.83721197, -0.073675156, 0
649, 3356828923, 0.7495489, -0.03455597, -0.6609899, 0.00903748, 0.57105726, 1.690922, 0.25576496, 0
650, 3356845590, 0.7495801, -0.03425976, -0.66094154, 0.010909766, -0.112696126, 0.9586001, 1.1182165, 0
651, 3356862257, 0.74967074, -0.033696845, -0.66082996, 0.012994319, 0.5752343, 0.333041, -0.36040115, 0
652, 3356878924, 0.7497555, -0.033115685, -0.6607164, 0.015190631, 0.9728714, 0.15470824, 0.23110867, 0
653, 3356895591, 0.74982566, -0.03269113, -0.66060185, 0.017455682, 1.4271166, 1.2689822, -1.1938381, 0
654, 3356912258, 0.7497975, -0.032179564, -0.66059643, 0.019683763, 1.0060636, 2.1493316, 0.3077221, 0
655, 3356928925, 0.7496698, -0.031360313, -0.6607129, 0.021841869, 1.0803932, 3.2628646, 0.3384838, 0
656, 3356945592, 0.74951154, -0.03034468, -0.6608666, 0.023955077, 0.9889496, 1.4776785, -0.4900427, 0
657, 3356962259, 0.74945813, -0.029408522, -0.66088855, 0.026093587, 0.9803678, 0.42691967, 0.6125612, 0
658, 3356978926, 0.74948525, -0.028432444, -0.6608114, 0.028253496, 0.9727051, 1.1817968, 0.8504782, 0
659, 3356995593, 0.7494718, -0.027380466, -0.6607746, 0.030430794, 2.425327, 1.4792581, -0.6875124, 0
660, 3357012260, 0.7493894, -0.026128054, -0.66080546, 0.032799765, 3.0336876, 1.2850167, -2.089322, 0
661, 3357028927, 0.74932086, -0.024710327, -0.6608139, 0.035206884, 2.5093496, 2.5515308, -0.65652084, 0
662, 3357045594, 0.7492927, -0.023000725, -0.6607869, 0.037402928, 1.4919275, 3.389875, 0.2529726, 0
663, 3357062261, 0.7494321, -0.021100238, -0.660575, 0.039417505, 1.2079883, 1.2706264, 3.1166973, 0
664, 3357078928, 0.7497552, -0.019268923, -0.6601411, 0.04142797, 1.9590513, 0.8648468, 3.047678, 0
665, 3357095595, 0.750026, -0.0174153, -0.65976053, 0.043367058, 2.8708513, 0.0026623746, -0.3287382, 0
666, 3357112262, 0.7499818, -0.0153924525, -0.6597416, 0.045148224, 3.8772287, 0.85379493, -4.0174994, 0
667, 3357128929, 0.7497485, -0.012808278, -0.65997547, 0.046392635, 4.1118574, 2.9598632, -1.8459511, 0
668, 3357145596, 0.7493702, -0.009236857, -0.66043514, 0.046810463, 1.8589119, 2.443815, -3.1669745, 0
669, 3357162263, 0.74918747, -0.005145386, -0.6606942, 0.0467093, 2.4665253, 1.1083329, 2.675355, 0
670, 3357178930, 0.7490041, -0.0012338758, -0.66094434, 0.046376303, 2.005276, 0.09279319, 1.683114, 0
671, 3357195597, 0.7488417, 0.0022770464, -0.66115695, 0.04592718, 0.749384, -0.6846538, 0.50997066, 0
672, 3357212264, 0.748704, 0.005606249, -0.6613262, 0.045444876, 1.0699196, 0.03240759, -2.3889756, 0
673, 3357228931, 0.74830043, 0.009087682, -0.6617963, 0.044680953, 1.510884, 0.64519346, -3.5590777, 0
674, 3357245598, 0.74794537, 0.012588188, -0.6622177, 0.04351589, 1.14749, -0.46439397, -0.6358042, 0
675, 3357262265, 0.7478353, 0.015852407, -0.66237855, 0.041862085, 0.5198737, -2.4433177, 0.6592493, 0
676, 3357278932, 0.74776226, 0.018630639, -0.66250277, 0.040021107, 0.87046045, -2.4326782, 4.4151525, 0
677, 3357295599, 0.7476324, 0.021222278, -0.66268283, 0.038126543, -1.4510949, -2.4024472, -1.925767, 0
678, 3357312266, 0.74768203, 0.023698583, -0.662652, 0.036181763, -1.438398, -2.4348962, -3.4212914, 0
679, 3357328933, 0.7476177, 0.025856152, -0.6627578, 0.034032375, 1.6189473, -1.2018106, -0.24052429, 0
680, 3357345600, 0.74713683, 0.027611837, -0.66334957, 0.03159824, 1.3221073, -1.2959095, -2.4643097, 0
681, 3357362267, 0.74662215, 0.029315531, -0.6639778, 0.028918669, 0.6713091, -1.0095605, -0.9549742, 0
682, 3357378934, 0.746135, 0.03122203, -0.6645552, 0.02609472, 1.1739358, -1.2897276, -0.3559866, 0
683, 3357395601, 0.74549985, 0.03308539, -0.66528213, 0.023275003, 0.91008174, -1.9375216, 0.6077509, 0
684, 3357412268, 0.7449416, 0.03489539, -0.6659018, 0.020639464, -0.2836594, -0.66504806, 0.6538286, 0
685, 3357428935, 0.7445149, 0.036977097, -0.66633695, 0.018225148, -1.5644481, 1.6354804, 0.52255917, 0
686, 3357445602, 0.7441877, 0.038963065, -0.6666455, 0.01603897, -1.3468913, 0.5438032, 2.0369902, 0
687, 3357462269, 0.7439623, 0.040144876, -0.6668685, 0.014204577, -1.1135103, -0.29949015, 2.5530748, 0
688, 3357478936, 0.74394524, 0.040736154, -0.66688055, 0.012776822, -0.97042173, -0.11090143, 2.537094, 0
689, 3357495603, 0.7441207, 0.041043505, -0.66668355, 0.011821121, -0.49160066, -0.53019476, 0.8355293, 0
690, 3357512270, 0.7442414, 0.041097745, -0.66655475, 0.011291578, -0.055888966, -0.8356047, -0.34566307, 0
691, 3357528937, 0.7443956, 0.040622577, -0.66641843, 0.01088199, -0.7472986, -1.2226067, -0.38290882, 0
692, 3357545604, 0.7446197, 0.039451554, -0.6662464, 0.010365143, -0.9829228, -1.3399303, 1.42519, 0
693, 3357562271, 0.7448068, 0.037963986, -0.6661312, 0.00988251, -1.7475718, -1.6351482, 0.77783585, 0
694, 3357578938, 0.745181, 0.036308542, -0.6658079, 0.009675071, -2.4094403, -2.2968714, 1.2459106, 0
695, 3357595605, 0.7456891, 0.034364954, -0.66534096, 0.009748399, -2.029219, -1.8514601, -0.17647934, 0
696, 3357612272, 0.74620706, 0.03237869, -0.6648586, 0.009822607, -2.2590342, -1.252119, 0.088069916, 0
697, 3357628939, 0.74666876, 0.030730203, -0.66441715, 0.009906948, -1.6171049, 0.2871394, -0.20577335, 0
698, 3357645606, 0.7468388, 0.029326826, -0.66428715, 0.010066673, -1.5978168, -0.41504478, -0.6971121, 0
699, 3357662273, 0.7469661, 0.027885929, -0.6642, 0.010451868, -2.0436828, -1.2168474, -0.5489569, 0
700, 3357678940, 0.74717724, 0.026307717, -0.66401696, 0.011071295, -1.7359014, -0.105869256, 1.1123638, 0
701, 3357695607, 0.74722755, 0.024926588, -0.66400176, 0.011752725, -1.3701112, 0.56985676, 0.2650919, 0
702, 3357712274, 0.7472265, 0.02378869, -0.6640297, 0.012567833, -1.1554985, -0.07425067, -0.539382, 0
703, 3357728941, 0.74727654, 0.022584528, -0.6639966, 0.013526231, -0.7157703, -0.06062286, 0.3840351, 0
704, 3357745608, 0.7473212, 0.021509692, -0.6639602, 0.014563724, -0.7767026, 0.41411754, -0.6115284, 0
705, 3357762275, 0.7473995, 0.020679638, -0.66387373, 0.015652135, -0.14870183, 0.9279991, 0.46309948, 0
706, 3357778942, 0.7474125, 0.019968718, -0.6638518, 0.016835824, 0.6673274, 1.3918976, -0.37984562, 0
707, 3357795609, 0.74738145, 0.019209027, -0.66387165, 0.018257111, 0.2320846, 1.0412911, -0.91233826, 0
708, 3357812276, 0.7473921, 0.018438116, -0.6638358, 0.019849151, 0.50478345, 1.2065816, -0.6266804, 0
709, 3357828943, 0.74738204, 0.0176844, -0.6638151, 0.021532342, 0.9080799, 0.6778337, 0.23617363, 0
710, 3357845610, 0.7474222, 0.016983762, -0.66373223, 0.023195714, 0.92816126, 0.72580034, 1.0648451, 0
711, 3357862277, 0.74751496, 0.01662609, -0.6635799, 0.024771944, 1.1384552, 1.1846665, -1.1227055, 0
712, 3357878944, 0.7475431, 0.01669906, -0.66348827, 0.026278213, 1.2878826, 0.9671509, -0.5482502, 0
713, 3357895611, 0.74751985, 0.016840875, -0.66345876, 0.027563661, 1.7138448, 1.1403904, -0.5254469, 0
714, 3357912278, 0.7474023, 0.017184302, -0.66353697, 0.028632715, 1.0943561, 1.0336338, 0.23819733, 0
715, 3357928945, 0.74729306, 0.01790075, -0.66360325, 0.029498503, 0.52963454, 0.6247118, 0.36315632, 0
716, 3357945612, 0.7472714, 0.018874079, -0.6635681, 0.030219689, 0.8872476, -0.27739725, 1.1158218, 0
717, 3357962279, 0.74728316, 0.019906119, -0.6634949, 0.030870318, 1.050004, -0.4998651, 0.28287697, 0
718, 3357978946, 0.74722826, 0.020995632, -0.66349465, 0.031477094, 0.9049083, 0.8523195, -0.39099693, 0
719, 3357995613, 0.7471421, 0.022536159, -0.6635191, 0.031937853, 0.2700981, 1.8403689, -1.3058815, 0
720, 3358012280, 0.7471399, 0.02432862, -0.6634466, 0.032181337, 0.3510481, 0.34324425, -0.23686123, 0
721, 3358028947, 0.7471125, 0.02591914, -0.6634113, 0.032300085, 0.62270933, 0.1507643, 0.9326248, 0
722, 3358045614, 0.74707156, 0.027349368, -0.66339934, 0.03231603, -0.1536218, 0.240258, 0.85863686, 0
723, 3358062281, 0.74709105, 0.028824612, -0.663306, 0.032502264, 0.5150802, -0.41675824, -1.0073528, 0
724, 3358078948, 0.74708885, 0.030146226, -0.66322565, 0.03298743, 0.84080744, -0.26876098, -0.5064106, 0
725, 3358095615, 0.7470161, 0.031209081, -0.6632314, 0.033524558, 1.2773842, 1.5337101, -0.6898823, 0
726, 3358112282, 0.7467861, 0.032160357, -0.6634247, 0.033922717, 0.7704639, 1.7492685, -0.26777363, 0
727, 3358128949, 0.74667996, 0.03318292, -0.66348195, 0.034153596, 0.37456122, 1.2415512, 0.5484009, 0
728, 3358145616, 0.746605, 0.034275085, -0.66350067, 0.034348264, 0.6958021, 0.2897632, 1.733881, 0
729, 3358162283, 0.746682, 0.035198584, -0.663356, 0.034535527, 0.14755744, -0.1512492, -0.13073921, 0
730, 3358178950, 0.74684125, 0.035962895, -0.66311747, 0.034881562, 1.3677675, 0.12703247, -0.13702011, 0
731, 3358195617, 0.74689394, 0.03655836, -0.66299176, 0.03551957, 2.2876158, 0.15246859, -0.83560944, 0
732, 3358212284, 0.74670035, 0.03691563, -0.663142, 0.036402375, 2.5172584, 1.1018884, -1.0305538, 0
733, 3358228951, 0.74636537, 0.03720066, -0.66345644, 0.037242204, 0.8895704, 1.1432719, 0.679122, 0
734, 3358245618, 0.7463135, 0.037589043, -0.66345686, 0.03787966, -0.06274322, 0.77494097, 1.8691196, 0
735, 3358262285, 0.7464909, 0.038116127, -0.66319746, 0.038397044, -0.039659243, -0.07759822, 1.4760303, 0
736, 3358278952, 0.7467227, 0.038486406, -0.66288114, 0.038977727, 2.2456431, -0.11096379, -0.99118423, 0
737, 3358295619, 0.7464609, 0.03845258, -0.6631394, 0.039627403, 5.508113, 2.254132, -5.1134996, 0
738, 3358312286, 0.7460125, 0.03851846, -0.66360855, 0.04015334, 3.782538, 2.4698563, -3.9227948, 0
739, 3358328953, 0.74568105, 0.03911124, -0.66393274, 0.040376335, 2.2569704, 3.0214725, 1.3824062, 0
740, 3358345620, 0.7455086, 0.039762303, -0.6641013, 0.040151536, 1.9661536, 0.29999843, 5.0425777, 0
741, 3358362287, 0.7458681, 0.0400324, -0.66369927, 0.039853066, 1.5215801, -1.7907469, 5.2455044, 0
742, 3358378954, 0.74658364, 0.039920002, -0.66290617, 0.039768055, 1.6955711, -2.2191484, 3.29733, 0
743, 3358395621, 0.7473017, 0.039696142, -0.66209716, 0.039983153, 2.1319115, -1.446974, -7.310807, 0
744, 3358412288, 0.74780726, 0.039435655, -0.6615314, 0.040152967, 2.885385, -0.12870537, -8.720832, 0
745, 3358428955, 0.747691, 0.0393416, -0.6617039, 0.03956303, 5.505162, 3.8355227, -0.32269287, 0
746, 3358445622, 0.747433, 0.03988877, -0.66204953, 0.038077235, 3.0319371, 1.5572598, 1.6607409, 0
747, 3358462289, 0.74742824, 0.041055515, -0.662089, 0.036199883, -1.4333763, -2.741993, -1.4303055, 0
748, 3358478956, 0.747586, 0.042438716, -0.66193163, 0.034167975, -1.5654883, -2.710791, 2.8597574, 0
749, 3358495623, 0.7477144, 0.043696806, -0.661806, 0.032146618, -3.5508964, -2.451566, -2.3319092, 0
750, 3358512290, 0.7476103, 0.044987023, -0.6619382, 0.02999416, -4.0658083, -0.77419096, -2.4610114, 0
751, 3358528957, 0.74717957, 0.046498775, -0.6624198, 0.02770552, -2.4273143, -0.28223583, -1.8329024, 0
752, 3358545624, 0.7464321, 0.04803212, -0.66323483, 0.025655761, -2.4077272, -2.5197263, 0.263237, 0
753, 3358562291, 0.74569726, 0.049132586, -0.66403836, 0.024111956, -1.9023237, -3.11029, 4.275714, 0
754, 3358578958, 0.74520457, 0.049951166, -0.6645706, 0.02297318, -3.5860105, -2.190858, 3.7276726, 0
755, 3358595625, 0.745435, 0.050646693, -0.6642864, 0.022185504, -4.4912887, -1.3933975, 0.94950294, 0
756, 3358612292, 0.74613386, 0.050885037, -0.6635023, 0.02160263, -2.34789, -0.47889346, 1.8441734, 0
757, 3358628959, 0.7467291, 0.050578997, -0.662866, 0.021284357, -1.1292626, -0.014784935, 1.1912937, 0
758, 3358645626, 0.7470066, 0.050007522, -0.66259724, 0.021266669, -0.31177822, -0.569951, 4.2326403, 0
759, 3358662293, 0.7468269, 0.049301833, -0.6628484, 0.021391466, 0.041453607, -1.1473603, 2.7128792, 0
760, 3358678960, 0.74655885, 0.048408926, -0.6632065, 0.02168575, -1.4223131, -3.0072606, -1.2766018, 0
761, 3358695627, 0.7467532, 0.047254726, -0.66305715, 0.022104546, -2.4461997, -2.9766884, -2.9175396, 0
762, 3358712294, 0.7471308, 0.046110824, -0.6627058, 0.022300228, -1.4362066, -1.2472275, -0.75651646, 0
763, 3358728961, 0.7474423, 0.04539132, -0.6624117, 0.022073984, -1.6632081, -0.5833055, 0.50608444, 0
764, 3358745628, 0.7476895, 0.04515165, -0.66216755, 0.021512628, -0.22542489, -0.33746535, 1.2088251, 0
765, 3358762295, 0.7478277, 0.044978708, -0.66205, 0.020671308, -0.07947182, -1.1097715, -1.2703505, 0
766, 3358778962, 0.7478386, 0.04468313, -0.66208136, 0.019897401, 0.22381112, -1.1730342, -0.94115543, 0
767, 3358795629, 0.7476361, 0.044305757, -0.66234994, 0.019407332, -0.13346227, 0.36472967, -0.70746994, 0
768, 3358812296, 0.7475706, 0.044126168, -0.6624445, 0.019107923, -0.79450047, 0.47678477, 0.6587286, 0
769, 3358828963, 0.7474675, 0.04391402, -0.66258377, 0.018800601, -0.3819652, -0.2788473, 0.0915966, 0
770, 3358845630, 0.74739707, 0.043450743, -0.6627007, 0.018555641, -0.49103516, 0.14738177, 0.18525887, 0
771, 3358862297, 0.7473908, 0.043052897, -0.6627382, 0.018392801, 0.01462937, 6.6439225E-4, -1.1401424, 0
772, 3358878964, 0.7472733, 0.042692542, -0.66289306, 0.01842779, 0.7700173, -0.19292521, -0.5589647, 0
773, 3358895631, 0.7471221, 0.042278588, -0.6630862, 0.018565401, 0.95369405, 0.42585498, -0.41645145, 0
774, 3358912298, 0.7470437, 0.04170236, -0.6632116, 0.018546507, 0.4723419, 0.2338862, -0.4676876, 0
775, 3358928965, 0.7471922, 0.041232124, -0.6630802, 0.018311635, 0.66316247, 0.028501814, 0.04829216, 0
776, 3358945632, 0.7473301, 0.041302636, -0.6629303, 0.017945439, 1.7180418, 0.29969096, 0.4106474, 0
777, 3358962299, 0.74735856, 0.04181339, -0.66288143, 0.017370865, 2.0404656, 0.32524467, 0.08124256, 0
778, 3358978966, 0.7471906, 0.042387113, -0.66305244, 0.016670093, 2.5399735, -0.05015653, 0.7878828, 0
779, 3358995633, 0.74686974, 0.042753994, -0.6634099, 0.01586555, 2.6695592, -0.2197024, -1.2981024, 0
780, 3359012300, 0.74637944, 0.0437703, -0.66390884, 0.015284166, 0.96037906, 1.0677835, -0.79337406, 0
781, 3359028967, 0.74601954, 0.043475166, -0.66436744, 0.013683096, 1.2056991, -0.37894368, 0.46871948, 0
782, 3359045634, 0.74612164, 0.04426244, -0.6642206, 0.012699723, 0.36466497, -0.13212107, 4.568782, 0
783, 3359062301, 0.74632674, 0.04543999, -0.663935, 0.011343688, -1.7880417, 0.5409278, -0.3485489, 0
784, 3359078968, 0.7465828, 0.04658927, -0.66359174, 0.009817556, -0.048265386, -0.89620054, -1.6775608, 0
785, 3359095635, 0.74662286, 0.046742916, -0.66355413, 0.008489862, 2.1865766, -1.737095, -0.3998623, 0
786, 3359112302, 0.74647933, 0.045872495, -0.6637907, 0.007295549, -0.15881132, -0.9074036, -1.3037682, 0
787, 3359128969, 0.74616486, 0.045307204, -0.66418505, 0.0070907325, 4.7054996, -0.6864256, -0.19857216, 0
788, 3359145636, 0.7461312, 0.04488392, -0.6642539, 0.006883174, -0.63931274, 2.6422577, -0.51167965, 0
789, 3359162303, 0.7463548, 0.044940487, -0.6640071, 0.0060205013, -3.2215908, 2.424858, 0.7048292, 0
790, 3359178970, 0.746628, 0.045247346, -0.6636893, 0.0047537535, -2.00828, -1.1782287, 1.1641798, 0
791, 3359195637, 0.7469644, 0.044642523, -0.6633576, 0.003845036, -0.2752732, -4.3044496, 1.6190338, 0
792, 3359212304, 0.7471329, 0.043650866, -0.6632342, 0.0037942529, -1.0997307, -1.8037443, -1.1022778, 0
793, 3359228971, 0.74715686, 0.04277861, -0.6632627, 0.0040146858, -1.6664778, -0.5088386, -0.8224678, 0
794, 3359245638, 0.7471558, 0.04173778, -0.663329, 0.0041826367, -0.6090156, -0.7982259, 2.332921, 0
795, 3359262305, 0.7472912, 0.040816084, -0.6632352, 0.004010588, -1.9174385, -0.29247755, 1.2116709, 0
796, 3359278972, 0.74730694, 0.04041654, -0.66324496, 0.0034655333, -0.81049037, -0.7658165, -1.39462, 0
797, 3359295639, 0.7470608, 0.04037878, -0.6635269, 0.0029214025, 3.2090473, -2.2272274, -1.973865, 0
798, 3359312306, 0.7465766, 0.040127635, -0.6640888, 0.0024826229, 2.4098604, -1.7262529, -0.0517807, 0
799, 3359328973, 0.74662393, 0.040246487, -0.66403145, 0.0014748424, -2.5447361, 1.948851, 3.4978151, 0
800, 3359345640, 0.74667084, 0.041082904, -0.66392887, -1.2221932E-4, 0.65704626, 0.5862197, -1.253439, 0
801, 3359362307, 0.74667794, 0.041954353, -0.663864, -0.0018244684, 2.0795112, -1.9407959, -3.1747546, 0
802, 3359378974, 0.74667406, 0.042437002, -0.6638325, -0.0032290816, 2.9297726, -1.0869021, 0.79924107, 0
803, 3359395641, 0.7470488, 0.043413416, -0.66333747, -0.004853502, -4.82939, 2.292795, 1.5063381, 0
804, 3359412308, 0.7477214, 0.04492104, -0.6624609, -0.006872818, -1.9548855, -0.02363236, 1.2304173, 0
805, 3359428975, 0.7480117, 0.045636922, -0.6620627, -0.008682996, 1.7793818, -2.5973012, 1.3954096, 0
806, 3359445642, 0.74790895, 0.045733258, -0.6621517, -0.010119453, 1.5933883, -1.3053578, -2.7905397, 0
807, 3359462309, 0.7475803, 0.045802057, -0.66250074, -0.011211023, 0.49468872, -0.18216428, -0.37473965, 0
808, 3359478976, 0.7473489, 0.045879766, -0.6627379, -0.012248486, 2.3816383, 0.64804685, -0.30639744, 0
809, 3359495643, 0.74696606, 0.04547511, -0.66318095, -0.013104439, 3.2229, 1.2984073, 0.88647556, 0
810, 3359512310, 0.7472259, 0.045546606, -0.66285896, -0.014276564, -1.7040364, 3.2555, 2.5668993, 0
811, 3359528977, 0.74758065, 0.04565017, -0.6624268, -0.015383646, 1.3928143, -2.132865, -0.582201, 0
812, 3359545644, 0.7477267, 0.04459542, -0.6623196, -0.015985519, 3.705172, -2.5478363, -3.8102894, 0
813, 3359562311, 0.7472538, 0.042691708, -0.66296905, -0.016375229, 5.2821035, 1.6011648, -0.24366283, 0
814, 3359578978, 0.74683905, 0.04102157, -0.66352654, -0.016974315, 1.4360261, 2.4035993, 0.14476776, 0
815, 3359595645, 0.74685174, 0.03960657, -0.66358113, -0.01762873, 1.9018011, -1.4677054, -0.35585213, 0
816, 3359612312, 0.7470958, 0.037435874, -0.6634194, -0.018106535, 1.529103, -3.9162724, -0.5483389, 0
817, 3359628979, 0.7473855, 0.034074053, -0.66326654, -0.018392429, 1.4562852, -3.9896245, -0.50685596, 0
818, 3359645646, 0.7473272, 0.030484498, -0.66350055, -0.018616706, -0.68834996, -1.188345, -1.0419378, 0
819, 3359662313, 0.7473472, 0.027723059, -0.6635826, -0.01919882, -2.337945, 0.4007481, 2.3955116, 0
820, 3359678980, 0.74726063, 0.026180789, -0.66370165, -0.020573884, -2.3931983, 0.3120165, 1.0953178, 0
821, 3359695647, 0.74724156, 0.024894997, -0.6637133, -0.022405177, -2.6128235, -1.8367435, 1.0522909, 0
822, 3359712314, 0.74743056, 0.023065194, -0.66349995, -0.024294317, -0.7918358, -1.8472338, 1.2243071, 0
823, 3359728981, 0.74757594, 0.020773709, -0.66336507, -0.02554001, 1.2124957, -2.2076356, -0.98463345, 0
824, 3359745648, 0.74742216, 0.018054828, -0.6635989, -0.026033804, 1.7499212, -2.2874386, -3.1079626, 0
825, 3359762315, 0.74688613, 0.015265495, -0.6642711, -0.026057422, 0.53759825, 1.0494795, 0.505743, 0
826, 3359778982, 0.74653935, 0.013016835, -0.66470546, -0.02613698, -2.3804035, 2.1936438, 2.5663357, 0
827, 3359795649, 0.74673194, 0.011296362, -0.6645153, -0.02626799, -3.387608, 0.79850185, 1.7342501, 0
828, 3359812316, 0.74716216, 0.00976406, -0.6640579, -0.026212826, -0.6377182, -1.5450106, 0.41851807, 0
829, 3359828983, 0.7472094, 0.007753983, -0.66404694, -0.025815621, 1.0587382, -1.2511716, -1.8103771, 0
830, 3359845650, 0.7470153, 0.005555287, -0.6643015, -0.025445953, -0.8172152, 1.3178025, 0.2317276, 0
831, 3359862317, 0.7469959, 0.0040017217, -0.6643382, -0.025350988, -1.3297615, 0.3599241, 1.6850662, 0
832, 3359878984, 0.7471509, 0.0028804988, -0.6641711, -0.0253129, -0.8570421, -1.9666137, 1.4238234, 0
833, 3359895651, 0.74744284, 0.0017370135, -0.6638443, -0.02537024, -1.1606641, -2.2202392, -1.4167824, 0
834, 3359912318, 0.7477213, 8.071363E-4, -0.6635287, -0.025469959, -1.9598801, -0.7617818, -0.50883675, 0
835, 3359928985, 0.74778664, 2.579242E-4, -0.66344357, -0.025774315, -0.4010493, -0.040164497, 0.45995426, 0
836, 3359945652, 0.7476474, -1.5281141E-4, -0.6635824, -0.0262416, -0.10850213, -0.4022381, -0.9764843, 0
837, 3359962319, 0.7474683, -3.657788E-4, -0.6637609, -0.026823148, -1.1600716, 0.3813236, -1.0913477, 0
838, 3359978986, 0.7473496, -2.7798116E-4, -0.66386914, -0.02744627, 0.106010854, 0.61928767, 2.429017, 0
839, 3359995653, 0.74724424, -4.8342347E-4, -0.6639718, -0.02782385, 0.96864927, -0.8108713, 0.5638313, 0
840, 3360012320, 0.7471078, -0.0013042241, -0.66412294, -0.027854607, 0.4898121, -0.36875117, -1.3991213, 0
841, 3360028987, 0.7467984, -0.0022443235, -0.66447985, -0.0275774, 1.6322758, 1.9881531, -1.2400742, 0
842, 3360045654, 0.7464787, -0.00299488, -0.6648502, -0.02723302, 1.4846555, 1.5131757, -1.2958555, 0
843, 3360062321, 0.7463414, -0.0036822408, -0.6650175, -0.026823908, 1.9638717, 0.5261215, 1.3593683, 0
844, 3360078988, 0.7462365, -0.004372537, -0.6651467, -0.026431441, 2.0017164, 0.26930216, 1.3278141, 0
845, 3360095655, 0.7461338, -0.005198404, -0.6652702, -0.026073933, 0.7918376, -0.5416823, -1.1723623, 0
846, 3360112322, 0.7461748, -0.0058739483, -0.66523814, -0.02556938, 0.6650758, -0.10592726, 2.8990097, 0
847, 3360128989, 0.74636066, -0.0060507655, -0.66503984, -0.025259376, -0.23692866, 1.2726243, 0.9622421, 0
848, 3360145656, 0.74665266, -0.0059253126, -0.6647085, -0.025381014, -0.045785736, 0.68048865, -1.0253105, 0
849, 3360162323, 0.74702334, -0.0058130175, -0.66427, -0.025972575, 1.8264922, 0.16560192, -2.2597423, 0
850, 3360178990, 0.7471767, -0.005874619, -0.6640716, -0.026613861, 4.3078003, -0.8436682, -1.8941131, 0
851, 3360195657, 0.7469172, -0.006092787, -0.6643476, -0.026959077, 4.9603434, 0.8313396, -0.07141018, 0
852, 3360212324, 0.74655193, -0.0063616335, -0.6647576, -0.026906446, 2.3575826, 1.8059646, -1.1831827, 0
853, 3360228991, 0.7463231, -0.007207617, -0.6650206, -0.026539981, 0.69858795, 0.9416308, 0.36167336, 0
854, 3360245658, 0.7464971, -0.0084928125, -0.6648352, -0.025904983, 1.1051428, 0.81130296, 0.31106377, 0
855, 3360262325, 0.7467274, -0.009562314, -0.66459256, -0.025102064, 1.1165179, 0.7895828, 2.1911173, 0
856, 3360278992, 0.74707633, -0.010257199, -0.6642213, -0.02425982, 1.4635657, 1.2429657, 0.6417656, 0
857, 3360295659, 0.7474324, -0.011153623, -0.6638381, -0.023373768, -0.00632944, 1.3899171, -0.59490013, 0
858, 3360312326, 0.74793273, -0.012092009, -0.6632882, -0.022500172, 0.22096178, 2.558681, -0.9068651, 0
859, 3360328993, 0.7481181, -0.0126995, -0.6631063, -0.021323636, 0.9762793, 2.766385, -0.7801151, 0
860, 3360345660, 0.7482483, -0.013026342, -0.662996, -0.019954994, -0.170974, 1.3584938, -0.7265434, 0
861, 3360362327, 0.7483816, -0.013308898, -0.66288966, -0.018214732, -0.3199588, 0.7858092, -0.68974495, 0
862, 3360378994, 0.74832094, -0.013883665, -0.66300035, -0.016132563, 0.13300385, 0.52314395, -2.2491703, 0
863, 3360395661, 0.7482043, -0.014479384, -0.66317576, -0.013619408, -1.4570874, 1.3172258, -2.276853, 0
864, 3360412328, 0.7478712, -0.014716402, -0.6635997, -0.010695472, -1.2169626, 3.2231731, -0.51047134, 0
865, 3360428995, 0.74736035, -0.014840201, -0.6642156, -0.007527545, -1.6838901, 1.9471192, -0.67325306, 0
866, 3360445662, 0.74695873, -0.015077412, -0.66469103, -0.0042585284, -1.5447838, 2.3913124, 3.6782017, 0
867, 3360462329, 0.74672574, -0.014693469, -0.6649738, -0.0011655092, -2.934224, 2.3942494, 0.5404444, 0
868, 3360478996, 0.746691, -0.013653144, -0.66503346, 0.0018784404, -2.4842138, 1.5308561, 1.4499922, 0
869, 3360495663, 0.74636686, -0.012451112, -0.6654062, 0.0047712475, -0.81869847, 2.494207, 0.6529188, 0
870, 3360512330, 0.7459913, -0.010525852, -0.66583586, 0.0074701905, -3.0031006, 1.0567172, -2.13202, 0
871, 3360528997, 0.7459036, -0.0072923005, -0.6659439, 0.010011911, -1.5309095, 1.6569574, 3.2170935, 0
872, 3360545664, 0.7455537, -0.0027033836, -0.666335, 0.012117952, -1.1747819, 1.0535614, 2.4990654, 0
873, 3360562331, 0.7453418, 0.0024740398, -0.66654265, 0.013687864, -3.344943, -0.42838204, 0.54666233, 0
874, 3360578998, 0.745219, 0.007946208, -0.66661555, 0.014700592, -4.089369, 1.8478781, 0.5832062, 0
875, 3360595665, 0.7452518, 0.013742566, -0.66646945, 0.0153644085, -5.1812167, -0.56591594, -0.8622894, 0
876, 3360612332, 0.7453927, 0.019149452, -0.6661609, 0.016114429, -2.7170775, -1.0205511, 3.752347, 0
877, 3360628999, 0.74536794, 0.023542523, -0.66602784, 0.016913682, -2.5317624, -2.4968228, 0.15197468, 0
878, 3360645666, 0.7454971, 0.027080819, -0.66572964, 0.017650679, -3.4290855, -3.2722661, -0.94726086, 0
879, 3360662333, 0.74562144, 0.030687332, -0.6654247, 0.01799582, -1.696035, -1.7179984, 0.70765686, 0
880, 3360679000, 0.74557585, 0.034225434, -0.66530806, 0.01780717, -1.2058059, -4.1859384, -0.20700073, 0
881, 3360695667, 0.7456333, 0.037005484, -0.66510993, 0.017235667, -1.2710775, -3.9478369, -0.8948221, 0
882, 3360712334, 0.745692, 0.039074257, -0.6649482, 0.016354248, -1.5211353, -3.54667, 0.5903635, 0
883, 3360729001, 0.7458288, 0.040761292, -0.6647157, 0.015408218, -1.3098749, -1.9912257, -0.0090761185, 0
884, 3360745668, 0.74588627, 0.042393535, -0.6645746, 0.014278561, -1.5294312, -2.5168703, -0.6066971, 0
885, 3360762335, 0.7459112, 0.043625817, -0.6644945, 0.012926057, 0.2758628, -2.619827, 1.150527, 0
886, 3360779002, 0.74587935, 0.044463024, -0.6645031, 0.011375427, -0.33158505, -1.9411633, -1.5524979, 0
887, 3360795669, 0.7459179, 0.045214117, -0.6644357, 0.009701654, -0.13924275, -0.4101522, -0.5110216, 0
888, 3360812336, 0.74587065, 0.046035126, -0.6644552, 0.008002266, 1.0931715, 0.34557807, 0.5589075, 0
889, 3360829003, 0.74569, 0.046718225, -0.6646271, 0.006453514, 1.1959538, -0.41485274, -0.42096996, 0
890, 3360845670, 0.74559635, 0.046873048, -0.6647329, 0.005097732, 0.88076174, -0.9383408, -0.5976496, 0
891, 3360862337, 0.74573225, 0.04657817, -0.66460866, 0.003998503, 0.67557687, 0.27360722, 1.4725447, 0
892, 3360879004, 0.7458874, 0.046085447, -0.66447365, 0.0030807108, 1.0578202, 0.6449862, 0.022080421, 0
893, 3360895671, 0.7460545, 0.04540263, -0.66433656, 0.0022471547, 1.080947, -0.034814633, -0.2548418, 0
894, 3360912338, 0.74624115, 0.044470757, -0.6641919, 0.0015465468, 1.6167023, -0.20159024, 0.7982321, 0
895, 3360929005, 0.74636763, 0.043180197, -0.6641363, 8.1279874E-4, 1.1973486, -0.44302833, -0.6372137, 0
896, 3360945672, 0.7464393, 0.041754305, -0.66414744, 1.8419325E-4, 0.89687437, -0.90366757, -0.8920088, 0
897, 3360962339, 0.74664825, 0.04010214, -0.6640143, -2.3701787E-4, 1.3232132, -1.1118556, 1.6289015, 0
898, 3360979006, 0.7467295, 0.038027376, -0.6640446, -5.9209764E-4, 1.2368699, -0.3830301, -1.1939764, 0
899, 3360995673, 0.7466677, 0.036008522, -0.6642261, -0.0010446906, 0.91049343, 0.37802836, 0.17437267, 0
900, 3361012340, 0.74658656, 0.03406453, -0.6644187, -0.0016404688, 1.4917827, -0.54291075, 0.3346367, 0
901, 3361029007, 0.74654835, 0.032016873, -0.6645619, -0.0021474808, 0.377542, -1.241592, 0.48886204, 0
902, 3361045674, 0.74677867, 0.030154929, -0.66438895, -0.002543375, -0.29535696, -0.5083273, -1.5814505, 0
903, 3361062341, 0.74686927, 0.028442815, -0.66436124, -0.0028879344, 0.8859642, 0.29378575, 1.0881004, 0
904, 3361079008, 0.74683666, 0.026943162, -0.66445845, -0.003309548, 1.1570573, 0.7265344, -0.027359962, 0
905, 3361095675, 0.74671537, 0.025561571, -0.6646461, -0.003906414, 0.045330178, -0.41600278, -2.317443, 0
906, 3361112342, 0.74675554, 0.024455503, -0.6646387, -0.0045221597, 0.31305134, -0.12095281, 0.5007458, 0
907, 3361129009, 0.74677134, 0.023634568, -0.66464615, -0.0051244497, 0.96963674, -0.31142384, 2.1161242, 0
908, 3361145676, 0.7468058, 0.022797942, -0.66463184, -0.005737424, 0.06393186, -1.220484, -1.5132666, 0
909, 3361162343, 0.7468528, 0.021921486, -0.66460407, -0.0062170774, 0.21703778, -0.13838068, 1.1317415, 0
910, 3361179010, 0.7469444, 0.02113828, -0.6645226, -0.0066220015, -0.7237611, 0.36804995, -1.0960894, 0
911, 3361195677, 0.7471752, 0.02041769, -0.6642825, -0.0069181025, -0.37548208, -0.437597, 0.29859257, 0
912, 3361212344, 0.74733496, 0.019464374, -0.6641304, -0.007013947, 1.1966642, 0.09547389, 0.1624403, 0
913, 3361229011, 0.7474128, 0.01803124, -0.6640814, -0.007184297, -0.30097136, -0.7043254, -0.5211592, 0
914, 3361245678, 0.7474821, 0.016293302, -0.6640487, -0.007157758, 0.74783367, -0.37089047, 1.3924913, 0
915, 3361262345, 0.7475084, 0.014454782, -0.6640646, -0.0068777204, -0.51260996, -0.7709906, -0.93858814, 0
916, 3361279012, 0.74761194, 0.012425721, -0.6639934, -0.006438181, -0.38690004, -0.5624509, -0.0072631836, 0
917, 3361295679, 0.74771786, 0.010174811, -0.6639167, -0.0059904456, 0.6596373, -0.19817887, 0.86704826, 0
918, 3361312346, 0.74778837, 0.007911086, -0.6638714, -0.0056054145, 0.2267803, -0.23409386, -1.9061394, 0
919, 3361329013, 0.7478941, 0.0058068633, -0.6637768, -0.005254239, 0.24522723, -0.02700059, 1.9797945, 0
920, 3361345680, 0.74809533, 0.0040024817, -0.66356725, -0.004774496, 0.5717421, -0.32056698, 1.2447748, 0
921, 3361362347, 0.7482177, 0.0023548007, -0.66344136, -0.0041243434, -0.56744796, -0.33578396, -1.0485458, 0
922, 3361379014, 0.748289, 9.545237E-4, -0.6633679, -0.003540367, -0.1913642, 1.137464, -0.5483532, 0
923, 3361395681, 0.74825066, -9.8362565E-5, -0.6634141, -0.0030790716, -0.15360793, 1.1518993, 1.4398117, 0
924, 3361412348, 0.7481804, -7.597804E-4, -0.66349417, -0.0028111935, -0.3329972, 0.90014213, -1.8601255, 0
925, 3361429015, 0.74810064, -9.050071E-4, -0.6635851, -0.0025080442, -0.02967358, 0.3641938, -0.1496849, 0
926, 3361445682, 0.7481525, -9.800047E-4, -0.66352797, -0.002090469, 0.26680204, 0.36270687, 1.2468519, 0
927, 3361462349, 0.7482421, -0.0010565966, -0.6634286, -0.0013899654, -0.534664, 0.37366214, -0.8564148, 0
928, 3361479016, 0.7483154, -8.5778534E-4, -0.6633476, -4.4457614E-4, -0.49352196, 1.5170572, 0.49475098, 0
929, 3361495683, 0.7483107, -4.6759844E-4, -0.6633531, 4.580915E-4, -0.3644477, 1.6467144, 0.22383118, 0
930, 3361512350, 0.7482824, -6.610155E-5, -0.6633842, 0.0012718886, -0.3202936, 0.45398557, 0.27586937, 0
931, 3361529017, 0.7482148, 3.182441E-4, -0.6634581, 0.0021869987, -0.39705914, 0.4790855, -0.30878544, 0
932, 3361545684, 0.74804306, 6.570071E-4, -0.66364676, 0.0033024102, -0.12843546, 0.5528936, 0.45869923, 0
933, 3361562351, 0.7478265, 9.161085E-4, -0.66388255, 0.0046270937, -0.21558048, 0.026558256, -0.03981018, 0
934, 3361579018, 0.74770534, 9.884387E-4, -0.66400737, 0.006068513, -0.5567681, -0.038745075, 1.2007923, 0
935, 3361595685, 0.74765533, 7.5758994E-4, -0.66405076, 0.0073795468, -0.767936, 0.5920592, -0.29616165, 0
936, 3361612352, 0.7476573, 5.0857663E-4, -0.6640329, 0.008693859, -0.9009843, -0.09329945, -0.2086916, 0
937, 3361629019, 0.7476186, 2.4025142E-4, -0.6640567, 0.01009959, 0.51596445, -0.091751285, 0.707798, 0
938, 3361645686, 0.7474005, -1.7729402E-4, -0.6642799, 0.011471868, 0.08943781, -0.2807149, -2.3142753, 0
939, 3361662353, 0.74732524, -4.5867264E-4, -0.6643418, 0.012714013, -0.71104836, 0.06686625, -0.5741272, 0
940, 3361679020, 0.74739516, -7.0670247E-4, -0.6642392, 0.013891295, -0.38876683, -0.07433214, 1.553832, 0
941, 3361695687, 0.7475073, -0.0010129362, -0.66408825, 0.015012264, 0.18340221, 0.27070066, 1.6554394, 0
942, 3361712354, 0.7474201, -0.0011220723, -0.66416377, 0.015973091, 0.29867858, 0.42288584, -0.26854992, 0
943, 3361729021, 0.74715966, -9.906441E-4, -0.6644361, 0.01682195, -0.067444116, 0.82897145, -1.0544577, 0
944, 3361745688, 0.7469295, -3.6910176E-4, -0.6646747, 0.017618656, -1.1346347, 0.7359972, -1.4244385, 0
945, 3361762355, 0.746897, 4.5724213E-4, -0.6646874, 0.018494964, -0.7820732, -0.2868896, 2.1472597, 0
946, 3361779022, 0.74703777, 0.0010996312, -0.6645006, 0.019475535, -0.72447836, -0.24210097, 0.45578575, 0
947, 3361795689, 0.7470436, 0.0017963648, -0.66446364, 0.020434916, -0.9977377, 0.9473135, -1.4439821, 0
948, 3361812356, 0.7469813, 0.0028204322, -0.664505, 0.021237701, -0.7510509, 1.191631, 1.7821808, 0
949, 3361829023, 0.7468626, 0.0039764494, -0.66460514, 0.022078112, -0.38412446, -0.20955648, -0.18411541, 0
950, 3361845690, 0.74674815, 0.0049021095, -0.6646962, 0.02299875, -1.0459316, -0.020393768, -0.20344257, 0
951, 3361862357, 0.7467044, 0.005917296, -0.6647045, 0.023921981, -0.9939769, 1.2669898, 0.8889599, 0
952, 3361879024, 0.74673784, 0.007204026, -0.66461784, 0.024912983, -1.5165352, 0.34607148, -0.38826466, 0
953, 3361895691, 0.74687195, 0.008511484, -0.6644136, 0.025904834, -0.3530204, -0.22193876, -0.18977642, 0
954, 3361912358, 0.74688655, 0.009757429, -0.66434324, 0.026838005, -0.033806335, 0.35306966, 0.64004993, 0
955, 3361929025, 0.7469341, 0.011002883, -0.6642387, 0.027608305, -0.5623767, 0.52118593, 0.24298859, 0
956, 3361945692, 0.74693877, 0.012521729, -0.6641748, 0.028360948, -0.30561015, 0.7442029, 0.7183924, 0
957, 3361962359, 0.7468352, 0.014467478, -0.6642141, 0.029227778, -0.06341778, 1.1475958, -0.24302769, 0
958, 3361979026, 0.7466767, 0.016284913, -0.6643154, 0.030006886, -0.040911812, 1.0281136, -2.472499, 0
959, 3361995693, 0.74651414, 0.01801695, -0.6644219, 0.030698314, 0.034990504, 1.1648433, 0.2714882, 0
960, 3362012360, 0.7464646, 0.019896224, -0.6643894, 0.03143783, 0.55485034, 1.5510689, 1.1926136, 0
961, 3362029027, 0.74652994, 0.021945223, -0.6642141, 0.032217562, -0.10265682, 0.16512087, -0.41780186, 0
962, 3362045694, 0.74665767, 0.023998186, -0.66395134, 0.033192337, 0.5626179, 0.37964335, 2.3702517, 0
963, 3362062361, 0.74661934, 0.02603802, -0.66387117, 0.034111053, 0.7491475, 2.0206225, 0.0068893433, 0
964, 3362079028, 0.7463603, 0.028392449, -0.66403204, 0.034761652, 0.85117245, 2.5430205, -1.674839, 0
965, 3362095695, 0.7458821, 0.03105086, -0.6644251, 0.035238847, 1.8146029, 2.6786947, -1.3874731, 0
966, 3362112362, 0.74537, 0.033725142, -0.6648455, 0.035686046, 1.3392435, 1.4903777, 0.08880043, 0
967, 3362129029, 0.74498796, 0.03592798, -0.6651235, 0.036325365, 0.08304304, 0.44218948, 0.25417137, 0
968, 3362145696, 0.74489576, 0.037808284, -0.66506773, 0.03732039, -0.6441773, 0.5424401, 2.1773014, 0
969, 3362162363, 0.7452078, 0.03987801, -0.6645253, 0.038574845, -1.4535325, 0.25866416, -0.046191216, 0
970, 3362179030, 0.7455969, 0.04190424, -0.66389537, 0.039740026, 1.4659379, 1.0821178, 2.761301, 0
971, 3362195697, 0.7455332, 0.043640748, -0.6638005, 0.04064013, 4.109697, 2.7906938, -3.723816, 0
972, 3362212364, 0.74510974, 0.04576938, -0.66409856, 0.04118973, 2.2110376, 3.0168679, -6.4997044, 0
973, 3362229031, 0.7446939, 0.04838343, -0.6643501, 0.041661933, 4.1392546, 3.754246, 3.7591162, 0
974, 3362245698, 0.7442529, 0.05079907, -0.6646259, 0.04226446, 1.5970479, 0.16801614, -0.15373325, 0
975, 3362262365, 0.74421954, 0.052457258, -0.6644826, 0.043071628, 0.26355305, -1.4080325, 1.7554188, 0
976, 3362279032, 0.7446371, 0.054202914, -0.6638215, 0.04387985, 0.043590836, 1.3676513, 1.7041864, 0
977, 3362295699, 0.7450695, 0.056807056, -0.6630914, 0.04428029, -0.7105012, 1.1937943, -0.7138128, 0
978, 3362312366, 0.7453078, 0.059366852, -0.66260004, 0.044270486, 2.0206134, 1.2750287, -1.3143282, 0
979, 3362329033, 0.74508953, 0.06154354, -0.6626586, 0.0440937, 0.83830637, 1.1959211, -1.7723408, 0
980, 3362345700, 0.7448499, 0.06366044, -0.66273177, 0.044036984, 0.33097512, 0.3983572, -1.6721134, 0
981, 3362362367, 0.7446554, 0.06520754, -0.66278476, 0.044265896, 0.3940806, -1.3028177, -0.07356548, 0
982, 3362379034, 0.74452174, 0.06561752, -0.66286653, 0.044684127, -0.6076539, -3.4837909, -0.34758377, 0
983, 3362395701, 0.7444486, 0.065094784, -0.6629658, 0.045190558, -1.8438907, -3.1279626, -0.10176468, 0
984, 3362412368, 0.7442517, 0.06414151, -0.6632469, 0.04566893, -0.8434981, -3.5049896, -1.4177351, 0
985, 3362429035, 0.743809, 0.062349886, -0.66386014, 0.046445787, 0.22444008, -3.9860544, -0.85373497, 0
986, 3362445702, 0.743178, 0.05943972, -0.6647761, 0.04725401, -0.6483483, -2.3323524, -2.6363473, 0
987, 3362462369, 0.7425609, 0.05584258, -0.6657371, 0.047811314, -0.45321274, -0.96215457, 3.9840145, 0
988, 3362479036, 0.74200386, 0.05234222, -0.6666305, 0.047972903, -0.8995109, -1.3758193, 2.056447, 0
989, 3362495703, 0.74185085, 0.04903002, -0.6670693, 0.047737017, -1.1262523, -4.3322134, 1.7754364, 0
990, 3362512370, 0.7420717, 0.045911968, -0.66707873, 0.047269583, 0.11199564, -4.4157963, 2.4777327, 0
991, 3362529037, 0.7423954, 0.043926075, -0.66689914, 0.046602204, -1.5861127, -2.4022925, 1.7685585, 0
992, 3362545704, 0.74283314, 0.04319486, -0.6665399, 0.045434535, -1.9844667, -0.5965644, 1.2351961, 0
993, 3362562371, 0.7431651, 0.04310903, -0.6662765, 0.043927982, -1.7007364, -0.28684378, -0.46458435, 0
994, 3362579038, 0.743411, 0.0430391, -0.6660999, 0.042489707, -1.5426375, 0.12481232, -1.8402157, 0
995, 3362595705, 0.7435711, 0.042713657, -0.6660195, 0.04126109, -0.58540905, 0.7418065, 2.2182274, 0
996, 3362612372, 0.7435431, 0.042265087, -0.66611934, 0.040608123, -0.92504233, 0.017672164, -0.47928524, 0
997, 3362629039, 0.7437409, 0.0417165, -0.66593915, 0.04051119, -1.8895772, -1.0396953, -1.0950985, 0
998, 3362645706, 0.7440622, 0.041181058, -0.66560817, 0.040598005, -1.1039497, 0.6396592, 0.44516373, 0
999, 3362662373, 0.7443548, 0.040936887, -0.66529864, 0.040555596, -1.7795489, -0.26386988, -1.3086786, 0
1000, 3362679040, 0.7446023, 0.04105392, -0.6650181, 0.040493473, 0.035643164, -0.67326874, 2.4465532, 0
1001, 3362695707, 0.7445891, 0.041289896, -0.6650194, 0.040474772, -0.66812897, -1.148475, -0.3824072, 0
1002, 3362712374, 0.7447725, 0.04150325, -0.66479695, 0.040534824, -2.9567592, -1.6038485, -1.6833868, 0
1003, 3362729041, 0.74499416, 0.04191628, -0.66451716, 0.040624604, -1.4811815, 0.7131695, 2.1178865, 0
1004, 3362745708, 0.7449124, 0.042476445, -0.6645681, 0.040711924, -1.0643435, -0.59574616, -0.6002655, 0
1005, 3362762375, 0.74489146, 0.0427967, -0.66456294, 0.04084064, -1.5864335, -1.1807549, -0.7863169, 0
1006, 3362779042, 0.7448167, 0.043295696, -0.66461384, 0.04085061, -0.8355844, 0.77213556, 1.06178, 0
1007, 3362795709, 0.7448399, 0.044340134, -0.6645227, 0.04079005, -2.3706455, -0.6385437, -1.4226427, 0
1008, 3362812376, 0.74491394, 0.045423746, -0.6643706, 0.040723518, 0.11983647, -0.38741222, 2.0907745, 0
1009, 3362829043, 0.74481565, 0.046342507, -0.6644163, 0.040740624, -0.83060366, -0.81414425, -0.72717094, 0
1010, 3362845710, 0.7448206, 0.0471368, -0.664353, 0.04077071, -1.152473, -0.3104549, 0.6214857, 0
1011, 3362862377, 0.7447857, 0.048101306, -0.664325, 0.040736333, -0.71855974, 0.5643061, 0.40955448, 0
1012, 3362879044, 0.7447334, 0.049299404, -0.66429734, 0.04071246, -0.64031947, -0.8205697, 0.1119566, 0
1013, 3362895711, 0.74473697, 0.050385237, -0.6642193, 0.04059209, -0.23981957, -0.016408756, -1.1506586, 0
1014, 3362912378, 0.7446289, 0.051406607, -0.6642808, 0.040288523, -0.33721757, -0.7846611, 1.3302488, 0
1015, 3362929045, 0.7447365, 0.052311927, -0.6641047, 0.040037677, -4.4076756E-4, -0.68589836, -0.23550224, 0
1016, 3362945712, 0.7447224, 0.05321306, -0.66405874, 0.039869636, 0.27898753, -0.2799407, 0.79093266, 0
1017, 3362962379, 0.74472576, 0.05399245, -0.6640003, 0.039733887, 0.6454962, 0.36471134, -0.41359615, 0
1018, 3362979046, 0.74461895, 0.054635018, -0.66408145, 0.039500833, 0.54435664, 0.69916314, -1.6426039, 0
1019, 3362995713, 0.74446714, 0.055282593, -0.66421586, 0.039201647, 0.57615787, 0.11023123, 0.7070112, 0
1020, 3363012380, 0.74449456, 0.05586642, -0.6641508, 0.038951784, 1.3920535, -0.074366674, 0.9676466, 0
1021, 3363029047, 0.7444105, 0.05648242, -0.66420436, 0.038757846, 0.28598034, -0.5164171, -2.5161018, 0
1022, 3363045714, 0.74450636, 0.057102144, -0.6640561, 0.038547978, 0.59244525, 0.1759865, 1.361371, 0
1023, 3363062381, 0.7446524, 0.05761902, -0.6638596, 0.038341343, 1.1997889, 0.6954668, 0.3821783, 0
1024, 3363079048, 0.74479645, 0.058094114, -0.6636708, 0.038097292, 0.7202225, -0.33546305, -1.7470455, 0
1025, 3363095715, 0.7448648, 0.058670104, -0.66356397, 0.037731722, 1.2526135, 0.8092492, 1.0004177, 0
1026, 3363112382, 0.7448906, 0.059314027, -0.66351306, 0.037108734, 0.22211063, -0.5739817, -1.1044788, 0
1027, 3363129049, 0.7450607, 0.059954226, -0.6633044, 0.036388636, 0.5797814, -1.1983527, 0.08849907, 0
1028, 3363145716, 0.74512374, 0.06078644, -0.6631959, 0.03568749, 0.37866536, -0.33332005, 0.74200153, 0
1029, 3363162383, 0.7451832, 0.06176193, -0.6630837, 0.034848765, -0.074130304, -0.028368153, -0.21277428, 0
1030, 3363179050, 0.745235, 0.06276734, -0.6629822, 0.033858463, 0.42058277, -0.40263912, 1.7417917, 0
1031, 3363195717, 0.7453949, 0.06353328, -0.6627808, 0.032840326, 0.49704275, -1.4381362, 0.13973331, 0
1032, 3363212384, 0.7456928, 0.06407046, -0.66244495, 0.031794727, -0.4660491, -1.6775107, -1.3599777, 0
1033, 3363229051, 0.74589866, 0.06435497, -0.66222936, 0.030865446, 0.43320388, -0.9306273, 1.0373592, 0
1034, 3363245718, 0.7459063, 0.06465073, -0.6622338, 0.029955655, -0.04085638, 0.51702994, -0.5024252, 0
1035, 3363262385, 0.7459638, 0.06481668, -0.6621992, 0.028912619, -0.39412397, -1.0544499, -1.0473957, 0
1036, 3363279052, 0.7460547, 0.06446779, -0.66217077, 0.027980357, 0.8952798, -1.2269757, 1.6699286, 0
1037, 3363295719, 0.7462136, 0.06398374, -0.66207236, 0.027174875, -0.08860054, -0.6464369, 0.061779976, 0
1038, 3363312386, 0.74634016, 0.06334551, -0.66202503, 0.026334226, 0.26710737, -1.0512141, -0.09106922, 0
1039, 3363329053, 0.74639446, 0.062432706, -0.66207933, 0.025597036, 0.60335845, -0.78294736, -0.11660862, 0
1040, 3363345720, 0.74651074, 0.061382696, -0.66207224, 0.024922743, -0.41192454, -1.268407, -0.96837425, 0
1041, 3363362387, 0.74669236, 0.060047865, -0.6620099, 0.024383605, 1.1777117, -1.2391179, 1.5660038, 0
1042, 3363379054, 0.74676245, 0.0585275, -0.66208416, 0.023909464, 0.40729126, -0.72067, -0.95341873, 0
1043, 3363395721, 0.7466793, 0.05713345, -0.6623205, 0.02332732, 0.330999, -0.13641621, -0.36280727, 0
1044, 3363412388, 0.7466221, 0.055757254, -0.6625244, 0.02269049, 0.6786081, -1.0454785, 1.4021368, 0
1045, 3363429055, 0.7465607, 0.054249868, -0.66273767, 0.022131339, -0.18220419, -1.2682025, -1.2757759, 0
1046, 3363445722, 0.7465321, 0.052744195, -0.66290945, 0.021586329, 0.015701339, -0.634613, 0.2939396, 0
1047, 3363462389, 0.7465118, 0.05136068, -0.6630558, 0.021121666, 0.4027851, -0.118707396, 1.2199326, 0
1048, 3363479056, 0.7464713, 0.04990779, -0.66322845, 0.02060394, -0.17474958, -0.9781003, -1.2164288, 0
1049, 3363495723, 0.746414, 0.04821314, -0.66342944, 0.02023974, 1.13585, -0.9182072, 0.66497993, 0
1050, 3363512390, 0.74629873, 0.04651411, -0.66368616, 0.020054609, -0.40607208, 0.3930899, -0.51269054, 0
1051, 3363529057, 0.7463646, 0.044892833, -0.66372645, 0.019966125, -0.8684976, 0.19761316, 1.064065, 0
1052, 3363545724, 0.7463771, 0.043330893, -0.66381174, 0.02010627, -0.0084948335, 0.136245, 0.015789032, 0
1053, 3363562391, 0.74635494, 0.041865498, -0.6639227, 0.020369574, -0.52975523, -0.034090195, -0.70234394, 0
1054, 3363579058, 0.74632823, 0.040477067, -0.66403073, 0.020632476, 0.47262597, 0.39271832, 1.5544834, 0
1055, 3363595725, 0.74630666, 0.03919141, -0.6641208, 0.020997688, -0.027463485, -0.33652693, -0.93444157, 0
1056, 3363612392, 0.74631137, 0.038175374, -0.6641595, 0.021470383, -0.15073937, 0.059278876, -0.7256212, 0
1057, 3363629059, 0.7463066, 0.03743182, -0.6641896, 0.022009924, 0.20253627, 0.89385736, 1.6755152, 0
1058, 3363645726, 0.74625677, 0.036965787, -0.66425467, 0.022512555, -0.41825712, 0.48908177, -1.0670328, 0
1059, 3363662393, 0.7461898, 0.036807686, -0.6643261, 0.022885099, -0.71531254, 0.481484, 0.47302914, 0
1060, 3363679060, 0.7459996, 0.036937565, -0.66452354, 0.023143247, 0.65988445, 0.5824017, 1.3748236, 0
1061, 3363695727, 0.74582237, 0.03727992, -0.66469496, 0.023379311, 0.35304722, -0.27853894, -1.2634974, 0
1062, 3363712394, 0.74566406, 0.037729472, -0.6648424, 0.023516312, 0.12292766, -0.05814544, -1.6575165, 0
1063, 3363729061, 0.7457348, 0.038191244, -0.6647371, 0.023503974, -0.712946, 0.29404995, -0.9044504, 0
1064, 3363745728, 0.7461736, 0.038528442, -0.6642281, 0.023412198, -1.3450009, -0.74259293, -0.6411314, 0
1065, 3363762395, 0.7466035, 0.038682073, -0.6637341, 0.023471594, 0.8115036, -0.686777, 3.7971315, 0
1066, 3363779062, 0.74673873, 0.038794786, -0.6635689, 0.023653999, 0.96298635, -0.23958768, 0.75324154, 0
1067, 3363795729, 0.74664295, 0.03903155, -0.6636614, 0.023689851, 0.4342272, -0.42625225, -2.1999664, 0
1068, 3363812396, 0.7463763, 0.039118215, -0.6639581, 0.02363579, 1.3884504, 0.011886642, 2.8527365, 0
1069, 3363829063, 0.7461337, 0.03909895, -0.66423833, 0.023450732, 0.21678902, -0.42110008, -2.136526, 0
1070, 3363845730, 0.74595547, 0.039138913, -0.66444707, 0.02313891, 0.6098412, 0.08202892, 0.56743336, 0
1071, 3363862397, 0.74594307, 0.03916703, -0.6644723, 0.0227613, -0.25117895, 0.4273801, 0.042098045, 0
1072, 3363879064, 0.7461504, 0.03921403, -0.66425055, 0.02235967, -0.5666174, -1.4886234, 0.39368057, 0
1073, 3363895731, 0.7464651, 0.0392427, -0.66390336, 0.022117347, 1.75792, -0.4505193, 0.78671265, 0
1074, 3363912398, 0.7465418, 0.039414436, -0.66381824, 0.021773472, 0.9346194, 0.7362898, -1.0805473, 0
1075, 3363929065, 0.7465912, 0.03978136, -0.6637588, 0.021210223, 3.6529622, 1.9216182, -0.1250372, 0
1076, 3363945732, 0.7463333, 0.040561944, -0.6640265, 0.02041988, 2.8852286, 1.5753331, -1.7386484, 0
1077, 3363962399, 0.7462145, 0.041776612, -0.66411096, 0.019542173, 1.4269465, 1.122507, 0.18869495, 0
1078, 3363979066, 0.74631566, 0.042793274, -0.6639573, 0.018684402, 1.0777361, -0.4812319, 2.1888685, 0
1079, 3363995733, 0.74662215, 0.04331836, -0.6635917, 0.018216401, 0.90023154, -0.5527783, 0.8855696, 0
1080, 3364012400, 0.7467482, 0.043922514, -0.6634166, 0.017975628, 1.4886405, 1.4469708, 0.2684641, 0
1081, 3364029067, 0.7465273, 0.04483831, -0.66361517, 0.01755251, 2.6816847, 2.7418866, -3.3726578, 0
1082, 3364045734, 0.7459182, 0.045994893, -0.6642434, 0.016672924, 3.4843247, 2.222721, -2.8601174, 0
1083, 3364062401, 0.74524844, 0.046809286, -0.6649623, 0.015667915, 4.699854, 1.7490653, 0.6902838, 0
1084, 3364079068, 0.74500865, 0.04706852, -0.66523147, 0.0148524195, 2.0498328, 0.91157985, 0.8405123, 0
1085, 3364095735, 0.7450881, 0.046815842, -0.6651637, 0.0146998465, 0.8225027, 0.88577455, -0.49685, 0
1086, 3364112402, 0.74521554, 0.045968145, -0.6650709, 0.015108794, 0.4866333, 0.5181459, -0.36026287, 0
1087, 3364129069, 0.7453847, 0.044690773, -0.6649507, 0.015863612, 1.4975104, 0.31958687, 1.9347696, 0
1088, 3364145736, 0.74557513, 0.043473274, -0.6647946, 0.016813874, 1.2792192, 0.27655157, 0.31133366, 0
1089, 3364162403, 0.7457271, 0.04237844, -0.664672, 0.017696232, 0.5040159, 0.7120457, -4.4277973, 0
1090, 3364179070, 0.7454651, 0.041490823, -0.66500026, 0.018482149, 3.3201084, 3.045301, -3.643467, 0
1091, 3364195737, 0.74463695, 0.040672973, -0.6659598, 0.019128293, 2.651709, 2.6472278, 0.5116129, 0
1092, 3364212404, 0.7437863, 0.039623752, -0.6669493, 0.01993668, -0.15192202, 0.05073641, 1.0682678, 0
1093, 3364229071, 0.7433363, 0.038470507, -0.667484, 0.02105163, -4.8744965, -3.2115083, -2.329493, 0
1094, 3364245738, 0.7431263, 0.037870064, -0.6677138, 0.02223289, -3.0976853, -2.8047357, 7.3027897, 0
1095, 3364262405, 0.7429557, 0.037900552, -0.66786706, 0.023254752, -4.607791, -2.928255, -0.16559029, 0
1096, 3364279072, 0.743094, 0.038156375, -0.66767555, 0.023905233, -6.092163, -2.1630666, -2.8486176, 0
1097, 3364295739, 0.74306595, 0.038705915, -0.6676753, 0.02390176, -1.4136537, 1.4757751, 2.5723886, 0
1098, 3364312406, 0.74264985, 0.03915137, -0.66812587, 0.023517817, -3.0108912, -2.7851443, -1.828021, 0
1099, 3364329073, 0.7425724, 0.03901419, -0.6682284, 0.023275897, -2.1400757, -4.288861, 1.5069532, 0
1100, 3364345740, 0.7426784, 0.038912833, -0.6681169, 0.023260593, -2.5235472, -3.4508314, 5.471238, 0
1101, 3364362407, 0.74305546, 0.03946869, -0.6676723, 0.023055077, -3.4222336, -2.685142, 3.1514807, 0
1102, 3364379074, 0.74354607, 0.04065521, -0.6670808, 0.022274047, -4.402816, -2.4319425, 0.47969532, 0
1103, 3364395741, 0.7440835, 0.04202354, -0.6664408, 0.020901754, -3.3621745, -2.310284, 0.054501534, 0
1104, 3364412408, 0.7444622, 0.04355322, -0.6659712, 0.019192427, -3.8284585, -2.058509, -1.2772427, 0
1105, 3364429075, 0.74466693, 0.04514475, -0.6656839, 0.017462894, -2.6486993, -1.8335884, -1.0489874, 0
1106, 3364445742, 0.74462354, 0.046411753, -0.6656855, 0.015862256, -1.9220372, -2.0767725, -0.46429348, 0
1107, 3364462409, 0.7446328, 0.047025487, -0.66566294, 0.014502898, -1.8750262, -2.5962088, -0.5710678, 0
1108, 3364479076, 0.7448471, 0.04703124, -0.6654422, 0.013575658, -1.8823153, -1.9745284, 1.7045012, 0
1109, 3364495743, 0.7451587, 0.04682702, -0.66512054, 0.012934148, -1.168215, -0.8372497, 1.586649, 0
1110, 3364512410, 0.74547374, 0.04650961, -0.6648, 0.01239343, -0.37308693, -0.7807209, -1.6100435, 0
1111, 3364529077, 0.74553686, 0.045967117, -0.66477835, 0.011766061, 1.0001923, 0.1189033, 0.61018753, 0
1112, 3364545744, 0.7456078, 0.045282647, -0.6647608, 0.010879606, 0.74463564, -0.2662016, -0.90032387, 0
1113, 3364562411, 0.74568176, 0.04464695, -0.6647346, 0.01000227, -0.2218375, -1.7174911, -1.3608418, 0
1114, 3364579078, 0.74587345, 0.044001445, -0.6645735, 0.009254605, 0.91973835, -0.77605677, 2.268406, 0
1115, 3364595745, 0.74604815, 0.043236673, -0.6644377, 0.008490771, 0.076333694, -0.7038432, -1.1374235, 0
1116, 3364612412, 0.74616766, 0.04260379, -0.66435456, 0.0076670498, 0.4968284, -0.149964, -1.7312603, 0
1117, 3364629079, 0.7461122, 0.042297885, -0.66444635, 0.006737545, 1.3577503, 0.33976814, 0.94298935, 0
1118, 3364645746, 0.7460584, 0.042028844, -0.6645339, 0.0056693405, 0.8097262, -1.0225807, -0.5409317, 0
1119, 3364662413, 0.7461813, 0.041487366, -0.6644381, 0.0046094656, 0.9357415, -1.2299408, 0.8102255, 0
1120, 3364679080, 0.7462334, 0.04077542, -0.66442984, 0.003579393, 1.4854331, -0.13425842, 1.2160482, 0
1121, 3364695747, 0.7462464, 0.040089473, -0.6644613, 0.0026506186, 0.94406193, 0.33419892, -1.253952, 0
1122, 3364712414, 0.74613094, 0.039266527, -0.66464245, 0.0018819124, 1.0367041, 0.047309756, 0.39519978, 0
1123, 3364729081, 0.74608004, 0.03795229, -0.6647777, 0.0013128817, 0.8384816, -0.34606892, -0.36161137, 0
1124, 3364745748, 0.7461071, 0.03632395, -0.66483915, 8.645654E-4, 0.5966227, -0.5260573, 0.42350674, 0
1125, 3364762415, 0.74609596, 0.034735784, -0.66493654, 7.442236E-4, 1.6405087, 0.59779805, 2.0461416, 0
1126, 3364779082, 0.7459281, 0.03300728, -0.665213, 6.9113076E-4, 0.72705346, 0.4132824, -1.8579583, 0
1127, 3364795749, 0.74588513, 0.030937776, -0.6653604, 7.0498884E-4, 0.17957611, -0.16776039, -1.692565, 0
1128, 3364812416, 0.7458003, 0.028802335, -0.6655512, 9.254664E-4, 1.5337826, 0.31342307, 2.67723, 0
1129, 3364829083, 0.7456695, 0.026805744, -0.6657805, 0.0012866855, 0.79327047, -0.024122752, -2.5952706, 0
1130, 3364845750, 0.7454627, 0.024871439, -0.66608596, 0.0017313659, 0.73552036, 0.5212304, -0.19251442, 0
1131, 3364862417, 0.7453605, 0.02318506, -0.6662603, 0.002098754, -0.017870307, 1.024942, -0.6295996, 0
1132, 3364879084, 0.7454739, 0.022028714, -0.66617125, 0.0024314225, -0.57016635, -0.20930022, 0.77731895, 0
