sep=,
DeviceTag:,Xsens_DOT_1,,,,,,,,,,,,,,,,,
FirmwareVersion:,3.0.0,,,,,,,,,,,,,,,,,
AppVersion:,2023.6.1,,,,,,,,,,,,,,,,,
SyncStatus:,Synced,,,,,,,,,,,,,,,,,
OutputRate:,60Hz,,,,,,,,,,,,,,,,,
FilterProfile:,General,,,,,,,,,,,,,,,,,
Measurement Mode:,Sensor fusion Mode - Extended (Quaternion),,,,,,,,,,,,,,,,,
StartTime:,2025-05-05 12:02:33.031 +0200,,,,,,,,,,,,,,,,,
 2025,,,,,,,,,,,,,,,,,,,

PacketCounter,SampleTimeFine,Quat_W,Quat_X,Quat_Y,Quat_Z,FreeAcc_X,FreeAcc_Y,FreeAcc_Z,Status
1, 3346028707, 0.6134698, 0.23817837, 0.12430368, -0.742664, 0.114475735, 0.34243974, 0.2908783, 0
2, 3346045374, 0.61330867, 0.2375941, 0.12493953, -0.74287736, 0.13704003, 0.27447304, 0.2649126, 0
3, 3346062041, 0.61315215, 0.23694313, 0.12562153, -0.74309933, 0.20900808, 0.16806208, 0.35723686, 0
4, 3346078708, 0.6129723, 0.23625214, 0.12636024, -0.7433425, 0.22598389, 0.17380089, 0.35373592, 0
5, 3346095375, 0.6127662, 0.23557565, 0.12715071, -0.74359226, 0.12386574, 0.19977657, 0.40711403, 0
6, 3346112042, 0.6125681, 0.23492794, 0.12797078, -0.74381983, 0.074900754, 0.22879158, 0.40450954, 0
7, 3346128709, 0.61239, 0.23429215, 0.12879093, -0.74402523, 0.14142694, 0.108474135, 0.37049866, 0
8, 3346145376, 0.6121892, 0.23364653, 0.12963992, -0.744246, 0.27465478, 0.07975559, 0.3006239, 0
9, 3346162043, 0.61200047, 0.2330183, 0.13047186, -0.74445283, 0.24141076, -0.002782401, 0.30126762, 0
10, 3346178710, 0.6118296, 0.23241766, 0.13126379, -0.7446419, 0.25947955, -0.013934133, 0.28065968, 0
11, 3346195377, 0.6116828, 0.23186013, 0.13197675, -0.7448102, 0.32927683, -0.104783714, 0.32536316, 0
12, 3346212044, 0.61152065, 0.23129185, 0.13267621, -0.7449957, 0.33580208, -0.12508607, 0.36597347, 0
13, 3346228711, 0.61134446, 0.2308074, 0.13335529, -0.74516946, 0.1998617, -0.05599782, 0.40583992, 0
14, 3346245378, 0.6111613, 0.23044524, 0.13401091, -0.74531406, 0.14760125, -0.1047746, 0.40666866, 0
15, 3346262045, 0.61096734, 0.2301628, 0.13467571, -0.74544054, 0.24297981, -0.12112446, 0.32067585, 0
16, 3346278712, 0.61075807, 0.22996932, 0.13530755, -0.74555725, 0.33346972, -0.13453938, 0.22411633, 0
17, 3346295379, 0.61055946, 0.22985548, 0.13584787, -0.74565685, 0.32925224, -0.1277837, 0.36318874, 0
18, 3346312046, 0.61041033, 0.22976987, 0.1362592, -0.74573004, 0.31103906, -0.1148452, 0.37665653, 0
19, 3346328713, 0.6103046, 0.22973923, 0.13656536, -0.7457701, 0.3496241, -0.13359638, 0.26506615, 0
20, 3346345380, 0.61021006, 0.22975953, 0.13678235, -0.7458015, 0.3488673, -0.1213387, 0.3017559, 0
21, 3346362047, 0.6101069, 0.22981176, 0.13693504, -0.74584174, 0.29731113, -0.088941395, 0.31504917, 0
22, 3346378714, 0.61003333, 0.22990054, 0.13703683, -0.74585575, 0.21997407, -0.025982209, 0.32950306, 0
23, 3346395381, 0.6099837, 0.2300167, 0.13705193, -0.74585783, 0.23484237, -0.009132739, 0.30218315, 0
24, 3346412048, 0.6099483, 0.23015974, 0.13700104, -0.74585205, 0.2487545, -0.08617162, 0.36614513, 0
25, 3346428715, 0.6099005, 0.23034991, 0.13691139, -0.74584895, 0.26851684, -0.06511346, 0.41166115, 0
26, 3346445382, 0.6098338, 0.23062177, 0.1368254, -0.7458353, 0.20790191, -0.05935895, 0.40152454, 0
27, 3346462049, 0.60977507, 0.23095877, 0.13671282, -0.7457996, 0.1840352, -0.017121594, 0.33364964, 0
28, 3346478716, 0.6096997, 0.23134515, 0.13659897, -0.74576235, 0.19872425, 0.0040790555, 0.29907036, 0
29, 3346495383, 0.6095971, 0.2317188, 0.13649099, -0.74575, 0.22155833, 0.06707959, 0.26313972, 0
30, 3346512050, 0.60953134, 0.23205897, 0.13632914, -0.7457276, 0.19929913, 0.071022026, 0.2695055, 0
31, 3346528717, 0.60952204, 0.23233967, 0.13610666, -0.74568856, 0.16848093, 0.016292864, 0.31041336, 0
32, 3346545384, 0.60954434, 0.23259512, 0.13581195, -0.74564433, 0.20637858, 0.014357443, 0.3544922, 0
33, 3346562051, 0.6095713, 0.23286659, 0.13551107, -0.74559236, 0.15131514, 0.0031235935, 0.3833189, 0
34, 3346578718, 0.60958934, 0.23322234, 0.13523458, -0.7455166, 0.08192845, 0.032945976, 0.3859396, 0
35, 3346595385, 0.6095882, 0.23366703, 0.13498601, -0.74542314, 0.16933319, 0.015914345, 0.3546028, 0
36, 3346612052, 0.60955477, 0.23415664, 0.13477272, -0.7453355, 0.20346518, -0.06790234, 0.3082018, 0
37, 3346628719, 0.6095314, 0.23455682, 0.13453045, -0.7452726, 0.20759682, -0.049158715, 0.19017696, 0
38, 3346645386, 0.6095408, 0.23488237, 0.1342211, -0.7452182, 0.112439536, -0.014939997, 0.23740005, 0
39, 3346662053, 0.6095761, 0.23515506, 0.13383564, -0.74517256, 0.050011024, -0.01050483, 0.36112976, 0
40, 3346678720, 0.6096157, 0.23547593, 0.13345745, -0.7451069, 0.080788314, -0.036325492, 0.42335987, 0
41, 3346695387, 0.60962766, 0.23584223, 0.13309005, -0.7450466, 0.14566183, -0.089208096, 0.3829651, 0
42, 3346712054, 0.60960305, 0.23627251, 0.1327635, -0.74498886, 0.17800729, -0.04002692, 0.33925533, 0
43, 3346728721, 0.6095631, 0.23672445, 0.13245109, -0.74493355, 0.17445722, -0.037672773, 0.2844038, 0
44, 3346745388, 0.6095286, 0.23723467, 0.1321305, -0.7448564, 0.18560538, -0.045963876, 0.2772417, 0
45, 3346762055, 0.6094949, 0.23770873, 0.1317627, -0.744798, 0.29013145, -0.043318152, 0.25362492, 0
46, 3346778722, 0.60944486, 0.23816396, 0.13142201, -0.74475384, 0.27346608, 0.026330832, 0.305686, 0
47, 3346795389, 0.60937935, 0.23863862, 0.13111813, -0.7447091, 0.22530083, 0.25252444, 0.3302555, 0
49, 3346828723, 0.60913754, 0.23970191, 0.13063058, -0.7446511, 0.2215751, 0.27295992, 0.33619404, 0
50, 3346845390, 0.6090231, 0.24017695, 0.13033321, -0.74464387, 0.30674538, 0.2910848, 0.33288002, 0
51, 3346862057, 0.6090264, 0.2405137, 0.12988198, -0.7446113, 0.3254324, 0.25723508, 0.2893839, 0
53, 3346895391, 0.60933083, 0.24100164, 0.12881243, -0.7443899, 0.26376137, 0.2445976, 0.44570065, 0
54, 3346912058, 0.60950524, 0.24128546, 0.12828565, -0.74424636, 0.30198276, 0.18335696, 0.49381733, 0
55, 3346928725, 0.6096387, 0.24166125, 0.12783302, -0.74409294, 0.3570541, 0.11775411, 0.44039726, 0
57, 3346962059, 0.60989815, 0.24250625, 0.12706067, -0.74373764, 0.23619352, 0.0821219, 0.2873249, 0
58, 3346978726, 0.61002594, 0.24287085, 0.12670936, -0.7435739, 0.22632073, 0.11639549, 0.27114105, 0
61, 3347028727, 0.6103456, 0.24356431, 0.12558453, -0.74327534, 0.24934256, 0.112474345, 0.2794571, 0
62, 3347045394, 0.6104235, 0.24378897, 0.12520385, -0.74320215, 0.21827091, 0.058752503, 0.3725443, 0
64, 3347078728, 0.6105163, 0.24442567, 0.124453716, -0.7430426, 0.35351658, 0.08300908, 0.37035275, 0
65, 3347095395, 0.61054635, 0.24479313, 0.12408211, -0.7429591, 0.33469924, 0.13612822, 0.3683262, 0
66, 3347112062, 0.61059856, 0.24518627, 0.12367894, -0.74285376, 0.22267278, 0.14588693, 0.32457066, 0
68, 3347145396, 0.6108146, 0.2458056, 0.122643866, -0.7426431, 0.11960827, 0.18655637, 0.26761818, 0
69, 3347162063, 0.6110101, 0.246075, 0.12205021, -0.74249095, 0.18100391, 0.20969664, 0.3166542, 0
70, 3347178730, 0.6111896, 0.24635279, 0.12143685, -0.7423514, 0.3144834, 0.048962917, 0.2732525, 0
72, 3347212064, 0.6115288, 0.24681967, 0.120284855, -0.74210465, 0.21058206, 0.013734257, 0.3006773, 0
73, 3347228731, 0.61171085, 0.24708892, 0.119735785, -0.7419536, 0.115663484, 0.043322816, 0.31490993, 0
74, 3347245398, 0.6118932, 0.24735841, 0.11919418, -0.7418007, 0.10947374, -0.014045722, 0.43904018, 0
76, 3347278732, 0.61214465, 0.24792053, 0.11827925, -0.7415521, 0.11000302, 0.03533536, 0.37329006, 0
77, 3347295399, 0.61226207, 0.24821402, 0.1179097, -0.74141574, 0.106129095, 0.099509224, 0.31285954, 0
78, 3347312066, 0.61235684, 0.24850327, 0.117574364, -0.7412939, 0.15717699, 0.04926502, 0.3474903, 0
80, 3347345400, 0.6125186, 0.24877937, 0.11690882, -0.7411728, 0.13887502, 0.12934653, 0.3051443, 0
81, 3347362067, 0.6125961, 0.24886009, 0.11657387, -0.7411345, 0.13128547, 0.14227812, 0.37509155, 0
82, 3347378734, 0.61270076, 0.2489337, 0.11626607, -0.7410717, 0.14247967, 0.08156583, 0.33065414, 0
84, 3347412068, 0.61287063, 0.24902916, 0.11571963, -0.7409847, 0.20226894, 0.06268608, 0.31112003, 0
85, 3347428735, 0.61294615, 0.24907805, 0.11548077, -0.7409431, 0.19210783, 0.061115567, 0.37733936, 0
88, 3347478736, 0.613053, 0.24922161, 0.11498329, -0.7408836, 0.08649236, 0.058761586, 0.39765453, 0
89, 3347495403, 0.6130758, 0.2492695, 0.11484462, -0.7408702, 0.07794701, 0.07139378, 0.30216885, 0
91, 3347528737, 0.61310273, 0.24930647, 0.11454035, -0.74088246, 0.22408739, -0.03765358, 0.30057907, 0
92, 3347545404, 0.6131066, 0.24929847, 0.114397995, -0.74090403, 0.1426976, -0.06605411, 0.27252388, 0
93, 3347562071, 0.61313885, 0.24926028, 0.11424427, -0.74091387, 0.10277171, -0.048466884, 0.28652573, 0
95, 3347595405, 0.6132196, 0.24924566, 0.11391969, -0.740902, 0.13989207, -0.117901325, 0.40692806, 0
96, 3347612072, 0.61324203, 0.24932304, 0.11376311, -0.74088156, 0.10723861, -0.11208289, 0.40227318, 0
97, 3347628739, 0.6132631, 0.24946529, 0.113588676, -0.74084294, 0.07130421, -0.15042002, 0.3674221, 0
99, 3347662073, 0.6133187, 0.2497981, 0.11324018, -0.7407379, 0.034513306, -0.17071472, 0.28563213, 0
100, 3347678740, 0.6133621, 0.2498771, 0.1130307, -0.7407075, 0.052878026, -0.15561078, 0.23735046, 0
103, 3347728741, 0.6135082, 0.25009987, 0.1124537, -0.74059916, 0.11199385, -0.24528217, 0.43952465, 0
104, 3347745408, 0.6135225, 0.2501774, 0.11228213, -0.740587, 0.02230369, -0.10784406, 0.33302975, 0
105, 3347762075, 0.6135142, 0.2502957, 0.11214021, -0.74057543, -0.07208673, -0.031203555, 0.35323334, 0
107, 3347795409, 0.613503, 0.2504592, 0.11196026, -0.7405568, 0.11730385, -0.08222044, 0.29590988, 0
108, 3347812076, 0.6134854, 0.25042224, 0.11188852, -0.7405946, 0.18405755, -0.029586717, 0.23810387, 0
109, 3347828743, 0.6134913, 0.25034633, 0.11181036, -0.7406272, 0.13803333, 0.004301423, 0.34697247, 0
111, 3347862077, 0.6134508, 0.25031632, 0.11173478, -0.74068224, 0.10894871, -0.026076755, 0.431612, 0
112, 3347878744, 0.61338127, 0.2503902, 0.111762576, -0.74071074, 0.082674086, 0.052469835, 0.3590002, 0
114, 3347912078, 0.61327684, 0.25057346, 0.11182447, -0.7407259, 0.21802102, 0.07732257, 0.30903244, 0
115, 3347928745, 0.6132208, 0.25061694, 0.11185792, -0.7407525, 0.2821632, 0.10558654, 0.32839394, 0
118, 3347978746, 0.6131034, 0.25066462, 0.11190778, -0.7408259, 0.21886434, 0.12581511, 0.38472748, 0
119, 3347995413, 0.6130838, 0.25072557, 0.11192153, -0.74081945, 0.2072535, 0.13646327, 0.38201618, 0
120, 3348012080, 0.61307395, 0.2507997, 0.11190561, -0.7408049, 0.21073785, 0.15147495, 0.2824793, 0
122, 3348045414, 0.6131156, 0.25092682, 0.111739874, -0.7407525, 0.32746616, 0.03529985, 0.29523754, 0
123, 3348062081, 0.61312604, 0.2509836, 0.11164405, -0.74073917, 0.25975066, 0.035646014, 0.34296894, 0
124, 3348078748, 0.6131418, 0.25104654, 0.11154002, -0.7407204, 0.161143, 0.06305345, 0.35097218, 0
126, 3348112082, 0.6131384, 0.25123346, 0.11136415, -0.74068636, 0.23727643, 0.036218513, 0.32178116, 0
127, 3348128749, 0.6131422, 0.25127432, 0.11129299, -0.7406799, 0.22870182, 0.059724394, 0.29837704, 0
128, 3348145416, 0.61314845, 0.25130165, 0.11122413, -0.74067587, 0.14887998, 0.10895382, 0.30272007, 0
130, 3348178750, 0.6131789, 0.2513326, 0.111051366, -0.7406661, 0.1882938, 2.137622E-4, 0.34382057, 0
132, 3348212084, 0.6132002, 0.25131482, 0.110930026, -0.7406727, 0.07710504, 0.032425806, 0.34403038, 0
134, 3348245418, 0.6131947, 0.25118005, 0.110934004, -0.7407223, 0.10866798, -0.086956345, 0.32809544, 0
135, 3348262085, 0.6131609, 0.2510723, 0.11101606, -0.7407745, 0.021653265, -0.10952836, 0.3419199, 0
136, 3348278752, 0.613116, 0.2509426, 0.11115912, -0.7408341, -0.07524586, -0.08997377, 0.3761406, 0
138, 3348312086, 0.6129583, 0.25070587, 0.11162101, -0.7409754, -0.07565623, -0.12760296, 0.38320065, 0
139, 3348328753, 0.61279976, 0.25058046, 0.11197463, -0.7410956, 0.027275063, -0.088271946, 0.35115528, 0
141, 3348362087, 0.6125395, 0.25024793, 0.11268958, -0.74131453, 0.16318882, -0.08082645, 0.2676735, 0
142, 3348378754, 0.61243784, 0.24999069, 0.11302125, -0.7414349, 0.14345822, -0.03339482, 0.3277216, 0
143, 3348395421, 0.61234164, 0.24970274, 0.11333024, -0.7415642, 0.026331838, -0.03435584, 0.41341877, 0
145, 3348428755, 0.6121518, 0.24925444, 0.11392816, -0.7417801, 0.13314779, -0.09464905, 0.22655201, 0
146, 3348445422, 0.6120695, 0.24904989, 0.114214584, -0.74187267, 0.22237505, -0.1827008, 0.29168606, 0
147, 3348462089, 0.6119745, 0.24888067, 0.11450208, -0.7419636, 0.2508622, -0.1503796, 0.3273325, 0
149, 3348495423, 0.6117342, 0.24884163, 0.11513093, -0.7420776, 0.1460485, 0.0138039645, 0.3951645, 0
150, 3348512090, 0.61157894, 0.2489261, 0.11545327, -0.7421271, 0.14585607, 0.056092642, 0.33513927, 0
151, 3348528757, 0.6114386, 0.24904597, 0.11576834, -0.7421534, 0.20937128, 0.064346306, 0.27538967, 0
153, 3348562091, 0.6111773, 0.2491906, 0.11639798, -0.7422217, 0.21606305, 0.0990525, 0.35476875, 0
154, 3348578758, 0.61106384, 0.2492233, 0.11667383, -0.74226075, 0.21072042, 0.15877704, 0.277009, 0
155, 3348595425, 0.6109598, 0.24923128, 0.11689344, -0.74230915, 0.27305618, 0.14554387, 0.29394245, 0
157, 3348628759, 0.6108017, 0.24930125, 0.11721353, -0.74236524, 0.3707539, 0.05572435, 0.3781767, 0
159, 3348662093, 0.61058307, 0.24977417, 0.117537044, -0.74233514, 0.18181683, 0.10594207, 0.34288025, 0
161, 3348695427, 0.6102342, 0.2504846, 0.11792282, -0.74232143, 0.2915673, 0.123844475, 0.25286198, 0
162, 3348712094, 0.6101414, 0.25076318, 0.11801963, -0.7422882, 0.2732153, 0.14965975, 0.31196404, 0
163, 3348728761, 0.6100925, 0.25107974, 0.11811434, -0.74220645, 0.25138524, 0.14010838, 0.38466454, 0
165, 3348762095, 0.60989577, 0.25181228, 0.11829661, -0.7420908, 0.22567947, 0.13801248, 0.35048962, 0
166, 3348778762, 0.6097763, 0.2522582, 0.11841605, -0.7420184, 0.20463014, 0.07271438, 0.35141468, 0
168, 3348812096, 0.6096564, 0.25296715, 0.118482746, -0.7418649, 0.2207633, 0.05870051, 0.20502949, 0
169, 3348828763, 0.6096247, 0.25312993, 0.118430056, -0.741844, 0.17970017, 0.026503077, 0.32308483, 0
170, 3348845430, 0.6096004, 0.25318247, 0.11833233, -0.7418616, 0.091358684, 0.02299683, 0.36613655, 0
172, 3348878764, 0.6097272, 0.2530126, 0.1179965, -0.7418688, -0.019036822, -0.02050086, 0.26375675, 0
174, 3348912098, 0.6098175, 0.2528355, 0.11776305, -0.74189204, 0.15639603, -0.119331695, 0.36624908, 0
176, 3348945432, 0.60974574, 0.25287786, 0.11792829, -0.74191016, -0.11629418, -0.06080925, 0.37606335, 0
177, 3348962099, 0.6096694, 0.25293842, 0.11817546, -0.74191314, -0.14532879, -0.018292803, 0.23941326, 0
178, 3348978766, 0.609536, 0.25299427, 0.118489474, -0.74195355, -0.13564084, -0.04718786, 0.3111925, 0
180, 3349012100, 0.6092344, 0.25295392, 0.119338855, -0.74207896, 0.029011087, -0.08522585, 0.41204166, 0
181, 3349028767, 0.6090902, 0.25295603, 0.11992746, -0.7421018, 0.034513306, -0.064062476, 0.32882977, 0
182, 3349045434, 0.60888416, 0.2530445, 0.120645985, -0.7421241, 0.009616422, -0.03871996, 0.29353046, 0
184, 3349078768, 0.60838187, 0.25317997, 0.12233257, -0.7422138, 0.0028024055, -0.06085878, 0.3635645, 0
185, 3349095435, 0.608114, 0.2532626, 0.12331331, -0.74224293, 0.03486154, 0.004156531, 0.3765278, 0
186, 3349112102, 0.6078192, 0.25343296, 0.12437254, -0.7422494, 0.07340478, 0.04674793, 0.37329102, 0
189, 3349162103, 0.6067514, 0.25457257, 0.12793058, -0.74212843, 0.3250453, 0.029754156, 0.26591682, 0
190, 3349178770, 0.6064024, 0.2550104, 0.12909427, -0.74206173, 0.29627156, 0.007160461, 0.34861755, 0
192, 3349212104, 0.60575354, 0.25590208, 0.13119557, -0.7419162, 0.24820621, 0.16494262, 0.30814934, 0
193, 3349228771, 0.6054436, 0.2564649, 0.13216934, -0.74180204, 0.2989316, 0.12749878, 0.2865467, 0
194, 3349245438, 0.60519594, 0.25700912, 0.13303986, -0.74166006, 0.37510234, 0.08194538, 0.3328619, 0
196, 3349278772, 0.6047942, 0.2580903, 0.13461916, -0.74132735, 0.30802858, 0.16066474, 0.31556892, 0
197, 3349295439, 0.6046293, 0.25871095, 0.1353442, -0.7411135, 0.23160726, 0.18415165, 0.29955578, 0
199, 3349328773, 0.6043862, 0.25961277, 0.13649924, -0.7407844, 0.22328699, 0.13502932, 0.29663658, 0
200, 3349345440, 0.60435283, 0.2598412, 0.13684914, -0.740667, 0.22319692, 0.15530983, 0.24282646, 0
201, 3349362107, 0.6043612, 0.260017, 0.13714856, -0.74054325, 0.23010235, 0.0977682, 0.3174219, 0
204, 3349412108, 0.6042185, 0.26084173, 0.13822001, -0.74017006, 0.21965311, 0.12358897, 0.40467548, 0
205, 3349428775, 0.6041071, 0.26134655, 0.13876343, -0.7399813, 0.20375553, 0.12930113, 0.3002901, 0
207, 3349462109, 0.6038973, 0.2620117, 0.13960034, -0.73976016, 0.14483193, 0.04271232, 0.23429012, 0
208, 3349478776, 0.603874, 0.261998, 0.13968104, -0.73976845, 0.14020208, 0.09345574, 0.29283524, 0
209, 3349495443, 0.60387236, 0.26185954, 0.13959816, -0.73983437, 0.22355206, 0.05606644, 0.28823757, 0
211, 3349528777, 0.6039822, 0.26159772, 0.13938102, -0.7398784, 0.18818763, 0.0017710607, 0.35757923, 0
212, 3349545444, 0.60402906, 0.26151884, 0.13926771, -0.7398895, 0.1255707, 0.01928101, 0.32718563, 0
213, 3349562111, 0.6040573, 0.26142678, 0.13915375, -0.73992044, 0.08218616, 0.05363836, 0.2665472, 0
215, 3349595445, 0.60415053, 0.26093104, 0.13870136, -0.74010414, 0.17249501, 0.054871872, 0.3462534, 0
216, 3349612112, 0.604213, 0.26060736, 0.13840427, -0.74022275, 0.19237603, -0.012574727, 0.31667137, 0
217, 3349628779, 0.604279, 0.2604147, 0.13816947, -0.74028075, 0.18728597, -0.015736988, 0.3344574, 0
219, 3349662113, 0.6043338, 0.2604189, 0.13793741, -0.7402776, 0.12851079, 0.11935189, 0.3502493, 0
220, 3349678780, 0.6043099, 0.26056185, 0.13793138, -0.74024796, 0.10117314, 0.05878525, 0.27595806, 0
222, 3349712114, 0.6043919, 0.26040682, 0.13753824, -0.7403086, 0.2282103, -1.8367177E-4, 0.22814846, 0
223, 3349728781, 0.60453725, 0.26007113, 0.13712609, -0.74038464, 0.20880781, 0.03358679, 0.32760715, 0
224, 3349745448, 0.60472226, 0.2596998, 0.13668805, -0.7404449, 0.13417661, 0.13837616, 0.3243637, 0
226, 3349778782, 0.6049994, 0.2591561, 0.13583386, -0.74056613, 0.11904121, 0.03346056, 0.3693018, 0
227, 3349795449, 0.60510904, 0.25901884, 0.13544944, -0.740595, 0.18224174, -0.047738902, 0.33363438, 0
228, 3349812116, 0.60524803, 0.25889233, 0.13505407, -0.7405979, 0.23452432, -0.099246904, 0.26125717, 0
231, 3349862117, 0.60565865, 0.25870854, 0.13386881, -0.7405414, 0.113972835, 0.014402169, 0.38345242, 0
232, 3349878784, 0.60576314, 0.25874037, 0.1334976, -0.74051183, 0.0921906, -0.032943293, 0.3362999, 0
234, 3349912118, 0.6059823, 0.258945, 0.13280147, -0.740386, 0.1442052, -0.07391523, 0.30189037, 0
235, 3349928785, 0.60610914, 0.25902328, 0.1324626, -0.7403156, 0.1331241, -0.068230346, 0.2672825, 0
236, 3349945452, 0.60624576, 0.25906205, 0.13209839, -0.7402553, 0.09548004, -0.026699796, 0.33288383, 0
238, 3349978786, 0.60649735, 0.25890544, 0.13135543, -0.74023634, 0.024246015, -0.058839843, 0.42267418, 0
239, 3349995453, 0.6066456, 0.2586653, 0.13087502, -0.74028385, 0.06473293, -0.04655082, 0.30507946, 0
240, 3350012120, 0.60677683, 0.25848016, 0.13044673, -0.7403166, 0.0646927, -0.0059054918, 0.30988216, 0
242, 3350045454, 0.60700166, 0.25838572, 0.12982441, -0.74027467, 0.055753518, -0.08609758, 0.33334255, 0
243, 3350062121, 0.6070923, 0.2583999, 0.12960047, -0.7402345, 0.048725154, -0.11971287, 0.27686882, 0
246, 3350112122, 0.6074995, 0.2579324, 0.12867832, -0.7402244, 0.08949682, -0.1434809, 0.39484596, 0
247, 3350128789, 0.60761315, 0.25779867, 0.12839572, -0.7402268, 0.08260927, -0.08021176, 0.40985298, 0
249, 3350162123, 0.60764444, 0.25782818, 0.12788542, -0.7402792, 0.02911055, -0.13963251, 0.18848419, 0
250, 3350178790, 0.60767794, 0.25789097, 0.12760219, -0.7402789, 0.053739443, -0.16449933, 0.22064781, 0
251, 3350195457, 0.6077503, 0.2578409, 0.12725142, -0.740297, 0.099841446, -0.21506204, 0.3408022, 0
253, 3350228791, 0.60792, 0.25774273, 0.12652111, -0.7403171, 0.052915573, -0.106870264, 0.2953329, 0
254, 3350245458, 0.6079905, 0.2577406, 0.12616363, -0.74032086, 0.10621715, -0.11432123, 0.3022356, 0
255, 3350262125, 0.6080278, 0.2577923, 0.12583601, -0.7403281, 0.12138117, -0.11416416, 0.38040543, 0
257, 3350295459, 0.6080683, 0.25799495, 0.12529632, -0.74031574, 0.025099387, -0.05253778, 0.24335194, 0
258, 3350312126, 0.6081475, 0.25809953, 0.12501355, -0.74026203, 0.08148612, -0.06625561, 0.26595402, 0
261, 3350362127, 0.608344, 0.25809094, 0.12392989, -0.7402857, 0.16777642, 0.05904028, 0.31281853, 0
262, 3350378794, 0.60838425, 0.25814897, 0.123617895, -0.74028456, 0.11407766, 0.04257645, 0.34436798, 0
263, 3350395461, 0.6084349, 0.25820893, 0.12335895, -0.7402653, 0.14799687, 0.094334394, 0.30237675, 0
265, 3350428795, 0.60851306, 0.25819597, 0.1227894, -0.7403003, 0.04720862, 0.112677075, 0.26871967, 0
266, 3350445462, 0.60861164, 0.25797462, 0.122383766, -0.74036366, 0.06165605, 0.10144367, 0.23072338, 0
267, 3350462129, 0.6087362, 0.25752243, 0.12187275, -0.74050295, 0.09622657, 0.09695637, 0.3192749, 0
269, 3350495463, 0.6088896, 0.2564536, 0.12089748, -0.7409075, 0.09070446, 0.12595162, 0.38700867, 0
270, 3350512130, 0.6089474, 0.25616756, 0.12065882, -0.7409978, 0.09693064, 0.11688571, 0.36452198, 0
271, 3350528797, 0.6089684, 0.25603992, 0.12055467, -0.74104154, 0.1337211, 0.049736857, 0.38518143, 0
273, 3350562131, 0.6089798, 0.25576574, 0.12046091, -0.7411422, 0.11101956, 0.019289894, 0.27541542, 0
276, 3350612132, 0.6090782, 0.25538558, 0.12028612, -0.7412207, 0.17022054, -5.452878E-4, 0.35795212, 0
277, 3350628799, 0.6090516, 0.255481, 0.12033047, -0.7412026, 0.14850469, -0.042953182, 0.33674908, 0
278, 3350645466, 0.60900474, 0.2556677, 0.120397076, -0.7411659, 0.1959985, -0.06396678, 0.34784794, 0
280, 3350678800, 0.60892785, 0.25602004, 0.120462775, -0.7410968, 0.17884254, -0.09270245, 0.23510933, 0
281, 3350695467, 0.6089381, 0.25603282, 0.12037963, -0.7410974, 0.17233318, 0.015848996, 0.20312977, 0
282, 3350712134, 0.6089841, 0.2559745, 0.120227836, -0.7411044, 0.13575484, -0.031971462, 0.28522015, 0
284, 3350745468, 0.60902137, 0.25590113, 0.11985561, -0.7411594, 0.10464832, -0.05923314, 0.38704586, 0
286, 3350778802, 0.60907066, 0.25603124, 0.11957189, -0.7411198, 0.09325944, -0.043660324, 0.28189564, 0
288, 3350812136, 0.60916096, 0.2560059, 0.11928129, -0.74110115, 0.11047731, -0.14367357, 0.24555588, 0
289, 3350828803, 0.609226, 0.25577933, 0.11901891, -0.7411682, 0.10533719, -0.03564984, 0.273077, 0
290, 3350845470, 0.60927916, 0.25559592, 0.11878, -0.7412261, 0.05605705, -0.02780096, 0.42088223, 0
292, 3350878804, 0.60933816, 0.25555637, 0.1185039, -0.7412355, 0.06053312, -0.03889025, 0.3249092, 0
293, 3350895471, 0.60929394, 0.25563815, 0.11846708, -0.74124944, 0.096851066, -0.016102515, 0.32133675, 0
294, 3350912138, 0.609225, 0.2557663, 0.1184797, -0.7412599, 0.122501865, 0.050069418, 0.3075056, 0
296, 3350945472, 0.6090846, 0.25607082, 0.11861669, -0.7412481, 0.11974569, 0.023924397, 0.29606152, 0
297, 3350962139, 0.6090176, 0.2561687, 0.11868477, -0.7412584, 0.16768947, 0.030382982, 0.24690056, 0
298, 3350978806, 0.60894966, 0.25621167, 0.11873457, -0.74129146, 0.15532161, 0.0729099, 0.30549908, 0
300, 3351012140, 0.6088161, 0.2562527, 0.11882015, -0.7413733, 0.14816606, 0.1258031, 0.3323679, 0
301, 3351028807, 0.60877997, 0.2563262, 0.1188576, -0.7413716, 0.16580258, 0.07584753, 0.40495682, 0
304, 3351078808, 0.6087368, 0.2565691, 0.11898839, -0.74130195, 0.14973535, 0.02092193, 0.2674179, 0
305, 3351095475, 0.6087676, 0.2565589, 0.11895934, -0.74128485, 0.15375657, 0.03042137, 0.26988316, 0
307, 3351128809, 0.6089008, 0.25638428, 0.11885039, -0.74125326, 0.17281976, 0.04035884, 0.31600666, 0
308, 3351145476, 0.60894465, 0.25639692, 0.11881626, -0.74121827, 0.15591101, 0.047896117, 0.41312885, 0
309, 3351162143, 0.60889405, 0.25649428, 0.11880385, -0.74122816, 0.13983843, -0.0066369376, 0.36662388, 0
311, 3351195477, 0.6088464, 0.2568102, 0.118901655, -0.7411424, 0.16083702, 0.040505826, 0.26524925, 0
312, 3351212144, 0.6088603, 0.2568765, 0.11891042, -0.7411065, 0.13791867, 0.0024254788, 0.2951517, 0
313, 3351228811, 0.60890007, 0.2567907, 0.118830144, -0.7411166, 0.14310059, -0.0056723957, 0.24387074, 0
315, 3351262145, 0.60895944, 0.256458, 0.118494496, -0.7412367, 0.1649168, 0.018272184, 0.3774128, 0
316, 3351278812, 0.6089977, 0.25635844, 0.11836751, -0.74126005, 0.15370114, -0.0014555443, 0.41165352, 0
319, 3351328813, 0.6090125, 0.25638956, 0.11817736, -0.7412673, 0.095437124, -0.053146157, 0.2793417, 0
320, 3351345480, 0.6090398, 0.256373, 0.11812128, -0.7412596, 0.15568486, -0.07046326, 0.24984741, 0
321, 3351362147, 0.60909075, 0.2563071, 0.118050754, -0.7412517, 0.15846197, -0.0510643, 0.3275509, 0
323, 3351395481, 0.60912293, 0.25631756, 0.117947936, -0.7412381, 0.105314836, 0.006752103, 0.3661499, 0
324, 3351412148, 0.6091013, 0.25641823, 0.11796121, -0.741219, 0.175552, 0.028549701, 0.32244778, 0
325, 3351428815, 0.6090912, 0.25666672, 0.118054196, -0.74112654, 0.20338719, -0.0061775628, 0.39139462, 0
327, 3351462149, 0.6091781, 0.2564667, 0.117826, -0.74116045, 0.58763623, 0.31108198, -0.13956451, 0
328, 3351478816, 0.60905814, 0.25667843, 0.118042946, -0.74115133, -0.025257187, 0.080734, 1.1554546, 0
329, 3351495483, 0.60886824, 0.25719312, 0.118378565, -0.74107546, 0.29943427, 0.05800463, 0.39676285, 0
331, 3351528817, 0.6083156, 0.25932983, 0.119545914, -0.74059707, 0.40867713, 0.2082924, 0.23747826, 0
334, 3351578818, 0.60779953, 0.26221165, 0.12136255, -0.73971, 0.14698368, 0.36505374, 0.32437325, 0
335, 3351595485, 0.6077348, 0.2627051, 0.12164205, -0.7395421, 0.104311705, 0.32658064, 0.25500202, 0
336, 3351612152, 0.6078812, 0.26266494, 0.12157057, -0.739448, 0.1355711, 0.26059365, 0.069052696, 0
338, 3351645486, 0.608454, 0.26143762, 0.12066528, -0.73956007, 0.21173158, 0.1048927, 0.4658785, 0
339, 3351662153, 0.608742, 0.26051, 0.12000699, -0.7397576, 0.1606153, 0.062873945, 0.32675076, 0
342, 3351712154, 0.6093529, 0.2587453, 0.11885753, -0.7400593, 0.07779525, -0.0957755, 0.2907648, 0
343, 3351728821, 0.6095061, 0.25831068, 0.118646406, -0.7401188, 0.07062518, -0.116956845, 0.2902813, 0
344, 3351745488, 0.60969394, 0.25787514, 0.11844885, -0.74014765, 0.044988222, -0.2139536, 0.30867195, 0
347, 3351795489, 0.61033154, 0.25607538, 0.11751034, -0.7403968, -0.14099935, -0.25237375, 0.3382883, 0
348, 3351812156, 0.61051387, 0.25563148, 0.117220424, -0.74044573, -0.097838104, -0.31246543, 0.3480339, 0
351, 3351862157, 0.6108864, 0.25485003, 0.1166234, -0.74050224, 0.08959763, -0.30511966, 0.2671957, 0
352, 3351878824, 0.6109717, 0.25477356, 0.116497636, -0.7404778, -0.037652545, -0.24975637, 0.28594494, 0
354, 3351912158, 0.61109143, 0.25480393, 0.11635682, -0.74039066, 0.066738285, -0.23492773, 0.3337717, 0
355, 3351928825, 0.6110054, 0.2549269, 0.11632969, -0.7404237, 0.020223899, -0.18248168, 0.36111355, 0
357, 3351962159, 0.6109305, 0.25514856, 0.11629963, -0.7404138, 0.058417793, -0.08212455, 0.32524204, 0
358, 3351978826, 0.6108976, 0.25524244, 0.11628056, -0.74041164, 0.07334309, -0.064668834, 0.3046112, 0
359, 3351995493, 0.61089593, 0.2552705, 0.116228715, -0.7404114, 0.049001414, -0.0702625, 0.25731182, 0
361, 3352028827, 0.61104935, 0.25509644, 0.11592901, -0.7403918, 0.16791232, -0.034099948, 0.32986736, 0
362, 3352045494, 0.611062, 0.2550794, 0.11579803, -0.7404078, 0.13697477, 0.04549844, 0.40198708, 0
363, 3352062161, 0.6110593, 0.25516024, 0.11576003, -0.74038804, 0.06876868, 0.073166855, 0.36902714, 0
365, 3352095495, 0.61099607, 0.2554119, 0.115763575, -0.74035305, 0.0913037, 0.038302466, 0.2934456, 0
366, 3352112162, 0.61095, 0.25541568, 0.1157954, -0.7403846, 0.15390208, 0.07724882, 0.35220623, 0
367, 3352128829, 0.6109131, 0.25534633, 0.115837775, -0.7404323, 0.054743756, 0.18752769, 0.39134693, 0
369, 3352162163, 0.6108264, 0.2551113, 0.11588718, -0.74057704, 0.18368362, 0.14115746, 0.35445118, 0
370, 3352178830, 0.6107341, 0.25494933, 0.11594421, -0.7407001, 0.26971576, 0.04594032, 0.34775066, 0
371, 3352195497, 0.61068606, 0.25472724, 0.115977675, -0.740811, 0.16463897, 0.026917497, 0.309721, 0
373, 3352228831, 0.6106846, 0.25413564, 0.11603952, -0.74100566, 0.048346747, 0.08468152, 0.265934, 0
374, 3352245498, 0.6107071, 0.25375286, 0.11611622, -0.7411062, 0.04966592, 0.06323623, 0.35949993, 0
375, 3352262165, 0.61060965, 0.25337175, 0.116152234, -0.7413113, 0.061441477, 0.07489425, 0.4340973, 0
378, 3352312166, 0.61039543, 0.2522245, 0.11632328, -0.741852, 0.08609026, -0.10381112, 0.32672787, 0
379, 3352328833, 0.61035913, 0.25184098, 0.11639178, -0.7420012, 0.054055266, -0.116692565, 0.33269978, 0
381, 3352362167, 0.6103082, 0.25108066, 0.11652179, -0.7422804, 0.01774067, -0.030129462, 0.34640026, 0
382, 3352378834, 0.61031437, 0.25069597, 0.116593525, -0.7423941, 0.105542816, -0.12874012, 0.37318516, 0
384, 3352412168, 0.61024415, 0.2500133, 0.116784275, -0.742652, 0.16232048, -0.16777393, 0.3074751, 0
385, 3352428835, 0.6102587, 0.2496845, 0.11684828, -0.7427405, 0.042825304, -0.103416234, 0.27118397, 0
386, 3352445502, 0.61031306, 0.24940531, 0.11689017, -0.74278295, 0.0480678, -0.104406, 0.30163002, 0
388, 3352478836, 0.61031675, 0.24887493, 0.11689454, -0.74295735, 0.09229029, -0.15845862, 0.34908676, 0
389, 3352495503, 0.6103368, 0.2486186, 0.116924286, -0.74302197, 0.07579749, -0.13009837, 0.28334618, 0
390, 3352512170, 0.6103248, 0.24839604, 0.116947845, -0.74310243, 0.07646803, -0.115329474, 0.28063202, 0
393, 3352562171, 0.6103625, 0.24778792, 0.11692469, -0.7432782, 0.047291767, 0.010767234, 0.34208202, 0
394, 3352578838, 0.6103943, 0.24767335, 0.11691916, -0.7432912, 0.044419847, 0.0052835387, 0.28023338, 0
395, 3352595505, 0.61043566, 0.24753867, 0.11689693, -0.7433056, 0.16915303, -0.04752285, 0.30803776, 0
396, 3352612172, 0.61044323, 0.24738613, 0.11687817, -0.74335307, 0.21058273, -0.08353643, 0.3479452, 0
397, 3352628839, 0.6103621, 0.24725097, 0.116803244, -0.7434764, 0.08895302, -0.02473523, 0.25941277, 0
398, 3352645506, 0.6104198, 0.24710956, 0.116632, -0.743503, 0.09963716, 0.003867277, 0.25559235, 0
399, 3352662173, 0.61050534, 0.24692129, 0.11635986, -0.7435377, 0.18632688, -0.04687743, 0.34655666, 0
400, 3352678840, 0.6106007, 0.24669893, 0.11607334, -0.74357826, 0.14661601, -0.1296461, 0.37981892, 0
401, 3352695507, 0.6107265, 0.24612725, 0.115512595, -0.74375165, 0.15279837, -0.30436182, -0.3999548, 0
402, 3352712174, 0.61071455, 0.24622747, 0.11541419, -0.74374354, 0.07837795, 0.12066215, 1.0897121, 0
403, 3352728841, 0.61058563, 0.24621736, 0.11542849, -0.74385065, -0.016226146, -0.12525186, 0.82181835, 0
404, 3352745508, 0.61039704, 0.24689011, 0.11563344, -0.7437504, 0.058068443, -0.027492372, 0.31515408, 0
405, 3352762175, 0.6102431, 0.24736933, 0.11584553, -0.7436845, 0.36196962, 0.11898883, 0.22803593, 0
406, 3352778842, 0.6100743, 0.24780712, 0.11601406, -0.743651, 0.21503377, 0.19322085, 0.011382103, 0
407, 3352795509, 0.60995936, 0.24798337, 0.116086684, -0.74367505, 0.24602652, 0.39793482, 0.24166584, 0
408, 3352812176, 0.6098763, 0.24809325, 0.11621297, -0.7436868, 0.26416773, 0.5024748, 0.33415127, 0
409, 3352828843, 0.6096978, 0.24830943, 0.11648605, -0.7437184, 0.2550238, 0.47915483, 0.5903368, 0
410, 3352845510, 0.60962296, 0.24844123, 0.11672541, -0.74369824, 0.33975667, 0.45231482, 0.49332142, 0
411, 3352862177, 0.60948956, 0.24860598, 0.116963744, -0.7437151, 0.35102844, 0.45600495, 0.24230671, 0
412, 3352878844, 0.60952055, 0.24860702, 0.11694132, -0.743693, 0.37383726, 0.30616724, 0.26826572, 0
413, 3352895511, 0.6096196, 0.24838199, 0.116670296, -0.7437294, 0.41820616, 0.2531038, 0.15651989, 0
414, 3352912178, 0.6098048, 0.24797472, 0.11626555, -0.7437768, 0.31128424, 0.2220222, 0.21026707, 0
415, 3352928845, 0.61005604, 0.2474499, 0.115818284, -0.7438153, 0.037608936, 0.17033042, 0.3455286, 0
416, 3352945512, 0.6103314, 0.24697784, 0.11544222, -0.7438049, -0.13414733, 0.094035, 0.42008305, 0
417, 3352962179, 0.610609, 0.24659082, 0.115200944, -0.74374276, -0.011933133, -0.08151909, 0.32484913, 0
418, 3352978846, 0.61079955, 0.2462599, 0.11510497, -0.7437108, 0.13369763, -0.23506215, 0.25810242, 0
419, 3352995513, 0.6109218, 0.24591044, 0.115081236, -0.7437297, 0.016609918, -0.2588634, 0.34827232, 0
420, 3353012180, 0.61098415, 0.24553393, 0.11504927, -0.74380785, -0.1868727, -0.15770099, 0.42115784, 0
421, 3353028847, 0.61104864, 0.24514404, 0.11510185, -0.7438754, -0.20314467, -0.1834988, 0.37145233, 0
423, 3353062181, 0.6109724, 0.24429773, 0.11554766, -0.74414724, -0.124145575, -0.27422878, 0.30667305, 0
424, 3353078848, 0.61093915, 0.24391831, 0.11588116, -0.74424726, -0.096395776, -0.2216137, 0.3240385, 0
425, 3353095515, 0.61092085, 0.24359252, 0.11621626, -0.7443167, -0.0029000805, -0.25328404, 0.32228947, 0
427, 3353128849, 0.6108567, 0.24292664, 0.11678775, -0.74449736, 0.13904585, -0.33150625, 0.24573898, 0
428, 3353145516, 0.6108272, 0.24257763, 0.117003635, -0.74460167, 0.036505252, -0.31230804, 0.302186, 0
429, 3353162183, 0.6108192, 0.24224113, 0.11720879, -0.74468535, -0.060626324, -0.26142776, 0.42289448, 0
432, 3353212184, 0.61059153, 0.24142285, 0.11807335, -0.7450012, -0.13668488, -0.12421347, 0.2998886, 0
433, 3353228851, 0.61054444, 0.2412453, 0.1183739, -0.74504966, -0.037906233, -0.21673356, 0.2685566, 0
435, 3353262185, 0.61043376, 0.24073909, 0.11875309, -0.7452438, 0.11096055, -0.24846108, 0.36204815, 0
436, 3353278852, 0.61039615, 0.24047478, 0.11888826, -0.7453383, -0.0300236, -0.106278285, 0.31468678, 0
439, 3353328853, 0.61027133, 0.23997368, 0.11919318, -0.74555314, 0.16977875, -0.25332662, 0.31270218, 0
440, 3353345520, 0.6102403, 0.23981752, 0.11925751, -0.7456186, 0.0574321, -0.16628188, 0.25631523, 0
442, 3353378854, 0.6102596, 0.23958704, 0.11924334, -0.7456792, 0.0077044917, -0.16697419, 0.43293667, 0
443, 3353395521, 0.61024445, 0.239464, 0.119204395, -0.7457374, 0.092048444, -0.19593042, 0.30976486, 0
444, 3353412188, 0.610223, 0.23937656, 0.1192036, -0.7457829, 0.07998076, -0.17899652, 0.29066277, 0
446, 3353445522, 0.6101239, 0.23935506, 0.11938931, -0.74584126, -0.034232352, -0.18550731, 0.43452263, 0
447, 3353462189, 0.61002403, 0.23940946, 0.11952823, -0.7458833, 0.0071271574, -0.07659895, 0.4850378, 0
448, 3353478856, 0.60989577, 0.23951274, 0.119728304, -0.7459229, 0.015375009, 0.015399093, 0.40452194, 0
450, 3353512190, 0.6097034, 0.23948874, 0.12005542, -0.7460352, 0.16375163, -0.04324744, 0.11669159, 0
451, 3353528857, 0.6096568, 0.23927006, 0.1201531, -0.74612784, 0.13237667, -0.046337087, 0.3003664, 0
454, 3353578858, 0.60944676, 0.23878473, 0.12067004, -0.7463713, 0.1309786, 0.07397396, 0.33437347, 0
455, 3353595525, 0.60931, 0.23867175, 0.120845534, -0.7464908, 0.25149566, 0.045899894, 0.20548344, 0
456, 3353612192, 0.6091995, 0.23852609, 0.120959535, -0.7466091, 0.26607227, 0.042713158, 0.3025036, 0
458, 3353645526, 0.60909635, 0.23833804, 0.1211258, -0.7467263, 0.1700538, 0.03121811, 0.31742, 0
459, 3353662193, 0.60904306, 0.23828337, 0.121185884, -0.74677753, 0.12514624, 0.07960453, 0.24018097, 0
460, 3353678860, 0.6089958, 0.23818688, 0.1211874, -0.7468466, 0.0646927, 0.07100562, 0.22549629, 0
462, 3353712194, 0.60905385, 0.23785044, 0.12112443, -0.74691653, 0.07746512, -0.052739948, 0.35203457, 0
463, 3353728861, 0.60905814, 0.2377724, 0.121172786, -0.74693006, 0.035230905, -0.068096116, 0.5447712, 0
465, 3353762195, 0.60894454, 0.23783426, 0.12153179, -0.74694484, 0.016442731, 0.012571431, 0.3144989, 0
466, 3353778862, 0.6089088, 0.23783073, 0.121690005, -0.7469494, 0.011759017, -0.017382324, 0.17416096, 0
469, 3353828863, 0.6089919, 0.23727398, 0.12167624, -0.7470608, 0.14850938, -0.14713193, 0.41553402, 0
470, 3353845530, 0.60901654, 0.2371677, 0.12175533, -0.7470616, 0.058821682, -0.12336278, 0.45911884, 0
471, 3353862197, 0.60899717, 0.23713006, 0.121934585, -0.7470601, 0.060560834, -0.035379194, 0.32739544, 0
473, 3353895531, 0.60884637, 0.23687255, 0.12244508, -0.74718124, -0.16188462, 0.03258682, 0.24276543, 0
474, 3353912198, 0.60882926, 0.23664844, 0.12268594, -0.74722666, -0.07721188, 0.015015377, 0.4218502, 0
475, 3353928865, 0.60876524, 0.23648025, 0.122968934, -0.74728554, 0.14384913, -0.020176291, 0.55765724, 0
477, 3353962199, 0.60845196, 0.2364766, 0.123811185, -0.74740285, 0.35329843, 0.11683452, 0.31460285, 0
478, 3353978866, 0.60825485, 0.23656207, 0.12428388, -0.74745756, 0.2795566, 0.18042186, 0.24239731, 0
479, 3353995533, 0.6080936, 0.23650897, 0.1246784, -0.74754006, 0.107155465, 0.24910617, 0.2573595, 0
481, 3354028867, 0.608042, 0.23571582, 0.12495078, -0.74778694, 0.06521482, 0.27655852, 0.19378376, 0
483, 3354062201, 0.60817856, 0.23484053, 0.12487087, -0.7479646, 0.44944656, -0.1728676, 0.44356632, 0
485, 3354095535, 0.60832614, 0.23447333, 0.124684334, -0.74799097, 0.15466784, -0.1356223, 0.32925224, 0
486, 3354112202, 0.608459, 0.23432271, 0.12447749, -0.7479647, -0.1253977, -0.38572598, 0.17693901, 0
487, 3354128869, 0.60859823, 0.23422085, 0.124240056, -0.74792266, 0.093791805, 0.03527158, -0.1411314, 0
489, 3354162203, 0.6084415, 0.23444554, 0.124235734, -0.7479804, -0.054795764, -0.18045816, 0.1257286, 0
490, 3354178870, 0.60838294, 0.23483674, 0.12418926, -0.7479131, 0.16801804, -0.26421136, 0.25377083, 0
492, 3354212204, 0.6083491, 0.23545639, 0.12389374, -0.74779487, 0.31697804, -0.18947059, 0.3295946, 0
493, 3354228871, 0.6083129, 0.23579139, 0.123864464, -0.7477235, 0.120295346, 0.2622281, 0.35455132, 0
494, 3354245538, 0.60819066, 0.23627679, 0.12397528, -0.74765134, -0.13379486, 0.43217286, 0.33100796, 0
496, 3354278872, 0.6078159, 0.23729411, 0.12464291, -0.74752295, 0.1644262, 0.39204687, 0.44450092, 0
497, 3354295539, 0.6075595, 0.23770194, 0.12507552, -0.7475296, 0.24191791, 0.20317909, 0.49536705, 0
498, 3354312206, 0.60729426, 0.23814194, 0.12549627, -0.7475343, 0.39791876, 0.25796592, 0.36283112, 0
500, 3354345540, 0.607206, 0.23889269, 0.12591206, -0.74729675, 0.36876106, 0.2145631, 0.2086134, 0
501, 3354362207, 0.60728043, 0.23895094, 0.12569736, -0.7472537, 0.20923696, 0.17792578, 0.19265747, 0
502, 3354378874, 0.6074093, 0.23877406, 0.12517679, -0.7472929, 0.22261354, 0.09245211, 0.15935898, 0
504, 3354412208, 0.60781044, 0.23862705, 0.1240834, -0.74719614, 0.23238374, -0.06706484, 0.50202084, 0
505, 3354428875, 0.6079642, 0.23878454, 0.12366067, -0.7470907, 0.026660178, -0.08380171, 0.43933964, 0
506, 3354445542, 0.60816586, 0.23890825, 0.12316739, -0.74696845, -0.11088947, -0.2080744, 0.2254057, 0
508, 3354478876, 0.6087312, 0.23876087, 0.12201669, -0.74674404, -0.1882786, -0.26724154, 0.5558481, 0
510, 3354512210, 0.60906315, 0.23891498, 0.12154223, -0.74650127, -0.19818021, -0.25022873, 0.3270712, 0
512, 3354545544, 0.609159, 0.23918629, 0.121597424, -0.7463273, -0.010848201, -0.26239684, 0.21392536, 0
513, 3354562211, 0.60917705, 0.23914261, 0.12162931, -0.7463213, -0.015363387, -0.2568694, 0.29813766, 0
516, 3354612212, 0.6093953, 0.23870392, 0.121312104, -0.74633515, 0.1277495, -0.28438443, 0.29481792, 0
517, 3354628879, 0.6094558, 0.23858275, 0.12120817, -0.74634135, 0.032931507, -0.250918, 0.40853024, 0
519, 3354662213, 0.6094953, 0.2384119, 0.12106761, -0.7463865, -0.15934888, -0.18465814, 0.3899088, 0
520, 3354678880, 0.6095227, 0.23826025, 0.12094285, -0.7464328, -0.121063784, -0.17312011, 0.22445202, 0
521, 3354695547, 0.60958457, 0.2380196, 0.12079041, -0.7464838, -0.009873461, -0.21295185, 0.28275776, 0
523, 3354728881, 0.60959995, 0.23738773, 0.12078129, -0.74667394, -0.1656868, -0.16289094, 0.3067875, 0
524, 3354745548, 0.6095846, 0.23702721, 0.12100923, -0.74676406, -0.38419196, -0.00961698, 0.40506077, 0
527, 3354795549, 0.6091472, 0.23592588, 0.122181885, -0.7472787, 0.40231124, -0.11776054, 0.30139923, 0
528, 3354812216, 0.6089691, 0.23555875, 0.122689545, -0.74745643, 0.29907352, -0.045450296, 0.29816437, 0
529, 3354828883, 0.6088, 0.23516323, 0.12316254, -0.74764085, 0.055027995, 0.12621164, 0.35622787, 0
531, 3354862217, 0.6083813, 0.23432972, 0.124141544, -0.7480814, 0.033034544, 0.27333874, 0.28686428, 0
532, 3354878884, 0.6082443, 0.23376866, 0.12460722, -0.7482911, 0.2976265, 0.20977694, 0.29021263, 0
533, 3354895551, 0.60813284, 0.23315683, 0.12501961, -0.7485036, 0.41168717, 0.084911674, 0.4059925, 0
535, 3354928885, 0.60787845, 0.23181859, 0.1256419, -0.74902153, -0.040035695, 0.27731487, 0.35402107, 0
536, 3354945552, 0.6077672, 0.23106442, 0.12589245, -0.7493027, -0.23182808, 0.1362599, 0.3274498, 0
537, 3354962219, 0.6076733, 0.2302266, 0.12615232, -0.74959296, -0.07091306, -0.0058923042, 0.24349022, 0
539, 3354995553, 0.6074587, 0.2285535, 0.12682964, -0.75016433, 0.10568475, -0.12960014, 0.44123363, 0
541, 3355028887, 0.60722506, 0.22702926, 0.1276176, -0.75068253, 0.060353193, -0.1416544, 0.3271017, 0
543, 3355062221, 0.60693055, 0.22552209, 0.12858373, -0.7512099, -0.06285408, -0.06372394, 0.32260895, 0
544, 3355078888, 0.6067965, 0.22476617, 0.12909734, -0.7514568, 0.007865868, -0.09854943, 0.52064705, 0
545, 3355095555, 0.6066742, 0.2240414, 0.12964061, -0.75167847, 0.12707159, -0.030774437, 0.41348934, 0
547, 3355128889, 0.60638684, 0.2228323, 0.13075203, -0.75207704, 0.31875584, -0.14961533, 0.23071003, 0
548, 3355145556, 0.6062819, 0.22224754, 0.13121566, -0.7522538, 0.28986657, -0.12662317, 0.3049488, 0
550, 3355178890, 0.60607874, 0.22129248, 0.13209811, -0.75254464, 0.1466826, 0.34909812, 0.44211578, 0
551, 3355195557, 0.60591024, 0.22110327, 0.13253224, -0.7526597, 0.39425796, 0.29541865, 0.2833004, 0
552, 3355212224, 0.6056827, 0.22108044, 0.13292415, -0.7527802, 0.7479526, 0.17210162, 0.27586174, 0
554, 3355245558, 0.6053592, 0.22130464, 0.13332446, -0.75290394, 0.5251626, 0.4901354, 0.40197182, 0
556, 3355278892, 0.6051532, 0.22200882, 0.13353214, -0.7528252, 0.45829564, 0.7326286, 0.34095097, 0
558, 3355312226, 0.6046822, 0.22289033, 0.1341024, -0.7528419, 0.43625012, 0.80019474, 0.617259, 0
559, 3355328893, 0.60440445, 0.22340289, 0.13465932, -0.7528136, 0.3532913, 0.8953081, 0.84212303, 0
560, 3355345560, 0.603894, 0.22410424, 0.13547798, -0.75286794, 0.38870847, 1.0005572, 0.62573814, 0
562, 3355378894, 0.6026546, 0.22554168, 0.1377655, -0.7530168, 0.9971752, 0.9662806, -0.22540951, 0
563, 3355395561, 0.602202, 0.22624236, 0.1391435, -0.7529153, 0.85825074, 0.99204683, 0.32671833, 0
564, 3355412228, 0.60185254, 0.2267862, 0.14030492, -0.75281554, 0.6494494, 1.0627482, 1.0293884, 0
566, 3355445562, 0.60150886, 0.22914815, 0.14225274, -0.752009, 1.5098416, 2.1121264, 0.25304508, 0
567, 3355462229, 0.6010652, 0.23058017, 0.14317375, -0.75175107, 1.9508082, 1.1666892, 0.87790394, 0
568, 3355478896, 0.6005901, 0.23242912, 0.14409514, -0.7513853, 1.3690722, 1.490447, -0.11622238, 0
570, 3355512230, 0.60053986, 0.23889148, 0.14470798, -0.7492779, 0.6915368, 1.4382255, 1.1972723, 0
571, 3355528897, 0.60044163, 0.2422442, 0.14452374, -0.748315, 1.2247795, 0.83077264, 0.6935034, 0
573, 3355562231, 0.59971035, 0.24754612, 0.14328, -0.7474053, 1.810855, 0.88421327, 0.8496218, 0
574, 3355578898, 0.60011935, 0.24965447, 0.14040688, -0.74692047, 0.71035904, 1.3103485, 0.56455326, 0
577, 3355628899, 0.5924469, 0.2541057, 0.13426098, -0.75265276, 0.36087698, -3.8445346, -1.099699, 0
578, 3355645566, 0.58288, 0.25648016, 0.13482712, -0.75918734, -0.5486166, -3.4261124, -1.3218374, 0
579, 3355662233, 0.5712857, 0.2602234, 0.13743854, -0.76622593, -1.1474807, -0.9870675, -2.6624985, 0
581, 3355695567, 0.5496398, 0.27476135, 0.14654844, -0.7752424, -2.025123, 4.4502954, -2.4410763, 0
582, 3355712234, 0.5470347, 0.27880818, 0.14830893, -0.7753055, 0.3887914, 10.477552, 4.3399725, 0
585, 3355762235, 0.54989666, 0.27511328, 0.14821362, -0.77461874, 1.471599, 1.3365132, 2.4444866, 0
586, 3355778902, 0.5514606, 0.27259687, 0.14604376, -0.77480865, 0.8574044, 2.1202402, 2.006072, 0
587, 3355795569, 0.5531766, 0.27165306, 0.14445329, -0.7742149, 2.1038508, 4.211989, -0.73527145, 0
589, 3355828903, 0.5527079, 0.2731603, 0.14322352, -0.7742477, 1.5847541, 2.2970088, 1.4716101, 0
590, 3355845570, 0.55248123, 0.2731462, 0.14209731, -0.7746219, 2.5427876, 2.9653058, 0.083940506, 0
591, 3355862237, 0.552802, 0.2737071, 0.14083667, -0.7744253, 2.5333946, 2.942593, -0.47426987, 0
593, 3355895571, 0.55509555, 0.27574682, 0.13765469, -0.77263117, 2.1326065, 3.752425, 0.77242947, 0
594, 3355912238, 0.5563963, 0.2765786, 0.13619357, -0.77165663, 1.5556879, 3.3882656, 0.9581394, 0
595, 3355928905, 0.5572605, 0.27745098, 0.13513055, -0.7709062, 2.0508077, 3.2901428, 0.45134068, 0
597, 3355962239, 0.5582046, 0.2802206, 0.13291335, -0.76960593, 2.0461812, 3.3720071, -0.10476112, 0
600, 3356012240, 0.56150544, 0.28601053, 0.12751836, -0.76597893, 2.1119425, 1.8883063, -0.10331917, 0
601, 3356028907, 0.56354344, 0.28821832, 0.124831356, -0.76409507, 1.9999707, 1.9013025, -0.7856169, 0
602, 3356045574, 0.5658796, 0.28966808, 0.12074144, -0.7624756, 1.3694135, 1.3843995, -2.4641361, 0
604, 3356078908, 0.5728552, 0.28032705, 0.10399073, -0.7632265, 0.4710341, 1.431437, -1.0805817, 0
605, 3356095575, 0.5762441, 0.2699625, 0.09506392, -0.7655723, 1.4156171, 2.9208527, -0.7647972, 0
606, 3356112242, 0.5785919, 0.26535055, 0.08890714, -0.7661537, 2.0085545, 1.399708, 1.611002, 0
608, 3356145576, 0.5797775, 0.26786357, 0.08277357, -0.7650691, 1.2696477, -3.1928582, 3.9541206, 0
610, 3356178910, 0.57911503, 0.27110174, 0.079142466, -0.7648144, 0.27513126, -0.57448137, -0.3537054, 0
612, 3356212244, 0.57742155, 0.27304834, 0.07559367, -0.7657609, -0.23657304, -1.4743993, 1.3750782, 0
613, 3356228911, 0.57590055, 0.27351952, 0.07451807, -0.76684266, 0.40205935, -2.4258137, 1.5309, 0
616, 3356278912, 0.56931424, 0.2726339, 0.07376328, -0.772131, -1.4716411, -2.4946234, 0.8573389, 0
617, 3356295579, 0.5667114, 0.27188897, 0.07380619, -0.77430135, -0.95686054, -2.2280912, 0.40598392, 0
618, 3356312246, 0.56403244, 0.27113697, 0.07399403, -0.7764999, -0.11445338, -2.4696026, -0.86136055, 0
620, 3356345580, 0.55846095, 0.2683034, 0.074760266, -0.78142226, 0.13550204, -2.4043057, 0.4166212, 0
621, 3356362247, 0.5556617, 0.266741, 0.07496691, -0.783929, -0.6743355, -1.7123079, 0.7150774, 0
622, 3356378914, 0.55306685, 0.26509172, 0.07468631, -0.7863464, -0.8858641, -1.939987, 0.9213791, 0
624, 3356412248, 0.5481376, 0.2619711, 0.07452164, -0.7908462, -0.07785358, -1.4838775, -0.25415897, 0
625, 3356428915, 0.5460383, 0.2601577, 0.07458024, -0.79288894, -0.20265785, -0.5782368, -0.31668377, 0
627, 3356462249, 0.54202586, 0.25560975, 0.07539069, -0.797034, -0.8133116, -0.3906698, 0.22056675, 0
628, 3356478916, 0.5402303, 0.25263214, 0.076005735, -0.7991411, -1.0732243, -0.32753977, 0.4733286, 0
631, 3356528917, 0.53591055, 0.24507956, 0.0778603, -0.8042069, -0.51106566, -0.45251593, 0.9579601, 0
632, 3356545584, 0.5344393, 0.2423461, 0.07878683, -0.80592215, 0.07997607, -0.24715728, 0.4000559, 0
633, 3356562251, 0.5329095, 0.23994815, 0.0798435, -0.80754733, -0.987845, -0.29837424, 0.81996346, 0
635, 3356595585, 0.5308216, 0.2356623, 0.08208366, -0.8099562, -0.030019801, 0.40933, 0.098789215, 0
636, 3356612252, 0.52994174, 0.23340651, 0.08321287, -0.81106955, 0.3359422, 0.5810253, 0.17424965, 0
637, 3356628919, 0.52910495, 0.23099835, 0.084213495, -0.81220126, -0.14053132, 0.43850702, 0.79469967, 0
639, 3356662253, 0.5284315, 0.22762793, 0.08618876, -0.8133834, -0.12845804, 0.9756203, 0.06006241, 0
640, 3356678920, 0.5284643, 0.22625975, 0.08714175, -0.813642, 0.39225718, 0.98598707, 0.10082626, 0
641, 3356695587, 0.5284916, 0.22491719, 0.088109724, -0.8138923, 0.288091, 1.7472672, -0.20704842, 0
643, 3356728921, 0.52927715, 0.22279453, 0.08996467, -0.8137628, 0.28454226, 1.194724, 0.52609825, 0
644, 3356745588, 0.52992105, 0.2217641, 0.09098378, -0.8135117, 0.548075, 1.1632255, 1.2075233, 0
645, 3356762255, 0.5305497, 0.2205543, 0.09199168, -0.8133175, 0.49040878, 1.0957414, 0.6306906, 0
647, 3356795589, 0.5324004, 0.21810772, 0.09416439, -0.8125191, 0.40600222, 2.1272287, -0.22801495, 0
648, 3356812256, 0.533759, 0.21676081, 0.095185615, -0.8118688, 0.6873059, 2.0851452, 0.25425625, 0
649, 3356828923, 0.53489554, 0.21518213, 0.096519545, -0.811383, 0.0883844, 1.9106864, 0.97937965, 0
651, 3356862257, 0.53704065, 0.2129306, 0.09905267, -0.81025404, 0.025471983, 0.17483552, 1.3508091, 0
652, 3356878924, 0.5383502, 0.21206842, 0.100520104, -0.8094299, 1.039814, 0.9467042, -0.16051388, 0
653, 3356895591, 0.5396189, 0.21111868, 0.10190686, -0.8086597, 0.788335, 0.8864267, 0.29906654, 0
655, 3356928925, 0.5423475, 0.2087702, 0.10457794, -0.80710137, -0.581738, 2.8423152, 0.9003229, 0
658, 3356978926, 0.5471263, 0.20492087, 0.10836425, -0.8043583, 0.36431113, 1.2635462, 1.452836, 0
659, 3356995593, 0.54853, 0.20400634, 0.10994221, -0.8034202, 1.0574807, 2.1346228, 0.35842896, 0
660, 3357012260, 0.55003846, 0.20343272, 0.11145146, -0.8023256, 2.162995, 2.861284, -0.1902237, 0
662, 3357045594, 0.55437887, 0.2019093, 0.11323239, -0.7994689, 0.20218736, 3.7033005, 0.42110062, 0
663, 3357062261, 0.5570408, 0.20184478, 0.113501444, -0.7975943, -0.4056682, 2.6775672, 1.7305489, 0
664, 3357078928, 0.5593375, 0.2024342, 0.11411764, -0.79574776, 0.605126, 1.88303, 3.8920383, 0
666, 3357112262, 0.5609374, 0.2093867, 0.11857655, -0.7921624, 3.6705186, 3.7529743, -1.3967896, 0
667, 3357128929, 0.56025827, 0.21437097, 0.120326996, -0.7910451, 2.5794756, 2.6658323, -2.2793465, 0
668, 3357145596, 0.56222904, 0.21672556, 0.119590044, -0.7891146, 0.59439796, 3.1466417, -2.5175157, 0
670, 3357178930, 0.56920195, 0.22088002, 0.114913, -0.7836398, 1.4603621, 2.4098148, 3.0476112, 0
672, 3357212264, 0.5728421, 0.22790107, 0.113226324, -0.7792098, 1.2801684, -0.4346143, -0.9787464, 0
674, 3357245598, 0.575081, 0.232691, 0.111227736, -0.77642775, -0.016486315, 0.87534106, -0.94714737, 0
675, 3357262265, 0.57722706, 0.23395817, 0.108949676, -0.7747758, 0.8764359, -1.2194471, -0.09032059, 0
676, 3357278932, 0.5789826, 0.23523939, 0.10684483, -0.7733699, 1.175581, -1.9382595, 3.434991, 0
678, 3357312266, 0.5802899, 0.24061738, 0.105466396, -0.77092075, 0.9195944, -1.712079, -2.7960763, 0
679, 3357328933, 0.5800048, 0.2450337, 0.10545261, -0.76974535, 0.11940452, -2.55453, -2.5357714, 0
680, 3357345600, 0.5802875, 0.24556354, 0.10315427, -0.76967496, 1.9758282, 0.1602767, -1.4421873, 0
682, 3357378934, 0.58069026, 0.24448755, 0.096034914, -0.7706342, 1.1553743, -0.31099188, -0.28228092, 0
683, 3357395601, 0.5812187, 0.24381475, 0.09231801, -0.7709033, 1.7674924, -0.2872371, 0.89775753, 0
685, 3357428935, 0.5811565, 0.24412738, 0.08725093, -0.77144104, -1.0981163, -0.4774181, 0.46400833, 0
687, 3357462269, 0.5816454, 0.24604332, 0.083176106, -0.7709139, -1.2075802, -0.24542144, 3.2608347, 0
689, 3357495603, 0.5811794, 0.24821924, 0.080563374, -0.7708452, -0.38501516, -1.6919372, 1.8290777, 0
690, 3357512270, 0.5811603, 0.2500037, 0.07966175, -0.77037656, 0.68202305, -0.5833988, 0.7470732, 0
691, 3357528937, 0.58095735, 0.25200102, 0.07900326, -0.7699466, 0.40230098, -0.38536185, 0.079823494, 0
693, 3357562271, 0.57939214, 0.2546157, 0.07788302, -0.77037966, -0.6119888, -1.9078811, 1.0649843, 0
694, 3357578938, 0.57829094, 0.25473535, 0.07795093, -0.77116036, -0.7678944, -2.9053283, 1.5099459, 0
695, 3357595605, 0.5769914, 0.25432453, 0.078405686, -0.7722226, -0.7623611, -3.5375714, 0.6962309, 0
697, 3357628939, 0.57430816, 0.2521408, 0.08018091, -0.7747524, -1.6300774, -1.6261629, -0.030467987, 0
698, 3357645606, 0.57345295, 0.25069034, 0.08085325, -0.77578616, -0.9957795, 0.068508714, -0.7451029, 0
699, 3357662273, 0.57278615, 0.2491155, 0.08160639, -0.7767065, -0.6572691, -0.7711937, -0.5472336, 0
702, 3357712274, 0.5709647, 0.24370448, 0.084225, -0.7794797, -0.92911875, -0.42603946, 0.17772484, 0
703, 3357728941, 0.5705719, 0.24217075, 0.08512618, -0.7801472, -0.3644712, -0.5763939, 0.280859, 0
705, 3357762275, 0.57010704, 0.2395008, 0.08713576, -0.7810888, -0.39068767, 0.6320145, 0.042868614, 0
706, 3357778942, 0.5701345, 0.2381241, 0.088079125, -0.7813839, -0.24331062, 0.84954697, 0.3251648, 0
708, 3357812276, 0.57037246, 0.23565376, 0.09039182, -0.781695, 0.009460186, 1.1743306, 0.018231392, 0
709, 3357828943, 0.57062805, 0.23462763, 0.09159824, -0.78167665, 0.6283274, 1.5689176, 0.04034424, 0
710, 3357845610, 0.57084715, 0.23362537, 0.09270498, -0.7816865, 0.41293505, 0.7407666, 0.84354496, 0
712, 3357878944, 0.5717262, 0.23180091, 0.0945501, -0.7813661, 0.43669602, 1.9855418, -0.3019085, 0
713, 3357895611, 0.57251835, 0.23074356, 0.0951672, -0.7810242, 0.74712795, 1.5606682, -0.22175217, 0
714, 3357912278, 0.5733163, 0.22965905, 0.095606625, -0.7807046, 0.51662403, 2.24203, 0.2830162, 0
716, 3357945612, 0.5752791, 0.2279167, 0.09595725, -0.7797276, 0.5929161, 0.48478612, 0.78868294, 0
717, 3357962279, 0.5763098, 0.22769949, 0.09601101, -0.7790231, 0.91711324, 0.4856894, 0.8547592, 0
718, 3357978946, 0.5772636, 0.22761582, 0.09601734, -0.7783403, 0.6676636, 0.52016973, 0.68642044, 0
720, 3358012280, 0.5798186, 0.22799253, 0.095763266, -0.77635974, -0.4505268, 1.1466775, -0.6459503, 0
721, 3358028947, 0.58118576, 0.22819625, 0.09538685, -0.7753233, -0.19743256, 0.09187704, 1.2095671, 0
722, 3358045614, 0.58236563, 0.22797218, 0.09504829, -0.774545, -0.2664346, 0.88794255, 0.8386984, 0
724, 3358078948, 0.5843771, 0.22887407, 0.0945685, -0.77282083, 1.3313047, 0.49812153, -0.7579241, 0
725, 3358095615, 0.5852853, 0.22912657, 0.09471151, -0.7720407, 0.5162854, 1.027351, -0.09576321, 0
726, 3358112282, 0.5861342, 0.22932927, 0.09466095, -0.77134264, 0.12073454, 2.6655953, -0.04076767, 0
729, 3358162283, 0.58851695, 0.22854099, 0.09447109, -0.7697839, -0.2724511, 0.31570673, 1.9167814, 0
730, 3358178950, 0.5889143, 0.22861068, 0.095069766, -0.7693855, 0.8466141, 0.96129394, 0.3758974, 0
732, 3358212284, 0.59008753, 0.22888905, 0.09566963, -0.7683289, 2.315298, 1.5242045, -0.2438631, 0
733, 3358228951, 0.59100074, 0.22877944, 0.09548102, -0.76768273, 0.98035663, 2.2566974, 0.23917961, 0
735, 3358262285, 0.5923875, 0.22920272, 0.095591955, -0.7664728, -0.64820164, 1.0579789, 2.1586094, 0
736, 3358278952, 0.59240836, 0.23017369, 0.0967363, -0.766022, 0.47748402, 1.2238629, 1.0325499, 0
737, 3358295619, 0.5916472, 0.23148225, 0.09773894, -0.76608855, 3.6957269, 3.851577, -2.6310563, 0
739, 3358328953, 0.59276295, 0.23073736, 0.096684985, -0.76558435, 0.79797196, 4.1641655, -0.37285328, 0
740, 3358345620, 0.5940448, 0.23019065, 0.095330015, -0.76492506, 0.09245859, 3.0014637, 3.8205557, 0
741, 3358362287, 0.59455144, 0.23082484, 0.09442544, -0.76445234, 0.7287099, 0.0955721, 5.682438, 0
744, 3358412288, 0.58786976, 0.24743438, 0.101391435, -0.7635314, 6.4994636, 1.6997215, -8.514362, 0
745, 3358428955, 0.5809927, 0.25736234, 0.102969274, -0.76530045, 0.82681274, 2.5448515, -4.808315, 0
747, 3358462289, 0.58223975, 0.25461283, 0.098434076, -0.76586896, 0.7261337, 1.5318087, 0.5458422, 0
748, 3358478956, 0.58265185, 0.25491396, 0.09688889, -0.76565236, 0.95565635, -3.268033, 1.038908, 0
749, 3358495623, 0.58296597, 0.25487596, 0.095542364, -0.765595, -0.420085, -3.087374, 0.19175243, 0
751, 3358528957, 0.5834319, 0.25373563, 0.09046468, -0.7662354, -2.3364468, -2.1132414, -2.2276936, 0
752, 3358545624, 0.58421165, 0.253101, 0.08643651, -0.76631624, -0.47683728, -1.0829481, -2.0488186, 0
753, 3358562291, 0.5844976, 0.25427383, 0.083620325, -0.7660224, 0.18232332, -3.1278882, 2.183938, 0
755, 3358595625, 0.5842764, 0.2581526, 0.08022504, -0.7652565, -3.3596513, -4.753537, 2.7541914, 0
756, 3358612292, 0.584109, 0.26011044, 0.07973541, -0.76477236, -3.487099, -3.6125731, 1.0386372, 0
759, 3358662293, 0.5836394, 0.26130515, 0.078717746, -0.7648289, 0.11455039, -1.0807687, 3.5930605, 0
760, 3358678960, 0.5836162, 0.26188326, 0.07786856, -0.7647359, 1.4833182, -1.6670349, 0.5919256, 0
762, 3358712294, 0.5830908, 0.26483977, 0.07768739, -0.76413673, -0.79713887, -2.9922085, -1.5576363, 0
763, 3358728961, 0.58268833, 0.26594773, 0.07776149, -0.76405126, -1.1251572, -0.47228512, -0.51082516, 0
764, 3358745628, 0.58227044, 0.2667517, 0.0776635, -0.7640996, -1.4854633, -1.0887284, 1.4648991, 0
766, 3358778962, 0.581192, 0.26863936, 0.07750879, -0.764275, 1.029155, -0.6603914, -1.2060251, 0
767, 3358795629, 0.5806282, 0.26885957, 0.0776772, -0.7646089, 0.9958499, 0.7461379, -0.20414829, 0
768, 3358812296, 0.5802876, 0.26935393, 0.07806969, -0.76465356, -0.71541846, -0.7225785, -0.35711956, 0
770, 3358845630, 0.58007944, 0.26952353, 0.0779714, -0.7647616, -0.43306306, 0.4864845, 1.1926031, 0
771, 3358862297, 0.5795541, 0.27020413, 0.078260474, -0.7648904, -0.18571244, -0.17035203, -0.98495483, 0
774, 3358912298, 0.5783455, 0.2713577, 0.08083659, -0.7651288, 0.3925024, 1.0357592, -0.09130955, 0
775, 3358928965, 0.5776812, 0.27172732, 0.08172682, -0.7654048, 0.07234188, 0.09224745, 0.40499592, 0
776, 3358945632, 0.57721347, 0.27250683, 0.08213955, -0.76543635, 0.963408, 0.9417655, 0.4622965, 0
778, 3358978966, 0.57691747, 0.27723953, 0.08238374, -0.76393235, 2.5476124, 1.478715, 0.5489321, 0
780, 3359012300, 0.57619184, 0.2871252, 0.08424346, -0.7606182, 3.3528132, 0.6188611, -1.3861237, 0
782, 3359045634, 0.57462037, 0.30126652, 0.08611073, -0.7561151, -2.6333299, -1.301581, 4.709756, 0
783, 3359062301, 0.57434916, 0.3031484, 0.08581706, -0.7556023, -1.0444595, -0.103087544, 2.5596066, 0
784, 3359078968, 0.57387954, 0.3067523, 0.08673926, -0.75439817, 0.0572933, 0.54605544, -1.0735416, 0
786, 3359112302, 0.56908834, 0.32404274, 0.0950637, -0.749782, 3.3053343, 1.0222585, -0.6976824, 0
787, 3359128969, 0.5658985, 0.33124825, 0.10046563, -0.7483417, -6.936021, -3.693312, 3.5534801, 0
788, 3359145636, 0.56495833, 0.32753366, 0.10221433, -0.7504473, 7.480216, 2.8890386, -2.2317624, 0
790, 3359178970, 0.56183386, 0.3447699, 0.11171286, -0.743688, -2.0774415, 0.8044276, 0.78983593, 0
791, 3359195637, 0.5567821, 0.3596172, 0.12042525, -0.7390819, -1.7302902, -1.4483387, 3.0027647, 0
793, 3359228971, 0.54571915, 0.38433412, 0.14305449, -0.73081374, 1.659773, -1.6830326, -2.2840357, 0
794, 3359245638, 0.5416905, 0.39881647, 0.15512916, -0.7235516, -0.50118667, -1.6863962, 0.23275566, 0
795, 3359262305, 0.5382854, 0.41172802, 0.16529374, -0.7165766, -2.4626777, -1.5543056, 1.9193745, 0
797, 3359295639, 0.53276074, 0.4390915, 0.18501043, -0.6994362, 2.725164, 0.6350355, -2.2466412, 0
798, 3359312306, 0.5314866, 0.4531039, 0.19717449, -0.6880526, 6.3020587, 0.37332502, -0.5998087, 0
799, 3359328973, 0.5289599, 0.4697144, 0.20662741, -0.6759809, -1.5062801, -2.077684, 1.3885489, 0
802, 3359378974, 0.51431215, 0.51227874, 0.23835042, -0.64522696, 3.932217, -1.6179595, -1.428441, 0
803, 3359395641, 0.5097001, 0.52353513, 0.24678631, -0.63662267, -1.2074211, -0.022314584, 1.9364071, 0
805, 3359428975, 0.49902514, 0.5541266, 0.27037778, -0.6090063, 1.0187229, -0.3413699, 1.3285236, 0
806, 3359445642, 0.49066624, 0.57014436, 0.28402165, -0.59463334, 2.950845, -0.23704275, -0.8548527, 0
807, 3359462309, 0.48261732, 0.5848448, 0.29671142, -0.58058137, 2.6168115, -0.32099617, -1.8859725, 0
809, 3359495643, 0.47306103, 0.61116874, 0.3098543, -0.55385137, 3.447675, 3.3658376, 0.1777296, 0
810, 3359512310, 0.4710282, 0.62145674, 0.31674904, -0.54006386, -2.0657945, 0.47635064, 3.174821, 0
811, 3359528977, 0.47086126, 0.6313808, 0.3238343, -0.5242655, 0.5956553, 2.0564914, 1.7526798, 0
813, 3359562311, 0.46478125, 0.6470333, 0.34091222, -0.49917972, 4.210267, 1.9527259, -0.899559, 0
814, 3359578978, 0.4656921, 0.6494188, 0.344996, -0.49238113, 0.27906933, 1.4078006, -0.31591415, 0
817, 3359628979, 0.4729022, 0.64932144, 0.33656323, -0.49147284, 2.3765323, -2.1113787, 1.49753, 0
818, 3359645646, 0.470589, 0.6474578, 0.33285046, -0.49862838, 2.8069203, 0.1520258, -0.16417122, 0
820, 3359678980, 0.46434692, 0.6452529, 0.32854337, -0.51006377, -2.7147686, -0.9136596, 0.6138201, 0
821, 3359695647, 0.46281818, 0.64805204, 0.32197925, -0.51208633, -1.0191263, -2.334873, 0.13350773, 0
825, 3359762315, 0.4844157, 0.6738718, 0.23766975, -0.5048034, 5.7041826, -0.10340246, 0.21127701, 0
826, 3359778982, 0.49899697, 0.6682666, 0.22584921, -0.503477, -0.2822839, 3.1747065, 0.76310444, 0
828, 3359812316, 0.52943087, 0.6348036, 0.22058372, -0.5178275, 16.55429, -13.077894, -3.2689643, 0
829, 3359828983, 0.5242704, 0.613463, 0.20817852, -0.55275726, 11.047814, -5.793846, -0.90778637, 0
830, 3359845650, 0.51611376, 0.58618826, 0.20134963, -0.59122205, 1.4125395, 1.6215177, -1.4387579, 0
832, 3359878984, 0.51409507, 0.52373934, 0.2124492, -0.64524716, -3.9736483, 5.3692927, -2.7679958, 0
834, 3359912318, 0.5251725, 0.48165604, 0.21842813, -0.66675764, -3.9410515, 3.3557253, -3.2098932, 0
836, 3359945652, 0.54124326, 0.4571982, 0.2148994, -0.6722492, -2.618014, 1.9318035, 0.79238033, 0
837, 3359962319, 0.5491833, 0.44526753, 0.21311843, -0.67438143, -0.64549154, 0.42384812, 1.3419352, 0
838, 3359978986, 0.5553216, 0.43400937, 0.20830318, -0.6781879, 1.635143, -0.19092694, -0.4623003, 0
840, 3360012320, 0.5627955, 0.41630894, 0.18690915, -0.68926644, 1.7204891, -0.16872211, -0.7878399, 0
841, 3360028987, 0.56581587, 0.40796345, 0.1745494, -0.69500077, 0.15358067, -0.2047995, 0.33484936, 0
843, 3360062321, 0.56959796, 0.38678837, 0.15021016, -0.70955265, -3.5038178, -2.9144316, 3.8029585, 0
844, 3360078988, 0.56895995, 0.37423655, 0.13682066, -0.71943516, -4.623131, -3.035636, 0.7149143, 0
845, 3360095655, 0.56643164, 0.36399007, 0.123959824, -0.72895527, -4.755081, -3.0323784, -2.0614867, 0
847, 3360128989, 0.5625365, 0.3521512, 0.102445535, -0.74102795, -6.918737, -2.8329258, -0.7015743, 0
849, 3360162323, 0.5681443, 0.3327157, 0.08410085, -0.74800694, -9.559406, -4.1003723, -1.1828289, 0
851, 3360195657, 0.5793442, 0.30569026, 0.07279657, -0.75212324, -10.048329, -7.701164, -9.430039, 0
852, 3360212324, 0.5789009, 0.30527338, 0.06809443, -0.7530739, -11.436034, -11.5192995, -13.058613, 0
853, 3360228991, 0.573702, 0.31644994, 0.060821816, -0.7530614, -18.02817, -15.637163, -9.160878, 0
855, 3360262325, 0.5521648, 0.35325703, 0.0771926, -0.75129217, -24.397354, -18.861418, -6.5752788, 0
856, 3360278992, 0.5300766, 0.37611645, 0.10896626, -0.75216806, -29.335808, -25.243206, 32.39603, 0
857, 3360295659, 0.5144092, 0.34775424, 0.12330382, -0.7741587, 6.065313, -36.667866, 18.890276, 0
859, 3360328993, 0.50018793, 0.32481754, 0.13001049, -0.79213506, 5.235013, -3.8633678, -1.0839319, 0
860, 3360345660, 0.49898753, 0.3293386, 0.13704577, -0.78983617, 0.84840244, -0.36018494, 0.57806015, 0
863, 3360395661, 0.47513372, 0.37259346, 0.18125954, -0.77630043, 6.3075385, 3.0555477, 0.3418188, 0
864, 3360412328, 0.45820454, 0.40822482, 0.21439296, -0.75994205, 4.755987, 5.5643363, -2.046218, 0
865, 3360428995, 0.43260127, 0.4603063, 0.26602852, -0.72820204, 2.4318502, 7.5901003, -3.7083893, 0
867, 3360462329, 0.34011263, 0.600318, 0.3772841, -0.6177973, 8.477109, 3.931562, 20.05163, 0
868, 3360478996, 0.27037984, 0.6689406, 0.3908804, -0.57157755, 2.1080167, 2.5637527, 32.309906, 0
870, 3360512330, 0.17126429, 0.75299263, 0.43961897, -0.45878202, -8.81964, 43.94624, 32.059864, 0
871, 3360528997, 0.18296824, 0.7654893, 0.45967686, -0.41148645, 24.364794, -1.045732, 17.750578, 0
872, 3360545664, 0.15369771, 0.7694915, 0.48284787, -0.3888356, 13.779831, -2.3056479, 4.683629, 0
874, 3360578998, 0.11316419, 0.7805401, 0.51149607, -0.34117147, 16.071072, 19.899256, -17.71214, 0
875, 3360595665, 0.10533912, 0.7827313, 0.51906735, -0.3269246, 18.461796, 12.451652, -16.46932, 0
878, 3360645666, 0.08513103, 0.7761007, 0.5221832, -0.3432496, 7.3939586, 9.279239, -14.803741, 0
879, 3360662333, 0.082582295, 0.77473795, 0.52031726, -0.3497235, 5.964313, 8.470071, -16.044325, 0
880, 3360679000, 0.084489904, 0.77382994, 0.5182061, -0.3543816, 7.3813715, 9.908733, -16.444452, 0
882, 3360712334, 0.112096705, 0.7670433, 0.51117116, -0.37129274, 8.197318, 9.523274, -13.654664, 0
883, 3360729001, 0.13394345, 0.75932276, 0.5068765, -0.38553825, 7.2314725, 7.0572, -10.3718815, 0
884, 3360745668, 0.1555278, 0.7488412, 0.5030472, -0.40257478, 4.17323, 4.3864655, -8.869636, 0
886, 3360779002, 0.1887248, 0.72401196, 0.50428563, -0.4312321, 1.4932432, 5.130988, -7.4942393, 0
887, 3360795669, 0.20394962, 0.7096876, 0.5058285, -0.4460501, 4.0381675, 8.820586, -4.953151, 0
888, 3360812336, 0.22297908, 0.692976, 0.5013079, -0.46779278, 4.176185, 9.935101, -2.565032, 0
890, 3360845670, 0.26313564, 0.656105, 0.4786089, -0.5208595, -2.79716, 2.880335, -1.515604, 0
892, 3360879004, 0.29378587, 0.62889147, 0.45227736, -0.5600944, -1.13139, 2.348023, 0.10442352, 0
894, 3360912338, 0.32364562, 0.6062039, 0.4109589, -0.59913117, 1.079745, 3.555709, 3.4497938, 0
895, 3360929005, 0.34149405, 0.5915664, 0.38917083, -0.61810386, -0.56289476, 2.4812145, 2.5019941, 0
896, 3360945672, 0.36074346, 0.5766068, 0.3694337, -0.6332318, -0.5167128, 0.96762645, 1.4722557, 0
898, 3360979006, 0.39286435, 0.5509831, 0.32359862, -0.66138834, 3.1285386, -4.007092, 5.169877, 0
899, 3360995673, 0.40313917, 0.53773606, 0.2961065, -0.67875993, 1.7733191, -2.9926062, 6.0844717, 0
901, 3361029007, 0.42501053, 0.4975875, 0.2576931, -0.7109445, -2.1338434, 1.2752177, 3.973301, 0
902, 3361045674, 0.4398757, 0.4772579, 0.24365269, -0.72072375, -0.64206195, -0.053395458, 3.1527462, 0
903, 3361062341, 0.45583758, 0.4614187, 0.22314605, -0.7277266, 0.33884206, -3.0921645, 4.3638153, 0
905, 3361095675, 0.4851336, 0.43488255, 0.1771822, -0.7377021, -1.7686111, -6.1612363, 5.703847, 0
907, 3361129009, 0.50845844, 0.4025063, 0.1426667, -0.74778354, -2.7240708, -6.382556, 3.789956, 0
909, 3361162343, 0.52428794, 0.37446478, 0.11778565, -0.75571156, -2.7546484, -4.3103824, 1.0654097, 0
911, 3361195677, 0.54115236, 0.35936183, 0.09475252, -0.754394, -2.45874, -3.2135634, 0.8093672, 0
913, 3361229011, 0.5591847, 0.3464573, 0.080749854, -0.7488889, -2.4794784, -5.5429845, 3.5803375, 0
914, 3361245678, 0.5670694, 0.33835948, 0.07092785, -0.7476561, -2.4052465, -6.135572, 2.795001, 0
915, 3361262345, 0.5734027, 0.33068398, 0.060660537, -0.74716353, -2.3291123, -5.940557, 0.13219547, 0
917, 3361295679, 0.5821728, 0.32054022, 0.044342466, -0.7459476, -2.5437522, -5.86912, -0.32261372, 0
918, 3361312346, 0.5848416, 0.3161189, 0.03971374, -0.74600744, -1.9951893, -5.514383, -1.0357685, 0
919, 3361329013, 0.5862044, 0.31200713, 0.03622917, -0.7468457, -1.9813373, -5.671997, 0.15072632, 0
921, 3361362347, 0.5876572, 0.30176365, 0.02705191, -0.750294, -1.7076508, -3.8713958, -0.16931343, 0
924, 3361412348, 0.5897364, 0.29260355, 0.01885286, -0.75253826, 0.18804927, -3.7446167, -1.0779524, 0
925, 3361429015, 0.58995855, 0.29022434, 0.017881844, -0.7533088, -0.16119665, -4.3747635, 0.35889626, 0
926, 3361445682, 0.58936524, 0.2865102, 0.016524237, -0.75522363, -0.5962324, -4.2520247, 0.36107922, 0
928, 3361479016, 0.58658123, 0.27915835, 0.016485441, -0.76012915, -1.971662, -2.1658633, -0.6778488, 0
929, 3361495683, 0.5857497, 0.275737, 0.018681612, -0.7619662, -2.5584855, -1.8973508, -0.58321667, 0
930, 3361512350, 0.5854255, 0.27252606, 0.02190021, -0.7632838, -2.5226297, -1.1213139, -1.3108997, 0
932, 3361545684, 0.5854006, 0.26868194, 0.030741781, -0.76436, -2.3828194, -0.29697275, -0.6595783, 0
933, 3361562351, 0.5862286, 0.26791194, 0.033839773, -0.76386464, -2.4489677, -0.23331727, -0.48429012, 0
934, 3361579018, 0.58770627, 0.26774606, 0.036473323, -0.7626653, -2.466434, -0.20783126, -0.14562702, 0
936, 3361612352, 0.5912938, 0.26604638, 0.041282393, -0.76023805, -0.99246234, -0.8807596, -0.7255726, 0
937, 3361629019, 0.59149426, 0.2658532, 0.0439486, -0.76000035, -0.6519296, -0.8620906, -0.96759415, 0
938, 3361645686, 0.590346, 0.26665494, 0.04614885, -0.7604816, -0.7082109, -0.28140187, -0.4791422, 0
940, 3361679020, 0.58722997, 0.26898655, 0.047920965, -0.76196176, -1.1808095, 0.9287067, 0.93890095, 0
941, 3361695687, 0.5865706, 0.26902333, 0.04854795, -0.76241684, -1.1480919, 0.9637596, 0.5620117, 0
942, 3361712354, 0.5862642, 0.2691071, 0.048920304, -0.76259923, -0.36546448, 0.33119547, -0.25666523, 0
944, 3361745688, 0.5842202, 0.27039638, 0.04814487, -0.7637604, -0.3322558, -0.28884944, 0.121450424, 0
945, 3361762355, 0.58281994, 0.27111146, 0.046723187, -0.7646645, -0.8053952, -0.020935802, 0.78356457, 0
946, 3361779022, 0.5819593, 0.27094957, 0.045867614, -0.7654288, -1.0693399, 0.6133393, 0.67103195, 0
948, 3361812356, 0.5826364, 0.26862153, 0.046561923, -0.7656923, -1.1795398, 0.8414437, 0.29007626, 0
951, 3361862357, 0.5871186, 0.2691065, 0.050916076, -0.7618112, -1.7940145, -0.17937148, -0.1299448, 0
953, 3361895691, 0.5919911, 0.26991326, 0.055022616, -0.7574569, -1.182204, 0.19032708, 0.7587528, 0
955, 3361929025, 0.5971048, 0.27059934, 0.05869198, -0.7529092, -0.2702694, 0.14104237, 0.13778591, 0
956, 3361945692, 0.5995665, 0.27148622, 0.05963743, -0.75055575, -0.68112487, -0.041643146, 0.36791897, 0
957, 3361962359, 0.60220325, 0.27225798, 0.06079659, -0.7480681, -0.8818755, -0.41032586, 0.04646015, 0
959, 3361995693, 0.6080094, 0.2720941, 0.06328975, -0.74320847, -1.046748, -0.9002099, 0.4163952, 0
960, 3362012360, 0.6108, 0.2716692, 0.06352247, -0.7410526, -0.7828208, -1.0736308, -0.5514736, 0
961, 3362029027, 0.61324555, 0.2718525, 0.063011274, -0.7390066, -1.1177996, -1.5185916, -0.90445805, 0
963, 3362062361, 0.6163178, 0.2742643, 0.060902778, -0.73572916, -2.097833, -2.5391448, -1.3393183, 0
964, 3362079028, 0.6172385, 0.2763851, 0.05966284, -0.7342638, -3.0775464, -2.767301, -0.89443016, 0
967, 3362129029, 0.620162, 0.2874651, 0.057444148, -0.7276937, -4.0883636, -4.1055007, -3.2945962, 0
968, 3362145696, 0.6212332, 0.29467186, 0.057981275, -0.7238446, -4.4833393, -4.445093, -3.7838202, 0
969, 3362162363, 0.6229816, 0.30377808, 0.06035947, -0.7183625, -5.1658187, -5.322208, -4.128751, 0
971, 3362195697, 0.6292037, 0.32223114, 0.07816262, -0.7030189, -9.413624, -7.3997455, -4.890585, 0
972, 3362212364, 0.6338972, 0.33206594, 0.0943715, -0.692153, -10.797839, -8.470327, -5.9537897, 0
973, 3362229031, 0.63931555, 0.34693167, 0.10998681, -0.67741585, -11.662758, -10.767823, -4.5916786, 0
975, 3362262365, 0.6502281, 0.3882399, 0.12969945, -0.6400987, -14.370772, -19.205732, -6.7724934, 0
976, 3362279032, 0.64641607, 0.41759515, 0.14679676, -0.62151927, -14.171074, -26.381645, -6.3232512, 0
978, 3362312366, 0.6253704, 0.42959508, 0.2295701, -0.60969913, 13.941428, -23.711725, 27.429714, 0
979, 3362329033, 0.62596977, 0.41239658, 0.24410473, -0.6152876, 12.965876, -3.8833356, 5.0503254, 0
982, 3362379034, 0.62598956, 0.39474684, 0.25201714, -0.62359816, 0.74711573, 7.4589543, 0.5571184, 0
983, 3362395701, 0.61360085, 0.41444778, 0.27484372, -0.61340296, 4.869297, 6.268636, -2.2985272, 0
984, 3362412368, 0.5925543, 0.4550781, 0.3132252, -0.5863008, 3.8098137, 7.2549725, -1.9525867, 0
986, 3362445702, 0.50222945, 0.5808265, 0.42177212, -0.48227534, 8.235992, 4.573947, 8.239412, 0
987, 3362462369, 0.441149, 0.64808017, 0.45655185, -0.42073178, 10.153526, 10.056185, 20.391842, 0
988, 3362479036, 0.37358183, 0.7037871, 0.47194684, -0.37744093, 19.183086, 21.967876, 37.157475, 0
990, 3362512370, 0.2854913, 0.7486418, 0.5090041, -0.31467488, -10.358701, 37.589336, 29.791893, 0
991, 3362529037, 0.28266296, 0.7567755, 0.51902467, -0.2794304, 9.767525, 5.1003757, 5.0178394, 0
992, 3362545704, 0.24805921, 0.77066994, 0.52899224, -0.25451303, 10.339313, 10.398139, 0.8501606, 0
994, 3362579038, 0.1937145, 0.78631824, 0.5420985, -0.22446114, 14.803549, 18.201271, -12.527092, 0
996, 3362612372, 0.14618705, 0.788635, 0.5565065, -0.21693262, 8.844344, 16.636398, -25.614746, 0
998, 3362645706, 0.14888537, 0.77578825, 0.5685643, -0.22977284, 7.3501673, 12.703279, -20.393782, 0
999, 3362662373, 0.16512382, 0.76577353, 0.5694143, -0.24933407, 5.6799636, 10.67311, -13.968506, 0
1000, 3362679040, 0.18628077, 0.75499547, 0.5659377, -0.2739908, 4.004272, 8.115809, -8.686991, 0
1002, 3362712374, 0.22487152, 0.7381619, 0.5465542, -0.32542807, 0.79318446, 1.7108593, -5.6410055, 0
1003, 3362729041, 0.23934263, 0.73142105, 0.53714156, -0.34538722, 0.95511246, 0.63992554, -5.7834234, 0
1005, 3362762375, 0.26453796, 0.7158376, 0.5196159, -0.3842796, 4.5346775, 3.3527694, -2.6424942, 0
1006, 3362779042, 0.27868962, 0.70479167, 0.50814265, -0.40922734, 3.1403189, 2.302789, -1.2671165, 0
1007, 3362795709, 0.29248315, 0.6924467, 0.49565163, -0.43517342, 0.94353336, 0.6224839, -0.882041, 0
1009, 3362829043, 0.31680214, 0.67250234, 0.46637833, -0.47952405, -0.55563843, -0.300966, -1.571187, 0
1010, 3362845710, 0.32850036, 0.6649865, 0.45261332, -0.49507242, 0.8032434, 0.26933703, -0.21659851, 0
1011, 3362862377, 0.34107965, 0.6568421, 0.43966573, -0.5089128, 2.721315, 0.064092785, 2.2611427, 0
1013, 3362895711, 0.36523333, 0.63589895, 0.4151197, -0.53850514, 1.392209, -2.602001, 1.5394478, 0
1014, 3362912378, 0.37588218, 0.6247776, 0.40506852, -0.5516885, 0.69231844, -2.0505977, 0.22602558, 0
1015, 3362929045, 0.38719475, 0.61302286, 0.39714026, -0.5627059, 1.1618382, -0.016730282, 1.2477827, 0
1017, 3362962379, 0.41372436, 0.58435005, 0.38249087, -0.5840747, 1.8052274, -0.81542647, 2.2989445, 0
1018, 3362979046, 0.42603755, 0.5695466, 0.3739726, -0.5952549, 1.0819159, -2.0224547, 1.9175854, 0
1019, 3362995713, 0.4364676, 0.55502397, 0.36561376, -0.6065032, 0.51126844, -2.3959622, 1.653264, 0
1021, 3363029047, 0.4497651, 0.52712107, 0.35174674, -0.62944734, -0.1812614, -1.6038917, 0.48935795, 0
1023, 3363062381, 0.45773768, 0.50315344, 0.33695707, -0.65103596, -1.1231123, 0.41789803, 1.280324, 0
1025, 3363095715, 0.47040373, 0.48240045, 0.31585288, -0.6680737, -1.2170548, 0.6551878, 1.1900711, 0
1026, 3363112382, 0.47954637, 0.47211188, 0.30561805, -0.67366064, -1.162233, 0.15162627, 0.5582104, 0
1027, 3363129049, 0.48983186, 0.46177024, 0.2961101, -0.677663, -0.52594656, -0.4255224, 0.88442516, 0
1029, 3363162383, 0.50964963, 0.44214368, 0.2779466, -0.6838033, -0.38929877, -0.6958496, 0.35937023, 0
1030, 3363179050, 0.51873964, 0.43340272, 0.2689586, -0.68615425, -0.44104964, -0.2019235, 1.3051643, 0
1031, 3363195717, 0.5280302, 0.4244884, 0.25960302, -0.6882406, -0.8522929, 0.37978384, 2.1913147, 0
1033, 3363229051, 0.5484714, 0.40295166, 0.23980322, -0.69237185, -0.4378829, -0.60646576, 3.2344236, 0
1034, 3363245718, 0.55825514, 0.3915964, 0.22784907, -0.6950997, -0.1149849, -1.5266395, 2.0368795, 0
1036, 3363279052, 0.5722548, 0.37201083, 0.20263734, -0.70224345, -0.5788342, -2.5902169, 1.7797785, 0
1038, 3363312386, 0.578112, 0.3579083, 0.17395851, -0.71239156, -1.7358235, -3.008022, 2.9014616, 0
1040, 3363345720, 0.5813348, 0.34400526, 0.14496733, -0.7230281, -2.5267675, -2.9113693, 0.7650871, 0
1041, 3363362387, 0.58347976, 0.33823112, 0.13218264, -0.72646695, -2.3388946, -3.4901319, 0.058000565, 0
1042, 3363379054, 0.58638567, 0.3331949, 0.120289914, -0.72851783, -2.5367496, -3.6608276, 0.032813072, 0
1044, 3363412388, 0.59367895, 0.32321173, 0.10281591, -0.72978306, -2.6589205, -3.7480774, 0.61105824, 0
1045, 3363429055, 0.5979599, 0.31741792, 0.096436806, -0.729702, -1.9470236, -3.9900835, 0.12758923, 0
1046, 3363445722, 0.6018919, 0.31222335, 0.0912227, -0.72938097, -1.2349154, -3.8727362, -0.55107117, 0
1048, 3363479056, 0.60646087, 0.3060016, 0.08174928, -0.7293562, 0.35510978, -4.2461867, -0.64169884, 0
1049, 3363495723, 0.606565, 0.30401763, 0.07654248, -0.7306631, 0.22506748, -4.009186, -0.033971786, 0
1050, 3363512390, 0.60549366, 0.30149004, 0.071940556, -0.73306274, -0.028942917, -3.3414643, 0.06772804, 0
1053, 3363562391, 0.60251343, 0.29220277, 0.06290701, -0.7400763, -1.2214162, -0.7640751, -0.36925888, 0
1054, 3363579058, 0.60297245, 0.29002142, 0.060533956, -0.7407582, -0.87372154, -0.83578, -0.37803173, 0
1056, 3363612392, 0.6047065, 0.28732198, 0.054247223, -0.74088347, 0.14798056, -2.5076725, 0.30761147, 0
1057, 3363629059, 0.6047094, 0.2851179, 0.052044682, -0.74189013, -0.004969587, -2.3878677, 0.68053436, 0
1059, 3363662393, 0.60309, 0.27951655, 0.048801, -0.74555135, -0.05614042, -1.6322708, -0.24931526, 0
1060, 3363679060, 0.6020657, 0.27759498, 0.04678133, -0.7472246, -0.4910459, -1.1709534, -0.47901344, 0
1061, 3363695727, 0.60137254, 0.27640063, 0.045034073, -0.74833196, -0.8983348, -0.95884544, -0.37547684, 0
1063, 3363729061, 0.6027568, 0.27334192, 0.04541993, -0.74831855, -2.0500476, -0.38455343, 0.79196453, 0
1064, 3363745728, 0.60540307, 0.27087575, 0.047339305, -0.746959, -1.7380582, 0.19205712, -0.20231247, 0
1065, 3363762395, 0.60913694, 0.2687998, 0.05018557, -0.74448335, -1.3772227, 0.2440272, -0.60008144, 0
1068, 3363812396, 0.62284654, 0.26501602, 0.05813226, -0.73384225, -1.209391, -1.7372242, 0.042856216, 0
1069, 3363829063, 0.6261203, 0.2644527, 0.060264707, -0.73108256, -1.3649809, -2.2436132, -0.11414528, 0
1071, 3363862397, 0.62959945, 0.26431194, 0.06054384, -0.7281163, -1.5868262, -2.457748, -0.49650192, 0
1072, 3363879064, 0.6299052, 0.2650199, 0.059509784, -0.72767967, -1.4964907, -2.594185, -1.2840014, 0
1073, 3363895731, 0.6294992, 0.26675963, 0.057729915, -0.7275387, -1.8882935, -3.018439, -1.4189024, 0
1075, 3363929065, 0.62743723, 0.27334562, 0.054078124, -0.72715557, -3.2234201, -3.7435346, -2.1773806, 0
1076, 3363945732, 0.6264993, 0.27831542, 0.052518323, -0.72619295, -3.7319305, -4.5187225, -2.3409462, 0
1077, 3363962399, 0.62594324, 0.28438705, 0.051340565, -0.7244021, -4.161975, -4.8941565, -2.8561583, 0
1079, 3363995733, 0.6260837, 0.2994399, 0.050710414, -0.7182329, -5.102339, -5.79352, -4.609439, 0
1080, 3364012400, 0.62584203, 0.3085544, 0.054232262, -0.714318, -6.7210383, -6.4167433, -4.3702493, 0
1081, 3364029067, 0.62663424, 0.3178869, 0.060716487, -0.70898956, -8.635535, -7.096515, -3.1220946, 0
1083, 3364062401, 0.63972974, 0.32949802, 0.080771886, -0.6897303, -10.21886, -8.070186, -2.8768778, 0
1084, 3364079068, 0.64909726, 0.33402961, 0.097283535, -0.6765414, -6.899474, -11.258229, -6.4319468, 0
1086, 3364112402, 0.6548866, 0.36101168, 0.12704265, -0.65171266, -7.1446195, -16.592482, -5.010297, 0
1087, 3364129069, 0.6500653, 0.3804113, 0.14327067, -0.6420678, -9.773862, -17.584885, -3.3661313, 0
1088, 3364145736, 0.64035463, 0.4029543, 0.16431133, -0.63296974, -10.176425, -20.911505, -4.4736724, 0
1090, 3364179070, 0.6205445, 0.4009272, 0.22516122, -0.6352634, 6.0647445, -9.347038, 10.420622, 0
1091, 3364195737, 0.6194706, 0.38459125, 0.22824971, -0.6452311, 4.8295274, 1.2489157, 5.373871, 0
1092, 3364212404, 0.6151024, 0.3786228, 0.23568068, -0.6502489, 5.991939, 3.3795404, 0.41103363, 0
1095, 3364262405, 0.55870473, 0.4870214, 0.336504, -0.5809471, 3.0588548, 8.106985, -0.19997978, 0
1096, 3364279072, 0.5103239, 0.55797005, 0.39256328, -0.5236491, 6.215933, 4.704102, 6.6109924, 0
1098, 3364312406, 0.39531428, 0.6840707, 0.45661014, -0.40909207, 16.156998, 14.92257, 29.581146, 0
1099, 3364329073, 0.33334833, 0.7240433, 0.47145742, -0.37741676, 5.429396, 20.679043, 41.611656, 0
1100, 3364345740, 0.30633855, 0.74360055, 0.50034857, -0.32084495, -15.51271, 33.577324, 35.867283, 0
1102, 3364379074, 0.2748127, 0.76118106, 0.52520764, -0.2632741, 13.070564, -2.8507423, 3.4887915, 0
1103, 3364395741, 0.23195186, 0.77409184, 0.5369096, -0.24245264, 8.315799, 30.070189, -0.91369057, 0
1104, 3364412408, 0.20986357, 0.7801634, 0.5465978, -0.22047287, 15.213716, 25.502707, -9.139097, 0
1106, 3364445742, 0.16667566, 0.785006, 0.56044257, -0.20485146, 13.781649, 15.385838, -15.16622, 0
1107, 3364462409, 0.14937282, 0.78240454, 0.5680938, -0.20706433, 10.621983, 16.240376, -17.410793, 0
1110, 3364512410, 0.1465556, 0.7599823, 0.5862703, -0.23939666, 4.515835, 11.173701, -16.094942, 0
1111, 3364529077, 0.1579533, 0.7514685, 0.58674073, -0.25720832, 3.8691375, 9.998657, -15.121004, 0
1113, 3364562411, 0.19010659, 0.73274136, 0.5842559, -0.29269448, 1.4082652, 6.24997, -13.135998, 0
1114, 3364579078, 0.20925966, 0.7209368, 0.5840981, -0.3088124, 3.3923454, 7.5369854, -12.09455, 0
1115, 3364595745, 0.23177442, 0.7075695, 0.5803543, -0.32998514, 5.295857, 8.854649, -10.096324, 0
1117, 3364629079, 0.28311697, 0.6767181, 0.55732524, -0.38905156, 3.4054456, 5.341618, -5.8155937, 0
1118, 3364645746, 0.3095159, 0.66079265, 0.53876305, -0.42114437, 2.0166721, 5.5902443, -3.3458314, 0
1119, 3364662413, 0.3373336, 0.6438109, 0.51950204, -0.44934005, -0.13922755, 3.5561013, -3.350494, 0
1121, 3364695747, 0.38958454, 0.60949636, 0.47746372, -0.49884042, 4.1785088, 4.4265985, 1.397253, 0
1122, 3364712414, 0.41551638, 0.5886433, 0.45360887, -0.5245563, 3.635875, 3.041276, 1.2731352, 0
1125, 3364762415, 0.48534495, 0.51652664, 0.37501383, -0.59756213, -2.8340836, 3.4470236, 5.869547, 0
1126, 3364779082, 0.51272964, 0.4919404, 0.346563, -0.61243135, -6.3440156, 2.6083517, 6.975872, 0
1127, 3364795749, 0.545572, 0.46931797, 0.31800622, -0.61728364, -8.069773, -0.22289963, 7.224869, 0
1129, 3364829083, 0.61234355, 0.43633586, 0.26275688, -0.6047152, -5.823383, -10.476104, 5.1505547, 0
1130, 3364845750, 0.640241, 0.42728314, 0.23631871, -0.5930845, -3.8298354, -11.370388, 5.829733, 0
1131, 3364862417, 0.6651232, 0.41770688, 0.21300066, -0.5812383, -3.4324195, -10.963017, 6.891567, 0
1133, 3364895751, 0.70262, 0.39236405, 0.18357354, -0.5645808, -1.8941576, -14.489822, 0.25331402, 0
1134, 3364912418, 0.7113476, 0.38575506, 0.17386694, -0.56126904, -3.2882388, -13.348678, -2.37396, 0
1137, 3364962419, 0.7223134, 0.39819103, 0.15801609, -0.5429672, -7.1384654, -6.3665657, 6.275793, 0
1138, 3364979086, 0.7317509, 0.39944202, 0.15241222, -0.5308787, -6.53734, -4.829847, 3.431651, 0
1141, 3365029087, 0.71990395, 0.435479, 0.16508922, -0.5147008, -1.401869, -4.921389, -0.10262871, 0
1142, 3365045754, 0.7131282, 0.4383251, 0.17661843, -0.5178807, -1.4014089, -2.5486045, -12.591679, 0
1144, 3365079088, 0.7084502, 0.43709067, 0.2181639, -0.5094406, 3.233166, 6.572496, 9.778076, 0
1145, 3365095755, 0.7106586, 0.42907873, 0.24123627, -0.5027286, 1.0126731, -0.37717924, -5.759367, 0
1146, 3365112422, 0.7106145, 0.4282026, 0.2564968, -0.49593753, 2.1112256, -2.5719433, 4.058798, 0
1148, 3365145756, 0.7113115, 0.42855823, 0.26650798, -0.48930818, 0.3478494, -1.3656298, 0.7058239, 0
1149, 3365162423, 0.7099934, 0.42900494, 0.2687227, -0.4896197, 0.1139288, -0.27596307, 0.57648945, 0
1150, 3365179090, 0.70771277, 0.42932135, 0.27241272, -0.49060392, -2.3111238, 1.2045075, -1.7110052, 0
1152, 3365212424, 0.7001871, 0.4286587, 0.28510693, -0.49475145, -0.48176563, -0.09093647, 0.48145294, 0
1153, 3365229091, 0.69501734, 0.42800713, 0.28991547, -0.4997849, 0.23829834, -1.9940298, 1.168499, 0
1154, 3365245758, 0.691676, 0.4255494, 0.2937652, -0.5042511, 0.6682396, -2.582434, 1.3647652, 0
1156, 3365279092, 0.6887331, 0.42297488, 0.29819208, -0.5078341, 0.29792443, -2.329377, 0.93483734, 0
1157, 3365295759, 0.68834424, 0.42184508, 0.29969275, -0.5084176, 1.0814369, -1.3287636, 0.10761547, 0
1158, 3365312426, 0.6868902, 0.42243958, 0.30307215, -0.5078868, 0.78365016, 0.30944562, -1.8663268, 0
1160, 3365345760, 0.6826379, 0.4290486, 0.31076944, -0.50340873, -0.16400889, -1.7987615, 1.9566736, 0
1161, 3365362427, 0.6797491, 0.43222395, 0.31459287, -0.5022252, 0.4138483, -0.90292203, -1.6808386, 0
1162, 3365379094, 0.6772301, 0.43465683, 0.31767702, -0.5015865, -0.71653223, -1.0889013, 1.5045156, 0
1164, 3365412428, 0.674997, 0.43885535, 0.3202173, -0.49932063, 0.26469767, -1.6363932, 1.0932741, 0
1165, 3365429095, 0.67479587, 0.43896005, 0.32000256, -0.49963766, 1.1751341, 0.21799956, 0.7463875, 0
1168, 3365479096, 0.6742947, 0.44014707, 0.31912178, -0.4998336, -0.028431742, 0.39406866, -0.46119118, 0
1169, 3365495763, 0.673558, 0.44010502, 0.31952918, -0.500603, -0.20436393, 0.5301413, -0.2523527, 0
1171, 3365529097, 0.67201906, 0.4377792, 0.3198725, -0.5044765, 1.1917802, 1.2431941, -0.0717535, 0
1172, 3365545764, 0.671619, 0.43432203, 0.32001406, -0.5078962, 2.7129936, 0.7163132, 0.5892391, 0
1173, 3365562431, 0.6724262, 0.42869952, 0.31890625, -0.5122827, 0.9869749, 1.0249219, 1.1315804, 0
1175, 3365595765, 0.6717005, 0.41659427, 0.31869206, -0.52323824, -0.83920956, 3.581769, 0.6548214, 0
1176, 3365612432, 0.6692778, 0.41177675, 0.32070035, -0.52889854, 0.10576991, 3.323205, 0.19355011, 0
1177, 3365629099, 0.66569734, 0.40853798, 0.3235507, -0.53416646, 0.61228824, 0.78026986, 0.19955063, 0
1179, 3365662433, 0.65577936, 0.40794694, 0.3268562, -0.5447687, 1.2904118, 0.784544, 1.421464, 0
1180, 3365679100, 0.64710003, 0.4110246, 0.32644865, -0.5530161, 0.3671663, 0.8902938, 0.51661396, 0
1183, 3365729101, 0.60275674, 0.4268516, 0.29989904, -0.6038358, -2.0535471, -0.07681794, 1.4451828, 0
1184, 3365745768, 0.58361447, 0.42670026, 0.2813586, -0.6310575, -1.3405093, -0.39487845, 0.94010735, 0
1185, 3365762435, 0.56624395, 0.4234642, 0.2602119, -0.65757954, -0.44851497, 1.6596276, -1.1327896, 0
1187, 3365795769, 0.5564869, 0.40432584, 0.2261211, -0.68977344, 2.2040153, 1.4013516, -2.0698872, 0
1188, 3365812436, 0.56669635, 0.38986126, 0.2114619, -0.69442236, 3.1950653, -1.7783858, 0.3460436, 0
1189, 3365829103, 0.5782058, 0.37558207, 0.19706851, -0.69703335, 2.7465498, 1.1845313, -1.8906074, 0
1191, 3365862437, 0.5915506, 0.3483056, 0.17459692, -0.7059336, -3.8523102, 2.2754428, 3.2445946, 0
1192, 3365879104, 0.5956874, 0.33090773, 0.16399415, -0.71332866, -2.1437318, -0.5135648, 2.1266155, 0
1194, 3365912438, 0.60404813, 0.29112497, 0.14302713, -0.72800463, -0.6835711, 0.83135825, -3.1983895, 0
1195, 3365929105, 0.6097251, 0.27632532, 0.13293135, -0.73094726, 1.9183545, 3.270674, -2.6160069, 0
1198, 3365979106, 0.6190141, 0.26089698, 0.11859313, -0.73127633, 1.0983534, -1.0549523, 1.8489046, 0
1199, 3365995773, 0.621091, 0.261539, 0.1159154, -0.7297136, 0.5008219, -1.8115609, 1.2471123, 0
1200, 3366012440, 0.6230731, 0.2635127, 0.11324729, -0.72773004, 0.28923514, -1.5958251, 1.6350098, 0
1202, 3366045774, 0.62612545, 0.26670012, 0.107909106, -0.72475415, -2.2244716, 0.2377885, 1.3267527, 0
1203, 3366062441, 0.6276163, 0.26821417, 0.1059381, -0.7231953, -1.2101476, -0.42739424, -0.52540684, 0
1204, 3366079108, 0.62872404, 0.26958176, 0.10467093, -0.7219078, -0.14136815, -1.3816302, -1.9364014, 0
1206, 3366112442, 0.6293859, 0.27103335, 0.10348287, -0.72095823, -0.52210766, -1.2991036, 0.2740755, 0
1207, 3366129109, 0.6298299, 0.27046466, 0.102523565, -0.72092104, 0.040861074, -1.9413357, 1.2510805, 0
1208, 3366145776, 0.630019, 0.26937816, 0.10163778, -0.72128797, 0.65654516, -2.370251, 0.3038416, 0
1210, 3366179110, 0.6293712, 0.26713386, 0.10073122, -0.7228137, -0.023361575, -1.2021666, -0.28817177, 0
1212, 3366212444, 0.6278775, 0.26223463, 0.10276304, -0.7256155, -0.930043, -0.9080415, 1.1220331, 0
1215, 3366262445, 0.625378, 0.24821603, 0.1067716, -0.732097, -0.4439705, -1.6320257, -0.08798885, 0
1216, 3366279112, 0.6248576, 0.24268013, 0.10849961, -0.73414063, -1.5420885, -1.6372771, 0.5349369, 0
1218, 3366312446, 0.62459534, 0.23336437, 0.11041193, -0.737093, -0.85000455, -0.14207391, -1.1710052, 0
1219, 3366329113, 0.62470263, 0.23102778, 0.11161397, -0.7375569, -1.5881416, -0.8348326, -0.32924557, 0
1222, 3366379114, 0.6260741, 0.22528054, 0.11448327, -0.7377321, -0.50856864, 0.6200059, -0.28192997, 0
1223, 3366395781, 0.6268146, 0.22447576, 0.11520599, -0.7372359, -0.77423745, 1.0093399, -1.5595608, 0
1225, 3366429115, 0.62912786, 0.22307286, 0.11653899, -0.7354798, -1.4237483, 0.7334742, 1.5096493, 0
1226, 3366445782, 0.63017076, 0.22275959, 0.117192924, -0.7345775, -0.8883006, 0.60880864, 1.4166956, 0
1227, 3366462449, 0.6312184, 0.22222543, 0.117749706, -0.7337504, 0.37703237, 1.2646512, 0.7600422, 0
1229, 3366495783, 0.6332353, 0.22111228, 0.11931774, -0.73209363, 0.48320127, 1.5068347, 0.37034416, 0
1230, 3366512450, 0.6340933, 0.22023894, 0.12006876, -0.7314911, 0.28190568, 1.2851577, -0.27436924, 0
1231, 3366529117, 0.6346849, 0.21925388, 0.121064454, -0.73110974, -0.9905555, 1.1497916, 1.1868114, 0
1233, 3366562451, 0.6358348, 0.21743034, 0.12364079, -0.73022336, 1.0907817, 1.1929219, 0.65359783, 0
1234, 3366579118, 0.6362205, 0.21646108, 0.12479721, -0.7299788, 1.5130292, 1.8404104, 0.05373001, 0
1235, 3366595785, 0.63642836, 0.21558441, 0.12601253, -0.7298481, 1.2231499, 2.5272195, 0.7712021, 0
1237, 3366629119, 0.6372273, 0.21489756, 0.12761074, -0.7290756, 1.4704155, 1.6611693, 0.3583355, 0
1238, 3366645786, 0.6374554, 0.21465993, 0.12829083, -0.72882664, 1.5346451, 2.7201035, 0.015810966, 0
1239, 3366662453, 0.6372237, 0.21436325, 0.128932, -0.7290034, 0.049047235, 1.8565309, 2.0508995, 0
1242, 3366712454, 0.6357291, 0.21542564, 0.13097262, -0.7296313, 3.715312, 2.1935146, -1.8103228, 0
1243, 3366729121, 0.6359207, 0.21655482, 0.13031466, -0.72924757, 1.7219179, 2.936291, 0.73886395, 0
1245, 3366762455, 0.6356241, 0.22363819, 0.12971821, -0.72747254, -0.20127319, -1.333278, 2.764864, 0
1246, 3366779122, 0.6325877, 0.2290869, 0.1300361, -0.72836655, 1.2076894, -3.1973083, -1.4067764, 0
1247, 3366795789, 0.6235999, 0.23436923, 0.12918392, -0.7345617, -2.070889, -2.8744295, -4.661906, 0
1249, 3366829123, 0.6224019, 0.23180202, 0.1216843, -0.73766637, 2.7421184, -1.6910707, -5.855089, 0
1250, 3366845790, 0.6241258, 0.22830206, 0.1167047, -0.73810595, 2.6558065, -3.232219, 0.1633215, 0
1252, 3366879124, 0.6243018, 0.22573994, 0.11237757, -0.73941547, -0.79485387, -2.8060513, 5.2694435, 0
1253, 3366895791, 0.6233293, 0.2248249, 0.11213496, -0.74055076, -3.1119974, -3.8190358, 1.5327568, 0
1254, 3366912458, 0.6225311, 0.22267532, 0.11180326, -0.74192035, -4.239566, 0.13365155, 2.6172132, 0
1257, 3366962459, 0.62250817, 0.21816309, 0.11163455, -0.7433043, -0.74148947, -3.491163, 2.345027, 0
1258, 3366979126, 0.6231923, 0.21718976, 0.11240882, -0.7428993, -1.3098624, -2.267294, 1.6136112, 0
1260, 3367012460, 0.6258223, 0.2159219, 0.11411551, -0.74079484, -4.8852415, -0.9398044, -0.7350683, 0
1261, 3367029127, 0.627679, 0.21538018, 0.114856735, -0.7392657, -4.522366, -0.767754, 0.9045086, 0
1262, 3367045794, 0.6295166, 0.2145137, 0.11570974, -0.73782057, -2.8769076, -0.6827279, 0.62691975, 0
1264, 3367079128, 0.6337358, 0.21199535, 0.11616315, -0.7348593, -1.4181694, 0.019870777, -0.23946857, 0
1265, 3367095795, 0.63605237, 0.21110287, 0.11609967, -0.7331227, -0.98720276, -0.6742419, -1.1701374, 0
1266, 3367112462, 0.63872766, 0.21089858, 0.11574058, -0.73090905, -1.4594455, -1.3095981, -0.55385876, 0
1268, 3367145796, 0.6444201, 0.21260108, 0.11429313, -0.7256278, -0.83870333, -2.2165565, 0.89452267, 0
1269, 3367162463, 0.64704114, 0.21376064, 0.113959625, -0.72300243, -0.94737935, -1.1975402, 0.5965233, 0
1272, 3367212464, 0.65467066, 0.21814078, 0.11191486, -0.7151023, -0.6754609, 1.265542, 0.22146988, 0
1273, 3367229131, 0.65697396, 0.2204607, 0.11118369, -0.7123874, -0.7373547, 0.056321967, 0.011673927, 0
1275, 3367262465, 0.66110295, 0.22530445, 0.10866718, -0.707423, 1.3786182, 0.10085556, 0.8737984, 0
1276, 3367279132, 0.66265434, 0.22757888, 0.1078462, -0.7053661, 0.30330908, -0.35569376, 0.19640255, 0
1277, 3367295799, 0.66388285, 0.22875497, 0.10700022, -0.70395803, -0.3773862, 0.0072120647, 1.3033857, 0
1279, 3367329133, 0.66525614, 0.23034106, 0.10606452, -0.702284, 0.005007137, -0.72091967, 0.012387276, 0
1280, 3367345800, 0.66549927, 0.23054866, 0.10575959, -0.70203143, 0.8418124, 0.033903394, 1.2836018, 0
1281, 3367362467, 0.66560185, 0.23134345, 0.105558515, -0.7017031, 1.6533208, 0.08645883, 0.3725357, 0
1283, 3367395801, 0.6650257, 0.2350512, 0.105589226, -0.701012, 2.5299332, -1.5601381, -0.81783104, 0
1284, 3367412468, 0.66421074, 0.23704942, 0.10554254, -0.7011188, 0.79094684, -1.297868, 0.421113, 0
1287, 3367462469, 0.660918, 0.23750149, 0.10514936, -0.70412993, 0.5458959, -0.14019196, 0.58700943, 0
1288, 3367479136, 0.65957713, 0.2370781, 0.1050324, -0.705546, 0.6690062, -0.62528, 0.16430569, 0
1289, 3367495803, 0.6583175, 0.23661801, 0.10473425, -0.7069199, 0.666086, -1.4080867, 0.2197113, 0
1291, 3367529137, 0.65570295, 0.23570462, 0.10405192, -0.7097502, 1.0112748, 0.04283743, 0.2051754, 0
1292, 3367545804, 0.65441155, 0.2352915, 0.10357961, -0.71114695, 0.24473551, 0.27537805, 0.5972643, 0
1293, 3367562471, 0.65338683, 0.23484433, 0.10286475, -0.71233976, 0.24387565, 1.1084347, 0.19570637, 0
1295, 3367595805, 0.65211135, 0.23483819, 0.10104267, -0.7137699, 0.7075185, 0.20246546, 0.4351387, 0
1296, 3367612472, 0.6517625, 0.23499419, 0.10009706, -0.71417004, 0.27696016, 0.013491047, -0.16278553, 0
1297, 3367629139, 0.65150833, 0.2355076, 0.099258706, -0.71434975, -0.4265615, 0.6913397, -0.144763, 0
1299, 3367662473, 0.65124923, 0.2376806, 0.09795797, -0.714046, -0.88774854, 0.3423068, 0.72531414, 0
1300, 3367679140, 0.6512088, 0.23859555, 0.09723947, -0.71387607, 0.1595194, 1.2910992, 0.20634842, 0
1302, 3367712474, 0.6510098, 0.239971, 0.09604996, -0.7137574, 0.9080925, 0.30849484, -0.033355713, 0
1303, 3367729141, 0.6508359, 0.24094743, 0.09560413, -0.71364695, 0.1026861, -0.500277, 0.65030193, 0
1304, 3367745808, 0.6506568, 0.2425569, 0.09469769, -0.7133858, 0.7826297, 0.44797027, 0.802886, 0
1306, 3367779142, 0.64968807, 0.24540156, 0.09355348, -0.71344686, 0.5671174, -0.22186522, 0.7209282, 0
1307, 3367795809, 0.64881825, 0.24547091, 0.09386181, -0.7141738, -0.348929, -0.75303334, 0.603343, 0
1308, 3367812476, 0.64793617, 0.24468844, 0.0943242, -0.71518135, -0.043223828, -1.5403904, 2.0515823, 0
1310, 3367845810, 0.64610404, 0.24311617, 0.0952399, -0.7172509, 1.0288261, -1.2716162, -0.0942955, 0
1311, 3367862477, 0.6451063, 0.24217273, 0.09567531, -0.7184091, 0.71869695, -0.44114003, 1.1958809, 0
1314, 3367912478, 0.6424832, 0.24112162, 0.096613966, -0.720983, -0.029779749, -0.32792142, -0.72396946, 0
1315, 3367929145, 0.64187264, 0.24070954, 0.096444786, -0.7216868, -0.09372278, -0.6800725, 0.8536539, 0
1316, 3367945812, 0.6413642, 0.2407347, 0.09615054, -0.72216964, 0.66037303, 0.7918082, -0.19699574, 0
1318, 3367979146, 0.640722, 0.24153376, 0.09517428, -0.72260225, 0.48941347, 0.32004452, 0.277565, 0
1319, 3367995813, 0.6404081, 0.24225344, 0.09457153, -0.72271866, -0.054656517, -0.29074553, 0.062529564, 0
1320, 3368012480, 0.6401783, 0.2431025, 0.09396395, -0.72271633, 0.19826001, 0.49490696, 0.52827454, 0
1322, 3368045814, 0.6395445, 0.24334466, 0.09301092, -0.72331905, -0.11250525, -0.3033142, 0.6043043, 0
1323, 3368062481, 0.63907784, 0.24344008, 0.09282793, -0.7237226, 0.16120961, -0.66141963, 0.74020004, 0
1324, 3368079148, 0.63855886, 0.24313144, 0.0929149, -0.7242732, 0.5676666, -1.5219747, 0.3389187, 0
1326, 3368112482, 0.6375561, 0.24237867, 0.09282449, -0.7254196, 0.2682368, 0.14499412, 0.53607845, 0
1329, 3368162483, 0.6358491, 0.24143305, 0.09332493, -0.72716683, -0.1503764, -0.5143086, 0.6033745, 0
1330, 3368179150, 0.6353476, 0.24093014, 0.09358892, -0.7277378, -0.6828918, -0.7161668, 0.66913986, 0
1331, 3368195817, 0.63485014, 0.24070732, 0.09389039, -0.72820663, 0.07491394, -0.16137807, -0.019997597, 0
1333, 3368229151, 0.6341808, 0.2401441, 0.09408215, -0.7289506, 0.5070445, 0.0771814, -0.046014786, 0
1334, 3368245818, 0.63403386, 0.23988587, 0.09398795, -0.72917545, -0.5335411, 0.29717964, 0.757102, 0
1335, 3368262485, 0.63402957, 0.2398444, 0.09384666, -0.7292113, -0.48697102, 0.2968098, 0.80084324, 0
1337, 3368295819, 0.63392496, 0.24050294, 0.09362983, -0.72911316, -0.5489735, -0.73016506, -0.09512329, 0
1338, 3368312486, 0.6339349, 0.2405371, 0.09341301, -0.7291211, -0.084681235, -0.4743669, 0.91860104, 0
1339, 3368329153, 0.63395965, 0.24064308, 0.093305305, -0.7290784, -0.34010223, -0.3624245, 0.6865101, 0
1341, 3368362487, 0.6339489, 0.24096912, 0.09355231, -0.7289485, 0.13429105, -0.18635742, 0.84988403, 0
1343, 3368395821, 0.63400507, 0.24091312, 0.09345156, -0.728931, 0.063302666, 0.38157776, 0.10645771, 0
1345, 3368429155, 0.6338593, 0.24187768, 0.09388503, -0.7286825, -0.17188147, -1.2017395, 0.7101011, 0
1346, 3368445822, 0.63379025, 0.24218762, 0.09378861, -0.7286521, 0.62568855, -0.246212, 0.026394844, 0
1347, 3368462489, 0.6335279, 0.24262239, 0.0938276, -0.7287306, 1.014937, 0.41604134, -0.21494484, 0
1349, 3368495823, 0.6329968, 0.24279755, 0.093341745, -0.72919595, 0.39303422, 0.24440868, -0.122715, 0
1350, 3368512490, 0.63283205, 0.24286893, 0.093149535, -0.72933984, 0.5437604, -0.4962861, 0.48101997, 0
1351, 3368529157, 0.6326145, 0.24268788, 0.092745505, -0.72964025, 0.60014445, -0.21868622, 0.7006779, 0
1353, 3368562491, 0.631533, 0.24250251, 0.09262229, -0.73065376, 0.7109233, 0.3790192, 0.80366707, 0
1354, 3368579158, 0.63092387, 0.24258024, 0.09271569, -0.73114234, 1.2084183, -0.30008647, 0.7323828, 0
1356, 3368612492, 0.6297997, 0.24231778, 0.092558615, -0.7322176, 0.7790526, 1.7019871, -0.07179642, 0
1358, 3368645826, 0.6285796, 0.24190465, 0.09195252, -0.7334779, 1.8284878, 0.86240613, -0.28021622, 0
1360, 3368679160, 0.6269996, 0.24134997, 0.091871545, -0.7350214, 0.59172285, 0.9835162, 1.5239983, 0
1361, 3368695827, 0.6257726, 0.24099073, 0.092571646, -0.7360963, 0.4691935, 1.4168183, 2.164856, 0
1362, 3368712494, 0.62405944, 0.2409992, 0.093780905, -0.7373937, 2.0911279, 2.882243, -0.86285305, 0
1364, 3368745828, 0.62172824, 0.24030343, 0.094316624, -0.73951864, 3.227615, 2.751435, -1.3697414, 0
1365, 3368762495, 0.62109834, 0.23931699, 0.093893304, -0.74042135, 1.5809815, 2.3815506, 2.2109537, 0
1366, 3368779162, 0.62030506, 0.23915629, 0.09414743, -0.7411054, 1.0991449, 2.220132, 0.8925638, 0
1368, 3368812496, 0.6173072, 0.23992412, 0.09626182, -0.7430861, 3.7041016, 5.492251, 0.48703194, 0
1369, 3368829163, 0.6143912, 0.24192306, 0.09905215, -0.7444868, 4.721668, 2.2874072, -5.3066597, 0
1370, 3368845830, 0.6131509, 0.24166988, 0.09881073, -0.745623, 3.35231, 2.3466039, -2.2748976, 0
1372, 3368879164, 0.61254877, 0.24385774, 0.09758344, -0.74556696, -0.25608215, -1.1094928, 5.587449, 0
1373, 3368895831, 0.61140794, 0.2485816, 0.099237755, -0.7447246, -0.6005612, -3.2603056, 4.500684, 0
1374, 3368912498, 0.607635, 0.25541165, 0.1009155, -0.74527574, -0.6257261, -5.1410036, 0.96246624, 0
1376, 3368945832, 0.5941382, 0.26056692, 0.09807801, -0.7546924, -6.2376733, -2.5779605, -7.907053, 0
1377, 3368962499, 0.59567213, 0.2541347, 0.09198925, -0.7564415, -1.0410295, -3.1989148, -5.85839, 0
1378, 3368979166, 0.59624875, 0.2523238, 0.08748992, -0.75712675, 0.47912708, -2.2800448, 0.22022724, 0
1380, 3369012500, 0.5936097, 0.25303975, 0.08229058, -0.75954056, 1.4303086, -4.875717, 5.3669395, 0
1381, 3369029167, 0.59198225, 0.2524939, 0.08098609, -0.76113087, -0.12708321, -3.1574953, 1.1164522, 0
1383, 3369062501, 0.589672, 0.24859896, 0.07983959, -0.76432085, -2.4060183, 3.6510823, 0.98413754, 0
1385, 3369095835, 0.5877104, 0.24623978, 0.079548046, -0.76662225, 1.0267863, -3.7674043, 1.6952, 0
1387, 3369129169, 0.5878119, 0.24555369, 0.080538265, -0.766661, -1.7454967, -1.5404023, 1.0031815, 0
1388, 3369145836, 0.5886267, 0.24622557, 0.08087167, -0.76578504, -3.834032, -0.87104726, -1.0459089, 0
1389, 3369162503, 0.589949, 0.24686804, 0.080577284, -0.7645905, -4.400423, 0.6145377, -0.97479725, 0
1391, 3369195837, 0.5931937, 0.24822454, 0.079277344, -0.7617717, -2.087418, -1.4143178, -0.7896881, 0
1392, 3369212504, 0.59486645, 0.24955298, 0.078612745, -0.76010036, -1.7795308, -2.3861458, -1.239645, 0
1393, 3369229171, 0.5964455, 0.25164756, 0.07829778, -0.7582024, -1.2270807, -1.7621206, -2.534017, 0
1395, 3369262505, 0.5996358, 0.25420713, 0.07608031, -0.7550514, 0.6804957, -0.4562297, 2.2702866, 0
1396, 3369279172, 0.6005708, 0.2559892, 0.075569354, -0.75375634, -0.060645323, -4.2036643, -1.399477, 0
1397, 3369295839, 0.6013845, 0.25717413, 0.0751865, -0.75274193, 0.95212007, -1.3115988, -1.1011009, 0
1400, 3369345840, 0.60153055, 0.25954086, 0.074472375, -0.75188345, 0.46523416, -0.6398882, -0.05041027, 0
1401, 3369362507, 0.60096294, 0.25988144, 0.07439733, -0.75222695, 0.5987572, -2.3967435, 1.552597, 0
1403, 3369395841, 0.5991286, 0.25958624, 0.07476338, -0.7537543, 0.105204865, -2.0350769, 0.65365505, 0
1404, 3369412508, 0.59799796, 0.2592909, 0.075130075, -0.75471675, 0.93504924, -0.5828702, -0.24181747, 0
1405, 3369429175, 0.5967282, 0.25887606, 0.07553576, -0.7558228, 0.1293483, -1.2526436, 0.38837814, 0
1407, 3369462509, 0.5941066, 0.25677004, 0.07627557, -0.7585274, 0.1110428, -1.6309553, 1.3156567, 0
1408, 3369479176, 0.5926056, 0.25630388, 0.0770282, -0.759782, -0.70841557, -2.356092, -0.27458286, 0
1410, 3369512510, 0.5904091, 0.255243, 0.07747354, -0.7618013, 0.7960582, -0.114650235, -1.2746878, 0
1411, 3369529177, 0.58956087, 0.2546143, 0.077668525, -0.7626483, -0.24718924, -1.1191481, 0.09225178, 0
1412, 3369545844, 0.588961, 0.2528503, 0.078152455, -0.7636487, -1.2812806, -0.36966944, 1.8451586, 0
1415, 3369595845, 0.58703375, 0.24669361, 0.08117779, -0.7668239, -1.3215693, -0.5142245, -0.06261349, 0
1416, 3369612512, 0.5867222, 0.24487366, 0.08242322, -0.76751256, -0.33965698, 0.84895176, -0.40070248, 0
1418, 3369645846, 0.5862416, 0.24183194, 0.0846751, -0.76859826, 0.21752818, 0.89864284, -0.26034546, 0
1419, 3369662513, 0.5862081, 0.24076559, 0.08569331, -0.76884586, -0.16519016, 1.0174387, -0.4208479, 0
1420, 3369679180, 0.5864702, 0.23976979, 0.08669686, -0.76884466, 0.18315032, 1.0667434, -0.08717728, 0
1422, 3369712514, 0.5875994, 0.2375464, 0.08738697, -0.76859444, 0.53194547, 1.8540193, 0.8298712, 0
1423, 3369729181, 0.58851355, 0.23679867, 0.087506965, -0.76811194, 0.4248617, 2.0083697, -0.5393057, 0
1424, 3369745848, 0.5897275, 0.2359567, 0.08734566, -0.76745796, -0.1700985, 1.2263354, 1.44697, 0
1426, 3369779182, 0.5922681, 0.2352308, 0.08744196, -0.7657114, -0.7371189, 1.5787643, -0.39116573, 0
1427, 3369795849, 0.593467, 0.23534212, 0.087726824, -0.7647158, 0.35384202, 0.772364, 0.2878437, 0
1430, 3369845850, 0.59618556, 0.23502095, 0.08807567, -0.76265705, 0.04138767, -0.71110165, -0.25947475, 0
1431, 3369862517, 0.59673166, 0.23568204, 0.08820241, -0.76201123, -0.3118263, -0.9720122, 0.97649574, 0
1432, 3369879184, 0.597275, 0.23645486, 0.08825746, -0.7613392, 0.659885, 0.097993456, 0.8869982, 0
1434, 3369912518, 0.597787, 0.23643617, 0.08889627, -0.76086867, 0.16846104, 0.34818536, 0.98885345, 0
1435, 3369929185, 0.5978571, 0.23642592, 0.0892196, -0.76077896, -0.40681726, 0.045728892, 0.722435, 0
1437, 3369962519, 0.5986265, 0.23664054, 0.08855632, -0.76018465, 1.0876445, -0.5902043, 0.22976017, 0
1438, 3369979186, 0.59885603, 0.2371482, 0.088205025, -0.75988626, 0.47545877, -0.203648, 0.3820839, 0
1439, 3369995853, 0.5991625, 0.23783071, 0.08762498, -0.75949836, -0.795382, -0.18621624, 1.2269859, 0
1441, 3370029187, 0.5998216, 0.23972236, 0.08690879, -0.758465, -0.0145339295, -0.7728557, 0.67580605, 0
1442, 3370045854, 0.6001211, 0.24011719, 0.08664879, -0.75813293, 0.09569752, 0.33389252, -0.13121414, 0
1443, 3370062521, 0.600118, 0.2404967, 0.08658154, -0.7580229, 0.33302715, -0.28602043, -0.61551, 0
1445, 3370095855, 0.59944105, 0.23956257, 0.08739777, -0.7587602, -0.25802985, 0.15119094, 0.085575104, 0
1446, 3370112522, 0.5990559, 0.23858713, 0.08757126, -0.7593514, -0.06315158, 1.1393523, 0.15707397, 0
1447, 3370129189, 0.5985036, 0.23816937, 0.087936625, -0.75987566, 0.19015901, -0.32382524, 0.30391026, 0
1449, 3370162523, 0.5977223, 0.23757555, 0.08825919, -0.7606387, 0.6301979, 0.824277, 0.45354939, 0
1450, 3370179190, 0.5975021, 0.23764646, 0.088393375, -0.760774, 0.10160452, -0.122475445, 0.8588667, 0
1451, 3370195857, 0.59733963, 0.23778926, 0.08820893, -0.76087844, 0.40151086, 1.083421, 1.028182, 0
1453, 3370229191, 0.5972299, 0.23881713, 0.087735236, -0.7606975, -1.2228309, -0.93919384, 1.3944283, 0
1454, 3370245858, 0.59765404, 0.23919055, 0.08705376, -0.76032525, -0.5799386, 0.74827725, 1.4896021, 0
1457, 3370295859, 0.59864783, 0.24255314, 0.08536829, -0.7586673, 0.18299833, 1.6711571, -0.13281918, 0
1458, 3370312526, 0.5993452, 0.24428393, 0.08466871, -0.7576391, 0.87388605, 0.9804672, -0.52702045, 0
1459, 3370329193, 0.60011464, 0.24572335, 0.083897986, -0.7566497, 0.035638917, 0.6095037, -0.36720467, 0
1461, 3370362527, 0.6017818, 0.24798252, 0.08213521, -0.7547798, 0.0062483046, 1.5135046, 0.42618656, 0
1462, 3370379194, 0.6023475, 0.24926478, 0.08150226, -0.7539743, 0.44097072, 0.056381185, 1.0220356, 0
1464, 3370412528, 0.60252404, 0.25239408, 0.08044387, -0.7529051, 2.2736263, 1.8187428, -0.59192276, 0
1465, 3370429195, 0.6026519, 0.25361937, 0.0798553, -0.7524535, 2.1944675, 0.7082862, -0.6317148, 0
1466, 3370445862, 0.60282606, 0.25396007, 0.07919826, -0.7522687, 0.61156094, 1.4428058, 1.5885448, 0
1468, 3370479196, 0.6011026, 0.25683117, 0.080181204, -0.75256866, 1.3454608, 0.9395598, 2.6432867, 0
1469, 3370495863, 0.5988883, 0.25886577, 0.08184311, -0.75345755, 4.262802, 2.4390817, -1.0418482, 0
1472, 3370545864, 0.5957601, 0.25805652, 0.08088918, -0.7563128, 2.199551, 3.0646641, 3.3586054, 0
1473, 3370562531, 0.59445846, 0.25925913, 0.08125365, -0.7568862, 1.7057371, 0.8364251, 4.95957, 0
1474, 3370579198, 0.59204185, 0.26219538, 0.082863264, -0.7575941, 2.5904706, -1.4298592, 1.0750761, 0
1476, 3370612532, 0.58571434, 0.2655433, 0.085056834, -0.76109535, 1.9846725, 0.87929505, -5.271014, 0
1477, 3370629199, 0.5856294, 0.2618463, 0.082116485, -0.7627625, 1.0388075, 1.3499483, -3.4760957, 0
1478, 3370645866, 0.585775, 0.25795808, 0.07867586, -0.76433676, 0.23123242, -1.5401651, -1.0264912, 0
1480, 3370679200, 0.58523464, 0.25377002, 0.07424376, -0.76659274, -3.604787, -7.2845016, 3.125824, 0
1481, 3370695867, 0.58432066, 0.2538111, 0.07326337, -0.7673701, -2.4946914, -5.943773, 2.3106766, 0
1482, 3370712534, 0.58323735, 0.2544898, 0.0725731, -0.7680347, -2.3458586, -5.899565, -0.005718231, 0
1484, 3370745868, 0.582185, 0.2538131, 0.0713361, -0.7691724, -2.428537, 0.4684185, -0.40698624, 0
1486, 3370779202, 0.5818884, 0.2525488, 0.071151495, -0.76982975, -4.8471446, -4.308758, 4.4255495, 0
1488, 3370812536, 0.58122504, 0.25168574, 0.073101, -0.77043045, -0.69874173, -5.421781, 1.7963362, 0
1489, 3370829203, 0.58114845, 0.25174323, 0.07440296, -0.7703449, -0.31226996, -2.1217086, -1.5155134, 0
1490, 3370845870, 0.58153117, 0.2524323, 0.0754755, -0.769726, -1.1920395, -0.6740207, -1.7969666, 0
1492, 3370879204, 0.5820276, 0.25304514, 0.07720983, -0.7689772, -1.6917022, -1.5544796, 0.5739784, 0
1493, 3370895871, 0.5819589, 0.2529614, 0.07850718, -0.76892537, -2.2189655, -2.8663464, 0.63388443, 0
1495, 3370929205, 0.5816907, 0.25228345, 0.081290916, -0.76906174, -0.17799254, -1.5867624, -0.13042068, 0
1496, 3370945872, 0.5817647, 0.251579, 0.082427494, -0.76911545, -1.6088926, 0.5073166, -0.7506523, 0
1497, 3370962539, 0.581954, 0.2511862, 0.083513476, -0.7689834, -1.9137973, -0.058420397, -0.3549614, 0
1499, 3370995873, 0.5833341, 0.2509744, 0.08485902, -0.7678589, -0.5799227, -1.2150117, -0.596076, 0
1501, 3371029207, 0.58492106, 0.25204033, 0.08655267, -0.7661115, -1.8914685, -1.0117874, 4.901246, 0
1503, 3371062541, 0.58761233, 0.25431627, 0.08637266, -0.7633151, -0.459396, -2.6137564, 0.3773136, 0
1504, 3371079208, 0.58902395, 0.25658822, 0.08600237, -0.7615065, 1.7702124, 1.8554767, -1.4026718, 0
1505, 3371095875, 0.5904238, 0.25852406, 0.08513597, -0.75986326, -0.48871845, 1.1061723, 1.2019272, 0
1507, 3371129209, 0.5932176, 0.26373103, 0.08317855, -0.75610536, 0.43069583, 0.59540045, 0.22315407, 0
1508, 3371145876, 0.5940696, 0.2661303, 0.082391344, -0.7546807, 1.4078943, -0.7580594, 0.8761921, 0
1509, 3371162543, 0.5946756, 0.26747665, 0.0814031, -0.7538341, 1.8454952, 1.3645346, 1.4029531, 0
1511, 3371195877, 0.59618515, 0.27004126, 0.078864865, -0.75199515, 0.43918866, 0.54113257, 8.751127, 0
1512, 3371212544, 0.5966952, 0.27145714, 0.07716088, -0.7512572, 3.8866615, 5.519455, -5.210129, 0
1513, 3371229211, 0.5962065, 0.2738925, 0.07712631, -0.75076455, -0.37177065, -4.434424, 1.3318386, 0
1515, 3371262545, 0.595324, 0.27888533, 0.07787145, -0.749549, -2.10788, -3.3208213, 1.4816265, 0
1516, 3371279212, 0.59525394, 0.27953982, 0.07718565, -0.7494318, 1.3745888, 2.620622, 0.50796604, 0
1518, 3371312546, 0.5935934, 0.28371802, 0.07698932, -0.74919873, -0.8488358, -1.5651199, 0.56681633, 0
1519, 3371329213, 0.59261626, 0.28677237, 0.07782419, -0.7487231, -0.1403534, -1.7323544, 1.3190393, 0
1520, 3371345880, 0.59159696, 0.29263383, 0.08051507, -0.74697465, -0.16627441, -1.2980953, -2.2764168, 0
1522, 3371379214, 0.58978546, 0.30703402, 0.085933484, -0.7420066, 1.4371231, 0.4705159, 0.42028618, 0
1523, 3371395881, 0.58852935, 0.31483114, 0.08937117, -0.73932564, -0.519175, -0.79481506, 0.37240124, 0
1524, 3371412548, 0.5878618, 0.32298058, 0.09263847, -0.73593146, 0.4940327, 0.07260463, 0.7727585, 0
1526, 3371445882, 0.5862127, 0.3312375, 0.09788895, -0.732891, 1.9804285, 2.0029318, -1.7054691, 0
1528, 3371479216, 0.58145595, 0.35104054, 0.109713666, -0.7257531, -1.6574558, -2.2468264, 4.872257, 0
1530, 3371512550, 0.571741, 0.37711492, 0.13037544, -0.71691984, 2.6455917, 1.2479547, -1.8795352, 0
1531, 3371529217, 0.5661568, 0.39366013, 0.14412035, -0.7097906, 4.101739, 1.0283355, -0.48097515, 0
1532, 3371545884, 0.5606303, 0.41193366, 0.15809546, -0.7007749, 1.5213588, -4.2048507, 1.6302204, 0
1534, 3371579218, 0.548616, 0.4488226, 0.18447903, -0.6808974, -2.215884, -3.717453, 0.96751976, 0
1535, 3371595885, 0.5415356, 0.46868116, 0.19747692, -0.6694438, 0.6878808, 2.1134152, -2.6208339, 0
1536, 3371612552, 0.5325194, 0.4888458, 0.21219766, -0.6576475, 0.26596433, 0.059260074, -1.9659796, 0
1538, 3371645886, 0.516507, 0.5193902, 0.23833779, -0.63774943, -1.4829937, -0.18544915, 0.54717445, 0
1539, 3371662553, 0.50965023, 0.5318194, 0.24943215, -0.6287159, -1.1460587, -2.0693192, 0.4427929, 0
1540, 3371679220, 0.50343966, 0.5417826, 0.25924212, -0.6211996, -0.62477547, -1.7871168, 2.508359, 0
1543, 3371729221, 0.48174062, 0.57433116, 0.29331464, -0.59338987, 0.4898519, -0.58614343, -1.147131, 0
1545, 3371762555, 0.4710211, 0.59527266, 0.3111677, -0.57187355, 0.69861794, 1.7042886, -1.2406216, 0
1546, 3371779222, 0.4660124, 0.6061042, 0.31913117, -0.56009007, 0.9663567, 0.6339852, -0.28544712, 0
1547, 3371795889, 0.4612803, 0.6158656, 0.32551077, -0.54958886, 3.3237953, 1.7437804, 1.1921062, 0
1549, 3371829223, 0.45508236, 0.6266675, 0.33552805, -0.53636175, -1.524876, 3.6138144, 0.37765026, 0
1550, 3371845890, 0.45313233, 0.6305799, 0.33833206, -0.5316452, -0.22407532, 3.5645278, -0.051369667, 0
1551, 3371862557, 0.45052356, 0.6341479, 0.34017342, -0.5284338, 1.6734027, 1.1211141, -1.0199738, 0
1553, 3371895891, 0.4467296, 0.6378591, 0.3407047, -0.5268433, 0.23909315, -0.7718529, -0.56772137, 0
1554, 3371912558, 0.44883302, 0.63701266, 0.33880007, -0.52730757, -0.15410906, 1.4164351, 4.4022007, 0
1555, 3371929225, 0.45189548, 0.63304275, 0.33538604, -0.53163767, 2.1353588, 2.9192061, -0.9161148, 0
1558, 3371979226, 0.45494312, 0.62922996, 0.3258535, -0.5394361, 0.29180333, -1.7659417, 1.708458, 0
1559, 3371995893, 0.45689172, 0.63070613, 0.32126293, -0.53881836, 1.4943017, -2.1612723, 2.2887583, 0
1561, 3372029227, 0.4624251, 0.6346538, 0.31037056, -0.5358386, -0.99759644, 0.36381337, 1.0343704, 0
1562, 3372045894, 0.46930134, 0.635325, 0.30681175, -0.53109324, -0.124992914, -1.257428, 0.031012535, 0
1563, 3372062561, 0.47675958, 0.6376979, 0.29871228, -0.5262014, 1.0726002, -2.3144512, 0.5449457, 0
1565, 3372095895, 0.49738026, 0.6445443, 0.26312822, -0.5177008, 0.83981866, -4.730737, 4.7583103, 0
1566, 3372112562, 0.51331145, 0.6411713, 0.23811367, -0.5184474, 2.9207, -3.956868, 3.4840765, 0
1567, 3372129229, 0.5308527, 0.6317588, 0.21377963, -0.5229244, 0.44959676, -1.7574365, 0.80193806, 0
1569, 3372162563, 0.55674595, 0.59555894, 0.18909295, -0.54741436, 8.401099, -9.747785, 0.47040558, 0
1570, 3372179230, 0.55897343, 0.56831545, 0.18372871, -0.57522637, 4.4963055, -4.883161, -0.68459034, 0
1573, 3372229231, 0.5479268, 0.48337615, 0.20423871, -0.6515256, -1.3785931, 2.5338037, -3.4845853, 0
1574, 3372245898, 0.54424196, 0.46138567, 0.21273994, -0.6676381, -1.5970213, 3.7725084, -3.243949, 0
1576, 3372279232, 0.54093564, 0.42819327, 0.22640422, -0.6876449, -2.1439958, 5.4577746, -2.092247, 0
1577, 3372295899, 0.54273266, 0.41519776, 0.22983998, -0.69303757, -1.5920643, 5.3729315, -1.0570259, 0
1578, 3372312566, 0.5477356, 0.40418112, 0.22902218, -0.695879, -1.2739816, 4.7239723, -0.61443424, 0
1580, 3372345900, 0.56349313, 0.3860284, 0.22152312, -0.69603175, -1.0814035, 1.9884607, 0.7643957, 0
1581, 3372362567, 0.5717151, 0.37826583, 0.21608432, -0.69529825, -1.0223652, 0.7587841, 1.57405, 0
1582, 3372379234, 0.5784692, 0.37074533, 0.2102833, -0.69554126, -1.0757684, -0.35373932, 1.9216557, 0
1584, 3372412568, 0.58510256, 0.35727417, 0.19443806, -0.7016261, -1.1057711, -1.7436978, 0.7065315, 0
1585, 3372429235, 0.5849446, 0.352126, 0.18516293, -0.70685, -1.9365605, -1.1614654, 1.5972614, 0
1586, 3372445902, 0.58361334, 0.3467953, 0.17771149, -0.7124762, -3.091517, -0.16768713, 1.5734711, 0
1588, 3372479236, 0.5804684, 0.33694556, 0.17029725, -0.7215247, -3.457154, 0.45004606, -0.38603687, 0
1589, 3372495903, 0.57877195, 0.33505368, 0.16776375, -0.7243566, -3.032213, 0.067999795, -0.22267246, 0
1590, 3372512570, 0.5774914, 0.33540073, 0.16321653, -0.72625446, -2.0528183, -0.7246769, 0.32757282, 0
1592, 3372545904, 0.578058, 0.33689234, 0.14915967, -0.72813386, -1.4292867, -0.97162336, 0.43224144, 0
1593, 3372562571, 0.5788778, 0.3356999, 0.1442471, -0.7290226, -0.80052817, -1.8687375, -0.46833038, 0
1594, 3372579238, 0.578779, 0.33423826, 0.14000946, -0.7305973, -0.14227784, -2.3223596, -0.89374447, 0
1596, 3372612572, 0.575138, 0.3321696, 0.13190812, -0.7359042, -0.45721117, -1.4670143, -0.26533508, 0
1597, 3372629239, 0.5734879, 0.3302264, 0.12825587, -0.7387069, -1.2665662, -1.15324, 1.6019402, 0
1600, 3372679240, 0.575827, 0.31447893, 0.12497209, -0.7443006, -1.5834044, 0.2558793, -1.8864856, 0
1601, 3372695907, 0.5778083, 0.31222337, 0.12600091, -0.7435409, -1.0938979, 0.18701226, -1.7195377, 0
1603, 3372729241, 0.5840396, 0.3104499, 0.12719205, -0.73919946, -1.6186086, -0.11741376, 2.2947063, 0
1604, 3372745908, 0.5882634, 0.30709556, 0.1278167, -0.7371409, -1.1994824, -0.48693258, 1.729886, 0
1605, 3372762575, 0.5921321, 0.30279806, 0.12925401, -0.73556876, -0.6786159, -0.78799, 0.24397945, 0
1607, 3372795909, 0.59648633, 0.29903984, 0.13357362, -0.73281145, -0.35560554, -0.42195973, -1.4601259, 0
1608, 3372812576, 0.5978628, 0.3006924, 0.13611063, -0.73054314, -0.9380669, 0.5660049, -1.1197529, 0
1609, 3372829243, 0.59981644, 0.30301327, 0.14015126, -0.7272111, -1.6178409, 1.0168891, 0.77212524, 0
1611, 3372862577, 0.606953, 0.3013973, 0.15004726, -0.7199507, -0.051373336, 0.90387684, 0.3215618, 0
1612, 3372879244, 0.60995036, 0.30139756, 0.15482876, -0.716396, 1.4874202, 0.53401196, -1.1826725, 0
1615, 3372929245, 0.61551833, 0.31045228, 0.16536549, -0.7053268, 2.544771, 1.8861678, 3.169384, 0
1616, 3372945912, 0.6175608, 0.30839613, 0.16696537, -0.70406556, 3.0581992, 1.3166806, 3.769929, 0
1617, 3372962579, 0.61861646, 0.30389187, 0.16660526, -0.7051817, 3.6672368, 1.2080616, 0.5135641, 0
1619, 3372995913, 0.6171285, 0.29789025, 0.16130947, -0.7102593, 2.1646342, 1.5955344, 0.093185425, 0
1620, 3373012580, 0.6163043, 0.29595223, 0.15761179, -0.7126115, 1.5784885, 1.2039986, 0.529047, 0
1621, 3373029247, 0.61609477, 0.29350632, 0.15149716, -0.715126, 0.0041074976, -0.18671004, 3.5689154, 0
1623, 3373062581, 0.6170447, 0.2820073, 0.13495561, -0.7222118, -1.8122697, -2.1419542, 0.09332466, 0
1624, 3373079248, 0.61574775, 0.27679864, 0.1277473, -0.7266313, -2.9110136, -3.9921827, -1.6728106, 0
1626, 3373112582, 0.60974807, 0.27619597, 0.11591551, -0.73386765, -6.0781775, -7.4071198, -5.9175324, 0
1627, 3373129249, 0.6062486, 0.28099728, 0.11366618, -0.7352946, -8.6722, -8.763078, -5.1544676, 0
1630, 3373179250, 0.60483176, 0.29958072, 0.10951826, -0.7297336, -14.412951, -12.310214, -4.355237, 0
1631, 3373195917, 0.6058016, 0.3037083, 0.1161157, -0.7261942, -15.071498, -14.466801, -8.316363, 0
1632, 3373212584, 0.6047127, 0.3160205, 0.1252726, -0.7203026, -15.806781, -17.90387, -11.544835, 0
1634, 3373245918, 0.5726499, 0.3334083, 0.1697357, -0.72950387, -12.274359, -60.677708, 10.419893, 0
1635, 3373262585, 0.55194974, 0.33859837, 0.16543683, -0.74391425, 14.917596, -13.559279, 5.403265, 0
1636, 3373279252, 0.5391646, 0.34382245, 0.18011788, -0.74747586, 5.559565, 13.243002, 0.34962368, 0
1638, 3373312586, 0.5250683, 0.3693692, 0.21228494, -0.7368038, -0.06691353, 3.2614515, 0.24250221, 0
1639, 3373329253, 0.5124029, 0.39102983, 0.23788851, -0.726652, 2.6200352, 6.410517, 0.06868553, 0
1640, 3373345920, 0.48996222, 0.42714456, 0.27881777, -0.70697975, 3.710223, 7.3973284, -1.4753094, 0
1642, 3373379254, 0.39533126, 0.5522615, 0.38699955, -0.62372017, 6.877005, 6.6105127, 16.903683, 0
1644, 3373412588, 0.19414587, 0.7042385, 0.41748202, -0.5404993, -29.655584, 24.609499, 59.37763, 0
1646, 3373445922, 0.14749911, 0.7741458, 0.48580387, -0.3781695, 22.128756, 5.3254786, 27.533203, 0
1647, 3373462589, 0.09578496, 0.7900966, 0.507898, -0.32967773, 24.836134, 13.870616, 14.768173, 0
1648, 3373479256, 0.053274564, 0.80301815, 0.5200559, -0.28625286, 20.970469, 41.40575, -7.68819, 0
1650, 3373512590, -0.021798953, 0.8181679, 0.52978355, -0.22255446, 22.496275, 15.813163, -22.936493, 0
1651, 3373529257, -0.052194428, 0.81989616, 0.5327169, -0.20330763, 14.21762, 14.7625885, -34.73505, 0
1653, 3373562591, -0.06450184, 0.81487113, 0.5456925, -0.18471408, 10.877937, 4.7114377, -27.53037, 0
1654, 3373579258, -0.059970926, 0.80864346, 0.5529221, -0.19196811, 9.186128, 5.606116, -21.017246, 0
1655, 3373595925, -0.05131668, 0.80044544, 0.5597303, -0.20840031, 8.467272, 5.654469, -14.753419, 0
1657, 3373629259, -0.032599956, 0.7789778, 0.56976527, -0.25994945, 2.48396, 3.4588575, -8.643903, 0
1658, 3373645926, -0.02568502, 0.76881164, 0.5724664, -0.28394756, -0.35047066, 2.5924578, -8.813495, 0
1659, 3373662593, -0.019357905, 0.7610544, 0.5734317, -0.3027752, -0.44246557, 2.5056682, -8.86082, 0
1661, 3373695927, -3.575459E-4, 0.7518403, 0.5717424, -0.3285145, 1.1611083, 4.619018, -8.173696, 0
1662, 3373712594, 0.014102101, 0.74798524, 0.5706352, -0.33877718, 2.1471477, 3.6999133, -7.2046356, 0
1663, 3373729261, 0.028929118, 0.74386346, 0.56833637, -0.35056955, 2.3711228, 2.186393, -6.316633, 0
1665, 3373762595, 0.054640092, 0.73608696, 0.5555972, -0.3828545, 2.389682, 1.9692066, -4.0895715, 0
1666, 3373779262, 0.06657654, 0.733371, 0.54531693, -0.40054846, 1.7859725, 2.412069, -3.2275314, 0
1667, 3373795929, 0.08092779, 0.7309924, 0.5358264, -0.41480845, 1.1708109, 3.669082, -2.5893197, 0
1669, 3373829263, 0.12492091, 0.72103757, 0.52800643, -0.43102652, 2.0215414, 1.8860124, -0.38250637, 0
1671, 3373862597, 0.16703296, 0.7073254, 0.5182573, -0.45086068, 3.5579004, 0.54047424, 0.671051, 0
1673, 3373895931, 0.2092224, 0.6893658, 0.5022845, -0.47831613, 1.1342326, 2.9960299, 1.3109713, 0
1674, 3373912598, 0.23301081, 0.67693967, 0.49843976, -0.48897007, 0.3175149, 1.3344018, 1.4562044, 0
1675, 3373929265, 0.25535846, 0.66344935, 0.49569857, -0.49898422, 0.70780295, -0.060275856, 1.567812, 0
1677, 3373962599, 0.2922483, 0.6351557, 0.48412967, -0.5261764, 1.0985559, 1.2632658, 0.7799177, 0
1678, 3373979266, 0.31050077, 0.61958265, 0.47532886, -0.54207385, -0.5308661, 3.291165, 1.3541155, 0
1680, 3374012600, 0.3535868, 0.58534396, 0.45837086, -0.56773263, -0.92268515, 1.7060329, 0.38900948, 0
1681, 3374029267, 0.3753628, 0.56874514, 0.4475565, -0.5791375, 0.08958444, 2.3622084, 1.9154129, 0
1682, 3374045934, 0.39694282, 0.5511679, 0.43490857, -0.5912532, 0.50938064, 2.7102804, 1.6456194, 0
1684, 3374079268, 0.4364357, 0.5128106, 0.40737072, -0.6169874, 0.14189988, 3.606676, 1.7603884, 0
1686, 3374112602, 0.47367057, 0.47116128, 0.37428057, -0.6431428, -2.224799, 4.278795, 0.7997885, 0
1688, 3374145936, 0.50942916, 0.44070926, 0.32582206, -0.66345495, 0.5515057, 4.0294104, 2.4939222, 0
1689, 3374162603, 0.52755237, 0.42734578, 0.2974701, -0.6713053, 2.4843993, 3.2134204, 4.778449, 0
1690, 3374179270, 0.5459821, 0.412307, 0.26767796, -0.67847645, 3.646081, 2.2963877, 7.7854366, 0
1692, 3374212604, 0.5820372, 0.37356514, 0.20774409, -0.6918087, 3.2321846, -2.5558927, 9.64016, 0
1693, 3374229271, 0.59673035, 0.35197076, 0.17933026, -0.69853103, 1.9293, -4.6499424, 9.886631, 0
1694, 3374245938, 0.60790503, 0.32992515, 0.1528337, -0.70591646, 0.5426841, -6.5108237, 10.029388, 0
