sep=,
DeviceTag:,Xsens_DOT_5,,,,,,,,,,,,,,,,,
FirmwareVersion:,3.0.0,,,,,,,,,,,,,,,,,
AppVersion:,2023.6.1,,,,,,,,,,,,,,,,,
SyncStatus:,Synced,,,,,,,,,,,,,,,,,
OutputRate:,60Hz,,,,,,,,,,,,,,,,,
FilterProfile:,General,,,,,,,,,,,,,,,,,
Measurement Mode:,Sensor fusion Mode - Extended (Quaternion),,,,,,,,,,,,,,,,,
StartTime:,2025-05-05 12:02:33.030 +0200,,,,,,,,,,,,,,,,,
 2025,,,,,,,,,,,,,,,,,,,

PacketCounter,SampleTimeFine,Quat_W,Quat_X,Quat_Y,Quat_Z,FreeAcc_X,FreeAcc_Y,FreeAcc_Z,Status
1, 3346028707, 0.38329446, -0.35818622, 0.09027423, 0.84654737, 0.022202771, 0.04046255, -0.11620712, 0
2, 3346045374, 0.38332066, -0.3582149, 0.09032701, 0.8465177, 0.001400141, -0.033953518, -0.082941055, 0
3, 3346062041, 0.38335273, -0.35825607, 0.090385444, 0.84647965, 0.031595875, 0.020001281, -0.11241436, 0
4, 3346078708, 0.38337177, -0.35829684, 0.09045152, 0.8464467, 0.010946239, -0.001554309, -0.119989395, 0
5, 3346095375, 0.38333744, -0.3583962, 0.090561025, 0.8464085, 0.005726318, 0.047659, -0.10903454, 0
6, 3346112042, 0.38330764, -0.35849744, 0.09065594, 0.8463689, -0.0023609116, -0.035471395, -0.083283424, 0
7, 3346128709, 0.38330883, -0.35858867, 0.09071668, 0.84632325, 0.0060708076, -0.031329364, -0.06128502, 0
8, 3346145376, 0.38333738, -0.35865042, 0.09073026, 0.84628254, 0.0024595365, -0.00369791, -0.05492878, 0
9, 3346162043, 0.38338292, -0.35871354, 0.090727575, 0.8462355, 0.0063527413, -0.017494135, -0.07333565, 0
10, 3346178710, 0.3834222, -0.3587797, 0.09072293, 0.84619015, 0.036999468, 0.018459376, -0.0892725, 0
11, 3346195377, 0.3833882, -0.35884926, 0.0907415, 0.84617406, 0.043440778, 0.037443224, -0.109080315, 0
12, 3346212044, 0.38337734, -0.3589442, 0.09083277, 0.8461289, 0.018090384, 0.037555207, -0.1262331, 0
13, 3346228711, 0.38336447, -0.3590607, 0.09092451, 0.8460755, 0.012240212, -0.022605877, -0.05982399, 0
14, 3346245378, 0.38335183, -0.35915932, 0.09097812, 0.84603363, 0.01432922, -0.0037889916, -0.076434135, 0
15, 3346262045, 0.38337, -0.3592137, 0.09100619, 0.8459994, -0.0011045731, -0.035953734, -0.058574677, 0
16, 3346278712, 0.38342378, -0.35924792, 0.090985, 0.8459626, -0.0080628665, -0.04081581, -0.07820511, 0
17, 3346295379, 0.38346788, -0.3593186, 0.09096638, 0.84591466, 0.018666545, 0.042894818, -0.1180315, 0
18, 3346312046, 0.38348493, -0.35941324, 0.091000065, 0.845863, 0.033317037, 0.049474705, -0.093608856, 0
19, 3346328713, 0.3834818, -0.35948443, 0.091096304, 0.8458239, 0.0524555, 0.06235665, -0.09240723, 0
20, 3346345380, 0.38346004, -0.35953516, 0.09123717, 0.845797, 0.029338451, -0.00903674, -0.07241535, 0
21, 3346362047, 0.3834596, -0.3595413, 0.0913419, 0.84578335, 0.021999318, -0.029336188, -0.064216614, 0
22, 3346378714, 0.38348585, -0.35954005, 0.09141092, 0.84576446, 0.031826008, -0.0096539715, -0.07247734, 0
23, 3346395381, 0.3834835, -0.35952243, 0.091421686, 0.84577185, 0.02946222, -0.01478717, -0.08258724, 0
24, 3346412048, 0.38353866, -0.35947746, 0.091436975, 0.8457642, 0.025989471, -0.013057403, -0.077150345, 0
25, 3346428715, 0.3836401, -0.35942528, 0.09141801, 0.8457425, 0.01267514, -0.020919472, -0.07112503, 0
26, 3346445382, 0.3837386, -0.3593803, 0.091368444, 0.84572226, 0.0045587705, 6.874141E-4, -0.08205032, 0
27, 3346462049, 0.38384283, -0.35933352, 0.0912923, 0.84570307, 0.035302587, 0.004854366, -0.07547569, 0
28, 3346478716, 0.38396, -0.3592587, 0.09117426, 0.8456945, 0.025899116, -0.035945352, -0.102148056, 0
29, 3346495383, 0.38410234, -0.35919192, 0.09100067, 0.84567696, -0.019051602, -0.0010093845, -0.102972984, 0
30, 3346512050, 0.3842074, -0.35926938, 0.090771474, 0.8456209, 0.0031755604, 0.03578733, -0.09517288, 0
31, 3346528717, 0.38431835, -0.35944262, 0.090532854, 0.84552246, 0.036081754, 0.017857904, -0.07781792, 0
33, 3346562051, 0.3845173, -0.35977462, 0.090105996, 0.84533626, 0.019867983, 0.001867339, -0.07969189, 0
34, 3346578718, 0.38460496, -0.35987237, 0.08996741, 0.8452695, 0.041036785, 0.034560915, -0.082616806, 0
37, 3346628719, 0.38483575, -0.3599316, 0.08960817, 0.8451774, 0.012460009, 9.812219E-5, -0.050403595, 0
38, 3346645386, 0.38493907, -0.35992673, 0.08939316, 0.84515524, 0.020080348, -0.015192511, -0.07413769, 0
41, 3346695387, 0.3854123, -0.360021, 0.0882053, 0.8450243, 0.061834272, -0.0013876802, -0.09019375, 0
43, 3346728721, 0.38580036, -0.35982528, 0.0873328, 0.84502125, 0.04894456, 0.035991844, -0.14284134, 0
45, 3346762055, 0.3862349, -0.3594456, 0.08643543, 0.84507644, 0.023268957, 0.029585851, -0.07463741, 0
46, 3346778722, 0.38646713, -0.35930303, 0.08591932, 0.84508365, 0.04371606, 0.05988862, -0.09497261, 0
47, 3346795389, 0.38670617, -0.35921094, 0.08537917, 0.8450683, 0.03511704, 0.018968763, -0.07717037, 0
50, 3346845390, 0.38784483, -0.35866165, 0.08294795, 0.84502184, -0.049561817, -0.021689475, -0.11110401, 0
51, 3346862057, 0.38821837, -0.35842282, 0.08212685, 0.8450318, -9.92202E-4, 0.028453311, -0.15561295, 0
53, 3346895391, 0.38875577, -0.3580599, 0.08083968, 0.8450626, -0.01238583, 0.009488572, -0.11919403, 0
54, 3346912058, 0.388961, -0.35793853, 0.08036816, 0.8450644, 0.021825552, 0.06926767, -0.18983269, 0
57, 3346962059, 0.38924024, -0.35774535, 0.07993065, 0.84505934, 0.027294647, 0.038105942, -0.14950275, 0
60, 3347012060, 0.38912868, -0.35755387, 0.080819786, 0.8451072, -0.0013711263, -0.055184007, -0.041872025, 0
61, 3347028727, 0.38913795, -0.3575409, 0.0810823, 0.84508336, 0.014191648, 0.023704667, -0.07702446, 0
64, 3347078728, 0.3891106, -0.35731956, 0.08211971, 0.8450892, 0.0498832, 0.06218544, -0.20960999, 0
65, 3347095395, 0.3890171, -0.35725403, 0.08280479, 0.84509325, -0.0014423012, 0.041264962, -0.15535355, 0
66, 3347112062, 0.38892004, -0.35728836, 0.08350356, 0.84505457, 0.03799463, 0.04244433, 0.009972572, 0
68, 3347145396, 0.38892457, -0.35744414, 0.083962746, 0.84494114, 0.040923852, 0.08662569, -0.09792137, 0
70, 3347178730, 0.38884193, -0.35745424, 0.084640004, 0.8449074, 0.012492446, 0.01799458, -0.10726166, 0
72, 3347212064, 0.38871896, -0.35741478, 0.085496016, 0.8448944, 0.054408472, 0.047777906, -0.120428085, 0
73, 3347228731, 0.38861024, -0.35741878, 0.08598331, 0.84489334, 0.030564027, 0.037387013, -0.07250023, 0
74, 3347245398, 0.38854966, -0.35740408, 0.08633735, 0.84489137, -0.013972828, -0.088640764, 0.04470253, 0
78, 3347312066, 0.38865563, -0.35719436, 0.087009914, 0.8448622, 0.030853001, 0.101647995, -0.11186981, 0
80, 3347345400, 0.3886121, -0.3571188, 0.08756849, 0.84485656, 0.008895815, -0.027996786, -0.07406998, 0
81, 3347362067, 0.38865352, -0.35708857, 0.08767143, 0.8448396, -0.013217048, -0.039138682, -0.029313087, 0
84, 3347412068, 0.38882172, -0.35697252, 0.08779841, 0.84479797, 0.071526155, 0.08970056, -0.1512928, 0
85, 3347428735, 0.3888146, -0.3569531, 0.08797959, 0.8447907, -7.657274E-4, 0.04588788, -0.07279205, 0
87, 3347462069, 0.3887882, -0.35692623, 0.0883068, 0.8447801, 0.021418463, 0.015392667, -0.09435272, 0
88, 3347478736, 0.38879278, -0.35688952, 0.08843218, 0.8447804, 0.023465311, 0.015516157, -0.08111763, 0
91, 3347528737, 0.38882083, -0.35684207, 0.08869808, 0.8447596, -0.015866486, -0.004344198, -0.080267906, 0
92, 3347545404, 0.3888688, -0.35685164, 0.08868043, 0.8447353, 0.015056168, -0.0028861111, -0.0582304, 0
93, 3347562071, 0.3889249, -0.35688192, 0.0885784, 0.8447073, -0.010762651, -0.0122068245, -0.0240736, 0
95, 3347595405, 0.3890568, -0.35700166, 0.08831095, 0.844624, 0.025213575, 0.045392912, -0.09547901, 0
97, 3347628739, 0.38913548, -0.3571115, 0.08817836, 0.84455514, -0.004752556, 0.018123101, -0.067396164, 0
99, 3347662073, 0.38929144, -0.3571874, 0.08795552, 0.84447443, 6.9573993E-4, -0.012158322, -0.025521278, 0
100, 3347678740, 0.38940033, -0.35718527, 0.08778204, 0.84444314, 0.043898754, 0.020262456, -0.122252464, 0
101, 3347695407, 0.38951868, -0.35716045, 0.087650724, 0.8444127, 0.027047107, 0.026533894, -0.10629082, 0
104, 3347745408, 0.3898067, -0.35706776, 0.08725187, 0.84436035, 0.025596201, -0.004196232, -0.07454491, 0
105, 3347762075, 0.38991174, -0.35697454, 0.08707115, 0.84437, 0.01838137, 0.026871286, -0.11924076, 0
107, 3347795409, 0.39011955, -0.35680944, 0.08675445, 0.8443763, -0.015528115, 0.017630367, -0.069270134, 0
108, 3347812076, 0.39025444, -0.35674325, 0.08653536, 0.8443644, 0.006032363, 0.021911757, -0.08650017, 0
112, 3347878744, 0.39081898, -0.3565909, 0.08527105, 0.8442963, 2.2770382E-5, -0.038150422, -0.044114113, 0
114, 3347912078, 0.39122316, -0.35649252, 0.08425075, 0.8442529, 0.0037407686, 0.061956897, -0.113368034, 0
115, 3347928745, 0.39140186, -0.35644415, 0.08373953, 0.8442415, -0.03792132, -0.043386657, -0.041474342, 0
118, 3347978746, 0.39187175, -0.35621417, 0.08252248, 0.8442406, 0.022227162, 0.06374969, -0.09923363, 0
119, 3347995413, 0.39200252, -0.3561316, 0.08216316, 0.8442497, 0.0091775535, -0.010184927, -0.05178833, 0
120, 3348012080, 0.39212835, -0.35604486, 0.0818236, 0.84426075, 0.02584159, 0.08375824, -0.1367321, 0
122, 3348045414, 0.392287, -0.3559909, 0.08133839, 0.84425676, 0.025527861, 0.053582203, -0.111263275, 0
124, 3348078748, 0.39249498, -0.3558821, 0.08099222, 0.84423923, 0.07734269, 0.082354575, -0.16264343, 0
126, 3348112082, 0.39262164, -0.3557742, 0.08085304, 0.84423923, 0.007573904, 0.012800476, -0.052057266, 0
127, 3348128749, 0.392701, -0.35572183, 0.08074225, 0.8442348, -0.0038244743, 0.021200875, -0.09089279, 0
131, 3348195417, 0.3927688, -0.35557806, 0.081131466, 0.8442266, 0.02476166, 0.04488006, -0.10128021, 0
132, 3348212084, 0.3927426, -0.3555931, 0.08136212, 0.8442102, 0.047651008, 0.05264546, -0.0559206, 0
134, 3348245418, 0.39281654, -0.35559535, 0.08150296, 0.84416133, 0.053990282, 0.07542378, -0.09625244, 0
135, 3348262085, 0.39286566, -0.35562888, 0.0815326, 0.8441215, 0.016686108, 0.027500587, -0.06988907, 0
138, 3348312086, 0.3930464, -0.35572785, 0.08153352, 0.8439956, -0.059147786, -0.03870943, -0.067855835, 0
139, 3348328753, 0.3931517, -0.35585672, 0.08135378, 0.8439095, -0.052398812, -0.05382002, -0.029584885, 0
141, 3348362087, 0.39347273, -0.35610878, 0.08090969, 0.8436963, 0.003851743, 0.03332835, -0.13397121, 0
142, 3348378754, 0.39359093, -0.35622916, 0.08080773, 0.8436, -0.063700385, 0.032453187, -0.09883976, 0
145, 3348428755, 0.3938421, -0.35649005, 0.08054995, 0.8433972, 0.046980914, 0.064797185, -0.1248579, 0
146, 3348445422, 0.39389253, -0.35647023, 0.08052839, 0.84338415, 0.026579015, 0.01411596, -0.118842125, 0
149, 3348495423, 0.39396423, -0.3563577, 0.08070905, 0.84338087, 0.027164564, 0.08337715, -0.14328289, 0
151, 3348528757, 0.39392224, -0.35637608, 0.0810661, 0.84335846, 0.010095773, -0.007573848, -0.047846794, 0
153, 3348562091, 0.39391276, -0.35634863, 0.08131477, 0.8433505, 0.017882908, 0.04674941, -0.1098156, 0
154, 3348578758, 0.3939233, -0.35635614, 0.08144023, 0.8433304, -0.024059717, -0.01158803, -0.0651207, 0
155, 3348595425, 0.3939447, -0.35635456, 0.08155987, 0.8433095, 0.0070006493, 0.025390178, -0.14419556, 0
158, 3348645426, 0.3937362, -0.3563825, 0.08268214, 0.8432858, 0.03038315, 0.04857462, -0.08609772, 0
159, 3348662093, 0.39366028, -0.35636434, 0.08302143, 0.8432957, -0.04508094, -0.0621404, -0.002146721, 0
161, 3348695427, 0.39360055, -0.35637546, 0.08335444, 0.843286, -0.010160619, -0.029996555, 0.007041931, 0
162, 3348712094, 0.39358622, -0.35642287, 0.08341528, 0.84326655, 0.012266922, 0.086669944, -0.13426208, 0
165, 3348762095, 0.39322808, -0.356828, 0.084085986, 0.8431956, 0.042638645, 0.031390272, -0.11373329, 0
168, 3348812096, 0.3928132, -0.35742593, 0.08535141, 0.8430087, 0.023594698, 0.05079768, -0.09581089, 0
169, 3348828763, 0.39263663, -0.35759163, 0.08592912, 0.84296197, 0.008329433, 0.045938954, -0.07699776, 0
172, 3348878764, 0.39228973, -0.3579387, 0.08710416, 0.84285563, 0.022544075, 0.03387864, -0.0614233, 0
173, 3348895431, 0.39223307, -0.3580089, 0.0872847, 0.84283334, -0.0024093578, -0.079820946, 0.019457817, 0
174, 3348912098, 0.39222473, -0.35801837, 0.087349065, 0.84282666, 0.05209372, 0.036886007, -0.078020096, 0
176, 3348945432, 0.39227763, -0.35796785, 0.08732375, 0.8428261, -0.004662033, 0.04083481, -0.07617378, 0
178, 3348978766, 0.39239195, -0.35795742, 0.08716969, 0.8427932, 0.007847764, 0.04281648, -0.113004684, 0
180, 3349012100, 0.3924475, -0.35803673, 0.087167814, 0.84273386, 0.018609243, 0.023861237, -0.055431366, 0
181, 3349028767, 0.39250287, -0.35812977, 0.08708759, 0.8426768, -0.026148194, -0.014462965, -0.049990654, 0
182, 3349045434, 0.39256904, -0.35820773, 0.08700988, 0.8426209, 0.041622553, 0.03398481, -0.10778332, 0
185, 3349095435, 0.39273956, -0.35842225, 0.08689494, 0.84246206, -0.07025049, -0.02241455, -0.056325912, 0
186, 3349112102, 0.39281732, -0.35853451, 0.08681443, 0.8423863, 0.014896217, 0.0204492, -0.11128616, 0
188, 3349145436, 0.39296052, -0.35867733, 0.086509585, 0.8422901, 0.028712725, 0.089684464, -0.1511774, 0
189, 3349162103, 0.39302385, -0.35872138, 0.08638854, 0.8422542, 0.025536187, 0.006346762, -0.10896587, 0
192, 3349212104, 0.3931595, -0.35897458, 0.08620775, 0.8421016, -0.014128421, 0.044908, -0.09280872, 0
193, 3349228771, 0.39320067, -0.3591242, 0.086164944, 0.84202296, 0.037940934, 0.04088745, -0.119143486, 0
195, 3349262105, 0.3933824, -0.35938278, 0.085853964, 0.84185946, -0.0011920226, 0.011252648, -0.07209301, 0
196, 3349278772, 0.39349955, -0.35948962, 0.08569904, 0.8417749, 0.022956066, 0.04902723, -0.127285, 0
199, 3349328773, 0.39367452, -0.35968333, 0.085549176, 0.8416256, 0.035222653, 0.036562808, -0.063797, 0
201, 3349362107, 0.3937653, -0.3597367, 0.08552927, 0.8415622, 0.014805275, 0.0223599, -0.07949829, 0
203, 3349395441, 0.39383584, -0.35969645, 0.08557152, 0.8415422, 0.03395469, 0.100091, -0.12273407, 0
205, 3349428775, 0.39380088, -0.35986853, 0.08568584, 0.8414734, -0.006202149, 0.016399033, -0.04954624, 0
207, 3349462109, 0.3938397, -0.36002848, 0.08564356, 0.8413911, 0.012091911, 0.0025946503, -0.07829285, 0
208, 3349478776, 0.3938669, -0.36007866, 0.08563331, 0.8413578, 0.051536247, 0.081939735, -0.12306023, 0
209, 3349495443, 0.39383364, -0.36011755, 0.085726485, 0.84134734, 0.0613818, 0.14451922, -0.14494419, 0
212, 3349545444, 0.39360872, -0.36048692, 0.08627516, 0.8412384, 0.008460161, 0.036269672, -0.11741924, 0
213, 3349562111, 0.3934407, -0.36062506, 0.086587094, 0.84122556, 0.024673736, 0.18184589, -0.19945431, 0
215, 3349595445, 0.39285547, -0.3609395, 0.087667584, 0.8412524, 0.025658282, 0.08492553, -0.11475849, 0
216, 3349612112, 0.3925437, -0.36108345, 0.08830451, 0.8412696, 0.04259651, 0.036406796, -0.08124161, 0
220, 3349678780, 0.3914368, -0.36153868, 0.090444475, 0.8413625, 0.03939768, -0.016395345, -0.056301117, 0
222, 3349712114, 0.3909924, -0.36161384, 0.09125091, 0.8414496, 0.029952971, 0.023916781, -0.09050846, 0
223, 3349728781, 0.39070445, -0.36164722, 0.09173036, 0.84151685, 0.0052815275, 0.1611097, -0.18120956, 0
226, 3349778782, 0.38994166, -0.36188465, 0.09295088, 0.8416349, 0.028153468, -0.05909917, -0.038510323, 0
227, 3349795449, 0.38981786, -0.36190605, 0.09316817, 0.8416589, 0.02660919, -0.042243168, -0.034915924, 0
228, 3349812116, 0.3897552, -0.36189887, 0.09333124, 0.841673, 0.015645571, -0.026523054, -0.06260204, 0
230, 3349845450, 0.3897179, -0.3617654, 0.09350692, 0.8417281, 0.020165786, 0.01457148, -0.096782684, 0
232, 3349878784, 0.38976955, -0.36151528, 0.09368069, 0.8417922, 0.035373382, 0.0073854267, -0.06803417, 0
234, 3349912118, 0.38990104, -0.36117053, 0.09377977, 0.8418684, 0.025168816, 0.02409425, -0.092969894, 0
235, 3349928785, 0.3899614, -0.36098492, 0.09382408, 0.84191513, 0.029480744, 0.047893573, -0.086063385, 0
239, 3349995453, 0.38971204, -0.3608744, 0.09457295, 0.8419943, 0.016871316, 0.024355536, -0.06338024, 0
240, 3350012120, 0.3896492, -0.3608807, 0.09473552, 0.8420022, 0.02675506, 0.006559882, -0.0810442, 0
242, 3350045454, 0.3895923, -0.36090147, 0.09490286, 0.8420007, 0.013324389, -0.019695068, -0.0657177, 0
243, 3350062121, 0.3896403, -0.36088258, 0.09491079, 0.84198576, 0.020115132, -0.030855516, -0.060232162, 0
246, 3350112122, 0.3896913, -0.36075148, 0.09496433, 0.8420123, 0.016203068, 0.039149188, -0.09364605, 0
247, 3350128789, 0.3897294, -0.36066827, 0.09499238, 0.8420272, -0.0068063047, 0.0014926195, -0.07201195, 0
249, 3350162123, 0.3898685, -0.3604989, 0.09487207, 0.8420488, 0.012451432, 0.007953262, -0.067751884, 0
250, 3350178790, 0.38999075, -0.360355, 0.09475751, 0.84206676, 0.027696133, -0.019820571, -0.05513096, 0
253, 3350228791, 0.39050466, -0.3597792, 0.0941559, 0.8421424, 0.009005868, -0.010702136, -0.06441498, 0
254, 3350245458, 0.39072445, -0.35955933, 0.09390065, 0.8421628, 0.026896376, 0.019797996, -0.086001396, 0
257, 3350295459, 0.39147186, -0.3587271, 0.09308889, 0.8422608, 0.018645255, 0.039838728, -0.077103615, 0
259, 3350328793, 0.3919899, -0.3580925, 0.092700124, 0.8423327, 8.980192E-4, 0.031180393, -0.0532856, 0
261, 3350362127, 0.3924418, -0.35753888, 0.09235346, 0.84239554, 0.024836872, 0.08310826, -0.11532688, 0
262, 3350378794, 0.39260998, -0.35733938, 0.092268124, 0.8424112, 0.023924157, 0.10240805, -0.12811947, 0
263, 3350395461, 0.39273092, -0.35719255, 0.09225349, 0.8424187, 0.002611693, 0.06844023, -0.09613705, 0
266, 3350445462, 0.39306194, -0.3567639, 0.09196918, 0.8424769, 0.015116405, 0.09813839, -0.1088438, 0
267, 3350462129, 0.39317036, -0.35665226, 0.09193453, 0.8424774, -0.045948423, 0.020677295, -0.08099651, 0
269, 3350495463, 0.3934174, -0.35636368, 0.09164158, 0.8425161, 0.020544138, 0.053410433, -0.12099266, 0
270, 3350512130, 0.39353713, -0.3562445, 0.0915129, 0.8425247, 0.0070874, 0.034248777, -0.11754036, 0
273, 3350562131, 0.3939966, -0.3559689, 0.09086887, 0.84249604, -0.037624102, 0.022317322, -0.10734463, 0
274, 3350578798, 0.3941583, -0.35591394, 0.09062721, 0.84246963, -0.009077084, -0.011742365, -0.065140724, 0
276, 3350612132, 0.3945732, -0.35572976, 0.0897896, 0.84244287, -0.012667624, 0.072438315, -0.11775589, 0
277, 3350628799, 0.3947769, -0.35563523, 0.08942323, 0.8424264, 0.02779987, 0.08393984, -0.14586926, 0
280, 3350678800, 0.39526713, -0.35537335, 0.08863815, 0.84239, 0.0081805745, 0.073405676, -0.15210342, 0
281, 3350695467, 0.39537746, -0.3553126, 0.08851381, 0.8423769, 0.016426833, 0.05736706, -0.12626553, 0
282, 3350712134, 0.3954662, -0.35526344, 0.08842524, 0.8423652, 0.022153795, 0.0543341, -0.1017704, 0
284, 3350745468, 0.3956412, -0.35513052, 0.08815174, 0.8423679, 0.051777337, 0.06494918, -0.09762001, 0
286, 3350778802, 0.39583644, -0.354993, 0.08785407, 0.84236526, 0.007986342, 0.033854615, -0.117298126, 0
288, 3350812136, 0.39605275, -0.3549032, 0.08766807, 0.8423208, 0.022869874, 0.059543964, -0.1207304, 0
290, 3350845470, 0.39616537, -0.35484874, 0.08760572, 0.8422972, -0.02267754, -0.03427884, -0.022524834, 0
293, 3350895471, 0.3963185, -0.35477063, 0.0874495, 0.84227425, -0.0043889005, 0.047529135, -0.12252617, 0
294, 3350912138, 0.3963488, -0.3547644, 0.08743505, 0.8422642, 0.013790665, 0.015761351, -0.11637592, 0
296, 3350945472, 0.396447, -0.35474664, 0.08739437, 0.84222966, 0.014277561, 0.029007846, -0.08215237, 0
297, 3350962139, 0.39650416, -0.35471898, 0.08732071, 0.84222203, 0.012154718, 0.014287395, -0.084916115, 0
300, 3351012140, 0.39671928, -0.3546197, 0.086945325, 0.8422013, 0.0060989703, 0.035943788, -0.11515808, 0
303, 3351062141, 0.396904, -0.35457382, 0.08658329, 0.84217095, -0.0035728267, 0.035908252, -0.090268135, 0
304, 3351078808, 0.39696994, -0.35454953, 0.086465605, 0.8421622, -0.0011456716, 0.064982034, -0.096702576, 0
307, 3351128809, 0.39705524, -0.35453516, 0.086456105, 0.842129, 0.005840701, 0.037593763, -0.09527016, 0
308, 3351145476, 0.3970765, -0.35452753, 0.08649296, 0.8421183, 0.02782105, 0.0448253, -0.08246994, 0
311, 3351195477, 0.3971334, -0.35447907, 0.086635135, 0.84209734, -0.002177966, 0.03678755, -0.07680225, 0
313, 3351228811, 0.39717403, -0.35445192, 0.0866282, 0.84209025, 0.016430661, 0.07394267, -0.1150856, 0
315, 3351262145, 0.39714926, -0.35444078, 0.08683706, 0.8420851, 0.023688657, 0.04013108, -0.09037495, 0
316, 3351278812, 0.3971411, -0.35443956, 0.08691969, 0.84208095, 0.006952622, 0.039011393, -0.0733757, 0
317, 3351295479, 0.39713103, -0.35444826, 0.086996496, 0.84207416, 0.010267459, 0.024571786, -0.09513569, 0
320, 3351345480, 0.39713773, -0.3544141, 0.087182745, 0.8420661, 0.019658076, 0.051735092, -0.1250906, 0
321, 3351362147, 0.39711243, -0.3544132, 0.08728784, 0.84206754, 0.0043834522, 0.052966088, -0.12103176, 0
323, 3351395481, 0.39701432, -0.35445023, 0.08762195, 0.8420636, 0.01682885, 0.054074712, -0.09997654, 0
324, 3351412148, 0.39693865, -0.35446858, 0.08786345, 0.84206635, 0.037275087, 0.065665536, -0.1351986, 0
327, 3351462149, 0.39667723, -0.354579, 0.0888477, 0.8420398, 0.010133882, -0.18882364, 0.2012968, 0
330, 3351512150, 0.39635798, -0.35472107, 0.08995982, 0.8420123, 0.011596159, 0.15954354, -0.18751049, 0
331, 3351528817, 0.39602125, -0.35486168, 0.09061375, 0.8420413, -0.054860834, 0.29653564, -0.44928932, 0
334, 3351578818, 0.39310098, -0.35600403, 0.09528985, 0.8424112, -0.07117412, -0.25900903, 0.2187128, 0
335, 3351595485, 0.39240238, -0.35663098, 0.0963445, 0.8423516, -0.022678072, -0.2008028, 0.14869022, 0
336, 3351612152, 0.39195597, -0.35721147, 0.09708616, 0.8422284, 0.030534916, -0.20916063, 0.06167698, 0
338, 3351645486, 0.3914723, -0.35808465, 0.098023355, 0.8419741, 0.03881322, -0.09272234, -0.01260376, 0
340, 3351678820, 0.39129034, -0.35845003, 0.098484956, 0.8418493, 0.017263247, -0.04290387, -0.04622841, 0
341, 3351695487, 0.39129937, -0.35846373, 0.09855294, 0.84183127, 0.051789124, -0.0513787, -0.070230484, 0
342, 3351712154, 0.39137572, -0.3583583, 0.09855652, 0.8418402, 0.029114462, -0.023958577, -0.07919884, 0
343, 3351728821, 0.391464, -0.35815892, 0.0985639, 0.84188324, 0.036793835, 0.05243815, -0.12962914, 0
344, 3351745488, 0.3915068, -0.3579929, 0.098646045, 0.8419242, -0.0029098312, 0.05368591, -0.10043907, 0
345, 3351762155, 0.39154053, -0.35785478, 0.09874757, 0.84195536, 0.004700617, 0.047094963, -0.09096241, 0
346, 3351778822, 0.39157593, -0.35773796, 0.09884858, 0.84197664, -0.00788034, 0.04077156, -0.082362175, 0
347, 3351795489, 0.39161894, -0.357654, 0.09893458, 0.8419823, 0.0066134688, 0.04244187, -0.080182076, 0
348, 3351812156, 0.39167306, -0.35759085, 0.09895471, 0.8419815, 0.008242794, -0.0057239435, -0.037301064, 0
349, 3351828823, 0.39175904, -0.35748756, 0.09893886, 0.8419872, 0.017450271, 0.036288224, -0.06947422, 0
350, 3351845490, 0.39185545, -0.35733974, 0.098953165, 0.84200346, 0.020967694, 0.033504255, -0.06260872, 0
351, 3351862157, 0.39191386, -0.35714668, 0.09897133, 0.8420561, 0.01099734, 0.046458285, -0.076818466, 0
352, 3351878824, 0.3920207, -0.35693318, 0.09898693, 0.84209514, -2.1381809E-4, 0.01444296, -0.09034729, 0
353, 3351895491, 0.39213538, -0.3567551, 0.09897023, 0.84211904, -0.01742873, 0.048632395, -0.10310459, 0
354, 3351912158, 0.3922108, -0.35667098, 0.098951384, 0.84212184, 0.0035026437, 0.10077115, -0.13273144, 0
355, 3351928825, 0.3922643, -0.3566168, 0.09893939, 0.84212124, 0.030417347, 0.02898069, -0.11081123, 0
356, 3351945492, 0.39230573, -0.35657796, 0.09890959, 0.8421219, 0.017479133, 0.039866887, -0.08261299, 0
357, 3351962159, 0.39235008, -0.3565538, 0.09889895, 0.8421127, 0.012532259, 0.061915547, -0.08319378, 0
358, 3351978826, 0.39241087, -0.35652253, 0.09888014, 0.84209985, 0.014993417, 0.023147449, -0.07705212, 0
359, 3351995493, 0.39247957, -0.35649243, 0.098809585, 0.84208876, 0.030166008, -0.009743153, -0.05994606, 0
361, 3352028827, 0.3926585, -0.35639536, 0.09857096, 0.84207445, -0.013462688, 0.04799259, -0.08036804, 0
362, 3352045494, 0.39272586, -0.35641402, 0.098419234, 0.8420528, 0.016035601, 0.051109254, -0.10064316, 0
363, 3352062161, 0.3927958, -0.35644364, 0.09829018, 0.8420227, 0.013383145, 0.051615845, -0.10237789, 0
367, 3352128829, 0.39299282, -0.35644004, 0.09786259, 0.8419821, 0.016696809, -0.017113717, -0.077445984, 0
369, 3352162163, 0.39319864, -0.35638916, 0.09740523, 0.84196067, 0.003651196, 0.024868162, -0.06281662, 0
370, 3352178830, 0.39333123, -0.35639438, 0.09708168, 0.84193397, 0.0024143031, 0.009147268, -0.090314865, 0
371, 3352195497, 0.39344913, -0.35632095, 0.0968789, 0.84193325, 0.028445851, 0.05340842, -0.10038376, 0
374, 3352245498, 0.39372683, -0.35601556, 0.096559584, 0.84196925, -0.0131268045, 0.022663655, -0.08203411, 0
375, 3352262165, 0.39382583, -0.35588983, 0.096403725, 0.84199405, 0.037263215, -0.030714927, -0.043601036, 0
377, 3352295499, 0.39407405, -0.3555706, 0.09596463, 0.84206295, 0.004720985, 0.05122984, -0.079927444, 0
378, 3352312166, 0.3941926, -0.35548022, 0.09574419, 0.84207076, 0.012515804, 0.059674047, -0.12617207, 0
381, 3352362167, 0.39445487, -0.3554222, 0.09526804, 0.84202635, 0.00756921, 0.058108788, -0.11015415, 0
382, 3352378834, 0.3945257, -0.35539714, 0.095227875, 0.8420082, 0.0061588716, 0.0371426, -0.084999084, 0
385, 3352428835, 0.39479974, -0.3553053, 0.09489072, 0.84195656, 0.027999412, 0.045775454, -0.094389915, 0
388, 3352478836, 0.3950223, -0.35518047, 0.09461938, 0.8419354, 0.012291257, 0.036765758, -0.11153793, 0
389, 3352495503, 0.3950753, -0.35515016, 0.094606504, 0.84192467, 0.03404572, 0.041592743, -0.09301376, 0
390, 3352512170, 0.3951069, -0.35513255, 0.09460786, 0.8419173, 0.015497131, 0.06850191, -0.083848, 0
392, 3352545504, 0.39520103, -0.3550586, 0.09454609, 0.84191114, 0.024672255, 0.07276252, -0.14266682, 0
394, 3352578838, 0.39516413, -0.3550473, 0.094689585, 0.84191704, -0.007593601, 0.067457885, -0.1253109, 0
396, 3352612172, 0.39510888, -0.35499325, 0.09489986, 0.84194225, 0.012945591, 0.030114682, -0.07211876, 0
397, 3352628839, 0.39509976, -0.3549853, 0.09495067, 0.84194416, -0.011122927, 0.037273355, -0.06977463, 0
398, 3352645506, 0.39511427, -0.35497504, 0.09498429, 0.8419379, 0.0042961985, 0.034315385, -0.08476257, 0
401, 3352695507, 0.3951697, -0.35479268, 0.09477501, 0.8420122, -0.08577916, -0.1180382, -0.05132389, 0
404, 3352745508, 0.3954035, -0.35474733, 0.09454397, 0.8419475, -0.078190304, 0.08769564, -0.1247797, 0
405, 3352762175, 0.3953819, -0.3549089, 0.094616525, 0.8418815, -0.019702192, 0.1514563, -0.16605759, 0
408, 3352812176, 0.39381656, -0.35668322, 0.09595559, 0.8417139, -0.007991147, 0.29897326, -0.23455143, 0
409, 3352828843, 0.39302063, -0.35788372, 0.09638075, 0.8415275, -0.049112473, -0.28010756, 0.13676167, 0
411, 3352862177, 0.39205423, -0.3599166, 0.09677341, 0.84106624, 0.024731932, -0.19371544, 0.069355965, 0
412, 3352878844, 0.391794, -0.36067674, 0.09682341, 0.840856, 0.027210774, -0.105342776, 0.010594368, 0
415, 3352928845, 0.39137387, -0.3622178, 0.096648335, 0.8404092, 0.046108097, -0.028215047, -0.008536339, 0
416, 3352945512, 0.39134917, -0.3624595, 0.09645191, 0.8403391, 0.02813961, -0.073164396, -0.037158012, 0
417, 3352962179, 0.39146477, -0.36248773, 0.096156836, 0.84030694, 0.050670303, -0.12425286, -0.03341484, 0
419, 3352995513, 0.39203084, -0.36178, 0.09540466, 0.8404338, 0.009627793, -0.06933305, -0.050091743, 0
423, 3353062181, 0.3935813, -0.3590564, 0.09387784, 0.84104884, -0.033746265, 0.20180884, -0.18144989, 0
424, 3353078848, 0.39381468, -0.35876495, 0.093697086, 0.8410842, 0.0054301354, 0.22430252, -0.18034458, 0
425, 3353095515, 0.393897, -0.35864636, 0.09374136, 0.84109116, -0.02329857, 0.32883093, -0.31459332, 0
428, 3353145516, 0.39357144, -0.3591049, 0.0945941, 0.8409525, 0.013853361, -0.032270912, 0.018076897, 0
429, 3353162183, 0.39356378, -0.35915372, 0.094646275, 0.84092927, -0.019682355, -0.04939435, -0.029330254, 0
431, 3353195517, 0.3936227, -0.35909694, 0.094678424, 0.8409223, 0.0193427, 0.039896727, -0.10189724, 0
432, 3353212184, 0.39367342, -0.3589863, 0.094713, 0.840942, 0.030915922, 0.017654954, -0.07517815, 0
435, 3353262185, 0.39402542, -0.35848773, 0.09451515, 0.8410122, 0.028926404, 0.03267793, -0.061719894, 0
436, 3353278852, 0.3941843, -0.3582703, 0.094424576, 0.8410405, 0.013615711, 0.009770869, -0.08510876, 0
438, 3353312186, 0.3944926, -0.35784867, 0.09426072, 0.84109384, -0.005756576, 0.096880905, -0.13282108, 0
439, 3353328853, 0.39456478, -0.3577388, 0.094246194, 0.84110844, 0.012761192, 0.08286676, -0.1325903, 0
442, 3353378854, 0.3947442, -0.35737726, 0.09415021, 0.84118867, -0.011525362, -0.008681802, -0.075686455, 0
443, 3353395521, 0.3948705, -0.35722157, 0.094012916, 0.8412108, -0.0012484875, 0.013097077, -0.06569862, 0
444, 3353412188, 0.39498207, -0.35706535, 0.093875036, 0.84124017, -0.00939411, 0.06488626, -0.13230515, 0
446, 3353445522, 0.39516503, -0.35694608, 0.09366029, 0.8412287, -0.045215525, 0.026214829, -0.042060852, 0
448, 3353478856, 0.39538297, -0.35703528, 0.093319386, 0.84112626, 0.041264206, 0.08736205, -0.10494232, 0
450, 3353512190, 0.39550838, -0.35709754, 0.09316889, 0.8410576, 0.0012069979, 0.04333972, -0.08394241, 0
451, 3353528857, 0.39552724, -0.3572451, 0.09311147, 0.84099245, 0.0060015465, 0.117909566, -0.13960171, 0
452, 3353545524, 0.39556038, -0.35746235, 0.09306858, 0.84088933, 0.027061999, -0.0023182763, -0.07701874, 0
456, 3353612192, 0.39581326, -0.357753, 0.092487715, 0.84071076, 0.0018129136, 0.0319704, -0.081347466, 0
458, 3353645526, 0.39595413, -0.35768208, 0.09231681, 0.84069335, 0.035500843, 0.072041914, -0.10759926, 0
459, 3353662193, 0.3959846, -0.3576062, 0.09232733, 0.8407102, 0.035066556, 0.05018324, -0.1418972, 0
462, 3353712194, 0.39615142, -0.35723805, 0.09216666, 0.8408057, -0.018956637, 0.013902618, -0.07675266, 0
463, 3353728861, 0.39626285, -0.35716158, 0.09202312, 0.8408015, -0.04372989, 0.027789142, -0.08768463, 0
465, 3353762195, 0.39636755, -0.3571613, 0.091903046, 0.8407654, 0.043978073, 0.101413414, -0.14166164, 0
466, 3353778862, 0.39636245, -0.35716534, 0.09193747, 0.84076226, 0.031133315, 0.04894252, -0.077272415, 0
469, 3353828863, 0.39656624, -0.3571282, 0.091590725, 0.84071976, -0.007864834, 0.024300888, -0.049378395, 0
470, 3353845530, 0.39667344, -0.3570948, 0.091421105, 0.8407019, 0.0052390876, 0.055482958, -0.14556503, 0
471, 3353862197, 0.39671618, -0.35702688, 0.0913732, 0.84071577, 0.048671987, 0.10785048, -0.18974018, 0
475, 3353928865, 0.3969096, -0.3568018, 0.091220334, 0.84073657, 0.008844351, 0.033010405, -0.08032513, 0
477, 3353962199, 0.3971031, -0.35692394, 0.09102744, 0.8406144, 0.08223095, 0.10936478, -0.16145039, 0
478, 3353978866, 0.397094, -0.35698843, 0.0910768, 0.84058595, 0.08716368, 0.12703817, -0.16376495, 0
479, 3353995533, 0.39705628, -0.3570243, 0.09118687, 0.84057647, 0.07153177, 0.068098255, -0.11125755, 0
482, 3354045534, 0.3970253, -0.35685292, 0.09148844, 0.84063107, 0.010041571, 0.057642315, -0.09609032, 0
483, 3354062201, 0.39701062, -0.35678315, 0.09159175, 0.8406564, 0.007934682, 0.028800985, -0.058917046, 0
485, 3354095535, 0.39700842, -0.35665822, 0.091694444, 0.84069943, -0.033883587, 0.0028685653, -0.056791306, 0
486, 3354112202, 0.39704296, -0.3565948, 0.09166537, 0.8407131, -0.009886453, 1.9356221E-4, -0.11146927, 0
489, 3354162203, 0.39725503, -0.35645682, 0.091461726, 0.8406936, 0.11627468, 0.09890471, -0.08328438, 0
490, 3354178870, 0.39727396, -0.35643387, 0.09153177, 0.8406868, 0.0152977295, 0.13645466, -0.15162659, 0
493, 3354228871, 0.3964039, -0.35651836, 0.09305792, 0.84089404, 0.045253325, 0.36009336, -0.3608265, 0
496, 3354278872, 0.39477476, -0.35782605, 0.094934344, 0.84089535, -0.01915168, -0.024675384, -0.007777214, 0
497, 3354295539, 0.39442885, -0.3584976, 0.09548448, 0.8407093, -0.0026948957, 0.017913334, -0.012163162, 0
498, 3354312206, 0.394136, -0.35919756, 0.09596783, 0.84049267, 0.007556414, -0.009848875, -0.042520523, 0
500, 3354345540, 0.3936072, -0.36037073, 0.09700176, 0.8401196, 0.0643995, -0.004177122, -0.033311844, 0
502, 3354378874, 0.39331913, -0.3609957, 0.097625434, 0.839914, 0.08257066, -0.0029644524, -0.075621605, 0
504, 3354412208, 0.39313835, -0.36106402, 0.097915776, 0.8399354, 0.057293046, 0.12416234, -0.11534214, 0
505, 3354428875, 0.39302987, -0.3610691, 0.097977124, 0.83997667, 0.050193354, 0.021883147, -0.061156273, 0
506, 3354445542, 0.39294603, -0.36102763, 0.09799846, 0.8400314, 0.034804486, 0.01052813, -0.061448097, 0
509, 3354495543, 0.39286274, -0.3612235, 0.09812701, 0.83997107, -0.013974281, 0.032111883, -0.053328514, 0
512, 3354545544, 0.39278093, -0.36130947, 0.09863494, 0.8399129, 0.023348331, 0.035431832, -0.06602192, 0
513, 3354562211, 0.392807, -0.3612211, 0.09875743, 0.8399244, -0.014778118, -0.026488855, -0.056300163, 0
516, 3354612212, 0.39306283, -0.3606089, 0.09880169, 0.8400625, 0.03775419, 0.029928943, -0.07739639, 0
517, 3354628879, 0.39318493, -0.36028585, 0.098759934, 0.840149, 0.044864833, 0.021563748, -0.07445145, 0
519, 3354662213, 0.39352536, -0.35956082, 0.09868716, 0.84030867, 0.016218575, 0.043642357, -0.06889057, 0
520, 3354678880, 0.39373434, -0.35921535, 0.098571174, 0.8403721, 0.030390218, -0.0043346984, -0.052423477, 0
523, 3354728881, 0.39442995, -0.3578851, 0.097895235, 0.8406925, -0.018456358, 0.15172976, -0.13965607, 0
524, 3354745548, 0.39457086, -0.35767597, 0.09773252, 0.84073436, -0.023647001, 0.04019266, -0.1143589, 0
525, 3354762215, 0.39473513, -0.35755673, 0.09756645, 0.84072715, -0.014128366, 0.0530955, -0.06149292, 0
527, 3354795549, 0.39497593, -0.35756177, 0.09731432, 0.84064096, 0.02242243, 0.07069436, -0.11083794, 0
529, 3354828883, 0.3951488, -0.35755906, 0.09714746, 0.8405802, 0.045546323, 0.07930352, -0.08817959, 0
531, 3354862217, 0.3953053, -0.35743666, 0.096902266, 0.8405871, 0.034290772, 0.043396603, -0.11353779, 0
532, 3354878884, 0.395357, -0.35737476, 0.09675564, 0.84060585, 0.021600291, 0.036434066, -0.087955475, 0
533, 3354895551, 0.3954256, -0.35729253, 0.09665583, 0.84062004, 0.04806238, 0.054494582, -0.08246803, 0
536, 3354945552, 0.3957431, -0.35672528, 0.09559629, 0.84083277, 0.059336096, -0.061344247, 0.027736664, 0
537, 3354962219, 0.39598504, -0.35641253, 0.094834596, 0.84093785, -0.01677638, 0.011975153, -0.015974998, 0
539, 3354995553, 0.3967662, -0.35593477, 0.09266897, 0.8410134, -0.011887397, 0.08321164, -0.0061416626, 0
540, 3355012220, 0.39729592, -0.35577655, 0.0913304, 0.8409766, 0.029959453, -0.075948134, 0.048309326, 0
543, 3355062221, 0.3987332, -0.35518557, 0.08793114, 0.8409085, 0.11311748, 0.13404027, -0.20344639, 0
546, 3355112222, 0.3997752, -0.35411337, 0.08592, 0.84107393, 0.07406524, 0.08066482, -0.13043785, 0
547, 3355128889, 0.4000601, -0.35373092, 0.0855198, 0.84114015, 9.766399E-4, 0.04809127, -0.14343834, 0
550, 3355178890, 0.40087628, -0.3529455, 0.084439985, 0.84119046, 0.023298962, 0.025484389, -0.033698082, 0
551, 3355195557, 0.40125978, -0.35275418, 0.08408214, 0.84112376, 0.078372166, 0.010506897, -0.08973789, 0
552, 3355212224, 0.401647, -0.35263407, 0.0837032, 0.8410271, 0.01531603, 0.05463696, -0.08115101, 0
554, 3355245558, 0.4023968, -0.35246804, 0.082970366, 0.8408111, -0.060211707, -0.0043534734, -0.11395168, 0
556, 3355278892, 0.4031524, -0.3524214, 0.082228914, 0.84054124, 0.010198505, -0.033619925, -0.041679382, 0
558, 3355312226, 0.40400368, -0.35233787, 0.08106857, 0.8402803, 0.034404483, 0.077573076, -0.15820408, 0
559, 3355328893, 0.40437424, -0.35243517, 0.08048954, 0.8401168, -0.053493913, 0.13296898, -0.30326557, 0
560, 3355345560, 0.40468276, -0.35257277, 0.07994646, 0.8399624, -0.004261917, 0.07913599, -0.15368748, 0
564, 3355412228, 0.40545467, -0.35272673, 0.07887898, 0.8396263, 0.09554092, 0.121668495, -0.15426826, 0
566, 3355445562, 0.405521, -0.3528713, 0.07894825, 0.83952713, 0.16296111, 0.19452779, -0.25255108, 0
567, 3355462229, 0.40546173, -0.35292232, 0.07925013, 0.8395058, 0.022846041, 0.13099994, -0.25489998, 0
570, 3355512230, 0.4049851, -0.35392785, 0.08059766, 0.8391843, 0.049352333, 0.26196265, -0.3378029, 0
571, 3355528897, 0.40472916, -0.3549723, 0.0811637, 0.83881193, -0.014844781, 0.16947557, -0.13921452, 0
573, 3355562231, 0.40403485, -0.35729855, 0.08236481, 0.83804154, 0.0075021842, 0.012758232, -0.05535221, 0
574, 3355578898, 0.40364203, -0.35837024, 0.08300541, 0.83770984, 0.0893181, 0.0393033, -0.03514576, 0
577, 3355628899, 0.40238643, -0.36062896, 0.08493823, 0.83715063, -0.016979106, -0.0040993392, -0.060181618, 0
578, 3355645566, 0.4019264, -0.36101028, 0.085772075, 0.83712226, 0.028099965, 0.056987535, -0.05489254, 0
579, 3355662233, 0.40145496, -0.3610684, 0.08669239, 0.8372287, -0.1066912, -0.08140219, -0.04170704, 0
583, 3355728901, 0.39947897, -0.36119762, 0.090557285, 0.8377089, -0.11702912, 0.3431867, -0.2369175, 0
585, 3355762235, 0.3980843, -0.3644966, 0.09181831, 0.836806, -0.25376895, 0.006114085, -0.050022125, 0
586, 3355778902, 0.39739755, -0.36711395, 0.09211814, 0.835955, -0.2531534, 0.042009372, -0.10539627, 0
587, 3355795569, 0.39680517, -0.3704236, 0.09227547, 0.8347581, -0.29343536, 0.0030214482, -0.032377243, 0
590, 3355845570, 0.39477095, -0.38569516, 0.09169432, 0.82884943, -0.3832587, 0.13151379, -0.03907299, 0
591, 3355862237, 0.39377552, -0.39359492, 0.09168275, 0.8256039, -0.32009575, 0.023781443, -0.08888054, 0
593, 3355895571, 0.3913517, -0.41202685, 0.093384854, 0.8175336, -0.025167614, 0.209628, -0.13085175, 0
594, 3355912238, 0.3901475, -0.42216727, 0.09528631, 0.8127018, -0.085166514, 0.14097354, -0.0906868, 0
597, 3355962239, 0.3859084, -0.45559826, 0.10443633, 0.7953628, -0.25867477, 0.26129693, -0.035069466, 0
598, 3355978906, 0.38355803, -0.46806765, 0.10874955, 0.78865296, -0.15236914, 0.60914856, -0.27693272, 0
601, 3356028907, 0.36858982, -0.51460683, 0.13015972, 0.76314086, -0.6225561, 1.3790488, -0.38515854, 0
604, 3356078908, 0.32578662, -0.59357613, 0.18226543, 0.71296144, 0.031739846, 2.6195304, -0.6163111, 0
605, 3356095575, 0.30342954, -0.6307395, 0.21502349, 0.681078, -0.21019958, 3.236198, 0.42218208, 0
606, 3356112242, 0.278235, -0.66782945, 0.25482708, 0.64160466, -0.852446, 3.7086132, 3.570589, 0
608, 3356145576, 0.21029522, -0.7243582, 0.3267693, 0.5694795, -2.190886, 7.646618, 9.977121, 0
610, 3356178910, 0.14488885, -0.7473087, 0.37299904, 0.53048325, -0.07171883, 9.487859, 8.096418, 0
612, 3356212244, 0.102181435, -0.7658111, 0.41663212, 0.47907615, 2.3184168, 24.200981, 14.305096, 0
613, 3356228911, 0.10364596, -0.77290285, 0.4274937, 0.4573092, -1.455094, 19.106544, 1.0513439, 0
614, 3356245578, 0.10844715, -0.7780919, 0.43788558, 0.4371184, -1.9552699, 9.755223, -3.02805, 0
617, 3356295579, 0.118799865, -0.8003318, 0.45048022, 0.37739545, -6.4271865, 6.4440694, -6.2719564, 0
618, 3356312246, 0.12185963, -0.80721754, 0.45044908, 0.36145514, -7.3381195, 5.6037855, -6.893608, 0
620, 3356345580, 0.12959969, -0.8136263, 0.44954714, 0.3451489, -7.592507, 6.1279497, -6.093195, 0
621, 3356362247, 0.13682099, -0.81174374, 0.4504212, 0.34565407, -5.879602, 5.7246575, -6.08855, 0
624, 3356412248, 0.16822305, -0.79208493, 0.46073785, 0.36335558, -3.3260758, 3.2893596, -5.9905243, 0
625, 3356428915, 0.17832483, -0.78388816, 0.46426532, 0.37172732, -2.9966035, 4.673242, -5.628293, 0
627, 3356462249, 0.20763394, -0.76290333, 0.4676174, 0.3952274, -1.8769403, 6.586694, -5.0845385, 0
628, 3356478916, 0.22585839, -0.75063413, 0.4667411, 0.40950343, -2.6837509, 7.132475, -4.0074744, 0
631, 3356528917, 0.28618866, -0.7063069, 0.44913605, 0.46637684, -0.48057252, 3.5476856, -2.9503489, 0
632, 3356545584, 0.3054512, -0.6886679, 0.44392562, 0.48514944, -1.1998538, 5.349176, -0.28172302, 0
635, 3356595585, 0.36029932, -0.63107, 0.41365552, 0.54847795, -2.8852844, 3.0123963, 0.3812933, 0
637, 3356628919, 0.3874477, -0.5914044, 0.37875584, 0.5972211, -0.070959106, 1.7917931, 1.3573256, 0
639, 3356662253, 0.41288626, -0.55115306, 0.34178004, 0.6394885, 1.3334998, 0.5152074, 3.7472878, 0
640, 3356678920, 0.4263555, -0.5332368, 0.32133967, 0.6562195, -0.21622509, -1.511375, 3.93392, 0
641, 3356695587, 0.4382036, -0.518355, 0.29823005, 0.6710801, -1.6130145, -3.85874, 4.844471, 0
644, 3356745588, 0.46461824, -0.4798118, 0.23422378, 0.70643735, 0.28923425, -5.449344, 3.0766497, 0
645, 3356762255, 0.4728704, -0.46916726, 0.21828032, 0.7131853, 0.046504833, -4.947011, 4.4636393, 0
647, 3356795589, 0.48887154, -0.4514368, 0.18273592, 0.7237548, 0.73737496, -10.518627, 6.7778435, 0
651, 3356862257, 0.5019102, -0.4267543, 0.113893084, 0.7436391, 3.7374313, -14.630025, -3.7225246, 0
652, 3356878924, 0.4983929, -0.4255541, 0.10550497, 0.74791765, 2.1858852, -14.299244, -3.9216547, 0
655, 3356928925, 0.47717437, -0.4304657, 0.072331846, 0.7627422, 4.875724, -13.717964, -4.366096, 0
658, 3356978926, 0.43039697, -0.44166905, 0.055952024, 0.7852133, 8.554061, -13.322876, -5.796597, 0
659, 3356995593, 0.41142225, -0.44853523, 0.0562317, 0.7914478, 9.219659, -12.517044, -3.5663614, 0
660, 3357012260, 0.3924442, -0.45789486, 0.056784607, 0.7956753, 8.490786, -11.93364, -5.964252, 0
664, 3357078928, 0.35734776, -0.47111222, 0.11843665, 0.7977046, -27.004034, -12.34775, 20.381811, 0
666, 3357112262, 0.3532899, -0.46071228, 0.11565445, 0.8059518, -2.5723195, -1.1294785, 1.2871113, 0
668, 3357145596, 0.35289425, -0.46025905, 0.11202433, 0.8068964, -2.1815999, 0.72535026, -0.12244511, 0
671, 3357195597, 0.34288812, -0.49099383, 0.11943254, 0.7918918, -0.6190348, 0.40244144, -0.19482231, 0
672, 3357212264, 0.33735844, -0.50543404, 0.12377101, 0.7844809, -0.5707737, 0.19305563, -0.34936428, 0
674, 3357245598, 0.32162598, -0.5414725, 0.13415763, 0.76509476, -0.99485314, 0.64395493, -0.45189762, 0
678, 3357312266, 0.28785458, -0.6162875, 0.15924782, 0.71552324, 1.624225, 0.50581855, 0.52776146, 0
679, 3357328933, 0.2804177, -0.6303688, 0.16989473, 0.7036623, -0.8817886, 2.3337789, -0.20625496, 0
681, 3357362267, 0.25631592, -0.6810632, 0.22015105, 0.64960945, -2.5676677, 4.7958207, -0.76336575, 0
682, 3357378934, 0.22864355, -0.7195594, 0.2589321, 0.6024237, -3.5246906, 7.75025, 3.3932905, 0
685, 3357428935, 0.1326761, -0.75452775, 0.36722863, 0.52747697, 12.501418, 7.8833966, 27.638252, 0
686, 3357445602, 0.123618215, -0.7530893, 0.3897293, 0.5154512, 27.458202, 14.116773, 18.03812, 0
687, 3357462269, 0.12418379, -0.7665278, 0.4116265, 0.47705463, 5.0902805, 23.002163, 11.742729, 0
689, 3357495603, 0.11355715, -0.80097944, 0.44437313, 0.38480297, -12.740118, 24.831524, 0.34318066, 0
691, 3357528937, 0.10154454, -0.8284816, 0.46304333, 0.2981638, -17.71548, 19.510963, -9.962152, 0
693, 3357562271, 0.0718273, -0.8449672, 0.4711546, 0.24266934, -14.624361, 13.519733, -16.434605, 0
695, 3357595605, 0.048528254, -0.8489898, 0.47751668, 0.22100416, -7.994338, 8.904504, -17.572662, 0
698, 3357645606, 0.06396009, -0.8386893, 0.4894006, 0.2302177, -5.039012, 6.202472, -16.851135, 0
699, 3357662273, 0.08167887, -0.8312989, 0.4929186, 0.24352817, -5.763841, 6.567383, -16.152975, 0
701, 3357695607, 0.12061833, -0.8086062, 0.49400544, 0.2959219, -8.909396, 6.496211, -11.684274, 0
702, 3357712274, 0.13819233, -0.7921428, 0.4903241, 0.3361528, -7.29656, 8.722489, -7.3486147, 0
705, 3357762275, 0.20136893, -0.729046, 0.46197903, 0.463165, 0.0068895635, 6.708436, 0.68159103, 0
706, 3357778942, 0.22715198, -0.70934117, 0.4434413, 0.49859887, -2.0635567, 5.142327, 3.8672285, 0
708, 3357812276, 0.26392165, -0.6710439, 0.39216733, 0.5711866, -2.5012305, 0.10668385, 7.6459503, 0
709, 3357828943, 0.27701557, -0.6478323, 0.36887595, 0.60622615, 2.8130288, 0.053299792, 9.055094, 0
712, 3357878944, 0.34511465, -0.5834034, 0.31572413, 0.6639716, -2.0295625, -4.592691, 8.150003, 0
713, 3357895611, 0.36711133, -0.5702647, 0.2865576, 0.67669487, -2.1784015, -6.40541, 7.3166428, 0
714, 3357912278, 0.3848091, -0.5561241, 0.25996372, 0.6892538, 0.22833474, -6.1975164, 4.946226, 0
716, 3357945612, 0.41596413, -0.5245677, 0.21950741, 0.709664, 0.9328663, -7.737349, 4.5269785, 0
718, 3357978946, 0.44820073, -0.49672776, 0.19005322, 0.71851325, 0.6228899, -7.1478996, 4.877743, 0
720, 3358012280, 0.47442424, -0.46457908, 0.16630372, 0.72899556, 0.59458005, -8.825231, 7.6334763, 0
721, 3358028947, 0.48309818, -0.4457644, 0.15267499, 0.7379732, 0.36641324, -9.737791, 5.938217, 0
722, 3358045614, 0.48906884, -0.4283472, 0.13609724, 0.7475372, 1.0758978, -10.262383, 4.010847, 0
725, 3358095615, 0.50037944, -0.3861143, 0.09115088, 0.76956594, 4.905551, -12.9332075, -1.0853434, 0
726, 3358112282, 0.5017833, -0.3753371, 0.07804256, 0.7754023, 4.030613, -14.344757, -3.890163, 0
729, 3358162283, 0.48626482, -0.3627645, 0.04160211, 0.7938648, 6.1672726, -13.584845, -9.029185, 0
732, 3358212284, 0.44562083, -0.36931947, 0.037200432, 0.8146442, 8.535733, -10.643051, -6.6955795, 0
733, 3358228951, 0.431494, -0.37684447, 0.038147368, 0.8187489, 10.285441, -10.234701, -4.552111, 0
735, 3358262285, 0.4072155, -0.39231694, 0.046884373, 0.82344943, 11.715822, -9.006152, -2.9478884, 0
736, 3358278952, 0.39694214, -0.402585, 0.055523343, 0.8229722, 10.982778, -8.823932, -4.562567, 0
739, 3358328953, 0.36793742, -0.46188313, 0.073712915, 0.8036518, 12.474948, -10.068523, 5.309801, 0
740, 3358345620, 0.3632365, -0.4877116, 0.067920156, 0.7909409, 17.136217, -9.723098, 0.21910763, 0
741, 3358362287, 0.3556833, -0.48787507, 0.10329646, 0.7904435, 9.589322, -8.778064, 19.364166, 0
743, 3358395621, 0.3425299, -0.49450684, 0.14002885, 0.786468, -14.1479, 12.4386215, 3.4649258, 0
745, 3358428955, 0.33850834, -0.5074474, 0.14525656, 0.7789825, -0.8777457, -0.37389147, -0.5304947, 0
749, 3358495623, 0.3092093, -0.56615937, 0.15865311, 0.74745315, -1.736524, 1.8231847, -0.73137283, 0
752, 3358545624, 0.24653995, -0.69495946, 0.24045637, 0.63121617, -4.728999, 7.9672275, 3.9791145, 0
753, 3358562291, 0.20865944, -0.74299735, 0.28986594, 0.566037, -7.0583363, 11.6253195, 17.279776, 0
755, 3358595625, 0.15362233, -0.7625415, 0.35951918, 0.5154421, 3.3010454, 20.016426, 29.70094, 0
756, 3358612292, 0.1373685, -0.7679691, 0.37850928, 0.49808425, 25.749949, 13.807595, 20.105717, 0
759, 3358662293, 0.12226856, -0.81560457, 0.42892656, 0.3685993, -13.913842, 27.786177, 5.2174025, 0
760, 3358678960, 0.11080571, -0.8281705, 0.43698424, 0.33302295, -14.07413, 26.26931, -3.2733407, 0
762, 3358712294, 0.080853745, -0.8434611, 0.4475615, 0.285882, -17.80771, 16.917807, -16.37257, 0
763, 3358728961, 0.06404059, -0.8464961, 0.44965214, 0.27777693, -13.108085, 14.704767, -19.115803, 0
767, 3358795629, 0.06801674, -0.8394601, 0.44355935, 0.30649564, -2.264675, 6.736115, -16.957644, 0
770, 3358845630, 0.12985727, -0.8169184, 0.421681, 0.37144336, -3.4886477, -0.21814507, -12.748307, 0
772, 3358878964, 0.17087911, -0.79442775, 0.39800674, 0.42576927, -1.6229084, 1.8805759, -5.3793964, 0
774, 3358912298, 0.21079326, -0.77370155, 0.36035144, 0.47655317, 0.065918215, -7.509671, 0.455513, 0
775, 3358928965, 0.22256266, -0.76536137, 0.3410061, 0.49840412, 0.7495782, -7.4468384, 2.5087624, 0
776, 3358945632, 0.23716305, -0.75526774, 0.32713437, 0.5160536, 7.9028497, -5.5309515, 7.5871506, 0
779, 3358995633, 0.2941013, -0.7473592, 0.2968745, 0.51655406, 9.304794, -0.1907131, -2.4521298, 0
780, 3359012300, 0.29420424, -0.73384845, 0.32005277, 0.52199674, -27.350475, -17.89915, 5.3123236, 0
782, 3359045634, 0.31399047, -0.72046924, 0.28610888, 0.54816014, 19.59955, -4.691359, -7.607826, 0
783, 3359062301, 0.32902747, -0.7153057, 0.28650662, 0.54589075, 1.4528064, -5.891227, 1.0983467, 0
786, 3359112302, 0.36213544, -0.7118411, 0.26364645, 0.54095733, 1.2868733, 6.737283, 1.7217531, 0
789, 3359162303, 0.3778014, -0.7110467, 0.28478423, 0.5201736, 12.661115, -22.310656, 14.275829, 0
790, 3359178970, 0.39397916, -0.702578, 0.28312182, 0.5205869, -1.6511413, -5.485336, 4.52328, 0
793, 3359228971, 0.42066523, -0.6875327, 0.2899509, 0.5160156, 1.0210912, 12.805626, -4.210831, 0
794, 3359245638, 0.4348052, -0.68060374, 0.28818023, 0.51446956, -0.5977387, 11.414116, -6.536504, 0
795, 3359262305, 0.44655418, -0.6732761, 0.2840588, 0.51633626, -1.6766417, 10.320444, -5.647024, 0
797, 3359295639, 0.46425292, -0.6554712, 0.2801591, 0.52568185, 5.499954, -2.771822, 0.45654964, 0
799, 3359328973, 0.49721715, -0.63982296, 0.29403564, 0.506901, -8.180204, -5.5226045, 6.9459267, 0
801, 3359362307, 0.5074926, -0.61477935, 0.29290277, 0.5279293, 10.165003, 1.2124089, 2.918951, 0
802, 3359378974, 0.5169501, -0.60452247, 0.29309204, 0.53048676, -4.133699, -3.3903794, -4.848869, 0
803, 3359395641, 0.50272036, -0.6107585, 0.2823429, 0.5427088, -2.2065475, 12.51372, -18.577347, 0
806, 3359445642, 0.47835866, -0.5735218, 0.26764378, 0.60878277, 2.4013116, 9.63118, 0.35649586, 0
807, 3359462309, 0.48431477, -0.55731016, 0.25576535, 0.62404525, 5.6371775, 7.530656, 1.7728796, 0
809, 3359495643, 0.53181195, -0.48728475, 0.22628802, 0.6546202, 5.172276, -22.301878, -5.3023114, 0
810, 3359512310, 0.5136061, -0.5115886, 0.23984975, 0.6457259, -0.4111186, -14.77248, 6.989065, 0
813, 3359562311, 0.51045084, -0.50623417, 0.24136108, 0.6518555, 2.5923896, 4.9268146, -7.6719418, 0
814, 3359578978, 0.50858885, -0.5014562, 0.24828827, 0.6543973, 1.5724188, -3.0594752, -2.6232457, 0
816, 3359612312, 0.5090388, -0.47662386, 0.2666414, 0.6652935, 0.530125, 1.0435793, 4.0542517, 0
817, 3359628979, 0.5116419, -0.46590382, 0.2663839, 0.67096937, 0.5295316, 3.0690615, 1.4386797, 0
820, 3359678980, 0.5217433, -0.46071476, 0.26032627, 0.6691488, -1.5283258, -2.4985542, 1.984479, 0
822, 3359712314, 0.52770764, -0.4587457, 0.25574368, 0.66758996, 1.2600847, -1.5209057, 1.1993761, 0
824, 3359745648, 0.53388345, -0.45772904, 0.25393048, 0.6640604, 2.7727299, 2.1745744, -2.787373, 0
826, 3359778982, 0.5401351, -0.45813054, 0.25230762, 0.6593296, -0.5604936, 0.031998117, 2.1106157, 0
828, 3359812316, 0.5416294, -0.45826626, 0.2553673, 0.6568265, 0.15271701, -2.271921, 1.6709166, 0
829, 3359828983, 0.5410399, -0.459735, 0.25851578, 0.65505207, 0.659001, 1.5356472, -1.1398106, 0
830, 3359845650, 0.54042417, -0.4622041, 0.2617473, 0.65253484, -0.42249894, 1.6791214, -1.950069, 0
833, 3359895651, 0.53974944, -0.4647284, 0.2680965, 0.64871126, 2.2678804, -0.7725739, 0.42713356, 0
837, 3359962319, 0.52893174, -0.47428077, 0.28594145, 0.6430635, -0.40076488, -0.5433946, -1.7650871, 0
840, 3360012320, 0.5258149, -0.47515562, 0.29210237, 0.6422041, 0.5644783, 2.121093, -0.6520672, 0
841, 3360028987, 0.5241579, -0.47670805, 0.29526076, 0.6409628, -0.7053437, 2.1529627, -1.530304, 0
847, 3360128989, 0.5327359, -0.4609577, 0.29284436, 0.64649564, -0.4098261, 0.35242203, 2.9214954, 0
848, 3360145656, 0.5318779, -0.46034557, 0.2952888, 0.6465264, -1.8356936, 1.3349738, 0.2874956, 0
849, 3360162323, 0.528658, -0.46245375, 0.29846913, 0.6462025, -2.3159902, 2.1654317, -0.6240854, 0
853, 3360228991, 0.52532053, -0.46630466, 0.30053154, 0.6451999, -0.4599626, 1.2529777, -1.1496134, 0
855, 3360262325, 0.5321493, -0.46164903, 0.29139337, 0.6471409, -0.8164765, 1.9918406, -0.53645134, 0
856, 3360278992, 0.5332685, -0.46294028, 0.28855583, 0.6465683, -1.0379175, 2.3622792, 2.9303102, 0
857, 3360295659, 0.5325123, -0.46616054, 0.28718004, 0.6454896, -1.6640394, 3.2069123, 0.6226587, 0
859, 3360328993, 0.5238706, -0.48220512, 0.28189623, 0.6430991, -2.7508705, 2.2684116, -1.1682625, 0
860, 3360345660, 0.5172102, -0.49162772, 0.27355698, 0.64495444, -1.7145735, 1.2823037, -0.31659603, 0
861, 3360362327, 0.5093589, -0.49977288, 0.26261303, 0.6494762, -0.56251687, -0.2346001, -1.3155041, 0
864, 3360412328, 0.4999074, -0.49815324, 0.23944347, 0.6667885, -2.088208, -3.2898984, -1.1075506, 0
866, 3360445662, 0.5036812, -0.4961117, 0.22674584, 0.66990215, -2.6619265, -0.9223081, 1.5206003, 0
867, 3360462329, 0.5044871, -0.49713877, 0.22053485, 0.6706075, -2.99572, -1.025449, 3.8967257, 0
868, 3360478996, 0.50316757, -0.49993396, 0.21608064, 0.67097056, -2.329539, -2.0402558, 0.24234676, 0
870, 3360512330, 0.49975544, -0.50580764, 0.20652948, 0.67212534, -1.4577557, 0.35545132, -0.31226063, 0
871, 3360528997, 0.4971522, -0.5080104, 0.20474076, 0.6729415, 0.48532906, -2.5196424, -0.3158722, 0
872, 3360545664, 0.49395713, -0.5085611, 0.20296898, 0.67541057, -0.2844817, -0.7117851, 3.3937368, 0
874, 3360578998, 0.48516205, -0.50848, 0.2042238, 0.68144166, -1.3174803, -3.548805, 0.6214962, 0
875, 3360595665, 0.48039392, -0.50840414, 0.20553869, 0.6844741, -2.477765, -3.8592422, 0.20551014, 0
876, 3360612332, 0.4753498, -0.5087248, 0.20693533, 0.6873307, -0.07694662, -5.2242866, 0.22454643, 0
879, 3360662333, 0.46442562, -0.50829905, 0.21164566, 0.6936506, 1.3597832, -3.06306, -0.18843174, 0
880, 3360679000, 0.46128833, -0.5075094, 0.21388651, 0.695632, 1.2746936, -1.7742853, -0.032341957, 0
882, 3360712334, 0.45638508, -0.5054536, 0.21870475, 0.69885737, 2.1400619, -1.3190287, -1.028554, 0
883, 3360729001, 0.4550213, -0.5040908, 0.22080803, 0.70006853, 2.247657, -2.2702918, 0.8778267, 0
884, 3360745668, 0.45385924, -0.5024801, 0.22320288, 0.7012206, 1.1818274, -0.7568453, -1.101058, 0
887, 3360795669, 0.45158, -0.49821705, 0.23121738, 0.7031345, 0.6632619, -0.6414749, -1.4681616, 0
888, 3360812336, 0.45170927, -0.49672258, 0.2328839, 0.70355844, -0.14686444, -0.041083023, -0.51826, 0
890, 3360845670, 0.4516876, -0.493074, 0.2358518, 0.7051484, 0.3533818, 1.7700819, -0.9472027, 0
891, 3360862337, 0.4515861, -0.49221718, 0.23809125, 0.7050595, 0.43401566, 0.6210265, 1.0648918, 0
893, 3360895671, 0.4523466, -0.49082223, 0.24116142, 0.70450073, -0.89480627, 1.4107704, -0.007958412, 0
894, 3360912338, 0.4528529, -0.49071115, 0.24217437, 0.70390517, -0.32333642, 1.3273749, 0.49110985, 0
895, 3360929005, 0.45366687, -0.49072427, 0.24292184, 0.7031138, -0.0013816453, 1.5805703, 0.13550091, 0
897, 3360962339, 0.45533678, -0.49137422, 0.2448666, 0.70090234, 0.9631513, 0.72549915, 0.4232874, 0
898, 3360979006, 0.4567317, -0.4915053, 0.24533789, 0.69973695, 0.6288206, 1.2367846, -0.03725815, 0
899, 3360995673, 0.45863074, -0.49153328, 0.24525288, 0.69850415, -0.54442585, 1.531624, -0.8690195, 0
901, 3361029007, 0.46251082, -0.49112466, 0.24487221, 0.6963635, 0.72892517, 1.2588906, 0.34145737, 0
902, 3361045674, 0.4644818, -0.49101645, 0.24455366, 0.6952388, 1.3248131, 0.2240561, 0.49911404, 0
905, 3361095675, 0.46929336, -0.4908389, 0.24458359, 0.6921154, -0.91147166, 1.9973587, -0.99235535, 0
906, 3361112342, 0.47059906, -0.49109885, 0.24543014, 0.69074345, 0.3657495, 0.11874908, -1.6780825, 0
909, 3361162343, 0.47316048, -0.4905146, 0.246985, 0.68885213, 0.75569934, 0.55632263, -1.0469685, 0
910, 3361179010, 0.47357383, -0.49031854, 0.24830693, 0.688232, 0.27047056, 0.23803213, 0.88694, 0
911, 3361195677, 0.47373077, -0.4902547, 0.24973829, 0.6876511, -0.22028135, -0.35837978, -0.6405182, 0
913, 3361229011, 0.47501034, -0.49039784, 0.25050005, 0.6863884, -0.4683267, 1.1081057, -0.943079, 0
915, 3361262345, 0.4778258, -0.49072373, 0.25004953, 0.6843624, 0.42640093, 0.8643065, 0.61395645, 0
917, 3361295679, 0.48038706, -0.49255878, 0.24932985, 0.6815076, 0.021432322, 0.06908294, 0.77851963, 0
918, 3361312346, 0.48226026, -0.4933809, 0.24898086, 0.67971534, -0.36406773, 0.69526535, -0.5861511, 0
921, 3361362347, 0.48788053, -0.49485838, 0.24565047, 0.67583114, 0.8408697, 0.7412657, -0.2562952, 0
922, 3361379014, 0.48911336, -0.49552047, 0.2444648, 0.67488396, -0.3199207, 0.28793857, -0.7563286, 0
924, 3361412348, 0.49104282, -0.49708724, 0.2426602, 0.6729794, -1.0792282, 0.042149402, -0.1317625, 0
926, 3361445682, 0.49177262, -0.4984099, 0.24236336, 0.6715737, 0.4269874, -0.09716287, 1.1018305, 0
928, 3361479016, 0.49145338, -0.49834058, 0.2419536, 0.6720065, -0.374294, -0.040098894, -0.32163143, 0
929, 3361495683, 0.49094358, -0.49837726, 0.24180953, 0.6724036, -1.4910475, 0.21336837, 0.1865654, 0
930, 3361512350, 0.49024296, -0.49840963, 0.24183792, 0.6728805, -1.8961865, 0.164143, 0.2860155, 0
932, 3361545684, 0.48845297, -0.499179, 0.24174413, 0.67364514, -0.11464114, 0.41156134, 0.03381729, 0
933, 3361562351, 0.4872826, -0.4996418, 0.2417723, 0.6741394, 0.11340757, 0.4103982, -0.21326065, 0
934, 3361579018, 0.48649848, -0.500146, 0.24153607, 0.6744165, -0.35709044, -0.58400404, 0.5675583, 0
936, 3361612352, 0.48655385, -0.5009106, 0.2395047, 0.6745336, -1.144284, -0.40104282, -0.6765709, 0
937, 3361629019, 0.4866034, -0.5020372, 0.23846707, 0.67402774, 0.10690949, -0.40148583, 0.4833336, 0
938, 3361645686, 0.48679167, -0.50302696, 0.23715714, 0.67361575, -0.089085, 1.4582727, -1.068635, 0
941, 3361695687, 0.48668194, -0.5074092, 0.23397784, 0.6715172, 0.21018477, -1.271126, 1.9152536, 0
942, 3361712354, 0.48797086, -0.5074265, 0.2308536, 0.67164963, -0.7121214, 0.17647533, 0.21383, 0
944, 3361745688, 0.4898417, -0.5074795, 0.22502388, 0.6722262, -0.64638233, 1.1528847, -1.5105782, 0
945, 3361762355, 0.4890101, -0.50821877, 0.22418818, 0.67255217, 0.109172665, -0.8103317, -0.2179451, 0
947, 3361795689, 0.48786968, -0.5088084, 0.22191593, 0.6736872, -0.5605671, -0.28849578, -1.1477146, 0
948, 3361812356, 0.487087, -0.5094941, 0.22117233, 0.6739798, -1.6185465, -0.41380048, -0.24861145, 0
949, 3361829023, 0.4862693, -0.51007617, 0.21992958, 0.6745365, -0.5759178, -0.39665616, 1.066309, 0
951, 3361862357, 0.48458767, -0.5122533, 0.21724199, 0.6749677, -0.53776723, -1.0231533, 0.26066303, 0
952, 3361879024, 0.4833846, -0.5129395, 0.21655554, 0.6755295, -0.8361786, -0.83304954, 0.6289835, 0
953, 3361895691, 0.4819144, -0.5137743, 0.21587993, 0.67616147, -0.1883394, -1.0378435, -0.32098198, 0
956, 3361945692, 0.47733364, -0.5170754, 0.21352705, 0.6776398, -0.7216259, -0.2657274, 0.18283844, 0
957, 3361962359, 0.4757711, -0.51841456, 0.21190897, 0.67822325, -0.86092794, 0.15911798, 0.54496384, 0
959, 3361995693, 0.47190332, -0.52116513, 0.20969096, 0.67950565, -2.0067651, 0.8173678, -1.7573624, 0
960, 3362012360, 0.47021502, -0.52228945, 0.20895581, 0.680039, -1.0822564, -0.41469276, 1.1099501, 0
961, 3362029027, 0.4689793, -0.52213097, 0.2073042, 0.6815179, -0.737164, 0.5288017, 0.5750618, 0
963, 3362062361, 0.46510962, -0.5236802, 0.20465218, 0.68377894, -1.0294508, 1.0573568, 1.6655207, 0
964, 3362079028, 0.46277133, -0.52430385, 0.20398575, 0.6850855, -2.8732686, 1.5939909, -0.6113272, 0
965, 3362095695, 0.46039817, -0.52514684, 0.20322293, 0.68626446, -3.3214817, 1.3824142, -2.237402, 0
967, 3362129029, 0.4585245, -0.5241779, 0.19752792, 0.6899127, -0.99294066, 1.4660679, -0.13178253, 0
968, 3362145696, 0.45735347, -0.523873, 0.19558914, 0.69147223, 0.18268183, 0.027231477, 2.0029764, 0
969, 3362162363, 0.45576438, -0.5234734, 0.19497177, 0.6929967, 0.03029109, -0.28526443, 1.8596296, 0
971, 3362195697, 0.4491064, -0.52544284, 0.19853827, 0.6948381, -3.0858645, 3.462381, 0.45799637, 0
972, 3362212364, 0.44688207, -0.52600265, 0.1999903, 0.69543195, -4.090779, 4.3046117, -5.5861835, 0
974, 3362245698, 0.44656202, -0.5188219, 0.19630685, 0.70204973, -2.651565, 3.5631282, 1.8059244, 0
975, 3362262365, 0.44652203, -0.51476747, 0.19501473, 0.70541185, 1.684116, 2.0658212, 2.0844994, 0
976, 3362279032, 0.4456177, -0.51130044, 0.19723982, 0.70788217, 0.63238966, 0.5597198, 2.646655, 0
978, 3362312366, 0.43479517, -0.5112774, 0.20386226, 0.7127361, -3.0842776, 2.3265195, -0.3453951, 0
979, 3362329033, 0.42711267, -0.5177454, 0.20994593, 0.7109439, -4.2550325, 3.6149104, -3.4173627, 0
980, 3362345700, 0.4207085, -0.52462703, 0.21397829, 0.70851135, -2.0860322, -0.03788824, -0.8834944, 0
983, 3362395701, 0.41805843, -0.525788, 0.2116408, 0.7099198, 3.5651238, -3.4535518, 0.645278, 0
984, 3362412368, 0.42087668, -0.5209852, 0.20804873, 0.7128512, 2.3022804, -1.6905061, -1.843431, 0
986, 3362445702, 0.42750785, -0.5130869, 0.19943292, 0.71708393, -0.1786657, 2.03332, -2.610075, 0
987, 3362462369, 0.43050382, -0.5148586, 0.1945605, 0.71535826, -0.35431865, -1.2034346, -0.26645947, 0
988, 3362479036, 0.4337077, -0.5167019, 0.18835121, 0.71375394, -0.5585302, -1.0693284, 3.9219542, 0
991, 3362529037, 0.44144574, -0.5202395, 0.18478367, 0.70734406, 4.634534, -0.10412731, 1.9882908, 0
992, 3362545704, 0.44253284, -0.52055025, 0.18646547, 0.7059935, 2.2586873, -1.8083215, 1.6055326, 0
994, 3362579038, 0.4437678, -0.52010405, 0.1902551, 0.7045346, -0.77129865, -1.4520413, -1.932168, 0
995, 3362595705, 0.44509685, -0.5200712, 0.19133192, 0.70342785, -0.7933017, -1.3811333, -0.5573101, 0
996, 3362612372, 0.4468589, -0.5194035, 0.1906501, 0.70298916, -0.08876627, -0.059355207, 1.1385717, 0
1000, 3362679040, 0.45038754, -0.5192858, 0.18869588, 0.7013496, 0.48286185, -1.1210884, -0.6020479, 0
1002, 3362712374, 0.45041975, -0.5178453, 0.18940823, 0.7022015, 1.1185404, -0.99913263, -0.8896103, 0
1003, 3362729041, 0.45010334, -0.5177734, 0.19020706, 0.7022414, 0.35789427, -2.7724197, -0.93599606, 0
1006, 3362779042, 0.4490871, -0.5187002, 0.18961613, 0.70236796, -0.15829009, -1.3108556, 0.1586914, 0
1007, 3362795709, 0.44850886, -0.5194029, 0.18938491, 0.7022803, -0.639402, -0.84154415, -0.050253868, 0
1009, 3362829043, 0.44652936, -0.5214147, 0.18908441, 0.702132, 0.13606636, 0.43899196, 0.8857374, 0
1010, 3362845710, 0.4454283, -0.5225749, 0.18953936, 0.7018461, 0.49577883, -1.0409954, -0.6284733, 0
1011, 3362862377, 0.4443397, -0.5239099, 0.19045411, 0.7012929, -0.6521515, -0.6558411, 0.75454426, 0
1013, 3362895711, 0.44098562, -0.5278415, 0.19219656, 0.69998544, 0.042872857, -0.15390342, -0.75716877, 0
1015, 3362929045, 0.43639782, -0.5333799, 0.19619091, 0.69755006, 0.78169197, -0.7597395, 1.481534, 0
1018, 3362979046, 0.42988697, -0.543121, 0.2029018, 0.6921355, -1.233703, 0.87656194, -1.1918163, 0
1019, 3362995713, 0.4281435, -0.5463277, 0.2048449, 0.69011724, -1.1611018, 0.9639143, -1.2730637, 0
1021, 3363029047, 0.42495716, -0.5507156, 0.2082948, 0.6875616, -0.15242298, 2.1972606, -1.673913, 0
1022, 3363045714, 0.42252013, -0.5533238, 0.21080638, 0.6862029, 0.48741633, 0.1942274, -0.054017067, 0
1023, 3363062381, 0.42079154, -0.554227, 0.21258137, 0.6859884, 0.25252908, -0.23029098, 1.6429796, 0
1025, 3363095715, 0.41970524, -0.5523174, 0.213639, 0.6878628, -0.53447723, 0.64309, -0.24280453, 0
1026, 3363112382, 0.42002568, -0.55025333, 0.2131652, 0.6894666, -0.52803475, 0.89333045, 0.43638897, 0
1028, 3363145716, 0.41961947, -0.54761297, 0.21373197, 0.6916373, 0.42202756, 0.82421017, -0.17146587, 0
1029, 3363162383, 0.41898662, -0.54673606, 0.21444437, 0.6924938, 0.22471456, 0.54518163, 0.42969322, 0
1030, 3363179050, 0.4179622, -0.54537225, 0.2158889, 0.6937383, 0.03464702, 0.0904966, 0.46123028, 0
1033, 3363229051, 0.41784546, -0.53733695, 0.21952163, 0.6989193, 0.42115825, 0.2571986, -0.92169285, 0
1034, 3363245718, 0.41820204, -0.53626007, 0.22003375, 0.6993721, -0.005412869, 0.7246546, 0.8555336, 0
1036, 3363279052, 0.41794991, -0.53650856, 0.22247756, 0.6985587, 0.31341395, 0.057223786, -0.6052656, 0
1037, 3363295719, 0.41878402, -0.53624487, 0.22299334, 0.69809705, 1.1262679, -0.064769804, 2.1781864, 0
1038, 3363312386, 0.41948068, -0.5355264, 0.22362758, 0.6980273, 0.47188747, 0.24009103, -0.93608093, 0
1040, 3363345720, 0.42077073, -0.53474736, 0.22564206, 0.69719917, 0.41011488, 0.62988234, -0.5375967, 0
1041, 3363362387, 0.42157364, -0.53463215, 0.22667494, 0.6964671, 0.9678311, -0.40045005, 0.20885849, 0
1042, 3363379054, 0.42307457, -0.5341957, 0.22684728, 0.69583565, 0.61776525, 1.1280934, 0.16079044, 0
1044, 3363412388, 0.4259089, -0.5345202, 0.22744748, 0.693658, 0.5628836, 0.18947662, 0.7173395, 0
1045, 3363429055, 0.4275878, -0.5337448, 0.227631, 0.69316185, 0.8810843, 0.6821573, 0.064795494, 0
1046, 3363445722, 0.42872924, -0.53377986, 0.22845443, 0.6921582, 0.71451336, 0.35265493, -1.0218515, 0
1048, 3363479056, 0.43137863, -0.5330629, 0.2295629, 0.69069624, 0.10406126, 0.48648623, 0.3613758, 0
1049, 3363495723, 0.43313634, -0.53280985, 0.22938994, 0.6898484, 0.51505953, 0.2511928, -1.0221834, 0
1050, 3363512390, 0.43516004, -0.5333112, 0.22859204, 0.68845093, 0.016154734, 1.1642869, 0.25959015, 0
1052, 3363545724, 0.4390151, -0.53514296, 0.22494341, 0.6857785, -0.06456909, -0.5152423, 0.5325098, 0
1055, 3363595725, 0.44428337, -0.5367587, 0.21954489, 0.6828663, 0.15748388, 0.67746353, 0.9788351, 0
1056, 3363612392, 0.44534165, -0.5369369, 0.21864983, 0.68232393, 0.16860141, 0.59800065, -0.94447327, 0
1057, 3363629059, 0.44579637, -0.53827024, 0.2177406, 0.6812663, -0.18196955, 0.014237105, 0.2005024, 0
1059, 3363662393, 0.447375, -0.539322, 0.21268535, 0.68099654, -0.7278664, -0.20576312, -0.9024744, 0
1061, 3363695727, 0.44598326, -0.5396212, 0.2119728, 0.6818941, -0.007005343, 0.96910995, 0.75117016, 0
1063, 3363729061, 0.44312742, -0.5413544, 0.2130403, 0.68204933, -0.70668864, -0.21250807, -0.379776, 0
1064, 3363745728, 0.44176292, -0.54271215, 0.21372569, 0.681641, -0.569982, -1.0124384, -0.8588362, 0
1065, 3363762395, 0.4404016, -0.54423535, 0.21462351, 0.6810248, 0.9322267, -1.2071447, 0.7621584, 0
1067, 3363795729, 0.43999475, -0.54186285, 0.21464734, 0.68316895, -0.09111008, 1.686446, -1.3054409, 0
1068, 3363812396, 0.439168, -0.5416937, 0.21572536, 0.6834954, -0.2945119, 1.094178, -0.6159973, 0
1069, 3363829063, 0.43966538, -0.539777, 0.21593206, 0.6846258, -0.2974156, 0.86365855, 1.4221487, 0
1071, 3363862397, 0.44068858, -0.5389961, 0.21590135, 0.6845929, -0.20304386, 0.16552185, 1.1110506, 0
1072, 3363879064, 0.44137895, -0.5382462, 0.21537787, 0.6849029, -0.02046222, 0.11175648, 0.30789375, 0
1073, 3363895731, 0.44124833, -0.53879726, 0.21556655, 0.6844944, 1.3525153, -0.008428673, 0.8062258, 0
1076, 3363945732, 0.4394419, -0.54052466, 0.21898915, 0.68320704, -2.0863085, 3.7571821, -2.068193, 0
1077, 3363962399, 0.43935475, -0.5392868, 0.21893415, 0.6842579, -1.1551821, 2.070661, -0.16095543, 0
1080, 3364012400, 0.43776885, -0.5315037, 0.21932033, 0.6912055, -0.65345633, 2.7727902, -0.15560627, 0
1081, 3364029067, 0.43555292, -0.53134334, 0.22215302, 0.6918237, -2.5651205, 3.4853632, -0.96621895, 0
1083, 3364062401, 0.4302642, -0.5348598, 0.22945869, 0.69003654, -2.9122396, 2.5232782, -0.2220459, 0
1084, 3364079068, 0.43209058, -0.5333678, 0.2283202, 0.69042784, -0.68833643, 0.9813926, 2.081438, 0
1086, 3364112402, 0.43880785, -0.52561235, 0.22180897, 0.6942509, 0.007758917, 1.9485004, 0.14687157, 0
1087, 3364129069, 0.4406301, -0.5228411, 0.22023682, 0.69568825, -0.295039, 1.7356033, -0.33753777, 0
1088, 3364145736, 0.4413835, -0.5216596, 0.22010836, 0.69613814, -0.81369567, 2.8316333, 1.8083496, 0
1090, 3364179070, 0.43868235, -0.5284294, 0.22494626, 0.69117534, -2.8198793, 3.1139455, -5.9583883, 0
1092, 3364212404, 0.4451434, -0.5245327, 0.21811247, 0.69220215, 0.3411556, -2.090791, 2.035246, 0
1094, 3364245738, 0.45364496, -0.51418406, 0.20723777, 0.6977662, 3.4403915, -2.4150517, 0.10000324, 0
1095, 3364262405, 0.45501783, -0.5121204, 0.2055395, 0.6988913, 2.7943358, -3.9498477, 6.429144, 0
1096, 3364279072, 0.4552489, -0.51079756, 0.20499708, 0.69986755, 1.3537854, -4.273347, -2.7085066, 0
1098, 3364312406, 0.45558438, -0.50991523, 0.20004915, 0.701722, -1.9779258, -1.2502378, -0.3921852, 0
1099, 3364329073, 0.4561092, -0.5094373, 0.19746388, 0.70246005, 3.2648292, -2.2437787, -0.27962017, 0
1100, 3364345740, 0.45636806, -0.50997984, 0.19661283, 0.70213705, 4.2156024, -1.5669049, 2.4932947, 0
1102, 3364379074, 0.45422512, -0.512067, 0.20007046, 0.7010299, 1.9108279, -3.176787, 1.4802761, 0
1103, 3364395741, 0.45216212, -0.51358867, 0.20505424, 0.69980925, 1.1708815, -4.0826483, 0.58428574, 0
1104, 3364412408, 0.45068684, -0.5153508, 0.21094288, 0.69771194, -0.09611479, -2.6872308, -1.9144416, 0
1107, 3364462409, 0.44186172, -0.5274682, 0.22620776, 0.68947047, 2.503864, -2.7151473, -1.0398998, 0
1109, 3364495743, 0.43979713, -0.53033626, 0.23205225, 0.68664235, 2.0874856, -2.0335932, 2.6237526, 0
1110, 3364512410, 0.43866035, -0.531631, 0.23491707, 0.6853931, 0.3630013, -0.47071448, -0.10709667, 0
1111, 3364529077, 0.43737498, -0.5342676, 0.23825543, 0.6830078, -0.69200784, 0.5462778, -1.8985634, 0
1113, 3364562411, 0.43767637, -0.53674775, 0.24201046, 0.67954135, -0.04240432, 1.4298923, -2.8312268, 0
1114, 3364579078, 0.4377066, -0.5384836, 0.24371001, 0.6775381, 2.068933, -0.806439, 1.2926016, 0
1115, 3364595745, 0.43843737, -0.53830475, 0.24434291, 0.67697954, 1.3987461, 0.4264663, 0.7907448, 0
1117, 3364629079, 0.43748805, -0.5394375, 0.24810864, 0.6753204, -0.22345965, 1.3198266, -0.6853876, 0
1118, 3364645746, 0.43729907, -0.53877616, 0.24956188, 0.6754352, 0.3308934, 0.64937687, 0.73153496, 0
1119, 3364662413, 0.43777108, -0.53719354, 0.25049093, 0.67604584, 1.0742868, 0.53793734, 0.13593674, 0
1121, 3364695747, 0.44041613, -0.53337795, 0.25071108, 0.67726636, -0.2638016, 1.5324929, 0.47220707, 0
1122, 3364712414, 0.44176677, -0.53206307, 0.25031534, 0.6775672, -0.8182191, 1.6905943, -1.2870512, 0
1123, 3364729081, 0.4432976, -0.53114456, 0.24982397, 0.67746943, 0.31367752, 1.1392386, 1.051177, 0
1125, 3364762415, 0.44647983, -0.5309247, 0.2493907, 0.67570937, 0.25865376, 0.52827156, 1.3187056, 0
1126, 3364779082, 0.44880748, -0.5300181, 0.24827847, 0.67528856, -0.30398488, 1.7102304, 1.0011339, 0
1127, 3364795749, 0.45071247, -0.52991015, 0.24754927, 0.67437154, -0.711233, 1.4987203, -2.4837651, 0
1129, 3364829083, 0.45568472, -0.5292319, 0.24480602, 0.6725616, 0.3389871, 1.0838666, 1.3208628, 0
1130, 3364845750, 0.45746994, -0.5294119, 0.24380334, 0.6715714, -0.50356674, 2.6322947, -2.7182274, 0
1131, 3364862417, 0.45843762, -0.530275, 0.243526, 0.6703301, -0.10524845, 0.8734694, 0.7368078, 0
1134, 3364912418, 0.4608568, -0.5291068, 0.24199015, 0.67015064, 0.33844444, 1.0352377, 0.25204945, 0
1136, 3364945752, 0.46050042, -0.52967715, 0.24241291, 0.6697921, -0.34224886, -0.34978324, 0.94020367, 0
1137, 3364962419, 0.45985454, -0.5302649, 0.2429841, 0.66956365, -0.4448675, 0.17576511, -1.2530022, 0
1138, 3364979086, 0.45893627, -0.5315521, 0.24379055, 0.66887975, 0.31061518, -1.2794071, 0.9864874, 0
1140, 3365012420, 0.45626462, -0.53186464, 0.24548593, 0.66983837, 0.84245294, -0.06263347, -1.9403977, 0
1141, 3365029087, 0.45567653, -0.53350616, 0.24603231, 0.6687317, 2.3093708, 0.49037984, 1.7410603, 0
1142, 3365045754, 0.4557661, -0.53462595, 0.24612647, 0.66774106, -0.014528901, -2.4358954, 0.97003746, 0
1144, 3365079088, 0.45241338, -0.53711694, 0.24839517, 0.6671818, 0.11567008, -0.40017736, 0.5941, 0
1145, 3365095755, 0.4511788, -0.538443, 0.2494627, 0.66655016, 1.6955404, -1.3635855, 0.1565466, 0
1146, 3365112422, 0.44957355, -0.54028267, 0.25163078, 0.6653303, -0.738702, -0.15502948, -0.48749542, 0
1149, 3365162423, 0.44336355, -0.5461268, 0.25786597, 0.662332, -0.113691375, 0.046226278, -0.85682774, 0
1150, 3365179090, 0.44090247, -0.5499768, 0.26077026, 0.65964645, -0.8839427, -1.0041875, -0.7380533, 0
1152, 3365212424, 0.43643117, -0.5583084, 0.26547223, 0.65371865, 0.5365459, -0.24810632, -0.20909786, 0
1153, 3365229091, 0.4344182, -0.5621869, 0.26737943, 0.6509524, 0.70987356, -0.28247008, 0.51408577, 0
1154, 3365245758, 0.43254915, -0.5651946, 0.26961857, 0.6486649, 0.8899176, -0.6632338, 1.254818, 0
1156, 3365279092, 0.42764995, -0.5723305, 0.2759399, 0.6429732, 1.3830956, -1.3183333, 0.59601116, 0
1157, 3365295759, 0.42543113, -0.5766662, 0.27878118, 0.63933516, 0.5864407, 0.090811975, 0.28148937, 0
1158, 3365312426, 0.42289844, -0.58276767, 0.28207266, 0.6340172, 0.111092865, -0.4313238, -2.0169206, 0
1160, 3365345760, 0.41837937, -0.5961883, 0.28706968, 0.6221842, 0.84282064, -0.8608691, 1.702241, 0
1161, 3365362427, 0.41651103, -0.60428506, 0.288363, 0.61498713, 0.42996594, 0.43443108, -1.5500803, 0
1164, 3365412428, 0.4107228, -0.63724387, 0.2866676, 0.5857071, -0.7658049, 0.118628606, 1.1839542, 0
1165, 3365429095, 0.4112857, -0.65060806, 0.28349492, 0.57200366, -0.99936664, 0.7940401, 1.6736202, 0
1167, 3365462429, 0.42040217, -0.67331064, 0.28864303, 0.5353542, -3.0035956, 0.019082865, 3.0042152, 0
1168, 3365479096, 0.431063, -0.67906326, 0.29547954, 0.5155131, -2.813089, 0.416431, 4.3581038, 0
1169, 3365495763, 0.44471574, -0.68143284, 0.3019912, 0.49667144, -2.9000986, 1.67318, 2.6442232, 0
1171, 3365529097, 0.46534273, -0.6831312, 0.31740713, 0.46480638, -5.634087, -0.9266025, 0.4304552, 0
1172, 3365545764, 0.46232527, -0.684098, 0.32666025, 0.4599591, -12.192705, -1.7424701, -2.0343528, 0
1173, 3365562431, 0.44703075, -0.68138343, 0.34075904, 0.46879372, -10.837202, 1.387472, -0.108389854, 0
1177, 3365629099, 0.39407268, -0.6475924, 0.4051054, 0.51110125, 2.7184203, 9.224275, -4.31216, 0
1179, 3365662433, 0.40044928, -0.62946254, 0.40990347, 0.52478623, 1.873234, 7.809548, -3.065703, 0
1181, 3365695767, 0.41262197, -0.60483736, 0.4009571, 0.5505929, 0.13571505, 3.061628, -1.7171783, 0
1183, 3365729101, 0.41909057, -0.5790042, 0.38130194, 0.5862851, 3.068471, 1.8480803, 0.6683817, 0
1184, 3365745768, 0.42488614, -0.5648409, 0.3697631, 0.60308033, 3.085081, 1.4430023, 1.2741222, 0
1185, 3365762435, 0.43229315, -0.551761, 0.35451224, 0.6188759, 0.18935995, 0.6598123, 3.3035812, 0
1188, 3365812436, 0.44217023, -0.5190736, 0.29616576, 0.6688333, -1.9575256, -3.3800397, 0.39201546, 0
1191, 3365862437, 0.4327862, -0.4855445, 0.26066622, 0.7134423, 1.1677024, -0.5528497, -0.102181435, 0
1192, 3365879104, 0.43251535, -0.47717836, 0.2507469, 0.72274584, 1.3751891, 0.13602105, 0.5929451, 0
1194, 3365912438, 0.43691283, -0.46511337, 0.2309002, 0.7344836, -0.2996882, -0.54323083, -0.16728973, 0
1195, 3365929105, 0.44001335, -0.4610417, 0.22053996, 0.73837334, -1.5251527, -0.90837854, 0.14367962, 0
1196, 3365945772, 0.44393736, -0.45720553, 0.21027745, 0.7413977, -1.2364703, -0.36164308, 1.690053, 0
1198, 3365979106, 0.4532988, -0.4425184, 0.19692424, 0.7482798, -0.34658176, -0.47299343, 4.1961775, 0
1199, 3365995773, 0.45752692, -0.4327514, 0.19196059, 0.7526958, -0.06803802, -0.8124345, 3.1343632, 0
1200, 3366012440, 0.46058503, -0.42407095, 0.18662044, 0.7571013, 0.27748066, -1.0738045, 2.3936768, 0
1202, 3366045774, 0.4644903, -0.41251716, 0.17352675, 0.76418006, 0.6396912, -1.3436912, 1.9505672, 0
1203, 3366062441, 0.46629748, -0.40960854, 0.16529736, 0.766465, 0.49855873, -2.3635385, 2.8865328, 0
1204, 3366079108, 0.46856552, -0.4059552, 0.15526864, 0.7691182, 0.7718933, -3.627605, 4.2093515, 0
1206, 3366112442, 0.4721543, -0.3926635, 0.13420047, 0.7777405, -0.52440625, -4.735429, -2.4263983, 0
1207, 3366129109, 0.47127885, -0.3879335, 0.12412319, 0.78230536, -0.9060461, -4.889407, -3.6165552, 0
1208, 3366145776, 0.46900138, -0.38551447, 0.114811465, 0.78628165, -0.3006157, -4.680993, -3.202341, 0
1211, 3366195777, 0.46079937, -0.38396743, 0.09683313, 0.7942672, 2.6509624, -4.8842864, -1.2571058, 0
1212, 3366212444, 0.45912018, -0.3810829, 0.09503506, 0.7968418, 3.2231252, -3.87099, -2.4098182, 0
1214, 3366245778, 0.45671025, -0.3763248, 0.101531506, 0.7996818, 3.6942825, -2.1481912, -2.8712263, 0
1215, 3366262445, 0.45660114, -0.37639126, 0.1076979, 0.79890573, 4.1370406, -1.5288581, -2.598734, 0
1216, 3366279112, 0.4578519, -0.37836674, 0.11537223, 0.7961807, 4.2649045, -0.8245373, -2.652789, 0
1218, 3366312446, 0.46499723, -0.38837317, 0.13882735, 0.7833741, 2.7979984, 1.1572126, -0.1681118, 0
1219, 3366329113, 0.47147438, -0.3939887, 0.15184698, 0.77422965, 1.3024161, 1.8093983, 1.9524984, 0
1221, 3366362447, 0.48848042, -0.4027582, 0.17418733, 0.7542121, -3.386501, 3.3885093, 2.475686, 0
1222, 3366379114, 0.49722216, -0.40640098, 0.1810262, 0.7448772, -4.3203125, 2.3933396, 3.2520752, 0
1223, 3366395781, 0.50474834, -0.4089746, 0.18372576, 0.7377113, -5.3267937, 1.1399344, 2.3364592, 0
1226, 3366445782, 0.51113373, -0.41718218, 0.17675772, 0.730385, -4.290915, -0.7432037, 0.974967, 0
1227, 3366462449, 0.50753546, -0.41843778, 0.17143284, 0.733439, -2.6318696, -1.7515059, 2.6924772, 0
1229, 3366495783, 0.4939672, -0.41291004, 0.15314305, 0.7497021, -0.09361723, -5.124776, 1.0861177, 0
1230, 3366512450, 0.48469716, -0.41028395, 0.13810867, 0.7600433, 2.73372, -6.3799872, -1.4819899, 0
1231, 3366529117, 0.47605944, -0.41020828, 0.12212822, 0.7682353, 5.483447, -6.770433, -4.3343353, 0
1233, 3366562451, 0.46649468, -0.4169192, 0.09928053, 0.77376276, 7.7198844, -9.166295, -3.753189, 0
1234, 3366579118, 0.463217, -0.41769427, 0.09335088, 0.77604866, 7.204251, -11.160858, -1.8042793, 0
1235, 3366595785, 0.45795593, -0.41586974, 0.0875184, 0.780816, 8.325745, -12.227334, -3.440422, 0
1237, 3366629119, 0.44636762, -0.42596927, 0.073947474, 0.7834807, 16.05172, -13.1167555, -9.878371, 0
1238, 3366645786, 0.44041938, -0.4435582, 0.07455907, 0.7770018, 18.158915, -17.1049, -8.765509, 0
1241, 3366695787, 0.43235174, -0.5305662, 0.122549385, 0.71871936, 31.249014, -18.843924, 5.463726, 0
1242, 3366712454, 0.41723648, -0.53477293, 0.17676546, 0.713225, -38.48502, -38.847042, 29.154602, 0
1244, 3366745788, 0.3943836, -0.557578, 0.20978251, 0.6996885, -1.3612533, 1.2579243, 0.0018901825, 0
1245, 3366762455, 0.38276574, -0.57832587, 0.22625382, 0.68399066, -0.84016865, 0.73929113, 0.08676052, 0
1246, 3366779122, 0.36817503, -0.6031752, 0.24546683, 0.6636089, 1.0825279, 1.2513667, 0.18002796, 0
1248, 3366812456, 0.33184788, -0.66052693, 0.28923947, 0.6082154, -1.607797, 2.1235049, 0.35204697, 0
1249, 3366829123, 0.30369067, -0.6967556, 0.31358567, 0.5691853, -4.11885, 4.5105534, 0.08564377, 0
1250, 3366845790, 0.2682516, -0.74049383, 0.34384447, 0.51135606, -5.3860135, 5.659916, 4.9671907, 0
1252, 3366879124, 0.21460642, -0.79684013, 0.41779315, 0.3800565, -13.033262, 31.249815, 32.101025, 0
1253, 3366895791, 0.225895, -0.80283904, 0.42562684, 0.35109425, 12.300074, 30.810356, 44.02827, 0
1256, 3366945792, 0.18499954, -0.8507114, 0.43257356, 0.23441364, -9.728771, 30.180353, 12.876184, 0
1257, 3366962459, 0.16418214, -0.8616442, 0.43902117, 0.19462298, -14.654331, 31.373602, 2.90129, 0
1258, 3366979126, 0.13800009, -0.8733254, 0.43933135, 0.15890571, -21.920843, 30.826845, -8.152349, 0
1260, 3367012460, 0.067362435, -0.8895946, 0.43778485, 0.11150038, -15.65987, 17.536135, -23.908474, 0
1261, 3367029127, 0.03896748, -0.89067507, 0.4426435, 0.09618028, -10.471715, 14.1990595, -24.855785, 0
1262, 3367045794, 0.020282576, -0.8880909, 0.45101747, 0.0864328, -8.450618, 9.975499, -24.371634, 0
1264, 3367079128, -2.0891987E-4, -0.8813998, 0.46471626, 0.08472074, -3.7389805, 6.6269116, -21.447872, 0
1265, 3367095795, 0.002405774, -0.8770047, 0.4721139, 0.08927283, -0.6718615, 4.9720893, -19.636944, 0
1266, 3367112462, 0.01406692, -0.8721995, 0.47960618, 0.0951443, -0.33703363, 4.222047, -19.084606, 0
1268, 3367145796, 0.049042363, -0.8617096, 0.48804137, 0.12988932, -5.882711, 3.3872688, -18.267437, 0
1269, 3367162463, 0.06461752, -0.85434383, 0.48843628, 0.1653947, -6.0365834, 3.5339708, -15.262787, 0
1271, 3367195797, 0.10114496, -0.8306223, 0.4838001, 0.25647232, -3.8312075, 7.7501597, -6.6874094, 0
1272, 3367212464, 0.12759978, -0.8141789, 0.47750843, 0.30466545, -2.2929606, 6.7341914, -2.1575856, 0
1273, 3367229131, 0.15770815, -0.79664534, 0.46719065, 0.3496019, -1.3864878, 3.5897486, 2.2413368, 0
1275, 3367262465, 0.21196653, -0.7615454, 0.42971066, 0.43643072, -4.7299232, -3.2479355, 11.983557, 0
1276, 3367279132, 0.22523773, -0.7444231, 0.40454268, 0.48109442, -5.048598, -10.492295, 8.983112, 0
1277, 3367295799, 0.22662483, -0.7262895, 0.38295954, 0.52391905, -2.2175636, -8.389307, 9.236446, 0
1279, 3367329133, 0.23252216, -0.68017215, 0.3560553, 0.59709984, 2.543389, -1.9154007, 7.9311047, 0
1280, 3367345800, 0.24442112, -0.65617603, 0.3460789, 0.6244397, 4.922764, -1.487858, 6.643936, 0
1283, 3367395801, 0.28698128, -0.60009694, 0.31120265, 0.67873603, 0.30266237, -3.8290684, 4.7620277, 0
1284, 3367412468, 0.2953446, -0.58400446, 0.29594514, 0.6957952, 2.1726103, -2.2278066, 5.7023096, 0
1285, 3367429135, 0.30426595, -0.5660351, 0.28243712, 0.712222, 3.7393441, -2.085958, 4.042245, 0
1287, 3367462469, 0.32779163, -0.5339463, 0.25865975, 0.73522323, 2.6605139, -1.5435114, 1.351841, 0
1288, 3367479136, 0.34244904, -0.51982015, 0.24987797, 0.74167424, 2.214587, -0.7356606, 1.0085163, 0
1289, 3367495803, 0.35671753, -0.50584173, 0.24462624, 0.7463505, 1.8949176, 0.021893317, 1.2520819, 0
1291, 3367529137, 0.3808951, -0.47550106, 0.23647974, 0.756901, 2.1806655, 0.86227834, 5.610792, 0
1292, 3367545804, 0.39244762, -0.4583325, 0.22650324, 0.7646024, 2.5724888, 0.19804813, 4.828185, 0
1293, 3367562471, 0.4038456, -0.4421574, 0.2149918, 0.7714845, 3.7435818, -0.14639026, 1.1185331, 0
1295, 3367595805, 0.4276115, -0.4154507, 0.19784743, 0.7780809, 3.891382, -1.371102, 1.6636248, 0
1297, 3367629139, 0.45055664, -0.39399138, 0.18659213, 0.7790745, 2.3524022, -2.2133598, 1.4856949, 0
1299, 3367662473, 0.47233507, -0.37396365, 0.17520948, 0.7786891, 1.8522613, -2.706381, 1.5165768, 0
1300, 3367679140, 0.4826454, -0.3631579, 0.17092521, 0.77843326, 1.1223232, -2.836521, 0.01543808, 0
1302, 3367712474, 0.4985934, -0.34633407, 0.16146761, 0.77806795, -0.2889553, -3.5288959, -0.2653675, 0
1303, 3367729141, 0.50301087, -0.34055752, 0.15571173, 0.7789472, -0.8081178, -3.7552478, 0.08986282, 0
1304, 3367745808, 0.5053363, -0.3355196, 0.14831083, 0.78106976, -0.7406565, -4.0225916, 1.3135986, 0
1306, 3367779142, 0.50439316, -0.32329935, 0.13029304, 0.78999555, -0.0037856388, -3.6206796, 1.0928688, 0
1307, 3367795809, 0.50190157, -0.31632012, 0.12011934, 0.79599756, 0.6941011, -3.5092888, 0.34433937, 0
1308, 3367812476, 0.4987699, -0.3094881, 0.11051167, 0.80202055, 1.7998123, -3.0514443, -0.91222763, 0
1310, 3367845810, 0.4929852, -0.2973166, 0.09784711, 0.8117872, 3.4991217, -2.3198352, -1.6791954, 0
1312, 3367879144, 0.49114048, -0.2866849, 0.091977775, 0.8173965, 3.6745596, -1.9431528, -1.9518595, 0
1314, 3367912478, 0.4962793, -0.27830595, 0.091825806, 0.81720567, 3.037141, -0.74404544, -2.1254096, 0
1315, 3367929145, 0.5013366, -0.2759487, 0.0931269, 0.8147671, 1.4209802, -0.7517617, -1.845489, 0
1316, 3367945812, 0.50752246, -0.27477357, 0.09355581, 0.8112779, 0.20071109, -0.7682986, -1.1251402, 0
1318, 3367979146, 0.5184884, -0.27079654, 0.09493038, 0.8055008, -0.99226665, -0.95316315, 0.1818285, 0
1319, 3367995813, 0.52140903, -0.26806015, 0.0950353, 0.80451787, -1.4339354, -1.2116165, 0.475626, 0
1320, 3368012480, 0.52241904, -0.2657048, 0.093277305, 0.80484957, -1.1334265, -1.3782074, 0.6531038, 0
1322, 3368045814, 0.52142656, -0.26173195, 0.08478227, 0.80772966, -0.16715455, -1.5561694, -0.099954605, 0
1323, 3368062481, 0.51976633, -0.26023164, 0.08017025, 0.8097526, 0.5014136, -1.6197633, -0.7391958, 0
1325, 3368095815, 0.51626873, -0.2582973, 0.07193889, 0.8133745, 2.140575, -1.5652002, -1.3263636, 0
1327, 3368129149, 0.5158605, -0.25660506, 0.071095146, 0.8142428, 2.2276723, -1.0841442, -1.6479263, 0
1329, 3368162483, 0.51971906, -0.25604594, 0.074634835, 0.8116444, 1.0165753, -0.8786065, -1.0875311, 0
1330, 3368179150, 0.5224389, -0.25615102, 0.07631997, 0.8097061, 0.41484433, -1.1100494, -1.4207392, 0
1331, 3368195817, 0.52503043, -0.2569763, 0.07808593, 0.80759704, 0.31764424, -1.4422202, -1.6786861, 0
1333, 3368229151, 0.52872795, -0.25903794, 0.08361366, 0.8039647, 0.58128965, -1.0941627, -1.1879244, 0
1334, 3368245818, 0.5298003, -0.26050228, 0.087027706, 0.8024218, 0.3583603, -0.66827446, -0.56879234, 0
1335, 3368262485, 0.53078866, -0.2623711, 0.08968386, 0.8008657, 0.23213781, -0.60552776, 0.021357536, 0
1337, 3368295819, 0.53346276, -0.2661344, 0.092115544, 0.7975644, 0.25170583, -1.5735962, -0.7943144, 0
1338, 3368312486, 0.53430605, -0.26862425, 0.09355322, 0.79599625, 0.27368695, -2.0769472, -1.7677078, 0
1339, 3368329153, 0.5345276, -0.27229932, 0.095389694, 0.7943792, 0.3542468, -2.229822, -2.2290006, 0
1341, 3368362487, 0.5327349, -0.2821212, 0.10331071, 0.79115874, 1.0140108, -2.1084104, -1.4146347, 0
1342, 3368379154, 0.5326905, -0.2881684, 0.10692539, 0.78852475, 1.1759796, -2.6927142, -0.7517357, 0
1343, 3368395821, 0.53375006, -0.29370236, 0.11069265, 0.78523964, 1.7588308, -2.9747384, -0.11438465, 0
1345, 3368429155, 0.53646225, -0.29928824, 0.12048231, 0.7798226, -0.13843372, -1.861688, -1.4427547, 0
1346, 3368445822, 0.53636014, -0.30270684, 0.12678476, 0.7775707, -1.086994, -1.1880939, -1.4257069, 0
1347, 3368462489, 0.53540105, -0.30721065, 0.13177145, 0.7756339, -0.9658574, -1.3702104, -0.041745186, 0
1349, 3368495823, 0.5319261, -0.31626448, 0.13689782, 0.7734951, 0.038400475, -2.0461955, 0.028559685, 0
1350, 3368512490, 0.5289262, -0.3208673, 0.13925824, 0.7732352, 0.5656268, -1.9006628, -0.737504, 0
1352, 3368545824, 0.5219573, -0.33128908, 0.14616315, 0.77230084, 1.8161062, 0.2918136, -0.23857117, 0
1354, 3368579158, 0.5188251, -0.34097037, 0.15364534, 0.76873714, 1.381391, 0.12717843, 0.99331474, 0
1356, 3368612492, 0.51923573, -0.35081547, 0.15444773, 0.7638541, 2.0676787, -1.7875979, 0.6865244, 0
1357, 3368629159, 0.51897836, -0.35447925, 0.15441486, 0.76234263, 1.7164, -2.3000495, -0.5259304, 0
1358, 3368645826, 0.51762277, -0.3593187, 0.15413505, 0.7610542, 1.0780905, -2.7948291, -1.7921991, 0
1360, 3368679160, 0.5098867, -0.37390256, 0.14995137, 0.7600865, 1.6348778, -4.1309505, -1.2529116, 0
1361, 3368695827, 0.50392324, -0.3817366, 0.14405479, 0.7613086, 2.943067, -5.642396, -0.38068867, 0
1362, 3368712494, 0.4973832, -0.38685507, 0.13652015, 0.7644081, 4.685407, -6.8768716, 0.30983067, 0
1364, 3368745828, 0.48233658, -0.38054678, 0.12989338, 0.7782464, 9.04653, -7.8004136, -1.7896271, 0
1365, 3368762495, 0.47725636, -0.37814942, 0.12967226, 0.78257185, 11.772537, -7.4352674, -4.6725645, 0
1366, 3368779162, 0.4759935, -0.38586515, 0.13046981, 0.7794358, 14.44694, -7.2780147, -8.586096, 0
1369, 3368829163, 0.5069958, -0.449417, 0.17898734, 0.71340555, 9.941987, -25.788275, -5.172955, 0
1370, 3368845830, 0.51280785, -0.4786254, 0.20857634, 0.68150264, 1.5368414, -30.814995, -2.2588263, 0
1372, 3368879164, 0.4944576, -0.5111908, 0.2609128, 0.652782, -11.349068, -0.56719095, 16.87176, 0
1373, 3368895831, 0.4856908, -0.51790786, 0.27592403, 0.6478781, -1.9854159, 5.3341637, 1.3180761, 0
1374, 3368912498, 0.47408617, -0.53264284, 0.29260638, 0.6371181, -3.198598, 0.64869976, -0.4741354, 0
1376, 3368945832, 0.4372884, -0.58505136, 0.32875428, 0.5986808, -1.2036028, 4.463154, 0.85373783, 0
1377, 3368962499, 0.4069413, -0.6231327, 0.35616446, 0.5650271, -3.6120768, 6.882778, 0.84915257, 0
1378, 3368979166, 0.36334074, -0.6734265, 0.3872385, 0.51432574, -6.789256, 8.921461, 5.513419, 0
1380, 3369012500, 0.27982512, -0.7556675, 0.45019808, 0.3846954, -5.4507523, 17.373857, 37.87968, 0
1381, 3369029167, 0.27301833, -0.7686498, 0.45641178, 0.3554309, 3.1188443, 28.584274, 46.786903, 0
1384, 3369079168, 0.22326048, -0.8140396, 0.48997283, 0.21777363, -18.76745, 32.53205, 9.008951, 0
1385, 3369095835, 0.1978647, -0.8254256, 0.497689, 0.17841488, -21.10022, 31.964523, -2.6180377, 0
1387, 3369129169, 0.121174425, -0.84628147, 0.5044488, 0.12107859, -16.704918, 24.799526, -20.112274, 0
1388, 3369145836, 0.07990922, -0.8518322, 0.5076802, 0.10129774, -11.058903, 18.307114, -25.541664, 0
1389, 3369162503, 0.04655289, -0.8526067, 0.51298654, 0.08799665, -6.876699, 14.468455, -26.278929, 0
1391, 3369195837, 8.8778697E-4, -0.84793234, 0.5239279, 0.080707975, -1.7900871, 6.750741, -23.108875, 0
1392, 3369212504, -0.009792607, -0.84378064, 0.53042525, 0.08119102, 0.4343923, 5.157439, -21.697376, 0
1393, 3369229171, -0.010934226, -0.8397613, 0.53629625, 0.08409406, 1.8588504, 3.760394, -20.559483, 0
1395, 3369262505, 0.00930354, -0.83406055, 0.5421244, 0.10179339, 2.1904626, 1.0886223, -17.730932, 0
1396, 3369279172, 0.026089365, -0.83210176, 0.54104394, 0.11917174, 0.8034578, 0.8149702, -15.141739, 0
1399, 3369329173, 0.086954094, -0.8224206, 0.52068126, 0.21203414, -1.8327556, -2.26129, 1.2275543, 0
1400, 3369345840, 0.10937417, -0.81365585, 0.5156953, 0.24507874, -0.6498914, -2.5084891, 6.231634, 0
1401, 3369362507, 0.13398798, -0.8021454, 0.5137471, 0.27327296, -0.26057652, -3.0088449, 9.916502, 0
1403, 3369395841, 0.17238215, -0.7804369, 0.5109256, 0.31648353, -2.457395, -6.484031, 8.892233, 0
1404, 3369412508, 0.18066001, -0.7717187, 0.50868845, 0.33623266, -1.2577115, -4.651585, 8.645205, 0
1406, 3369445842, 0.18683192, -0.75686884, 0.5050668, 0.37034467, 0.39214003, -2.6639328, 2.9061308, 0
1407, 3369462509, 0.18892509, -0.7505592, 0.5034822, 0.3840287, 0.74968696, 0.043867547, 1.1665802, 0
1408, 3369479176, 0.19444439, -0.74354994, 0.50282276, 0.39559865, 1.0126317, 2.0197136, -0.29856873, 0
1410, 3369512510, 0.21459545, -0.72840023, 0.50101805, 0.41517115, -0.60003996, 3.2978048, -3.978734, 0
1411, 3369529177, 0.22623521, -0.7208238, 0.49796653, 0.4257513, -2.1447775, 4.4966335, -5.0032215, 0
1412, 3369545844, 0.23781852, -0.71277124, 0.49232206, 0.4393435, -3.5080302, 6.359622, -4.793653, 0
1414, 3369579178, 0.26179886, -0.69309866, 0.4720467, 0.47775686, -3.2218077, 7.5305424, -3.4068289, 0
1415, 3369595845, 0.27525127, -0.6802815, 0.4598324, 0.5000121, -1.9606708, 8.082386, -2.2809405, 0
1416, 3369612512, 0.2911081, -0.66478634, 0.44805998, 0.52207446, -0.7560335, 8.019673, -1.6746874, 0
1418, 3369645846, 0.32684994, -0.6318139, 0.42117295, 0.56267023, -2.2075171, 7.913297, 0.7999649, 0
1419, 3369662513, 0.3448423, -0.61454535, 0.40253758, 0.584282, -1.9371611, 8.810427, 4.6084642, 0
1420, 3369679180, 0.36528572, -0.5931677, 0.38311496, 0.60658526, 0.9931546, 7.353928, 4.8047256, 0
1422, 3369712514, 0.40753025, -0.54773194, 0.3464163, 0.6433574, -0.6059689, 4.3493752, 4.459668, 0
1423, 3369729181, 0.42745706, -0.5250699, 0.32646224, 0.659552, -1.8870897, 4.6956415, 6.0074024, 0
1426, 3369779182, 0.471999, -0.45470086, 0.25707635, 0.710197, -2.9424074, -0.62810004, 10.787643, 0
1427, 3369795849, 0.47980055, -0.42951146, 0.23216604, 0.7289818, -0.6707727, -2.375839, 11.388346, 0
1428, 3369812516, 0.4858567, -0.4042051, 0.2074909, 0.746668, 1.5196636, -3.8609512, 9.878529, 0
1430, 3369845850, 0.49715298, -0.35835934, 0.15957165, 0.7739242, 3.5745971, -6.4907446, 7.5531864, 0
1431, 3369862517, 0.50400615, -0.33871716, 0.13804157, 0.7824303, 2.8488405, -8.06482, 4.995737, 0
1433, 3369895851, 0.5185527, -0.30516142, 0.10015963, 0.7924341, 3.3091319, -11.808477, 5.2157373, 0
1434, 3369912518, 0.5246633, -0.2867506, 0.08230654, 0.7973283, 2.252166, -12.159209, 0.8178911, 0
1435, 3369929185, 0.5270568, -0.2715733, 0.06588823, 0.8025722, 0.8788679, -11.747686, -3.709547, 0
1437, 3369962519, 0.5207721, -0.2531192, 0.03989126, 0.8143341, 3.972435, -8.63296, -4.432896, 0
1438, 3369979186, 0.5159659, -0.24727702, 0.033305235, 0.8194683, 4.371037, -6.0097017, -4.932773, 0
1441, 3370029187, 0.51897424, -0.23113726, 0.02406108, 0.82259744, 3.0332165, -2.8856049, -0.8523741, 0
1442, 3370045854, 0.52525926, -0.22316694, 0.023858376, 0.82081324, 1.0160192, -3.421566, -1.3951035, 0
1443, 3370062521, 0.53191227, -0.21601336, 0.023380522, 0.8184529, 0.19204606, -4.1998644, -1.9337263, 0
1445, 3370095855, 0.5428272, -0.20544295, 0.023403477, 0.81399524, -0.24205637, -3.8076613, -4.0935984, 0
1446, 3370112522, 0.5469056, -0.20086107, 0.024810087, 0.81236553, 0.75238335, -5.243984, -3.0832915, 0
1447, 3370129189, 0.5496351, -0.19507621, 0.02679459, 0.8118699, 0.8200763, -5.4516306, -3.6405663, 0
1449, 3370162523, 0.5511127, -0.18648979, 0.030472964, 0.81275547, 1.2925602, -5.372757, -4.521009, 0
1450, 3370179190, 0.5501298, -0.18460366, 0.032542977, 0.81377137, 1.874993, -4.64389, -4.561867, 0
1451, 3370195857, 0.54809195, -0.18479335, 0.03437151, 0.8150271, 1.8065037, -4.670663, -4.2421985, 0
1453, 3370229191, 0.54212326, -0.19212307, 0.03311365, 0.8173731, 3.359615, -5.4874, -3.3357677, 0
1455, 3370262525, 0.53397405, -0.19869827, 0.0333359, 0.82114774, 2.7163568, -5.377961, -4.7082086, 0
1457, 3370295859, 0.52263534, -0.21068384, 0.035312332, 0.8253616, 3.400404, -5.9887347, -4.919271, 0
1458, 3370312526, 0.51631093, -0.21904105, 0.036573645, 0.8271098, 4.0841765, -6.0661464, -5.0877986, 0
1459, 3370329193, 0.5103088, -0.22874461, 0.0388019, 0.8281059, 4.5319242, -6.5130706, -5.2250133, 0
1461, 3370362527, 0.50056595, -0.25000283, 0.046858273, 0.82749045, 4.874733, -7.6754465, -4.597474, 0
1462, 3370379194, 0.4949325, -0.26117742, 0.054784067, 0.82694054, 3.9148142, -7.4041934, -4.485993, 0
1464, 3370412528, 0.4805517, -0.28936616, 0.07431935, 0.8245107, 3.758209, -7.821194, -1.6151409, 0
1465, 3370429195, 0.47384742, -0.30571952, 0.080650374, 0.8218904, 4.838924, -8.590145, 1.3169346, 0
1466, 3370445862, 0.46856663, -0.31929, 0.08451568, 0.8193658, 5.6670904, -8.774681, 3.332263, 0
1468, 3370479196, 0.45901838, -0.338302, 0.09757461, 0.815682, 6.374481, -8.514415, -0.5557356, 0
1472, 3370545864, 0.4347673, -0.41256404, 0.15075299, 0.7861589, 12.169126, -11.355028, 0.47700787, 0
1474, 3370579198, 0.41971466, -0.485971, 0.18904522, 0.7429251, -15.459063, -37.378597, 42.817978, 0
1477, 3370629199, 0.3918645, -0.54282224, 0.21892574, 0.70983225, -1.9388477, 2.9852912, -1.021141, 0
1478, 3370645866, 0.37155133, -0.5794902, 0.241306, 0.68404406, 0.5206071, 2.120078, -0.6160698, 0
1480, 3370679200, 0.30981833, -0.6789127, 0.3165794, 0.58555233, -3.7495852, 7.4992604, 4.282815, 0
1481, 3370695867, 0.26620924, -0.7284503, 0.36351597, 0.51609397, -7.3704343, 11.084074, 15.690685, 0
1482, 3370712534, 0.22657795, -0.76163644, 0.40852812, 0.44908947, -8.537526, 20.68202, 27.015862, 0
1484, 3370745868, 0.2257717, -0.7839698, 0.45737332, 0.3538814, 17.017012, 22.295784, 40.42238, 0
1485, 3370762535, 0.22368254, -0.7972209, 0.4729444, 0.30121806, -13.22814, 8.661608, 13.592503, 0
1487, 3370795869, 0.16840282, -0.828156, 0.49389523, 0.20462061, -12.225936, 31.973085, 5.0415983, 0
1488, 3370812536, 0.13620831, -0.84004, 0.49944338, 0.16229773, -17.3312, 32.457504, -4.734999, 0
1489, 3370829203, 0.10309549, -0.8491407, 0.50159866, 0.12936036, -15.073578, 32.519463, -12.097326, 0
1491, 3370862537, 0.039223883, -0.8596946, 0.5012233, 0.09036545, -11.371034, 17.094376, -25.004988, 0
1492, 3370879204, 0.0102950055, -0.8613732, 0.50086135, 0.08409865, -7.0333133, 11.489141, -27.351336, 0
1493, 3370895871, -0.011437584, -0.86036825, 0.5021579, 0.08647067, -5.746715, 8.107659, -27.051704, 0
1496, 3370945872, -0.022711603, -0.847564, 0.51170397, 0.13886204, -1.2972292, 4.1616454, -20.51495, 0
1497, 3370962539, -0.010000045, -0.8409753, 0.51601565, 0.16245717, -1.2998953, 4.600527, -19.046547, 0
1499, 3370995873, 0.033016913, -0.82934356, 0.5118351, 0.2216489, -2.9044714, 5.7179112, -15.53854, 0
1500, 3371012540, 0.058369808, -0.822542, 0.50302017, 0.2588291, -5.1189017, 3.4007635, -12.095066, 0
1503, 3371062541, 0.11432803, -0.79104614, 0.45260125, 0.39538726, 1.4009794, 1.959683, -0.91923714, 0
1504, 3371079208, 0.14064083, -0.7776868, 0.43602648, 0.43047437, 0.27578494, 2.491677, 0.31176567, 0
1505, 3371095875, 0.17342833, -0.7629067, 0.4163856, 0.46316636, 0.24288349, 6.2161555, 5.0692987, 0
1507, 3371129209, 0.23974544, -0.73353434, 0.3691858, 0.51783705, -5.5604873, -7.402131, 7.1082973, 0
1508, 3371145876, 0.25454697, -0.72155684, 0.34097472, 0.5461703, -0.8812359, -6.5335035, 9.801661, 0
1509, 3371162543, 0.2663931, -0.706936, 0.3190219, 0.5722808, 2.0387707, -5.6722145, 10.305265, 0
1511, 3371195877, 0.30179626, -0.6761806, 0.2908203, 0.6059095, 10.908379, -3.8314135, 8.178841, 0
1512, 3371212544, 0.3299052, -0.6667152, 0.27766123, 0.60791564, 8.177105, -7.3325205, 9.921694, 0
1515, 3371262545, 0.3745629, -0.6610012, 0.23697841, 0.60549587, 4.3439436, -13.792831, 5.223872, 0
1516, 3371279212, 0.3782616, -0.66184413, 0.23438577, 0.6032809, 3.94789, -11.991312, 3.6158028, 0
1519, 3371329213, 0.39265803, -0.6750253, 0.23740901, 0.57775545, 3.7419868, -2.4945962, -0.3641796, 0
1520, 3371345880, 0.40164712, -0.6818381, 0.23865853, 0.56286985, 0.56644547, 0.019323366, -0.32044125, 0
1522, 3371379214, 0.42405102, -0.68309075, 0.24145642, 0.54338765, -1.3651729, 2.0896266, -2.5956583, 0
1523, 3371395881, 0.4342072, -0.6799399, 0.243109, 0.5385608, -2.4719622, 0.61564934, -3.1711664, 0
1524, 3371412548, 0.4415111, -0.6766369, 0.24340542, 0.5366454, -2.6687858, -0.5282218, -2.7855444, 0
1526, 3371445882, 0.43583575, -0.68823427, 0.2631619, 0.51684654, 4.4841886, -7.472004, 10.93803, 0
1527, 3371462549, 0.44423586, -0.681739, 0.2671705, 0.5162462, -2.124007, -1.5099541, 3.547061, 0
1528, 3371479216, 0.44809073, -0.6759596, 0.27277, 0.51758444, 0.87323093, -2.1761384, -3.2402086, 0
1530, 3371512550, 0.44653884, -0.6689732, 0.27809766, 0.5251128, 5.3881044, 5.5847244, -0.93896675, 0
1531, 3371529217, 0.4529653, -0.6661353, 0.27969572, 0.5223605, 6.1529593, 5.7257853, -1.2479801, 0
1534, 3371579218, 0.485624, -0.6574225, 0.2741426, 0.50676876, -3.1656408, 2.5128362, -1.2495718, 0
1535, 3371595885, 0.49305388, -0.6519826, 0.27107218, 0.508272, -3.437364, 0.64945513, -1.4977226, 0
1536, 3371612552, 0.49678308, -0.6451126, 0.26850668, 0.51472753, -2.3421996, 0.856748, 0.95622635, 0
1538, 3371645886, 0.49752074, -0.6283427, 0.26150852, 0.5378436, -0.28338873, 1.569945, -0.76598644, 0
1539, 3371662553, 0.49706522, -0.62406653, 0.25288436, 0.5472848, 3.06326, 2.7158654, -1.5844994, 0
1540, 3371679220, 0.4992337, -0.6200365, 0.24528001, 0.5533192, 2.960143, 2.5219834, -1.986969, 0
1542, 3371712554, 0.5121802, -0.60486126, 0.23039386, 0.56456774, 3.4146636, -0.13270344, -0.21306133, 0
1543, 3371729221, 0.5169269, -0.60124934, 0.22900148, 0.56466615, -0.47882822, -0.086189725, -0.44565392, 0
1545, 3371762555, 0.52906424, -0.5829219, 0.22132696, 0.57559645, -0.6237469, -0.018532353, 0.4519844, 0
1546, 3371779222, 0.5343338, -0.5723598, 0.217767, 0.58264303, -0.75992143, 0.55795586, -2.7737865, 0
1549, 3371829223, 0.535731, -0.5487667, 0.23253687, 0.59814537, -2.5781963, -6.734688, 2.4780521, 0
1550, 3371845890, 0.5360903, -0.5387006, 0.22797708, 0.60863703, 1.193943, 1.0576771, -0.85255146, 0
1551, 3371862557, 0.5358467, -0.52596045, 0.2298884, 0.61918426, 0.6365542, 2.1682987, -4.7428455, 0
1553, 3371895891, 0.5329499, -0.5081993, 0.22702682, 0.6373073, -2.1191988, 1.2467804, -0.21305275, 0
1554, 3371912558, 0.52925265, -0.5000957, 0.22117741, 0.6487528, 2.2601385, -0.022825813, 2.0519085, 0
1555, 3371929225, 0.5286771, -0.48464355, 0.22089025, 0.6609328, -0.78768456, 2.2757363, -0.16890717, 0
1557, 3371962559, 0.52811074, -0.4596085, 0.2192311, 0.6795592, -3.1777565, 1.1446275, 0.51647377, 0
1558, 3371979226, 0.5284448, -0.4514736, 0.21881208, 0.6848667, -1.3963081, -2.0837772, 2.6322765, 0
1559, 3371995893, 0.53073925, -0.44472873, 0.21584928, 0.68843645, -0.059019156, -0.94711626, 1.8941116, 0
1561, 3372029227, 0.53736013, -0.43909568, 0.20702212, 0.68962634, -2.5364997, -0.46473396, -0.39972305, 0
1562, 3372045894, 0.5389519, -0.43928084, 0.20481591, 0.6889247, -0.8655686, -0.18473011, -0.22649002, 0
1563, 3372062561, 0.53946483, -0.4407508, 0.20370233, 0.68791384, 1.2744802, -0.26591247, 0.25717926, 0
1565, 3372095895, 0.53992987, -0.43947345, 0.20158832, 0.6889881, 1.2613235, -1.6060935, 2.5609655, 0
1566, 3372112562, 0.5406928, -0.43675065, 0.20019306, 0.6905265, 0.38664675, -0.68690807, -0.9693146, 0
1568, 3372145896, 0.54112417, -0.4357208, 0.19765888, 0.69156826, -2.7311058, 0.30244946, -0.15693378, 0
1569, 3372162563, 0.5407547, -0.43506673, 0.19699143, 0.6924589, -1.9735999, 0.49566156, -2.888795, 0
1570, 3372179230, 0.5406653, -0.43502113, 0.19646484, 0.69270694, 1.2769811, -1.5688401, 2.1214504, 0
1572, 3372212564, 0.54099524, -0.43125618, 0.1941582, 0.6954485, 1.2946303, -1.4919689, 0.6528101, 0
1573, 3372229231, 0.540591, -0.42975685, 0.19398345, 0.69673854, 0.18985023, 0.06578232, -0.89694786, 0
1576, 3372279232, 0.53751826, -0.4316486, 0.19666304, 0.697195, 0.39706567, -2.3886445, -0.068704605, 0
1577, 3372295899, 0.53632987, -0.43301338, 0.1981188, 0.6968517, 0.06495208, -0.02707323, -0.6543522, 0
1578, 3372312566, 0.53529423, -0.4340748, 0.19941181, 0.6966188, 0.48393136, -1.0138297, 0.7830534, 0
1580, 3372345900, 0.53342766, -0.4348189, 0.20133351, 0.69703376, -0.5091229, 0.6097849, -0.5401697, 0
1581, 3372362567, 0.53290504, -0.4347934, 0.20190984, 0.69728255, 0.62402636, -0.20322938, 0.8782158, 0
1582, 3372379234, 0.5325267, -0.4344093, 0.202836, 0.697542, -0.49222347, 0.9865428, -0.95770264, 0
1584, 3372412568, 0.5320164, -0.43438464, 0.20521067, 0.6972522, 0.43947083, 0.4528379, 0.9707527, 0
1585, 3372429235, 0.532932, -0.43324935, 0.20471215, 0.69740593, -0.18470518, -0.11368852, -0.29972744, 0
1586, 3372445902, 0.53477585, -0.43076313, 0.20297034, 0.6980436, -0.5872956, 0.4356588, -0.79641914, 0
1588, 3372479236, 0.54108745, -0.42174822, 0.19581817, 0.7007223, 0.7492198, 1.1186341, 0.18557835, 0
1590, 3372512570, 0.54520035, -0.41485855, 0.19061054, 0.7030792, 0.3140662, 0.96246845, 0.5687275, 0
1592, 3372545904, 0.5464532, -0.41186938, 0.18860167, 0.70440453, -1.1873333, -0.4008488, -1.865952, 0
1593, 3372562571, 0.5471456, -0.41029483, 0.18713361, 0.70517695, -0.9421096, -1.3125968, 1.5389652, 0
1595, 3372595905, 0.5500272, -0.40476817, 0.18003315, 0.70797217, 0.9060075, -0.8535385, -1.2536688, 0
1596, 3372612572, 0.55148387, -0.40255207, 0.17579141, 0.7091674, -0.055976026, -0.7847555, 2.8369484, 0
1597, 3372629239, 0.55197936, -0.40065503, 0.17297372, 0.7105477, -0.7817024, -0.47871044, -1.3472271, 0
1599, 3372662573, 0.5517272, -0.40173241, 0.17178428, 0.7104239, -1.1143205, -0.8901507, -1.3325758, 0
1600, 3372679240, 0.551539, -0.40171692, 0.17109144, 0.7107457, 0.818512, -2.5588636, 1.9101171, 0
1601, 3372695907, 0.55152756, -0.4003559, 0.17002407, 0.7117781, 0.21808456, 1.4339659, -0.17679596, 0
1603, 3372729241, 0.55080456, -0.39920667, 0.1692465, 0.7131675, -1.7860665, -0.59322864, -0.54787636, 0
1605, 3372762575, 0.5495221, -0.39705247, 0.16890898, 0.7154357, 0.323776, -0.44160438, 0.15122509, 0
1607, 3372795909, 0.5465602, -0.39668298, 0.17180929, 0.71721673, 0.4368036, 0.42371094, 0.09892082, 0
1608, 3372812576, 0.54429585, -0.39792433, 0.1748098, 0.71752584, -0.13463113, 1.1307818, -1.6213131, 0
1609, 3372829243, 0.5420971, -0.39915964, 0.17762879, 0.71781194, -0.34656003, -0.87336904, 0.4380083, 0
1611, 3372862577, 0.5393059, -0.39661473, 0.18069726, 0.7205539, -0.15421253, 0.052442845, -1.0090694, 0
1612, 3372879244, 0.5385682, -0.39480585, 0.18129012, 0.7219489, 0.4922455, -0.007284511, 1.088398, 0
1613, 3372895911, 0.53839535, -0.39313483, 0.1813638, 0.7229705, -0.8100247, 0.7360666, -1.2904615, 0
1615, 3372929245, 0.53775775, -0.3904906, 0.18215583, 0.7246769, -0.88219774, 1.4820662, -0.59230995, 0
1616, 3372945912, 0.5374238, -0.39011988, 0.18272632, 0.72498053, 1.0007348, 0.04980338, -1.5273533, 0
1617, 3372962579, 0.53746545, -0.3891829, 0.18276103, 0.72544444, 1.5871394, -0.97367543, 0.42690277, 0
1620, 3373012580, 0.54041797, -0.37790015, 0.17817178, 0.7303414, -1.2066275, 1.9175409, -1.47124, 0
1621, 3373029247, 0.5411805, -0.37556088, 0.17722921, 0.73121214, 0.2055671, -1.7640392, 1.4149933, 0
1623, 3373062581, 0.54340047, -0.37193164, 0.17489542, 0.7319823, 0.16210847, 0.31435665, -0.68642807, 0
1624, 3373079248, 0.5434375, -0.374075, 0.17570801, 0.73066676, -0.38982877, 0.31720513, 0.10072613, 0
1626, 3373112582, 0.5438375, -0.37757924, 0.1761405, 0.7284593, 0.058489263, 0.24072379, -0.7373171, 0
1627, 3373129249, 0.544167, -0.37989998, 0.17569388, 0.72711325, -0.64543116, 1.7006667, -1.0415678, 0
1628, 3373145916, 0.54427886, -0.38263685, 0.17456964, 0.7258643, 0.6365891, -1.1185755, 1.3617382, 0
1630, 3373179250, 0.5448853, -0.3860122, 0.16996059, 0.72471493, -0.6118023, 0.8169574, -0.6316891, 0
1631, 3373195917, 0.54494905, -0.38805175, 0.16771367, 0.72410095, -2.3633058, 1.12859, 0.6565294, 0
1632, 3373212584, 0.5444643, -0.39097184, 0.1663524, 0.72320825, -3.4454029, 2.1100905, -1.515809, 0
1634, 3373245918, 0.54392546, -0.3955174, 0.16274732, 0.7219614, -3.0410202, 5.1682816, -2.6931057, 0
1635, 3373262585, 0.54396826, -0.39546207, 0.15967894, 0.72264427, -2.7981255, 2.6276436, 1.2904158, 0
1636, 3373279252, 0.543335, -0.39494357, 0.15721552, 0.7239431, -2.502362, 1.8456688, 2.5234652, 0
1638, 3373312586, 0.5396024, -0.40114132, 0.15509395, 0.72378474, -2.5878801, -0.3050952, 0.2747326, 0
1639, 3373329253, 0.53648764, -0.40782663, 0.15564765, 0.72224367, -2.0554488, 0.029312607, -3.886662, 0
1640, 3373345920, 0.53486943, -0.41184366, 0.15483066, 0.7213392, -0.62451845, -0.7949274, -2.2423387, 0
1642, 3373379254, 0.53511614, -0.4076439, 0.14694217, 0.725182, 1.3911386, -2.351839, -2.1990867, 0
1643, 3373395921, 0.5374434, -0.39939812, 0.13888597, 0.7296234, -1.8386176, 1.1794555, -0.114543915, 0
1644, 3373412588, 0.53955656, -0.39178783, 0.13065094, 0.73369956, -0.5651912, 0.07520361, 3.0881882, 0
1647, 3373462589, 0.54033995, -0.38559654, 0.12240064, 0.7378142, 1.2584313, -1.7450837, 1.1233644, 0
1649, 3373495923, 0.53998864, -0.38333026, 0.12014696, 0.7396204, -0.2763994, -2.1078594, 0.9611025, 0
1650, 3373512590, 0.5397036, -0.3828561, 0.119930424, 0.74010915, 2.2041357, -4.610943, -0.62509346, 0
1651, 3373529257, 0.53926677, -0.3816357, 0.1195269, 0.7411225, 1.570127, -3.8359375, 0.18381977, 0
1653, 3373562591, 0.5379577, -0.37998974, 0.1183955, 0.74309856, 0.6327718, -2.963958, -0.17056847, 0
1654, 3373579258, 0.53683174, -0.3798649, 0.11852143, 0.7439562, -0.16165502, -5.0930057, -2.0180068, 0
1655, 3373595925, 0.5356236, -0.37817764, 0.11835768, 0.7457105, 0.4972562, -3.4017522, 1.4638672, 0
1657, 3373629259, 0.533254, -0.37473774, 0.11931829, 0.7489851, 1.1226544, -2.9492214, -0.33276176, 0
1658, 3373645926, 0.53198296, -0.3728841, 0.120041944, 0.7506963, -1.2719481, -0.44934574, -1.6418304, 0
1659, 3373662593, 0.53077316, -0.37111533, 0.12067574, 0.75232583, 0.69557476, -2.0222888, -1.195818, 0
1662, 3373712594, 0.5287844, -0.36541635, 0.121601686, 0.7563561, 0.1169776, -0.8251643, -0.591938, 0
1663, 3373729261, 0.5279626, -0.3632278, 0.122225456, 0.7578823, 0.33711258, -0.6108477, 0.7453556, 0
1665, 3373762595, 0.52644825, -0.35986075, 0.12389915, 0.7602664, 0.0644532, -0.21071605, 0.57014656, 0
1666, 3373779262, 0.5257703, -0.35844138, 0.12489515, 0.76124245, -0.379794, 0.3622423, -2.1922112, 0
1667, 3373795929, 0.5249532, -0.35799384, 0.12602112, 0.76183134, 1.5248219, -3.4407513, -0.20079136, 0
1669, 3373829263, 0.5238569, -0.35652918, 0.1272768, 0.763063, 0.99794644, -0.61713624, 1.3277397, 0
1670, 3373845930, 0.5233962, -0.3554022, 0.12832016, 0.76372975, -0.9290025, 0.9319949, 1.0539961, 0
1671, 3373862597, 0.52266705, -0.35419634, 0.12996681, 0.76451045, -0.3224299, 0.7614761, 0.64347744, 0
1673, 3373895931, 0.52186114, -0.3533128, 0.13247348, 0.76503944, -0.15215689, 1.2353648, -1.1397486, 0
1674, 3373912598, 0.5219378, -0.35293856, 0.13331495, 0.76501375, -0.2614332, -0.352682, -0.6703901, 0
1677, 3373962599, 0.5228056, -0.35378003, 0.13462132, 0.7638028, -0.017718598, -0.6345733, -1.2466698, 0
1678, 3373979266, 0.52317387, -0.35399127, 0.13477948, 0.76342475, -0.30854142, 0.42214254, 1.183341, 0
1680, 3374012600, 0.5230986, -0.355221, 0.136882, 0.7625306, 1.4594048, -0.80950904, 0.053512573, 0
1681, 3374029267, 0.5229543, -0.35496837, 0.13806242, 0.7625344, 0.6268106, 0.71701056, 1.2913523, 0
1682, 3374045934, 0.5228803, -0.3549004, 0.13936947, 0.76237905, 0.877621, 0.056873653, 0.025366783, 0
1684, 3374079268, 0.5223066, -0.35530382, 0.1425041, 0.76200485, -1.4901354, 0.25612295, -1.777586, 0
1685, 3374095935, 0.5216555, -0.35613716, 0.1443924, 0.76170635, 0.02428485, -0.01033144, -0.111662865, 0
1686, 3374112602, 0.5219386, -0.3563776, 0.14541231, 0.7612055, 0.19264235, 2.174312, -0.22973156, 0
1688, 3374145936, 0.52240586, -0.3572005, 0.14715202, 0.7601642, -0.12727381, 1.1004883, 0.5333395, 0
1689, 3374162603, 0.5225942, -0.3569126, 0.14781028, 0.7600424, 0.8093878, 0.6446089, -0.09916878, 0
1692, 3374212604, 0.52402717, -0.35899755, 0.14925395, 0.7577883, -0.894057, 1.0828317, -1.059062, 0
1693, 3374229271, 0.5245388, -0.3607345, 0.14943667, 0.75657266, 0.037976358, 0.94180226, 0.4102087, 0
1694, 3374245938, 0.52514803, -0.36269686, 0.1497007, 0.75515825, 0.18085165, 0.5513497, -0.7825861, 0
1696, 3374279272, 0.5259253, -0.3645338, 0.1500213, 0.7536676, -0.49216473, 2.2596133, 0.001127243, 0
1697, 3374295939, 0.5260493, -0.3657233, 0.15018359, 0.75297225, -0.49534371, 1.4170024, -1.4428558, 0
1698, 3374312606, 0.5265392, -0.36631447, 0.15012647, 0.75235367, -0.90798146, 1.2451423, 0.1640997, 0
1700, 3374345940, 0.5270001, -0.36625227, 0.14992766, 0.75210065, 0.089163676, -0.1973624, 0.8081379, 0
1701, 3374362607, 0.52727973, -0.36540085, 0.1494238, 0.7524191, 0.14764981, 0.4087161, 1.1778584, 0
1702, 3374379274, 0.5273443, -0.36504278, 0.14944002, 0.7525446, -0.09642287, -0.32144213, -0.015094757, 0
1704, 3374412608, 0.52630895, -0.36570585, 0.1500882, 0.75281817, -0.15072171, -0.3270693, 0.15836525, 0
1705, 3374429275, 0.5259101, -0.3656767, 0.15057985, 0.75301296, -0.081474945, -0.066127874, 0.49985886, 0
1707, 3374462609, 0.52405304, -0.3670058, 0.15341742, 0.7530883, 0.6912707, -1.7593281, 0.36736965, 0
1708, 3374479276, 0.52311176, -0.3666641, 0.15534475, 0.75351393, 0.9199889, 0.45409405, 1.6243639, 0
1709, 3374495943, 0.5215899, -0.3683367, 0.15846194, 0.75310415, 0.81659216, 0.4394618, -2.4748425, 0
1711, 3374529277, 0.5184994, -0.37221965, 0.16484952, 0.751957, -0.77419597, 0.5646505, -0.31074524, 0
1712, 3374545944, 0.5165466, -0.37504303, 0.16872577, 0.7510377, 0.19251071, 0.46204442, -2.1436954, 0
1713, 3374562611, 0.5151755, -0.37785614, 0.17213134, 0.7497957, 0.7906688, 0.40828574, 0.60367584, 0
1715, 3374595945, 0.5133942, -0.38079748, 0.17719117, 0.7483492, 0.68729585, 0.3236993, 1.6049623, 0
1716, 3374612612, 0.5125808, -0.38241467, 0.17961645, 0.7475036, -0.27930683, 1.6173344, -2.5013828, 0
1719, 3374662613, 0.5118379, -0.3883958, 0.18597104, 0.7433634, 0.89942044, 1.0795588, -0.83828545, 0
1720, 3374679280, 0.5118642, -0.39119306, 0.18822524, 0.7413083, 0.87431765, 1.8801595, 0.42801285, 0
1721, 3374695947, 0.5113508, -0.3947296, 0.19099887, 0.73907506, 0.21985991, 0.7375013, -0.54571915, 0
1723, 3374729281, 0.5114618, -0.40218788, 0.19553144, 0.73377305, -0.35054284, 1.480218, -0.3631506, 0
1724, 3374745948, 0.51181096, -0.40647623, 0.19750227, 0.73063207, 0.6434902, 0.1331697, 0.49326038, 0
1725, 3374762615, 0.51236475, -0.40955675, 0.19861102, 0.7282191, 0.4347583, 2.2657866, 0.37333488, 0
1727, 3374795949, 0.51138264, -0.41923591, 0.20408078, 0.7218613, -0.081074744, 3.2787344, 0.552886, 0
1728, 3374812616, 0.51025444, -0.4253261, 0.20768228, 0.7180598, -0.88111883, 1.8487997, -0.90590286, 0
1730, 3374845950, 0.50914353, -0.4369958, 0.21121456, 0.71077394, -1.6977903, 2.2861679, 1.1308708, 0
1731, 3374862617, 0.50947225, -0.441229, 0.21151708, 0.7078271, 0.7118128, 1.7180439, -1.2249155, 0
1734, 3374912618, 0.5051017, -0.4562065, 0.22041944, 0.69868934, -1.1926135, 3.691914, -0.55249786, 0
1735, 3374929285, 0.50192404, -0.46285096, 0.22490191, 0.695172, -2.5978374, 2.2553146, -0.91693306, 0
1736, 3374945952, 0.5002421, -0.46701124, 0.2273574, 0.6927991, -2.9384944, 0.99188256, 2.4501534, 0
1738, 3374979286, 0.49690983, -0.47424158, 0.23040429, 0.6892699, -1.5487891, 2.8372512, -0.048460007, 0
1739, 3374995953, 0.49421495, -0.478839, 0.23233232, 0.6873792, -2.5328739, 3.5866194, 2.1637278, 0
1740, 3375012620, 0.48974654, -0.4852222, 0.23613106, 0.6848019, -3.2641685, 2.2561994, -1.2390823, 0
1742, 3375045954, 0.4798242, -0.50003123, 0.24374576, 0.67847556, -1.0973997, -2.3286674, 0.6921663, 0
1743, 3375062621, 0.48179603, -0.49772528, 0.23921469, 0.68038386, -0.31538242, -1.5714419, -2.6039271, 0
1744, 3375079288, 0.48604283, -0.4900042, 0.23156045, 0.6855958, 1.8657175, -3.1884685, -2.8779325, 0
1746, 3375112622, 0.4969074, -0.46289214, 0.21292639, 0.70248115, 1.8757343, -1.7863945, 0.16127968, 0
1748, 3375145956, 0.50473213, -0.44154507, 0.19613479, 0.7154147, -2.0942461, -2.2799363, 0.8676586, 0
1750, 3375179290, 0.51220393, -0.42442998, 0.1820544, 0.7241312, 1.7019681, -0.56311876, 2.1379414, 0
1751, 3375195957, 0.51509416, -0.41699567, 0.17749241, 0.727525, 3.6335843, -1.1799021, 1.9452305, 0
1752, 3375212624, 0.51717836, -0.41102374, 0.17483252, 0.7300845, 3.4349213, -3.4651957, 3.2229567, 0
1754, 3375245958, 0.51950747, -0.40105632, 0.17330284, 0.73432654, 2.7391465, -4.6181417, 0.9174566, 0
1755, 3375262625, 0.5196928, -0.40017194, 0.17522825, 0.7342209, 1.6547797, -3.8936718, -1.3777208, 0
1757, 3375295959, 0.5194416, -0.3997397, 0.1794501, 0.7336143, 1.993288, -1.9854527, 0.08060646, 0
1758, 3375312626, 0.5193881, -0.39991572, 0.1818036, 0.7329765, 2.1892188, -1.8941377, -2.2461, 0
1759, 3375329293, 0.5195151, -0.40138415, 0.18456736, 0.7313913, 2.4911392, -2.5958092, -0.35069847, 0
1761, 3375362627, 0.5188683, -0.40545177, 0.19136465, 0.72785157, 2.2855108, -2.6690183, 0.9338312, 0
1763, 3375395961, 0.51949817, -0.40908885, 0.19686347, 0.7238898, 0.87834, -0.6840863, -2.9822316, 0
1765, 3375429295, 0.521264, -0.41256258, 0.19946034, 0.7199271, -0.56625116, 1.7399538, -0.23342991, 0
1766, 3375445962, 0.5225608, -0.414183, 0.20007113, 0.7178842, 0.729055, -0.29483303, -0.5942936, 0
1767, 3375462629, 0.5236895, -0.4163965, 0.200717, 0.7155974, -1.0068375, 1.8862616, -2.1319752, 0
1769, 3375495963, 0.5265415, -0.41781294, 0.19951546, 0.7130102, 0.55075425, 2.0862985, 0.149189, 0
1770, 3375512630, 0.52751595, -0.41900975, 0.19952197, 0.7115844, 0.67693734, 0.7677109, -1.318573, 0
1771, 3375529297, 0.5288745, -0.41905612, 0.1987809, 0.7107556, -0.84269994, 2.4881248, -0.86513424, 0
1773, 3375562631, 0.53200036, -0.4175697, 0.19636324, 0.7099692, 0.17047864, 0.7872048, -0.5224819, 0
1774, 3375579298, 0.534432, -0.41557112, 0.19361448, 0.7100706, 0.49552745, 0.56186265, 2.2084608, 0
1775, 3375595965, 0.5365298, -0.41340676, 0.19092736, 0.71047944, -0.14600743, 0.36093497, -0.5316076, 0
1777, 3375629299, 0.5394565, -0.41106966, 0.18730861, 0.7105826, -0.1337097, 0.7992772, -0.8611269, 0
1778, 3375645966, 0.5408112, -0.41104925, 0.18570144, 0.7099862, -0.5063007, 0.5017866, 0.20945549, 0
1779, 3375662633, 0.54215884, -0.41015133, 0.18356884, 0.71003234, -1.2695297, 0.6316519, -0.74131393, 0
1781, 3375695967, 0.5446832, -0.4104066, 0.1798184, 0.7089116, 0.04247886, 0.28651187, 1.6959753, 0
1782, 3375712634, 0.54588175, -0.40969104, 0.17735238, 0.7090248, -0.28920332, -0.55979824, -0.026525497, 0
1784, 3375745968, 0.5459457, -0.40843397, 0.17514634, 0.710248, 0.016989555, 0.24733967, 0.6262512, 0
1785, 3375762635, 0.5453158, -0.40857, 0.17517607, 0.7106464, 0.40741608, -0.52566606, 0.4234066, 0
1786, 3375779302, 0.5446706, -0.40821648, 0.17515859, 0.7113483, -0.88613206, 0.53829014, 0.35896778, 0
1788, 3375812636, 0.5420098, -0.40907365, 0.17609051, 0.712657, -1.755057, 0.70027715, -0.9471884, 0
1790, 3375845970, 0.53911394, -0.41131714, 0.17747615, 0.7132182, 0.080484726, -2.098039, 2.1587229, 0
1792, 3375879304, 0.5354857, -0.4134493, 0.17996863, 0.7140937, 0.8656542, -0.4241182, -1.5373163, 0
1793, 3375895971, 0.5338204, -0.41416198, 0.18096599, 0.71467525, -0.498644, -0.8916198, 3.3384914, 0
1794, 3375912638, 0.53268385, -0.413903, 0.181306, 0.7155864, -0.98119843, 0.5693759, -2.2094646, 0
1796, 3375945972, 0.5309677, -0.41497582, 0.18155709, 0.71617675, -0.5937041, -0.78105974, 0.60001755, 0
1797, 3375962639, 0.530632, -0.4150209, 0.18095452, 0.71655184, 0.36018348, -0.6889722, -0.19588757, 0
1798, 3375979306, 0.530549, -0.41595674, 0.18052359, 0.7161792, 0.24086377, -0.64819497, 0.14061737, 0
1800, 3376012640, 0.5310364, -0.41724828, 0.17864116, 0.71553844, -0.8264807, 0.094617054, 0.75332165, 0
1801, 3376029307, 0.53146887, -0.41692504, 0.17738198, 0.7157189, -0.0770405, 0.9100252, -0.9244509, 0
1802, 3376045974, 0.5320147, -0.41687974, 0.17620483, 0.7156304, 0.17842469, 0.931578, 0.333004, 0
1805, 3376095975, 0.5306771, -0.41821873, 0.17646413, 0.71577865, 0.8059453, -1.8419328, 1.0523424, 0
1806, 3376112642, 0.5304799, -0.4186141, 0.17633727, 0.7157247, 0.09541567, -1.182829, 1.6655016, 0
1808, 3376145976, 0.52795494, -0.42205933, 0.17906256, 0.71489143, -0.543763, 1.1783777, -1.1921244, 0
1809, 3376162643, 0.5269523, -0.42328724, 0.18005423, 0.71465605, 0.29766706, 0.37901673, 0.67661, 0
1811, 3376195977, 0.5248541, -0.4246106, 0.18217191, 0.71487844, 0.14511137, -0.5732727, 0.3042736, 0
1812, 3376212644, 0.52438986, -0.42379454, 0.18211593, 0.7157169, 0.053162053, -0.9348369, 0.9456644, 0
1813, 3376229311, 0.52414685, -0.4234019, 0.18182437, 0.7162014, -0.0046399054, -0.13331407, -0.5470972, 0
1815, 3376262645, 0.5239602, -0.42374042, 0.18152633, 0.7162134, -1.1958321, 0.90044004, -1.214098, 0
1816, 3376279312, 0.5242241, -0.424235, 0.18096964, 0.71586835, 0.6696982, -0.37028787, 0.56801796, 0
1817, 3376295979, 0.52461195, -0.4246376, 0.17997164, 0.715597, 0.6123868, -1.3139741, 0.55873585, 0
1820, 3376345980, 0.52624416, -0.42301446, 0.17584334, 0.7163857, -0.22402424, 0.4257695, -2.8558612, 0
1821, 3376362647, 0.5261081, -0.42383933, 0.17566665, 0.7160414, -1.2271292, 1.0437948, 0.38263798, 0
1823, 3376395981, 0.5252094, -0.4245101, 0.17578618, 0.71627444, -0.21741731, -0.22716404, -0.4960804, 0
1824, 3376412648, 0.5239149, -0.4255582, 0.17662969, 0.716393, -0.16293262, -1.2186946, 0.14413548, 0
1825, 3376429315, 0.52246475, -0.42573798, 0.17710853, 0.7172266, 0.28537157, -1.6420559, 2.2438936, 0
1827, 3376462649, 0.52006775, -0.42482942, 0.17788787, 0.7193115, -0.60608757, -0.17489867, 0.07656288, 0
1828, 3376479316, 0.5186809, -0.42407626, 0.17814484, 0.7206925, -0.85129017, -0.090790294, 0.31458664, 0
1829, 3376495983, 0.5168243, -0.42395803, 0.17898135, 0.7218874, -0.4523609, -0.11077894, -1.3777504, 0
1831, 3376529317, 0.51402193, -0.42375246, 0.18058816, 0.72360677, -0.42407045, 0.62249196, 0.011962891, 0
1832, 3376545984, 0.51197535, -0.42439893, 0.1823501, 0.72423685, -0.31257862, 0.6713091, -0.8321934, 0
1835, 3376595985, 0.5062697, -0.4283535, 0.18697433, 0.72474027, -0.5094967, 1.3106748, -0.47037506, 0
1836, 3376612652, 0.50456244, -0.43031687, 0.18879151, 0.7242967, -0.5713913, 0.77190906, 0.07894611, 0
1837, 3376629319, 0.5030039, -0.4328472, 0.19110829, 0.7232646, -0.33561835, 1.6308239, -0.04812336, 0
1839, 3376662653, 0.4986617, -0.44177812, 0.19818555, 0.718954, -0.17767218, 1.1362362, -1.1133595, 0
1840, 3376679320, 0.49659562, -0.4461802, 0.2017836, 0.7166611, -0.20909603, 1.31216, 0.42128277, 0
1842, 3376712654, 0.49844047, -0.4447323, 0.20160182, 0.71633136, -0.80141294, 3.4364777, 0.33335686, 0
1843, 3376729321, 0.50033903, -0.44100994, 0.19960395, 0.71786696, -0.4794182, 3.801342, -1.4123211, 0
1844, 3376745988, 0.50196487, -0.43804145, 0.19734886, 0.71917176, -1.0191414, 3.7496216, 0.0433836, 0
1846, 3376779322, 0.50177664, -0.43972668, 0.1977397, 0.7181667, -2.3955126, 1.5000057, 1.5797997, 0
1847, 3376795989, 0.5017083, -0.44191706, 0.19829053, 0.7167167, -2.9613478, 3.76455, 0.24051762, 0
1848, 3376812656, 0.50084025, -0.44657382, 0.19992241, 0.71397865, -1.1530803, 0.49560243, -1.8205404, 0
1850, 3376845990, 0.49957737, -0.45482215, 0.20080495, 0.70939445, -1.5365648, 3.6580071, -3.4954104, 0
1851, 3376862657, 0.49767646, -0.4619779, 0.20299031, 0.7054738, -1.6693199, 1.7372922, -2.8711934, 0
1852, 3376879324, 0.4964461, -0.4683731, 0.20407154, 0.70180225, -1.6465974, -1.882718, -0.41400337, 0
1854, 3376912658, 0.50214064, -0.46300113, 0.19519863, 0.7038366, 2.6234586, -1.9895545, -3.6202664, 0
1855, 3376929325, 0.5066792, -0.45447677, 0.18847011, 0.7079616, 3.7043006, -4.0454726, -0.18001652, 0
1856, 3376945992, 0.5116656, -0.44351614, 0.18059081, 0.71336, 4.3626876, -5.0847054, 2.4120512, 0
1858, 3376979326, 0.5186645, -0.42781228, 0.16787028, 0.7209627, -2.2458475, -2.2446826, 0.22200012, 0
1859, 3376995993, 0.5200526, -0.42876446, 0.16520639, 0.7200117, -3.3225865, -3.4681764, 1.9305077, 0
1862, 3377045994, 0.52052706, -0.44086063, 0.16315566, 0.71279556, 3.204345, -1.187175, -1.446311, 0
1863, 3377062661, 0.52044994, -0.44162408, 0.1627743, 0.71246636, 3.6456509, -3.0611596, 0.99831486, 0
1865, 3377095995, 0.519908, -0.43736753, 0.16133997, 0.71580625, 0.31023988, -2.9875076, 0.068068504, 0
1866, 3377112662, 0.51958114, -0.4348944, 0.16056575, 0.7177219, -0.77228266, -2.629919, -1.2191563, 0
1867, 3377129329, 0.5192602, -0.4335292, 0.15972942, 0.71896553, 0.53523296, -4.1956735, 1.1291962, 0
1869, 3377162663, 0.51860064, -0.43272725, 0.15787846, 0.72033215, 0.0024776412, -0.5783629, -1.4949951, 0
1870, 3377179330, 0.51825863, -0.43378648, 0.15714729, 0.7201013, 0.10463284, -1.8228313, 0.66751194, 0
