sep=,
DeviceTag:,Xsens_DOT_3,,,,,,,,,,,,,,,,,
FirmwareVersion:,3.0.0,,,,,,,,,,,,,,,,,
AppVersion:,2023.6.1,,,,,,,,,,,,,,,,,
SyncStatus:,Synced,,,,,,,,,,,,,,,,,
OutputRate:,60Hz,,,,,,,,,,,,,,,,,
FilterProfile:,General,,,,,,,,,,,,,,,,,
Measurement Mode:,Sensor fusion Mode - Extended (Quaternion),,,,,,,,,,,,,,,,,
StartTime:,2025-05-05 12:02:33.031 +0200,,,,,,,,,,,,,,,,,
 2025,,,,,,,,,,,,,,,,,,,

PacketCounter,SampleTimeFine,Quat_W,Quat_X,Quat_Y,Quat_Z,FreeAcc_X,FreeAcc_Y,FreeAcc_Z,Status
1, 3346028707, -0.5808536, 0.45614955, 0.2436719, 0.62862855, 0.052022222, -0.058277205, -0.12578487, 0
2, 3346045374, -0.5810849, 0.45594057, 0.2436856, 0.62856114, 0.010786512, -0.18307723, -0.01140213, 0
3, 3346062041, -0.58121204, 0.455813, 0.2436578, 0.62854683, 0.071798086, -0.2080644, 0.07157135, 0
4, 3346078708, -0.5812504, 0.45575866, 0.24361342, 0.628568, 0.019088788, -0.1879174, 0.1100111, 0
5, 3346095375, -0.58125097, 0.4556951, 0.24356812, 0.6286312, -0.0033177426, -0.07296334, 0.06628513, 0
6, 3346112042, -0.58133423, 0.45558694, 0.24369624, 0.6285827, -0.09453952, 0.026577702, -0.024085045, 0
7, 3346128709, -0.5816469, 0.45532084, 0.24397692, 0.62837744, -0.1335489, 0.11564717, -0.03282547, 0
8, 3346145376, -0.5821314, 0.45505255, 0.24447891, 0.62792784, -0.16676444, 0.0901211, -0.0015192032, 0
9, 3346162043, -0.58280146, 0.45469436, 0.24505758, 0.6273399, -0.12832753, 0.0022328945, -0.018425941, 0
10, 3346178710, -0.58350325, 0.45444068, 0.24573797, 0.6266048, -0.10013989, 0.028006397, 0.057782173, 0
11, 3346195377, -0.5841509, 0.4543116, 0.2464475, 0.62581563, -0.123094454, -0.02086337, -0.010516167, 0
12, 3346212044, -0.58477193, 0.45418704, 0.24714425, 0.6250512, -0.05604198, -0.08256051, -0.032055855, 0
13, 3346228711, -0.5854031, 0.45402014, 0.24776061, 0.62433696, 0.0031781865, -0.05278169, 0.05533123, 0
14, 3346245378, -0.58600485, 0.45385468, 0.24822871, 0.6237066, 0.0013223026, -0.053624783, 0.01984787, 0
15, 3346262045, -0.5865141, 0.4537389, 0.24864085, 0.6231478, 0.016290965, -7.7693106E-4, -0.04901409, 0
16, 3346278712, -0.5869497, 0.4536313, 0.24899071, 0.6226762, -0.014430779, -0.11572741, -0.05438137, 0
17, 3346295379, -0.58740556, 0.45343953, 0.2492087, 0.6222987, -0.028169785, -0.07851273, 0.07891464, 0
18, 3346312046, -0.58778125, 0.45337087, 0.24931277, 0.62195206, -0.03697396, -0.05242094, 0.17616463, 0
19, 3346328713, -0.5879745, 0.4534573, 0.24929735, 0.6217126, 0.05855771, -0.104896866, 0.11880016, 0
20, 3346345380, -0.588098, 0.45355746, 0.2492019, 0.6215611, 0.08924129, -0.100283556, 0.026433945, 0
21, 3346362047, -0.58823943, 0.45363244, 0.24896637, 0.62146676, 0.09212282, -0.0660939, 0.011443138, 0
22, 3346378714, -0.58829904, 0.45382455, 0.24865234, 0.6213957, 0.08720017, -0.08546711, -0.00886631, 0
23, 3346395381, -0.5882553, 0.45412102, 0.24836364, 0.62133604, 0.069419324, -0.13651031, -0.032401085, 0
24, 3346412048, -0.5881615, 0.4543766, 0.24799341, 0.62138593, 0.021212945, -0.1306916, -0.03895855, 0
25, 3346428715, -0.5880163, 0.45462108, 0.24756375, 0.62151587, -0.040483393, -0.022686789, -0.0021295547, 0
26, 3346445382, -0.58781344, 0.4548446, 0.24714419, 0.6217114, -0.047294952, 0.0631328, -0.04596424, 0
27, 3346462049, -0.587559, 0.455035, 0.24679857, 0.62194943, -0.046239298, 0.0060983277, -0.086709976, 0
28, 3346478716, -0.5872888, 0.4552309, 0.24648078, 0.6221873, -0.030495282, -0.031223109, -0.08649731, 0
29, 3346495383, -0.5870216, 0.45545173, 0.24616852, 0.62240136, -0.064324684, -0.10662797, -0.014903069, 0
31, 3346528717, -0.58670324, 0.45576763, 0.24566527, 0.6226693, -0.13921343, -0.14226644, 0.25647926, 0
32, 3346545384, -0.5865402, 0.4560188, 0.2454907, 0.62270796, -0.19104166, -0.08500734, 0.24077988, 0
33, 3346562051, -0.5863861, 0.45635042, 0.24528895, 0.62268937, -0.1552254, -0.008968234, 0.09774876, 0
35, 3346595385, -0.58625257, 0.45683956, 0.24469109, 0.6226915, -0.10112187, 0.018795429, -0.11472988, 0
36, 3346612052, -0.5862071, 0.4569664, 0.24438739, 0.62276083, -0.15355805, -0.08475209, -0.11407471, 0
38, 3346645386, -0.5859358, 0.45738092, 0.24383521, 0.6229281, -0.1790187, -0.17238101, 0.012239456, 0
39, 3346662053, -0.5855947, 0.4576745, 0.2435633, 0.6231396, -0.162959, -0.092432216, 0.05229664, 0
40, 3346678720, -0.58500075, 0.45804226, 0.24336389, 0.62350494, -0.13556041, -0.023600062, 0.032815933, 0
43, 3346728721, -0.5823684, 0.45904627, 0.24237767, 0.62561166, -0.2247487, 0.06820341, -0.124004364, 0
44, 3346745388, -0.58148944, 0.45937228, 0.24223325, 0.62624544, -0.27570665, 0.16285445, -0.08234501, 0
46, 3346778722, -0.57961607, 0.46034974, 0.24264944, 0.6271027, -0.27027836, 0.26644924, -0.13108253, 0
47, 3346795389, -0.5786647, 0.4607669, 0.24309862, 0.62750095, -0.26296273, 0.1992685, -0.18150425, 0
48, 3346812056, -0.57774943, 0.46096066, 0.24358147, 0.6280145, -0.17188613, 0.1331136, -0.032099724, 0
50, 3346845390, -0.57580495, 0.46092087, 0.24437699, 0.6295186, -0.40615952, 0.14041777, 0.20357323, 0
51, 3346862057, -0.575148, 0.46062687, 0.244821, 0.6301616, -0.50842303, 0.23313698, 0.28988457, 0
52, 3346878724, -0.57489884, 0.46028087, 0.24527118, 0.6304667, -0.528616, 0.1442651, 0.35630512, 0
54, 3346912058, -0.57662606, 0.45919266, 0.24627122, 0.62929183, -0.4091171, 0.2437221, 0.27820873, 0
55, 3346928725, -0.578064, 0.4588033, 0.24701306, 0.6279645, -0.33937097, 0.1679673, 0.18418884, 0
59, 3346995393, -0.58393335, 0.45622647, 0.25016207, 0.6231465, -0.39849034, -0.10411636, -0.10366917, 0
62, 3347045394, -0.5891279, 0.45350075, 0.2522104, 0.61940974, -0.1051182, -0.11007812, -0.00853157, 0
65, 3347095395, -0.5937808, 0.45130223, 0.25457445, 0.61559385, 0.13418075, -0.18091452, -0.1261034, 0
66, 3347112062, -0.5949866, 0.45038298, 0.25543964, 0.614744, 0.042178404, -0.18476787, 0.0048570633, 0
67, 3347128729, -0.59606624, 0.44967523, 0.25624847, 0.6138789, -0.08548376, -0.16605516, 0.16816998, 0
69, 3347162063, -0.5983798, 0.44828686, 0.25730014, 0.6122012, -0.1387031, -0.17718945, 0.16589546, 0
70, 3347178730, -0.59949523, 0.44751114, 0.257834, 0.6114525, -0.04911781, -0.15040387, 0.056495667, 0
71, 3347195397, -0.60041153, 0.44683078, 0.25858143, 0.6107348, 0.010563726, -0.13462834, -0.0032262802, 0
73, 3347228731, -0.6023636, 0.44609666, 0.25956455, 0.6089297, 0.070604615, -0.27257383, -0.12817097, 0
74, 3347245398, -0.60340106, 0.44548473, 0.2599695, 0.6081772, 0.086240515, -0.2650792, -0.13713932, 0
75, 3347262065, -0.6045635, 0.4447105, 0.26024568, 0.6074709, 0.015600031, -0.24044205, -0.06665039, 0
77, 3347295399, -0.60693574, 0.4435634, 0.26063067, 0.6057767, 0.0229659, -0.1887596, 0.23483753, 0
78, 3347312066, -0.60799605, 0.4432045, 0.26090986, 0.60485524, 0.18306892, -0.22125292, 0.04105282, 0
79, 3347328733, -0.6089097, 0.4428191, 0.26111782, 0.6041281, 0.25716472, -0.28087375, -0.14916992, 0
81, 3347362067, -0.61057913, 0.44175693, 0.26151502, 0.603048, 0.17178239, -0.25808772, 0.012620926, 0
82, 3347378734, -0.6111945, 0.4414523, 0.26165614, 0.6025867, 0.20823473, -0.2651836, 0.05460167, 0
83, 3347395401, -0.6116125, 0.44132125, 0.26182, 0.60218704, 0.25556925, -0.32845697, 0.053406715, 0
85, 3347428735, -0.6118628, 0.4414531, 0.26200944, 0.60175353, 0.35473776, -0.324917, -0.10922623, 0
86, 3347445402, -0.6116853, 0.4416656, 0.2620445, 0.60176295, 0.36051998, -0.29388064, -0.059407234, 0
90, 3347512070, -0.60908145, 0.4428252, 0.26177758, 0.6036649, 0.21927492, -0.2157166, -0.060113907, 0
92, 3347545404, -0.6068857, 0.44339028, 0.26125494, 0.6056845, -0.030517565, -0.12909192, 0.109415054, 0
93, 3347562071, -0.60572535, 0.44371566, 0.26099586, 0.6067187, -0.08813155, -0.020212946, 0.12337017, 0
94, 3347578738, -0.60467726, 0.44402626, 0.26075342, 0.6076406, -0.06404692, 0.042009197, 0.13123989, 0
96, 3347612072, -0.60322666, 0.44452712, 0.26014203, 0.60897654, -0.08951124, 0.0714381, 0.09136391, 0
97, 3347628739, -0.6027852, 0.44473153, 0.2596509, 0.60947394, -0.11349273, 0.0521306, 0.04709053, 0
98, 3347645406, -0.6023928, 0.44488955, 0.25914234, 0.6099628, -0.20553905, 0.016128248, 0.036579132, 0
101, 3347695407, -0.60119116, 0.44550797, 0.2575051, 0.6113888, -0.16152516, 0.050049245, 0.005221367, 0
102, 3347712074, -0.60088474, 0.4458089, 0.25695622, 0.6117015, -0.18065038, 0.09275564, -0.028694153, 0
104, 3347745408, -0.60057324, 0.44621205, 0.2559477, 0.6121362, -0.12879218, 0.02196082, 0.0049886703, 0
108, 3347812076, -0.5999269, 0.4469604, 0.25501227, 0.61261404, -0.09657246, -0.0054753968, -0.041882515, 0
109, 3347828743, -0.599934, 0.44704536, 0.25496286, 0.61256564, -0.10785746, 0.003184389, 0.06588936, 0
110, 3347845410, -0.6000275, 0.44705555, 0.2549856, 0.61245716, -0.06924046, -0.016488997, 0.08156967, 0
112, 3347878744, -0.60017204, 0.44700626, 0.25498503, 0.6123518, -0.08025059, -0.023277758, -0.015526772, 0
113, 3347895411, -0.6001452, 0.44701135, 0.25504357, 0.61235, -0.10203322, -0.09011551, -0.006331444, 0
114, 3347912078, -0.600209, 0.44695392, 0.25525194, 0.61224264, -0.113013625, -0.09038752, 0.008749962, 0
116, 3347945412, -0.60056645, 0.44692627, 0.2558872, 0.61164707, -0.04425333, -0.13463214, -0.03750038, 0
117, 3347962079, -0.60076916, 0.44695586, 0.25610816, 0.6113336, 0.02202994, -0.17453903, -0.041635513, 0
119, 3347995413, -0.6008252, 0.44725075, 0.2563383, 0.6109664, -0.0693882, -0.08392643, -0.008364677, 0
120, 3348012080, -0.600744, 0.44743255, 0.25639945, 0.6108872, -0.11298943, -0.096881464, 0.035063744, 0
123, 3348062081, -0.6006545, 0.44788063, 0.25673395, 0.6105063, -0.12790082, -0.13248797, 0.046966553, 0
124, 3348078748, -0.6005986, 0.4480731, 0.2567924, 0.6103956, -0.038040955, -0.20653804, -0.0014162064, 0
125, 3348095415, -0.6004752, 0.44826975, 0.25670868, 0.6104077, -0.026002156, -0.20094642, -0.027510643, 0
127, 3348128749, -0.5999752, 0.44865808, 0.25643075, 0.61073095, -0.15399861, -0.06596857, 0.023227692, 0
129, 3348162083, -0.59950715, 0.44894728, 0.2563395, 0.6110163, -0.13488671, -0.09659649, 0.01873207, 0
131, 3348195417, -0.59916013, 0.44926494, 0.256208, 0.6111784, -0.06582099, -0.21662496, -0.013911247, 0
132, 3348212084, -0.59897286, 0.4493311, 0.25606298, 0.611374, -0.09825579, -0.1535762, 0.02334404, 0
133, 3348228751, -0.59881365, 0.44933817, 0.2559607, 0.61156744, -0.16431287, -0.06348416, 0.020291328, 0
135, 3348262085, -0.5988226, 0.44922468, 0.25615788, 0.61155957, -0.22645421, 9.6512894E-4, -0.02093792, 0
136, 3348278752, -0.5989712, 0.44913924, 0.2564566, 0.6113516, -0.102166094, -0.011575736, -0.026945114, 0
139, 3348328753, -0.598304, 0.44943255, 0.25750834, 0.61134714, 0.10364916, -0.08405719, -0.101929665, 0
140, 3348345420, -0.5977261, 0.44953376, 0.25793076, 0.61166, -0.03944322, -0.011301262, 0.055430412, 0
142, 3348378754, -0.5965573, 0.44971627, 0.25897712, 0.6122243, -0.27374125, 0.062058818, 0.1877737, 0
143, 3348395421, -0.59616154, 0.4495926, 0.25969088, 0.61239845, -0.39605585, 0.1253778, 0.1286974, 0
146, 3348445422, -0.5960653, 0.44889912, 0.2618665, 0.6120742, -0.44968918, -0.08316716, 0.051259995, 0
147, 3348462089, -0.59648544, 0.4487564, 0.26258606, 0.6114609, -0.39045897, -0.08641212, 3.6907196E-4, 0
154, 3348578758, -0.60077417, 0.44692105, 0.26829502, 0.60610473, -0.108718716, -0.011105912, -0.13582993, 0
155, 3348595425, -0.6012878, 0.4466836, 0.26919064, 0.605373, -0.013607357, -0.21759723, 0.19006348, 0
156, 3348612092, -0.60181046, 0.44645756, 0.27011433, 0.60460824, -0.008608042, -0.11583939, -0.08886242, 0
158, 3348645426, -0.60290074, 0.44585505, 0.27163127, 0.6032856, 0.048479512, -0.1579528, -0.0856266, 0
159, 3348662093, -0.6034419, 0.44554392, 0.2723412, 0.602654, -0.011274887, -0.13102932, -0.046004295, 0
160, 3348678760, -0.60395217, 0.4452163, 0.27313536, 0.60202533, -0.09616628, -0.14367257, 0.010672569, 0
162, 3348712094, -0.6050185, 0.4444677, 0.2749648, 0.6006733, -0.15769655, -0.10554192, 0.081866264, 0
163, 3348728761, -0.6057643, 0.44398543, 0.27594787, 0.5998272, -0.09515198, -0.05141513, 0.05513954, 0
164, 3348745428, -0.60657, 0.44352207, 0.27691174, 0.59891075, -0.046085186, -0.12038318, 0.04603958, 0
166, 3348778762, -0.6081781, 0.44279677, 0.2785282, 0.5970643, 0.04429988, -0.23341458, 0.09704113, 0
167, 3348795429, -0.60884, 0.44254595, 0.2793108, 0.5962096, -0.005786024, -0.11346881, 0.034244537, 0
168, 3348812096, -0.6095229, 0.44224873, 0.28008795, 0.59536695, -0.058585875, 0.016484527, -0.046837807, 0
170, 3348845430, -0.61038554, 0.44064614, 0.28265172, 0.5944592, -0.07345563, -0.14362831, 0.12352562, 0
173, 3348895431, -0.61267203, 0.43925563, 0.2848206, 0.5920962, 0.07511477, -0.21011692, 0.09511757, 0
174, 3348912098, -0.61316097, 0.4390021, 0.28532672, 0.5915343, 0.07411874, -0.105642505, 0.035913467, 0
178, 3348978766, -0.61463606, 0.43778336, 0.28705734, 0.5900674, -0.08246103, -0.05596228, 0.05835247, 0
179, 3348995433, -0.6150215, 0.4373575, 0.28767276, 0.5896817, 0.013229452, -0.10888679, 0.07596779, 0
181, 3349028767, -0.6155591, 0.4365859, 0.28887206, 0.5891059, 0.05717959, -0.21990813, 0.110155106, 0
182, 3349045434, -0.61571825, 0.43621358, 0.28951886, 0.5888979, -0.18196608, -0.020420143, -0.113838196, 0
183, 3349062101, -0.61566913, 0.43573725, 0.29025698, 0.5889387, 0.058567546, -0.38070738, 0.23258018, 0
185, 3349095435, -0.6165205, 0.4349116, 0.291539, 0.58802426, -0.14643474, 3.1470624E-4, -0.02982521, 0
186, 3349112102, -0.61715865, 0.43417355, 0.29234773, 0.5874987, -0.14848888, 0.04525936, -0.011021614, 0
187, 3349128769, -0.6178182, 0.43343675, 0.2932362, 0.5869064, -0.02755993, 0.034002356, 0.0071907043, 0
190, 3349178770, -0.62034786, 0.431302, 0.29536262, 0.5847402, 0.013704026, -0.10842613, 0.09842777, 0
191, 3349195437, -0.6214105, 0.43057472, 0.2959214, 0.58386475, 0.012991076, -0.097373195, 0.1225481, 0
193, 3349228771, -0.6232674, 0.42921525, 0.29709932, 0.58228606, 0.10240347, -0.16825207, -0.029529572, 0
194, 3349245438, -0.6240957, 0.42850554, 0.297616, 0.5816574, 0.09906399, -0.14481363, 0.047402382, 0
196, 3349278772, -0.6255908, 0.4272249, 0.2988259, 0.5803716, 0.012372672, -0.032667983, 0.01342392, 0
197, 3349295439, -0.62667596, 0.42646167, 0.29936314, 0.5794847, -0.10754655, 0.047558863, 0.020288467, 0
198, 3349312106, -0.62740374, 0.425478, 0.30043942, 0.57886326, -0.17440191, 0.021844815, 0.010649681, 0
200, 3349345440, -0.6294789, 0.4233901, 0.30286336, 0.57687455, -0.105672345, -0.08995726, -0.10279083, 0
201, 3349362107, -0.6307426, 0.42252922, 0.30395138, 0.5755516, -0.051257163, -0.20301704, 0.0690279, 0
204, 3349412108, -0.63351285, 0.4205195, 0.30739182, 0.5721436, 0.26225328, -0.21434155, -0.17321682, 0
206, 3349445442, -0.6344387, 0.41864654, 0.30949247, 0.5713583, 0.075797714, -0.30858287, -0.08157253, 0
208, 3349478776, -0.63530976, 0.41774148, 0.31101447, 0.5702253, 0.011226608, -0.2118297, 0.11797619, 0
209, 3349495443, -0.63552755, 0.41742843, 0.31164742, 0.56986594, 0.10448544, -0.23736674, 0.03530979, 0
210, 3349512110, -0.63557273, 0.41703513, 0.31208718, 0.56986296, 0.029545913, -0.19723901, -0.02349472, 0
212, 3349545444, -0.6351996, 0.41610983, 0.31269222, 0.5706234, -0.034198266, 9.57306E-4, 0.07588005, 0
213, 3349562111, -0.6350085, 0.41590434, 0.31291413, 0.57086414, -0.044831503, -0.06509368, -8.792877E-4, 0
214, 3349578778, -0.6348269, 0.4157372, 0.3130135, 0.5711334, 0.019064818, -0.10949274, -0.063809395, 0
216, 3349612112, -0.6343388, 0.4155987, 0.31255022, 0.5720294, 0.02281056, -0.08261151, 0.08351326, 0
217, 3349628779, -0.63392574, 0.4157146, 0.31208417, 0.5726572, 0.006354194, -0.0077407006, 0.04728794, 0
218, 3349645446, -0.6334479, 0.41588682, 0.31157076, 0.57334006, 0.015688766, -0.04876114, -0.0027742386, 0
221, 3349695447, -0.631991, 0.41649526, 0.31020844, 0.5752417, -0.0141107645, -0.0381293, 0.016612053, 0
223, 3349728781, -0.6308959, 0.41716737, 0.3092524, 0.5764704, -0.03330991, -0.0033205084, -0.008784294, 0
224, 3349745448, -0.6303684, 0.4174086, 0.30884647, 0.5770901, -0.012667093, 0.048457384, -0.001660347, 0
225, 3349762115, -0.6298708, 0.41761303, 0.30845678, 0.5776936, 0.031104902, -0.011405196, 0.01123333, 0
227, 3349795449, -0.62881404, 0.4181908, 0.30769718, 0.57883066, 0.074595265, -0.115839586, 0.01898098, 0
228, 3349812116, -0.6282507, 0.41860664, 0.30726546, 0.579371, 0.027062334, -0.1074087, -0.062158585, 0
229, 3349828783, -0.62783444, 0.41890883, 0.3068905, 0.5798023, -0.02113209, 0.004905886, -0.05117321, 0
231, 3349862117, -0.627267, 0.41934738, 0.30637032, 0.58037424, -0.0063300547, 0.011856245, -0.050549507, 0
232, 3349878784, -0.6269229, 0.4195709, 0.3061691, 0.5806906, 0.050799523, -0.052918702, -0.009502411, 0
233, 3349895451, -0.6264353, 0.41990793, 0.30594993, 0.58108866, 0.11184599, -0.07532789, -0.012414932, 0
235, 3349928785, -0.62519604, 0.4206924, 0.30535245, 0.58216923, 0.026595863, 0.0023940473, -0.04519558, 0
236, 3349945452, -0.62463796, 0.4209712, 0.3050516, 0.5827241, 0.013107079, 3.1470624E-4, -0.014671326, 0
237, 3349962119, -0.6241999, 0.4211179, 0.3047611, 0.5832393, -0.0033976205, -0.009642349, 0.15457058, 0
239, 3349995453, -0.6233738, 0.4215729, 0.30441117, 0.5839763, 0.02428731, -0.039173998, 0.13093758, 0
240, 3350012120, -0.6228594, 0.42199308, 0.30417007, 0.5843471, 0.11935989, -0.022850623, -6.866455E-4, 0
241, 3350028787, -0.6222519, 0.42241013, 0.3038276, 0.584871, 0.10654935, -0.043389004, -0.075779915, 0
243, 3350062121, -0.6208285, 0.42323744, 0.30299646, 0.5862155, -0.028079923, -0.03304329, -0.103980064, 0
244, 3350078788, -0.62007934, 0.4236549, 0.30262354, 0.586899, -0.05790813, -0.008807304, -0.032880783, 0
245, 3350095455, -0.6193837, 0.42402014, 0.30233616, 0.5875173, -0.091552526, 0.0149872145, 0.009905815, 0
248, 3350145456, -0.6177343, 0.4247385, 0.30152357, 0.5891506, -0.05124163, -0.09515863, 0.036819458, 0
250, 3350178790, -0.61662817, 0.42545512, 0.30092716, 0.5900964, -0.15450853, -0.002813134, -0.061250687, 0
251, 3350195457, -0.61620784, 0.42575118, 0.3007633, 0.59040534, -0.18831095, 0.034207094, -0.034332275, 0
252, 3350212124, -0.615884, 0.42595798, 0.30074286, 0.5906047, -0.14559667, 0.07912269, -0.061955452, 0
254, 3350245458, -0.61525995, 0.42647392, 0.30078387, 0.5908617, 0.03324666, -0.13513236, 0.036008835, 0
255, 3350262125, -0.6149255, 0.42678314, 0.30070543, 0.5910264, -0.027928503, -0.07102482, 0.062044144, 0
256, 3350278792, -0.6145967, 0.4270784, 0.3005625, 0.5912278, -0.07282153, 0.0022299888, -0.0027542114, 0
258, 3350312126, -0.61379755, 0.4276709, 0.3004557, 0.591684, -0.06996062, -0.07557956, -0.0011796951, 0
259, 3350328793, -0.613379, 0.4279325, 0.3004347, 0.59193933, -0.089629255, -0.078383535, 0.082606316, 0
262, 3350378794, -0.6118411, 0.42896375, 0.30018985, 0.59290814, 0.043506015, -0.09919371, 0.019382477, 0
264, 3350412128, -0.61076444, 0.42976552, 0.29983568, 0.59361607, -0.049307965, -0.045080774, 0.01826191, 0
266, 3350445462, -0.60981345, 0.43044442, 0.29955518, 0.5942433, -0.03177114, -0.099029206, -0.015717506, 0
267, 3350462129, -0.6094023, 0.4306955, 0.2994693, 0.59452635, 0.003238088, -0.08861708, 0.083865166, 0
268, 3350478796, -0.6089939, 0.43095654, 0.29937235, 0.59480447, 0.033400547, -0.080679685, 0.14248848, 0
270, 3350512130, -0.6080116, 0.4316568, 0.29912055, 0.59542793, 0.13938257, -0.060098387, -0.05765629, 0
277, 3350628799, -0.60653806, 0.43274722, 0.3000493, 0.59567195, 0.022056874, -0.08697761, 0.09324455, 0
278, 3350645466, -0.6064926, 0.43301362, 0.30031705, 0.5953897, 0.03767551, -0.11637761, 0.04966545, 0
282, 3350712134, -0.606413, 0.43386045, 0.30067304, 0.5946741, -0.06968765, -0.14889316, 0.16950607, 0
283, 3350728801, -0.6062784, 0.43411988, 0.30054098, 0.5946889, -0.003360238, -0.13830602, 0.11779022, 0
285, 3350762135, -0.60591614, 0.4346036, 0.30001086, 0.5949723, 0.15129301, -0.26481166, -0.028787613, 0
289, 3350828803, -0.6041854, 0.4358881, 0.29835021, 0.59662545, -0.11376972, -0.14613545, 0.017630577, 0
290, 3350845470, -0.6038303, 0.43616304, 0.2979957, 0.5969612, -0.06371969, -0.07211467, -0.021765709, 0
291, 3350862137, -0.60352683, 0.43642977, 0.29770786, 0.5972166, 0.02712475, -0.16154735, -0.023225784, 0
293, 3350895471, -0.6026933, 0.43715042, 0.29695702, 0.59790456, -0.01622914, -0.3108445, -0.0067567825, 0
294, 3350912138, -0.6022271, 0.4374667, 0.29648322, 0.5983782, -0.0725432, -0.19322851, 0.050527573, 0
295, 3350928805, -0.601744, 0.43778476, 0.29608673, 0.5988277, -0.11303005, -0.11418383, -0.045139313, 0
297, 3350962139, -0.6008796, 0.4383635, 0.29562342, 0.5995008, -0.08712764, -0.11272138, -0.09195328, 0
298, 3350978806, -0.60067, 0.43853003, 0.29548216, 0.5996587, -0.07828239, -0.09024693, -0.0110569, 0
299, 3350995473, -0.60046387, 0.43871358, 0.29535323, 0.5997943, -0.15221606, -0.07047453, 0.10251713, 0
301, 3351028807, -0.60021186, 0.43899804, 0.29517454, 0.5999265, -0.09896964, -0.09549993, 0.06338978, 0
303, 3351062141, -0.59994864, 0.43926543, 0.2950449, 0.6000577, -0.109621145, -0.078431815, -0.033050537, 0
305, 3351095475, -0.5997368, 0.4395677, 0.2950427, 0.600049, -0.19706875, -0.05631409, -0.018850327, 0
306, 3351112142, -0.5997025, 0.4396962, 0.29509088, 0.59996563, -0.15914889, -0.14106283, 0.034283638, 0
308, 3351145476, -0.59964585, 0.440012, 0.2951103, 0.59978104, -0.012078361, -0.15421924, 0.02316761, 0
310, 3351178810, -0.5993453, 0.44047293, 0.29464066, 0.59997404, -0.05115256, -0.07160573, -0.08734894, 0
314, 3351245478, -0.5990555, 0.44120628, 0.2941973, 0.59994227, 0.0029564616, -0.20301928, 0.10189438, 0
317, 3351295479, -0.59876245, 0.4416842, 0.29336149, 0.60029227, -0.0029085742, -0.15307106, -0.019758224, 0
320, 3351345480, -0.59776986, 0.44215506, 0.2925599, 0.60132515, -0.060789153, -0.11865923, -0.08211136, 0
321, 3351362147, -0.59741426, 0.44221872, 0.29235908, 0.60172933, -0.09038858, -0.1434638, -0.015685081, 0
322, 3351378814, -0.597053, 0.44230476, 0.2921803, 0.60211164, -0.088936366, -0.08557641, 0.044680595, 0
324, 3351412148, -0.59654874, 0.44259104, 0.29189613, 0.6025386, -0.09345518, -0.10117202, 0.03040123, 0
325, 3351428815, -0.5950239, 0.44652444, 0.30414987, 0.59503657, -1.419525, -17.443102, -4.493377, 1024
326, 3351445482, -0.57920563, 0.47091737, 0.2824782, 0.60247564, 9.663241, 5.8479195, 15.484531, 1024
328, 3351478816, -0.55736256, 0.48234144, 0.28394532, 0.6132552, 3.4263806, 3.175156, -3.9733896, 0
329, 3351495483, -0.5483947, 0.4793822, 0.29344392, 0.6191608, 4.331246, -4.442541, -3.210266, 0
331, 3351528817, -0.5651221, 0.4700064, 0.28568333, 0.6149221, -1.0769782, 1.5893221, -0.9205065, 0
332, 3351545484, -0.5722708, 0.46406156, 0.2861895, 0.61258614, -1.7936825, 2.395257, 0.7975588, 0
333, 3351562151, -0.576408, 0.45890558, 0.2856596, 0.6128387, -2.4242344, 2.4802504, 1.4013939, 0
335, 3351595485, -0.5935836, 0.44555303, 0.2581251, 0.6184867, 0.21036933, -2.5654178, 1.4883909, 0
337, 3351628819, -0.5955074, 0.44365373, 0.26236397, 0.6162146, 0.92601836, -1.3927836, -0.18527508, 0
339, 3351662153, -0.59664464, 0.44176227, 0.26344705, 0.61601144, 0.26248372, 0.030794721, -0.59910583, 0
341, 3351695487, -0.59841424, 0.44008765, 0.26328385, 0.6155633, -0.35170847, 0.48054168, -0.43059254, 0
343, 3351728821, -0.6002542, 0.43859658, 0.26381123, 0.6146094, -0.13976471, -0.29163837, 0.021715164, 0
344, 3351745488, -0.6010592, 0.4378049, 0.26391757, 0.6143414, -0.12300382, -0.45755494, 0.2189312, 0
345, 3351762155, -0.6016942, 0.4372033, 0.26386487, 0.6141708, -0.20438796, -0.4095801, 0.23720074, 0
347, 3351795489, -0.6026559, 0.43657306, 0.26386368, 0.6136766, -0.20840158, -0.26130563, 0.033353806, 0
348, 3351812156, -0.603138, 0.43638936, 0.26409465, 0.61323416, -0.16416876, -0.25750303, 0.03833866, 0
349, 3351828823, -0.60366607, 0.4361842, 0.26446134, 0.61270225, -0.11409191, -0.37596846, -0.002114296, 0
351, 3351862157, -0.6046091, 0.43580672, 0.26478344, 0.6119014, -0.023839332, -0.42572847, -0.12340927, 0
355, 3351928825, -0.60558116, 0.435143, 0.26461813, 0.61148375, -0.020965962, -0.5141692, 0.14088917, 0
356, 3351945492, -0.6053444, 0.4353258, 0.2643411, 0.61170805, -0.022851294, -0.45077333, 0.10695171, 0
357, 3351962159, -0.6048996, 0.4356101, 0.26390845, 0.61213225, 0.008248075, -0.37816024, 0.04322338, 0
360, 3352012160, -0.6032184, 0.4367402, 0.26258174, 0.613555, -0.1098707, -0.29446447, 0.007818222, 0
362, 3352045494, -0.60191464, 0.43789452, 0.26140463, 0.6145144, -0.08667944, -0.31103593, -0.049243927, 0
363, 3352062161, -0.6012457, 0.43836087, 0.2608306, 0.6150806, -0.11960592, -0.280954, -0.024486542, 0
364, 3352078828, -0.6007659, 0.4388711, 0.2607795, 0.61520696, -0.104111776, -0.16965371, -0.4185362, 0
366, 3352112162, -0.5995825, 0.439607, 0.25934446, 0.6164414, -0.21404651, -0.2100063, -0.03485775, 0
367, 3352128829, -0.5990519, 0.43994117, 0.25881147, 0.61694264, -0.20967673, -0.2020452, -0.064394, 0
368, 3352145496, -0.5984983, 0.44038886, 0.2583632, 0.61734825, -0.17551623, -0.25179493, -0.03536892, 0
372, 3352212164, -0.59660906, 0.44173712, 0.2575447, 0.6185546, -0.27211803, -0.2183145, 0.047904015, 0
374, 3352245498, -0.59588903, 0.44243363, 0.25718576, 0.61890006, -0.27109864, -0.28209347, -0.036140442, 0
375, 3352262165, -0.5958814, 0.44258642, 0.25718305, 0.6187994, -0.24031152, -0.36025488, 0.065852165, 0
376, 3352278832, -0.5954079, 0.44309723, 0.25723374, 0.6188685, -0.15421455, -0.36497253, 0.034341812, 0
378, 3352312166, -0.5945476, 0.44381982, 0.2570924, 0.61923665, -0.23118481, -0.30164525, -0.08767986, 0
379, 3352328833, -0.59398484, 0.44414687, 0.2570473, 0.61956066, -0.23208797, -0.21545397, -0.051939964, 0
380, 3352345500, -0.59339654, 0.4444198, 0.25698012, 0.6199565, -0.18933123, -0.21816899, -0.03176689, 0
382, 3352378834, -0.59274316, 0.44453844, 0.25692293, 0.62051994, -0.26824835, -0.21735786, 0.025024414, 0
383, 3352395501, -0.5926318, 0.4446331, 0.2568394, 0.620593, -0.23169488, -0.33094758, 0.073905945, 0
385, 3352428835, -0.59266233, 0.4449758, 0.2566777, 0.62038517, -0.26506525, -0.3274069, 0.09208298, 0
395, 3352595505, -0.58764684, 0.44818735, 0.2542478, 0.6238355, -0.16030678, -0.28563526, -0.028354645, 0
396, 3352612172, -0.586568, 0.44873592, 0.25378722, 0.6246433, -0.1568653, -0.21467435, -0.016093254, 0
397, 3352628839, -0.58547693, 0.44932508, 0.2533034, 0.6254393, -0.18314931, -0.29522955, -0.03942585, 0
398, 3352645506, -0.5845083, 0.44989976, 0.25275442, 0.6261539, -0.19997196, -0.29796466, 0.014840126, 0
399, 3352662173, -0.5836453, 0.4506556, 0.25241303, 0.62655294, -0.14933482, -0.25909376, -0.10446262, 0
401, 3352695507, -0.5868777, 0.47816262, 0.24974984, 0.603799, -22.61596, 44.89276, 18.432165, 0
402, 3352712174, -0.58291376, 0.4869011, 0.24862756, 0.6011126, -10.650671, 17.684278, -17.946468, 0
403, 3352728841, -0.5639814, 0.49140993, 0.264532, 0.6086685, 0.958521, 10.71518, -8.632489, 0
405, 3352762175, -0.5489404, 0.5166352, 0.24197577, 0.610912, 1.5557628, -2.880349, -3.6501155, 0
406, 3352778842, -0.5596379, 0.51127654, 0.23036838, 0.61020094, 0.6626762, -2.4634285, -0.13980389, 0
407, 3352795509, -0.5681792, 0.50525826, 0.23161763, 0.6068383, -0.12297392, 2.0893826, -1.02462, 0
409, 3352828843, -0.5818153, 0.48666286, 0.23637244, 0.6072821, -0.016287947, -3.015156, 4.1067696, 0
410, 3352845510, -0.58575046, 0.4751814, 0.22663599, 0.6162374, 0.12684788, -3.804086, 4.8669367, 0
412, 3352878844, -0.5849512, 0.46913266, 0.22618282, 0.6217726, 0.11366662, -0.42777586, 0.16644192, 0
413, 3352895511, -0.58482283, 0.4682085, 0.22670992, 0.6223977, -0.34888375, 0.41725352, -0.17224789, 0
414, 3352912178, -0.5856681, 0.46770567, 0.22716469, 0.62181485, -0.44008806, 0.5949241, 0.006319046, 0
416, 3352945512, -0.5883421, 0.46666223, 0.22811696, 0.6197223, -0.07882022, 0.526196, -0.6585436, 0
417, 3352962179, -0.5897106, 0.46610835, 0.2284197, 0.618726, 0.013347998, 0.22624059, -0.8045206, 0
418, 3352978846, -0.59107375, 0.46553385, 0.22873786, 0.6177397, -0.09517349, -0.14489496, -0.5612955, 0
421, 3353028847, -0.59463656, 0.46333545, 0.23013687, 0.6154492, -0.3763595, -0.6179206, 0.016222, 0
422, 3353045514, -0.59552073, 0.46282217, 0.23102212, 0.6146486, -0.43284038, -0.5116397, -0.026022911, 0
424, 3353078848, -0.59697413, 0.4620496, 0.23339438, 0.61292094, -0.49196482, -0.34510154, 0.23927212, 0
425, 3353095515, -0.59753895, 0.46194896, 0.2346724, 0.61195797, -0.44719252, -0.5163016, 0.2169714, 0
426, 3353112182, -0.59831375, 0.4615702, 0.23593354, 0.6110008, -0.29847795, -0.5783807, 0.110097885, 0
428, 3353145516, -0.60065997, 0.46005806, 0.2385247, 0.6088294, -0.17766294, -0.41468874, 0.019166946, 0
429, 3353162183, -0.60191107, 0.45959106, 0.23986185, 0.60741985, -0.20625678, -0.19254814, 0.086945534, 0
430, 3353178850, -0.6031051, 0.45934185, 0.2410726, 0.6059427, -0.23113413, -0.10470531, 4.9591064E-4, 0
431, 3353195517, -0.60431325, 0.45906147, 0.24232921, 0.60444844, -0.15174314, -0.2107164, -0.07336044, 0
432, 3353212184, -0.6055417, 0.45874637, 0.24308205, 0.6031545, -0.03046515, -0.13035297, -0.034466743, 0
433, 3353228851, -0.60647285, 0.45863184, 0.2436177, 0.6020889, 0.083039254, -0.24558397, -0.026751518, 0
434, 3353245518, -0.60709, 0.45854983, 0.24423896, 0.60127723, 0.10106317, -0.18577726, -0.08301163, 0
435, 3353262185, -0.6073126, 0.45840582, 0.24477023, 0.6009461, 0.23768055, -0.18471134, -0.12169075, 0
436, 3353278852, -0.6071422, 0.4584419, 0.24496277, 0.60101235, 0.31811297, -0.33303496, -0.06764221, 0
437, 3353295519, -0.6070764, 0.4582627, 0.24499312, 0.6012031, 0.0030265888, -0.1655746, 0.11414719, 0
438, 3353312186, -0.60707456, 0.45810008, 0.24539761, 0.601164, -0.15024814, -0.096393764, 0.25142765, 0
439, 3353328853, -0.6068386, 0.45846063, 0.24593724, 0.6009067, -0.07418551, -0.2706972, 0.11625481, 0
440, 3353345520, -0.60642445, 0.45918614, 0.24617565, 0.6006732, 0.07668671, -0.64129263, 0.01077652, 0
441, 3353362187, -0.6059692, 0.45991164, 0.2461142, 0.6006028, 0.18915808, -0.8928807, -0.0023565292, 0
442, 3353378854, -0.605598, 0.46045628, 0.2459153, 0.60064137, 0.15791442, -0.72589433, -0.0664053, 0
443, 3353395521, -0.6052204, 0.46092167, 0.24568641, 0.6007586, 0.14356452, -0.70664984, -0.12348747, 0
444, 3353412188, -0.6049328, 0.4610513, 0.24522224, 0.6011383, 0.17574024, -0.75138795, -0.18429852, 0
445, 3353428855, -0.604916, 0.46057087, 0.24464634, 0.60175776, 0.12537378, -0.7189028, -0.12934685, 0
446, 3353445522, -0.6053518, 0.45921868, 0.24443746, 0.6024377, -0.1736761, -0.4966185, 0.027030945, 0
447, 3353462189, -0.60607374, 0.45764348, 0.24478427, 0.60276926, -0.39322504, -0.1938425, 0.41631603, 0
448, 3353478856, -0.6067902, 0.45669514, 0.24523352, 0.60258514, -0.4058865, -0.09230638, 0.57054806, 0
449, 3353495523, -0.6073137, 0.45648178, 0.24600977, 0.60190284, -0.31254935, -0.23695794, 0.11109352, 0
450, 3353512190, -0.607998, 0.4560155, 0.2471142, 0.6011123, -0.24168557, -0.19668245, -0.3777752, 0
451, 3353528857, -0.6088542, 0.455146, 0.24821568, 0.6004506, -0.2277954, -0.067312494, -0.29951286, 0
452, 3353545524, -0.6096832, 0.45430005, 0.24928164, 0.5998079, -0.33063835, 0.052197874, -0.09206104, 0
453, 3353562191, -0.6101373, 0.45402545, 0.24999046, 0.59925896, -0.06802097, -0.12384182, 0.05045414, 0
455, 3353595525, -0.6098762, 0.45455492, 0.2504563, 0.5989287, 0.14170961, -0.5107633, -0.048502922, 0
456, 3353612192, -0.60963786, 0.45462582, 0.25013182, 0.59925324, -0.17324461, -0.1968986, 0.09899521, 0
457, 3353628859, -0.609352, 0.4548666, 0.24973992, 0.59952444, -0.37712476, 0.17354238, 0.17584896, 0
459, 3353662193, -0.60834265, 0.45694506, 0.25018877, 0.5987812, -0.57224244, 0.48276162, -0.08521652, 0
460, 3353678860, -0.6077495, 0.45836204, 0.2511189, 0.59791076, -0.22978891, 0.09351804, -0.1833601, 0
461, 3353695527, -0.6070548, 0.4595461, 0.2514683, 0.5975607, 0.31947252, -0.99814826, -0.20503902, 0
463, 3353728861, -0.60622907, 0.45983094, 0.25101677, 0.5983693, 0.3651082, -0.98412216, 0.07912254, 0
464, 3353745528, -0.60563564, 0.45921785, 0.24993569, 0.5998915, 0.19631472, -0.8655193, -0.084879875, 0
466, 3353778862, -0.6047902, 0.45760146, 0.24872208, 0.6024786, -1.2173326, 0.5133538, 0.5394497, 0
467, 3353795529, -0.60477257, 0.45781845, 0.24890235, 0.6022567, -1.3817623, 0.5888319, 0.2897911, 0
468, 3353812196, -0.6053485, 0.458453, 0.24944553, 0.6009694, -0.9994706, 0.28775573, -0.11061001, 0
470, 3353845530, -0.6072312, 0.45926526, 0.25190634, 0.5974127, -0.061607156, -0.40687785, -0.21604061, 0
479, 3353995533, -0.6152872, 0.45155212, 0.25710398, 0.5928179, 0.38839605, -0.18858413, -0.27338314, 0
482, 3354045534, -0.6126623, 0.45442554, 0.2558221, 0.5938943, 0.27263188, -0.12940574, -0.08971977, 0
483, 3354062201, -0.6115173, 0.45509675, 0.25485948, 0.59497344, 0.030161677, -0.23246354, 0.023495674, 0
486, 3354112202, -0.6221391, 0.4347831, 0.26297307, 0.5956215, 2.5423546, 8.864329, 25.453773, 1024
488, 3354145536, -0.58336174, 0.48099843, 0.23908156, 0.60924786, -4.5229464, 13.229868, -11.585077, 0
490, 3354178870, -0.5710699, 0.47989964, 0.2379171, 0.6220805, 0.8832158, -2.6399558, 0.21527576, 0
492, 3354212204, -0.58766353, 0.47206005, 0.23130974, 0.6150771, -1.3639035, 1.689367, 0.03672409, 0
494, 3354245538, -0.59710085, 0.46881938, 0.23807444, 0.60581577, -0.86535764, -1.2867786, 2.4073372, 0
495, 3354262205, -0.5980747, 0.46841973, 0.24660584, 0.6017377, 0.054263525, -2.4446716, 2.0521412, 0
497, 3354295539, -0.59881276, 0.46652552, 0.25997812, 0.59682655, 0.77464306, -1.8694943, 0.74956036, 0
498, 3354312206, -0.600125, 0.46569782, 0.26262766, 0.594992, 0.23054898, -0.8474078, 0.7468319, 0
499, 3354328873, -0.60173506, 0.46479237, 0.26273853, 0.5940242, -0.16957699, 0.3414348, 0.7051897, 0
501, 3354362207, -0.60215664, 0.463054, 0.2567993, 0.5975414, -0.07080382, 0.9993112, -0.8291731, 0
502, 3354378874, -0.60202825, 0.46129936, 0.25148255, 0.6012775, 0.3490928, 0.35791498, -1.4235001, 0
503, 3354395541, -0.60164654, 0.4600718, 0.24927065, 0.60351694, 0.5350829, -0.34750924, -0.544425, 0
505, 3354428875, -0.6005011, 0.4577409, 0.24717182, 0.6072816, -0.2804387, 0.07104181, 0.35685158, 0
507, 3354462209, -0.60048467, 0.4605075, 0.24630031, 0.6055578, -1.6789026, 0.79456323, 1.1042376, 0
509, 3354495543, -0.6034955, 0.4620974, 0.24908504, 0.60019064, 0.3317368, -1.242547, -0.21848392, 0
510, 3354512210, -0.60472226, 0.46230623, 0.25021634, 0.5983219, 0.091021486, -0.56945527, -0.95209694, 0
511, 3354528877, -0.6054065, 0.46198472, 0.25109047, 0.5975115, 0.49680224, -0.9282309, -0.5882759, 0
513, 3354562211, -0.6063081, 0.45982158, 0.25242484, 0.5977034, 0.01825542, -0.12209328, -0.43158817, 0
514, 3354578878, -0.606291, 0.45835456, 0.25321317, 0.5985136, -0.088882886, 0.0919919, -0.4027071, 0
515, 3354595545, -0.6056018, 0.4567627, 0.2541062, 0.6000478, 0.2108205, -0.24032672, -0.23554897, 0
517, 3354628879, -0.6030122, 0.4541556, 0.25383484, 0.60473156, 0.06731914, -0.2635202, 0.62199306, 0
518, 3354645546, -0.6022093, 0.4536305, 0.25382408, 0.60592896, -0.4702622, 0.3315951, 0.8063202, 0
520, 3354678880, -0.60299987, 0.4556766, 0.25290614, 0.60398805, -0.5691697, -0.041872695, 0.25792217, 0
522, 3354712214, -0.6069477, 0.45816076, 0.25234458, 0.5983632, -0.3172044, -0.74423754, -0.15909481, 0
524, 3354745548, -0.6082182, 0.4578684, 0.25125864, 0.5977536, 1.074433, -1.5406066, -0.7375374, 0
525, 3354762215, -0.60879797, 0.45624307, 0.24926323, 0.59924, 0.76479346, -1.2584679, -0.37189388, 0
526, 3354778882, -0.6099603, 0.45396972, 0.24685818, 0.600778, 0.11897259, -0.7674257, 0.0511961, 0
528, 3354812216, -0.61320245, 0.44993582, 0.2430528, 0.6020622, -0.5580163, -0.31260812, 0.5302496, 0
529, 3354828883, -0.61411077, 0.44930136, 0.24193189, 0.6020618, -0.45423198, -0.15624718, 0.3725891, 0
530, 3354845550, -0.6142125, 0.4494195, 0.24107039, 0.6022155, -0.06332195, -0.3357871, 0.12616062, 0
532, 3354878884, -0.61256725, 0.44995198, 0.23893107, 0.60434234, 0.35932285, -0.40729806, -0.33457947, 0
533, 3354895551, -0.61127424, 0.45001334, 0.23773584, 0.60607487, 0.4080147, -0.4931943, -0.039072037, 0
534, 3354912218, -0.6100931, 0.45006785, 0.23650393, 0.6077042, 0.04912513, -0.14286233, 0.04088497, 0
537, 3354962219, -0.60496116, 0.45172256, 0.23205444, 0.61329687, 0.2562553, -0.88414484, -0.042803764, 0
538, 3354978886, -0.6032018, 0.4517836, 0.2298887, 0.615795, 0.3781913, -0.83954597, -0.20364666, 0
540, 3355012220, -0.60064006, 0.45103377, 0.22521752, 0.62055653, -0.058746465, -0.7148682, 0.3202877, 0
541, 3355028887, -0.5996884, 0.45075333, 0.22288123, 0.6225211, -0.33630493, -0.59615, 0.42391205, 0
542, 3355045554, -0.59876454, 0.45114204, 0.22053379, 0.62396294, -0.40858015, -0.18941806, 0.44922066, 0
544, 3355078888, -0.59653753, 0.45375326, 0.2158793, 0.6258275, 0.13681455, -0.40872765, -0.13716602, 0
545, 3355095555, -0.5953692, 0.45448428, 0.21344627, 0.6272426, 0.4087188, -0.65024793, -0.4373722, 0
546, 3355112222, -0.59437525, 0.45406806, 0.21081515, 0.6293731, 0.3261158, -0.7385759, -0.35500717, 0
548, 3355145556, -0.5918502, 0.4525841, 0.20496306, 0.63473177, 0.032041617, -0.57215405, 0.12313366, 0
549, 3355162223, -0.5902695, 0.45222983, 0.20161004, 0.6375239, -0.0137830665, -0.63626933, 0.31232548, 0
551, 3355195557, -0.586748, 0.45150003, 0.19390894, 0.6436513, -0.02271903, -0.7599208, 0.16203403, 0
552, 3355212224, -0.5851051, 0.45063767, 0.18973553, 0.64698625, -0.05692836, -0.68539166, -0.07705116, 0
553, 3355228891, -0.583999, 0.44900677, 0.18521674, 0.65041983, -0.16274834, -0.5324349, -0.08609104, 0
555, 3355262225, -0.5818482, 0.44591084, 0.17693138, 0.6567532, -0.47943294, -0.36843988, -0.010699272, 0
556, 3355278892, -0.5807378, 0.44463873, 0.17317525, 0.65959346, -0.6328635, -0.64988405, 0.0072631836, 0
557, 3355295559, -0.5796035, 0.44327122, 0.16969468, 0.6624103, -0.6744609, -0.83651745, 0.13693333, 0
559, 3355328893, -0.57798433, 0.43946826, 0.1630746, 0.6679983, -0.8487161, -0.39487398, 0.20163918, 0
560, 3355345560, -0.5773231, 0.437898, 0.16007492, 0.6703229, -1.0360872, -0.66947395, 0.21156311, 0
561, 3355362227, -0.5776423, 0.43611634, 0.15605947, 0.6721538, -1.2327518, -0.9143466, 0.31529045, 0
564, 3355412228, -0.5821359, 0.42905813, 0.14464372, 0.67536545, -1.5888629, -0.85204035, 0.047234535, 0
565, 3355428895, -0.583678, 0.42619914, 0.14059961, 0.6766974, -1.318985, -1.3971641, 0.30840588, 0
567, 3355462229, -0.5846576, 0.42139462, 0.13331568, 0.6803252, -1.1134361, -1.1662269, -0.53884697, 0
568, 3355478896, -0.58590895, 0.41943082, 0.1292806, 0.6812401, -0.8020877, -2.0788043, -0.15599632, 0
569, 3355495563, -0.5868934, 0.4177055, 0.123886615, 0.682454, -0.96525174, -1.3814516, -0.38601685, 0
571, 3355528897, -0.58914995, 0.41392466, 0.112364314, 0.68480366, -1.1051577, -1.2160963, -0.11160374, 0
572, 3355545564, -0.5898889, 0.4116723, 0.10710101, 0.68636703, -1.5283922, -0.8361865, -0.3636446, 0
574, 3355578898, -0.5920015, 0.4078232, 0.09807001, 0.6881933, -1.6896771, -1.3311231, -0.43081093, 0
576, 3355612232, -0.59405786, 0.40335754, 0.090844214, 0.69004256, -1.8333951, -1.2050829, -0.8987446, 0
578, 3355645566, -0.5977644, 0.39772803, 0.08384494, 0.6909945, -2.2961555, -1.5003508, -0.6484451, 0
580, 3355678900, -0.6034049, 0.39096957, 0.07859759, 0.6905656, -2.4657657, -1.2246859, -0.8055296, 0
582, 3355712234, -0.6097421, 0.3837105, 0.07572311, 0.68939114, -2.0184274, -1.9137282, -0.04080677, 0
583, 3355728901, -0.61247313, 0.380032, 0.075193964, 0.68906564, -1.5999535, -0.64843434, -0.4324503, 0
584, 3355745568, -0.6151006, 0.37630346, 0.07248133, 0.68906224, -1.6743087, -1.5094093, -0.2784338, 0
586, 3355778902, -0.61962247, 0.36762837, 0.06843759, 0.69010663, -1.6344187, -1.4672259, -0.5262842, 0
587, 3355795569, -0.621718, 0.3630859, 0.06657136, 0.6908089, -1.704442, -1.2301127, -0.4118147, 0
588, 3355812236, -0.6235869, 0.35870382, 0.064239286, 0.6916339, -1.9237107, -1.0023006, -0.96464825, 0
590, 3355845570, -0.6259499, 0.34874386, 0.06017818, 0.6949506, -2.3171356, -1.2643796, -0.9165497, 0
591, 3355862237, -0.627406, 0.3426676, 0.058741823, 0.6967807, -2.5876868, -1.4069501, -0.9405117, 0
592, 3355878904, -0.6292592, 0.3362026, 0.05811943, 0.69830954, -2.4297302, -1.2186053, -1.1298075, 0
595, 3355928905, -0.6344237, 0.317871, 0.057306956, 0.7022775, -2.0477679, -1.8656464, -2.2470436, 0
596, 3355945572, -0.6358546, 0.31259903, 0.057589255, 0.703326, -2.085514, -1.6627924, -2.5845404, 0
598, 3355978906, -0.63820076, 0.30253756, 0.059023336, 0.7054788, -2.53012, -1.5794992, -2.7243814, 0
601, 3356028907, -0.64361405, 0.2903357, 0.06455738, 0.7052032, -4.1149483, -3.6384811, 0.42421627, 0
602, 3356045574, -0.647226, 0.287779, 0.06810237, 0.70260733, -4.1496787, -3.9119568, 1.8741636, 0
603, 3356062241, -0.65187407, 0.2849748, 0.072191864, 0.6990359, -4.3775077, -4.941052, 3.7846022, 0
605, 3356095575, -0.6598458, 0.28103468, 0.07856648, 0.69243306, -4.2431474, -2.8099387, 5.344655, 0
606, 3356112242, -0.6631814, 0.28043592, 0.08429766, 0.6888057, -3.9934545, -1.0080032, 6.460369, 0
607, 3356128909, -0.66522753, 0.28105372, 0.093159586, 0.68543106, -0.46605244, -0.28881943, 4.756238, 0
609, 3356162243, -0.665694, 0.28248405, 0.10687406, 0.6823822, 3.0514596, -3.0759501, 2.9591513, 0
611, 3356195577, -0.66388094, 0.28105915, 0.11172216, 0.68395853, 0.7210935, -1.3914354, 3.8365822, 0
613, 3356228911, -0.65767014, 0.2816885, 0.11734503, 0.68874156, 1.0689368, -1.1358871, 3.3016233, 0
614, 3356245578, -0.654508, 0.28097355, 0.12019513, 0.6915485, 1.2319355, -1.6837558, 2.9452238, 0
615, 3356262245, -0.6519055, 0.28017843, 0.12209572, 0.69399214, 1.064314, -1.9967762, 1.9332571, 0
617, 3356295579, -0.6455847, 0.27993837, 0.12510443, 0.6994403, -0.5210949, -1.5050492, 0.868309, 0
618, 3356312246, -0.64295036, 0.2802203, 0.1280776, 0.7012138, -0.448389, -0.97712576, 0.41691303, 0
619, 3356328913, -0.63976663, 0.28064126, 0.13201037, 0.70322526, -0.3324969, -0.61957467, -0.2655449, 0
621, 3356362247, -0.63065994, 0.2833113, 0.13933343, 0.7089443, 0.39417648, -0.6413349, -1.2034721, 0
622, 3356378914, -0.6259613, 0.28523046, 0.1432406, 0.7115555, 0.20105872, -0.3638668, -1.261611, 0
623, 3356395581, -0.6211474, 0.28728965, 0.14726, 0.7141204, -0.3482435, -0.24080321, -1.6687994, 0
625, 3356428915, -0.6111632, 0.29315066, 0.15412387, 0.71888906, -0.16180448, -0.036826555, -1.7535095, 0
626, 3356445582, -0.60637593, 0.29635358, 0.15817273, 0.72074777, -0.2976357, 0.19433156, -2.0614667, 0
627, 3356462249, -0.6006139, 0.30105036, 0.1607331, 0.7230559, -0.0028059816, -0.5706125, -1.8676848, 0
629, 3356495583, -0.5897256, 0.31016, 0.16877735, 0.7263278, -0.397731, -0.008410569, -1.912786, 0
630, 3356512250, -0.58420336, 0.31541497, 0.17136912, 0.7279188, -0.013982216, -0.2204943, -1.5829725, 0
632, 3356545584, -0.5754051, 0.32455754, 0.17865154, 0.7291558, 0.15683591, 0.12506197, -1.2419624, 0
633, 3356562251, -0.57094586, 0.32890734, 0.18180902, 0.729931, -0.099569045, 0.0069220844, -1.1590385, 0
634, 3356578918, -0.56627715, 0.33407217, 0.18385191, 0.73071027, -0.10067666, -0.46198183, -1.1104641, 0
636, 3356612252, -0.5577872, 0.34379354, 0.18816197, 0.73163366, -0.040053744, 0.17544582, -0.74911594, 0
638, 3356645586, -0.54922915, 0.35358784, 0.19198953, 0.7324454, 0.012669608, 0.48979667, -1.192667, 0
640, 3356678920, -0.54365367, 0.36244923, 0.19639139, 0.7311054, -0.22556488, 0.050226826, -0.6769695, 0
641, 3356695587, -0.5423951, 0.3676904, 0.19950734, 0.7285748, -0.116415575, 0.36038917, -0.9758301, 0
642, 3356712254, -0.54128826, 0.37245908, 0.20127535, 0.72648656, -0.27654305, -0.2899875, -0.2034235, 0
644, 3356745588, -0.5408206, 0.38061225, 0.20621398, 0.72120476, 0.809806, -0.27312556, -0.35389805, 0
645, 3356762255, -0.54199547, 0.38352358, 0.208751, 0.71804374, 1.1174395, -0.6147659, -0.010255814, 0
646, 3356778922, -0.54433125, 0.38591725, 0.21153486, 0.71416914, 0.34613848, -0.71330905, -0.1396656, 0
648, 3356812256, -0.5491341, 0.3907788, 0.21598057, 0.70647675, -0.58468705, -0.3974208, 0.48497677, 0
649, 3356828923, -0.5514021, 0.39340532, 0.21781707, 0.70267856, 0.35981265, -0.6264627, 0.5380297, 0
650, 3356845590, -0.55367553, 0.39536327, 0.21950367, 0.6992586, 1.2586643, -1.090804, 0.3890667, 0
653, 3356895591, -0.560024, 0.39647177, 0.22120586, 0.69301105, 1.2713828, -1.1711084, 0.14703178, 0
655, 3356928925, -0.5629536, 0.39489207, 0.21961218, 0.69204557, 0.84337693, -0.029896535, 0.4516983, 0
656, 3356945592, -0.5659051, 0.39284518, 0.21789151, 0.6913469, 0.11834963, -0.23069432, 0.78119946, 0
657, 3356962259, -0.5691764, 0.3920765, 0.21456459, 0.6901374, 1.5873377, -0.34040552, 0.13310719, 0
659, 3356995593, -0.5749841, 0.3915182, 0.20142311, 0.68960047, 2.4174824, -0.75774693, -1.4265604, 0
660, 3357012260, -0.5774673, 0.39091, 0.19249476, 0.6904201, 1.8550545, -0.78730774, -2.345664, 0
661, 3357028927, -0.5807172, 0.39013028, 0.18314683, 0.6906783, 1.5639248, -0.4615841, -2.3114033, 0
663, 3357062261, -0.5886774, 0.38533896, 0.1610396, 0.69213605, 2.8459933, 0.72651803, -1.2786922, 0
664, 3357078928, -0.591387, 0.38053644, 0.14667137, 0.69566816, 2.4181304, 1.0162125, -2.638667, 0
665, 3357095595, -0.5942492, 0.37349424, 0.13276297, 0.69982654, 0.062404748, 1.924031, -3.8264751, 0
668, 3357145596, -0.6152683, 0.32952678, 0.11355725, 0.70708907, -4.8108478, 0.48918235, 0.018234253, 0
669, 3357162263, -0.62614036, 0.31133288, 0.11166072, 0.7060916, -4.696832, 0.31456688, -0.16535187, 0
671, 3357195597, -0.64457226, 0.27714384, 0.111449204, 0.7037828, -2.191413, -2.3753414, -2.8575416, 0
672, 3357212264, -0.65271586, 0.26252246, 0.110749304, 0.70199144, -3.7242785, -4.040621, -1.8632927, 0
673, 3357228931, -0.660337, 0.24902377, 0.111120895, 0.6997197, -3.9774022, -4.893167, -1.2795315, 0
676, 3357278932, -0.67840874, 0.2203551, 0.11288077, 0.69171983, -4.0245566, -7.484944, 0.31940174, 0
677, 3357295599, -0.6819047, 0.21815935, 0.112712935, 0.68900055, -4.0055366, -9.141715, 1.3995132, 0
679, 3357328933, -0.6835074, 0.2213462, 0.114187405, 0.68614715, -3.186193, -9.079469, 1.7578659, 0
680, 3357345600, -0.6824118, 0.22364776, 0.115845144, 0.68621355, -4.2841043, -8.504806, 1.6287146, 0
681, 3357362267, -0.68184423, 0.22624128, 0.117617406, 0.6856257, -4.913965, -5.878261, 1.8450403, 0
684, 3357412268, -0.6806454, 0.26679778, 0.11476666, 0.6725941, -0.41067153, 0.13603076, 3.8731432, 0
686, 3357445602, -0.67164356, 0.28324232, 0.11324312, 0.67517257, 1.3548816, 8.0484495, 2.5507784, 0
687, 3357462269, -0.6706513, 0.2832009, 0.11426298, 0.67600393, -0.11712962, 7.899576, 5.627372, 0
688, 3357478936, -0.6699102, 0.2843545, 0.11770805, 0.67566323, 1.0894802, 3.768305, 5.566143, 0
690, 3357512270, -0.6687964, 0.28897604, 0.12527856, 0.673441, 1.4463483, -3.811921, 5.7802362, 0
691, 3357528937, -0.6651107, 0.28940046, 0.12801741, 0.6763874, 1.4312911, -0.60367835, 4.0494776, 0
694, 3357578938, -0.65205956, 0.29369998, 0.13397828, 0.68601876, -0.87717056, 0.105545945, 2.0985842, 0
695, 3357595605, -0.6474639, 0.29695562, 0.1367796, 0.68841314, 0.3391873, -0.4404154, 0.44235134, 0
696, 3357612272, -0.6451277, 0.29866606, 0.1421964, 0.6887686, -0.14880599, 0.2937708, -0.43113613, 0
698, 3357645606, -0.63743865, 0.30436236, 0.15159485, 0.69142455, -0.5551176, -0.4498841, -1.5465097, 0
699, 3357662273, -0.63392496, 0.30614847, 0.15727654, 0.69259626, -0.6066204, -0.34365496, -1.7721481, 0
700, 3357678940, -0.63038224, 0.30828398, 0.16323185, 0.69350386, -1.1019915, 0.26445225, -1.7272339, 0
702, 3357712274, -0.62378544, 0.3150838, 0.17680162, 0.6930861, -0.7239078, -0.112631194, -1.4247179, 0
703, 3357728941, -0.61967546, 0.31944686, 0.18324941, 0.6931009, 0.17462276, -0.44408807, -1.7885218, 0
704, 3357745608, -0.6161942, 0.32326502, 0.19034664, 0.6925215, 0.2425688, 0.052595727, -2.2448878, 0
706, 3357778942, -0.6091496, 0.330393, 0.204468, 0.69136333, 0.9185381, -0.25925592, -1.957273, 0
707, 3357795609, -0.6058686, 0.33380574, 0.2122862, 0.6902498, 0.5204235, -0.28298506, -1.9683995, 0
709, 3357828943, -0.5967853, 0.34327805, 0.22463745, 0.68960774, 0.74553734, -0.6205198, -1.8972235, 0
710, 3357845610, -0.59326017, 0.347718, 0.23182848, 0.688043, 0.88385034, 0.002826992, -2.128635, 0
713, 3357895611, -0.5796424, 0.3614195, 0.24683325, 0.6873698, 0.40483642, -1.5101055, -1.2439232, 0
714, 3357912278, -0.5762718, 0.36555606, 0.25174892, 0.6862329, 0.35964483, -0.86748844, -0.6760063, 0
715, 3357928945, -0.57366, 0.36987728, 0.2568305, 0.6842195, -0.102303945, -0.17227742, -0.54707146, 0
717, 3357962279, -0.5686061, 0.37890354, 0.2628657, 0.6812005, 0.6394453, -0.5885322, -0.03264141, 0
718, 3357978946, -0.5665245, 0.38304806, 0.2657145, 0.67950946, 0.41333857, -0.79471374, -0.6600065, 0
719, 3357995613, -0.56600285, 0.3863753, 0.26861537, 0.6769149, -0.03367452, -0.5254993, -0.73763084, 0
721, 3358028947, -0.56549895, 0.39235207, 0.27329126, 0.6720088, 0.0110439425, -0.099003166, -0.42799568, 0
722, 3358045614, -0.5661037, 0.39389956, 0.2743032, 0.6701796, 0.28053695, -0.68255496, 1.2452497, 0
723, 3358062281, -0.56641185, 0.3959391, 0.27506733, 0.6684019, 1.074664, -0.3449388, 0.7361145, 0
725, 3358095615, -0.56557107, 0.3990011, 0.2753318, 0.6671829, 1.1765059, -0.3611776, -0.600482, 0
729, 3358162283, -0.5708555, 0.3958231, 0.27618882, 0.66421473, 0.7971353, 0.7005953, 0.29356766, 0
730, 3358178950, -0.5755594, 0.39418685, 0.27306944, 0.66241544, 0.84934324, -0.06353356, 0.10178661, 0
731, 3358195617, -0.58045006, 0.39285508, 0.26951015, 0.6603939, 0.99815345, -0.6744687, 0.04958439, 0
733, 3358228951, -0.5907142, 0.38812774, 0.26229483, 0.65698427, -0.18197279, 0.12545604, 0.10373688, 0
734, 3358245618, -0.5956858, 0.38395894, 0.2574318, 0.65686864, 0.2280734, 0.6176605, 0.12399101, 0
736, 3358278952, -0.60435224, 0.37411317, 0.24492753, 0.65940994, 1.6619674, -0.05820646, -2.6026773, 0
737, 3358295619, -0.60757303, 0.36820555, 0.23906267, 0.6619229, 0.6243715, -0.9064621, -3.3580928, 0
738, 3358312286, -0.6119549, 0.36068597, 0.23285067, 0.66423666, -0.38824764, -1.382994, -2.1513953, 0
740, 3358345620, -0.6249035, 0.34293893, 0.2141147, 0.6678747, 0.38931206, -0.17509614, 0.09439564, 0
741, 3358362287, -0.6308274, 0.33340812, 0.20070286, 0.67128783, 1.7379928, 0.21910237, -1.4251776, 0
744, 3358412288, -0.6373408, 0.29589254, 0.17197062, 0.6904229, -1.9929658, -2.041942, -6.6657343, 0
745, 3358428955, -0.6435579, 0.28170794, 0.16633968, 0.69196683, -3.4386811, -3.2885258, -3.6634984, 0
746, 3358445622, -0.64861923, 0.27025998, 0.1598624, 0.69333243, -3.8311362, -5.3456264, 0.9290762, 0
748, 3358478956, -0.65342766, 0.25621757, 0.15038739, 0.6962628, -4.2539253, -6.2571754, 2.5246, 0
749, 3358495623, -0.6572238, 0.2519973, 0.14865926, 0.6945991, -6.2414913, -6.8631115, 5.1315556, 0
750, 3358512290, -0.66221446, 0.2510205, 0.14748335, 0.690451, -6.136218, -6.90559, 5.0087633, 0
752, 3358545624, -0.6680259, 0.25522375, 0.1479679, 0.6831697, -4.5389113, -2.7060156, 4.3559666, 0
753, 3358562291, -0.6677694, 0.260335, 0.14923306, 0.6812141, -2.8763137, -0.31731385, 3.9659548, 0
754, 3358578958, -0.6665378, 0.26707804, 0.14987391, 0.6796673, -1.7173355, 2.6851773, 5.769224, 0
756, 3358612292, -0.66284204, 0.27186918, 0.15740338, 0.6796801, 1.2278353, 5.0873055, 5.012451, 0
758, 3358645626, -0.6641688, 0.2724901, 0.16039641, 0.6774327, 1.7562723, 0.2091128, 5.0803328, 0
760, 3358678960, -0.66015786, 0.27096465, 0.1663292, 0.6805276, 0.6999185, 0.43666062, 1.5359144, 0
761, 3358695627, -0.6588551, 0.2672855, 0.1712275, 0.6820284, 0.13723609, -0.58949643, 0.3873768, 0
763, 3358728961, -0.65782034, 0.2573558, 0.17810257, 0.6850789, -0.8806795, -0.8773702, 0.40889168, 0
764, 3358745628, -0.6577349, 0.2524027, 0.18167785, 0.6860643, -2.69637, 0.04814536, 0.5207195, 0
765, 3358762295, -0.6597177, 0.24829103, 0.18775651, 0.6840212, -2.6327097, 0.9440697, -0.80364513, 0
767, 3358795629, -0.66201454, 0.24099746, 0.201231, 0.68057054, -0.55107075, 0.8746718, -2.807313, 0
769, 3358828963, -0.66419035, 0.23429218, 0.21508527, 0.6765427, 0.5989927, 0.3151189, -3.166144, 0
771, 3358862297, -0.66374755, 0.23090124, 0.23178048, 0.67261815, 1.547712, -0.35217738, -3.090394, 0
772, 3358878964, -0.66148955, 0.23037031, 0.239063, 0.6724755, 1.4810886, -1.4707611, -3.0321164, 0
773, 3358895631, -0.6587794, 0.22991188, 0.2473273, 0.67230386, 1.3111539, -1.460116, -2.5928202, 0
775, 3358928965, -0.65370476, 0.23243685, 0.25989568, 0.6716478, 0.06825555, -0.8982876, -1.0613766, 0
776, 3358945632, -0.650592, 0.23611334, 0.26519156, 0.6713178, -0.12157741, -0.27920276, -0.8075886, 0
777, 3358962299, -0.6476377, 0.24079102, 0.26995495, 0.6706135, 0.44192994, 0.06302149, -0.87323856, 0
780, 3359012300, -0.6394267, 0.25208893, 0.2804656, 0.6700276, 0.65685135, -1.8807576, 0.08018112, 0
781, 3359028967, -0.63824373, 0.2550186, 0.2841865, 0.6684771, -0.5351405, -1.4655758, 0.45570374, 0
783, 3359062301, -0.63608235, 0.26097772, 0.28877422, 0.66626763, -0.363939, 1.10803, 0.7839365, 0
784, 3359078968, -0.63360786, 0.26472217, 0.28897253, 0.66706175, 0.631053, 0.6323709, 0.5808716, 0
785, 3359095635, -0.63055116, 0.2673327, 0.2890961, 0.6688612, 0.9111663, -0.2613364, 0.42856407, 0
788, 3359145636, -0.6259329, 0.26917645, 0.29407582, 0.67028713, -1.1287031, -1.0778052, -0.7015333, 0
790, 3359178970, -0.62298864, 0.27643824, 0.29295373, 0.6705656, -0.19947995, 0.91650426, 0.51250935, 0
791, 3359195637, -0.6189265, 0.28067783, 0.29130715, 0.673278, 0.8754285, 1.1544276, -0.035345078, 0
794, 3359245638, -0.6120459, 0.28029168, 0.2913307, 0.6796883, -2.0047145, -1.1568626, 2.084135, 0
795, 3359262305, -0.6115891, 0.28055388, 0.292631, 0.67943275, -2.7376761, 0.4479554, 1.534893, 0
796, 3359278972, -0.61123073, 0.28303674, 0.29202917, 0.6789841, -1.5217625, 1.2562753, 0.63788795, 0
798, 3359312306, -0.6093019, 0.29417863, 0.2876467, 0.6778515, 1.7909288, -0.13935943, -1.7118387, 0
799, 3359328973, -0.60867065, 0.29764915, 0.2878613, 0.67681164, 2.2637377, -0.86676246, -1.5991707, 0
800, 3359345640, -0.6092563, 0.29936263, 0.28941125, 0.67486525, 1.1915147, -0.5713351, -0.85440063, 0
802, 3359378974, -0.6100732, 0.30351573, 0.28856605, 0.67263055, -0.28468257, 0.027966052, -0.5088062, 0
804, 3359412308, -0.60852057, 0.30804804, 0.28421843, 0.67382675, -1.1494135, 0.18949051, 0.87282085, 0
806, 3359445642, -0.60132635, 0.31862813, 0.28546757, 0.67483616, 1.0007485, -0.29691294, -0.5975609, 0
807, 3359462309, -0.5978297, 0.32403818, 0.2883797, 0.67412853, 0.7331041, -0.38835084, -2.1415844, 0
808, 3359478976, -0.5955516, 0.32711613, 0.29087088, 0.67358804, 0.30015817, 0.7248192, -1.944119, 0
810, 3359512310, -0.59119546, 0.33417964, 0.29139996, 0.6737293, 0.27931717, 0.640432, -0.810915, 0
811, 3359528977, -0.5888213, 0.33933866, 0.29042786, 0.6736496, -0.081894755, 0.1964223, 0.011219978, 0
812, 3359545644, -0.58559495, 0.34503555, 0.2889664, 0.67419624, -0.39343813, -0.52003473, -0.8090286, 0
814, 3359578978, -0.5809867, 0.34819272, 0.28269854, 0.6791989, -0.65855134, -1.1875614, -1.1561728, 0
815, 3359595645, -0.58019626, 0.3451261, 0.2790126, 0.6829535, -0.47896713, 0.6750196, -0.32389927, 0
816, 3359612312, -0.5792978, 0.3422044, 0.27625152, 0.6863006, -0.24920477, 2.3495905, 0.059505463, 0
819, 3359662313, -0.57114637, 0.3432854, 0.27658463, 0.6924311, 0.77675873, 1.1524938, -1.058239, 0
822, 3359712314, -0.5595061, 0.3446331, 0.2745763, 0.7019986, -0.13238527, -1.3798143, 1.2391472, 0
823, 3359728981, -0.5543312, 0.34576848, 0.2729094, 0.70618325, -0.50492954, -1.7361151, 0.11769009, 0
825, 3359762315, -0.54626733, 0.3464576, 0.26739365, 0.71419394, -1.7033001, -1.2899315, 1.1331234, 0
826, 3359778982, -0.5430141, 0.34439027, 0.2646967, 0.7186653, -1.953341, -0.19575019, 1.3174744, 0
827, 3359795649, -0.54016256, 0.34202367, 0.2627812, 0.7226365, -1.2110435, 1.462785, 1.2292185, 0
829, 3359828983, -0.5366272, 0.3391735, 0.2628852, 0.7265653, -2.250945, 1.7109159, 1.0161638, 0
830, 3359845650, -0.53719103, 0.3404459, 0.26167366, 0.7259907, -2.052769, 0.26177257, 1.1277905, 0
831, 3359862317, -0.5386213, 0.34194034, 0.25941157, 0.7250399, -1.026231, -0.84830254, 1.166873, 0
833, 3359895651, -0.54049695, 0.34190363, 0.25482628, 0.7252874, 0.16203228, -0.9491194, -0.08716965, 0
835, 3359928985, -0.54276043, 0.339876, 0.2529075, 0.7252215, -0.6931689, 0.1786025, -1.5133772, 0
837, 3359962319, -0.5432308, 0.34169176, 0.25042635, 0.724877, -0.19319493, -0.12750225, -1.0565672, 0
838, 3359978986, -0.54290825, 0.3438197, 0.25002518, 0.72425073, 0.24920435, 0.030408379, -1.4390392, 0
839, 3359995653, -0.542776, 0.3452556, 0.25054443, 0.72348714, 0.42511666, 0.09834078, -1.2083845, 0
841, 3360028987, -0.54484755, 0.34498963, 0.25351182, 0.7210189, -1.2656, 0.8385953, -1.335763, 0
842, 3360045654, -0.54554766, 0.3452311, 0.25365993, 0.7203217, -1.3218541, 0.7470744, -0.6737566, 0
845, 3360095655, -0.5451293, 0.33815753, 0.2536975, 0.72397125, 1.2022804, 0.4388821, 0.7214737, 0
846, 3360112322, -0.5456021, 0.33203706, 0.25543505, 0.72583455, 1.332958, 0.68505096, -0.13046074, 0
848, 3360145656, -0.54813886, 0.31851602, 0.25983736, 0.7284155, 0.5464135, 1.228866, -1.5974388, 0
849, 3360162323, -0.5505502, 0.31234315, 0.26025742, 0.72911966, -0.1677761, 1.6218133, -2.7804322, 0
852, 3360212324, -0.55736935, 0.2984328, 0.25117412, 0.7329407, 2.0266833, -1.0044187, -3.3022156, 0
853, 3360228991, -0.56084085, 0.29062307, 0.24856247, 0.7343199, 1.4729079, -0.80043393, -3.108374, 0
854, 3360245658, -0.565413, 0.28030592, 0.24736999, 0.7352266, 0.13833816, 0.10346285, -3.2709966, 0
857, 3360295659, -0.5743949, 0.2472858, 0.24504298, 0.74086934, -2.1597264, 1.2861966, -4.326633, 0
858, 3360312326, -0.57377577, 0.241606, 0.23996073, 0.7448758, -1.6653848, -0.971372, -3.5531244, 0
860, 3360345660, -0.5712068, 0.22308965, 0.23521206, 0.75408375, -3.3822384, -6.466938, 3.9985285, 0
861, 3360362327, -0.57242787, 0.21540365, 0.23276585, 0.7561489, -5.352126, -6.653364, 6.6928425, 0
862, 3360378994, -0.5730525, 0.21073206, 0.22985694, 0.75787985, -5.040438, -8.098849, 8.308605, 0
864, 3360412328, -0.5701644, 0.19559641, 0.22968951, 0.7641404, -4.7975574, -8.600218, 7.6949387, 0
866, 3360445662, -0.56948555, 0.18537778, 0.22993009, 0.76711607, -3.833727, -4.412273, 4.764621, 0
868, 3360478996, -0.57584053, 0.18133911, 0.23310867, 0.76236314, -0.6940374, -0.036097065, 0.32831192, 0
869, 3360495663, -0.58050907, 0.1823328, 0.23707192, 0.75734687, 2.9686718, 2.6898346, 0.6304226, 0
870, 3360512330, -0.5844789, 0.18504918, 0.2373517, 0.75353736, 5.1854467, 3.0354216, 2.3138914, 0
872, 3360545664, -0.5931325, 0.18788582, 0.23453882, 0.7469254, 0.02351183, 0.3153085, 3.8745337, 0
873, 3360562331, -0.5985013, 0.18643013, 0.23479517, 0.7429161, -1.485427, -0.78481454, 5.1907825, 0
875, 3360595665, -0.6130417, 0.18422863, 0.23490994, 0.731485, 1.5733185, -1.2143272, 3.3054867, 0
877, 3360628999, -0.6219716, 0.18430042, 0.23500589, 0.7238576, 2.70055, -2.3031847, 1.1941032, 0
879, 3360662333, -0.6292364, 0.18091907, 0.24009286, 0.7167277, 1.2806888, -1.3145477, -0.39838028, 0
880, 3360679000, -0.6323445, 0.18012956, 0.24319404, 0.71313673, 0.9197138, -0.5318968, -1.0825224, 0
883, 3360729001, -0.64005786, 0.18877982, 0.25048083, 0.70139915, 1.912489, 0.07891818, -2.8753872, 0
884, 3360745668, -0.6423719, 0.19345888, 0.2522873, 0.69734955, 1.6017971, -0.09722366, -2.4713387, 0
885, 3360762335, -0.64424515, 0.19964665, 0.25351658, 0.69342047, 1.287165, -0.38936645, -2.4342375, 0
887, 3360795669, -0.6438137, 0.2156461, 0.25648415, 0.687917, 0.62678, 0.012336783, -2.2218852, 0
888, 3360812336, -0.64134556, 0.22491187, 0.25810543, 0.68664783, 0.45214665, 0.2530932, -2.544351, 0
889, 3360829003, -0.6382512, 0.23436783, 0.25962013, 0.6857971, 0.99818027, 0.6304688, -2.1552439, 0
891, 3360862337, -0.6326423, 0.25092673, 0.26311207, 0.6838015, 0.39411587, 1.2829981, -2.2861028, 0
892, 3360879004, -0.62943244, 0.25856796, 0.26574025, 0.6829003, -0.26857528, 1.1113063, -1.8121853, 0
893, 3360895671, -0.62590295, 0.26681855, 0.2679161, 0.68211985, -0.7438463, 0.78660613, -1.1933842, 0
895, 3360929005, -0.6203639, 0.28187996, 0.2722234, 0.6794115, -0.54018587, 0.50349885, -0.7285328, 0
898, 3360979006, -0.61064386, 0.2994658, 0.27878296, 0.6780321, 0.41421348, 0.05816757, -1.1219692, 0
899, 3360995673, -0.60703576, 0.30504704, 0.2820002, 0.67745346, -0.06496499, 0.35662577, -0.72256947, 0
900, 3361012340, -0.60315526, 0.31132463, 0.28398812, 0.67723304, 0.029946825, 0.24453747, -0.29885387, 0
902, 3361045674, -0.595455, 0.32286575, 0.28527355, 0.67810273, 0.8566803, 0.04841738, 0.32454014, 0
903, 3361062341, -0.5913013, 0.32818067, 0.28704447, 0.67843884, 0.08670542, -0.19605592, -0.8370409, 0
904, 3361079008, -0.5877146, 0.3333265, 0.28894424, 0.67823994, 0.24128464, -0.304833, -0.7306595, 0
906, 3361112342, -0.5820719, 0.34228194, 0.2947677, 0.67613655, -1.5131328, 0.69531727, -0.13817215, 0
907, 3361129009, -0.57926273, 0.34745374, 0.29632738, 0.675229, -1.0697801, 0.6171191, 0.04141903, 0
908, 3361145676, -0.57719004, 0.3515009, 0.2971049, 0.6745671, -0.35397416, 0.2909572, 0.6029587, 0
911, 3361195677, -0.5726716, 0.35940883, 0.2994659, 0.6732058, -0.47962445, -0.07044983, 0.12974262, 0
914, 3361245678, -0.5710757, 0.36743972, 0.3040871, 0.6681356, -0.108129926, 0.10086659, 0.112924576, 0
915, 3361262345, -0.5708318, 0.3692108, 0.30448258, 0.6671868, 0.30406803, 0.3566775, 0.12196255, 0
916, 3361279012, -0.56965566, 0.37158528, 0.30413243, 0.6670333, 0.33480194, 0.26715443, -0.37477016, 0
918, 3361312346, -0.5674383, 0.3779617, 0.3050391, 0.6649234, 0.030001082, -0.068178155, -0.6960001, 0
920, 3361345680, -0.56261915, 0.3873704, 0.30427706, 0.6639521, 0.10916075, -1.2401806, 0.16623497, 0
922, 3361379014, -0.5586023, 0.39149153, 0.30302146, 0.6654992, -0.39771125, -0.5915953, 1.0096455, 0
923, 3361395681, -0.5577053, 0.3921974, 0.30286, 0.66590935, -0.52083886, 0.034913283, 1.0765829, 0
925, 3361429015, -0.557292, 0.39622208, 0.30101317, 0.6647089, -0.7741099, 0.12567116, 0.1825161, 0
926, 3361445682, -0.5570254, 0.39948082, 0.29921675, 0.66379243, -0.106312595, 0.021520609, -0.17496967, 0
927, 3361462349, -0.55532193, 0.40250003, 0.29670486, 0.664523, 0.09097117, -0.4356908, -0.1670475, 0
929, 3361495683, -0.55770564, 0.40443176, 0.29381484, 0.66263527, 0.3511929, 0.19150825, 0.26103973, 0
930, 3361512350, -0.5589146, 0.40541905, 0.293043, 0.6613539, 0.27719685, 0.49704677, 0.36418915, 0
931, 3361529017, -0.5597433, 0.4070254, 0.29242328, 0.65993917, -0.29760453, 0.17405613, 0.13902187, 0
933, 3361562351, -0.5570417, 0.41280803, 0.28931418, 0.6600034, 0.39507553, -0.9895721, -0.5460844, 0
934, 3361579018, -0.55807894, 0.41281533, 0.28856352, 0.65945095, 0.09138707, -0.23198265, 0.5143604, 0
935, 3361595685, -0.55853754, 0.41346225, 0.28740576, 0.659163, 0.5826081, -0.30207497, -0.017310143, 0
937, 3361629019, -0.55956364, 0.4149305, 0.28686637, 0.6576032, 0.017291075, 0.099508524, -0.27452564, 0
938, 3361645686, -0.5591148, 0.41635382, 0.28602028, 0.6574539, 0.15840498, -0.25753376, -0.34634018, 0
939, 3361662353, -0.55836666, 0.41736603, 0.28535518, 0.65773696, 0.16127136, -0.61880296, -0.20701408, 0
942, 3361712354, -0.5555093, 0.41792983, 0.28246707, 0.6610368, 0.54938376, -0.2895682, -0.31517506, 0
943, 3361729021, -0.55578256, 0.41786578, 0.2822323, 0.6609478, 0.21679857, 0.035131767, -0.27471828, 0
945, 3361762355, -0.5556628, 0.41858745, 0.2807553, 0.6612207, 0.26361543, -0.074005924, 0.30394173, 0
946, 3361779022, -0.5556605, 0.41848072, 0.28036577, 0.6614556, 0.3798198, 0.009593064, 0.5846081, 0
947, 3361795689, -0.5563179, 0.41778266, 0.28051752, 0.66128004, 0.1275537, 0.26031247, 0.40506458, 0
949, 3361829023, -0.5595586, 0.41577023, 0.2814972, 0.65939504, -0.06596426, 0.3304449, 0.24838066, 0
951, 3361862357, -0.5632389, 0.4139491, 0.2832405, 0.65665525, 0.3480208, -0.037590858, 0.38552856, 0
953, 3361895691, -0.5670437, 0.4112215, 0.28571385, 0.6540177, 0.76626045, -0.31335384, 0.2705984, 0
954, 3361912358, -0.5692551, 0.4095865, 0.28704572, 0.6525378, 0.724347, -0.2726838, 0.11590862, 0
956, 3361945692, -0.5744628, 0.40538424, 0.28851292, 0.64994586, 0.2326743, 0.127373, -0.04308796, 0
958, 3361979026, -0.578801, 0.39980137, 0.28823173, 0.6496801, 0.35380185, -0.040209312, 0.089211464, 0
960, 3362012360, -0.5838322, 0.39330986, 0.2878216, 0.64932215, 0.96342933, 0.053340472, -0.2456398, 0
961, 3362029027, -0.5869102, 0.38975647, 0.28692114, 0.64908844, 1.0846022, 0.31907716, -0.3539667, 0
962, 3362045694, -0.58996, 0.38554406, 0.28624776, 0.6491368, 0.9910732, 0.76034147, -0.43536758, 0
964, 3362079028, -0.59549636, 0.37491092, 0.2859687, 0.6504314, 0.4798001, 1.2290188, -0.83877087, 0
965, 3362095695, -0.5966939, 0.37150148, 0.28583932, 0.6513465, 0.7942884, 0.45509452, -0.99623585, 0
966, 3362112362, -0.5978238, 0.36983648, 0.2851134, 0.65157604, 1.2631686, -0.3203989, -0.7188873, 0
968, 3362145696, -0.60072476, 0.36067462, 0.2817043, 0.6555146, 1.1956989, -0.22747763, -0.5500841, 0
969, 3362162363, -0.60381323, 0.34995657, 0.2790116, 0.6596254, 0.34632605, 0.34546033, -0.71413517, 0
970, 3362179030, -0.6075598, 0.3386652, 0.2765839, 0.66309243, 0.36653784, 2.024325, -3.4026475, 0
973, 3362229031, -0.6181227, 0.31168872, 0.2613029, 0.67268753, 0.09509087, -2.2594295, -3.6446123, 0
974, 3362245698, -0.620435, 0.30171347, 0.25476676, 0.67759615, 1.4102834, -1.5466974, -4.1323633, 0
976, 3362279032, -0.6307752, 0.26851502, 0.25071418, 0.68350416, -0.6868153, -0.002653881, -6.697199, 0
977, 3362295699, -0.6374486, 0.25171345, 0.2502753, 0.68386775, -2.6649995, 0.4579906, -8.058634, 0
979, 3362329033, -0.64763993, 0.23778307, 0.23825353, 0.6835717, -3.736115, -0.6677361, -6.5095057, 0
980, 3362345700, -0.648049, 0.23119122, 0.23539767, 0.6864288, -3.5940866, -3.0067093, -2.7472267, 0
981, 3362362367, -0.64383835, 0.21897472, 0.23483324, 0.6945421, -3.5058239, -7.212803, 5.0384455, 0
983, 3362395701, -0.63980544, 0.20407164, 0.22997066, 0.7043654, -3.8112843, -10.042417, 9.00668, 0
984, 3362412368, -0.6358136, 0.19325167, 0.23123215, 0.71059114, -1.8608925, -11.979647, 7.920822, 0
985, 3362429035, -0.6322483, 0.17921329, 0.23908067, 0.71484154, -3.175744, -8.652299, 7.28623, 0
988, 3362479036, -0.6383301, 0.16423759, 0.25734183, 0.70664644, 2.9593544, 1.2252082, 4.8020287, 0
989, 3362495703, -0.6379051, 0.16528448, 0.26362112, 0.70446813, 8.999712, 5.7476873, 3.1975193, 0
991, 3362529037, -0.6394575, 0.16838479, 0.2628755, 0.7026026, 4.1149993, 2.0742848, 4.9702387, 0
992, 3362545704, -0.63990194, 0.16421762, 0.26291218, 0.7031704, -2.2708094, -1.7004975, 7.724346, 0
993, 3362562371, -0.63948584, 0.16089162, 0.26664254, 0.70291305, -3.9111762, -1.0893102, 6.991621, 0
995, 3362595705, -0.64233196, 0.1614325, 0.26614222, 0.70037895, 1.2049997, -0.7918247, 2.687624, 0
996, 3362612372, -0.6431972, 0.16255242, 0.26574427, 0.6994764, 1.8968614, -1.2223969, 2.935235, 0
997, 3362629039, -0.6438489, 0.16663256, 0.26537508, 0.6980554, 2.21527, -0.7323078, 2.0344276, 0
999, 3362662373, -0.6420964, 0.1758368, 0.26486734, 0.6976047, 1.7655746, 0.49919304, -0.8877964, 0
1000, 3362679040, -0.640663, 0.18015271, 0.2642372, 0.6980599, 0.5846667, 0.23773615, -1.3914442, 0
1001, 3362695707, -0.63901174, 0.18540749, 0.26332194, 0.69854337, -0.28785735, -0.027946942, -2.0239425, 0
1003, 3362729041, -0.63694924, 0.19844052, 0.26115036, 0.6976609, -0.7417373, 0.048233874, -3.098516, 0
1004, 3362745708, -0.6360385, 0.20602702, 0.25979865, 0.6967969, -0.46777368, -0.21300913, -2.4876065, 0
1005, 3362762375, -0.63529915, 0.21416228, 0.25935495, 0.69518197, -0.39902046, -0.38467702, -2.6917582, 0
1007, 3362795709, -0.63230515, 0.23033515, 0.26118395, 0.6920493, 0.28460816, 0.21367246, -2.9016137, 0
1008, 3362812376, -0.6303142, 0.23738329, 0.26244897, 0.69100434, 0.115060724, 0.16875212, -2.4159164, 0
1010, 3362845710, -0.6256748, 0.25022155, 0.26524204, 0.6896231, 0.006905265, 0.32455066, -1.4227762, 0
1011, 3362862377, -0.62312746, 0.2564458, 0.26750726, 0.6887679, -0.9259787, 0.14369982, -1.5975409, 0
1012, 3362879044, -0.62093246, 0.26298422, 0.26960745, 0.6874644, -0.37117133, 0.13616343, -1.1760664, 0
1015, 3362929045, -0.6146991, 0.2826549, 0.2760158, 0.68270034, 0.54405564, 0.550808, -0.99065876, 0
1016, 3362945712, -0.6129743, 0.28830734, 0.27912712, 0.6806194, 0.4941505, 0.7504623, -1.0474615, 0
1018, 3362979046, -0.6083462, 0.30013478, 0.2855916, 0.67696726, -0.15378663, 0.55349946, -0.9072933, 0
1019, 3362995713, -0.6062703, 0.30556393, 0.28867945, 0.67508864, -0.40260804, 0.3557108, -0.6989517, 0
1020, 3363012380, -0.6052673, 0.30989143, 0.29150596, 0.6727972, 0.28686434, 0.2969249, -0.25549603, 0
1022, 3363045714, -0.60366076, 0.31766164, 0.29757628, 0.66794175, 0.62946767, 0.35018066, -1.0406523, 0
1023, 3363062381, -0.60306317, 0.32102457, 0.30078667, 0.66543114, -0.53098285, 0.34443873, -1.0328846, 0
1024, 3363079048, -0.60239667, 0.32467848, 0.30351877, 0.66301715, 0.3474102, 0.016655738, -0.3599348, 0
1026, 3363112382, -0.6018208, 0.33020097, 0.3085618, 0.6584693, -0.30338538, 0.51697236, -0.022330284, 0
1027, 3363129049, -0.6026687, 0.33217356, 0.31049344, 0.65578836, 0.14674358, 0.7331689, -0.0262537, 0
1030, 3363179050, -0.6033512, 0.33556676, 0.31890047, 0.6493676, -0.37802032, 0.0961061, -0.17601967, 0
1031, 3363195717, -0.6037778, 0.33588934, 0.32235387, 0.64709514, -0.56125546, 0.067784995, 0.27279472, 0
1033, 3363229051, -0.6050895, 0.33796242, 0.3270974, 0.64239275, 0.12192017, -0.034196924, 0.5419979, 0
1034, 3363245718, -0.60606205, 0.33911842, 0.3290364, 0.6398714, 0.13321339, 0.059424497, 0.19574165, 0
1035, 3363262385, -0.606082, 0.3406693, 0.33062235, 0.63820916, 0.3017768, 0.21351749, -0.053580284, 0
1037, 3363295719, -0.60396606, 0.34372196, 0.3335536, 0.63705206, 0.062263165, -0.41573957, 0.14348507, 0
1038, 3363312386, -0.6022193, 0.34526238, 0.3340808, 0.63759625, -0.013710508, -0.45765674, 0.36621952, 0
1039, 3363329053, -0.6009326, 0.34674925, 0.3349746, 0.6375345, 0.14960349, -0.14459053, 0.24940109, 0
1041, 3363362387, -0.59892106, 0.35125542, 0.33540854, 0.6367319, 0.33611426, 0.036964573, -0.6055908, 0
1043, 3363395721, -0.5957154, 0.3568977, 0.33561343, 0.63649356, -0.4152174, 0.067311935, -0.5946121, 0
1046, 3363445722, -0.5882883, 0.36391634, 0.33690864, 0.63873905, -0.45388898, -0.149096, 0.16702747, 0
1047, 3363462389, -0.58587784, 0.36607596, 0.33740252, 0.6394593, -0.50410813, -0.09331711, 0.178998, 0
1049, 3363495723, -0.5821777, 0.37104625, 0.33766508, 0.6398356, -0.42484802, -0.13417539, 0.18107033, 0
1050, 3363512390, -0.58084506, 0.37363818, 0.3376466, 0.63954777, -0.44938475, 0.15707977, 0.1283474, 0
1051, 3363529057, -0.57949585, 0.37582636, 0.33740196, 0.6396188, -0.58750594, 0.23081054, 0.16816235, 0
1053, 3363562391, -0.57602584, 0.37984285, 0.3360196, 0.6411065, -0.3598982, 0.44482845, 0.42671108, 0
1054, 3363579058, -0.5748749, 0.3810195, 0.33532423, 0.64180505, -0.122089595, 0.51729333, 0.37604237, 0
1055, 3363595725, -0.5736798, 0.38230816, 0.3342983, 0.6426428, -0.18690796, 0.3285143, 0.08525944, 0
1057, 3363629059, -0.5713713, 0.38452575, 0.333116, 0.6439888, -0.052312985, 0.48869622, 0.27412128, 0
1058, 3363645726, -0.5701895, 0.38567793, 0.3327549, 0.644534, 0.108192734, 0.44512537, 0.2643137, 0
1061, 3363695727, -0.57017356, 0.3850242, 0.3344673, 0.6440525, -0.6404265, 1.0074371, 0.4279194, 0
1062, 3363712394, -0.5718869, 0.38368553, 0.33623528, 0.64240956, -0.671345, 1.204268, 0.48687553, 0
1064, 3363745728, -0.5759199, 0.38275987, 0.33877742, 0.63800794, 0.47437584, 0.118578985, 0.04366398, 0
1065, 3363762395, -0.57822526, 0.38251728, 0.3400611, 0.63537997, 0.73868513, -0.10328813, -0.43678474, 0
1066, 3363779062, -0.5807649, 0.38152096, 0.34091154, 0.6332033, 0.64853406, -0.18244413, -0.54108715, 0
1069, 3363829063, -0.58706367, 0.3760848, 0.3431093, 0.6294487, 0.024415996, 0.14329617, 0.769227, 0
1070, 3363845730, -0.58829576, 0.37488332, 0.34271398, 0.62923044, 0.2953859, -0.10634523, 0.8374052, 0
1072, 3363879064, -0.5903499, 0.3708243, 0.3409953, 0.6306439, 0.84124434, 0.6338326, 0.2946329, 0
1073, 3363895731, -0.5914459, 0.36711282, 0.3404184, 0.63209856, 0.6624392, 1.023839, -0.2832203, 0
1074, 3363912398, -0.5921311, 0.36332303, 0.33973238, 0.6340128, 0.10338541, 0.86168325, -0.8316307, 0
1076, 3363945732, -0.5928236, 0.35627833, 0.33468392, 0.64002025, 0.56857675, 0.042952597, -0.6228523, 0
1077, 3363962399, -0.5929373, 0.35401842, 0.33117056, 0.6429897, 1.2468053, -0.22464539, -0.844964, 0
1078, 3363979066, -0.5937404, 0.35061854, 0.32851973, 0.6454666, 1.1308646, -0.083374806, -0.8251562, 0
1080, 3364012400, -0.5977092, 0.33577, 0.32566524, 0.6511203, -0.24025866, 1.1747477, -1.5860214, 0
1081, 3364029067, -0.60137725, 0.3253682, 0.3237242, 0.6539855, -0.65173006, 1.4441881, -2.4760113, 0
1082, 3364045734, -0.6048964, 0.31647307, 0.31967944, 0.657087, 0.26582295, 1.3390107, -4.6374073, 0
1084, 3364079068, -0.6115214, 0.30354235, 0.30563828, 0.6637034, 0.72089463, -1.0453814, -3.794032, 0
1087, 3364129069, -0.6209402, 0.2739519, 0.28931835, 0.6750493, -0.46341544, 0.263174, -5.8599157, 0
1088, 3364145736, -0.62330914, 0.26334426, 0.2876547, 0.6777932, -1.5254681, 0.6025728, -7.122927, 0
1091, 3364195737, -0.6197494, 0.24045967, 0.29062212, 0.6882164, -5.84191, -2.309357, 1.522502, 0
1092, 3364212404, -0.6149472, 0.22995938, 0.29039407, 0.6961632, -4.3763285, -5.261249, 7.845001, 0
1093, 3364229071, -0.613554, 0.2231758, 0.2850143, 0.70180076, -2.5998876, -9.347729, 12.364973, 0
1095, 3364262405, -0.6114722, 0.21050781, 0.27960923, 0.70966214, -1.9162642, -7.5005045, 8.910633, 0
1097, 3364295739, -0.61186635, 0.19887719, 0.28889868, 0.70895576, -5.381371, -1.2848535, 3.3419504, 0
1099, 3364329073, -0.6157906, 0.1989613, 0.284167, 0.7074452, 6.0224, 0.56278557, 5.5270786, 0
1100, 3364345740, -0.6158924, 0.20074165, 0.28287628, 0.7073708, 7.652785, 2.799135, 4.9139805, 0
1101, 3364362407, -0.61648524, 0.20134972, 0.2831601, 0.70656765, 4.7530746, 2.6306343, 3.8328934, 0
1103, 3364395741, -0.6168115, 0.19702838, 0.2875391, 0.7057321, -5.28275, 1.646282, 2.524107, 0
1104, 3364412408, -0.6207181, 0.19567764, 0.28656608, 0.70307344, -2.4312031, 0.8174394, 0.9972744, 0
1107, 3364462409, -0.6277612, 0.2108249, 0.27535743, 0.6968933, 1.9225335, -2.7493525, 0.067834854, 0
1108, 3364479076, -0.6282307, 0.21470106, 0.27579573, 0.6951113, 2.7381666, -1.5171217, -0.16534328, 0
1109, 3364495743, -0.6271806, 0.21989931, 0.27678812, 0.6940391, 2.4815817, 0.32140493, -1.3024502, 0
1111, 3364529077, -0.6224031, 0.23017004, 0.27893075, 0.6941518, -0.13170882, 1.6328993, -2.2112079, 0
1112, 3364545744, -0.62010944, 0.2345902, 0.27864957, 0.6948376, -0.8718621, 1.631587, -2.1623902, 0
1114, 3364579078, -0.61487657, 0.24577695, 0.27489737, 0.69711196, 0.113531, 0.18795204, -1.8102369, 0
1115, 3364595745, -0.61262923, 0.25304818, 0.2716961, 0.69774383, -0.2780913, 0.09468903, -1.6365194, 0
1116, 3364612412, -0.6116844, 0.259223, 0.26960632, 0.6971166, 0.25631768, 0.31168664, -1.7797613, 0
1118, 3364645746, -0.6096609, 0.27186966, 0.26723975, 0.69497955, 0.09788732, 0.4638609, -2.1830554, 0
1119, 3364662413, -0.60951465, 0.27657458, 0.2671125, 0.6932982, 0.46826717, 0.5507242, -2.0824628, 0
1123, 3364729081, -0.6023684, 0.29614326, 0.2648105, 0.69234395, -0.64084333, 0.67415637, -0.521986, 0
1124, 3364745748, -0.60052377, 0.300122, 0.26499408, 0.69216275, -0.47799698, 0.38601056, -0.4889183, 0
1126, 3364779082, -0.5973182, 0.30706048, 0.26763976, 0.6908741, -0.53609705, 0.37127313, -0.5384369, 0
1127, 3364795749, -0.5954107, 0.31116843, 0.2689418, 0.69017667, -0.7506215, 0.13213684, -0.6699915, 0
1128, 3364812416, -0.5929583, 0.31622168, 0.26946342, 0.68978775, -0.8958426, -0.15288745, -1.041647, 0
1130, 3364845750, -0.5899067, 0.3238413, 0.2712462, 0.6881683, -0.52547616, -0.08243415, -0.70495415, 0
1131, 3364862417, -0.58917713, 0.32709876, 0.2732615, 0.6864532, -0.536086, 0.3469016, -0.79160595, 0
1132, 3364879084, -0.5889536, 0.33012766, 0.2757601, 0.6841921, -0.98605555, 0.30152178, -0.76734257, 0
1134, 3364912418, -0.5889893, 0.33466047, 0.2820898, 0.6793618, -1.0107702, 0.37603575, -0.37151814, 0
1135, 3364929085, -0.5895548, 0.33576715, 0.28583598, 0.6767545, -0.8363971, -0.13176423, -0.4844103, 0
1138, 3364979086, -0.592217, 0.33963373, 0.29378384, 0.6690532, -0.035161383, -0.59854513, 0.6735811, 0
1139, 3364995753, -0.5929296, 0.34102565, 0.29548043, 0.6669638, 0.27601543, -1.2224506, 0.35275364, 0
1140, 3365012420, -0.59350085, 0.34151486, 0.2975568, 0.66528004, 0.043906048, -0.75965875, 0.15791798, 0
1142, 3365045754, -0.59352225, 0.34252778, 0.30171105, 0.6628648, 0.09739974, -0.2823315, 8.8882446E-4, 0
1143, 3365062421, -0.59306353, 0.3430307, 0.30393112, 0.6620006, -0.26353037, -0.61816126, 0.17007732, 0
1145, 3365095755, -0.591686, 0.34510413, 0.30662164, 0.66091377, -0.16182886, -1.0129675, 1.1361332, 0
1146, 3365112422, -0.5909768, 0.34635064, 0.30705827, 0.66069347, 0.07862403, -1.0718608, 0.8480301, 0
1147, 3365129089, -0.59082484, 0.3474122, 0.30732965, 0.6601457, 0.033214863, -0.56099117, 0.48435593, 0
1149, 3365162423, -0.59090614, 0.34988406, 0.3072332, 0.6588113, -0.31130913, -0.02322389, -0.22139645, 0
1150, 3365179090, -0.5905543, 0.35138598, 0.30711693, 0.65838134, -0.33226538, -0.2030946, -0.47180843, 0
1151, 3365195757, -0.5898929, 0.35306954, 0.3067382, 0.6582501, -0.16585957, -0.48793525, -0.4163742, 0
1153, 3365229091, -0.5879861, 0.3568542, 0.3063817, 0.6580811, -0.054466587, -0.5224261, -0.42044735, 0
1154, 3365245758, -0.58752024, 0.35828662, 0.30657104, 0.65763056, -0.10785059, -0.19023634, 0.2521963, 0
1155, 3365262425, -0.58729523, 0.35963956, 0.30710548, 0.65684325, -0.3653273, -0.104182854, -0.35852528, 0
1157, 3365295759, -0.5873309, 0.36242008, 0.3080126, 0.6548555, -0.046759523, -0.058413323, 0.8056793, 0
1158, 3365312426, -0.58672535, 0.36528143, 0.3076527, 0.653977, 0.7112114, -0.4870667, -0.07242012, 0
1159, 3365329093, -0.5874424, 0.36686152, 0.30712742, 0.6526946, -0.08196566, -0.6551911, 1.0381031, 0
1161, 3365362427, -0.5838285, 0.3722817, 0.30457795, 0.6540613, 0.5304334, -0.76445913, 0.21417522, 0
1162, 3365379094, -0.5827602, 0.37368992, 0.30287135, 0.6550027, 0.3715611, -0.39703345, 0.16060448, 0
1165, 3365429095, -0.5802655, 0.37172094, 0.30221167, 0.6586325, -0.0054741115, 2.1608615, -0.2802, 0
1166, 3365445762, -0.5794297, 0.3731354, 0.3012259, 0.65902007, 0.54571843, 2.1830425, -0.87446976, 0
1168, 3365479096, -0.577315, 0.37692764, 0.30039853, 0.6590955, 1.3354514, 1.1611524, -0.76305866, 0
1169, 3365495763, -0.57628745, 0.3786206, 0.300537, 0.6589613, 1.1131374, 0.84827536, -0.6779766, 0
1170, 3365512430, -0.5751262, 0.3806776, 0.30012763, 0.6589773, 1.1050881, 0.9007468, -0.5744591, 0
1172, 3365545764, -0.57218766, 0.3847375, 0.29626995, 0.6609204, 1.4899544, 0.104055, -0.5711098, 0
1173, 3365562431, -0.5706622, 0.38543758, 0.29353172, 0.6630496, 1.5131836, 0.017695632, -0.23750973, 0
1176, 3365612432, -0.56283337, 0.38835746, 0.28627264, 0.6711618, 0.62230927, 0.44086176, 1.3543034, 0
1177, 3365629099, -0.5584566, 0.39045322, 0.28256488, 0.67516136, 1.0135688, -0.5641123, 1.3550396, 0
1178, 3365645766, -0.55415714, 0.3912782, 0.2785269, 0.67988765, 1.350062, -0.75668883, 1.278575, 0
1182, 3365712434, -0.53853035, 0.39204568, 0.27092525, 0.6949088, -1.546477, 1.348085, -1.1647902, 0
1184, 3365745768, -0.5347966, 0.3908236, 0.2728466, 0.697723, -1.4221576, 1.1914473, -1.1704359, 0
1185, 3365762435, -0.5340098, 0.39082152, 0.2726866, 0.6983891, -0.59887993, 1.4985065, -1.541215, 0
1186, 3365779102, -0.5333018, 0.39066908, 0.27337626, 0.6987456, 0.083127484, 0.84192806, -2.3346672, 0
1188, 3365812436, -0.53530467, 0.38751182, 0.28041732, 0.6961772, 0.39411187, 0.17459759, -1.3783264, 0
1189, 3365829103, -0.53880763, 0.38545308, 0.28509262, 0.69271034, 0.18054885, 0.50153726, -0.69142246, 0
1190, 3365845770, -0.54197997, 0.38529828, 0.28837568, 0.6889525, 0.55658084, 0.2632541, -0.30617523, 0
1192, 3365879104, -0.5473852, 0.38625902, 0.29398304, 0.68173355, 0.75711286, -0.241009, -0.5959778, 0
1193, 3365895771, -0.5493245, 0.3856986, 0.2968278, 0.67925376, 0.33739784, -0.3295068, -1.1934633, 0
1194, 3365912438, -0.5510844, 0.38417602, 0.3006959, 0.6769862, -0.023110569, 1.7244024E-4, -0.8451929, 0
1197, 3365962439, -0.5576812, 0.3837182, 0.30933216, 0.6678914, 2.312577, 0.18286322, 2.488964, 0
1199, 3365995773, -0.5616645, 0.38930243, 0.30928487, 0.6613114, 2.409755, -0.92602146, 2.561678, 0
1200, 3366012440, -0.5637031, 0.38979653, 0.308699, 0.65955704, 1.0596372, -1.0813276, 2.0619345, 0
1201, 3366029107, -0.5656972, 0.38852042, 0.3084973, 0.65869665, -0.67365426, -0.2397011, 2.1647825, 0
1203, 3366062441, -0.5695232, 0.38251227, 0.30918467, 0.65859383, -1.4348911, -0.124493584, 1.2905159, 0
1204, 3366079108, -0.5717411, 0.37860054, 0.31094515, 0.6581036, -1.4384177, -0.4091429, 0.1372118, 0
1205, 3366095775, -0.5738404, 0.37470734, 0.31385362, 0.6571231, -1.119873, -0.22945091, -0.9766426, 0
1207, 3366129109, -0.57796764, 0.36888692, 0.3212158, 0.65323, 0.35293707, -0.61804414, -1.507514, 0
1208, 3366145776, -0.58025056, 0.36749476, 0.32393306, 0.6506439, 0.82923585, -1.7594451, -0.6859894, 0
1209, 3366162443, -0.5829199, 0.3666082, 0.32529333, 0.6480743, 1.1285605, -2.650961, 0.448287, 0
1212, 3366212444, -0.587154, 0.36470404, 0.32507372, 0.64543116, -0.08038286, -0.29306984, -0.08441353, 0
1213, 3366229111, -0.5858762, 0.36482948, 0.32493424, 0.64659053, -0.11596417, -0.30259576, -0.26826763, 0
1215, 3366262445, -0.5827269, 0.36549783, 0.32501298, 0.64901483, 0.14024806, -0.42553815, 0.048151016, 0
1216, 3366279112, -0.58135325, 0.36667314, 0.32467532, 0.6497525, 0.17684686, -0.33475077, 0.07125473, 0
1217, 3366295779, -0.57998085, 0.36821204, 0.3242341, 0.6503289, 0.07135592, 0.02975807, 0.17385197, 0
1219, 3366329113, -0.5758024, 0.37275445, 0.32301077, 0.65206075, 0.15635362, 0.014357913, -0.366395, 0
1220, 3366345780, -0.5743427, 0.3746622, 0.3229857, 0.65226686, 0.085071884, 0.71856654, 0.03586483, 0
1222, 3366379114, -0.57198036, 0.37926334, 0.3214231, 0.65245545, 0.21709982, -0.07533124, -0.041350365, 0
1223, 3366395781, -0.5719929, 0.37951383, 0.32105678, 0.65247923, -0.4518758, -0.25060207, -0.42700195, 0
1224, 3366412448, -0.57308364, 0.37800908, 0.3213994, 0.6522268, -0.45407814, 0.60512745, -0.3693695, 0
1226, 3366445782, -0.5762364, 0.3763198, 0.32187837, 0.65018654, 0.73964804, 1.1116179, 0.05926609, 0
1227, 3366462449, -0.57799155, 0.37643048, 0.32093573, 0.6490297, 1.3070977, 0.6134237, 0.059503555, 0
1228, 3366479116, -0.58041066, 0.37583366, 0.32023048, 0.6475633, 1.3573897, 0.3789443, -0.012470245, 0
1230, 3366512450, -0.5862181, 0.37114766, 0.31801516, 0.6461248, 0.9226747, 0.81001174, -0.28799248, 0
1231, 3366529117, -0.58805084, 0.36774626, 0.31640843, 0.64719224, 0.7852502, 0.88516307, -0.24515247, 0
1232, 3366545784, -0.59073085, 0.36389074, 0.314563, 0.64783025, 0.92879087, 1.0966144, -0.5027294, 0
1234, 3366579118, -0.5959556, 0.35728374, 0.30650952, 0.65057695, 1.6052736, 0.53282374, -1.9363408, 0
1235, 3366595785, -0.59783757, 0.35444418, 0.30242866, 0.6523111, 1.4419878, -0.11538678, -2.446319, 0
1236, 3366612452, -0.6002074, 0.34937382, 0.29788452, 0.6549558, 0.5319548, -1.4407694, -2.3710032, 0
1239, 3366662453, -0.6125304, 0.3253624, 0.2819782, 0.6629082, 0.19178149, 0.14388368, -4.276093, 0
1240, 3366679120, -0.6169615, 0.31697756, 0.2749718, 0.6657984, 0.8235047, -0.14046682, -5.522673, 0
1242, 3366712454, -0.6256868, 0.30083412, 0.2620079, 0.6703581, 0.522495, -4.8183603, -3.575729, 0
1243, 3366729121, -0.6301486, 0.2907422, 0.25418204, 0.6736369, 0.24595265, -4.5073256, -1.8484159, 0
1244, 3366745788, -0.6341414, 0.27985582, 0.24392256, 0.6782776, -1.2645768, -3.9843414, -1.1256943, 0
1246, 3366779122, -0.6401796, 0.26425245, 0.22143409, 0.6865279, -5.2209272, -8.01074, 0.32627773, 0
1247, 3366795789, -0.6436966, 0.2604504, 0.2118288, 0.6877224, -4.6678395, -9.6597185, 0.86599255, 0
1249, 3366829123, -0.6548931, 0.2579927, 0.19145614, 0.6840414, -1.4356843, -7.0861, 2.3712578, 0
1250, 3366845790, -0.65943706, 0.26018846, 0.18142019, 0.68157524, -1.8227664, -3.622052, 2.0125628, 0
1251, 3366862457, -0.6608967, 0.2668712, 0.17061473, 0.68036693, -1.6837198, -0.10191744, 3.971325, 0
1254, 3366912458, -0.667373, 0.28683874, 0.16034931, 0.66830987, 1.5175982, 11.226021, 3.9487658, 0
1255, 3366929125, -0.67332345, 0.28430042, 0.16198662, 0.66300994, 0.81091774, 6.9395, 6.8703747, 0
1257, 3366962459, -0.67970985, 0.2875622, 0.17039463, 0.6529023, 2.1361065, -3.360654, 7.6979485, 0
1258, 3366979126, -0.6790443, 0.28920493, 0.17172135, 0.6525216, 1.4011406, -1.0380863, 5.308361, 0
1259, 3366995793, -0.6770497, 0.29056683, 0.17201674, 0.65390986, 0.037524473, 0.7853519, 4.2008266, 0
1261, 3367029127, -0.6748538, 0.28988796, 0.17454597, 0.65580815, -2.5013077, 1.4952443, 4.9781895, 0
1262, 3367045794, -0.6760533, 0.28935486, 0.17848155, 0.65374553, -2.3233674, 1.3828849, 3.9936008, 0
1263, 3367062461, -0.6782515, 0.2884413, 0.18373045, 0.6504098, -0.74697524, 0.27592003, 2.416976, 0
1265, 3367095795, -0.6813528, 0.28801554, 0.194588, 0.64416945, 1.2246479, -0.8957053, -0.3058796, 0
1266, 3367112462, -0.68138736, 0.28898892, 0.19963318, 0.6421499, 0.92427266, -1.1448054, -1.141654, 0
1269, 3367162463, -0.68021965, 0.29072657, 0.21801002, 0.6366036, 0.26951492, -0.9997742, -2.0436563, 0
1270, 3367179130, -0.67918235, 0.29084668, 0.22440602, 0.6354327, 0.44049564, -1.3738729, -1.6832199, 0
1271, 3367195797, -0.6788577, 0.28995875, 0.23191914, 0.63348466, -0.54193157, -0.87086684, -1.4194527, 0
1273, 3367229131, -0.67795956, 0.2910006, 0.24785295, 0.6279106, -1.358398, -0.090388194, -1.600709, 0
1274, 3367245798, -0.67772114, 0.2941662, 0.2564096, 0.6232397, 0.49970955, -1.145179, -1.820858, 0
1276, 3367279132, -0.6744151, 0.30178744, 0.27440307, 0.6154712, 1.6550678, -1.4497291, -2.014556, 0
1277, 3367295799, -0.67063785, 0.30482388, 0.28407937, 0.61370957, 1.9089758, -0.9406127, -2.2486439, 0
1278, 3367312466, -0.6666602, 0.30698296, 0.29303342, 0.61275625, 1.0857357, -0.7895528, -1.7683077, 0
1280, 3367345800, -0.65938085, 0.30951488, 0.31079632, 0.6106033, 0.027469743, -1.1125443, -0.3970251, 0
1281, 3367362467, -0.6565906, 0.311121, 0.31869477, 0.6087194, 0.1976539, -0.57182115, -0.39535332, 0
1284, 3367412468, -0.6509218, 0.31939998, 0.3367594, 0.6007418, 0.70230013, -0.53182685, -1.2284603, 0
1285, 3367429135, -0.6476368, 0.32296196, 0.340895, 0.60005516, 0.9310824, -0.44595417, -0.6094761, 0
1286, 3367445802, -0.64370847, 0.32645592, 0.34462205, 0.6002623, 1.3676252, -0.019234966, -1.1917763, 0
1288, 3367479136, -0.6351498, 0.3308208, 0.35257092, 0.6023698, 1.3946801, -0.31238583, -0.36156273, 0
1289, 3367495803, -0.63007605, 0.33321798, 0.35501546, 0.6049358, 1.1255751, 0.051473357, -0.42471027, 0
1290, 3367512470, -0.6248484, 0.33580014, 0.35837328, 0.6069468, 0.3394802, 0.64545846, -0.8256359, 0
1292, 3367545804, -0.6131455, 0.34425145, 0.36178806, 0.6120998, 0.16205226, 0.09114948, -0.6867399, 0
1293, 3367562471, -0.6077788, 0.34896058, 0.3627432, 0.61421674, 0.43659502, 0.5363668, -0.8050184, 0
1294, 3367579138, -0.6020324, 0.353642, 0.3627408, 0.6171926, 0.65321594, 0.4360702, -0.036222458, 0
1296, 3367612472, -0.5919018, 0.36239836, 0.36381137, 0.62126803, 0.2042762, 1.0094227, -0.16730976, 0
1297, 3367629139, -0.5876696, 0.36507273, 0.36548385, 0.62273675, -0.7286829, 1.4236958, -0.14649582, 0
1298, 3367645806, -0.58390677, 0.3674451, 0.36749002, 0.6236996, -1.1797254, 1.7555925, -0.63619995, 0
1300, 3367679140, -0.5788857, 0.37129095, 0.37044775, 0.6243525, -1.3725321, 1.3544731, -0.59809685, 0
1301, 3367695807, -0.5769985, 0.3733064, 0.37139225, 0.62433666, -0.85933936, 0.71545315, -0.36555386, 0
1303, 3367729141, -0.57455933, 0.37618962, 0.3719988, 0.62449414, -0.0012086463, -0.2690439, 0.6424904, 0
1304, 3367745808, -0.5742631, 0.37743226, 0.3728656, 0.62349904, 0.086082324, -0.20970164, 0.9257822, 0
1305, 3367762475, -0.57430005, 0.378747, 0.37390324, 0.6220448, -0.15205598, -0.15001675, 0.6874981, 0
1307, 3367795809, -0.5752262, 0.3803302, 0.37699988, 0.618343, -0.65495074, 0.34168616, 0.5562067, 0
1308, 3367812476, -0.57566416, 0.38055146, 0.37879506, 0.6167, -0.4845963, 0.44163376, 0.5788126, 0
1311, 3367862477, -0.57318705, 0.3828256, 0.3837548, 0.6145296, 0.17895542, 0.011146032, -0.29698372, 0
1312, 3367879144, -0.5723641, 0.38296956, 0.3850932, 0.6143696, 0.19449024, -0.12923887, 0.14215183, 0
1313, 3367895811, -0.57140523, 0.38298404, 0.38589853, 0.6147477, 0.0697946, -0.06503512, 0.09338951, 0
1315, 3367929145, -0.5704724, 0.38242134, 0.38752842, 0.6149393, 0.14318419, 0.89677334, -0.38454056, 0
1316, 3367945812, -0.5696087, 0.3828485, 0.38834038, 0.6149616, 0.047871143, 1.0102593, -1.3192177, 0
1317, 3367962479, -0.5687541, 0.38368797, 0.38828862, 0.61526215, 0.41113108, 0.10899643, -0.58821106, 0
1319, 3367995813, -0.5689129, 0.38485873, 0.38933492, 0.61372083, 0.12867697, 0.27464825, -0.02870369, 0
1320, 3368012480, -0.5696361, 0.3853091, 0.38967487, 0.61255074, -0.071312815, 0.08215912, 0.4054327, 0
1321, 3368029147, -0.5706433, 0.38560873, 0.39005637, 0.6111804, -0.27111238, 0.5398656, 0.8715353, 0
1323, 3368062481, -0.5709903, 0.38709044, 0.39062613, 0.60955346, -0.081232205, 0.2807649, 0.6894417, 0
1325, 3368095815, -0.57089174, 0.387319, 0.39152914, 0.6089208, 0.25299165, 0.19115834, 0.5453043, 0
1327, 3368129149, -0.57051456, 0.3873272, 0.39188313, 0.60904175, 0.32124367, 0.056073144, 0.08753681, 0
1328, 3368145816, -0.5697655, 0.38742885, 0.39189315, 0.60967124, 0.22657418, 0.23493235, -0.15650749, 0
1329, 3368162483, -0.5686432, 0.38764638, 0.39185938, 0.61060184, 0.075594984, 0.3512401, -0.099577904, 0
1331, 3368195817, -0.56638974, 0.3881384, 0.39027697, 0.6133908, 0.4008307, 0.092542745, -0.31900883, 0
1332, 3368212484, -0.56586, 0.38782904, 0.38869762, 0.61507595, 0.26581326, 0.067025945, -0.25244522, 0
1334, 3368245818, -0.5648296, 0.3868311, 0.3861791, 0.6182299, -0.23133558, 0.4788327, 0.1938572, 0
1335, 3368262485, -0.5641444, 0.38653877, 0.38520682, 0.61964333, -0.36011368, 0.45201886, 0.32613564, 0
1336, 3368279152, -0.5635814, 0.3865958, 0.3842734, 0.62069863, -0.28875908, 0.20484862, 0.20722198, 0
1338, 3368312486, -0.5639081, 0.38571903, 0.38242257, 0.622089, -0.22246456, 0.61324847, -0.097159386, 0
1340, 3368345820, -0.5645392, 0.3848399, 0.38183016, 0.6224249, -0.053595837, 0.12631734, -0.21360779, 0
1342, 3368379154, -0.5652826, 0.38320813, 0.38106513, 0.6232252, -0.36141172, -0.025808593, 0.58219624, 0
1343, 3368395821, -0.5655997, 0.38216153, 0.38000548, 0.62422645, -0.08090688, -0.12679107, 0.8423481, 0
1344, 3368412488, -0.5661469, 0.3806712, 0.37907523, 0.6252059, -0.15602545, -0.00608514, 0.3969202, 0
1346, 3368445822, -0.56649953, 0.37739375, 0.37771183, 0.62769365, -0.16868366, 0.2069245, -0.33306885, 0
1347, 3368462489, -0.56646323, 0.37586385, 0.37742573, 0.6288156, 0.04411727, -0.21438268, -0.66236115, 0
1348, 3368479156, -0.56715953, 0.3737262, 0.37696326, 0.62973857, 0.09681911, -0.005078326, -0.44573593, 0
1350, 3368512490, -0.570596, 0.36793405, 0.37392223, 0.63185465, 0.0758527, 0.8786529, 0.63712883, 0
1351, 3368529157, -0.5721473, 0.36540204, 0.37203687, 0.6330328, 0.23121779, 1.1785042, 0.49824047, 0
1352, 3368545824, -0.57307816, 0.36361527, 0.36992133, 0.63445777, 0.49390954, 0.99552226, 0.17416191, 0
1355, 3368595825, -0.57534766, 0.35694093, 0.36255237, 0.64041954, 0.74974513, 0.3415773, 0.429492, 0
1357, 3368629159, -0.57899135, 0.35032007, 0.35659066, 0.64412826, 0.085630834, 1.4309641, 0.10791397, 0
1358, 3368645826, -0.5808891, 0.34739196, 0.3535359, 0.6456875, 0.011188164, 1.6710438, -0.21221733, 0
1359, 3368662493, -0.58288336, 0.34426963, 0.34968218, 0.6476581, 0.3651559, 1.5376278, -0.28099346, 0
1361, 3368695827, -0.58627534, 0.33843082, 0.33819014, 0.653748, 1.8154856, 1.9326957, -1.1070929, 0
1362, 3368712494, -0.5878809, 0.33567315, 0.33162752, 0.6570816, 1.443683, 1.014825, -2.7985168, 0
1363, 3368729161, -0.58999765, 0.3312882, 0.3245601, 0.66092724, 1.2037125, 0.269814, -3.4775305, 0
1365, 3368762495, -0.5959701, 0.3184815, 0.3102209, 0.6687043, -0.8374424, 0.7597704, -1.3118048, 0
1366, 3368779162, -0.6001797, 0.310036, 0.3000898, 0.67351437, -1.5275445, 0.036899753, -1.4420433, 0
1367, 3368795829, -0.6051925, 0.30085737, 0.28938055, 0.67786354, 0.35144725, 1.875229, -5.2268205, 0
1369, 3368829163, -0.6157461, 0.2790317, 0.27097785, 0.68526065, -2.2282202, -4.6439404, -6.10475, 0
1370, 3368845830, -0.6214776, 0.2677617, 0.2625128, 0.6878731, -1.4832463, -3.154731, -5.637982, 0
1371, 3368862497, -0.6254094, 0.25777197, 0.250563, 0.6925662, -0.78818065, -3.6529405, -4.6181006, 0
1373, 3368895831, -0.6287133, 0.23849848, 0.22607258, 0.7047996, -0.4907329, -4.464874, -5.4329176, 0
1374, 3368912498, -0.6301546, 0.22676502, 0.21581498, 0.71057737, -3.340625, -8.396679, -1.3654709, 0
1375, 3368929165, -0.63219404, 0.21640858, 0.20466352, 0.71527886, -7.2893496, -10.010129, 1.9895878, 0
1377, 3368962499, -0.6450594, 0.21374412, 0.18271142, 0.71052194, -6.6136136, -5.2700696, 2.9026928, 0
1378, 3368979166, -0.65158254, 0.21937475, 0.17482156, 0.70481604, -2.626755, -1.8308139, 3.2141323, 0
1379, 3368995833, -0.65562904, 0.23018786, 0.16793582, 0.69926727, -2.4641953, -1.3658744, 5.8405266, 0
1382, 3369045834, -0.653369, 0.26123974, 0.16581878, 0.690927, 3.32789, 9.439982, 3.3975039, 0
1383, 3369062501, -0.6566296, 0.26337358, 0.16293189, 0.68770516, 2.6894233, 1.2229719, 8.38464, 0
1385, 3369095835, -0.6557488, 0.2738247, 0.1600762, 0.68512946, -0.5635518, 2.1926408, 7.4948196, 0
1386, 3369112502, -0.65216327, 0.27761596, 0.15761858, 0.68759143, -2.2404299, 2.4730344, 7.0108395, 0
1388, 3369145836, -0.65001655, 0.27949193, 0.15859051, 0.68864, -3.9727309, 2.9285142, 5.8085604, 0
1389, 3369162503, -0.6512334, 0.2793063, 0.16140603, 0.6869094, -3.0168867, 2.4109528, 4.4600935, 0
1390, 3369179170, -0.65318406, 0.278269, 0.16606475, 0.684363, -1.80036, 1.5727235, 3.3677063, 0
1392, 3369212504, -0.6558099, 0.27727556, 0.18028489, 0.67863274, 0.55751354, -0.5847281, 0.22472668, 0
1393, 3369229171, -0.65680146, 0.27686065, 0.18781817, 0.675794, 1.0847709, -1.3232921, -1.157732, 0
1394, 3369245838, -0.65716076, 0.27674094, 0.19484976, 0.67349917, 1.0038557, -1.5158472, -1.1728811, 0
1397, 3369295839, -0.6499438, 0.28297937, 0.2192151, 0.670413, 0.9125487, -2.7510364, -2.1042337, 0
1398, 3369312506, -0.64574206, 0.28575996, 0.22733915, 0.6705883, 0.7357677, -2.681952, -1.7163982, 0
1400, 3369345840, -0.63854444, 0.29028678, 0.24429622, 0.6695725, -1.3735249, -0.4397688, -1.0884533, 0
1401, 3369362507, -0.63537586, 0.29431027, 0.25074866, 0.66844404, -0.49941847, -0.88921756, -0.6840248, 0
1402, 3369379174, -0.6321662, 0.2999525, 0.25779444, 0.66629565, -0.06381044, 0.38204923, -1.1448278, 0
1404, 3369412508, -0.6277233, 0.3108683, 0.27093643, 0.66025066, 0.3211199, -0.4027357, -1.1320257, 0
1405, 3369429175, -0.62521386, 0.31532243, 0.2773862, 0.6578369, -0.16783878, -0.7019011, -0.39240074, 0
1406, 3369445842, -0.6223026, 0.31949234, 0.28402016, 0.6557513, -0.64668345, 0.052682564, -0.44141293, 0
1408, 3369479176, -0.6145813, 0.32887655, 0.2951673, 0.6534672, 0.1266849, -0.18334477, -1.2226925, 0
1409, 3369495843, -0.6112822, 0.33249855, 0.2989878, 0.65299165, 0.68720216, -0.984847, -0.6811409, 0
1412, 3369545844, -0.6008213, 0.34144595, 0.30940756, 0.65322936, -0.33764505, 1.2714385, -1.2021646, 0
1413, 3369562511, -0.59628683, 0.34610265, 0.3119392, 0.6537295, 0.16247861, 1.0133857, -0.9765959, 0
1415, 3369595845, -0.5856011, 0.35664552, 0.3159254, 0.6558047, 0.932601, 0.58083117, -2.1491308, 0
1416, 3369612512, -0.581039, 0.36025208, 0.31785452, 0.656958, 0.8258853, 0.06001971, -1.277915, 0
1417, 3369629179, -0.57632923, 0.36325103, 0.31957212, 0.6586199, 0.5792162, 0.46433398, -0.75912094, 0
1419, 3369662513, -0.5679417, 0.36921704, 0.32314128, 0.6608434, 0.43375266, 0.65251666, -0.972085, 0
1420, 3369679180, -0.5644319, 0.37204307, 0.32519317, 0.66125876, 0.6677048, 1.4337004, -1.5855408, 0
1421, 3369695847, -0.5614357, 0.37467802, 0.3261171, 0.66186637, 0.5100415, 1.3271267, -1.3018084, 0
1423, 3369729181, -0.5578488, 0.37980515, 0.32589632, 0.6620858, 1.3022151, 1.4334443, -0.42584515, 0
1424, 3369745848, -0.5560193, 0.3830234, 0.3263073, 0.6615683, 1.2408977, 2.0009909, -0.75591755, 0
1427, 3369795849, -0.5523599, 0.39076126, 0.33026272, 0.6581367, -0.33440018, 0.9622693, -0.4579401, 0
1428, 3369812516, -0.55281293, 0.39166498, 0.33270454, 0.6559858, -0.6313349, 0.85770595, 0.31002808, 0
1429, 3369829183, -0.5539863, 0.39237615, 0.33491012, 0.6534437, -0.6700662, 0.6291252, 0.6705389, 0
1431, 3369862517, -0.5560565, 0.3939138, 0.33907562, 0.6485938, 0.5902255, 0.42439064, 0.50181675, 0
1432, 3369879184, -0.55650723, 0.39501232, 0.34157097, 0.6462256, 0.87860554, -0.030908601, 0.40110016, 0
1433, 3369895851, -0.55661666, 0.3964035, 0.34464929, 0.6436398, 1.2713147, -0.22148447, 0.20354939, 0
1435, 3369929185, -0.55666983, 0.39959884, 0.3517506, 0.63774943, 0.45762798, -0.3097704, 0.07448387, 0
1436, 3369945852, -0.556796, 0.40079746, 0.3538692, 0.63571167, 0.17430049, -0.36736208, 0.22732353, 0
1438, 3369979186, -0.5554987, 0.4017403, 0.3557636, 0.63519406, 0.26028493, -0.32779035, 0.62163544, 0
1439, 3369995853, -0.5536462, 0.40302715, 0.35635984, 0.63566184, 0.29859006, -0.6091806, 0.48613644, 0
1440, 3370012520, -0.551121, 0.40448838, 0.35659093, 0.6367973, 0.27477458, -1.3293011, 0.5080757, 0
1442, 3370045854, -0.5462252, 0.40470555, 0.3575676, 0.6403203, -0.11525468, -0.55622554, 0.5348606, 0
1443, 3370062521, -0.54414237, 0.4041841, 0.35844496, 0.6419305, -0.5833698, -0.07467758, -0.11985016, 0
1444, 3370079188, -0.5419511, 0.4032713, 0.359551, 0.64373696, -0.58017844, 0.28268656, -0.6753874, 0
1446, 3370112522, -0.5362444, 0.40252513, 0.36036602, 0.64850986, 0.3966441, 0.23928224, -0.7065611, 0
1447, 3370129189, -0.5329786, 0.40263033, 0.36011407, 0.65127105, 0.81189257, 0.45353886, -0.669611, 0
1448, 3370145856, -0.53029305, 0.4025631, 0.35895738, 0.65413696, 1.0086727, 0.32639357, -0.5053749, 0
1450, 3370179190, -0.5277357, 0.4027538, 0.3580599, 0.6565749, -0.020932939, 0.18161668, 0.15410423, 0
1451, 3370195857, -0.527731, 0.40336886, 0.35798424, 0.65624243, -0.6801203, 0.20640159, 0.5239868, 0
1454, 3370245858, -0.5339714, 0.4026162, 0.3581724, 0.6515371, -0.8530926, 0.6537077, 1.1476278, 0
1455, 3370262525, -0.53642017, 0.40238532, 0.35692874, 0.6503496, -0.021646783, 0.09129085, 1.0701075, 0
1456, 3370279192, -0.5386722, 0.4017213, 0.35598487, 0.64941543, 0.573023, -0.1762992, 0.4722805, 0
1458, 3370312526, -0.5434632, 0.39658418, 0.35431528, 0.6494944, 0.31734163, -0.39219472, -0.5485077, 0
1459, 3370329193, -0.54672253, 0.39185923, 0.3543358, 0.6496153, -0.071161665, 0.31146508, -0.68770695, 0
1460, 3370345860, -0.55065763, 0.38715377, 0.35381174, 0.6493986, 0.20135583, 1.0220389, -0.4212942, 0
1462, 3370379194, -0.55832916, 0.38085836, 0.34628254, 0.65062815, 1.2198273, 0.99903876, -0.9224825, 0
1463, 3370395861, -0.5619938, 0.37728938, 0.34149027, 0.65208375, 1.2143401, -0.15674104, -2.0291352, 0
1465, 3370429195, -0.5725194, 0.36261544, 0.33344665, 0.65540695, -0.19073272, 0.37633434, -1.6498842, 0
1466, 3370445862, -0.5786588, 0.35336676, 0.32801503, 0.6578033, -0.1569609, 0.82807034, -0.36873627, 0
1469, 3370495863, -0.5907372, 0.3289736, 0.30166256, 0.67217475, 1.7029556, 0.6802479, -4.451169, 0
1470, 3370512530, -0.59505033, 0.31949118, 0.2920897, 0.6771539, 0.7729808, -1.3242146, -3.2808013, 0
1471, 3370529197, -0.6015999, 0.30751324, 0.28145772, 0.6814016, 0.11727853, -0.9251444, -2.5879498, 0
1473, 3370562531, -0.6139945, 0.28667343, 0.25379223, 0.6902405, 1.2365828, 0.026004028, -6.2286453, 0
1474, 3370579198, -0.61691606, 0.27701536, 0.24139196, 0.69600314, 0.7331252, -2.4155571, -6.7351446, 0
1475, 3370595865, -0.6184392, 0.26702556, 0.23086865, 0.7020991, -0.52959794, -5.7222257, -3.7245607, 0
1477, 3370629199, -0.6226818, 0.24432579, 0.21128327, 0.7127025, -4.453901, -6.0475674, 4.3097267, 0
1478, 3370645866, -0.6263362, 0.23898025, 0.20094717, 0.7143003, -5.0457907, -6.0141835, 4.586009, 0
1479, 3370662533, -0.6303005, 0.23836368, 0.19124708, 0.71368194, -3.9038973, -4.963611, 3.8007412, 0
1481, 3370695867, -0.6322839, 0.24793933, 0.17466442, 0.71291566, -2.5113952, -0.35158613, 2.1523094, 0
1483, 3370729201, -0.6306528, 0.2626669, 0.16631168, 0.7110813, -1.7206347, 8.920741, 4.3947573, 0
1485, 3370762535, -0.62993956, 0.26566926, 0.17154974, 0.7093517, 0.34817234, 2.943966, 8.928745, 0
1486, 3370779202, -0.6318718, 0.26841217, 0.17219849, 0.7064374, 1.3048203, -0.999079, 9.450529, 0
1487, 3370795869, -0.63346744, 0.27202573, 0.17212921, 0.7036376, 2.3547716, 0.97873986, 6.1850386, 0
1489, 3370829203, -0.6318523, 0.2754168, 0.17021333, 0.7042364, -0.3023444, 0.4771549, 3.2728863, 0
1490, 3370845870, -0.6303135, 0.27326396, 0.17149055, 0.70614165, -1.7171429, 1.1465276, 2.7896156, 0
1492, 3370879204, -0.6293732, 0.2700854, 0.17719671, 0.7067941, -2.6416411, 1.5680437, 2.469201, 0
1493, 3370895871, -0.62989086, 0.26974702, 0.18250518, 0.70510924, -2.1934063, 1.2110462, 1.46523, 0
1494, 3370912538, -0.63067514, 0.27012607, 0.18911344, 0.70251703, -0.80876154, 0.93509394, 0.08613396, 0
1496, 3370945872, -0.63169384, 0.27113315, 0.20204398, 0.6975968, 1.1262593, -0.33498424, -1.739666, 0
1498, 3370979206, -0.634336, 0.2692101, 0.21786603, 0.69115216, 0.36969694, -1.0613276, -2.2007198, 0
1500, 3371012540, -0.6365829, 0.26750767, 0.23217988, 0.68506014, 0.1732379, -0.7501867, -3.0297146, 0
1501, 3371029207, -0.63716304, 0.26735726, 0.23874635, 0.68231714, 0.16186523, -0.09224391, -2.189824, 0
1502, 3371045874, -0.63574886, 0.2690197, 0.24573615, 0.6804989, -0.24178705, 0.7004923, -1.5582199, 0
1504, 3371079208, -0.63420653, 0.26784304, 0.2606417, 0.67684656, 1.189616, -0.5812643, -1.825521, 0
1505, 3371095875, -0.6352636, 0.2654186, 0.2686534, 0.67367023, 0.3291497, -0.04254938, -1.5562296, 0
1506, 3371112542, -0.63667417, 0.2656176, 0.2748949, 0.6697308, 0.52686965, 0.08290498, -1.5287981, 0
1508, 3371145876, -0.6391953, 0.26951468, 0.2886169, 0.6599278, 0.6435273, 0.056553025, -2.1274033, 0
1509, 3371162543, -0.6398648, 0.2714913, 0.29440477, 0.65589994, 1.201535, 0.26652858, -1.0137806, 0
1510, 3371179210, -0.63958746, 0.27287862, 0.29979354, 0.6531479, 1.6361997, -0.4703751, -0.7294874, 0
1512, 3371212544, -0.6359009, 0.27717885, 0.30993873, 0.6501947, 1.4850413, -1.0450777, -0.07030964, 0
1513, 3371229211, -0.6343403, 0.27924168, 0.3152006, 0.6483041, 1.4765972, -2.036578, -0.38479996, 0
1514, 3371245878, -0.63230515, 0.2798125, 0.32108736, 0.64715624, 0.43912485, -1.8137367, -0.8116932, 0
1516, 3371279212, -0.62826365, 0.28103274, 0.33006132, 0.6460481, -0.27099013, 0.048561096, -0.37925243, 0
1517, 3371295879, -0.62516767, 0.2832907, 0.33257055, 0.646778, -0.10246694, 1.0218914, -0.9025345, 0
1518, 3371312546, -0.6213399, 0.28631783, 0.33385772, 0.64846826, 0.26426485, 0.5035557, -0.2637272, 0
1520, 3371345880, -0.6133818, 0.29319048, 0.33556268, 0.6520835, 0.39850616, -0.54608107, 1.1547136, 0
1521, 3371362547, -0.609745, 0.29602715, 0.33641043, 0.6537738, 0.29427558, -0.52324206, 0.7100506, 0
1523, 3371395881, -0.60580945, 0.29909855, 0.33867118, 0.65486634, -0.69728374, 0.21164967, 0.63958454, 0
1525, 3371429215, -0.6041144, 0.3035574, 0.3374103, 0.6550316, -0.3252271, 0.44732252, 0.71534634, 0
1527, 3371462549, -0.6026501, 0.3083499, 0.33617055, 0.6547792, 0.34922782, 0.69736165, 0.34237194, 0
1528, 3371479216, -0.60157204, 0.30998576, 0.3362555, 0.65495455, 0.38171342, 1.3830767, 0.87320995, 0
1529, 3371495883, -0.6001869, 0.31132174, 0.3357969, 0.65582633, 0.059452433, 0.50003034, 1.297987, 0
1531, 3371529217, -0.5968853, 0.31228453, 0.33354536, 0.6595202, -0.16305114, -0.5247822, 2.3061533, 0
1532, 3371545884, -0.5946869, 0.31303233, 0.33196884, 0.6619427, 0.028197166, -0.79846585, 1.7168636, 0
1533, 3371562551, -0.5924467, 0.3140398, 0.3305623, 0.6641747, 0.34647024, -0.35237476, 0.45816898, 0
1535, 3371595885, -0.58850133, 0.31673914, 0.32811105, 0.6676067, 0.007701027, -0.00945348, -1.7896824, 0
1536, 3371612552, -0.5866543, 0.31727162, 0.32772776, 0.669166, -0.8393127, -0.25275293, -2.4123082, 0
1537, 3371629219, -0.58496165, 0.3177212, 0.3275364, 0.67052686, -1.2921284, 0.09341691, -1.9230857, 0
1540, 3371679220, -0.5795819, 0.32833648, 0.32750443, 0.67010003, -0.11664756, 1.3591352, -1.5025606, 0
1541, 3371695887, -0.57640934, 0.33490825, 0.32678193, 0.6699371, 0.6390218, 1.1259419, -1.6751509, 0
1543, 3371729221, -0.5708503, 0.347507, 0.32526952, 0.6690156, 1.4994148, -0.6931588, -2.026031, 0
1544, 3371745888, -0.56908786, 0.35119772, 0.3252517, 0.6685985, 1.2391897, -0.71435827, -1.2953262, 0
1546, 3371779222, -0.5675292, 0.357424, 0.32474127, 0.6668697, -0.44070804, 1.0364898, -0.8441477, 0
1547, 3371795889, -0.5664119, 0.36208075, 0.32358706, 0.6658677, -0.4902157, 1.2212766, -0.93883896, 0
1550, 3371845890, -0.55970615, 0.3804504, 0.31715125, 0.66439056, 1.0969976, 0.48480463, -0.7545967, 0
1551, 3371862557, -0.5564266, 0.38567868, 0.3149797, 0.6651634, 1.193048, 0.1876066, -1.0086098, 0
1552, 3371879224, -0.55383253, 0.38910973, 0.3133008, 0.6661223, 0.7991633, 0.5028885, -1.2577038, 0
1554, 3371912558, -0.5513818, 0.39378324, 0.3108778, 0.66654426, 0.15232642, 2.359892, -0.93220425, 0
1556, 3371945892, -0.54987645, 0.39794436, 0.31009442, 0.6656809, 0.2796664, 1.9660151, -0.18305683, 0
1558, 3371979226, -0.55105644, 0.3975894, 0.3095952, 0.6651491, 0.6073336, 1.4736115, 1.3184099, 0
1559, 3371995893, -0.55112296, 0.39778754, 0.30953664, 0.6650028, 0.5598615, 1.0423185, 1.9837885, 0
1560, 3372012560, -0.5507922, 0.39819992, 0.30986258, 0.6648783, -0.07935101, 0.62659097, 1.8243427, 0
1562, 3372045894, -0.5477475, 0.4002391, 0.30782762, 0.66711086, 0.26479983, -1.3656555, 0.84205437, 0
1563, 3372062561, -0.54578704, 0.4004565, 0.30654934, 0.6691725, 0.070628144, -1.7333809, 1.0694923, 0
1564, 3372079228, -0.5438297, 0.40062043, 0.30510256, 0.6713258, 0.18359415, -1.5000559, 0.9516611, 0
1566, 3372112562, -0.5418425, 0.39986748, 0.30251837, 0.67454326, -1.247903, -0.5408997, 1.0839281, 0
1567, 3372129229, -0.54177916, 0.39940774, 0.3016301, 0.6752639, -2.0722353, -0.063148, 0.8489113, 0
1568, 3372145896, -0.5420476, 0.3990983, 0.300698, 0.6756469, -1.4770762, 0.28026536, 0.29697418, 0
1571, 3372195897, -0.5438983, 0.39881185, 0.2958145, 0.6764841, 0.3916944, -0.3100641, 0.12952328, 0
1572, 3372212564, -0.54526097, 0.3984573, 0.295116, 0.67590094, 0.1840441, -0.35121173, -0.011136055, 0
1574, 3372245898, -0.54963005, 0.3965511, 0.29399565, 0.6739686, -0.16248117, -0.032513537, 0.17365932, 0
1575, 3372262565, -0.55157644, 0.39563507, 0.2930166, 0.67334306, -0.16903765, -0.19928505, 0.31467152, 0
1577, 3372295899, -0.55335695, 0.39491802, 0.29188913, 0.6727927, 0.22417438, -0.2967473, -0.0049533844, 0
1578, 3372312566, -0.55335027, 0.39514858, 0.29171008, 0.67274034, 0.72309077, -0.3010969, -0.5700598, 0
1579, 3372329233, -0.5536835, 0.394928, 0.2922679, 0.6723536, 0.42860642, 0.03946222, -1.10713, 0
1581, 3372362567, -0.55465525, 0.39425796, 0.2921154, 0.672012, 0.39620936, 1.0186353, -0.6847763, 0
1582, 3372379234, -0.55441856, 0.39425963, 0.29225743, 0.6721446, 0.60857946, 1.0759348, -0.1848793, 0
1583, 3372395901, -0.5537114, 0.39445856, 0.29340923, 0.6721089, 0.52081007, 0.98933274, -0.5826893, 0
1585, 3372429235, -0.55117553, 0.395256, 0.29474872, 0.6731378, 0.83277225, 0.5183575, -0.4951439, 0
1586, 3372445902, -0.54922724, 0.39599097, 0.29460788, 0.67435884, 1.1379927, 0.7704153, -0.73769474, 0
1587, 3372462569, -0.54713225, 0.39687908, 0.29383874, 0.67587364, 1.6368734, 0.51780266, -0.77375984, 0
1589, 3372495903, -0.54374975, 0.39786866, 0.29124457, 0.67913663, 0.86234593, -0.03338613, 0.39319038, 0
1590, 3372512570, -0.5426663, 0.3972966, 0.28981963, 0.68094534, -0.13815525, -0.13255659, 0.8422346, 0
1591, 3372529237, -0.54156095, 0.39680612, 0.2882452, 0.6827771, -0.7773834, 0.583444, 1.1076431, 0
1593, 3372562571, -0.5379248, 0.3986735, 0.28389725, 0.68637586, -0.46780127, 0.29785693, -0.18687916, 0
1594, 3372579238, -0.5359627, 0.4001747, 0.2819506, 0.68783814, 0.022188075, -0.1264919, -0.5547371, 0
1595, 3372595905, -0.53476375, 0.4009629, 0.28110078, 0.6886597, -0.09677647, 0.24284616, -0.97026443, 0
1598, 3372645906, -0.5346005, 0.39875135, 0.28267977, 0.6894239, -0.91901684, 0.9781611, 0.5607643, 0
1600, 3372679240, -0.5344061, 0.3990245, 0.28237727, 0.68954027, 0.14640881, -0.7496353, 0.4972849, 0
1601, 3372695907, -0.53440857, 0.39920276, 0.28221464, 0.68950176, 0.73848283, -1.1130236, 0.19396591, 0
1602, 3372712574, -0.53544164, 0.3978424, 0.2834294, 0.6889881, 0.09199553, -0.43400753, -0.021993637, 0
1604, 3372745908, -0.53936005, 0.39541772, 0.28354198, 0.68727934, 0.3572716, 0.41578415, 0.35179234, 0
1605, 3372762575, -0.541193, 0.39395425, 0.28344136, 0.6867199, 0.3684279, 0.5949022, 0.28046608, 0
1606, 3372779242, -0.54302716, 0.392304, 0.28347737, 0.6862017, 0.4985566, 0.559518, -0.055737495, 0
1608, 3372812576, -0.5467243, 0.38814372, 0.2842149, 0.6853263, 0.4985217, 0.4285757, -0.56409454, 0
1609, 3372829243, -0.5481893, 0.38657957, 0.28368437, 0.6852598, 1.0406703, 0.1920372, -0.78684616, 0
1610, 3372845910, -0.5491282, 0.38514283, 0.282947, 0.6856219, 1.6476891, 0.058554135, -0.56952095, 0
1613, 3372895911, -0.5514991, 0.38193992, 0.28371882, 0.68519163, 0.6353871, 0.2527545, -1.4522743, 0
1614, 3372912578, -0.55268526, 0.38039616, 0.28429505, 0.68485576, 0.3148337, 0.43730935, -1.6250362, 0
1616, 3372945912, -0.5551466, 0.37690505, 0.28538695, 0.6843408, 0.07188227, 0.34787545, -0.6958151, 0
1617, 3372962579, -0.55398804, 0.37732446, 0.28584552, 0.68485683, 0.9244123, -0.34638628, -1.0364208, 0
1618, 3372979246, -0.5531261, 0.37665096, 0.28652662, 0.68563926, 0.36684355, -1.2841518, -0.04511738, 0
1620, 3373012580, -0.55115604, 0.372906, 0.286694, 0.6891938, 0.32318583, -0.78523654, 0.7586851, 0
1621, 3373029247, -0.550702, 0.3691603, 0.28630936, 0.69172853, -0.07692684, -0.13914844, 0.9634304, 0
1622, 3373045914, -0.55087084, 0.36487183, 0.28457713, 0.69457847, 0.20917761, 0.8492166, 0.745553, 0
1624, 3373079248, -0.55293083, 0.3549957, 0.27989927, 0.6999395, -0.4621915, 0.60260254, 0.058829308, 0
1625, 3373095915, -0.55411583, 0.35098615, 0.27582246, 0.70263755, -0.3085185, -0.4840069, -0.7868042, 0
1628, 3373145916, -0.559621, 0.3349241, 0.26400524, 0.71060884, -0.5900512, -0.5407353, -2.2219377, 0
1629, 3373162583, -0.56242526, 0.3271099, 0.25933123, 0.7137488, -0.69577295, -0.120633654, -1.9533987, 0
1631, 3373195917, -0.5690034, 0.31037614, 0.24928346, 0.7195643, -1.0507071, 1.0206238, -2.8109407, 0
1632, 3373212584, -0.57240474, 0.30274856, 0.2424072, 0.7224596, -1.4845314, 0.68341017, -3.1684704, 0
1633, 3373229251, -0.57423234, 0.29603696, 0.2360478, 0.7258885, -1.4089323, 0.5456006, -3.42345, 0
1635, 3373262585, -0.5775994, 0.27296382, 0.22729293, 0.7349971, -2.155827, -2.2661805, -0.47253513, 0
1636, 3373279252, -0.58048445, 0.2580676, 0.22784764, 0.73792785, -2.7070858, -3.463896, -0.36221027, 0
1637, 3373295919, -0.58337736, 0.24320692, 0.2301693, 0.73997056, -5.507511, -2.6882386, 0.9023714, 0
1639, 3373329253, -0.58831596, 0.22421612, 0.22600846, 0.7433336, -4.6545177, -3.5646267, 2.4192877, 0
1640, 3373345920, -0.5880452, 0.21919669, 0.2218752, 0.74628437, -2.4291666, -4.889743, 2.3742695, 0
1643, 3373395921, -0.58475393, 0.20276317, 0.22473603, 0.7526332, 4.2557898, -2.2789555, 5.009348, 0
1644, 3373412588, -0.5827402, 0.20055528, 0.23202135, 0.7525761, 7.4928036, 3.3871331, 5.553893, 0
1645, 3373429255, -0.58156586, 0.20343915, 0.23309952, 0.7523772, 9.422706, 7.363543, 3.437767, 0
1647, 3373462589, -0.5813178, 0.20039475, 0.2310485, 0.7540168, -2.6033854, 3.0562325, 5.5262594, 0
1648, 3373479256, -0.58288145, 0.19825749, 0.22819549, 0.75424355, -5.568363, -0.4839174, 7.805517, 0
1649, 3373495923, -0.5873505, 0.1973655, 0.2235946, 0.75238615, -0.073843315, -2.1571097, 6.0116262, 0
1651, 3373529257, -0.59180963, 0.1941999, 0.21691494, 0.7516707, 2.7084968, -3.9968202, 4.578701, 0
1652, 3373545924, -0.59086996, 0.19388378, 0.21549398, 0.7528993, 2.236399, -2.8623188, 3.5367146, 0
1653, 3373562591, -0.5898234, 0.19353217, 0.2155133, 0.75380427, 0.9117621, -1.1627382, 1.916009, 0
1655, 3373595925, -0.58919847, 0.19479448, 0.21430418, 0.75431234, 0.4028821, 1.5211822, -0.9777527, 0
1656, 3373612592, -0.59054637, 0.19750807, 0.21232855, 0.7531103, 0.6114836, 1.1109537, -2.1645107, 0
1658, 3373645926, -0.59602964, 0.20457762, 0.209073, 0.7477958, 0.6627307, 0.07984425, -2.1747942, 0
1659, 3373662593, -0.5982447, 0.20944513, 0.2076586, 0.7450686, 0.70233434, -0.23986556, -2.1847296, 0
1660, 3373679260, -0.5992606, 0.21499467, 0.20689791, 0.74287987, 0.22324239, -0.34044126, -2.352336, 0
1662, 3373712594, -0.6019756, 0.22539762, 0.20961592, 0.7368144, -0.52587384, 0.29276025, -2.6889472, 0
1663, 3373729261, -0.6046009, 0.23059149, 0.21231878, 0.73226976, 0.07452914, 0.91899025, -2.3798923, 0
1664, 3373745928, -0.60726714, 0.23551084, 0.21527988, 0.7276189, 0.18470342, 0.922824, -2.262782, 0
1666, 3373779262, -0.61042017, 0.24730536, 0.21936667, 0.71980464, 0.45967323, 0.683378, -1.6409941, 0
1667, 3373795929, -0.61028343, 0.25438398, 0.22044495, 0.71711946, 0.32963127, 0.4610023, -1.9063239, 0
1670, 3373845930, -0.61137366, 0.27001584, 0.23062171, 0.7072061, 0.5413674, 0.4176257, -0.28254986, 0
1671, 3373862597, -0.6116343, 0.2746259, 0.23553222, 0.703578, 0.32797888, 1.0243099, -0.6050682, 0
1672, 3373879264, -0.6116003, 0.27965075, 0.23992735, 0.70013475, 0.18153778, 1.0734715, -0.82943344, 0
1674, 3373912598, -0.6084583, 0.29394037, 0.24485126, 0.6952976, 0.143268, -0.11130152, -0.9779415, 0
1675, 3373929265, -0.6074474, 0.29956543, 0.24847984, 0.6924877, 0.1987561, -0.44448757, -0.59773254, 0
1676, 3373945932, -0.6065271, 0.3039691, 0.2532821, 0.6896297, 0.27210477, -0.45070997, -0.68397236, 0
1678, 3373979266, -0.6036801, 0.31302792, 0.2649415, 0.68366873, -0.060768645, 0.7868375, -0.6681423, 0
1679, 3373995933, -0.60224843, 0.318338, 0.2702374, 0.68039894, 0.08083777, 0.5876611, -0.36135006, 0
1681, 3374029267, -0.59919965, 0.33164197, 0.27876163, 0.67325974, -0.035816163, 0.20296161, -0.05662155, 0
1682, 3374045934, -0.59843487, 0.33776295, 0.2830695, 0.66908646, -0.049864903, -0.14729102, 0.24683475, 0
1685, 3374095935, -0.5967364, 0.35232514, 0.29305062, 0.6587162, -0.10916166, 0.03386914, -0.67410374, 0
1686, 3374112602, -0.59619236, 0.35663757, 0.2958086, 0.65564847, 0.21923749, -0.05601134, -0.6704807, 0
1687, 3374129269, -0.5950382, 0.36156982, 0.2980081, 0.65299404, 0.6101818, 0.17952527, -0.8099985, 0
1689, 3374162603, -0.5924826, 0.37025198, 0.30265132, 0.6483001, 0.36956432, 0.5009951, -0.4201908, 0
1690, 3374179270, -0.59002393, 0.3744894, 0.30400062, 0.64747673, 0.20129281, 0.37665957, -0.08621311, 0
1691, 3374195937, -0.5879293, 0.37789854, 0.30526647, 0.64680547, 0.051494088, 0.4181513, 0.23711681, 0
1694, 3374245938, -0.5796217, 0.38647717, 0.30966315, 0.6471448, 0.09486398, 1.018817, 0.02319336, 0
1695, 3374262605, -0.5765132, 0.3902925, 0.31129676, 0.64684784, 0.33166426, 1.0735279, -0.27531242, 0
1697, 3374295939, -0.5695316, 0.39968404, 0.31371903, 0.6461268, 1.0167277, 1.2971727, -0.9877691, 0
1698, 3374312606, -0.5668926, 0.40299192, 0.31464934, 0.64594054, -0.15233849, 1.1483098, -0.11006451, 0
1701, 3374362607, -0.55770516, 0.4136058, 0.3173405, 0.64591277, 0.5455665, 0.29991192, 0.16191483, 0
1702, 3374379274, -0.55453295, 0.41648167, 0.31973857, 0.64561355, -0.5067491, -0.05423251, 0.6128664, 0
1703, 3374395941, -0.5513185, 0.418765, 0.32283476, 0.64534867, -1.1792289, -0.19697414, 0.9232435, 0
1705, 3374429275, -0.54685944, 0.42117074, 0.3279944, 0.644975, -1.2615784, 0.086596966, 1.7019491, 0
1706, 3374445942, -0.545281, 0.42207706, 0.32964718, 0.6448765, -0.74191236, 0.11875221, 1.2995358, 0
1707, 3374462609, -0.54482657, 0.42301506, 0.33097696, 0.6439641, -0.50241286, 0.16201124, 0.67820644, 0
1709, 3374495943, -0.5461238, 0.42563137, 0.33346668, 0.6398437, -0.5192846, 0.28987473, 0.066589355, 0
1710, 3374512610, -0.5471372, 0.4268474, 0.33515853, 0.6372789, -0.3692843, 0.45884484, -0.3838663, 0
1712, 3374545944, -0.5494138, 0.42848036, 0.33785015, 0.6327872, 0.10781042, 0.46069828, -0.6285715, 0
1713, 3374562611, -0.55047077, 0.42939264, 0.33913645, 0.6305581, 0.12694614, 0.4490287, -0.84949493, 0
1716, 3374612612, -0.55411184, 0.42928988, 0.3435172, 0.6250436, -0.50589067, 0.4288314, -0.38880444, 0
1717, 3374629279, -0.554558, 0.4287751, 0.34560758, 0.62384766, -0.14099114, 0.33700958, 0.039334297, 0
1718, 3374645946, -0.55443203, 0.4281901, 0.34688583, 0.623652, 0.12242335, -0.3522382, 0.26013184, 0
1720, 3374679280, -0.55344313, 0.42517006, 0.3468997, 0.626582, 0.4677544, 0.097062625, 0.5100622, 0
1721, 3374695947, -0.553741, 0.42253962, 0.3470415, 0.628018, 0.024339108, 0.48745537, -0.0044355392, 0
1722, 3374712614, -0.5546401, 0.41997522, 0.34654737, 0.62921643, -0.17418325, 0.77148706, 0.15508652, 0
1724, 3374745948, -0.5553174, 0.41838032, 0.34498942, 0.63053644, -0.014711735, 0.44204035, 0.0042333603, 0
1725, 3374762615, -0.5552853, 0.41722393, 0.34446418, 0.631617, -0.18674418, 0.36889416, 0.051294327, 0
1726, 3374779282, -0.555004, 0.41455144, 0.34350133, 0.6341432, -0.08939216, 0.5452096, 0.21529293, 0
1728, 3374812616, -0.5550606, 0.4044806, 0.34013233, 0.64236003, -0.24173062, 0.7066986, -0.1481533, 0
1729, 3374829283, -0.5555147, 0.3999147, 0.336424, 0.646764, 0.37962094, 0.75960845, -0.6937742, 0
1730, 3374845950, -0.55558556, 0.39610592, 0.3315491, 0.6515468, 0.6696885, 0.13070546, -1.0146713, 0
1732, 3374879284, -0.55769587, 0.38385436, 0.32281536, 0.6613884, 0.41037443, 0.7204994, -1.8048563, 0
1733, 3374895951, -0.5602105, 0.374709, 0.31719705, 0.6672006, 0.26899716, 1.3244143, -2.2301245, 0
1735, 3374929285, -0.56845564, 0.3519171, 0.3056869, 0.67792434, 0.086647086, 0.9934716, -3.6521206, 0
1736, 3374945952, -0.57361215, 0.33996916, 0.29849845, 0.68286324, 0.030584339, 0.14694116, -3.9017167, 0
1737, 3374962619, -0.57902, 0.32773688, 0.2909741, 0.6875112, -0.37287542, -0.5093448, -3.9645505, 0
1739, 3374995953, -0.5873072, 0.3017851, 0.28034475, 0.6967181, -1.7909671, 0.36515048, -6.5327225, 0
1740, 3375012620, -0.59081787, 0.2889023, 0.2808947, 0.6989859, -3.606931, 0.9523763, -6.3388977, 0
1743, 3375062621, -0.5880567, 0.25447923, 0.29247063, 0.70986176, -5.7102838, -4.6686573, 6.2145004, 0
1744, 3375079288, -0.5891367, 0.2456153, 0.2909513, 0.71270716, -3.9985175, -7.8317266, 7.795727, 0
1745, 3375095955, -0.591702, 0.23925002, 0.28630483, 0.71462643, -0.07903536, -9.64895, 8.087982, 0
1747, 3375129289, -0.5958447, 0.21721202, 0.29293513, 0.71553487, -0.25679213, -4.363693, 6.7392883, 0
1748, 3375145956, -0.59962076, 0.21228018, 0.3019242, 0.7101036, -0.79226345, 1.0011301, 3.9599295, 0
1749, 3375162623, -0.60266256, 0.21229601, 0.30751976, 0.705105, 3.0893676, 5.2934537, 2.3832817, 0
1751, 3375195957, -0.60682476, 0.21170475, 0.3045367, 0.7030047, 5.4487076, 2.9858313, 5.21167, 0
1752, 3375212624, -0.60773796, 0.20724995, 0.30375686, 0.70387995, 0.14719602, -0.39573506, 8.72291, 0
1753, 3375229291, -0.60726905, 0.20334616, 0.30456322, 0.70507383, -0.8679501, -1.447655, 8.3139, 0
1755, 3375262625, -0.61061025, 0.19907618, 0.3053193, 0.70307696, 0.71689, -0.5390699, 1.6382542, 0
1757, 3375295959, -0.6155869, 0.2016316, 0.30124122, 0.69976026, 0.94904304, -2.2885866, 1.3228769, 0
1759, 3375329293, -0.616461, 0.20747562, 0.29897535, 0.6982526, 1.5442325, -0.9899249, -0.5354185, 0
1760, 3375345960, -0.61568606, 0.21161084, 0.2982958, 0.6979858, 0.7719276, -0.1598824, -1.5199833, 0
1762, 3375379294, -0.6134816, 0.2215923, 0.29680848, 0.69746333, -0.7255817, 1.1597167, -2.20822, 0
1763, 3375395961, -0.6127638, 0.22744356, 0.29567605, 0.6966913, -0.97026616, 1.1811578, -2.83322, 0
1764, 3375412628, -0.61136675, 0.23383637, 0.2940569, 0.6964877, -0.7222893, 0.96579343, -2.9217076, 0
1766, 3375445962, -0.60780615, 0.24722824, 0.28989795, 0.6967225, -0.5767169, 0.5939035, -2.100645, 0
