sep=,
DeviceTag:,Xsens_DOT_5,,,,,,,,,,,,,,,,,
FirmwareVersion:,3.0.0,,,,,,,,,,,,,,,,,
AppVersion:,2023.6.1,,,,,,,,,,,,,,,,,
SyncStatus:,Synced,,,,,,,,,,,,,,,,,
OutputRate:,60Hz,,,,,,,,,,,,,,,,,
FilterProfile:,General,,,,,,,,,,,,,,,,,
Measurement Mode:,Sensor fusion Mode - Extended (Quaternion),,,,,,,,,,,,,,,,,
StartTime:,2025-05-05 11:35:31.074 +0200,,,,,,,,,,,,,,,,,
 2025,,,,,,,,,,,,,,,,,,,

PacketCounter,SampleTimeFine,Quat_W,Quat_X,Quat_Y,Quat_Z,FreeAcc_X,FreeAcc_Y,FreeAcc_Z,Status
1, 1724096269, -0.9020629, 0.04683867, -0.2687629, 0.334449, -0.0633543, -0.0446594, -0.12250042, 0
2, 1724112936, -0.9020382, 0.046888426, -0.26884836, 0.3344399, -0.10988657, -0.036644474, -0.13453197, 0
3, 1724129603, -0.90202504, 0.046963915, -0.26890293, 0.3344211, -0.009951021, -0.00574378, -0.18097687, 0
4, 1724146270, -0.90201074, 0.04703953, -0.26896182, 0.33440164, 0.03944311, 0.05246623, -0.14001846, 0
5, 1724162937, -0.90198356, 0.047106594, -0.26901215, 0.334425, 0.0022995013, 0.08017239, -0.09519768, 0
6, 1724179604, -0.9019437, 0.047163956, -0.2690702, 0.33447766, -0.021055814, 0.055643383, -0.12489891, 0
7, 1724196271, -0.90190387, 0.047219034, -0.2691357, 0.33452493, -0.0910413, 0.030750548, -0.18296337, 0
8, 1724212938, -0.9018699, 0.047262978, -0.26917204, 0.33458072, -0.11310113, 0.010359295, -0.14834404, 0
9, 1724229605, -0.90184695, 0.047293156, -0.26918086, 0.33463097, -0.01852207, 0.029774915, -0.10969925, 0
10, 1724246272, -0.9018504, 0.04726307, -0.2691737, 0.33463165, 0.01330148, 0.054426577, -0.106939316, 0
11, 1724262939, -0.90186316, 0.0471909, -0.2691858, 0.33459774, -0.027440239, 0.08571431, -0.08907223, 0
12, 1724279606, -0.90186125, 0.047161505, -0.2692359, 0.3345669, -0.038515307, 0.04509843, -0.12577152, 0
13, 1724296273, -0.90185285, 0.04714881, -0.26928365, 0.33455297, -0.05000186, 0.023416363, -0.19269276, 0
14, 1724312940, -0.9018438, 0.04715701, -0.26931444, 0.3345513, 0.0056801345, 0.04591554, -0.14992523, 0
15, 1724329607, -0.90182585, 0.04719766, -0.26935378, 0.33456218, 0.02288594, 0.055929646, -0.1117506, 0
16, 1724346274, -0.901795, 0.047214992, -0.2694192, 0.3345907, 0.008288307, 0.056317303, -0.09642315, 0
17, 1724362941, -0.9017741, 0.047202803, -0.26952046, 0.334567, -0.008077758, 0.04871445, -0.0869894, 0
18, 1724379608, -0.9017568, 0.047188606, -0.26960972, 0.3345436, -0.04846096, 0.007295295, -0.13596153, 0
19, 1724396275, -0.90175843, 0.047150128, -0.26966515, 0.3344997, -0.041902866, -0.0031974367, -0.16170979, 0
20, 1724412942, -0.90176, 0.04711901, -0.2696998, 0.33447242, 0.009957279, 0.02755138, -0.14120007, 0
21, 1724429609, -0.90176, 0.047087405, -0.26973644, 0.33444706, -0.0029438892, 0.04932995, -0.114564896, 0
22, 1724446276, -0.9017745, 0.047008663, -0.26976722, 0.334394, -4.1796924E-5, 0.047161512, -0.09820366, 0
23, 1724462943, -0.9017882, 0.04691724, -0.26981255, 0.3343337, -0.03266709, 0.050556704, -0.13582993, 0
24, 1724479610, -0.9018033, 0.046841256, -0.2698388, 0.334282, -0.048718, 0.06197383, -0.14724064, 0
25, 1724496277, -0.9018283, 0.04676238, -0.26983142, 0.3342319, -0.042350117, 0.009762962, -0.121842384, 0
26, 1724512944, -0.90186274, 0.046642274, -0.26979887, 0.33418182, -0.054799788, 0.013968275, -0.090929985, 0
27, 1724529611, -0.90189147, 0.04647315, -0.2697976, 0.33412915, -0.07100627, -0.022078749, -0.16552734, 0
28, 1724546278, -0.9019095, 0.046255283, -0.2698343, 0.33408114, -0.08489805, -0.03188848, -0.16021824, 0
29, 1724562945, -0.90197, 0.046020538, -0.2698475, 0.3339394, -0.10170532, -0.026696304, -0.13517952, 0
30, 1724579612, -0.9020334, 0.045781694, -0.2698022, 0.33383778, -0.05939343, -0.008591503, -0.12725449, 0
31, 1724596279, -0.9020941, 0.045558702, -0.26970792, 0.33378047, 0.06142002, 0.02262443, -0.13429928, 0
32, 1724612946, -0.90214753, 0.045374226, -0.26958746, 0.33375826, 0.12916546, 0.022163795, -0.112309456, 0
33, 1724629613, -0.90217626, 0.04528873, -0.2694571, 0.33379734, 0.1236391, 0.071781605, -0.094760895, 0
34, 1724646280, -0.9021734, 0.045280166, -0.26935887, 0.33388555, 0.069232464, 0.11153527, -0.13225651, 0
35, 1724662947, -0.9021636, 0.045297466, -0.26928985, 0.3339655, -0.07216094, 0.08915135, -0.0962677, 0
36, 1724679614, -0.9021509, 0.045371786, -0.26924542, 0.33402532, -0.10889037, 0.09481076, -0.096585274, 0
37, 1724696281, -0.90213275, 0.045475736, -0.2692484, 0.3340579, -0.03883359, 0.08201752, -0.18665409, 0
38, 1724712948, -0.9021037, 0.045547634, -0.26932442, 0.33406514, -0.021274634, 0.06501023, -0.16783142, 0
40, 1724746282, -0.90205365, 0.045640297, -0.26949683, 0.33404863, -0.045678, 0.084040105, -0.17808914, 0
46, 1724846284, -0.90213484, 0.04540941, -0.26962122, 0.33376056, 0.010924866, 6.515962E-4, -0.1049633, 0
47, 1724862951, -0.9021812, 0.04530673, -0.26964378, 0.33363086, -0.047369994, 0.023157619, -0.12131214, 0
48, 1724879618, -0.9022306, 0.045280505, -0.26960215, 0.33353445, -0.025891293, 0.070114955, -0.15680122, 0
50, 1724912952, -0.9022656, 0.045479767, -0.26925352, 0.33369452, 0.061200753, 0.18023933, -0.25445747, 0
51, 1724929619, -0.902229, 0.04568661, -0.26906198, 0.33391982, 0.012504209, 0.23464997, -0.10611439, 0
52, 1724946286, -0.9021926, 0.0458619, -0.26898953, 0.3340521, -0.12402287, 0.23274772, 0.07382393, 0
54, 1724979620, -0.90211505, 0.0459199, -0.26948196, 0.33385676, -0.15344097, 0.07846959, -0.20131874, 0
55, 1724996287, -0.9021178, 0.045854293, -0.2698182, 0.33358675, -0.08314548, 0.04253896, -0.21295929, 0
56, 1725012954, -0.90215826, 0.04575132, -0.27008823, 0.33327302, -0.03765679, -0.104981884, -0.19045734, 0
59, 1725062955, -0.9023322, 0.045145933, -0.2704142, 0.33261958, 0.044228297, -0.12501554, -0.12122154, 0
60, 1725079622, -0.9024288, 0.044843227, -0.27050102, 0.33232743, 0.03999787, -0.21390875, -0.10211182, 0
62, 1725112956, -0.90259624, 0.044311162, -0.27069622, 0.33178484, 0.18427771, -0.18241155, -0.15196514, 0
63, 1725129623, -0.9026703, 0.044049066, -0.2707698, 0.33155817, 0.25274175, -0.17703162, -0.116456985, 0
64, 1725146290, -0.90270174, 0.043859582, -0.2708211, 0.3314553, 0.18188724, -0.19259131, -0.1141386, 0
66, 1725179624, -0.9026536, 0.043783255, -0.2710373, 0.3314202, 0.08914546, -0.30140838, -0.114515305, 0
67, 1725196291, -0.902646, 0.043815903, -0.2711711, 0.33132675, 0.057189144, -0.27237692, -0.10597801, 0
69, 1725229625, -0.9025553, 0.043844562, -0.27131703, 0.33145082, 0.20547211, -0.1723074, -0.16701889, 0
70, 1725246292, -0.9025044, 0.043862186, -0.271332, 0.33157483, 0.07323246, -0.16822714, -0.014334679, 0
74, 1725312960, -0.9025347, 0.043702666, -0.27116764, 0.33164752, 0.038701046, 0.061230034, -0.034295082, 0
77, 1725362961, -0.9026051, 0.043507703, -0.2706162, 0.3319322, -0.14712606, 0.06650234, -0.19922066, 0
78, 1725379628, -0.9026505, 0.0434413, -0.27036545, 0.3320222, -0.17883562, 0.14783838, -0.20040989, 0
79, 1725396295, -0.90267473, 0.043384448, -0.27008885, 0.33218816, -0.11924483, 0.25720817, -0.1797638, 0
81, 1725429629, -0.9027014, 0.04324443, -0.26978296, 0.33238274, -0.10679516, 0.24388286, -0.069773674, 0
82, 1725446296, -0.9026952, 0.043181848, -0.2697722, 0.33241624, -0.20155638, 0.26710156, -0.18325901, 0
83, 1725462963, -0.90268886, 0.043178644, -0.26973018, 0.3324679, -0.1728287, 0.29957503, -0.12613297, 0
85, 1725496297, -0.90262544, 0.043313064, -0.2696798, 0.3326635, -0.041522894, 0.28317198, -0.080182076, 0
86, 1725512964, -0.9025407, 0.043425396, -0.26979727, 0.3327838, -0.13454832, 0.20450337, -0.041085243, 0
89, 1725562965, -0.90229636, 0.043737218, -0.2704615, 0.33286637, -0.043834914, 0.107512034, -0.07959175, 0
90, 1725579632, -0.9022294, 0.04382891, -0.27068207, 0.33285642, -0.007076644, 0.10851461, -0.19192791, 0
93, 1725629633, -0.9020124, 0.04411809, -0.2712003, 0.33298445, -0.07153666, -0.023563266, -0.08965206, 0
94, 1725646300, -0.9019712, 0.04420947, -0.27134326, 0.3329674, -0.06169695, -0.0046311324, -0.1993761, 0
96, 1725679634, -0.9018906, 0.044483304, -0.27160093, 0.33293918, 0.13552886, 0.100094505, -0.072496414, 0
97, 1725696301, -0.9018663, 0.04460347, -0.27171126, 0.33289877, 0.07541148, 0.04935595, -0.084947586, 0
98, 1725712968, -0.9018368, 0.04471494, -0.27190372, 0.33280665, -0.017261459, -0.01752565, -0.12645721, 0
100, 1725746302, -0.90171504, 0.045047387, -0.2725361, 0.33257478, 0.03570083, 0.05812224, -0.02479744, 0
101, 1725762969, -0.9016535, 0.045293998, -0.2728049, 0.3324877, 0.21755388, 0.10712484, -0.015974998, 0
104, 1725812970, -0.9013631, 0.046234645, -0.27369705, 0.3324125, -0.12737243, -0.016930968, -0.10724449, 0
105, 1725829637, -0.90128094, 0.046535965, -0.27399537, 0.3323473, -0.003139463, -0.0024599277, -0.10638428, 0
106, 1725846304, -0.9012326, 0.04677345, -0.27434722, 0.33215466, -0.016860252, -0.004228027, -0.113264084, 0
109, 1725896305, -0.9010286, 0.047357786, -0.27541888, 0.33173847, 0.014038178, -0.07741061, -0.12594223, 0
110, 1725912972, -0.90098494, 0.04756293, -0.27565017, 0.33163524, -0.029448055, -0.1353737, -0.16089725, 0
112, 1725946306, -0.9009337, 0.047897518, -0.27593696, 0.3314876, 0.13442159, -0.026073402, -0.07224655, 0
113, 1725962973, -0.9008805, 0.04811617, -0.27610347, 0.3314619, 0.023460591, -0.030487977, -0.06282139, 0
114, 1725979640, -0.90081424, 0.04836899, -0.27627572, 0.33146212, -0.01544631, -0.04620281, -0.11515713, 0
116, 1726012974, -0.9006468, 0.04897467, -0.2766666, 0.3315019, 0.049105126, -0.06146841, -0.17948437, 0
118, 1726046308, -0.90051913, 0.049520135, -0.27685615, 0.33160955, -0.04940776, 0.021653404, -0.10755539, 0
120, 1726079642, -0.90041065, 0.04998742, -0.27702996, 0.33168843, -0.1756423, -0.0329526, -0.10182953, 0
121, 1726096309, -0.90038097, 0.050114416, -0.27711108, 0.3316818, -0.1519318, -0.0064607817, -0.15864182, 0
123, 1726129643, -0.900319, 0.050408244, -0.2771834, 0.3317456, 0.10304394, 0.15134877, -0.15817928, 0
125, 1726162977, -0.9001809, 0.05074594, -0.2773307, 0.33194587, -0.032314833, 0.04377057, -0.12736607, 0
127, 1726196311, -0.90002275, 0.051112555, -0.27759486, 0.33209732, -0.12124058, 0.014459752, -0.17156124, 0
128, 1726212978, -0.89998084, 0.05128615, -0.27763143, 0.33215347, -0.037015535, 0.098873526, -0.090753555, 0
129, 1726229645, -0.89993924, 0.051399775, -0.2776762, 0.33221123, 0.009597423, 0.07084503, -0.028571129, 0
131, 1726262979, -0.89980847, 0.05156104, -0.27810845, 0.33217892, 0.011371221, -0.070431836, -0.20232964, 0
133, 1726296313, -0.89970577, 0.051869687, -0.27857763, 0.33201623, 0.07014373, -0.013515018, -0.14577484, 0
135, 1726329647, -0.89952296, 0.052381814, -0.2790416, 0.3320414, 0.12023455, -0.07715156, -0.14221096, 0
136, 1726346314, -0.8994342, 0.052681506, -0.27932298, 0.33199772, 0.0447502, -0.009431772, 0.02753067, 0
137, 1726362981, -0.8993603, 0.052954666, -0.2795902, 0.33192986, 0.010225047, -0.04876463, -0.0926466, 0
139, 1726396315, -0.89917916, 0.05362021, -0.2801787, 0.33181736, 0.017817112, -0.012452242, -0.16938972, 0
140, 1726412982, -0.89910436, 0.05394104, -0.28044322, 0.33174452, -0.008716111, 0.0043043564, -0.046105385, 0
141, 1726429649, -0.89906526, 0.054192647, -0.28061906, 0.33166054, -0.07947897, -0.036997877, -0.020298958, 0
143, 1726462983, -0.8989464, 0.054608293, -0.28113192, 0.33148032, 0.06794079, 0.016297698, -0.13860703, 0
144, 1726479650, -0.8988671, 0.054833896, -0.28137168, 0.33145463, 0.17682467, 0.051674157, -0.085650444, 0
145, 1726496317, -0.89878184, 0.055033103, -0.28158668, 0.33147007, 0.04720303, -0.07346147, -0.13823605, 0
148, 1726546318, -0.8984743, 0.05545445, -0.2824735, 0.33147922, 0.034323767, -0.16062051, -0.08742142, 0
150, 1726579652, -0.8983588, 0.05569186, -0.28277782, 0.33149272, 0.16974089, -0.18004774, -0.18041801, 0
151, 1726596319, -0.89827186, 0.055838376, -0.28287676, 0.3316194, 0.13617237, -0.2296319, -0.20554352, 0
152, 1726612986, -0.8982035, 0.056046344, -0.2829552, 0.33170283, 0.13870521, -0.22435045, -0.15103817, 0
155, 1726662987, -0.89807314, 0.05657421, -0.28315362, 0.33179653, 0.03295989, -0.103696436, -0.11295509, 0
156, 1726679654, -0.8980542, 0.056666795, -0.28321233, 0.33178237, -0.008198008, -0.1008741, -0.06435871, 0
158, 1726712988, -0.8980832, 0.056662034, -0.28323284, 0.33168668, -0.14633885, -0.12798174, -0.24937534, 0
159, 1726729655, -0.89814234, 0.056637153, -0.28310826, 0.33163723, -0.07427, 0.010128182, -0.12503147, 0
160, 1726746322, -0.89820534, 0.056570698, -0.2829019, 0.33165416, 0.04750857, 0.12747991, -0.0945549, 0
163, 1726796323, -0.8984327, 0.05595512, -0.28241608, 0.33155668, -0.23772034, -0.04228401, -0.1314125, 0
164, 1726812990, -0.89851743, 0.05566206, -0.28225482, 0.3315139, -0.16260076, -1.4137194E-4, -0.11421013, 0
166, 1726846324, -0.8987287, 0.054965507, -0.28176063, 0.3314777, -0.063870616, 0.0673154, -0.059267998, 0
167, 1726862991, -0.8988124, 0.05463095, -0.28152567, 0.33150548, -0.03666462, 0.056254216, -0.08039093, 0
168, 1726879658, -0.8989095, 0.054344222, -0.28130007, 0.33148122, -4.054525E-4, 0.07736275, -0.07459068, 0
171, 1726929659, -0.89913964, 0.05360327, -0.28052914, 0.33163077, 0.005479867, 0.079940334, -0.1450119, 0
172, 1726946326, -0.899196, 0.0534075, -0.2802972, 0.33170578, 0.04175915, 0.09263025, -0.17211533, 0
174, 1726979660, -0.8992941, 0.053034853, -0.28004766, 0.3317103, -0.07160886, 0.069365375, -0.04405594, 0
175, 1726996327, -0.89933324, 0.052916378, -0.27997503, 0.33168447, -0.047624353, 0.09665854, -0.15519619, 0
178, 1727046328, -0.89946324, 0.05255518, -0.27945814, 0.33182544, -0.1223121, 0.08877496, -0.120176315, 0
179, 1727062995, -0.8994975, 0.05244005, -0.279301, 0.33188277, -0.05442965, 0.08681179, -0.14201832, 0
181, 1727096329, -0.8995613, 0.052165303, -0.27909687, 0.3319249, -0.14303711, 0.08576111, -0.115695, 0
182, 1727112996, -0.8995876, 0.052054457, -0.27898973, 0.3319613, -0.06701566, 0.05491934, -0.17952538, 0
183, 1727129663, -0.89961267, 0.051954284, -0.27883565, 0.33203804, 0.03783292, 0.07417769, -0.12919998, 0
185, 1727162997, -0.89969695, 0.05178134, -0.27845013, 0.33216044, -0.06500293, 0.064862035, -0.10726261, 0
187, 1727196331, -0.89975965, 0.05169113, -0.27818942, 0.33222312, 0.0036953397, 0.03239496, -0.14715004, 0
189, 1727229665, -0.899739, 0.051669568, -0.27822837, 0.3322496, 0.07841013, 0.054787215, -0.15695095, 0
190, 1727246332, -0.89971745, 0.05166263, -0.27834138, 0.33221456, -0.016009115, -0.030446237, -0.09019184, 0
193, 1727296333, -0.89963216, 0.051761203, -0.27869174, 0.3321366, 0.09365707, -0.095110744, -0.11297417, 0
194, 1727313000, -0.8995899, 0.051801175, -0.27881336, 0.33214274, 0.07133908, -0.07222503, -0.097990036, 0
195, 1727329667, -0.8995758, 0.051855315, -0.27889892, 0.33210033, 0.07988353, -0.114497386, -0.15957451, 0
197, 1727363001, -0.8995598, 0.051984724, -0.27902114, 0.3320208, 0.047524888, -0.17047445, -0.14539528, 0
198, 1727379668, -0.8995403, 0.05205981, -0.27909562, 0.33199942, 0.13829596, -0.093768574, -0.012880325, 0
199, 1727396335, -0.8995123, 0.05212404, -0.27924946, 0.33193603, 0.15495996, -0.099490225, -0.0196352, 0
201, 1727429669, -0.899433, 0.052278403, -0.27973315, 0.33171904, 0.09096083, -0.20728722, -0.1716032, 0
204, 1727479670, -0.89942837, 0.05261067, -0.27999738, 0.33145604, 0.086449444, -0.166914, -0.09613705, 0
205, 1727496337, -0.899427, 0.0527292, -0.2800003, 0.33143863, 0.038688082, -0.19482708, -0.15624619, 0
208, 1727546338, -0.8994022, 0.053011276, -0.2799224, 0.3315268, 0.06359972, -0.066157684, -0.17765808, 0
209, 1727563005, -0.89937896, 0.0531075, -0.27988514, 0.33160585, 0.08468012, -0.057598505, -0.17129421, 0
210, 1727579672, -0.8993452, 0.053185962, -0.2798667, 0.33170027, 0.023213832, -0.047061127, -0.106331825, 0
212, 1727613006, -0.8992699, 0.053232506, -0.27990323, 0.3318661, -0.04228664, -0.14028344, -0.19777489, 0
213, 1727629673, -0.8992461, 0.053196322, -0.27992782, 0.3319157, -0.015274429, -0.11372775, -0.10545635, 0
214, 1727646340, -0.8992446, 0.05318985, -0.2798886, 0.33195385, 0.003872362, -0.049951766, -0.08924866, 0
216, 1727679674, -0.8992429, 0.05310096, -0.27975085, 0.332089, -0.010628041, -0.043267414, -0.19209194, 0
217, 1727696341, -0.89922744, 0.05304593, -0.27970707, 0.33217618, -0.05291602, -0.07651385, -0.21174908, 0
218, 1727713008, -0.8992405, 0.052956924, -0.27970833, 0.33215418, 0.0031553323, -0.11381668, -0.07601261, 0
220, 1727746342, -0.8992637, 0.052746937, -0.27979073, 0.33205512, 0.091991454, -0.03669074, -0.24613285, 0
222, 1727779676, -0.8992606, 0.052583426, -0.27996516, 0.33194244, 0.03888589, -0.05806411, -0.08710194, 0
224, 1727813010, -0.89924914, 0.052494273, -0.28007963, 0.33189106, 0.0073815156, -0.108855225, -0.1586523, 0
225, 1727829677, -0.8992788, 0.052360296, -0.2801583, 0.33176544, 0.016556723, -0.16778481, -0.15036106, 0
226, 1727846344, -0.8993263, 0.05220877, -0.28017968, 0.3316424, 0.020872086, -0.056313727, -0.015761375, 0
228, 1727879678, -0.8993866, 0.05202194, -0.2801441, 0.33153844, 0.095147006, 5.9328723E-4, -0.139822, 0
229, 1727896345, -0.8993991, 0.05198852, -0.28008392, 0.33156055, 0.02308196, -0.019550705, -0.113716125, 0
231, 1727929679, -0.8994251, 0.051915176, -0.28008288, 0.33150217, -0.0038097783, -0.020885414, -0.03432083, 0
233, 1727963013, -0.899424, 0.051823374, -0.28018218, 0.331436, -0.019853985, -0.007493216, -0.14916706, 0
235, 1727996347, -0.89947265, 0.05204738, -0.27970183, 0.33167434, 0.14394882, 0.1770893, -0.5270176, 0
237, 1728029681, -0.89944625, 0.05178094, -0.2801128, 0.3314407, -0.43414798, 0.0018736533, 0.19356632, 0
239, 1728063015, -0.8994393, 0.051074337, -0.28121138, 0.330638, 0.23108512, -0.24922773, -0.33442307, 0
240, 1728079682, -0.89951557, 0.050660186, -0.28153896, 0.33021516, 0.16087702, -0.5077651, -0.42300034, 0
241, 1728096349, -0.89958084, 0.050390236, -0.2817584, 0.32989147, 0.08531914, -0.46863365, -0.13450813, 0
243, 1728129683, -0.89976084, 0.050144672, -0.28180557, 0.3293973, 0.32224175, -0.28236553, 0.05255699, 0
244, 1728146350, -0.8998206, 0.050042406, -0.28184074, 0.32921946, 0.18594624, -0.3547223, 0.05686474, 0
245, 1728163017, -0.89982253, 0.049934886, -0.28209773, 0.3290102, 0.25618452, -0.3455059, -0.11016655, 0
247, 1728196351, -0.89984936, 0.04983146, -0.28254858, 0.32856512, 0.18917646, 0.012354343, -0.13880634, 0
249, 1728229685, -0.89976066, 0.050382208, -0.28247854, 0.32878456, 0.04487112, -0.19536324, -0.10264683, 0
252, 1728279686, -0.899761, 0.050659355, -0.28227258, 0.32891795, -0.20181634, -0.06276744, -0.11656189, 0
253, 1728296353, -0.89978063, 0.05066227, -0.28217196, 0.32895023, -0.025478242, 0.034239363, -0.13749981, 0
255, 1728329687, -0.899816, 0.050781026, -0.28158674, 0.3293363, -0.11390131, 0.20638235, -0.22512722, 0
256, 1728346354, -0.8997927, 0.05096474, -0.28113124, 0.3297605, -0.22217478, 0.14511313, -0.20504284, 0
257, 1728363021, -0.8997609, 0.051110763, -0.28083917, 0.3300731, -0.16817316, 0.052861094, -0.2908287, 0
259, 1728396355, -0.8996717, 0.051213305, -0.28076953, 0.33035964, -0.07516987, 0.26009467, -0.049556732, 0
260, 1728413022, -0.89963925, 0.051264163, -0.28072363, 0.3304791, -0.035679597, 0.2762408, -0.227252, 0
262, 1728446356, -0.8995619, 0.051402036, -0.28039292, 0.33094874, -0.15769756, 0.12181937, -0.1276741, 0
263, 1728463023, -0.89955556, 0.051455952, -0.28018063, 0.3311373, -0.21484177, 0.10418825, 0.0473032, 0
267, 1728529691, -0.8996431, 0.051046565, -0.28001532, 0.33110276, 0.03428197, 0.17962593, -0.23213387, 0
268, 1728546358, -0.8996701, 0.050985083, -0.27994168, 0.3311006, 0.013100094, 0.15124874, -0.10354519, 0
270, 1728579692, -0.89968103, 0.05091781, -0.27997303, 0.33105528, -0.05938091, 0.034546163, -0.067085266, 0
271, 1728596359, -0.8996569, 0.050918154, -0.280121, 0.3309957, -0.0171687, 0.09684364, -0.0575428, 0
272, 1728613026, -0.8996327, 0.05090949, -0.28030327, 0.33090815, 0.038814813, 0.06190507, -0.19558048, 0
274, 1728646360, -0.8996105, 0.05097821, -0.28051305, 0.33077997, -0.039832916, 0.025518445, -0.10218048, 0
275, 1728663027, -0.8995907, 0.051087826, -0.28055865, 0.33077866, 0.01439714, 0.042801056, -0.074082375, 0
276, 1728679694, -0.89958096, 0.051144473, -0.2806221, 0.33074236, 0.0015232408, 0.030491581, -0.04945469, 0
278, 1728713028, -0.8995721, 0.0512023, -0.28074554, 0.33065277, -0.08131759, -0.030403573, -0.09496212, 0
279, 1728729695, -0.8995498, 0.051257458, -0.28081763, 0.33064374, -0.0083437385, 0.006725142, -0.12606144, 0
283, 1728796363, -0.89943856, 0.05165583, -0.28095472, 0.33076778, -0.042678457, -0.047793552, -0.13902473, 0
285, 1728829697, -0.8993768, 0.051931597, -0.28111354, 0.33075747, -0.0058482164, -0.022282286, -0.099505424, 0
286, 1728846364, -0.89935094, 0.052049983, -0.28116465, 0.33076578, 0.02965637, -0.02660011, -0.11577988, 0
287, 1728863031, -0.8993348, 0.0521612, -0.28117684, 0.3307819, -0.0191754, 0.0057044416, -0.10719776, 0
289, 1728896365, -0.89930934, 0.052337147, -0.2811627, 0.33083564, -0.036612764, -0.11053289, -0.21306324, 0
290, 1728913032, -0.8993077, 0.05237784, -0.28117004, 0.33082727, -0.021509545, -0.071876794, 0.0039806366, 0
291, 1728929699, -0.8993017, 0.052372493, -0.2811909, 0.3308267, 0.0058569335, -0.039776895, -0.038363457, 0
293, 1728963033, -0.89928776, 0.052327447, -0.28125226, 0.33081925, -6.504227E-4, -0.11093582, -0.22956848, 0
294, 1728979700, -0.89928836, 0.05232677, -0.28118938, 0.33087096, -0.01370425, -0.10759212, -0.15154934, 0
297, 1729029701, -0.89934003, 0.052200396, -0.28099236, 0.33091828, 0.023159295, -0.111439064, -0.10112572, 0
298, 1729046368, -0.89937824, 0.0521399, -0.2809332, 0.3308741, 0.04245137, -0.08906829, -0.17134666, 0
299, 1729063035, -0.8993916, 0.05209149, -0.28089774, 0.3308754, 0.08277266, -0.11746519, -0.19825935, 0
301, 1729096369, -0.89942956, 0.051964674, -0.28079808, 0.33087686, 0.0109948255, -0.13464195, -0.06964779, 0
302, 1729113036, -0.89944655, 0.05188584, -0.28076, 0.3308755, -0.011473814, -0.17153843, -0.14211369, 0
303, 1729129703, -0.8994657, 0.051804222, -0.28072524, 0.33086586, 0.0045543, -0.16122468, -0.14934635, 0
305, 1729163037, -0.89950293, 0.051636647, -0.28052524, 0.33096018, 0.14809209, -0.026904171, -0.07161045, 0
306, 1729179704, -0.89952844, 0.051541377, -0.2804242, 0.33099142, 0.064395644, -0.05410609, -0.04476452, 0
307, 1729196371, -0.8995575, 0.05142407, -0.28036636, 0.33097985, -0.0015134062, -0.13660365, -0.122751236, 0
309, 1729229705, -0.89960283, 0.051170595, -0.2802393, 0.33100346, 0.005330113, -0.1184123, -0.13242531, 0
313, 1729296373, -0.8997683, 0.050603345, -0.2794618, 0.33129805, 0.051505208, -0.05844562, -0.1628809, 0
314, 1729313040, -0.8998346, 0.050602563, -0.27911153, 0.3314135, -0.020188138, 0.3644979, -0.2559595, 0
316, 1729346374, -0.89995664, 0.05042229, -0.27862322, 0.33152044, -0.28418443, -0.061250653, 0.23148823, 0
317, 1729363041, -0.89997065, 0.050236404, -0.27877212, 0.33138543, -0.3292983, -0.010315933, 0.007948875, 0
318, 1729379708, -0.89999616, 0.04994202, -0.2790776, 0.33110303, 0.16109383, 0.03443569, -0.16513443, 0
320, 1729413042, -0.9001023, 0.04898209, -0.27980497, 0.33034366, 0.088415466, -0.5992516, -0.17570782, 0
321, 1729429709, -0.90018076, 0.04859594, -0.2801125, 0.32992616, -0.016710052, -0.75906724, -0.25227165, 0
322, 1729446376, -0.9002959, 0.048300926, -0.2802305, 0.3295545, 0.32996368, -0.485094, -0.22597885, 0
324, 1729479710, -0.90044737, 0.04798392, -0.28022522, 0.32919133, 0.5796511, -0.3132167, 0.19039536, 0
326, 1729513044, -0.90038055, 0.047765784, -0.28058866, 0.3290962, 0.27618757, -0.5407805, -0.26044273, 0
329, 1729563045, -0.9003284, 0.047897726, -0.28097862, 0.32888672, 0.42558542, -0.2232144, -0.15998554, 0
330, 1729579712, -0.9003073, 0.04796014, -0.28092572, 0.3289805, 0.30450892, -0.27878198, -0.14975166, 0
332, 1729613046, -0.9003225, 0.048046313, -0.2806163, 0.32919052, -0.16138038, -0.3828721, -0.12233448, 0
333, 1729629713, -0.900374, 0.048071835, -0.2804073, 0.32922423, 0.031083276, -0.22667569, -0.18164825, 0
334, 1729646380, -0.9004431, 0.04803779, -0.28012264, 0.3292821, 0.16400844, -0.043781772, -0.17396832, 0
336, 1729679714, -0.9004939, 0.04810734, -0.27942958, 0.32972202, -0.062015012, -0.04405664, -0.09941769, 0
337, 1729696381, -0.9004967, 0.048150606, -0.27912605, 0.32996497, -0.15682384, -0.08008871, -0.14485455, 0
339, 1729729715, -0.9005563, 0.048186544, -0.27843064, 0.33038425, -0.035773695, 0.0730558, -0.15171623, 0
341, 1729763049, -0.90057105, 0.048227943, -0.2778313, 0.3308424, -0.04871353, 0.16363746, -0.06644058, 0
343, 1729796383, -0.900552, 0.0482376, -0.27731425, 0.3313265, -0.17292482, 0.24099782, -0.19679546, 0
345, 1729829717, -0.90061074, 0.048217133, -0.2766893, 0.3316919, -0.21611087, 0.23893261, -0.08727169, 0
347, 1729863051, -0.9006606, 0.048220325, -0.27607185, 0.33207035, -0.18328665, 0.3668621, -0.13044357, 0
348, 1729879718, -0.9006744, 0.048181698, -0.2758397, 0.33223122, -0.28698012, 0.3784452, -0.14546871, 0
349, 1729896385, -0.9007004, 0.048235677, -0.2756272, 0.33232912, -0.31029075, 0.4149318, -0.13341045, 0
351, 1729929719, -0.9007292, 0.048462972, -0.27527025, 0.33251423, -0.058249265, 0.6840906, -0.03586006, 0
352, 1729946386, -0.90071875, 0.04856918, -0.27514812, 0.33262786, -0.12770726, 0.2587441, -0.15401745, 0
353, 1729963053, -0.9006166, 0.048871443, -0.27520928, 0.3328093, -0.42701033, 0.20068127, -0.3465414, 0
356, 1730013054, -0.900372, 0.049736425, -0.2758946, 0.33277553, -0.20444193, 0.6294471, -0.0679636, 0
357, 1730029721, -0.90020245, 0.05013627, -0.2762151, 0.3329085, -0.1843365, 0.29845658, -0.03263569, 0
359, 1730063055, -0.8998835, 0.050944846, -0.27690557, 0.33307415, -0.1579984, 0.14603482, 0.09968281, 0
361, 1730096389, -0.89972097, 0.051462866, -0.2774721, 0.332962, -0.17210989, -0.10273628, -0.17801762, 0
363, 1730129723, -0.8995149, 0.05203612, -0.27781147, 0.33314687, 0.30426663, 0.053376373, -0.201231, 0
364, 1730146390, -0.89956456, 0.052147716, -0.27784872, 0.3329644, -0.11672204, -0.27220404, -0.026028633, 0
366, 1730179724, -0.899635, 0.052238062, -0.2778718, 0.33274043, 0.11238947, -0.3886634, -0.402627, 0
367, 1730196391, -0.8997375, 0.052072905, -0.277729, 0.33260852, 0.31982625, -0.18016443, -0.15732765, 0
368, 1730213058, -0.8999168, 0.051851153, -0.27744004, 0.33239892, 0.09699255, -0.44561073, 0.20873642, 0
371, 1730263059, -0.90025204, 0.05111875, -0.2769008, 0.33205462, 0.56051415, -0.70124227, -0.12225628, 0
372, 1730279726, -0.9004076, 0.051033475, -0.2766534, 0.33185136, 0.6021155, -0.51201046, 0.08188057, 0
374, 1730313060, -0.90050143, 0.05127938, -0.2765395, 0.33165413, 0.50543654, -0.72638714, -0.10495758, 0
375, 1730329727, -0.90046245, 0.051440265, -0.27669206, 0.3316081, 0.5212606, -0.836579, -0.26089382, 0
376, 1730346394, -0.9004557, 0.051593203, -0.27682048, 0.33149493, 0.42931452, -0.9389512, -0.19329357, 0
378, 1730379728, -0.90037686, 0.051943947, -0.2771389, 0.33138844, 0.3470164, -1.0575686, 0.12635994, 0
379, 1730396395, -0.90027314, 0.052275274, -0.27744067, 0.3313657, 0.7500177, -1.024163, 0.30834866, 0
380, 1730413062, -0.9001648, 0.052799813, -0.27782062, 0.33125857, 0.8498089, -1.1420732, 0.20146751, 0
382, 1730446396, -0.899689, 0.055821754, -0.27871734, 0.331302, 0.5906417, -1.3927802, 0.877038, 0
383, 1730463063, -0.89912343, 0.058549065, -0.27975568, 0.33149207, 1.3827572, -1.6491125, 0.49945545, 0
386, 1730513064, -0.89719707, 0.06554547, -0.2842999, 0.33153513, 1.1316115, -2.2969377, -0.8054514, 0
387, 1730529731, -0.8971059, 0.06645478, -0.2856285, 0.33045754, 1.6902103, -1.1729329, -1.2200108, 0
388, 1730546398, -0.89803356, 0.06714301, -0.2863657, 0.32714388, -0.39093512, -0.0860374, -0.508811, 0
391, 1730596399, -0.9029354, 0.05562058, -0.29241115, 0.31001753, 0.26127043, 0.52456355, -4.1302104, 0
393, 1730629733, -0.90543437, 0.0503816, -0.29727888, 0.29879174, 1.2070569, -3.728307, -1.6641531, 0
394, 1730646400, -0.90616065, 0.050664652, -0.29825315, 0.29555377, 2.4600465, -3.4692106, -0.7570877, 0
395, 1730663067, -0.90651876, 0.052083693, -0.29815716, 0.29430336, 2.7123673, -4.9137363, 0.42346668, 0
397, 1730696401, -0.90557116, 0.058557495, -0.29387674, 0.30024928, 2.1638668, -5.398611, -1.7949696, 0
398, 1730713068, -0.90488446, 0.059066914, -0.29212472, 0.30390677, 0.607432, -2.9234295, 1.3918343, 0
401, 1730763069, -0.9021956, 0.05871147, -0.286403, 0.3171288, 2.0468814, -2.7472103, -0.50339985, 0
402, 1730779736, -0.9008862, 0.059291754, -0.2851976, 0.32179508, 1.2483573, -3.0726948, 0.631299, 0
403, 1730796403, -0.8990345, 0.06255308, -0.28416437, 0.3272245, 2.8767574, -1.5701083, 0.3929243, 0
405, 1730829737, -0.8957332, 0.06563557, -0.28351957, 0.33611286, 0.065346025, -4.8472643, -0.7208042, 0
407, 1730863071, -0.89195675, 0.06486296, -0.28629053, 0.3438673, 2.8057566, -2.082275, 0.047225, 0
409, 1730896405, -0.8894263, 0.062010773, -0.28821182, 0.34930024, 4.1553035, -1.6203802, -0.93310165, 0
410, 1730913072, -0.8900349, 0.060096465, -0.2874888, 0.3486796, 2.0815597, -3.096519, 0.11519718, 0
411, 1730929739, -0.89073086, 0.057556383, -0.2872184, 0.34755236, 2.1482978, -3.7141013, -1.1607275, 0
413, 1730963073, -0.89186424, 0.052155368, -0.28807023, 0.3447817, 3.3115487, -2.653271, 1.2063913, 0
415, 1730996407, -0.89289963, 0.04875156, -0.290862, 0.3402264, 3.6222732, -4.7013826, 0.16006184, 0
417, 1731029741, -0.89356697, 0.04249452, -0.30136526, 0.3300184, 3.4129252, -3.2890537, -0.9150429, 0
418, 1731046408, -0.8942384, 0.037263207, -0.3061376, 0.3243913, 3.3527212, -3.4654896, -2.068386, 0
420, 1731079742, -0.897811, 0.030207638, -0.30392012, 0.31726435, -0.4053222, -1.499558, -2.3558145, 0
421, 1731096409, -0.90070343, 0.031225413, -0.29301086, 0.3192244, -1.429261, -0.17331392, -0.22626686, 0
424, 1731146410, -0.90400976, 0.037069306, -0.26839644, 0.3306911, -2.7032635, -0.99435395, 10.21302, 0
425, 1731163077, -0.90293854, 0.036826633, -0.2701195, 0.33223838, -4.537822, 0.9818658, -0.81834507, 0
426, 1731179744, -0.9018731, 0.03696634, -0.27187926, 0.33367786, -2.8287044, 1.942995, -4.2710824, 0
428, 1731213078, -0.89955866, 0.040166188, -0.2712702, 0.3399919, -0.6461994, -0.9201257, 2.878501, 0
430, 1731246412, -0.8962216, 0.041685414, -0.2735758, 0.3467082, -3.3946843, 0.7029953, 0.3556738, 0
432, 1731279746, -0.8945269, 0.040477637, -0.27299482, 0.35165048, -0.03752168, -0.8541487, -3.0346217, 0
433, 1731296413, -0.8933925, 0.039856542, -0.27281713, 0.35472968, 0.23429589, 0.9697006, 0.35755157, 0
434, 1731313080, -0.8923224, 0.039148428, -0.27241552, 0.35779738, 0.5131348, 1.3235921, 0.94471073, 0
436, 1731346414, -0.8911283, 0.037593026, -0.2727745, 0.36065516, -0.9084457, -0.9779369, -1.819108, 0
437, 1731363081, -0.89006495, 0.03793923, -0.273381, 0.36277926, -0.14902212, -0.19639537, -0.8350382, 0
440, 1731413082, -0.8870075, 0.04029259, -0.2739481, 0.36952338, -2.250079, -0.3771662, 0.91977787, 0
441, 1731429749, -0.88573194, 0.04165033, -0.27490184, 0.371718, -2.2372627, -0.42962465, 0.40105152, 0
442, 1731446416, -0.8841902, 0.043032233, -0.27624246, 0.37422872, 0.23961349, -0.33328152, -0.7396059, 0
445, 1731496417, -0.8804308, 0.046931386, -0.2770802, 0.38192508, -1.9812372, -0.7781203, -0.15677166, 0
447, 1731529751, -0.87786514, 0.049279034, -0.27706686, 0.38750404, 0.061982825, -0.27371827, 0.008149147, 0
448, 1731546418, -0.8769921, 0.049635682, -0.2765967, 0.38976416, -1.1090049, -0.52997214, -0.28613472, 0
449, 1731563085, -0.8760411, 0.04981556, -0.27622756, 0.39213482, -0.983501, -1.0550891, -1.2587137, 0
451, 1731596419, -0.8741369, 0.050134912, -0.2758239, 0.39660257, -0.2104475, -0.009816298, 0.4668808, 0
452, 1731613086, -0.873359, 0.050701164, -0.27541876, 0.398521, -0.4294627, 0.015835557, 0.6760292, 0
453, 1731629753, -0.87232035, 0.051576808, -0.27541974, 0.4006773, -0.081807755, 0.27817234, -0.10944557, 0
455, 1731663087, -0.8695365, 0.053691983, -0.27624828, 0.40584645, -0.26504993, -0.5844469, 0.08873463, 0
456, 1731679754, -0.8680684, 0.05480494, -0.27658907, 0.40859908, -1.285338, -0.99427634, 0.17056656, 0
457, 1731696421, -0.86647344, 0.05613149, -0.27739966, 0.41124648, -1.8162873, 0.24418893, 0.99316025, 0
460, 1731746422, -0.8625748, 0.057887837, -0.2803645, 0.41714558, -0.33356807, -1.2670505, 0.19889069, 0
461, 1731763089, -0.86144143, 0.05801559, -0.2825832, 0.41797197, 0.70486253, -3.3874638, -0.82462883, 0
463, 1731796423, -0.8592771, 0.05986724, -0.28744185, 0.41885188, 2.6575713, -3.6137078, 0.13821983, 0
464, 1731813090, -0.8585674, 0.060467906, -0.29034936, 0.41821507, 3.02628, -4.7007294, -0.38802338, 0
465, 1731829757, -0.85782975, 0.060783632, -0.29397094, 0.41715163, 3.7411518, -4.8100567, 0.17525959, 0
467, 1731863091, -0.85495174, 0.06477311, -0.30517155, 0.4144072, 3.4388232, -6.189034, -1.5576715, 0
469, 1731896425, -0.8510905, 0.070728, -0.31700498, 0.4124942, 3.9322138, -5.9520717, -1.45502, 0
471, 1731929759, -0.8495028, 0.0760954, -0.3297269, 0.40476632, 1.5022439, -6.576476, 0.8736124, 0
472, 1731946426, -0.84721506, 0.07437891, -0.3371579, 0.40375733, 2.0472229, -5.673432, 0.19609451, 0
475, 1731996427, -0.8357866, 0.066179, -0.3459651, 0.42117736, 4.387966, -6.0254073, -1.369461, 0
476, 1732013094, -0.8352625, 0.0765199, -0.33513463, 0.42914706, -1.2923168, 4.9301133, -1.6988964, 0
478, 1732046428, -0.83518004, 0.0953288, -0.3196298, 0.43729222, -0.7351833, 3.6230752, 2.8604488, 0
479, 1732063095, -0.834937, 0.09944024, -0.31977743, 0.43673253, 0.7096559, 3.860598, 5.356633, 0
480, 1732079762, -0.8354318, 0.100566916, -0.32112098, 0.43453702, -2.335327, 7.3422747, 3.3476315, 0
482, 1732113096, -0.8380547, 0.10199415, -0.3217026, 0.42868403, 0.7376265, 5.4780903, -4.1969523, 0
483, 1732129763, -0.84092456, 0.101973765, -0.3188631, 0.42517608, 2.3121645, 1.4201213, -0.99802876, 0
486, 1732179764, -0.85227114, 0.091322765, -0.31244808, 0.4094768, 1.7819581, 4.2092676, -0.83221817, 0
487, 1732196431, -0.856367, 0.08904256, -0.3097688, 0.40342444, 2.7157283, 2.8067229, -0.06251049, 0
490, 1732246432, -0.86932915, 0.08501931, -0.29943568, 0.383898, 1.8614, 1.4940034, 0.66640663, 0
491, 1732263099, -0.8733921, 0.082641765, -0.29608962, 0.3777416, 0.8314674, 1.8260412, -0.017801285, 0
492, 1732279766, -0.87685144, 0.08078889, -0.29350337, 0.37210393, -0.5954687, 0.7115983, -0.25802994, 0
494, 1732313100, -0.8826925, 0.07721762, -0.2881411, 0.36313513, -0.21861646, -2.0011394, -0.25988293, 0
495, 1732329767, -0.88479614, 0.076088145, -0.28640947, 0.35960674, -0.6901112, -0.65409255, -0.62596035, 0
496, 1732346434, -0.8866307, 0.07518648, -0.28434238, 0.35690823, -2.331569, 0.13815565, 1.6789122, 0
498, 1732379768, -0.889281, 0.0738258, -0.28117839, 0.35308477, -1.9444206, -1.3202033, -0.9496336, 0
499, 1732396435, -0.8900237, 0.07312457, -0.28009102, 0.35222256, -1.2125746, -0.7095643, -0.7989254, 0
502, 1732446436, -0.89075255, 0.07192822, -0.2779445, 0.3523267, -1.5697378, 0.20078348, 0.7184515, 0
505, 1732496437, -0.88915133, 0.07402431, -0.2773381, 0.3563915, -0.59932137, -0.4760739, -0.8381767, 0
506, 1732513104, -0.88854146, 0.074179664, -0.27711332, 0.3580511, -1.3968621, -0.5649667, 0.508131, 0
507, 1732529771, -0.8878495, 0.07505528, -0.27682257, 0.35980564, -0.71585834, -0.9922196, 0.9009304, 0
509, 1732563105, -0.88625866, 0.077114895, -0.27717185, 0.3630092, -0.25803208, -0.31215048, -0.75619984, 0
510, 1732579772, -0.8854892, 0.07784028, -0.27744403, 0.3645209, -0.32837808, -0.29917678, -0.9208021, 0
511, 1732596439, -0.8847775, 0.078681685, -0.27736497, 0.36612505, -0.41499943, -0.6645053, 0.84689236, 0
513, 1732629773, -0.8838717, 0.07942924, -0.27706578, 0.3683714, 0.48773086, -1.1295983, -1.0512991, 0
514, 1732646440, -0.8835968, 0.07891908, -0.27747345, 0.36883354, -0.2955762, 0.18056886, -0.94159603, 0
515, 1732663107, -0.88361496, 0.0783752, -0.27677146, 0.36943278, 0.058095712, -0.5420633, 0.03275776, 0
519, 1732729775, -0.88442445, 0.077803165, -0.27300724, 0.37041616, 0.9405839, 0.083663136, 0.8403778, 0
521, 1732763109, -0.88495004, 0.07900821, -0.27140534, 0.37008286, 0.12909237, -0.6834866, -0.34040642, 0
522, 1732779776, -0.88523835, 0.078955926, -0.27080518, 0.36984414, -0.015856232, -0.8484257, 0.018899918, 0
523, 1732796443, -0.8854166, 0.0791505, -0.26993975, 0.37000844, 0.19084653, -1.9588505, -0.34476852, 0
525, 1732829777, -0.8855881, 0.07953592, -0.2686797, 0.37043187, 0.007791885, -1.1191276, 0.40656185, 0
526, 1732846444, -0.88549215, 0.08037637, -0.26866525, 0.37049052, -0.063596144, -1.0045898, 0.70738125, 0
528, 1732879778, -0.88453037, 0.08336795, -0.27047846, 0.37080753, 0.8045796, -3.1571977, -1.436163, 0
529, 1732896445, -0.8841401, 0.083483, -0.27160397, 0.3708897, 1.0111332, -2.9013045, -0.6383352, 0
530, 1732913112, -0.88368404, 0.084177405, -0.27244955, 0.3711993, 1.5134981, -4.1951385, -1.4187784, 0
532, 1732946446, -0.8823553, 0.08697926, -0.27513474, 0.3717332, 2.877175, -1.8160096, 2.5639572, 0
534, 1732979780, -0.88086283, 0.087679684, -0.28321177, 0.3690324, 1.9319092, -5.565497, -2.2954373, 0
536, 1733013114, -0.8796532, 0.08696586, -0.29065877, 0.36628658, 2.5954225, -5.251897, -1.6876087, 0
537, 1733029781, -0.8792322, 0.08616577, -0.29320574, 0.365455, 4.110071, -5.505437, -0.22291756, 0
538, 1733046448, -0.87925315, 0.085016266, -0.29642758, 0.36306712, 2.4914129, -4.326268, 0.45162392, 0
540, 1733079782, -0.8816913, 0.081891835, -0.3021218, 0.35304072, 0.28425574, -5.355038, -1.0268383, 0
541, 1733096449, -0.88490874, 0.079905875, -0.30273354, 0.34482583, -0.7750873, -4.1379557, -0.2469616, 0
542, 1733113116, -0.88683337, 0.07726919, -0.30161986, 0.34144196, -0.92985034, -2.103078, 0.40140724, 0
544, 1733146450, -0.8844721, 0.08348152, -0.30039477, 0.34713727, 2.071645, -0.03342301, -1.5534248, 0
545, 1733163117, -0.8831108, 0.0872919, -0.29735106, 0.352248, 0.5858802, -1.1715477, -2.3161426, 0
549, 1733229785, -0.8771423, 0.099334255, -0.29674587, 0.3642759, -1.1559803, 4.3365355, 6.3332195, 0
550, 1733246452, -0.8763709, 0.101417504, -0.29703045, 0.36532536, 0.386145, 2.8470747, 0.7190113, 0
552, 1733279786, -0.8766259, 0.10107644, -0.29659, 0.36516577, -0.8515836, 2.4935668, -2.7779884, 0
553, 1733296453, -0.87775725, 0.1000679, -0.29561618, 0.3635117, -1.8049375, 4.672963, -1.3460855, 0
555, 1733329787, -0.880413, 0.09940093, -0.29262316, 0.35967353, 1.4513707, 5.1317806, 1.382102, 0
556, 1733346454, -0.88203377, 0.09803684, -0.29109105, 0.3573124, -0.015365175, 4.7924166, 0.20580292, 0
557, 1733363121, -0.88369846, 0.09607986, -0.28924242, 0.35522592, -0.5388028, 1.0374428, -1.2007742, 0
559, 1733396455, -0.88497484, 0.09762998, -0.28834778, 0.3523413, -1.2953789, 0.387589, -1.1721716, 0
560, 1733413122, -0.885103, 0.09862443, -0.28840935, 0.35169163, -1.4547982, 2.864835, 0.8605728, 0
561, 1733429789, -0.88543683, 0.09882249, -0.28759658, 0.35146123, -1.268194, 1.2849637, 1.0734005, 0
565, 1733496457, -0.8871956, 0.09382929, -0.28390247, 0.3513981, -1.2504376, 1.6864005, 0.59998226, 0
567, 1733529791, -0.8881363, 0.09081073, -0.2816892, 0.35159573, -1.4811386, 1.5895907, 0.89112663, 0
568, 1733546458, -0.8885447, 0.0893734, -0.28069925, 0.35172418, -0.7344222, -0.2233856, 0.68555737, 0
569, 1733563125, -0.88888633, 0.08789632, -0.2802131, 0.3516206, -0.5492784, 0.11323178, 0.2104168, 0
571, 1733596459, -0.88962895, 0.08357858, -0.27907798, 0.3516983, -0.108251795, 0.48674026, 0.75707436, 0
572, 1733613126, -0.88990283, 0.081900164, -0.27840006, 0.35193706, 0.5716693, -0.73636585, -1.2856016, 0
573, 1733629793, -0.8900643, 0.08033239, -0.27813366, 0.3521009, -0.01868803, -0.85453117, -2.7468524, 0
575, 1733663127, -0.89023244, 0.07814244, -0.2758113, 0.35399026, -0.31289354, -1.6414658, 0.83130074, 0
576, 1733679794, -0.89022833, 0.07689295, -0.27497095, 0.35492715, -0.74496555, -0.22425485, 1.313343, 0
579, 1733729795, -0.88954574, 0.074540935, -0.27493513, 0.35716054, 0.72742647, -1.3990228, -1.5775747, 0
582, 1733779796, -0.8875864, 0.074381195, -0.27635345, 0.3609539, -0.20912878, -0.018258605, -1.8983345, 0
583, 1733796463, -0.8868098, 0.07415146, -0.27734905, 0.3621444, -1.0246006, 0.12710841, 0.09502792, 0
584, 1733813130, -0.8862609, 0.07407582, -0.27707964, 0.36370647, -0.53857595, -2.2696767, 1.3447676, 0
586, 1733846464, -0.8852282, 0.07384356, -0.27717948, 0.3661837, 0.7070251, -2.2500844, -1.5500298, 0
587, 1733863131, -0.88488454, 0.073569894, -0.27673814, 0.3674009, 0.4397872, 0.45498535, 0.9936428, 0
588, 1733879798, -0.8847965, 0.07308543, -0.27580437, 0.36841077, 0.55546767, -1.1437578, 0.20928192, 0
590, 1733913132, -0.88435, 0.072900146, -0.2756242, 0.36965248, 0.5159971, -0.65256554, -0.39622974, 0
591, 1733929799, -0.8843012, 0.07239839, -0.27576813, 0.36976036, 0.52066875, 0.15101412, 0.10514164, 0
594, 1733979800, -0.8845575, 0.07254189, -0.2743981, 0.3701381, 0.8757145, -1.8469261, -0.49187565, 0
595, 1733996467, -0.8845964, 0.072750725, -0.2745449, 0.36989537, 1.0543652, -1.6232126, -1.1720419, 0
598, 1734046468, -0.8847362, 0.07314283, -0.27405226, 0.36984876, -0.16355605, -2.0902882, 0.7871542, 0
599, 1734063135, -0.88478434, 0.073193975, -0.27358493, 0.37006992, 1.6295246, -3.3359203, -0.39588547, 0
600, 1734079802, -0.88473696, 0.072800465, -0.2743172, 0.3697186, 1.9531178, -3.3326585, -1.4216509, 0
602, 1734113136, -0.88370717, 0.07346417, -0.27860606, 0.36884186, 1.0442792, -4.638744, -0.2006321, 0
603, 1734129803, -0.8827739, 0.07556612, -0.28052095, 0.36920068, 1.7994864, -5.8866415, 0.00680542, 0
604, 1734146470, -0.88183796, 0.07775765, -0.2827113, 0.36931142, 2.2216537, -5.5750074, -0.6200495, 0
606, 1734179804, -0.87969697, 0.08047725, -0.29061693, 0.3676947, 2.8666518, -3.2606084, 3.3966322, 0
609, 1734229805, -0.878274, 0.08529016, -0.30535612, 0.35793695, 1.8403064, -8.334552, -1.2158594, 0
610, 1734246472, -0.87856734, 0.08837885, -0.31224924, 0.35044268, 3.255336, -7.0126967, -1.1868162, 0
611, 1734263139, -0.8777407, 0.08891456, -0.31998044, 0.34536785, 2.744693, -5.012219, 2.1469402, 0
613, 1734296473, -0.87358344, 0.08406979, -0.33098388, 0.34674892, 3.0313816, -3.0226953, -3.5688329, 0
614, 1734313140, -0.8706954, 0.08077374, -0.3351129, 0.35080725, 1.4069252, -3.1457086, -6.210992, 0
615, 1734329807, -0.8696664, 0.08292403, -0.33297235, 0.35487223, -3.0975375, 1.4663736, 4.0250645, 0
617, 1734363141, -0.8739028, 0.09515853, -0.30499274, 0.3663592, 1.9851137, -2.2193432, -11.34638, 0
618, 1734379808, -0.8749603, 0.09450786, -0.2993086, 0.3686843, -0.616611, 0.9637296, 8.539518, 0
619, 1734396475, -0.8762184, 0.09449145, -0.29431877, 0.36971655, 1.2647941, -0.32376242, 9.215147, 0
621, 1734429809, -0.87707955, 0.09380994, -0.29014206, 0.37114656, -1.8239794, 4.5600452, -4.24808, 0
623, 1734463143, -0.87803316, 0.09359162, -0.28425133, 0.3734979, -3.756353, 3.5623114, 3.7114763, 0
625, 1734496477, -0.8776101, 0.09320949, -0.2832045, 0.3753785, -1.7630002, 7.689512, -1.3975592, 0
627, 1734529811, -0.8773252, 0.09127525, -0.28193578, 0.37746888, -3.2071252, 3.7663872, 1.4019613, 0
629, 1734563145, -0.8760251, 0.08995785, -0.2831179, 0.37991196, -4.8265343, 4.153806, -0.9733181, 0
630, 1734579812, -0.87564063, 0.087571494, -0.28325674, 0.38124973, -2.7120748, 2.8300405, 0.2071886, 0
631, 1734596479, -0.8751618, 0.08555199, -0.28366122, 0.38250443, -3.829967, 3.5961297, 0.64698315, 0
633, 1734629813, -0.87390876, 0.0813704, -0.2840238, 0.38599718, -2.9144058, 2.1705272, -0.9815521, 0
634, 1734646480, -0.87280434, 0.07959726, -0.2845795, 0.3884489, -2.191177, 1.2767519, -0.25301838, 0
636, 1734679814, -0.8691944, 0.07809581, -0.29008085, 0.39275473, -2.3462539, 2.771846, 0.46740246, 0
638, 1734713148, -0.86542475, 0.078660615, -0.29484147, 0.3973938, -0.8847555, 1.1067683, -0.80886936, 0
640, 1734746482, -0.8634915, 0.07614722, -0.29594895, 0.4012474, 0.33691293, -0.15817738, -1.0222445, 0
641, 1734763149, -0.86319625, 0.07438738, -0.295735, 0.40236878, -0.17241007, 1.4864876, -1.1453409, 0
644, 1734813150, -0.86385214, 0.0719332, -0.2932126, 0.40325266, 0.448177, 2.067343, -0.2561798, 0
645, 1734829817, -0.86438125, 0.071252435, -0.2925292, 0.40273565, -0.035512634, 2.6589878, 0.47194386, 0
646, 1734846484, -0.8649314, 0.07098571, -0.29160008, 0.40227517, -0.12946944, -1.0306963, -0.85529613, 0
648, 1734879818, -0.8647324, 0.07085651, -0.2927457, 0.4018932, 0.48570395, 0.23061875, 0.044139862, 0
649, 1734896485, -0.8646794, 0.07109089, -0.29301307, 0.4017711, 0.8926257, 0.24136476, -0.36161995, 0
650, 1734913152, -0.8646722, 0.071239464, -0.29351637, 0.40139264, -0.5401083, 0.5705101, 1.4965448, 0
653, 1734963153, -0.8637215, 0.07323093, -0.29653037, 0.40086558, 1.4773585, -0.5666145, -0.9298973, 0
654, 1734979820, -0.86352265, 0.07400144, -0.29725987, 0.40061194, 0.5722307, -0.60895187, -0.7557144, 0
656, 1735013154, -0.8627461, 0.075959876, -0.29938293, 0.40033785, 0.7169169, -1.7725523, -0.7320137, 0
657, 1735029821, -0.8625391, 0.0770334, -0.3005884, 0.39967453, 1.4250623, -1.8629153, -1.1115332, 0
660, 1735079822, -0.86362284, 0.07842508, -0.30058417, 0.39705837, 1.6365737, -2.1208146, -0.58983994, 0
661, 1735096489, -0.86441773, 0.07876343, -0.2997216, 0.39591172, 1.1877049, -1.3761415, 0.9711933, 0
663, 1735129823, -0.8660886, 0.080413766, -0.29807192, 0.3931643, 2.0729792, -1.4912709, -0.62707233, 0
664, 1735146490, -0.8667043, 0.08113381, -0.29743534, 0.3921404, 1.5459986, -0.8811272, 0.72579384, 0
665, 1735163157, -0.86730516, 0.08212268, -0.296632, 0.39121336, 1.2215753, -2.44638, -0.14454556, 0
668, 1735213158, -0.86912656, 0.08476339, -0.29350182, 0.38896272, -0.32594067, -0.9300079, 1.1901245, 0
669, 1735229825, -0.86971784, 0.085235395, -0.29233935, 0.38841328, 0.13848303, 0.02883278, 1.4057627, 0
671, 1735263159, -0.8706362, 0.08646986, -0.29068667, 0.38732103, 0.9941666, -2.1107843, 0.9665108, 0
672, 1735279826, -0.87096334, 0.087653875, -0.28990272, 0.38690728, 1.820285, -3.0576758, -1.4127455, 0
673, 1735296493, -0.87107575, 0.08857548, -0.29061007, 0.3859126, 0.52141637, 0.17927831, -0.27323914, 0
676, 1735346494, -0.87158406, 0.089699954, -0.29446396, 0.38155878, 1.6865684, -3.291256, -0.24566174, 0
677, 1735363161, -0.8718689, 0.08998851, -0.2957719, 0.3798246, 2.8767695, -6.3401365, -0.89772415, 0
679, 1735396495, -0.87117803, 0.09271711, -0.30165762, 0.37610656, 3.3731825, -4.556124, -1.0840454, 0
680, 1735413162, -0.8707022, 0.09446576, -0.30409503, 0.37480822, 1.8712953, -3.5045931, 0.8182287, 0
683, 1735463163, -0.86830205, 0.09922991, -0.31228465, 0.37240326, 3.253223, -5.6514287, -2.3391309, 0
684, 1735479830, -0.8676059, 0.099447906, -0.31574845, 0.37104452, 2.914707, -4.6780396, -2.2012248, 0
685, 1735496497, -0.8667501, 0.1001734, -0.3185619, 0.3704439, 1.6627645, -3.4553545, 0.73832417, 0
687, 1735529831, -0.8661542, 0.10422637, -0.3172651, 0.37183005, 0.40346256, -0.073462285, -0.9126568, 0
688, 1735546498, -0.86667717, 0.10585437, -0.31475663, 0.37228337, -0.24953859, 0.19055647, -1.7500134, 0
690, 1735579832, -0.86885303, 0.11007876, -0.30383873, 0.37504697, 1.6045955, 0.7418576, 0.8006849, 0
691, 1735596499, -0.86982405, 0.11146413, -0.30002415, 0.3754577, 3.0410466, 1.9665586, 1.7187252, 0
692, 1735613166, -0.8708459, 0.11047968, -0.2989444, 0.37423927, -0.2374253, 6.1870914, -3.0334687, 0
694, 1735646500, -0.87432635, 0.105484545, -0.2937709, 0.3716529, -1.6808622, 1.4891747, 3.1517887, 0
695, 1735663167, -0.875546, 0.105386384, -0.29229546, 0.3699691, -0.5506577, 2.8559668, 2.5910416, 0
698, 1735713168, -0.8772365, 0.1046018, -0.29123244, 0.36701402, -2.6703846, 5.2085495, 2.161254, 0
699, 1735729835, -0.8776175, 0.10318145, -0.29072577, 0.36690706, -2.6816611, 1.6233512, 0.683424, 0
700, 1735746502, -0.87728375, 0.1025179, -0.29188403, 0.3669714, -5.6647077, 5.5910063, -0.1468029, 0
702, 1735779836, -0.87696517, 0.10216937, -0.29159796, 0.36805594, -2.3157902, 1.791398, -1.226057, 0
703, 1735796503, -0.8765584, 0.10166629, -0.2918743, 0.36894387, -2.6348715, 2.7314196, -1.046318, 0
706, 1735846504, -0.87588906, 0.09724688, -0.29271978, 0.37104905, -2.621285, 1.813791, 0.14081287, 0
707, 1735863171, -0.87523454, 0.0965086, -0.29349288, 0.3721738, -0.9679377, 1.3575015, -2.6393032, 0
708, 1735879838, -0.87470317, 0.09613046, -0.29360545, 0.37343028, 0.7208329, -0.8775857, -3.1659975, 0
710, 1735913172, -0.8729798, 0.0965455, -0.29583508, 0.37559006, -1.1227887, 2.0894718, 1.2741318, 0
712, 1735946506, -0.87130934, 0.097244024, -0.29792437, 0.37763166, -0.1298342, 2.229683, 1.1072845, 0
714, 1735979840, -0.8700923, 0.09812094, -0.30008066, 0.37850264, -0.8306309, 1.519182, -1.1507626, 0
715, 1735996507, -0.87033117, 0.09715756, -0.29984665, 0.37838766, -0.28039858, 0.65495306, -0.67745495, 0
717, 1736029841, -0.8715907, 0.09436956, -0.298548, 0.37721932, 0.52155876, -0.14304896, -0.089445114, 0
718, 1736046508, -0.87280273, 0.09206889, -0.29708266, 0.37614027, -0.8210603, 1.1130315, 0.74092007, 0
719, 1736063175, -0.8741506, 0.08955377, -0.29511368, 0.3751662, -0.5119307, 0.114793904, 0.62822056, 0
722, 1736113176, -0.87691027, 0.08428004, -0.29151607, 0.372753, 0.51291484, -1.446688, -0.4425993, 0
723, 1736129843, -0.87736666, 0.0836416, -0.29086086, 0.37233427, 0.2685231, -0.2398455, -0.48161316, 0
725, 1736163177, -0.8771482, 0.08430015, -0.2907916, 0.37275442, 0.23791993, 0.45370677, -0.35617065, 0
727, 1736196511, -0.87631756, 0.08503784, -0.29206094, 0.37354717, -0.32076478, -0.5254433, 1.0327349, 0
729, 1736229845, -0.8754273, 0.08546475, -0.2944381, 0.37367064, -0.9863783, -0.3994353, -0.68927765, 0
730, 1736246512, -0.8754185, 0.086158015, -0.29402348, 0.373859, 0.98513615, -1.6315149, 0.71659184, 0
731, 1736263179, -0.8752272, 0.08700962, -0.29518685, 0.37319228, 1.8607693, -2.9110243, -2.0396018, 0
733, 1736296513, -0.87592536, 0.087098636, -0.29498017, 0.37169412, 2.2285686, -0.76394343, -0.5652342, 0
734, 1736313180, -0.87689173, 0.086544886, -0.29340494, 0.37079012, 0.32484457, -0.545238, 2.2336388, 0
735, 1736329847, -0.8779002, 0.08630148, -0.29158387, 0.3698961, 1.7521707, -3.6245043, -0.11568165, 0
738, 1736379848, -0.88136065, 0.0849285, -0.28592402, 0.3663862, 1.5747687, -2.0604417, 0.8116026, 0
739, 1736396515, -0.8823988, 0.08507275, -0.28373316, 0.36555615, 0.49154353, -2.76977, -0.53631973, 0
742, 1736446516, -0.884184, 0.08500858, -0.28117242, 0.363229, -0.7722247, -1.3644881, 0.040213585, 0
744, 1736479850, -0.88449425, 0.08547789, -0.2800641, 0.36321983, 2.1773522, -4.9604144, -2.7679815, 0
745, 1736496517, -0.884185, 0.08548689, -0.28133857, 0.36298567, 0.63038456, -1.5225447, -0.7738066, 0
746, 1736513184, -0.883545, 0.08638862, -0.2824284, 0.36348408, 1.4652795, -3.3669665, 0.18358612, 0
748, 1736546518, -0.88168186, 0.08973599, -0.28612062, 0.36430806, 0.9103224, -3.5136425, 0.18817616, 0
749, 1736563185, -0.88076967, 0.09079001, -0.28865373, 0.36425528, 2.0530398, -3.052018, 0.09519768, 0
750, 1736579852, -0.8800771, 0.09120362, -0.29128128, 0.36373407, 2.3783925, -2.7681592, 1.2302656, 0
752, 1736613186, -0.87922823, 0.09120786, -0.29622585, 0.36178723, 2.6204126, -5.4710174, -0.7239542, 0
754, 1736646520, -0.87904656, 0.09077762, -0.30075034, 0.35859022, 3.2022429, -2.636597, 3.4889984, 0
757, 1736696521, -0.8798886, 0.09013654, -0.30646577, 0.3517831, 1.2483488, -3.3236442, 0.22959328, 0
758, 1736713188, -0.87924796, 0.09088507, -0.3068178, 0.35288334, 1.77393, -2.4244962, -3.7242756, 0
760, 1736746522, -0.8791548, 0.0949362, -0.30194008, 0.3562403, -0.6079488, -0.4744182, 2.5575686, 0
761, 1736763189, -0.87841445, 0.098342516, -0.29995617, 0.35880935, -0.2021878, -1.9079075, -1.4668865, 0
762, 1736779856, -0.8781411, 0.10044626, -0.2977406, 0.36073607, 0.82604563, 2.665014, -1.97016, 0
764, 1736813190, -0.87785095, 0.10310621, -0.29287624, 0.36465254, -1.4809021, 1.4202905, -0.009068489, 0
765, 1736829857, -0.8776155, 0.10376454, -0.29152516, 0.36611187, -2.9269948, 3.4289591, 0.7126694, 0
766, 1736846524, -0.8777647, 0.10345589, -0.2904508, 0.3666954, -4.5968184, 5.435403, 2.3645105, 0
768, 1736879858, -0.8794227, 0.10134115, -0.2868818, 0.36612248, -4.37645, 6.497419, 1.5501995, 0
769, 1736896525, -0.8801154, 0.100658245, -0.28483996, 0.3662401, -1.5720444, 5.8124433, 0.77740383, 0
772, 1736946526, -0.8810322, 0.095236, -0.28107655, 0.3683874, -3.994544, 3.3419824, -0.32947254, 0
775, 1736996527, -0.8798441, 0.09151649, -0.28250113, 0.37107033, -1.7945775, 3.0890055, -0.6770325, 0
776, 1737013194, -0.8787411, 0.09027986, -0.28468782, 0.37231374, -3.837503, 4.708652, -0.025371552, 0
777, 1737029861, -0.87768924, 0.08926693, -0.28597325, 0.37405008, -2.3757725, 0.9272866, 1.8806047, 0
779, 1737063195, -0.876358, 0.08517464, -0.28756034, 0.37689796, -2.7403018, 1.9058491, -0.88597107, 0
780, 1737079862, -0.8760256, 0.083341934, -0.28685892, 0.3786111, -0.9279518, -0.5682806, -1.1238422, 0
781, 1737096529, -0.87554246, 0.0816927, -0.2863492, 0.38046962, -1.1012722, 1.3244407, 0.4522581, 0
783, 1737129863, -0.87463456, 0.07863584, -0.28598842, 0.3834607, -1.2441375, 2.5682697, 1.0932407, 0
787, 1737196531, -0.87285376, 0.076251745, -0.28533202, 0.38845667, -0.9073437, 1.9203111, -1.1375704, 0
788, 1737213198, -0.8722032, 0.07660095, -0.2855625, 0.3896781, -0.20265338, -0.85835093, 0.7179079, 0
789, 1737229865, -0.8713944, 0.0775949, -0.2861649, 0.39084738, -0.58565915, 0.5363871, 0.7230482, 0
791, 1737263199, -0.8696492, 0.07960134, -0.28827113, 0.3927783, 0.05237825, -0.32634893, -1.3581591, 0
792, 1737279866, -0.86872417, 0.08076437, -0.2894796, 0.3936978, -0.9908233, 0.5264931, -0.47207546, 0
793, 1737296533, -0.86781824, 0.08216636, -0.29075488, 0.39446512, -0.0181421, -1.774846, -0.9267359, 0
795, 1737329867, -0.8661658, 0.084985025, -0.294038, 0.39506567, 0.4601164, 0.2020047, 0.5965357, 0
796, 1737346534, -0.8656672, 0.08608478, -0.2954155, 0.3948927, 0.4715196, -0.17450428, -0.17997456, 0
798, 1737379868, -0.864925, 0.08762156, -0.29794803, 0.39427805, 1.107366, -0.5935005, -0.98738194, 0
799, 1737396535, -0.86469764, 0.08846673, -0.29903033, 0.39376843, 0.61871916, 0.11521618, 0.7054405, 0
803, 1737463203, -0.8631206, 0.09569725, -0.3052317, 0.39076778, 1.6244626, -0.94532835, -1.8391795, 0
804, 1737479870, -0.8624029, 0.099046305, -0.30759874, 0.38965997, 1.8270936, -0.0825958, 0.8636646, 0
806, 1737513204, -0.8619911, 0.10449657, -0.3103138, 0.38698575, 1.2188513, -0.07492596, -0.24386692, 0
807, 1737529871, -0.8625413, 0.106335, -0.31008413, 0.3854404, 2.0301762, -0.7861342, 1.733635, 0
808, 1737546538, -0.8630352, 0.10791139, -0.31077164, 0.38333744, 1.986901, -2.045181, -1.6125326, 0
810, 1737579872, -0.86511534, 0.10809333, -0.31005004, 0.37915862, 1.9435704, -0.00440002, -0.780674, 0
811, 1737596539, -0.86675876, 0.1084734, -0.3078444, 0.37708855, 0.5158596, -0.10182032, 2.455244, 0
812, 1737613206, -0.86815715, 0.10945627, -0.3059827, 0.3750975, 1.4014992, -2.4638598, 0.23003483, 0
814, 1737646540, -0.87128663, 0.10923073, -0.30213007, 0.37100786, 2.3602562, -0.60187465, 0.22828197, 0
816, 1737679874, -0.8744545, 0.10906715, -0.29820693, 0.36675236, 1.4068605, -2.4069247, -0.8619242, 0
819, 1737729875, -0.8777231, 0.10974812, -0.29358402, 0.36244604, 0.15888888, -1.0632665, 1.1543818, 0
820, 1737746542, -0.87848485, 0.11026627, -0.29241318, 0.36138824, 0.47369492, -2.8048296, -0.8204527, 0
822, 1737779876, -0.87918, 0.110112935, -0.29144204, 0.36052752, 1.6985143, -3.2252977, 0.812541, 0
823, 1737796543, -0.87926, 0.109403804, -0.2918539, 0.36021543, 0.46776992, -3.7395148, 0.2094574, 0
825, 1737829877, -0.878362, 0.11044357, -0.29432818, 0.3600754, 0.7759128, -3.247701, -0.3541584, 0
826, 1737846544, -0.8775215, 0.11231753, -0.29527125, 0.36077234, 1.3830482, -2.7589002, 0.69117737, 0
827, 1737863211, -0.87652314, 0.11369756, -0.29707417, 0.36128697, 1.6861097, -4.470623, -0.69150925, 0
829, 1737896545, -0.8743263, 0.113900155, -0.30302614, 0.36160257, 1.8101784, -2.9214559, -0.3376398, 0
831, 1737929879, -0.8732551, 0.11276463, -0.3067452, 0.36141136, 1.2379788, -4.4776735, -3.6282592, 0
833, 1737963213, -0.8729463, 0.11411171, -0.30563694, 0.36267117, 2.6167386, -5.1872916, -2.6249604, 0
835, 1737996547, -0.87304443, 0.117448024, -0.3032737, 0.36335322, 0.6044515, 0.51922727, 4.625724, 0
837, 1738029881, -0.87370384, 0.12131959, -0.30035084, 0.36292362, 0.16182673, 6.327714, -1.6550636, 0
838, 1738046548, -0.8744134, 0.124250576, -0.29731765, 0.36272073, 1.1692356, 2.4785717, -1.4318495, 0
839, 1738063215, -0.8755527, 0.12540969, -0.2947525, 0.36166555, 1.3442476, 2.4700005, 0.73335934, 0
841, 1738096549, -0.8779427, 0.12277498, -0.2927622, 0.3583771, -2.6508038, 8.094342, 1.6682091, 0
842, 1738113216, -0.87991077, 0.11953707, -0.2905263, 0.35645938, -2.6628222, 5.3474355, 0.39725494, 0
843, 1738129883, -0.88162374, 0.11649877, -0.28871936, 0.35469672, -4.624118, 4.818059, -1.433425, 0
846, 1738179884, -0.8852203, 0.1111833, -0.28275672, 0.35223976, -3.1526206, 5.8588924, 0.7074375, 0
847, 1738196551, -0.88520825, 0.11064046, -0.28281733, 0.35239223, -3.542155, 5.3528905, 0.7199507, 0
849, 1738229885, -0.88357764, 0.11192494, -0.2849893, 0.35432377, -3.8102145, 1.2578773, 0.28118134, 0
850, 1738246552, -0.88182753, 0.11387614, -0.2875187, 0.35601467, -3.459875, 1.464231, -2.891643, 0
851, 1738263219, -0.8797952, 0.11537161, -0.29099625, 0.3577317, -3.7561684, 3.7744136, -1.1243248, 0
853, 1738296553, -0.8762927, 0.11575187, -0.29766905, 0.36070335, -2.3458178, 4.124178, 0.6185694, 0
854, 1738313220, -0.8760053, 0.113694385, -0.29819047, 0.36162373, -0.37229145, 1.1351644, 0.5638256, 0
856, 1738346554, -0.8766318, 0.11045536, -0.29611745, 0.36281073, 0.39223036, -0.011592946, -0.9421644, 0
857, 1738363221, -0.8767996, 0.10886096, -0.29636058, 0.3626887, -0.36953464, 3.8512552, -3.8271046, 0
858, 1738379888, -0.87780225, 0.106303796, -0.29487702, 0.36223072, -1.2668779, 4.971153, -0.17519093, 0
861, 1738429889, -0.8805897, 0.099745385, -0.29086068, 0.3605742, 0.9503277, -0.35255134, -1.6088104, 0
862, 1738446556, -0.88116205, 0.09854567, -0.29015544, 0.3600735, 0.7116268, 0.5268593, -2.1649418, 0
865, 1738496557, -0.88186884, 0.096206255, -0.28903922, 0.35987368, -0.7336529, 1.6186949, 1.6072998, 0
866, 1738513224, -0.88164485, 0.09616569, -0.29003674, 0.35963053, 0.44726327, 0.09845824, -1.0675001, 0
868, 1738546558, -0.88052666, 0.09835241, -0.29225868, 0.35997963, 1.1398854, -2.8359451, -3.5958796, 0
869, 1738563225, -0.8800589, 0.099412546, -0.29288396, 0.36032405, -0.22962558, -0.23133317, 0.15939522, 0
870, 1738579892, -0.8802015, 0.09998966, -0.29186246, 0.3606449, 0.4384068, -1.5594655, -0.06239128, 0
872, 1738613226, -0.8806695, 0.09963456, -0.2913865, 0.35998458, 0.8245156, 0.40272978, 3.3236113, 0
873, 1738629893, -0.88112, 0.09925632, -0.29105088, 0.35925764, 2.539829, -2.53095, -2.2033887, 0
876, 1738679894, -0.88299644, 0.0979485, -0.28900588, 0.35665125, -0.20842226, -0.14086702, 2.7957048, 0
877, 1738696561, -0.8840028, 0.09727542, -0.28700703, 0.355956, -0.22928071, -2.1187575, 0.70732975, 0
879, 1738729895, -0.8854111, 0.09684765, -0.28439236, 0.35466868, 2.6652966, -1.768641, -0.518528, 0
881, 1738763229, -0.886088, 0.09569115, -0.28348598, 0.3540169, -0.6632097, -1.0727426, 1.0103436, 0
883, 1738796563, -0.88606423, 0.09525223, -0.28336206, 0.35429424, -0.30528808, -1.0449104, 0.2627344, 0
884, 1738813230, -0.8860715, 0.09479697, -0.2836033, 0.354205, -0.010496839, -1.3356162, -0.62901306, 0
885, 1738829897, -0.88635206, 0.09448992, -0.28245598, 0.3545017, -0.07018262, -0.35879126, 1.4016094, 0
887, 1738863231, -0.88685465, 0.093721054, -0.28042302, 0.3550618, -0.40666908, 0.02664185, 1.3470812, 0
888, 1738879898, -0.8873649, 0.09281018, -0.27934498, 0.35487577, 0.20185813, -0.7656111, 0.8628025, 0
891, 1738929899, -0.8886083, 0.09114248, -0.27670422, 0.35426557, 0.09997064, -0.20864923, 0.593318, 0
892, 1738946566, -0.88898575, 0.09034982, -0.27578762, 0.35423622, -0.14375101, -1.1374491, -0.80515385, 0
893, 1738963233, -0.88906837, 0.08966133, -0.275915, 0.35410467, -1.3846701, -0.5710011, 0.59062576, 0
895, 1738996567, -0.88895994, 0.08898343, -0.27508113, 0.35519543, 0.28467438, -3.1080198, 1.0415182, 0
897, 1739029901, -0.88741606, 0.09013407, -0.27780387, 0.3566438, 0.9411907, -3.2313137, -2.366696, 0
899, 1739063235, -0.884193, 0.09486145, -0.28348285, 0.35894617, 0.8455126, -4.4731383, 1.5900278, 0
900, 1739079902, -0.88232386, 0.098695695, -0.28646338, 0.36014375, 2.2053792, -6.853961, 1.1267185, 0
901, 1739096569, -0.8802779, 0.10252951, -0.29090846, 0.3605162, 3.574077, -7.4681664, -0.23562908, 0
903, 1739129903, -0.8772553, 0.105713286, -0.29992044, 0.35957825, 2.24166, -2.9395158, 1.2759123, 0
906, 1739179904, -0.8748003, 0.10727942, -0.3053392, 0.3605337, 3.3137922, -5.4410086, -1.9287915, 0
907, 1739196571, -0.8740002, 0.10801806, -0.30684364, 0.36097634, 2.2574456, -4.5482287, -2.850212, 0
908, 1739213238, -0.873477, 0.10902761, -0.30683255, 0.36194733, 0.44277826, 0.935326, 1.6933336, 0
910, 1739246572, -0.8727629, 0.11379965, -0.30319694, 0.36524934, 0.33550927, -1.5717827, -3.8862476, 0
911, 1739263239, -0.8717634, 0.11794524, -0.30173662, 0.3675237, -0.6956045, 3.3430192, -3.9039164, 0
914, 1739313240, -0.87432677, 0.112776294, -0.292685, 0.3703658, -1.991656, 6.3328137, 3.8353071, 0
915, 1739329907, -0.87562436, 0.10974112, -0.29050243, 0.36993018, -1.5888861, 6.342645, 3.4208202, 0
916, 1739346574, -0.8767605, 0.10758837, -0.28963652, 0.3685477, -1.855995, 5.3941584, -2.7946215, 0
918, 1739379908, -0.88051265, 0.10179076, -0.28442022, 0.36529768, -0.9817726, 5.070928, 2.0116272, 0
920, 1739413242, -0.88421893, 0.09545759, -0.27862585, 0.36250994, -1.4814429, 6.1505647, 0.7731905, 0
922, 1739446576, -0.8866888, 0.09279641, -0.27408758, 0.36062285, -1.690146, 3.2392318, -1.7236242, 0
923, 1739463243, -0.8873645, 0.09226232, -0.27298906, 0.35993055, -2.64399, 0.6614201, -2.3798666, 0
924, 1739479910, -0.88723105, 0.09221232, -0.27310893, 0.36018124, -6.0020447, 4.1243596, 2.4435263, 0
926, 1739513244, -0.8857684, 0.091177516, -0.27600875, 0.36183047, -4.3941364, 4.265768, -0.9586992, 0
927, 1739529911, -0.8850267, 0.090560034, -0.2769174, 0.363104, -1.8095312, -0.26656598, -0.6414442, 0
928, 1739546578, -0.8840101, 0.09062854, -0.27814454, 0.36462235, -2.6821437, 2.1792513E-4, 0.6769028, 0
930, 1739579912, -0.8819779, 0.08937842, -0.28089124, 0.3677329, -2.2572784, 2.5527925, -0.8832321, 0
931, 1739596579, -0.88163275, 0.088063374, -0.28024176, 0.3693698, -2.1755016, 0.3212009, 2.115325, 0
932, 1739613246, -0.88074166, 0.086974576, -0.28117082, 0.37104398, -2.3002377, 0.08466241, 1.7460213, 0
935, 1739663247, -0.87852037, 0.08479787, -0.2832152, 0.37523538, -0.8255458, -0.14094202, 0.884511, 0
937, 1739696581, -0.876167, 0.08524816, -0.28686512, 0.37785417, 0.529105, 1.7184471, -0.36271858, 0
938, 1739713248, -0.8750516, 0.085671775, -0.2885998, 0.3790199, -0.15049171, 1.5036634, -0.094099045, 0
939, 1739729915, -0.8743233, 0.08616725, -0.2895481, 0.37986445, -0.5800744, 0.38231036, 1.4211435, 0
941, 1739763249, -0.8732481, 0.08600055, -0.29130933, 0.38102695, -1.1417469, 1.1600304, -1.0913181, 0
943, 1739796583, -0.87363875, 0.084891945, -0.2898448, 0.3814962, -1.5283451, 0.19689815, 0.5391617, 0
945, 1739829917, -0.8743555, 0.084232725, -0.28759536, 0.38170314, 0.15755026, -0.41744792, 0.3697443, 0
946, 1739846584, -0.8743983, 0.08458847, -0.2869006, 0.38204914, 1.0091759, -0.7708195, -0.7860422, 0
947, 1739863251, -0.8742503, 0.08517785, -0.28676695, 0.38235706, 1.4047105, -2.07016, -0.871748, 0
950, 1739913252, -0.8713169, 0.08932876, -0.29236042, 0.3838666, -0.28646225, 2.0785315, 0.3652277, 0
951, 1739929919, -0.8701115, 0.09208974, -0.294619, 0.3842215, 0.45055854, -1.3167266, 0.03463173, 0
953, 1739963253, -0.8674028, 0.09796708, -0.3014635, 0.38358262, 1.6549418, -2.2298853, 0.26428604, 0
954, 1739979920, -0.8672433, 0.098890156, -0.30312133, 0.38239804, 2.2205622, -2.818836, -1.7726889, 0
955, 1739996587, -0.8674883, 0.09928162, -0.30391538, 0.3811085, 1.5051216, -0.664683, -1.1087646, 0
957, 1740029921, -0.86917716, 0.09924292, -0.3021591, 0.37865895, 1.0861056, -0.43378803, 1.492959, 0
960, 1740079922, -0.872615, 0.10008792, -0.29727802, 0.3743692, 1.8897924, -1.6616635, 0.02407074, 0
961, 1740096589, -0.87363386, 0.10034265, -0.29574785, 0.3731347, 0.38522995, -0.78836644, 0.93027115, 0
962, 1740113256, -0.8744636, 0.10071587, -0.29472175, 0.3719003, 0.522361, -0.666172, 0.6249285, 0
965, 1740163257, -0.8759267, 0.102955624, -0.29292554, 0.3692533, 1.1497884, -2.2716558, -1.7269754, 0
966, 1740179924, -0.875943, 0.10393518, -0.29314947, 0.36876225, 0.3861743, -1.7587998, -1.9625559, 0
968, 1740213258, -0.87506473, 0.10849394, -0.2941423, 0.36874405, 0.9041819, -1.5323355, 0.911417, 0
969, 1740229925, -0.87464464, 0.11151647, -0.29412505, 0.36885265, 1.3309678, -1.7719603, 2.2341175, 0
970, 1740246592, -0.87398696, 0.11407529, -0.29527724, 0.3687087, 1.5844646, -3.651929, 0.17134857, 0
972, 1740279926, -0.87273264, 0.11566661, -0.30037385, 0.36706367, 0.16147605, 0.004993112, -3.129274, 0
973, 1740296593, -0.8726085, 0.11643141, -0.30068183, 0.3668645, -0.62823033, 0.12010748, 1.5079536, 0
976, 1740346594, -0.87276745, 0.11838251, -0.30181748, 0.36492428, 3.2270558, -3.6030204, -2.13829, 0
977, 1740363261, -0.8735114, 0.1163791, -0.30322272, 0.36261678, 1.4847248, 0.09494641, -0.8916998, 0
980, 1740413262, -0.8770319, 0.11086879, -0.30169335, 0.35707894, 2.173381, -0.4115704, 2.798028, 0
981, 1740429929, -0.87814075, 0.10939194, -0.3020049, 0.354537, 3.453994, -2.1103365, 0.7038374, 0
982, 1740446596, -0.8790194, 0.10731961, -0.30392137, 0.351341, 2.0414157, 0.097077265, 1.3705873, 0
984, 1740479930, -0.88121533, 0.10470709, -0.30335116, 0.34709513, 2.8639104, -3.3417304, -3.656807, 0
985, 1740496597, -0.8817701, 0.10657585, -0.3012303, 0.34696475, 2.2766569, -3.6587334, -4.533877, 0
987, 1740529931, -0.8821346, 0.11203774, -0.2955002, 0.3492374, -1.1839857, 1.9232585, 3.4775524, 0
988, 1740546598, -0.8815867, 0.114138685, -0.29467836, 0.35063213, -1.2882187, 1.9836361, 0.9252939, 0
989, 1740563265, -0.880469, 0.11592567, -0.29575673, 0.35194403, -2.1305654, 2.9415727, -1.1201715, 0
992, 1740613266, -0.8773542, 0.11928885, -0.29582414, 0.35848132, -6.7655673, 0.9627641, 1.2229767, 0
995, 1740663267, -0.8756265, 0.11909735, -0.29574564, 0.3628083, -1.9290535, 7.116399, -2.31469, 0
996, 1740679934, -0.87557256, 0.11751005, -0.29483125, 0.3641974, -1.8827358, 5.9152064, 1.3352509, 0
997, 1740696601, -0.87539065, 0.11601778, -0.29485562, 0.36509243, 0.1212332, 0.022635492, -1.2048206, 0
999, 1740729935, -0.876101, 0.11169389, -0.29405397, 0.36538318, -0.23548253, 2.0986915, -2.3246374, 0
1000, 1740746602, -0.87745714, 0.10770796, -0.29201826, 0.36495817, -2.2307205, 5.2820973, -0.75338364, 0
1001, 1740763269, -0.87880147, 0.10419311, -0.28995672, 0.36438683, 0.14291486, 3.317652, -0.20650959, 0
1003, 1740796603, -0.8822709, 0.09610862, -0.28444526, 0.36256483, -1.5043571, 2.3065665, 1.4155521, 0
1004, 1740813270, -0.88357234, 0.09291908, -0.2827404, 0.36155903, -1.8485851, 1.4274143, -0.5174341, 0
1005, 1740829937, -0.8847755, 0.09034183, -0.28084043, 0.3607498, -1.064732, 0.57935244, -2.0503378, 0
1007, 1740863271, -0.8867283, 0.0855569, -0.2760403, 0.36082637, -1.2927285, -0.8827771, 0.84019756, 0
1009, 1740896605, -0.88707966, 0.081642434, -0.27348995, 0.36280605, -2.6371078, 0.34504282, -1.1229382, 0
1011, 1740929939, -0.8867856, 0.07825161, -0.27100372, 0.36612275, -1.8315095, -0.662054, -0.32842922, 0
1012, 1740946606, -0.88638794, 0.076351024, -0.27062333, 0.36776468, -2.225734, 1.8241487, -0.7471781, 0
1014, 1740979940, -0.8855349, 0.0733756, -0.26894936, 0.37163284, -1.4613292, -0.36633527, 0.5835333, 0
1015, 1740996607, -0.8851374, 0.071996085, -0.26813018, 0.37343752, -0.015021859, -1.9884453, -0.32230282, 0
1016, 1741013274, -0.8843992, 0.071005434, -0.26875213, 0.37492627, -1.7129586, 0.43297392, -0.23707104, 0
1018, 1741046608, -0.88291895, 0.07091004, -0.2685488, 0.3785611, -0.061253726, -2.4209158, -0.0025634766, 0
1019, 1741063275, -0.882054, 0.07106298, -0.26852903, 0.38055792, -1.1935683, -1.7892685, -1.0285959, 0
1022, 1741113276, -0.87815636, 0.07278377, -0.27071902, 0.38762873, -1.6397517, -1.6081451, 0.095674515, 0
1024, 1741146610, -0.87496024, 0.07464659, -0.27346578, 0.39254296, -0.14006707, -3.4943864, -2.2573624, 0
1026, 1741179944, -0.87142736, 0.07567031, -0.27722207, 0.39753893, -0.9119472, -0.82812774, -1.3010902, 0
1027, 1741196611, -0.8701644, 0.076173455, -0.27722403, 0.40019903, -0.3811629, -1.2430146, 0.882288, 0
1028, 1741213278, -0.86884046, 0.07671132, -0.27816266, 0.40231633, -0.7378219, -2.4331853, -0.93334293, 0
1030, 1741246612, -0.8667892, 0.077819765, -0.27993032, 0.40529075, 1.0993483, 0.1556314, -0.026786804, 0
1031, 1741263279, -0.8663372, 0.07786836, -0.27980542, 0.4063328, 0.69201744, -0.4659339, 0.60762787, 0
1032, 1741279946, -0.8659919, 0.078295775, -0.27966037, 0.40708607, 0.8233475, -0.8070524, 0.5851555, 0
1034, 1741313280, -0.86497176, 0.08041497, -0.28159946, 0.40750477, 1.2746545, 1.2041595, -0.6009712, 0
1035, 1741329947, -0.8643039, 0.082061745, -0.28350106, 0.407275, 0.48733, 1.8546406, -0.0646162, 0
1039, 1741396615, -0.8621131, 0.08991937, -0.29010302, 0.40560633, 0.48397663, 0.27614874, 0.262578, 0
1041, 1741429949, -0.86298525, 0.09147442, -0.2901716, 0.40334892, -0.5377078, 2.4654808, 2.498577, 0
1042, 1741446616, -0.8635166, 0.092205405, -0.29014403, 0.40206316, 1.2666075, 1.2387868, 1.7187328, 0
1043, 1741463283, -0.86401904, 0.09284851, -0.29047716, 0.4005925, 2.3146565, 0.29805622, -0.65522003, 0
1045, 1741496617, -0.8655263, 0.09366138, -0.29094666, 0.39679068, 0.7938425, -0.55832505, 2.0928593, 0
1046, 1741513284, -0.86634064, 0.09441398, -0.29044497, 0.39519945, 0.97266734, -1.8802891, 1.3445644, 0
1047, 1741529951, -0.866758, 0.09478234, -0.2920199, 0.3930296, 1.9022168, -2.5623612, -1.1681824, 0
1049, 1741563285, -0.8679111, 0.095889196, -0.29382268, 0.38885078, 2.0249846, -4.369682, -1.8848953, 0
1050, 1741579952, -0.8680613, 0.097404875, -0.29543713, 0.38691074, 2.3247511, -3.1927428, -1.1027174, 0
1051, 1741596619, -0.8682609, 0.09910019, -0.29715744, 0.38470846, 1.1742327, -2.0335195, 3.0718145, 0
1055, 1741663287, -0.8689748, 0.09920459, -0.30922168, 0.37339577, 2.829231, -3.5304956, -2.4959354, 0
1057, 1741696621, -0.87012845, 0.09958991, -0.30941162, 0.37043723, 2.1470299, -2.1274514, 1.7492476, 0
1058, 1741713288, -0.8706705, 0.101849146, -0.30657983, 0.37090325, 3.0729983, -3.1281888, 0.8360262, 0
1059, 1741729955, -0.8706145, 0.10307245, -0.30765274, 0.36980715, 1.5094576, -2.0913718, -0.1221838, 0
1061, 1741763289, -0.87026787, 0.10655671, -0.30958322, 0.36802033, 2.4058871, -1.77219, -3.9262471, 0
1062, 1741779956, -0.871116, 0.10866599, -0.30501473, 0.3692097, 1.3800347, -0.5019127, -2.176424, 0
1063, 1741796623, -0.8719789, 0.11006143, -0.30160543, 0.36955994, -0.1875039, 0.9234624, -0.49204922, 0
1065, 1741829957, -0.87444574, 0.11138535, -0.2937646, 0.36965027, 0.54322344, 0.057603534, 3.606307, 0
1066, 1741846624, -0.8747446, 0.11102891, -0.29497507, 0.3680835, -4.7223125, 7.283791, -7.1262355, 0
1069, 1741896625, -0.8781025, 0.10679525, -0.28654408, 0.36800045, -5.1142206, 5.7896857, 9.914541, 0
1072, 1741946626, -0.8765047, 0.10689415, -0.28831708, 0.3703881, -0.27871898, 4.1894403, -4.834185, 0
1073, 1741963293, -0.87556815, 0.10732749, -0.2891385, 0.3718351, -0.9658855, 1.380195, 2.7788572, 0
1074, 1741979960, -0.8742555, 0.10759099, -0.29113245, 0.37328854, -4.5047956, 3.9455204, 3.6056986, 0
1076, 1742013294, -0.8737181, 0.10398142, -0.29190272, 0.3749646, -2.1486206, 3.649979, -1.2892694, 0
1077, 1742029961, -0.8745535, 0.10110107, -0.290396, 0.37497428, -0.17222388, 1.1025642, 0.13590908, 0
1078, 1742046628, -0.8752097, 0.098242044, -0.28941023, 0.37496576, -0.8188026, 3.2856503, 1.8977242, 0
1080, 1742079962, -0.87697536, 0.09305383, -0.2855973, 0.37508696, -0.7247384, -0.2915053, -2.79216, 0
1081, 1742096629, -0.87799156, 0.090981096, -0.2833205, 0.37494472, -0.7825352, -1.0772868, -1.6297665, 0
1084, 1742146630, -0.87793696, 0.087159544, -0.28263003, 0.37649852, -0.79062927, 2.1336792, 0.97719383, 0
1085, 1742163297, -0.87764984, 0.08646126, -0.28368467, 0.37653577, -0.99757475, 1.0940711, -1.0869865, 0
1086, 1742179964, -0.8771068, 0.086369224, -0.2845546, 0.37716553, -0.53942347, -1.4559366, -2.0613523, 0
1088, 1742213298, -0.87617624, 0.08644873, -0.28517896, 0.3788346, 0.4711331, 0.23344266, 0.80511856, 0
1089, 1742229965, -0.8759591, 0.086204916, -0.28548202, 0.37916398, -0.6565923, 1.4755534, 0.3035164, 0
1090, 1742246632, -0.87550193, 0.085723855, -0.28705716, 0.37913957, -1.2576506, 2.6232018, -0.12597656, 0
1092, 1742279966, -0.8755402, 0.08565101, -0.2871676, 0.37898448, 0.27762568, -1.1808778, -1.5356665, 0
1093, 1742296633, -0.8754692, 0.08530794, -0.28855258, 0.37817287, -0.6092436, 1.4789689, -1.5051832, 0
1095, 1742329967, -0.8760189, 0.08558826, -0.2880553, 0.3772144, -0.31858867, 1.0310806, 0.8428736, 0
1096, 1742346634, -0.87612283, 0.08634591, -0.2874047, 0.37729678, 1.625579, -1.7253587, 0.7007036, 0
1099, 1742396635, -0.8762088, 0.08678758, -0.28805962, 0.3764955, -0.01862064, 0.1465497, -3.28153, 0
1101, 1742429969, -0.87610227, 0.08607239, -0.28936097, 0.3759089, -0.70647013, -0.0028342002, 3.1284704, 0
1103, 1742463303, -0.877366, 0.087121956, -0.28440696, 0.3764999, 2.0032666, -6.2892594, -2.9832067, 0
1104, 1742479970, -0.87731606, 0.08663884, -0.2856636, 0.37577587, 0.2183355, 1.3301504, 0.2698021, 0
1105, 1742496637, -0.87765497, 0.08618692, -0.2853152, 0.37535304, 0.18720126, 3.2336197, 1.8488779, 0
1107, 1742529971, -0.8775905, 0.085460715, -0.2873875, 0.3740869, -0.34457943, -1.3763129, -0.7087269, 0
1108, 1742546638, -0.8780517, 0.08678146, -0.28398076, 0.37530005, 1.6073308, -5.307572, 3.675376, 0
1109, 1742563305, -0.8781033, 0.08754924, -0.28316885, 0.37561443, 2.1107368, -8.041205, -3.0951033, 0
1111, 1742596639, -0.8776197, 0.08801025, -0.2835102, 0.37637872, -2.0812056, 4.499704, 2.3733196, 0
1113, 1742629973, -0.8774623, 0.08892841, -0.28260744, 0.3772079, 2.4535675, -5.3107963, -3.9043097, 0
1115, 1742663307, -0.8766142, 0.091146015, -0.28239864, 0.37880322, 0.5290229, -2.571553, -2.1226735, 0
1117, 1742696641, -0.8768804, 0.09195173, -0.28012672, 0.37967822, -1.550797, 2.5400612, 3.5715466, 0
1119, 1742729975, -0.8766218, 0.09355435, -0.28118628, 0.3791005, 3.9292684, -2.2390952, -1.6487846, 0
1120, 1742746642, -0.8760889, 0.09466998, -0.28327298, 0.3785012, 3.4042368, -4.559988, -4.565555, 0
1122, 1742779976, -0.87671053, 0.09408329, -0.28403172, 0.37663516, -1.1534904, -0.34032562, 5.995941, 0
1123, 1742796643, -0.87736976, 0.09398869, -0.2839454, 0.3751861, 0.44044635, -0.8293654, 4.496296, 0
1124, 1742813310, -0.8775361, 0.09407388, -0.28700894, 0.37243402, 4.390393, -3.0373652, -2.7279668, 0
1126, 1742846644, -0.8783885, 0.09310608, -0.2913299, 0.36727756, 2.4773924, -5.131838, -2.3785014, 0
1128, 1742879978, -0.8799933, 0.09330179, -0.28897297, 0.36524254, 1.997551, -2.075303, 1.564002, 0
1130, 1742913312, -0.88047713, 0.09432758, -0.29035544, 0.3627079, 3.2073832, -4.271343, -1.4825935, 0
1131, 1742929979, -0.8799478, 0.09435667, -0.29426917, 0.36082602, 0.8066007, -0.19528751, -1.1041918, 0
1134, 1742979980, -0.8768455, 0.10368658, -0.2995016, 0.36151198, 0.18286087, -0.9573632, 0.94658566, 0
1135, 1742996647, -0.87579197, 0.10874777, -0.2989758, 0.36301088, 0.9187138, -1.6472787, -0.44580746, 0
1136, 1743013314, -0.87538564, 0.1118132, -0.29748172, 0.36428505, 0.1670082, 1.6203376, 0.17769909, 0
1138, 1743046648, -0.87622434, 0.1132231, -0.29318663, 0.3653136, -0.2615506, 3.1170814, 1.455431, 0
1139, 1743063315, -0.8768939, 0.11265295, -0.2921737, 0.36469474, -0.9925837, 3.0500617, -0.62729645, 0
1140, 1743079982, -0.87777126, 0.11143683, -0.2906989, 0.36413527, -0.09292372, 3.5853171, 1.0391178, 0
1143, 1743129983, -0.8819519, 0.10442204, -0.28483206, 0.36073345, -1.9930195, 2.0374038, 2.9592648, 0
1144, 1743146650, -0.8829135, 0.102415875, -0.28329137, 0.36016917, -3.1706638, 5.725268, 3.8912973, 0
1146, 1743179984, -0.88368994, 0.09989986, -0.2817644, 0.36016926, -1.7019678, 5.742791, -1.1291294, 0
1147, 1743196651, -0.8837681, 0.09898336, -0.28151456, 0.3604262, -1.662524, 2.5505962, -0.7872381, 0
1150, 1743246652, -0.8813434, 0.09753728, -0.28558305, 0.36354303, -3.3604546, 2.174885, 0.3544798, 0
1151, 1743263319, -0.8803597, 0.09705998, -0.28737688, 0.36463916, -3.6237032, 1.8748832, 0.06047249, 0
1153, 1743296653, -0.8781314, 0.096410714, -0.2907554, 0.36749512, -2.3409245, 1.2142187, -0.9794388, 0
1154, 1743313320, -0.877352, 0.09601625, -0.29127407, 0.3690459, -1.5660466, 1.1716284, 1.463747, 0
1155, 1743329987, -0.8767989, 0.0950684, -0.29173684, 0.370238, -0.7709293, 0.42778927, 0.21879864, 0
1158, 1743379988, -0.8762939, 0.09166289, -0.29153264, 0.3724469, -0.3392437, 1.7138835, -0.8047228, 0
1159, 1743396655, -0.87646586, 0.09080006, -0.29072398, 0.37288535, 0.02279497, 1.4817038, -1.971293, 0
1161, 1743429989, -0.8771444, 0.08945887, -0.28906342, 0.37290508, 1.011545, 0.6144201, 0.9516363, 0
1162, 1743446656, -0.8773933, 0.08847634, -0.28933823, 0.3723401, -1.2050507, 2.9186146, 0.4485159, 0
1163, 1743463323, -0.8779885, 0.087826364, -0.28845748, 0.37177387, 0.7643041, 0.89108014, 1.2907772, 0
1165, 1743496657, -0.8788222, 0.08721287, -0.28881317, 0.36966705, -0.10967915, 1.1297988, -0.6865301, 0
1166, 1743513324, -0.87894136, 0.08703902, -0.2895927, 0.36881348, 0.20581162, 0.5562571, -0.7342434, 0
1167, 1743529991, -0.87947094, 0.0869188, -0.28866625, 0.36830553, -0.35434783, 0.5382521, 1.5195208, 0
1169, 1743563325, -0.88039106, 0.08692451, -0.28794697, 0.36666515, -0.78798443, 0.19202015, 0.021015167, 0
1170, 1743579992, -0.8805898, 0.087234735, -0.2880947, 0.3659977, 0.62285995, 0.0053217877, -1.8924828, 0
1173, 1743629993, -0.88106936, 0.088058695, -0.28717473, 0.36536825, -0.5976694, -1.6868979, 0.4447117, 0
1174, 1743646660, -0.88104314, 0.08879581, -0.28710157, 0.3653105, 0.98209614, -2.845009, -1.7861576, 0
1176, 1743679994, -0.88116723, 0.08998906, -0.28643322, 0.36524427, 1.1017092, -2.2637982, -0.93520737, 0
1177, 1743696661, -0.88088113, 0.090177275, -0.2877687, 0.36483794, -0.5368712, -0.723184, -1.1086636, 0
1180, 1743746662, -0.8810166, 0.090619326, -0.2878668, 0.36432365, 0.61875516, -1.9512136, -0.25420094, 0
1181, 1743763329, -0.8811372, 0.09050827, -0.2879044, 0.36402997, 0.39417648, -2.249337, -0.3816557, 0
1182, 1743779996, -0.8814413, 0.09029069, -0.28722745, 0.36388227, 0.35858876, -0.016991343, 1.7469921, 0
1184, 1743813330, -0.88193375, 0.090388626, -0.28648835, 0.36324662, 0.46983898, -1.3243734, -0.5240183, 0
1185, 1743829997, -0.8818801, 0.090403214, -0.2869576, 0.363003, 1.8014127, -1.908785, -1.3073673, 0
1188, 1743879998, -0.8817467, 0.09056902, -0.286314, 0.36379316, -0.64929396, -0.31811553, 2.8108711, 0
1189, 1743896665, -0.88183767, 0.09093861, -0.2857446, 0.36392814, 0.74134487, -1.1548647, -0.61133003, 0
1190, 1743913332, -0.8816085, 0.091285825, -0.28644866, 0.36384258, 0.20020078, 0.27807435, -0.4211235, 0
1192, 1743946666, -0.88071513, 0.09379612, -0.287865, 0.3642498, 0.67993534, -0.8572518, -0.28046227, 0
1193, 1743963333, -0.87992966, 0.095988445, -0.28939903, 0.36436164, 0.12018202, -1.1362339, 0.2099123, 0
1196, 1744013334, -0.87722725, 0.10317221, -0.29540274, 0.36409628, 0.9083969, -0.32318437, 1.7434921, 0
1197, 1744030001, -0.87727356, 0.10426954, -0.29493758, 0.36404905, 1.5912371, -3.4420455, 1.517272, 0
1198, 1744046668, -0.87692827, 0.105108514, -0.29707623, 0.36289898, 1.5430818, -3.0750532, -2.1714997, 0
1200, 1744080002, -0.8761078, 0.10474629, -0.30520314, 0.35821152, 1.8942567, -0.06892558, 1.6467514, 0
1203, 1744130003, -0.8775394, 0.10448932, -0.30607972, 0.35400978, 2.7887993, -3.4447474, -0.6928005, 0
1204, 1744146670, -0.8785097, 0.10407916, -0.30487677, 0.3527596, 4.233667, -1.9650759, 1.406045, 0
1205, 1744163337, -0.8792536, 0.10319434, -0.3050675, 0.3509969, 2.163755, -1.7543564, 1.3744287, 0
1207, 1744196671, -0.8794913, 0.10284114, -0.30881628, 0.3472063, 3.000246, -4.5995445, -0.5302496, 0
1208, 1744213338, -0.8797774, 0.10250341, -0.31108254, 0.34454843, 2.7009134, -4.7727246, -4.548864, 0
1209, 1744230005, -0.88024294, 0.102618426, -0.3121098, 0.3423889, 1.4170078, -1.7159271, 2.2329216, 0
1212, 1744280006, -0.8801736, 0.106473, -0.31118318, 0.34223408, 0.753961, -3.8724384, -3.7902102, 0
1213, 1744296673, -0.8796124, 0.1095102, -0.3088921, 0.34478453, -0.33960593, -1.185434, -5.4726954, 0
1215, 1744330007, -0.879258, 0.113634534, -0.30030847, 0.351864, -1.564991, 1.5662721, 3.2586756, 0
1217, 1744363341, -0.8789772, 0.11263366, -0.2975806, 0.35518926, -3.0143466, 3.1195664, -0.636467, 0
1219, 1744396675, -0.8798589, 0.11068705, -0.2931406, 0.35730436, -3.886366, 2.6301887, 0.2660532, 0
1220, 1744413342, -0.8799115, 0.10970537, -0.29232013, 0.35814866, -4.344012, 7.806973, 1.2732477, 0
1221, 1744430009, -0.8801497, 0.107557505, -0.29105783, 0.3592414, -2.5067625, 7.5832214, 3.7473707, 0
1223, 1744463343, -0.8806718, 0.10298302, -0.2903253, 0.35989404, -2.8661795, 3.5699697, -3.1261554, 0
1224, 1744480010, -0.88051534, 0.101072654, -0.29032904, 0.36081463, 0.046713203, 1.7268387, -2.7756286, 0
1225, 1744496677, -0.88040674, 0.09955974, -0.29027393, 0.36154366, -0.73643583, 3.4129543, 0.49394798, 0
1228, 1744546678, -0.8811606, 0.092940904, -0.2884654, 0.36291444, -1.3430809, 0.14094509, -1.6777163, 0
1230, 1744580012, -0.8827819, 0.08776197, -0.28429127, 0.36355674, -0.84956807, -0.15879852, 0.19590473, 0
1232, 1744613346, -0.8838353, 0.0830927, -0.28057086, 0.36498225, -3.4461372, 3.7550507, 2.5120258, 0
1234, 1744646680, -0.8832874, 0.08169952, -0.27902597, 0.36779618, -1.7189751, -1.1887939, -1.9240127, 0
1235, 1744663347, -0.8821877, 0.081533134, -0.27986023, 0.36983296, -1.1923745, -0.06303948, -4.113775, 0
1236, 1744680014, -0.8807473, 0.0823931, -0.28012478, 0.37286314, -2.7318947, 0.3214004, 0.43799114, 0
1238, 1744713348, -0.87674016, 0.08495006, -0.2831434, 0.37939557, -3.1042035, 0.41253877, 1.0650826, 0
1239, 1744730015, -0.87474936, 0.08579915, -0.28511998, 0.38230813, -2.554536, 1.3000276, -1.0474262, 0
1240, 1744746682, -0.87331843, 0.08593054, -0.2860658, 0.38483563, -1.5722561, -0.1744855, -0.92818356, 0
1242, 1744780016, -0.8712041, 0.08641282, -0.2866702, 0.38904655, -0.20509727, -0.0046113515, -0.5961876, 0
1243, 1744796683, -0.8704303, 0.086107895, -0.287178, 0.39046952, -0.020057382, 3.1044357, 0.70386696, 0
1244, 1744813350, -0.87009627, 0.08578772, -0.28709486, 0.3913447, 0.37209743, 1.7160414, 1.4544611, 0
1247, 1744863351, -0.8696531, 0.08471157, -0.28832436, 0.39166015, 1.2351539, 0.36778095, -1.4727697, 0
1248, 1744880018, -0.86992025, 0.08390672, -0.2880578, 0.39143634, 1.0684874, 0.4472061, -0.58122826, 0
1250, 1744913352, -0.8705851, 0.08263608, -0.28768906, 0.39049846, -0.35805413, 0.70560765, 0.038537025, 0
1251, 1744930019, -0.8707594, 0.08253149, -0.28756157, 0.39022553, 0.8299202, 0.6726436, 0.8157921, 0
1252, 1744946686, -0.8707653, 0.082842536, -0.28808838, 0.38975775, 1.5073483, -0.050966654, -0.2645769, 0
1254, 1744980020, -0.8700868, 0.08460744, -0.29128185, 0.38851848, 1.0407494, -0.9387777, -2.127431, 0
1255, 1744996687, -0.86982876, 0.08586529, -0.29207787, 0.3882221, -0.63269633, 1.080227, 1.0334902, 0
1258, 1745046688, -0.8693528, 0.090525515, -0.29611808, 0.38515723, 2.458998, -1.539469, -1.6370859, 0
1259, 1745063355, -0.8696841, 0.09126737, -0.29656324, 0.3838895, 1.0692456, -0.3933829, -0.4842682, 0
1262, 1745113356, -0.87206763, 0.09338587, -0.29514128, 0.3790381, 0.9777469, -0.58087033, 0.72976494, 0
1263, 1745130023, -0.87278235, 0.09450169, -0.29498568, 0.3772329, 1.9825479, -0.5168112, -0.48367405, 0
1265, 1745163357, -0.87475485, 0.09578054, -0.2937462, 0.37328848, 1.6746223, -1.7613856, -0.5319271, 0
1266, 1745180024, -0.8755884, 0.09605236, -0.29325497, 0.37164676, 0.24400485, -1.4735729, -1.0383205, 0
1267, 1745196691, -0.87653697, 0.09626279, -0.2921115, 0.37025452, 0.5712457, -0.9769043, 1.2816515, 0
1269, 1745230025, -0.8790773, 0.09577024, -0.28854308, 0.36714435, -0.045552388, -0.4831436, 0.49538708, 0
1270, 1745246692, -0.88032717, 0.09510948, -0.28700963, 0.3655196, 0.5977356, -1.2474177, 0.2659378, 0
1271, 1745263359, -0.88163966, 0.094318524, -0.28507736, 0.3640705, 1.4910976, -1.365579, -0.6627321, 0
1274, 1745313360, -0.8846284, 0.09188191, -0.28226614, 0.35960713, 1.2536314, -0.91425586, 1.2791414, 0
1277, 1745363361, -0.88510555, 0.092208885, -0.28789994, 0.35383677, 3.2376897, -5.085759, -1.675518, 0
1278, 1745380028, -0.88568443, 0.091507435, -0.2888506, 0.35178939, 1.782886, -4.1749573, -0.37784386, 0
1279, 1745396695, -0.8864193, 0.09110361, -0.2878836, 0.35083503, 3.0400448, -4.764279, -0.5847435, 0
1281, 1745430029, -0.8867268, 0.09082259, -0.29045337, 0.34800097, 1.868834, -2.4597824, 2.479474, 0
1282, 1745446696, -0.8860551, 0.092050254, -0.29312223, 0.34715077, 3.1786819, -5.261817, -0.95858, 0
1284, 1745480030, -0.88414145, 0.093634605, -0.3002922, 0.3454735, 0.68250304, -3.377579, -0.67184925, 0
1285, 1745496697, -0.8832804, 0.09389881, -0.30232134, 0.34583467, 1.2987735, -4.955436, -2.8347135, 0
1286, 1745513364, -0.8823468, 0.09453693, -0.30346772, 0.34703806, -0.59965354, -0.06514318, 0.54844093, 0
1288, 1745546698, -0.8800539, 0.10006453, -0.30174327, 0.35276663, -1.3647093, -0.7716483, -1.6417332, 0
1292, 1745613366, -0.87623215, 0.107136115, -0.29837435, 0.3629226, -2.3948567, 2.9968407, 2.6927338, 0
1293, 1745630033, -0.87600076, 0.1065746, -0.29844445, 0.3635885, -3.1716137, 2.8361304, -0.65398026, 0
1294, 1745646700, -0.87614805, 0.10521012, -0.29795143, 0.36403477, -4.6199813, 6.370786, 0.3754816, 0
1296, 1745680034, -0.8770334, 0.10150197, -0.2953273, 0.3650924, -1.5806112, 4.0229144, 2.3104057, 0
1297, 1745696701, -0.8778304, 0.098767325, -0.29337937, 0.3654972, -1.8660204, 5.061805, -0.21070957, 0
1298, 1745713368, -0.8784577, 0.096100904, -0.29189655, 0.36588764, -1.7969408, 3.917162, -3.318718, 0
1300, 1745746702, -0.8788385, 0.092160314, -0.28997895, 0.36750892, -1.1694567, 2.0181675, -0.632267, 0
1301, 1745763369, -0.87848634, 0.0908579, -0.29060096, 0.3681827, -4.3964505, 6.193067, 2.9876566, 0
1302, 1745780036, -0.87813115, 0.08935403, -0.29121125, 0.36891532, -2.2474902, 0.7697666, -1.7982588, 0
1304, 1745813370, -0.8773007, 0.086442426, -0.2925627, 0.3705122, -1.4052904, 1.4328505, -1.2390852, 0
1308, 1745880038, -0.87577313, 0.08352789, -0.29280505, 0.374581, -0.589112, 0.16347703, -1.777915, 0
1309, 1745896705, -0.8754231, 0.0832426, -0.29267064, 0.37556636, -0.6552957, 0.5680378, -0.33839512, 0
1311, 1745930039, -0.87463105, 0.082852125, -0.29288456, 0.37732688, -1.8252325, 1.9940449, 1.5741024, 0
1312, 1745946706, -0.87411106, 0.082689375, -0.29344323, 0.378133, -0.8537017, 1.1623935, 1.5405006, 0
1313, 1745963373, -0.8738071, 0.0822781, -0.29355815, 0.37883535, -0.76059, 0.963532, -0.10130501, 0
1315, 1745996707, -0.8730728, 0.081827134, -0.29458928, 0.37982425, 0.092150144, 0.55993056, -0.86999035, 0
1316, 1746013374, -0.8726454, 0.08212231, -0.29493636, 0.38047263, -0.37045798, -0.41489854, 0.39088726, 0
1317, 1746030041, -0.8723134, 0.082616605, -0.2951313, 0.3809754, 0.51229596, 0.42420933, 0.58370686, 0
1319, 1746063375, -0.8716394, 0.08390928, -0.29635462, 0.38128588, -1.170088, 2.6262693, 1.0180931, 0
1321, 1746096709, -0.87140465, 0.085769385, -0.29603615, 0.3816557, 0.94887394, -1.209881, 0.7881632, 0
1323, 1746130043, -0.8706847, 0.08686646, -0.2986485, 0.38101485, -0.64343566, 2.310255, -0.27533054, 0
1324, 1746146710, -0.8705269, 0.087574005, -0.29902774, 0.38091624, 0.8231809, -0.53867215, -1.539197, 0
1325, 1746163377, -0.87029254, 0.088217154, -0.2997523, 0.38073364, -0.7427601, -0.32029456, 0.43533325, 0
1327, 1746196711, -0.87029356, 0.09006796, -0.29970568, 0.3803344, 1.182584, -1.879328, -0.8346815, 0
1328, 1746213378, -0.87017184, 0.09088448, -0.30025437, 0.37998605, 1.5141252, -0.33700407, -1.557869, 0
1329, 1746230045, -0.8703482, 0.09144037, -0.30008402, 0.3795829, 0.78696007, -0.84837633, 0.4040556, 0
1331, 1746263379, -0.8707088, 0.09236047, -0.2996318, 0.3788898, -0.45645592, -0.8957983, 1.7613249, 0
1332, 1746280046, -0.871089, 0.09274654, -0.29923743, 0.37823305, 1.4679933, -1.1945227, -0.7826557, 0
1333, 1746296713, -0.87140584, 0.0933354, -0.2990106, 0.37753686, 0.49970233, 0.2625472, 0.32766342, 0
1338, 1746380048, -0.8726103, 0.094683245, -0.29916778, 0.37428093, 0.81688255, -2.3171835, -1.3595228, 0
1339, 1746396715, -0.8727099, 0.09493244, -0.29971337, 0.3735481, 0.024095591, -0.89307827, -0.22829342, 0
1340, 1746413382, -0.8731233, 0.095045194, -0.29924026, 0.3729321, 0.66169065, 0.8610424, 0.6808424, 0
1342, 1746446716, -0.8743713, 0.09656295, -0.29597762, 0.3722216, 1.463158, -3.254189, 1.2515345, 0
1343, 1746463383, -0.8747005, 0.09724591, -0.2948602, 0.37215704, 1.1480492, -1.8439648, -1.0583801, 0
1344, 1746480050, -0.87448215, 0.09767183, -0.2958943, 0.3717374, 0.7273725, 0.67722124, -3.450337, 0
1346, 1746513384, -0.87479544, 0.09794359, -0.2946718, 0.37189984, -0.75542706, -2.3164647, -0.30176735, 0
1347, 1746530051, -0.8747894, 0.098894306, -0.293611, 0.37250105, -0.79008275, -2.9802246, 1.2789307, 0
1348, 1746546718, -0.8745933, 0.10005006, -0.29357132, 0.3726844, 1.8503557, -3.1255386, -2.7472072, 0
1351, 1746596719, -0.8734705, 0.1040819, -0.29543558, 0.37274012, 0.68993956, -0.76864815, -0.4552145, 0
1354, 1746646720, -0.8728919, 0.10581122, -0.2997386, 0.37016413, 0.75529903, -2.3452668, 0.39145184, 0
1355, 1746663387, -0.87290674, 0.10620657, -0.30130523, 0.36874163, 1.6660012, -1.8364884, 2.8914843, 0
1356, 1746680054, -0.87261426, 0.1073056, -0.30387658, 0.36700118, 3.1512153, -3.1388023, 1.7949314, 0
1358, 1746713388, -0.86976963, 0.113435686, -0.31447688, 0.36295807, 3.332818, -5.979428, -4.935065, 0
1359, 1746730055, -0.8699744, 0.11504802, -0.31385586, 0.3624971, 2.2201505, -4.7891946, -1.9907546, 0
1360, 1746746722, -0.870705, 0.116190426, -0.31174245, 0.36220196, 0.7490675, -3.7211435, 1.6510096, 0
1362, 1746780056, -0.87202954, 0.11505665, -0.31156805, 0.35951754, 3.9326093, -2.0472236, 0.23050594, 0
1363, 1746796723, -0.8725485, 0.113795385, -0.3118949, 0.35837466, 2.8013902, -3.3311195, -0.4874258, 0
1366, 1746846724, -0.8748973, 0.11655614, -0.30233848, 0.3599469, -0.7935454, 1.925373, 1.2837906, 0
1367, 1746863391, -0.8752159, 0.11908477, -0.2990624, 0.36108, 1.4934226, 1.9116982, -1.4976597, 0
1370, 1746913392, -0.8753605, 0.120366864, -0.29584762, 0.36294797, -4.240841, 5.013572, 4.9959364, 0
1371, 1746930059, -0.8748682, 0.12142531, -0.29626215, 0.36344376, -5.0676956, 2.6330662, 4.060317, 0
1373, 1746963393, -0.87398076, 0.12171392, -0.29706678, 0.3648231, -3.494692, 6.6659045, -0.65361404, 0
1374, 1746980060, -0.873637, 0.12098208, -0.29739466, 0.36562154, -1.5226371, 4.5321045, -0.07839203, 0
1375, 1746996727, -0.8729856, 0.120032385, -0.2987564, 0.36637956, -2.9050221, 6.595318, -0.022694588, 0
1377, 1747030061, -0.87095046, 0.1185675, -0.30386558, 0.36749655, -2.2385268, 4.854077, -0.3993101, 0
1378, 1747046728, -0.8702589, 0.11748631, -0.30612725, 0.36760515, -2.7823584, 4.0904903, 0.46708298, 0
1381, 1747096729, -0.869697, 0.1122548, -0.3109416, 0.36652777, 0.33369052, 1.9671885, -1.4473152, 0
1382, 1747113396, -0.8703989, 0.10917671, -0.31119, 0.36557883, -0.8014971, 2.6543286, -2.3421283, 0
1383, 1747130063, -0.8717454, 0.10616485, -0.30991295, 0.36434036, 0.62266284, 1.6551888, -0.5421467, 0
1386, 1747180064, -0.879405, 0.09586216, -0.29849848, 0.35826927, 1.0183257, 2.0412085, 0.62041855, 0
1387, 1747196731, -0.8817775, 0.09320959, -0.29492974, 0.35608688, 0.76834947, 1.3697499, 0.6718998, 0
1389, 1747230065, -0.8855297, 0.08934179, -0.29028192, 0.3515576, 0.84299535, -0.7789084, -0.69960976, 0
1390, 1747246732, -0.8868287, 0.08780423, -0.28895018, 0.3497626, 0.22660682, 0.14202438, -1.8435683, 0
1392, 1747280066, -0.8882313, 0.08645438, -0.28606203, 0.34891313, -0.5815018, -1.3916595, -0.1175127, 0
1393, 1747296733, -0.88817936, 0.086723745, -0.28589982, 0.3491114, -2.1638887, 0.9791553, 1.6431637, 0
1396, 1747346734, -0.8861142, 0.089041606, -0.28739458, 0.35253155, -0.8717989, -0.5395867, -1.9167295, 0
1397, 1747363401, -0.8851946, 0.08982253, -0.2882206, 0.35396683, -1.2078962, -0.6735268, -0.5315466, 0
1398, 1747380068, -0.8846196, 0.09010227, -0.2881518, 0.35538638, -1.1722211, -1.0539913, 0.52634525, 0
1400, 1747413402, -0.8838581, 0.089308284, -0.28894046, 0.35683793, 0.17030033, 0.7231852, -0.78455067, 0
1401, 1747430069, -0.8838104, 0.08873554, -0.28880176, 0.3572112, 0.21553421, -0.010592335, 0.9219761, 0
1402, 1747446736, -0.8839138, 0.08859708, -0.28753132, 0.35801372, 2.508721, -2.87101, -1.4137163, 0
1404, 1747480070, -0.8836021, 0.08819747, -0.2874012, 0.3589848, 0.3394174, -0.1977399, -0.41480446, 0
1405, 1747496737, -0.88361776, 0.08802409, -0.28695667, 0.3593442, 0.05156131, -1.500405, 1.1333799, 0
1406, 1747513404, -0.8838061, 0.08770704, -0.28618097, 0.359577, 0.19795984, -2.2321484, -0.32669735, 0
1408, 1747546738, -0.88375765, 0.08722706, -0.286061, 0.35990837, 0.54283744, -0.73997116, -0.15456963, 0
1410, 1747580072, -0.8844492, 0.085962, -0.28381243, 0.3602939, -0.24689688, -0.9461984, 0.26298046, 0
1412, 1747613406, -0.88492244, 0.08484542, -0.28246978, 0.3604515, 0.64776224, -1.089966, 0.347641, 0
1413, 1747630073, -0.88549584, 0.08446467, -0.2806474, 0.36055624, 0.48156536, -1.780961, 0.819994, 0
1416, 1747680074, -0.88612986, 0.084157884, -0.2788213, 0.36048728, 0.23606813, -0.24111332, 0.44309425, 0
1417, 1747696741, -0.88598406, 0.08436301, -0.27886325, 0.3607649, -0.758691, -0.29897797, 0.96920776, 0
1419, 1747730075, -0.8850577, 0.08560251, -0.2793455, 0.36237022, -0.7994164, -1.5556146, -0.9783144, 0
1420, 1747746742, -0.8844748, 0.08582985, -0.28000608, 0.36322898, -0.68189466, -0.7781536, -0.10740471, 0
1421, 1747763409, -0.8841252, 0.08611979, -0.2792881, 0.36456177, -1.1412395, -1.9266821, 1.4528561, 0
1423, 1747796743, -0.8831627, 0.0860667, -0.27967098, 0.3666079, 0.510447, -1.5264435, -0.6855583, 0
1425, 1747830077, -0.8827577, 0.08512746, -0.27976862, 0.36772612, 1.0153818, -2.2957025, -0.5150814, 0
1427, 1747863411, -0.8826033, 0.08455927, -0.28001654, 0.36803946, 1.655064, -4.2625933, 0.30339527, 0
1428, 1747880078, -0.88223886, 0.085206866, -0.2811646, 0.3678883, 2.9119236, -4.2524247, 0.6527443, 0
1429, 1747896745, -0.88142955, 0.08701257, -0.28375608, 0.3674158, 4.1065187, -4.593878, -2.374157, 0
1432, 1747946746, -0.8778626, 0.09327747, -0.2944743, 0.36598158, 2.0121987, -7.9360385, -1.4488678, 0
1433, 1747963413, -0.876973, 0.093975715, -0.29796448, 0.36511007, 1.6468059, -4.785795, -0.38031387, 0
1435, 1747996747, -0.8742704, 0.095581196, -0.30485636, 0.3654848, 3.0273538, -4.414932, -2.478517, 0
1436, 1748013414, -0.8725518, 0.09667719, -0.30832833, 0.3663901, 2.0508618, -5.6431155, -3.658729, 0
1437, 1748030081, -0.87062365, 0.098393686, -0.31142855, 0.36789438, 0.55042994, -4.2966695, -0.12932205, 0
1440, 1748080082, -0.8694699, 0.102633655, -0.3047346, 0.37500194, 0.71713686, 0.7498851, 1.8358994, 0
1441, 1748096749, -0.86919975, 0.10345778, -0.30469742, 0.3754316, -0.32597184, 3.4863713, -5.603139, 0
1443, 1748130083, -0.87007475, 0.10419059, -0.30066893, 0.37644842, 3.4451277, 1.0518602, 0.092238426, 0
1444, 1748146750, -0.87089235, 0.104457736, -0.2997437, 0.37521985, -1.5003825, 6.860336, 5.414711, 0
1445, 1748163417, -0.8717237, 0.10553276, -0.29841822, 0.37404287, -1.5709277, 4.2897124, 6.614874, 0
1448, 1748213418, -0.87393713, 0.1064132, -0.29791892, 0.36899275, -2.6127539, 9.108901, 1.5340033, 0
1450, 1748246752, -0.87605864, 0.10572921, -0.29575142, 0.36588886, -2.0680292, 5.3826733, 1.2857103, 0
1451, 1748263419, -0.87619936, 0.105439395, -0.2967453, 0.36482933, -1.8490626, 6.7502437, -4.9131947, 0
1452, 1748280086, -0.87689924, 0.10459638, -0.29571405, 0.36422753, -1.3121262, 2.6129549, -2.1877947, 0
1455, 1748330087, -0.8807845, 0.09872162, -0.2891504, 0.36175358, -2.0320532, 5.295021, 0.4630785, 0
1456, 1748346754, -0.88215744, 0.096477784, -0.2865193, 0.3611064, -1.496069, 3.3827786, 0.8098526, 0
1458, 1748380088, -0.88430196, 0.09191197, -0.2836364, 0.35932362, -2.362063, 3.0489717, 2.65267, 0
1459, 1748396755, -0.8847161, 0.0902929, -0.2833399, 0.35894868, -0.28699154, 0.035875227, -1.8604312, 0
1460, 1748413422, -0.88452476, 0.08977682, -0.28374243, 0.35923198, -1.0259601, 0.7634818, -3.0637832, 0
1462, 1748446756, -0.88385344, 0.08978959, -0.28368872, 0.3609191, -2.979806, 0.58518565, 1.5469265, 0
1464, 1748480090, -0.8816896, 0.09141064, -0.28624687, 0.3637737, -0.7132732, 0.458343, 1.8303518, 0
1466, 1748513424, -0.8795973, 0.09256454, -0.28895128, 0.3663997, -1.0372622, -0.4823112, -1.1002722, 0
1467, 1748530091, -0.8785658, 0.09259798, -0.29035026, 0.36775723, -1.3885127, -0.38685796, 0.07895374, 0
1470, 1748580092, -0.87660265, 0.09318089, -0.29263064, 0.37047714, 1.0590034, -0.80067337, -0.10539436, 0
1471, 1748596759, -0.8762584, 0.0935288, -0.29334256, 0.37064108, 1.0140579, -0.07662885, -1.2216835, 0
1473, 1748630093, -0.8763731, 0.09389486, -0.29330206, 0.370309, 1.9542046, -0.79150516, -0.94748497, 0
1474, 1748646760, -0.8766188, 0.09377661, -0.29358622, 0.36953145, 0.045456722, 1.2327589, -0.78357315, 0
1475, 1748663427, -0.8771516, 0.09326843, -0.29338574, 0.3685539, 0.66609734, 0.07817606, -0.3431635, 0
1477, 1748696761, -0.8788514, 0.09242265, -0.2906948, 0.36684594, 0.97783244, -0.80434746, -0.47690105, 0
1478, 1748713428, -0.8795583, 0.092464745, -0.28978527, 0.3658594, -0.34652287, 0.6757637, 1.2835865, 0
1479, 1748730095, -0.88021976, 0.09272708, -0.2887594, 0.3650124, 1.7909621, -1.3426218, -1.8315272, 0
1481, 1748763429, -0.8808024, 0.09400304, -0.2882935, 0.3636459, 0.82394475, -1.5674194, -1.6717014, 0
1482, 1748780096, -0.88089097, 0.09496383, -0.2880337, 0.36338773, 0.46457213, -1.4211855, 0.5184479, 0
1485, 1748830097, -0.8812716, 0.09593825, -0.28868756, 0.36168566, 0.18900636, -0.68884486, 0.44275475, 0
1486, 1748846764, -0.88154286, 0.0959543, -0.28878415, 0.36094275, -0.07019916, -0.11999131, 0.34720707, 0
1487, 1748863431, -0.8820186, 0.095318265, -0.28884923, 0.3598957, 0.8741937, 0.027329544, -1.2254124, 0
1489, 1748896765, -0.88355756, 0.093955256, -0.28636584, 0.35846072, 0.132032, -1.0741937, 0.23606968, 0
1490, 1748913432, -0.88427347, 0.09322876, -0.2853236, 0.3577153, 0.86055505, -1.0030723, -0.12028122, 0
1491, 1748930099, -0.8852421, 0.09219533, -0.28396362, 0.3566679, -0.10021449, 0.9714982, 1.8879786, 0
1494, 1748980100, -0.8863031, 0.09230093, -0.28205365, 0.35551947, 1.2305571, -2.2851434, -2.477233, 0
1495, 1748996767, -0.88622797, 0.092024796, -0.28224823, 0.35562363, -0.5190561, -0.612699, -0.2993183, 0
1497, 1749030101, -0.8853458, 0.093365096, -0.28243577, 0.35731852, -0.53805625, -3.528242, -1.4538574, 0
1500, 1749080102, -0.8817362, 0.10117116, -0.28628063, 0.36104035, 0.39229652, -0.82299376, 0.059794426, 0
1501, 1749096769, -0.8810464, 0.101988785, -0.28671092, 0.3621512, -0.5786766, -1.404952, 1.0676842, 0
1502, 1749113436, -0.8804912, 0.1015596, -0.2877558, 0.36279306, -0.9931646, -1.5522374, 0.8969002, 0
1504, 1749146770, -0.8799674, 0.09983017, -0.2899018, 0.36283493, 1.985521, -1.9413937, -2.286901, 0
1505, 1749163437, -0.87982315, 0.09860868, -0.29144672, 0.36228076, 0.37131536, -0.81092983, 3.9185934, 0
1506, 1749180104, -0.87978834, 0.098426804, -0.29178613, 0.3621418, 2.9847455, -5.7182755, -2.8423753, 0
1508, 1749213438, -0.87889606, 0.09946004, -0.29577097, 0.3607907, 3.4806662, -3.4550948, 0.47670174, 0
1510, 1749246772, -0.8781773, 0.09957755, -0.30118284, 0.3580207, 1.4970447, -2.1930354, 0.52129364, 0
1512, 1749280106, -0.8783632, 0.09833953, -0.30378485, 0.35570103, 1.9394181, -4.8422585, -2.0176125, 0
1514, 1749313440, -0.87857085, 0.098177366, -0.30435607, 0.35474366, 1.7917974, -4.5753994, -0.06064987, 0
1516, 1749346774, -0.8776476, 0.10183434, -0.3055398, 0.35498014, 0.80002207, -0.58245265, -3.3701801, 0
1517, 1749363441, -0.877259, 0.104948044, -0.30346066, 0.35681266, 0.6303128, 0.7153871, 3.3407574, 0
1518, 1749380108, -0.8769127, 0.107655436, -0.30113742, 0.3588199, 1.863783, -2.9200695, 0.23968983, 0
1520, 1749413442, -0.8762922, 0.108475894, -0.29879534, 0.36203218, 0.13885497, 0.945109, -2.5422802, 0
1521, 1749430109, -0.8763347, 0.10798924, -0.2973972, 0.3632242, -0.23317811, 2.5128965, 0.014017105, 0
1522, 1749446776, -0.8759568, 0.10761757, -0.29769707, 0.36399966, -1.7780128, 2.6244924, 1.014164, 0
1524, 1749480110, -0.87569714, 0.10558447, -0.2982918, 0.36473158, -3.9323833, 4.2882013, 0.45327282, 0
1526, 1749513444, -0.87754726, 0.10224524, -0.29457763, 0.3642549, -1.9637359, 2.8065994, -1.8118277, 0
1529, 1749563445, -0.87922555, 0.09745964, -0.28874856, 0.36618212, -3.5401754, 6.9863772, -0.06898308, 0
1531, 1749596779, -0.8780433, 0.097723626, -0.2897198, 0.36817625, -2.3509688, 2.1973646, 2.9310408, 0
1532, 1749613446, -0.877355, 0.09760061, -0.29044315, 0.36927786, -1.6058933, 2.718504, -1.8312573, 0
1533, 1749630113, -0.8762092, 0.09684746, -0.29341146, 0.36984968, -4.6629996, 6.562665, -4.5708914, 0
1535, 1749663447, -0.8764429, 0.092383325, -0.2914961, 0.371947, -0.664622, -0.8442638, 1.6544142, 0
1536, 1749680114, -0.8769205, 0.09029892, -0.2898742, 0.3725993, -1.7993711, -0.019370358, 1.5263386, 0
1537, 1749696781, -0.8772914, 0.08831122, -0.28867897, 0.3731304, -2.2333565, 2.5724652, -0.52665424, 0
1539, 1749730115, -0.8781272, 0.08463137, -0.2858503, 0.3741936, -0.5930038, 1.8149655, 1.241149, 0
1540, 1749746782, -0.8780222, 0.0834206, -0.2857501, 0.3747878, -2.08975, 1.3582382, -0.58858967, 0
1544, 1749813450, -0.8746136, 0.084093414, -0.28924856, 0.37988907, -1.5740808, 1.1201763, 2.2686625, 0
1545, 1749830117, -0.8732817, 0.08494675, -0.29115805, 0.38130215, -2.1108909, 1.9733326, 2.6965427, 0
1547, 1749863451, -0.8704026, 0.086378336, -0.29582396, 0.38396275, 0.6863419, -0.94618523, -3.431223, 0
1548, 1749880118, -0.8691153, 0.086909585, -0.29759824, 0.38538522, -0.6366501, -0.2227575, -2.0188375, 0
1549, 1749896785, -0.8686135, 0.08787995, -0.29656863, 0.3870864, -0.0149751445, -3.2690835, -0.6957035, 0
1551, 1749930119, -0.8676562, 0.089358516, -0.29659703, 0.38886908, -0.30305606, 1.347714, 2.1381235, 0
1552, 1749946786, -0.86751264, 0.08987492, -0.29681724, 0.3889022, 1.0424423, -0.06379708, -0.41005325, 0
1554, 1749980120, -0.86692345, 0.0907598, -0.2982724, 0.38889706, 1.6208737, -0.7170553, 0.3526392, 0
1555, 1749996787, -0.86677325, 0.09157549, -0.29839247, 0.38894832, 2.0506017, -3.0297277, -1.7926121, 0
1556, 1750013454, -0.8665925, 0.09234124, -0.29935023, 0.38843405, 0.1695433, -1.1731642, 0.5367298, 0
1559, 1750063455, -0.8664792, 0.09528566, -0.30215594, 0.38579428, 1.344086, 0.008110726, -0.29149055, 0
1560, 1750080122, -0.8670052, 0.09546572, -0.30248082, 0.3843107, 0.73468643, -0.6180309, 0.3068962, 0
1562, 1750113456, -0.86816907, 0.09622698, -0.30192807, 0.38192078, 2.0155346, -1.1083571, 0.37397766, 0
1563, 1750130123, -0.8691554, 0.09659836, -0.30070058, 0.38054925, 1.1621708, -0.5167623, 1.2513609, 0
1564, 1750146790, -0.869695, 0.09711641, -0.30140543, 0.3786222, 1.5156355, -1.9977083, -0.8867922, 0
1566, 1750180124, -0.8705023, 0.09905545, -0.30234748, 0.37550086, 2.161299, -1.7496883, -0.41850853, 0
1567, 1750196791, -0.87074435, 0.100344524, -0.30312374, 0.373968, 1.4539227, -1.5130134, -0.89549446, 0
1568, 1750213458, -0.8712775, 0.101237416, -0.3030286, 0.37256017, 0.24706921, -0.6416047, 1.2541332, 0
1570, 1750246792, -0.8731016, 0.10151983, -0.301001, 0.36984712, 0.11775713, -1.0101856, 0.2344408, 0
1574, 1750313460, -0.87704206, 0.098879576, -0.29709747, 0.3643544, 0.6605027, -0.7469584, -0.50578403, 0
1575, 1750330127, -0.878088, 0.09858602, -0.2949305, 0.3636746, 0.35072446, -0.91070443, 1.6599197, 0
1576, 1750346794, -0.87903154, 0.09799208, -0.29361933, 0.36261538, 0.89878494, -2.2830596, -0.7883129, 0
1578, 1750380128, -0.88046825, 0.096657455, -0.29245228, 0.36042407, 1.0454034, -1.2136276, 1.457838, 0
1579, 1750396795, -0.88067716, 0.09688339, -0.29271182, 0.35964188, 1.7091835, -3.4629974, 0.3461876, 0
1581, 1750430129, -0.88071525, 0.096617095, -0.29606462, 0.3568645, 2.3780656, -4.758824, -0.44880486, 0
1582, 1750446796, -0.8809775, 0.09550123, -0.2980048, 0.3548978, 1.4761323, -3.5780125, -0.7542095, 0
1583, 1750463463, -0.88119715, 0.09467451, -0.2992279, 0.35354206, 2.6376607, -4.4381413, 0.05657196, 0
1585, 1750496797, -0.88164234, 0.09421459, -0.30044678, 0.3515154, 3.269066, -6.446468, -0.78859806, 0
1586, 1750513464, -0.88124293, 0.0950596, -0.30224267, 0.35074902, 3.8891218, -4.670967, -0.3547821, 0
1590, 1750580132, -0.87420493, 0.10512309, -0.31438768, 0.35479057, 0.1290186, -4.97673, -0.69457054, 0
1591, 1750596799, -0.8717362, 0.10768128, -0.31775415, 0.35709152, -2.8483021, 0.37535203, 2.7993336, 0
1593, 1750630133, -0.8688831, 0.11390408, -0.31668243, 0.36301664, -3.483897, 1.9081931, -2.1498036, 0
1594, 1750646800, -0.86836416, 0.11694255, -0.31344265, 0.3660912, -1.9874656, 2.0690517, -3.3492393, 0
1595, 1750663467, -0.8678738, 0.11828313, -0.3116292, 0.3683646, 0.28647634, 3.6454985, 0.15638542, 0
1597, 1750696801, -0.8687056, 0.1173054, -0.30772653, 0.36999434, -2.9321535, 6.704245, 0.4286337, 0
1598, 1750713468, -0.8697498, 0.115326256, -0.30570203, 0.3698411, -3.664368, 7.225848, 1.603096, 0
1599, 1750730135, -0.8714167, 0.11226443, -0.30316135, 0.36894974, -0.8968283, 2.073336, -0.076337814, 0
1601, 1750763469, -0.8748175, 0.1071949, -0.29864442, 0.36608234, -0.59259677, 5.41761, -0.32926273, 0
1603, 1750796803, -0.8773375, 0.10281139, -0.29502594, 0.3642383, -1.2414448, 3.5361195, -1.4444923, 0
1606, 1750846804, -0.8783277, 0.10011429, -0.2932716, 0.36402005, -3.174938, 3.6164916, -0.7631912, 0
1607, 1750863471, -0.8781751, 0.09915077, -0.29333472, 0.3646001, -2.8504505, 2.9982247, -0.5375519, 0
1609, 1750896805, -0.878396, 0.096600786, -0.2913896, 0.36630842, -1.6319783, -0.28260502, 0.5644207, 0
1610, 1750913472, -0.87841266, 0.095043406, -0.2901389, 0.36766616, -2.4345045, 2.4886973, -0.5869999, 0
1612, 1750946806, -0.8781128, 0.09260896, -0.28839627, 0.37036455, -1.152184, -0.18125403, -1.5966187, 0
1613, 1750963473, -0.87809956, 0.09081665, -0.28762165, 0.37144065, -3.3263006, 2.6871717, 1.09657, 0
1614, 1750980140, -0.8777408, 0.089059465, -0.28771013, 0.3726436, -2.2759447, 0.6229698, -0.24859333, 0
1616, 1751013474, -0.87689555, 0.0866137, -0.28727052, 0.37553805, -0.70535713, -1.3546195, -3.663723, 0
1618, 1751046808, -0.8751279, 0.085423775, -0.28891525, 0.37865925, -0.048910446, -1.0234152, 0.97847366, 0
1620, 1751080142, -0.87272227, 0.08636784, -0.29240796, 0.38130695, 0.70301086, -0.00646718, 0.9165821, 0
1622, 1751113476, -0.8699384, 0.088501826, -0.29614946, 0.3842801, -1.2595719, 2.1398845, -2.6441374, 0
1624, 1751146810, -0.8675458, 0.08931934, -0.30023673, 0.38632286, -0.6711135, 0.35837123, 0.17613411, 0
1625, 1751163477, -0.8666198, 0.0900154, -0.3023676, 0.38657728, -0.64297634, -0.564787, 0.8362942, 0
1626, 1751180144, -0.8658559, 0.09117382, -0.30395505, 0.38677314, 2.1711602, -2.833311, -1.1977072, 0
1628, 1751213478, -0.8650417, 0.09267486, -0.3053769, 0.38711816, 0.8409617, 0.8372081, -0.6838312, 0
1629, 1751230145, -0.8650539, 0.09389086, -0.3051653, 0.38696453, 0.07268932, 1.3736202, 2.1679325, 0
1630, 1751246812, -0.8651745, 0.09494624, -0.3052305, 0.38638568, 1.3239121, -0.91962117, -1.6073408, 0
1633, 1751296813, -0.86620563, 0.09835557, -0.30431992, 0.38393268, 0.9478336, -0.027053673, -1.2849112, 0
1635, 1751330147, -0.86852455, 0.09814424, -0.3018131, 0.38071352, 0.4082663, -0.20471272, 2.7231665, 0
1636, 1751346814, -0.86966395, 0.09813842, -0.30075505, 0.37894717, 1.6831927, -1.1677613, -0.01954174, 0
1637, 1751363481, -0.8706039, 0.09833745, -0.30053058, 0.3769097, 3.095941, -2.3150513, -0.6398916, 0
1639, 1751396815, -0.8732775, 0.09801261, -0.29788756, 0.37288615, 0.09982938, -0.29068732, 1.8366632, 0
1640, 1751413482, -0.87460804, 0.09771116, -0.2962779, 0.37112507, 0.4453679, -0.8003018, -0.9862747, 0
1641, 1751430149, -0.87595373, 0.096822724, -0.29511404, 0.3691058, 0.15827891, 2.0161057, 1.2865677, 0
1643, 1751463483, -0.87874377, 0.09556067, -0.29139447, 0.36574286, 0.42000455, -1.3082178, 0.022672653, 0
1644, 1751480150, -0.87990946, 0.09464141, -0.29012948, 0.364182, 1.4704205, -1.3747166, -1.114315, 0
1645, 1751496817, -0.88136774, 0.09375983, -0.28775954, 0.36276087, 1.3571273, -2.5030522, 0.35600376, 0
1648, 1751546818, -0.88367593, 0.09121994, -0.2866936, 0.35861292, -1.3460214, 2.0817358, 3.168909, 0
1649, 1751563485, -0.88519454, 0.09198275, -0.28085476, 0.3592928, 0.87847877, -4.16713, 6.9702644, 0
1652, 1751613486, -0.8859678, 0.08831279, -0.28368673, 0.35606858, -1.4464538, 1.5321213, 2.837614, 0
1653, 1751630153, -0.88618255, 0.087862015, -0.2823059, 0.35674256, 1.0681531, -5.4263773, 0.030416489, 0
1655, 1751663487, -0.88536185, 0.08783645, -0.28481328, 0.3567936, 2.3894398, -5.4360523, -2.13208, 0
1656, 1751680154, -0.88519967, 0.08769616, -0.2852577, 0.3568754, 2.1424344, -3.9113753, -0.09205437, 0
1657, 1751696821, -0.88512355, 0.08806978, -0.28423917, 0.35778388, 2.3469143, -4.031454, 0.99382496, 0
1659, 1751730155, -0.8837944, 0.08823004, -0.28772825, 0.3582408, 0.6346079, -0.6370424, -0.06250954, 0
1660, 1751746822, -0.8833088, 0.089054525, -0.28796002, 0.359047, 2.649346, -6.76766, -3.765038, 0
1663, 1751796823, -0.88302296, 0.08604396, -0.2897771, 0.35902256, 1.707799, -3.21408, -1.9482555, 0
1664, 1751813490, -0.8829428, 0.08399826, -0.29245296, 0.3575309, -0.776993, 0.9778718, -2.4603791, 0
1666, 1751846824, -0.88401794, 0.08263828, -0.28761083, 0.35911575, 0.12101863, 1.9966855, 0.6767998, 0
1668, 1751880158, -0.884601, 0.082225576, -0.28246433, 0.36184958, -1.714968, 5.1009297, 2.849472, 0
1670, 1751913492, -0.88278526, 0.085334554, -0.2839304, 0.36440715, 0.13469438, 3.1394794, -5.1505966, 0
1671, 1751930159, -0.88159764, 0.087400325, -0.28510597, 0.36587194, -1.175134, 1.9413723, -2.8637242, 0
1672, 1751946826, -0.8802785, 0.089206964, -0.28679916, 0.367286, -2.7427473, 0.860589, 1.6772108, 0
1674, 1751980160, -0.8789348, 0.08981443, -0.28882173, 0.36876842, -3.3809643, 4.0883255, 0.7718439, 0
1675, 1751996827, -0.87921274, 0.08834416, -0.28821, 0.36893964, -3.3554976, 4.06699, -0.4895172, 0
1678, 1752046828, -0.88031495, 0.083492205, -0.28336057, 0.37119022, -1.9513283, 4.555213, 0.75002193, 0
1679, 1752063495, -0.88001055, 0.082369216, -0.28317314, 0.37230453, -2.014992, 4.9423037, 1.6844206, 0
1680, 1752080162, -0.87926483, 0.081435576, -0.28407446, 0.37358302, -1.4586862, 1.2383122, -1.5756569, 0
1682, 1752113496, -0.87601715, 0.081144184, -0.28927678, 0.37726596, -3.32625, 2.367862, -1.1883898, 0
1684, 1752146830, -0.8723433, 0.08264833, -0.29403403, 0.38174778, -3.3114104, 1.2282802, 0.46439075, 0
1686, 1752180164, -0.86904365, 0.08316562, -0.29841226, 0.3857433, -0.6920399, 0.3478831, -1.0368719, 0
1687, 1752196831, -0.8676317, 0.0833862, -0.30027995, 0.38742104, -0.12443637, 0.3592571, -1.6046581, 0
1689, 1752230165, -0.86592764, 0.0834974, -0.3018723, 0.3899639, 0.52654266, -1.1031513, 0.19582844, 0
1690, 1752246832, -0.8652147, 0.08428739, -0.3028074, 0.39065027, 0.9476793, 0.029350882, 0.6593714, 0
1693, 1752296833, -0.8649098, 0.08499221, -0.3039476, 0.3902872, 0.09300888, -0.3607607, -0.40796852, 0
1694, 1752313500, -0.86484516, 0.0855547, -0.30476323, 0.38967127, 0.3715523, 0.11570383, 0.12465954, 0
1695, 1752330167, -0.86517817, 0.08668077, -0.30417344, 0.38914347, 1.9702904, -2.0746763, -0.674572, 0
1697, 1752363501, -0.8651627, 0.08967959, -0.30517015, 0.38771534, 1.3352251, -0.7038579, 0.3265543, 0
1698, 1752380168, -0.86504596, 0.09138648, -0.30584913, 0.3870417, 0.68283075, -0.81788665, -0.17069244, 0
1701, 1752430169, -0.86539125, 0.09537862, -0.30691096, 0.38445735, 0.38386762, 0.42464206, 0.05635929, 0
1702, 1752446836, -0.8659266, 0.0961265, -0.3066536, 0.38326934, 0.259638, -1.1761551, 0.12578487, 0
1703, 1752463503, -0.866623, 0.096737236, -0.30583182, 0.38219672, 0.5230896, -0.86700886, 1.6053057, 0
1705, 1752496837, -0.86822116, 0.09804453, -0.30445427, 0.37932563, 1.7917767, -0.24381351, 0.16865063, 0
1707, 1752530171, -0.8702718, 0.098244786, -0.30246794, 0.37615046, 1.229556, -1.6074815, -0.4842291, 0
1709, 1752563505, -0.87231, 0.09804897, -0.29990017, 0.3735275, 0.6979382, 0.062088545, 1.4083519, 0
1710, 1752580172, -0.8733569, 0.09769806, -0.29876947, 0.37207606, -0.22310326, -0.051420048, 0.66794395, 0
1711, 1752596839, -0.87410253, 0.09772914, -0.2979846, 0.37094486, -0.21162139, 0.3279776, -0.24102306, 0
1713, 1752630173, -0.87514913, 0.097706884, -0.29724064, 0.36907512, 1.2371347, -0.8716575, 0.18895149, 0
1714, 1752646840, -0.87535805, 0.0980755, -0.29718897, 0.36852282, -0.55587447, 0.049521532, 0.22589874, 0
1716, 1752680174, -0.87539077, 0.09833959, -0.29781175, 0.36787173, -0.09617695, 0.22307554, -0.72964764, 0
1717, 1752696841, -0.87545156, 0.09824807, -0.29806405, 0.36754715, -1.1375557, 1.8521428, 0.8738947, 0
1718, 1752713508, -0.8755304, 0.098752685, -0.2979115, 0.3673475, 0.26797056, -0.3805905, 0.64824486, 0
1720, 1752746842, -0.87543494, 0.09993175, -0.29884022, 0.36650085, -0.14513278, 1.0137092, 1.5589542, 0
1722, 1752780176, -0.875254, 0.10091442, -0.3005102, 0.36529636, 0.45270538, 1.12792, -0.16927052, 0
1724, 1752813510, -0.8764603, 0.09969797, -0.2986237, 0.3642835, 0.102091104, -0.98241407, -0.76771355, 0
1725, 1752830177, -0.87711793, 0.09918658, -0.29750437, 0.363756, 0.17335866, -1.1360278, -0.7709837, 0
1726, 1752846844, -0.8777912, 0.0990662, -0.29586747, 0.3634996, -0.21740524, -0.12600447, 0.83587074, 0
1728, 1752880178, -0.8794143, 0.09799403, -0.29225478, 0.36278895, 0.13472177, -0.59275633, 0.862937, 0
1730, 1752913512, -0.8799034, 0.097862184, -0.29116434, 0.36251566, 0.60781395, -0.62855786, 0.23864746, 0
1732, 1752946846, -0.8798072, 0.09719486, -0.2913856, 0.36275032, -1.1082793, 0.89577913, 0.7428627, 0
1733, 1752963513, -0.8798862, 0.097200915, -0.29039708, 0.36334962, -1.1788818, -0.12101958, 1.6501818, 0
1734, 1752980180, -0.8797105, 0.0971217, -0.29064745, 0.36359566, -0.35924923, -0.49529788, -0.38289928, 0
1737, 1753030181, -0.87977415, 0.096418865, -0.2903004, 0.3639057, -0.42467305, 0.10023992, -0.20833874, 0
1738, 1753046848, -0.87992656, 0.09597568, -0.28981107, 0.3640445, -0.02870018, 0.31554973, 0.6123743, 0
1740, 1753080182, -0.8804528, 0.09517097, -0.28892285, 0.36368918, 0.6205842, -2.8164017, 0.8129635, 0
1741, 1753096849, -0.8807455, 0.09466091, -0.28838375, 0.36354163, -1.4855094, 4.5266256, 0.713768, 0
1743, 1753130183, -0.880217, 0.09431203, -0.28920805, 0.36425668, 1.4376204, -4.5065365, -0.748456, 0
1744, 1753146850, -0.88031256, 0.09391427, -0.28879428, 0.3644565, -0.98259896, 3.7608907, 0.7009382, 0
1747, 1753196851, -0.88029027, 0.0932553, -0.28692988, 0.36614835, -0.85389036, 2.5421708, 0.535779, 0
1748, 1753213518, -0.8801111, 0.093074486, -0.2866525, 0.36684218, 2.8881342, -7.1664376, -3.390523, 0
1749, 1753230185, -0.88003445, 0.09249148, -0.28741542, 0.3665763, -3.2487419, 9.822567, -0.14915371, 0
1752, 1753280186, -0.8800922, 0.09088704, -0.28546888, 0.3683553, -4.186191, 9.284061, -2.8367438, 0
1753, 1753296853, -0.8795195, 0.09068875, -0.286117, 0.3692684, 4.4162765, -11.95784, -4.2474027, 0
1755, 1753330187, -0.8796747, 0.08944866, -0.28551024, 0.36967087, -1.9552234, 2.8215287, -3.6593146, 0
1756, 1753346854, -0.87915117, 0.09024907, -0.28525504, 0.37091655, 1.8119004, -9.156783, 1.9653044, 0
1757, 1753363521, -0.8793032, 0.08988544, -0.28465572, 0.3711046, -6.5385203, 16.259624, 2.5782194, 0
1759, 1753396855, -0.8779569, 0.08947826, -0.28769392, 0.3720464, -4.9361343, 10.242205, 3.1286602, 0
1760, 1753413522, -0.87771773, 0.0887555, -0.28706685, 0.37326646, -3.2549522, 4.8342423, 0.5350275, 0
1763, 1753463523, -0.8759168, 0.08791477, -0.29118943, 0.3745005, 0.73863053, -0.21959417, -3.6276221, 0
1764, 1753480190, -0.87585324, 0.08740457, -0.29041117, 0.37537146, -0.27356488, -0.7327099, 1.1777468, 0
1767, 1753530191, -0.87634134, 0.0845268, -0.28873354, 0.37618476, 1.0662149, -0.38717708, -2.8299909, 0
1768, 1753546858, -0.8765226, 0.08383618, -0.28803912, 0.37644958, -1.9765009, 4.35411, 0.8952341, 0
1770, 1753580192, -0.87668514, 0.08264652, -0.28721142, 0.37696588, 1.0592926, -2.9543123, -3.2510166, 0
1771, 1753596859, -0.87666637, 0.082706556, -0.2867657, 0.3773356, -1.6439892, 1.5744375, 1.3274155, 0
1772, 1753613526, -0.8764652, 0.08259454, -0.28696582, 0.37767494, -3.3472965, 5.7117543, 1.0854597, 0
1774, 1753646860, -0.87585, 0.082940295, -0.2866988, 0.37922615, -0.2237425, -0.5919559, -0.1652937, 0
1775, 1753663527, -0.8755306, 0.08355212, -0.28668237, 0.3798417, -2.246898, 3.957317, 0.5105486, 0
1776, 1753680194, -0.8752239, 0.08352308, -0.28675377, 0.3805002, -1.5580391, 4.1088505, -0.66695976, 0
1779, 1753730195, -0.8744124, 0.08459176, -0.28650448, 0.38231304, -2.3455443, 6.754047, -1.3049269, 0
1782, 1753780196, -0.8741564, 0.08428238, -0.28592283, 0.38340086, -3.552364, 7.138719, 4.1684637, 0
1783, 1753796863, -0.87425417, 0.08379382, -0.28655818, 0.38281026, -3.3598313, 7.690921, -0.6803551, 0
1784, 1753813530, -0.87412065, 0.08302182, -0.28790087, 0.3822756, -0.15071434, 3.6246104, -4.19657, 0
1786, 1753846864, -0.87418973, 0.08334401, -0.2860312, 0.38344905, -2.2311287, 1.9014305, 3.2610168, 0
1787, 1753863531, -0.87419266, 0.08366313, -0.28562424, 0.38367614, -4.358585, 5.4361935, 1.7967186, 0
1788, 1753880198, -0.87380576, 0.0839937, -0.28691655, 0.38352132, -1.1436986, 3.8536584, -1.4421186, 0
1790, 1753913532, -0.87355757, 0.0840532, -0.28690025, 0.38408494, -1.4016433, 2.0753279, 0.298851, 0
1791, 1753930199, -0.87333155, 0.08407607, -0.28710002, 0.3844449, -3.3722486, 3.7421353, 0.704195, 0
1792, 1753946866, -0.87301534, 0.08398161, -0.2879829, 0.3845237, -1.7193574, 4.297318, -0.34555435, 0
1794, 1753980200, -0.872505, 0.0835801, -0.28900698, 0.3850003, -1.53893, 4.0076475, 0.7706623, 0
1797, 1754030201, -0.87209755, 0.08242556, -0.2899934, 0.38543046, -0.80443186, 2.4226294, -1.4370317, 0
1798, 1754046868, -0.8719456, 0.08231314, -0.29003963, 0.3857635, -0.2294032, -0.41161928, -0.38646126, 0
1799, 1754063535, -0.87191343, 0.08218017, -0.2896195, 0.38617995, -1.1162411, 2.9287105, 0.8761797, 0
1801, 1754096869, -0.8720125, 0.081101745, -0.29010075, 0.3858226, -3.3223257, 9.060125, 0.38096523, 0
1802, 1754113536, -0.87184036, 0.08074555, -0.29071784, 0.3858219, -0.4805951, 0.9163171, -1.8523188, 0
1803, 1754130203, -0.87165165, 0.0803363, -0.29121044, 0.38596222, -1.0434731, 2.0747774, -2.0671997, 0
1805, 1754163537, -0.8716442, 0.08007657, -0.29049942, 0.38656855, -1.4144429, 0.6322799, 0.54644394, 0
1806, 1754180204, -0.871645, 0.08013483, -0.29002595, 0.38691026, -2.2601466, 5.051445, 2.7807837, 0
1809, 1754230205, -0.8713438, 0.07949203, -0.29045057, 0.38740242, -0.7942989, 1.9528207, -1.6397781, 0
1811, 1754263539, -0.8708326, 0.07929509, -0.29099083, 0.38818595, -0.9342162, -0.7817158, -0.72108555, 0
1813, 1754296873, -0.8706317, 0.079329506, -0.29023117, 0.38919696, -1.4226459, 3.2355416, 1.1996565, 0
1814, 1754313540, -0.87056834, 0.07920738, -0.29021817, 0.38937283, -1.1587499, 3.573277, -0.20282078, 0
1815, 1754330207, -0.87041837, 0.07905602, -0.29030585, 0.38967386, -0.55153096, 3.995779, -0.21423149, 0
1817, 1754363541, -0.87016344, 0.078253224, -0.29101646, 0.38987494, -1.5222476, 2.4669988, 0.059659958, 0
1818, 1754380208, -0.8700289, 0.077987924, -0.2912399, 0.3900615, -1.6983786, 1.6797845, -0.40778923, 0
1819, 1754396875, -0.8698955, 0.077717155, -0.2913521, 0.39032945, -1.4591537, 1.9582399, -0.43034077, 0
1821, 1754430209, -0.8700218, 0.077258, -0.29055223, 0.3907349, -1.1382096, 3.304336, 0.7262955, 0
1822, 1754446876, -0.87006855, 0.07699455, -0.29033008, 0.39084807, -0.78467464, 2.6301713, 0.06533241, 0
1826, 1754513544, -0.8696902, 0.07565784, -0.29169688, 0.390933, -1.9076155, 3.2256055, -0.7657671, 0
1828, 1754546878, -0.8692979, 0.075464, -0.29244503, 0.3912839, -1.2951878, 3.4282832, 0.018878937, 0
