sep=,
DeviceTag:,Xsens_DOT_1,,,,,,,,,,,,,,,,,
FirmwareVersion:,3.0.0,,,,,,,,,,,,,,,,,
AppVersion:,2023.6.1,,,,,,,,,,,,,,,,,
SyncStatus:,Synced,,,,,,,,,,,,,,,,,
OutputRate:,60Hz,,,,,,,,,,,,,,,,,
FilterProfile:,General,,,,,,,,,,,,,,,,,
Measurement Mode:,Sensor fusion Mode - Extended (Quaternion),,,,,,,,,,,,,,,,,
StartTime:,2025-05-05 11:35:31.075 +0200,,,,,,,,,,,,,,,,,
 2025,,,,,,,,,,,,,,,,,,,

PacketCounter,SampleTimeFine,Quat_W,Quat_X,Quat_Y,Quat_Z,FreeAcc_X,FreeAcc_Y,FreeAcc_Z,Status
1, 1724096269, 0.48209348, -0.09039429, 0.20493712, 0.84704036, -0.3206233, 0.018864047, 0.34790993, 0
2, 1724112936, 0.48213425, -0.09044912, 0.20490515, 0.847019, -0.31381646, -0.016467318, 0.35226727, 0
3, 1724129603, 0.48218977, -0.09051805, 0.20488955, 0.8469838, -0.32130775, -0.003440088, 0.35067368, 0
4, 1724146270, 0.48223528, -0.090588465, 0.20492409, 0.846942, -0.3405398, 0.023635043, 0.36977673, 0
5, 1724162937, 0.4822682, -0.090629786, 0.20494871, 0.84691286, -0.35544956, 0.031565394, 0.3777752, 0
6, 1724179604, 0.48229325, -0.09067264, 0.20494017, 0.84689623, -0.30652407, 0.019171266, 0.36549377, 0
7, 1724196271, 0.48231977, -0.090709694, 0.2049002, 0.84688675, -0.30186272, -5.2760233E-4, 0.3635893, 0
8, 1724212938, 0.4823612, -0.09076635, 0.20485124, 0.8468689, -0.31905514, -0.00872751, 0.36170483, 0
9, 1724229605, 0.4824073, -0.0908161, 0.20482522, 0.8468436, -0.35550267, 0.016226146, 0.3368864, 0
10, 1724246272, 0.48242313, -0.09083874, 0.20481399, 0.8468348, -0.31470376, 0.021643542, 0.36797333, 0
11, 1724262939, 0.48244125, -0.0908631, 0.20479496, 0.84682643, -0.3246406, 0.010366084, 0.3815794, 0
12, 1724279606, 0.48247397, -0.090899564, 0.20475104, 0.8468145, -0.29930732, 0.014097856, 0.34923172, 0
13, 1724296273, 0.48252356, -0.090948984, 0.20470497, 0.8467921, -0.30927533, 0.0026400234, 0.3439598, 0
14, 1724312940, 0.48256955, -0.090995714, 0.20467597, 0.846768, -0.35191274, 0.02139712, 0.38579082, 0
15, 1724329607, 0.48260278, -0.091029376, 0.20465337, 0.846751, -0.31958622, 4.3015069E-4, 0.36721325, 0
16, 1724346274, 0.4826433, -0.091044515, 0.20462221, 0.8467338, -0.3054294, 0.0053451033, 0.34751606, 0
17, 1724362941, 0.48267576, -0.091088586, 0.20458798, 0.8467187, -0.31716642, 0.0038513518, 0.35533047, 0
18, 1724379608, 0.4827075, -0.09112838, 0.20456757, 0.84670126, -0.31217536, -0.0146753015, 0.34956837, 0
19, 1724396275, 0.48274815, -0.091187336, 0.20453857, 0.84667873, -0.2942833, -0.004083917, 0.35361004, 0
20, 1724412942, 0.482792, -0.09123896, 0.20450778, 0.8466557, -0.3347966, 0.018123772, 0.35566235, 0
21, 1724429609, 0.48284006, -0.09126916, 0.20447828, 0.8466322, -0.32646605, 0.007861509, 0.3565464, 0
22, 1724446276, 0.48286673, -0.09128877, 0.20444702, 0.84662235, -0.30468056, 0.008376259, 0.35276604, 0
23, 1724462943, 0.48290014, -0.09131266, 0.2044217, 0.84660685, -0.2991527, -0.0024196396, 0.35130692, 0
24, 1724479610, 0.4829479, -0.0913514, 0.20439741, 0.8465812, -0.28759298, -0.010530813, 0.3469553, 0
25, 1724496277, 0.4829958, -0.09139902, 0.20439063, 0.84655046, -0.33111167, 0.0059594144, 0.37314892, 0
26, 1724512944, 0.4830358, -0.09143097, 0.2043829, 0.846526, -0.3044001, 6.5489294E-4, 0.349926, 0
27, 1724529611, 0.48307037, -0.091445066, 0.20433968, 0.8465153, -0.28313184, 0.008371008, 0.35804462, 0
28, 1724546278, 0.4831096, -0.09144291, 0.2042594, 0.84651244, -0.28900316, 0.0019424394, 0.3539381, 0
29, 1724562945, 0.48315886, -0.09143316, 0.2041646, 0.8465084, -0.30035102, -0.0029890388, 0.33842182, 0
30, 1724579612, 0.48320594, -0.09142089, 0.20408201, 0.84650254, -0.32620582, 0.015963295, 0.3693304, 0
31, 1724596279, 0.4832427, -0.09141066, 0.20401762, 0.84649813, -0.30848625, 0.019035704, 0.38682556, 0
32, 1724612946, 0.4832846, -0.091405824, 0.20396574, 0.8464873, -0.30542597, -0.001505695, 0.371068, 0
33, 1724629613, 0.4833216, -0.09142086, 0.20393337, 0.8464724, -0.30076247, -0.00564292, 0.37526608, 0
34, 1724646280, 0.4833489, -0.091461904, 0.2039168, 0.8464563, -0.3102, 0.008408893, 0.38817596, 0
35, 1724662947, 0.48338157, -0.09149283, 0.20392072, 0.8464334, -0.31426284, 0.010741921, 0.3840027, 0
36, 1724679614, 0.4834016, -0.09151278, 0.20392977, 0.84641767, -0.28608266, 8.7415916E-4, 0.3765049, 0
37, 1724696281, 0.48342, -0.091555685, 0.20392671, 0.84640324, -0.27469426, -0.013454698, 0.35623932, 0
38, 1724712948, 0.48344594, -0.09157268, 0.20390731, 0.8463912, -0.29424596, 0.0038219597, 0.3459301, 0
39, 1724729615, 0.4834606, -0.091555536, 0.20388477, 0.8463901, -0.291225, -4.7608258E-4, 0.35919, 0
40, 1724746282, 0.4834587, -0.091575354, 0.2038737, 0.8463918, -0.25826186, -0.023797449, 0.33906078, 0
41, 1724762949, 0.48347664, -0.09162387, 0.20385537, 0.8463807, -0.29416126, -0.0031435979, 0.33830643, 0
42, 1724779616, 0.48350042, -0.09166667, 0.2038358, 0.8463671, -0.29286784, 8.853348E-4, 0.33723354, 0
43, 1724796283, 0.48349577, -0.09169847, 0.20382364, 0.84636915, -0.27665368, -0.01978302, 0.36303616, 0
44, 1724812950, 0.48350376, -0.09174438, 0.20380904, 0.8463633, -0.25893217, -0.011253542, 0.36737823, 0
45, 1724829617, 0.48350534, -0.09178836, 0.20378897, 0.8463624, -0.2603537, 0.008237905, 0.3602972, 0
46, 1724846284, 0.4835249, -0.09186123, 0.20377477, 0.84634674, -0.27123258, -0.019810848, 0.35001278, 0
47, 1724862951, 0.48354864, -0.09194726, 0.20375635, 0.8463284, -0.27681738, -0.008452254, 0.3572607, 0
48, 1724879618, 0.4835819, -0.092061006, 0.2037661, 0.8462945, -0.30898222, -0.02477451, 0.36875725, 0
50, 1724912952, 0.4835685, -0.09234598, 0.20398234, 0.8462191, -0.32524762, -0.04268047, 0.3494177, 0
51, 1724929619, 0.48354304, -0.092574544, 0.20419337, 0.8461578, -0.25457463, -0.020464288, 0.37334538, 0
52, 1724946286, 0.48354474, -0.09284809, 0.20441674, 0.846073, -0.23247984, -0.019084541, 0.35634804, 0
54, 1724979620, 0.48362935, -0.093307085, 0.20473805, 0.84589636, -0.24322127, 0.01340966, 0.3445835, 0
55, 1724996287, 0.48368353, -0.093481466, 0.2048052, 0.84582996, -0.23069856, 0.00540499, 0.34364128, 0
56, 1725012954, 0.48374426, -0.09362233, 0.20484118, 0.84577096, -0.29214793, 0.0067600375, 0.32195568, 0
58, 1725046288, 0.48382372, -0.09382766, 0.20492783, 0.84568167, -0.2576003, -0.030968726, 0.35370827, 0
59, 1725062955, 0.4838993, -0.093982376, 0.20497, 0.845611, -0.24243121, -0.03658069, 0.34928894, 0
62, 1725112956, 0.48409265, -0.09446783, 0.20540391, 0.84534085, -0.26131433, -0.04879634, 0.34523678, 0
63, 1725129623, 0.48418182, -0.09468618, 0.20560895, 0.84521556, -0.24472168, -0.01583131, 0.35086346, 0
66, 1725179624, 0.4846902, -0.0954534, 0.20611598, 0.84471405, -0.2947025, 0.0050126133, 0.35568428, 0
67, 1725196291, 0.48484504, -0.09565236, 0.20624317, 0.8445718, -0.30059642, 0.04723298, 0.3924799, 0
68, 1725212958, 0.48498228, -0.09579657, 0.20636478, 0.8444469, -0.26624683, 0.005956844, 0.37119865, 0
70, 1725246292, 0.48523337, -0.096034184, 0.20666824, 0.8442016, -0.2917614, 0.01802442, 0.35935593, 0
73, 1725296293, 0.48543993, -0.09625787, 0.20704213, 0.84396565, -0.20461322, -0.0083729075, 0.3609295, 0
74, 1725312960, 0.48553434, -0.09633012, 0.20711677, 0.8438848, -0.2514592, 0.022822348, 0.3604231, 0
75, 1725329627, 0.48560095, -0.096370734, 0.20720403, 0.8438202, -0.26827043, -0.004129737, 0.35940933, 0
77, 1725362961, 0.4857357, -0.096501134, 0.20740983, 0.8436774, -0.22549416, -0.00779792, 0.35360622, 0
79, 1725396295, 0.48592573, -0.096563175, 0.20748311, 0.8435427, -0.24242811, -0.025054125, 0.33065605, 0
81, 1725429629, 0.4860885, -0.09665415, 0.20762089, 0.8434046, -0.28215614, -0.03818473, 0.36566544, 0
82, 1725446296, 0.4861474, -0.0967566, 0.20769946, 0.8433397, -0.22493519, -0.04076072, 0.34694386, 0
83, 1725462963, 0.4862288, -0.09688401, 0.20782341, 0.84324753, -0.23283333, -0.03194883, 0.35027695, 0
85, 1725496297, 0.48640686, -0.09716372, 0.20811409, 0.8430409, -0.28059322, -0.0036762294, 0.35920143, 0
86, 1725512964, 0.48647776, -0.097320646, 0.2082813, 0.8429406, -0.25264063, -0.026733378, 0.37748432, 0
87, 1725529631, 0.4865804, -0.09753661, 0.20844357, 0.84281635, -0.19800515, -0.076457635, 0.3450756, 0
89, 1725562965, 0.4868672, -0.098013505, 0.20892893, 0.8424752, -0.26476547, 0.012427209, 0.35807705, 0
90, 1725579632, 0.4869781, -0.09820348, 0.20913981, 0.84233654, -0.2379719, 0.030167768, 0.35391045, 0
91, 1725596299, 0.48708838, -0.09836167, 0.20928682, 0.8422178, -0.23118104, -0.011431682, 0.3468275, 0
94, 1725646300, 0.48732328, -0.09865031, 0.20959078, 0.8419726, -0.2096754, -0.0064075575, 0.38384533, 0
95, 1725662967, 0.48738995, -0.09868615, 0.20959187, 0.84192944, -0.19444568, -0.01525543, 0.33751583, 0
97, 1725696301, 0.48757786, -0.09863276, 0.209489, 0.84185255, -0.25847965, 0.008570716, 0.37089443, 0
98, 1725712968, 0.48760763, -0.098592915, 0.20948076, 0.84184194, -0.27146605, -0.031211125, 0.39961624, 0
100, 1725746302, 0.4876882, -0.09880368, 0.20960927, 0.8417386, -0.21717092, -0.05172101, 0.35134697, 0
101, 1725762969, 0.48776484, -0.09900975, 0.20973006, 0.84164, -0.23338057, -0.06566051, 0.38040257, 0
102, 1725779636, 0.4878667, -0.09928695, 0.20989405, 0.8415073, -0.22134711, -0.05940505, 0.33960342, 0
104, 1725812970, 0.48808998, -0.09989184, 0.21031907, 0.8412, -0.20404243, 0.02145378, 0.35023594, 0
105, 1725829637, 0.4881886, -0.10009865, 0.21043739, 0.84108865, -0.20330834, 0.027416099, 0.33910275, 0
106, 1725846304, 0.4882706, -0.100213476, 0.21047609, 0.84101766, -0.21516067, 0.021740658, 0.3333826, 0
109, 1725896305, 0.48843122, -0.100181974, 0.21035331, 0.840959, -0.23864098, -0.022465734, 0.3585148, 0
110, 1725912972, 0.48845613, -0.10017011, 0.21030058, 0.84095895, -0.22083133, -0.036985025, 0.36459637, 0
112, 1725946306, 0.4885314, -0.10023506, 0.21021639, 0.8409286, -0.2711385, 0.0023477508, 0.39260578, 0
113, 1725962973, 0.4885436, -0.10027709, 0.2102483, 0.8409085, -0.23827848, -0.043176, 0.37511444, 0
114, 1725979640, 0.48855227, -0.10033309, 0.21031132, 0.8408811, -0.23012237, -0.028026737, 0.37518787, 0
116, 1726012974, 0.48858893, -0.10046491, 0.21040747, 0.8408201, -0.1859492, -0.01474895, 0.35425568, 0
117, 1726029641, 0.48860407, -0.100493774, 0.21040177, 0.8408092, -0.20556885, -0.009507235, 0.3628025, 0
118, 1726046308, 0.4886256, -0.10049577, 0.21037419, 0.8408034, -0.23979387, -0.008751426, 0.34764194, 0
120, 1726079642, 0.48865414, -0.100426614, 0.21018665, 0.8408419, -0.19509342, -0.013276781, 0.37634468, 0
121, 1726096309, 0.4886599, -0.1003986, 0.21006113, 0.84087336, -0.21602796, -0.04933691, 0.37321854, 0
122, 1726112976, 0.48868474, -0.1004065, 0.2099887, 0.84087586, -0.23664333, -0.029549642, 0.3562746, 0
124, 1726146310, 0.48868588, -0.1004645, 0.20996664, 0.84087396, -0.22806288, 0.009394473, 0.35323715, 0
125, 1726162977, 0.48865658, -0.10046278, 0.20994072, 0.84089756, -0.18599558, -0.015821587, 0.3583088, 0
127, 1726196311, 0.4886731, -0.10045486, 0.20979685, 0.84092474, -0.23479275, -0.03982744, 0.3621273, 0
128, 1726212978, 0.48870087, -0.100461096, 0.20974034, 0.840922, -0.23276357, -0.024681082, 0.37346363, 0
129, 1726229645, 0.48872072, -0.1004474, 0.20969532, 0.8409234, -0.19087867, -0.01715786, 0.3421669, 0
131, 1726262979, 0.4888091, -0.10049954, 0.20953666, 0.8409053, -0.17090835, -0.035368353, 0.34964657, 0
132, 1726279646, 0.4888814, -0.10057199, 0.20945314, 0.8408755, -0.19329973, -0.025865255, 0.3445406, 0
133, 1726296313, 0.48893088, -0.100604475, 0.209359, 0.8408662, -0.24336816, -0.004680808, 0.34601593, 0
136, 1726346314, 0.489093, -0.10065025, 0.2089608, 0.8408655, -0.17600209, -0.012834238, 0.3305626, 0
137, 1726362981, 0.48915678, -0.10062763, 0.20874228, 0.84088546, -0.20069182, -0.025280545, 0.33401203, 0
139, 1726396315, 0.48922545, -0.100500196, 0.20841445, 0.84094214, -0.22768411, -0.026414426, 0.3776188, 0
140, 1726412982, 0.48922655, -0.100448936, 0.2083139, 0.8409724, -0.1960582, -0.044027694, 0.37222004, 0
141, 1726429649, 0.4892807, -0.100439146, 0.20819919, 0.8409704, -0.198525, -0.057471775, 0.3726654, 0
143, 1726462983, 0.489412, -0.10057843, 0.20813678, 0.8408929, -0.2079247, -0.053107012, 0.37718964, 0
144, 1726479650, 0.48947912, -0.10069312, 0.20814101, 0.840839, -0.23246032, -3.5750898E-4, 0.37127686, 0
147, 1726529651, 0.4896773, -0.10075902, 0.20794427, 0.84076446, -0.20220709, -0.0041323076, 0.35397148, 0
150, 1726579652, 0.4898126, -0.10059774, 0.20769809, 0.84076583, -0.17068294, -0.062119056, 0.37934875, 0
152, 1726612986, 0.48990226, -0.100621335, 0.2076184, 0.8407304, -0.18766734, 0.0049446654, 0.3358078, 0
155, 1726662987, 0.48993117, -0.10061594, 0.20741482, 0.8407644, -0.16051637, -0.03959409, 0.35279655, 0
156, 1726679654, 0.48994917, -0.10063754, 0.20731308, 0.84077644, -0.17279907, -0.041704055, 0.3573246, 0
158, 1726712988, 0.4900151, -0.10070569, 0.20706482, 0.8407911, -0.16658315, -0.031680614, 0.35818863, 0
159, 1726729655, 0.49007314, -0.10075387, 0.20689292, 0.8407937, -0.14920944, -0.0851533, 0.36762524, 0
162, 1726779656, 0.4902773, -0.10100627, 0.20639384, 0.84076715, -0.1880497, -0.042925663, 0.36327648, 0
163, 1726796323, 0.4903473, -0.10108286, 0.2062629, 0.84074926, -0.22692284, -0.02418712, 0.34147453, 0
164, 1726812990, 0.4904007, -0.10112671, 0.20617874, 0.8407335, -0.20525536, -0.006556194, 0.36387444, 0
166, 1726846324, 0.49048063, -0.10113037, 0.20615995, 0.840691, -0.1942799, -0.041134432, 0.36507988, 0
167, 1726862991, 0.49051136, -0.10113631, 0.20616236, 0.8406717, -0.19389944, -0.054124445, 0.34226227, 0
168, 1726879658, 0.49054277, -0.10115357, 0.20622712, 0.8406355, -0.14849792, -0.03801486, 0.3390875, 0
172, 1726946326, 0.49071422, -0.10126378, 0.20651045, 0.8404527, -0.16217442, -0.047826745, 0.36601162, 0
174, 1726979660, 0.490816, -0.10135893, 0.20665437, 0.84034634, -0.18001363, -0.022389516, 0.3703909, 0
175, 1726996327, 0.4908564, -0.10140421, 0.20670001, 0.84030604, -0.15084934, -0.018337673, 0.3530817, 0
176, 1727012994, 0.49088654, -0.10141065, 0.20672858, 0.84028053, -0.16655444, -7.331225E-4, 0.33290005, 0
178, 1727046328, 0.49086392, -0.10137249, 0.20676045, 0.84029055, -0.16538616, -0.037464906, 0.3505869, 0
179, 1727062995, 0.49086362, -0.10136768, 0.20674951, 0.840294, -0.16281968, -0.008051942, 0.36633015, 0
181, 1727096329, 0.4908046, -0.10125389, 0.2066761, 0.84036016, -0.15961796, -0.024351737, 0.34738445, 0
182, 1727112996, 0.49075735, -0.10116333, 0.20661432, 0.8404139, -0.15941131, -0.026078261, 0.37113953, 0
183, 1727129663, 0.49071884, -0.101066016, 0.2065244, 0.8404703, -0.15421674, -0.044405095, 0.33164692, 0
185, 1727162997, 0.49063724, -0.10088695, 0.20639648, 0.8405709, -0.16714597, -0.0357338, 0.3654766, 0
187, 1727196331, 0.49049324, -0.100693524, 0.20626637, 0.8407099, -0.18265118, -0.049582995, 0.3408041, 0
189, 1727229665, 0.49041146, -0.10066301, 0.20619579, 0.8407787, -0.13007899, -0.05487992, 0.3579712, 0
190, 1727246332, 0.4903955, -0.10067147, 0.20623025, 0.8407785, -0.18629836, -0.020837443, 0.34196377, 0
191, 1727262999, 0.49036223, -0.10064614, 0.20625488, 0.8407949, -0.17011306, -0.019492453, 0.36739445, 0
193, 1727296333, 0.49026763, -0.100555316, 0.20620263, 0.8408738, -0.13840057, -0.0051562204, 0.3497467, 0
194, 1727313000, 0.49020505, -0.10046787, 0.20610039, 0.8409457, -0.18278329, -0.016225252, 0.34356308, 0
195, 1727329667, 0.49012285, -0.1003446, 0.20599127, 0.8410351, -0.16117053, -0.02202519, 0.3599491, 0
197, 1727363001, 0.48992437, -0.10008234, 0.20566794, 0.841261, -0.15221275, -0.01106635, 0.36060333, 0
198, 1727379668, 0.48983538, -0.099954665, 0.20546186, 0.8413785, -0.16080935, -0.013472802, 0.40283298, 0
199, 1727396335, 0.48978552, -0.099806905, 0.20525758, 0.8414749, -0.1584446, -0.012931566, 0.36442852, 0
201, 1727429669, 0.48963994, -0.09951927, 0.20499721, 0.84165716, -0.11434077, -0.10331618, 0.31304646, 0
202, 1727446336, 0.4895989, -0.09944882, 0.20490722, 0.84171116, -0.15040106, -0.07813499, 0.33952904, 0
205, 1727496337, 0.4895476, -0.09948348, 0.2046897, 0.84178984, -0.12122823, -0.07053376, 0.34322834, 0
206, 1727513004, 0.4895496, -0.0995523, 0.20467092, 0.8417851, -0.1915193, -0.04132643, 0.37160587, 0
208, 1727546338, 0.4895754, -0.099597976, 0.2046973, 0.84175825, -0.13049626, -0.044105735, 0.36695766, 0
209, 1727563005, 0.48959357, -0.099647366, 0.20469932, 0.8417413, -0.11359874, -0.05080092, 0.36153507, 0
210, 1727579672, 0.48964393, -0.09970575, 0.20467985, 0.84171, -0.16116586, -0.055613935, 0.3704691, 0
212, 1727613006, 0.48970443, -0.09981355, 0.20472515, 0.84165096, -0.14885376, -0.07469412, 0.36948586, 0
213, 1727629673, 0.48974955, -0.0998758, 0.20478512, 0.8416027, -0.14693959, -0.06663547, 0.3444805, 0
216, 1727679674, 0.48996335, -0.100133166, 0.20495082, 0.8414074, -0.110923946, -0.07117502, 0.3547783, 0
217, 1727696341, 0.49012667, -0.10029324, 0.20484456, 0.84131896, -0.08524578, -0.09212276, 0.3429308, 0
218, 1727713008, 0.49030814, -0.100424744, 0.20480087, 0.8412082, -0.20424114, -0.004950477, 0.37925148, 0
220, 1727746342, 0.49054617, -0.10062957, 0.20483644, 0.8410363, -0.121425256, -0.07388858, 0.36147308, 0
221, 1727763009, 0.4907695, -0.10084715, 0.20460421, 0.84093654, -0.03402634, -0.08038007, 0.36226654, 0
222, 1727779676, 0.4910067, -0.10105796, 0.20435086, 0.84083426, -0.1496504, -0.014380489, 0.34400654, 0
224, 1727813010, 0.49133632, -0.10133134, 0.20405263, 0.8406813, -0.14929134, -0.0013179441, 0.3612013, 0
225, 1727829677, 0.49144775, -0.10138768, 0.20396371, 0.84063077, -0.1975579, 0.0025360899, 0.3596468, 0
226, 1727846344, 0.49146557, -0.10138129, 0.20395063, 0.84062445, -0.18152146, 0.0035262522, 0.354558, 0
228, 1727879678, 0.49144557, -0.10140542, 0.20412856, 0.84059, -0.12858912, -0.054876566, 0.3379631, 0
231, 1727929679, 0.49145082, -0.10152703, 0.20471011, 0.84043086, -0.15344515, -0.040806312, 0.35437965, 0
232, 1727946346, 0.4914347, -0.10156597, 0.2049062, 0.8403878, -0.12296107, -0.051780596, 0.34150124, 0
235, 1727996347, 0.49141777, -0.10151741, 0.20540303, 0.8402823, -0.34162045, -0.0717385, 0.3716917, 0
236, 1728013014, 0.4913113, -0.10156811, 0.20560724, 0.8402884, 0.030322641, -0.12620178, 0.3549099, 0
237, 1728029681, 0.49129272, -0.10173318, 0.20588705, 0.8402109, -0.22932468, -0.056816883, 0.3486786, 0
239, 1728063015, 0.49144942, -0.10206521, 0.20617405, 0.8400084, -0.026329882, -0.12271129, 0.24816132, 0
240, 1728079682, 0.49164236, -0.102208704, 0.20619029, 0.83987427, -0.073206626, -0.12045515, 0.2932539, 0
241, 1728096349, 0.49183536, -0.10244325, 0.20621382, 0.8397268, -0.14129564, -0.11416248, 0.3229046, 0
243, 1728129683, 0.49230963, -0.1032953, 0.20636241, 0.83930784, -0.11850664, -0.14325203, 0.3325796, 0
244, 1728146350, 0.49266905, -0.10401483, 0.2064044, 0.8389978, -0.05151797, -0.14801095, 0.36419582, 0
247, 1728196351, 0.49402505, -0.10723872, 0.20699707, 0.8376474, -0.13712464, -0.04579479, 0.42417717, 0
248, 1728213018, 0.49445724, -0.10836955, 0.20709026, 0.83722377, -0.18012808, 0.019650923, 0.3689041, 0
249, 1728229685, 0.4948408, -0.10935437, 0.20722213, 0.83683646, -0.18675622, 0.052637078, 0.39571285, 0
251, 1728263019, 0.49530464, -0.110755265, 0.20757094, 0.83629096, -0.19679838, 0.08057765, 0.36680317, 0
252, 1728279686, 0.4954363, -0.11110841, 0.2079058, 0.836083, -0.24299194, 0.056310065, 0.29366016, 0
253, 1728296353, 0.49546242, -0.11134212, 0.20836012, 0.8359234, -0.104377195, -0.01902531, 0.37111378, 0
255, 1728329687, 0.49563873, -0.11156463, 0.20909452, 0.8356056, -0.06576573, 0.02399881, 0.34023476, 0
256, 1728346354, 0.49579394, -0.111510366, 0.20925777, 0.83548, -0.08144247, -0.033361554, 0.36212444, 0
258, 1728379688, 0.49605915, -0.11138841, 0.20933685, 0.83531904, -0.13635793, -0.042809438, 0.3778267, 0
259, 1728396355, 0.4961573, -0.11135596, 0.20938145, 0.8352539, -0.123612665, -0.053373665, 0.39043903, 0
262, 1728446356, 0.49634677, -0.11132859, 0.2094889, 0.83511806, -0.123428605, -0.04628797, 0.36026955, 0
263, 1728463023, 0.4963582, -0.111280546, 0.20957671, 0.83509564, -0.15804362, -0.04177904, 0.3680601, 0
264, 1728479690, 0.49629742, -0.11119702, 0.20969193, 0.835114, -0.13489105, -0.03658516, 0.3644619, 0
266, 1728513024, 0.49628544, -0.1111265, 0.20960557, 0.83515215, -0.056807216, -0.060039043, 0.3466406, 0
267, 1728529691, 0.49636054, -0.111076295, 0.20948139, 0.8351454, -0.10288785, -0.08141124, 0.34492683, 0
268, 1728546358, 0.49643338, -0.11105189, 0.20936655, 0.83513415, -0.11184936, -0.07843662, 0.36744118, 0
270, 1728579692, 0.49655473, -0.11109534, 0.2091535, 0.83510935, -0.15311146, -0.009177665, 0.33498096, 0
271, 1728596359, 0.49652675, -0.111018926, 0.20907196, 0.8351567, -0.16769265, -0.011117758, 0.34431934, 0
272, 1728613026, 0.49647957, -0.110886164, 0.20896734, 0.83522856, -0.08271261, -0.033520237, 0.34413147, 0
274, 1728646360, 0.49642265, -0.110478684, 0.20863846, 0.8353987, -0.13555287, -0.037397854, 0.33911896, 0
275, 1728663027, 0.49635613, -0.11019226, 0.20855238, 0.8354976, -0.15488307, -0.025218967, 0.34616184, 0
276, 1728679694, 0.4962608, -0.10989315, 0.20850271, 0.8356059, -0.12356548, -0.089405514, 0.35608768, 0
278, 1728713028, 0.49601486, -0.1092677, 0.20852102, 0.83582944, -0.19401595, -0.019720325, 0.364645, 0
279, 1728729695, 0.49580795, -0.10888007, 0.20864438, 0.8359719, -0.12165813, -0.053228494, 0.3501644, 0
280, 1728746362, 0.4956443, -0.108564734, 0.20873332, 0.83608776, -0.03955263, -0.11489028, 0.34144115, 0
282, 1728779696, 0.49542892, -0.107966214, 0.20886815, 0.8362591, -0.14590886, -0.04483491, 0.3102312, 0
283, 1728796363, 0.4952668, -0.10763928, 0.20901352, 0.83636105, -0.1209128, -0.05175901, 0.34660435, 0
284, 1728813030, 0.49513245, -0.10738982, 0.20904602, 0.8364646, -0.027978234, -0.10625012, 0.33637524, 0
286, 1728846364, 0.4950927, -0.10704643, 0.20886306, 0.8365778, -0.14627728, -0.046382178, 0.36761475, 0
289, 1728896365, 0.49477774, -0.106420696, 0.2087651, 0.8368683, -0.06118727, -0.124372445, 0.33636189, 0
290, 1728913032, 0.49472877, -0.10629247, 0.20881929, 0.8369001, -0.09758214, -0.04551059, 0.35339737, 0
291, 1728929699, 0.4946499, -0.10615678, 0.20887183, 0.8369509, -0.14611098, -0.050254766, 0.38844395, 0
293, 1728963033, 0.49445063, -0.10583203, 0.20894325, 0.83709186, -0.08878979, -0.05913337, 0.3442154, 0
294, 1728979700, 0.49436224, -0.10566356, 0.2089012, 0.83717585, -0.098118074, -0.055003073, 0.36841774, 0
297, 1729029701, 0.49407345, -0.10524437, 0.2086031, 0.8374735, -0.12616177, -0.04325121, 0.36227894, 0
298, 1729046368, 0.49397942, -0.10509928, 0.20845392, 0.8375843, -0.07802406, -0.084427215, 0.3327217, 0
299, 1729063035, 0.49392274, -0.104980566, 0.20831558, 0.8376669, -0.034066055, -0.11146647, 0.33961487, 0
301, 1729096369, 0.49390504, -0.10477482, 0.20799907, 0.8377818, -0.10551492, -0.025721982, 0.34296036, 0
302, 1729113036, 0.4938641, -0.104648374, 0.2078337, 0.83786273, -0.10902114, -0.06715257, 0.35562897, 0
305, 1729163037, 0.4937495, -0.104315355, 0.2075454, 0.8380432, -0.13238005, -0.026382128, 0.362257, 0
306, 1729179704, 0.49369967, -0.10421441, 0.20747659, 0.8381022, -0.09720879, -0.0617744, 0.3517084, 0
307, 1729196371, 0.49365637, -0.10414546, 0.20742074, 0.83815, -0.10304362, -0.07736443, 0.34066772, 0
309, 1729229705, 0.49360794, -0.10407263, 0.2073282, 0.8382106, -0.094528556, -0.057627562, 0.3518095, 0
310, 1729246372, 0.4935776, -0.10401476, 0.20727675, 0.8382484, -0.10613411, -0.021304138, 0.34637928, 0
311, 1729263039, 0.49354303, -0.1039417, 0.20719522, 0.83829796, -0.073593065, -0.056530338, 0.3590021, 0
313, 1729296373, 0.49348122, -0.10374376, 0.20692319, 0.83842593, -0.0847712, -0.047149833, 0.35578156, 0
314, 1729313040, 0.49348283, -0.103568435, 0.20668493, 0.8385055, -0.030849677, -0.06531071, 0.38828754, 0
316, 1729346374, 0.49335396, -0.10345657, 0.2064686, 0.8386485, -0.08208592, -0.12621363, 0.3913498, 0
317, 1729363041, 0.49323472, -0.10356589, 0.20644477, 0.838711, -0.13867983, -0.055644557, 0.35002518, 0
320, 1729413042, 0.49340957, -0.10372693, 0.20628592, 0.83862716, -0.06041028, -0.18079785, 0.2566929, 0
321, 1729429709, 0.49354035, -0.10396174, 0.20639181, 0.8384952, -0.15820889, -0.1610251, 0.3035698, 0
322, 1729446376, 0.49363235, -0.10428582, 0.20679668, 0.83830106, -0.17414406, -0.11197697, 0.39619923, 0
324, 1729479710, 0.4941753, -0.10544067, 0.20731312, 0.8377089, -0.10249417, -0.046428222, 0.39030266, 0
325, 1729496377, 0.49446136, -0.10604542, 0.20765471, 0.8373791, -0.109299675, -0.06752885, 0.3874159, 0
326, 1729513044, 0.4947559, -0.10670983, 0.20793663, 0.8370508, -0.06861928, -0.08282731, 0.36907768, 0
328, 1729546378, 0.49550295, -0.10811184, 0.20815933, 0.83637327, -0.12321323, 0.027668238, 0.3456211, 0
329, 1729563045, 0.49583456, -0.10862522, 0.20824063, 0.83608985, -0.062132705, -0.016709382, 0.37857914, 0
330, 1729579712, 0.49615857, -0.10904339, 0.20828944, 0.8358311, -0.1077447, -0.0022961486, 0.36333752, 0
332, 1729613046, 0.49665296, -0.10965116, 0.20844069, 0.83542, -0.17301457, 0.008642576, 0.38453007, 0
334, 1729646380, 0.49693188, -0.1099036, 0.20855151, 0.8351934, -0.013158473, -0.07241216, 0.33804512, 0
336, 1729679714, 0.49726516, -0.11010092, 0.20832469, 0.83502567, -0.14056584, -0.016540406, 0.347332, 0
337, 1729696381, 0.4973938, -0.11006774, 0.20828353, 0.83496374, -0.14698274, -0.026755953, 0.39187622, 0
339, 1729729715, 0.4975996, -0.10990786, 0.208243, 0.83487225, -0.0820003, -0.052387524, 0.33924103, 0
340, 1729746382, 0.49767947, -0.10980079, 0.20823999, 0.83483946, -0.109904625, -0.072205864, 0.35627174, 0
341, 1729763049, 0.49774796, -0.10970701, 0.20823798, 0.83481145, -0.078742616, -0.049808186, 0.37414932, 0
343, 1729796383, 0.49792778, -0.10972004, 0.20800056, 0.8347618, -0.05797989, -0.085129604, 0.3594513, 0
344, 1729813050, 0.49801522, -0.10974339, 0.20788257, 0.83473575, -0.14452767, -0.020259215, 0.3555727, 0
345, 1729829717, 0.49804676, -0.10965262, 0.20777582, 0.8347556, -0.12199365, 0.010976498, 0.3508253, 0
347, 1729863051, 0.49797365, -0.109229825, 0.20754156, 0.83491296, -0.05567989, -0.100705996, 0.35283566, 0
348, 1729879718, 0.49795204, -0.10910406, 0.2073742, 0.8349837, -0.050824415, -0.10774341, 0.36783695, 0
349, 1729896385, 0.49791956, -0.10897471, 0.20725895, 0.83504844, -0.113054276, -0.0486714, 0.3679266, 0
351, 1729929719, 0.49773252, -0.10869014, 0.20717205, 0.8352188, -0.06897416, -0.07213177, 0.35196495, 0
352, 1729946386, 0.49763757, -0.1085659, 0.207137, 0.8353001, -0.11601902, -0.06391975, 0.37681866, 0
353, 1729963053, 0.49748507, -0.10843475, 0.20716132, 0.83540213, -0.095803574, -0.057791285, 0.34049416, 0
355, 1729996387, 0.49717546, -0.10828121, 0.20727114, 0.83557916, -0.018735625, -0.09473798, 0.34983158, 0
356, 1730013054, 0.49707183, -0.10819632, 0.20721439, 0.83566576, -0.045187853, -0.01818345, 0.36727905, 0
357, 1730029721, 0.49694622, -0.108040124, 0.20706761, 0.8357972, -0.10458036, -0.0018467758, 0.38575077, 0
359, 1730063055, 0.4964808, -0.107312724, 0.20644124, 0.8363221, -0.09837906, 0.08398242, 0.41159344, 0
361, 1730096389, 0.4954166, -0.10564127, 0.2048396, 0.83755887, -0.17635387, 0.3021418, 0.5135956, 0
363, 1730129723, 0.4938851, -0.10256868, 0.20134887, 0.83968914, 0.031062113, 0.16033076, 0.58823967, 0
364, 1730146390, 0.49310976, -0.10048032, 0.1994129, 0.84085846, -0.039999552, 0.24713682, 0.74999046, 0
366, 1730179724, 0.49148017, -0.09544867, 0.19534819, 0.8433491, 0.34450907, -0.52782923, 0.2870407, 0
367, 1730196391, 0.49089167, -0.093168914, 0.19394435, 0.84427035, 0.116534024, 0.10933684, 0.86689186, 0
368, 1730213058, 0.49020055, -0.09086183, 0.19274904, 0.8451965, -0.11147631, -0.2570058, 0.27301693, 0
370, 1730246392, 0.4886729, -0.086776525, 0.19183554, 0.846717, -0.045942686, -0.40910855, 0.13833046, 0
371, 1730263059, 0.48781896, -0.08497889, 0.19200611, 0.84735274, 0.02523599, -0.075193785, 0.6023083, 0
372, 1730279726, 0.48681307, -0.08326567, 0.19215284, 0.84806776, 0.22636074, -0.2721801, 0.17177296, 0
374, 1730313060, 0.48405945, -0.07988541, 0.1926401, 0.84985685, -3.47285E-4, -0.04207274, 0.24834347, 0
376, 1730346394, 0.4814132, -0.07693871, 0.19297707, 0.8515536, -0.11285952, -0.0054679164, 0.53938484, 0
378, 1730379728, 0.47895068, -0.07385735, 0.19312133, 0.8531809, -0.8060475, -0.0019142767, 0.22385216, 0
379, 1730396395, 0.47841966, -0.07214243, 0.1932034, 0.8536068, -0.88238454, 0.0895622, 0.44899178, 0
380, 1730413062, 0.47805804, -0.07011347, 0.19330864, 0.8539545, 0.09117954, 0.07546289, 0.6862049, 0
382, 1730446396, 0.4769858, -0.06468954, 0.1930593, 0.8550379, -0.31082076, 0.31852227, 0.6156492, 0
383, 1730463063, 0.47672087, -0.061121274, 0.19295968, 0.85547066, -0.80795246, 0.1777051, 0.33104992, 0
384, 1730479730, 0.47646362, -0.057714667, 0.19297133, 0.8558477, 0.53621304, -0.49061033, -0.05368042, 0
386, 1730513064, 0.47542232, -0.051832266, 0.19289047, 0.85682106, -0.23102868, -0.1257856, 0.050601006, 0
387, 1730529731, 0.47484058, -0.0492806, 0.19284111, 0.85730505, 0.37907267, -0.294006, -0.043553352, 0
388, 1730546398, 0.47411492, -0.047355227, 0.19283372, 0.85781676, -0.23152062, -0.39367953, -0.2458849, 0
391, 1730596399, 0.47257125, -0.04548099, 0.19221523, 0.8589081, 0.77119493, -0.40848428, 0.11255455, 0
392, 1730613066, 0.47191194, -0.045887224, 0.19136466, 0.8594388, -0.20650609, 0.039566375, 0.27890015, 0
394, 1730646400, 0.470716, -0.0471259, 0.18878819, 0.86059666, 0.4411034, 0.014771971, 0.4580021, 0
395, 1730663067, 0.46970755, -0.048204333, 0.18740721, 0.8613893, -0.063306846, -0.34340194, -0.10245228, 0
397, 1730696401, 0.46749792, -0.05087331, 0.18489784, 0.8629787, 0.065435976, -0.015581647, 0.22881508, 0
398, 1730713068, 0.46617398, -0.052519683, 0.18344213, 0.8639063, 0.77835417, -0.29326013, 0.30860138, 0
399, 1730729735, 0.4644957, -0.054835312, 0.18157975, 0.8650592, 0.65725046, -0.18798926, 0.053207397, 0
401, 1730763069, 0.46178734, -0.061568137, 0.1771936, 0.86696386, -1.5808915, -0.7496414, -1.3859825, 0
402, 1730779736, 0.46166044, -0.06644064, 0.17589796, 0.86693543, -2.1157684, -0.4377815, -1.348711, 0
403, 1730796403, 0.46290568, -0.073162735, 0.17472479, 0.86596704, -2.2701242, -1.2440426, -2.5869508, 0
406, 1730846404, 0.46628308, -0.09722683, 0.16339566, 0.86399704, -0.29983896, -0.3188552, 1.7819138, 0
407, 1730863071, 0.4666797, -0.10690762, 0.16738395, 0.86187315, -0.086544245, -0.09620176, 0.7881298, 0
409, 1730896405, 0.46371472, -0.13131097, 0.18332371, 0.85684335, -0.13660824, -2.0066788, 2.0969238, 0
410, 1730913072, 0.46432632, -0.15095459, 0.19637427, 0.8503604, 0.6221503, -3.4461794, 1.5436563, 0
411, 1730929739, 0.46548927, -0.18061996, 0.21326429, 0.8398075, 0.45299768, -2.7210743, 1.2959194, 0
413, 1730963073, 0.4649328, -0.25936317, 0.24136701, 0.81140137, 0.34698772, 0.43687832, -0.6363144, 0
414, 1730979740, 0.46448815, -0.29301566, 0.2495396, 0.7976116, -0.050467744, 4.0441136, -1.7884712, 0
415, 1730996407, 0.46438962, -0.3151694, 0.25590226, 0.7871382, -0.40770096, 5.185789, -1.6258163, 0
417, 1731029741, 0.4585573, -0.32896698, 0.2660454, 0.781529, -0.44101766, 1.8737357, 1.1963816, 0
418, 1731046408, 0.45599514, -0.3299683, 0.26889172, 0.7816319, 2.0351226, -1.5404361, 1.6639004, 0
419, 1731063075, 0.45585638, -0.335755, 0.26906314, 0.77918565, 2.0640054, -3.2939162, 1.3901682, 0
421, 1731096409, 0.45099926, -0.37293974, 0.2690391, 0.7649807, -0.38000757, -6.380721, 2.3011932, 0
422, 1731113076, 0.4412256, -0.41336218, 0.2675615, 0.75028294, 1.63612, -8.120567, 2.839879, 0
424, 1731146410, 0.42127642, -0.5299821, 0.26149625, 0.68798745, 1.0839052, -10.408391, 8.8396225, 0
425, 1731163077, 0.42200094, -0.5773705, 0.2751335, 0.6425899, 4.306968, -17.839212, 17.285954, 0
426, 1731179744, 0.432501, -0.60966504, 0.29083464, 0.5972676, 12.77587, -24.350563, 21.605385, 0
428, 1731213078, 0.37431905, -0.63165903, 0.3062542, 0.60593927, 12.993193, -4.3859468, -2.352611, 0
429, 1731229745, 0.34500343, -0.6402601, 0.33167124, 0.60091245, -8.14327, -3.7315807, -2.9977698, 0
430, 1731246412, 0.33193815, -0.6459457, 0.34383225, 0.59532547, -14.566186, -19.332811, -2.042191, 0
433, 1731296413, 0.39274687, -0.6292939, 0.32116365, 0.5887739, -5.1332335, -12.714189, -8.601751, 0
434, 1731313080, 0.4268496, -0.61224866, 0.3033951, 0.5924224, -1.0601686, -10.386853, -6.2289305, 0
436, 1731346414, 0.48284662, -0.5707383, 0.26004195, 0.61119324, 5.548432, -6.020585, -9.058818, 0
437, 1731363081, 0.49981683, -0.5502388, 0.2410548, 0.62399924, 6.538064, -7.7394757, -7.7031655, 0
438, 1731379748, 0.5114753, -0.5261728, 0.22979617, 0.63936746, 4.564939, -5.393353, -8.488094, 0
440, 1731413082, 0.52159184, -0.47738075, 0.2280659, 0.6694007, 3.3080642, -6.490221, -3.2123485, 0
441, 1731429749, 0.5201182, -0.4516561, 0.22997326, 0.68750143, 2.0384028, -6.617734, -1.0056448, 0
442, 1731446416, 0.51595867, -0.4260514, 0.2313523, 0.70626116, -0.6372418, -4.7658024, -1.6567907, 0
444, 1731479750, 0.51284623, -0.37361342, 0.23456205, 0.73650825, -2.1971104, -2.825671, 2.3293629, 0
445, 1731496417, 0.5134325, -0.3481176, 0.23171328, 0.7493812, -0.070987046, -2.9619398, 3.1710215, 0
448, 1731546418, 0.49972484, -0.27240902, 0.2185781, 0.7926877, 3.127738, -0.9511809, 3.3020334, 0
449, 1731563085, 0.4881745, -0.24760988, 0.21884862, 0.80780077, 1.2496345, 0.1869764, 3.2770815, 0
451, 1731596419, 0.46329272, -0.19921425, 0.22335678, 0.8341745, -3.6601515, 1.6481332, 3.6900969, 0
452, 1731613086, 0.45338565, -0.17641512, 0.22453956, 0.84437144, -3.9522016, 2.0579257, 5.5764303, 0
453, 1731629753, 0.44594735, -0.15324315, 0.22262803, 0.8533149, -3.7024846, 3.1702077, 6.620697, 0
455, 1731663087, 0.4360732, -0.10945732, 0.21727045, 0.86643803, -2.8318584, 5.9247036, 2.0000677, 0
456, 1731679754, 0.43115813, -0.09168601, 0.21764752, 0.87085474, -3.120628, 7.07078, -0.17555332, 0
457, 1731696421, 0.42496127, -0.07725851, 0.22389036, 0.8737129, -2.932263, 8.81179, -2.1445599, 0
459, 1731729755, 0.4068106, -0.059456818, 0.24497521, 0.8780769, -1.5405042, 16.845776, 5.3276052, 0
460, 1731746422, 0.39489156, -0.047556207, 0.2505483, 0.88265884, -2.5333838, 20.183264, 2.583292, 0
463, 1731796423, 0.38453072, -0.0465396, 0.26802063, 0.8821547, -4.591622, 29.633236, -7.4506774, 0
464, 1731813090, 0.39379364, -0.057478935, 0.27697906, 0.87462413, -3.4662855, 31.963036, -8.440072, 0
465, 1731829757, 0.41001344, -0.07556701, 0.28576458, 0.86288995, -2.4815776, 33.802303, -3.9318051, 0
467, 1731863091, 0.44892702, -0.13251013, 0.2983269, 0.8318464, -1.7412713, 27.990088, -6.316031, 0
468, 1731879758, 0.45789587, -0.18202999, 0.28229812, 0.8231441, 19.54379, 4.0223646, 11.859617, 0
469, 1731896425, 0.43932182, -0.1995361, 0.25412816, 0.8382497, -37.356094, -23.711586, 21.483368, 0
471, 1731929759, 0.44196254, -0.16589285, 0.23085396, 0.85083324, 1.0000231, -5.500714, 1.564537, 0
472, 1731946426, 0.45334807, -0.16661604, 0.22196355, 0.8470589, -3.0412393, -2.8093517, 2.228013, 0
473, 1731963093, 0.45820764, -0.17491403, 0.2232649, 0.8424164, -4.423617, -1.761035, 0.8340597, 0
475, 1731996427, 0.45932174, -0.20136409, 0.23979175, 0.831287, 0.7046017, -1.3300669, 0.7354584, 0
478, 1732046428, 0.4554628, -0.28776035, 0.28265607, 0.7936719, -0.3712787, -5.6406355, 0.7765484, 0
479, 1732063095, 0.45112237, -0.34208077, 0.29293132, 0.7705339, -1.1343632, -5.156956, 1.3333492, 0
480, 1732079762, 0.44353127, -0.40467206, 0.29946122, 0.74155605, -2.0518842, -6.2556734, 7.5637474, 0
482, 1732113096, 0.42158553, -0.52054626, 0.3229471, 0.66862863, 1.0815537, -12.679445, 11.124842, 0
484, 1732146430, 0.40738857, -0.6107731, 0.35453486, 0.57910067, 2.2885492, -14.94604, 18.829027, 0
486, 1732179764, 0.40441704, -0.65450585, 0.34797487, 0.5357654, 16.55402, -28.442663, 10.264303, 0
487, 1732196431, 0.39583394, -0.65889454, 0.33415624, 0.5455043, 6.9271135, -8.389309, 1.1403685, 0
488, 1732213098, 0.393506, -0.6619295, 0.3262307, 0.5483044, 0.5699519, -0.08692754, -4.0292706, 0
490, 1732246432, 0.3921118, -0.68471235, 0.31470504, 0.5276739, 2.0490513, -6.542623, -5.5257344, 0
491, 1732263099, 0.39029485, -0.7000681, 0.30972397, 0.5115735, 0.87011695, -9.936159, -5.673626, 0
492, 1732279766, 0.39018863, -0.71285003, 0.30646217, 0.4957221, 0.6029271, -12.810051, -6.3598766, 0
494, 1732313100, 0.39598843, -0.7296742, 0.29630965, 0.47226176, -0.14459142, -13.006644, -9.148261, 0
495, 1732329767, 0.40114993, -0.7353209, 0.2872522, 0.46468276, -0.11710559, -12.127334, -10.608274, 0
496, 1732346434, 0.40753207, -0.73889196, 0.2766902, 0.45984846, 0.6832622, -11.733341, -11.490921, 0
498, 1732379768, 0.4213322, -0.73599005, 0.256549, 0.46372634, 4.082284, -14.447051, -11.738601, 0
499, 1732396435, 0.42528743, -0.7275127, 0.24664575, 0.47862652, 5.911822, -15.259569, -11.286064, 0
500, 1732413102, 0.42541984, -0.7147881, 0.2353454, 0.5027628, 5.703648, -13.143263, -10.451403, 0
502, 1732446436, 0.4270537, -0.67525357, 0.21424946, 0.56197584, 2.5010936, -8.074964, -7.158733, 0
503, 1732463103, 0.43341833, -0.64822745, 0.20589207, 0.5912868, 1.9221787, -5.6441402, -6.76021, 0
507, 1732529771, 0.48279285, -0.515512, 0.18014252, 0.6846672, 7.317699, -5.206146, -0.025960922, 0
509, 1732563105, 0.5011367, -0.4433599, 0.18025763, 0.72101545, 4.8693113, 0.88171166, 1.547925, 0
510, 1732579772, 0.5060458, -0.40894467, 0.1853897, 0.7364607, 6.898601, -0.7464611, 4.1172237, 0
511, 1732596439, 0.5042227, -0.37583703, 0.19153848, 0.7535787, 5.156802, -1.132819, 5.1251955, 0
513, 1732629773, 0.4840932, -0.3089742, 0.21187079, 0.79079795, -0.5565209, 1.9503788, 8.171476, 0
514, 1732646440, 0.4683439, -0.27851987, 0.21991146, 0.80918586, -2.549062, 4.357892, 7.7062874, 0
515, 1732663107, 0.4522193, -0.25004354, 0.22559789, 0.82591975, -5.888039, 5.9066043, 7.526922, 0
517, 1732696441, 0.42748952, -0.19567114, 0.23131207, 0.85177577, -6.62781, 4.9715486, 6.8715973, 0
518, 1732713108, 0.42055297, -0.17060876, 0.22862184, 0.8612908, -5.7773323, 4.694247, 5.929985, 0
519, 1732729775, 0.4168938, -0.14663693, 0.22417773, 0.8686216, -4.575962, 4.543159, 3.9203892, 0
522, 1732779776, 0.40811306, -0.08378383, 0.21480636, 0.883371, 1.2796378, 6.8377647, 3.0485525, 0
523, 1732796443, 0.39873266, -0.065631896, 0.21529703, 0.88905215, 0.3784462, 7.131464, -0.43361568, 0
525, 1732829777, 0.36901388, -0.04124065, 0.22088046, 0.9018879, -1.0669487, 14.28358, 2.0144634, 0
526, 1732846444, 0.3512169, -0.032753758, 0.22046563, 0.90941226, -2.7902482, 16.087955, -2.480348, 0
527, 1732863111, 0.33510947, -0.029980384, 0.22073567, 0.91550016, -5.063682, 17.199621, -7.936355, 0
529, 1732896445, 0.31271455, -0.03825322, 0.23355919, 0.919923, -7.415095, 21.46525, -7.524816, 0
530, 1732913112, 0.3090434, -0.04639931, 0.24368261, 0.9181612, -7.047094, 23.035135, -5.631211, 0
532, 1732946446, 0.3248727, -0.072436735, 0.26087245, 0.9062107, -3.2426672, 25.820976, -2.2634306, 0
533, 1732963113, 0.34173504, -0.09189208, 0.2677209, 0.8961922, -0.0021895398, 25.785358, -2.9133325, 0
534, 1732979780, 0.36075932, -0.12017708, 0.27715722, 0.8824148, 1.9455162, 26.335157, -3.1332455, 0
537, 1733029781, 0.39194173, -0.25370884, 0.28690115, 0.8365185, -6.70071, -0.07979278, 12.103453, 0
538, 1733046448, 0.3999316, -0.26784694, 0.26917657, 0.8342175, -33.14819, -21.41427, 7.9686985, 0
540, 1733079782, 0.39592704, -0.26824594, 0.2554385, 0.840297, 2.4779134, -4.0103745, 0.3740406, 0
541, 1733096449, 0.3988775, -0.27147883, 0.2507674, 0.83926976, 1.4471412, -1.7450031, 0.8076353, 0
542, 1733113116, 0.40359908, -0.27890292, 0.24851608, 0.8352379, -0.8316003, -1.7231114, 0.7673254, 0
544, 1733146450, 0.40557775, -0.31328785, 0.25660935, 0.81949425, 0.11148984, -4.122084, 1.4672928, 0
545, 1733163117, 0.40368813, -0.34508342, 0.263781, 0.8052546, 0.8035619, -4.7365046, 1.3979683, 0
546, 1733179784, 0.39920238, -0.39440447, 0.2657483, 0.7839147, 1.2944053, -8.224376, 3.220377, 0
548, 1733213118, 0.3870045, -0.52545214, 0.26933235, 0.70827216, -1.8783644, -12.051221, 12.166929, 0
549, 1733229785, 0.38735002, -0.5830401, 0.2993683, 0.6484326, 5.8115525, -23.14918, 18.537355, 0
552, 1733279786, 0.3729624, -0.6924212, 0.3842366, 0.48360732, 26.584393, -45.43295, 21.43868, 0
553, 1733296453, 0.3389722, -0.70198417, 0.3835879, 0.49521524, 2.2768312, -12.695568, 2.614809, 0
555, 1733329787, 0.34975162, -0.7148304, 0.3975103, 0.4568792, -3.464485, -7.79332, -2.788662, 0
556, 1733346454, 0.3640112, -0.72206175, 0.4037867, 0.42794973, 4.725547, -19.66359, -5.0717897, 0
557, 1733363121, 0.36698157, -0.7325213, 0.40208608, 0.40881014, 3.0972745, -21.161299, -9.224069, 0
559, 1733396455, 0.3795904, -0.7404443, 0.39736217, 0.38706395, -4.189897, -17.878029, -12.180311, 0
560, 1733413122, 0.39795405, -0.7355081, 0.3937859, 0.38164747, -3.512587, -16.23774, -12.896994, 0
561, 1733429789, 0.4190726, -0.72841924, 0.3849786, 0.381624, -1.8270477, -16.70135, -13.314484, 0
563, 1733463123, 0.4541062, -0.7104367, 0.3486114, 0.40938866, 2.0849793, -16.130373, -13.47738, 0
564, 1733479790, 0.462774, -0.70157665, 0.322477, 0.43554658, 2.385586, -11.465531, -13.605343, 0
565, 1733496457, 0.46894515, -0.6919656, 0.29572982, 0.46247125, 1.0981061, -7.11283, -13.06901, 0
567, 1733529791, 0.48895144, -0.6550475, 0.25445324, 0.5168702, 1.426025, -8.899836, -9.375965, 0
568, 1733546458, 0.5027043, -0.6264149, 0.23939095, 0.5455699, 2.0811992, -6.8145137, -8.385215, 0
569, 1733563125, 0.51662546, -0.5952571, 0.22513792, 0.5728368, 3.280035, -6.163115, -6.615984, 0
571, 1733596459, 0.5416003, -0.5233135, 0.20658521, 0.62465715, 4.403171, -3.6688926, -3.2089581, 0
572, 1733613126, 0.54947686, -0.4858529, 0.2059442, 0.64782023, 5.9277987, -4.004097, 1.2697668, 0
573, 1733629793, 0.55153304, -0.44879574, 0.20874503, 0.6714767, 7.198317, -2.4867177, 3.7281914, 0
575, 1733663127, 0.5311614, -0.382006, 0.2220453, 0.72297776, 3.3264155, -2.103655, 9.37365, 0
576, 1733679794, 0.5146217, -0.34268314, 0.23423272, 0.7502863, -0.6895878, 1.2057809, 12.270374, 0
579, 1733729795, 0.4692535, -0.2381765, 0.23385003, 0.8175874, -0.4283247, 5.7601023, 6.6684494, 0
580, 1733746462, 0.4551307, -0.20728648, 0.22955406, 0.8350182, -0.6173995, 4.8449693, 5.0397615, 0
581, 1733763129, 0.43923593, -0.17692061, 0.22938976, 0.85041946, -2.4653108, 4.285775, 5.076647, 0
583, 1733796463, 0.40907788, -0.124958515, 0.22864641, 0.8745418, -5.963226, 5.6235237, 4.7577543, 0
584, 1733813130, 0.39866984, -0.10293665, 0.22553891, 0.8829837, -5.054286, 6.6013765, 5.265814, 0
586, 1733846464, 0.38605085, -0.06396466, 0.21449722, 0.8949448, -2.9487367, 7.389225, 4.325856, 0
587, 1733863131, 0.38055712, -0.046091136, 0.2102303, 0.8993981, -2.573743, 7.979348, 2.0122623, 0
588, 1733879798, 0.3744887, -0.030487966, 0.20877622, 0.90294135, -1.9911649, 8.525462, -0.35257053, 0
590, 1733913132, 0.36289123, -0.0078826025, 0.20445925, 0.9091238, -2.760455, 10.104835, -1.2902956, 0
591, 1733929799, 0.3579454, -0.0011956617, 0.20318522, 0.91140085, -2.8845935, 10.875588, -2.6035466, 0
594, 1733979800, 0.3414874, 0.011700653, 0.20239049, 0.9177959, -3.2429812, 12.04346, -4.18567, 0
595, 1733996467, 0.3379565, 0.010327868, 0.20154649, 0.9193038, -3.7624853, 12.488652, -4.5239334, 0
596, 1734013134, 0.3360676, 0.007921882, 0.20222872, 0.91987014, -4.2208467, 12.540637, -4.18399, 0
598, 1734046468, 0.33700424, 7.0600957E-4, 0.20852186, 0.91815484, -4.866303, 13.2412195, -3.5989547, 0
599, 1734063135, 0.3414685, -0.0045608208, 0.21246354, 0.915587, -4.7342925, 13.523561, -5.0526476, 0
600, 1734079802, 0.34966293, -0.012797199, 0.21750586, 0.9112218, -4.353167, 15.748598, -4.0983324, 0
602, 1734113136, 0.37224802, -0.03528607, 0.22689205, 0.89931536, -0.125467, 19.226562, -3.8448954, 0
603, 1734129803, 0.38403046, -0.053742327, 0.23233384, 0.8920287, 0.6952568, 20.645658, -2.3985648, 0
604, 1734146470, 0.3937398, -0.07705305, 0.23887731, 0.8843254, 2.2065623, 20.582968, -0.65040684, 0
606, 1734179804, 0.40693164, -0.14706227, 0.26091728, 0.8629967, 0.24769086, 20.487783, -0.42170048, 0
608, 1734213138, 0.4177182, -0.24467462, 0.26252347, 0.83473885, -0.51581436, 7.716749, 20.177181, 0
610, 1734246472, 0.42537487, -0.2614359, 0.24924812, 0.8298463, -5.42419, -6.074643, 1.067275, 0
611, 1734263139, 0.42397574, -0.27286708, 0.25477132, 0.82519186, -1.9682869, -1.6448009, 1.3040352, 0
613, 1734296473, 0.42169377, -0.311315, 0.2756251, 0.8058225, -0.7437031, -1.9749862, 0.4654808, 0
614, 1734313140, 0.41990015, -0.33725023, 0.28863013, 0.7916442, -0.84630466, -1.3678787, 0.16860771, 0
615, 1734329807, 0.4148367, -0.37099248, 0.30089772, 0.7744659, -1.160274, -3.0556567, 0.35355568, 0
617, 1734363141, 0.39559907, -0.46450514, 0.31924385, 0.72517705, -0.10258999, -6.971398, 5.177416, 0
618, 1734379808, 0.37918377, -0.52960646, 0.33108094, 0.6827766, 0.44220474, -14.909723, 12.458557, 0
619, 1734396475, 0.36383334, -0.5941637, 0.3447201, 0.629146, 3.7489753, -25.65468, 20.030882, 0
621, 1734429809, 0.3647983, -0.6881062, 0.38839656, 0.49258697, 14.761903, -37.191555, 23.05122, 0
623, 1734463143, 0.3394638, -0.72620153, 0.38329858, 0.45884597, 5.321481, -2.7326126, 1.9929533, 0
625, 1734496477, 0.37453276, -0.74444133, 0.4018296, 0.37964094, 10.794931, -29.827229, -3.0299826, 0
626, 1734513144, 0.37699956, -0.7541419, 0.40649343, 0.35208833, 0.5153279, -28.098497, -9.290288, 0
627, 1734529811, 0.38125739, -0.761108, 0.41005182, 0.3275314, -5.871201, -23.73833, -11.188884, 0
629, 1734563145, 0.41123593, -0.7577112, 0.41200715, 0.2950772, -3.4882827, -25.864452, -16.989714, 0
630, 1734579812, 0.4246172, -0.75300115, 0.4040323, 0.29918095, -2.9981072, -21.322968, -17.797606, 0
631, 1734596479, 0.43543333, -0.7469593, 0.39147854, 0.31504917, -2.1355934, -17.49486, -16.859125, 0
633, 1734629813, 0.44581157, -0.7329152, 0.3567028, 0.37001663, 0.3418586, -8.355778, -15.804337, 0
634, 1734646480, 0.44817024, -0.7239628, 0.33812374, 0.40094316, 0.15970895, -7.357789, -14.343447, 0
636, 1734679814, 0.46135944, -0.6841005, 0.3111742, 0.47157836, -0.61326456, -13.168601, -9.374194, 0
637, 1734696481, 0.47408324, -0.65048265, 0.30033445, 0.51183826, -3.376822, -5.614013, -8.283992, 0
638, 1734713148, 0.49333826, -0.6128197, 0.2914315, 0.5442418, -5.831594, -3.043498, -4.157816, 0
640, 1734746482, 0.54198325, -0.5231214, 0.2745091, 0.5977496, -4.7849827, -6.316011, 2.985917, 0
641, 1734763149, 0.5635233, -0.47595465, 0.26175216, 0.6224598, -2.390039, -3.9775534, 7.426462, 0
642, 1734779816, 0.5788365, -0.42917216, 0.24874517, 0.6472615, 1.5590583, -3.0961068, 6.8798275, 0
644, 1734813150, 0.57933956, -0.34184664, 0.24182193, 0.69935, 0.33776832, 0.7569322, 10.555515, 0
645, 1734829817, 0.56810814, -0.30414128, 0.2392667, 0.72633636, 0.058002282, 2.9312458, 13.908976, 0
646, 1734846484, 0.5533607, -0.2692988, 0.23289235, 0.7530558, 1.2302742, 3.9709907, 13.519377, 0
648, 1734879818, 0.5170393, -0.20423721, 0.21613897, 0.8026851, 3.3157587, 5.557713, 8.790428, 0
650, 1734913152, 0.47309425, -0.1498543, 0.2009032, 0.844645, 1.8264145, 5.3921294, 4.3924685, 0
652, 1734946486, 0.436127, -0.10796312, 0.18792912, 0.8734311, -3.9947076, 7.824999, 3.5612364, 0
653, 1734963153, 0.42806235, -0.09023358, 0.17868108, 0.8813373, -4.4057937, 8.320312, 3.8514843, 0
654, 1734979820, 0.42536914, -0.07192619, 0.17040707, 0.8859519, -2.9293227, 8.094749, 1.567194, 0
656, 1735013154, 0.42146868, -0.044088103, 0.16139759, 0.8913097, 1.198924, 6.9821825, -1.0909157, 0
657, 1735029821, 0.41660658, -0.037765935, 0.15265128, 0.8954172, 0.5297752, 7.127969, 0.20180035, 0
658, 1735046488, 0.40942192, -0.030973973, 0.14580289, 0.90012085, -1.6679945, 9.24238, 0.94034576, 0
660, 1735079822, 0.39109692, -0.013206087, 0.13996565, 0.9095825, -0.05759697, 9.336108, -2.5112705, 0
661, 1735096489, 0.3818922, -0.0066973083, 0.13875704, 0.9137407, -0.5841824, 8.713719, -4.2565203, 0
663, 1735129823, 0.36894563, -0.0026611425, 0.14341679, 0.9183494, -0.8684059, 8.323057, -4.0692396, 0
665, 1735163157, 0.36199528, 0.0018087253, 0.14957117, 0.92013395, 0.4519113, 9.459619, 0.20775604, 0
667, 1735196491, 0.35975733, 0.0068703555, 0.15349442, 0.92034173, 0.44217578, 6.9925437, -2.7856822, 0
668, 1735213158, 0.3588291, 0.008058861, 0.15749815, 0.9200179, 1.006308, 6.4711256, -2.0297961, 0
669, 1735229825, 0.35737684, 0.007805977, 0.16067328, 0.9200363, 1.3335524, 6.408671, -1.1686478, 0
671, 1735263159, 0.3528542, 0.00728387, 0.1671681, 0.9206288, 0.054202396, 7.736638, -0.38985825, 0
672, 1735279826, 0.35008135, 0.007631492, 0.17219482, 0.9207581, -0.040251832, 8.161072, -2.0685334, 0
673, 1735296493, 0.34770653, 0.0066733286, 0.17877154, 0.920412, -0.6761886, 9.914824, -1.97194, 0
675, 1735329827, 0.34463996, 9.240955E-5, 0.19381005, 0.91854393, -1.4212155, 11.862425, -5.5644145, 0
676, 1735346494, 0.343803, -0.007459484, 0.20115569, 0.91724694, -2.617288, 15.923709, -3.3124132, 0
677, 1735363161, 0.3447209, -0.016781677, 0.20757906, 0.91534615, -3.5975583, 18.449717, -4.894805, 0
680, 1735413162, 0.38388038, -0.080931105, 0.22929002, 0.89082766, -4.950501, 28.897398, -2.5545788, 0
683, 1735463163, 0.4413311, -0.19674888, 0.24338543, 0.8410363, 6.189933, 18.029427, 59.217243, 0
684, 1735479830, 0.4459316, -0.18593067, 0.22375695, 0.8465042, -12.35914, 7.447557, -9.058142, 0
685, 1735496497, 0.44815233, -0.18975711, 0.22271064, 0.8447565, 2.0265732, -7.1837783, 0.12737751, 0
687, 1735529831, 0.45737797, -0.22509456, 0.23164763, 0.82857656, -2.5908387, -2.5502133, 1.4540577, 0
688, 1735546498, 0.45641413, -0.25758383, 0.24597026, 0.8154124, -1.028551, -4.0910172, 1.8365364, 0
689, 1735563165, 0.45189553, -0.29925728, 0.2639357, 0.7978941, 0.24434425, -5.6540203, 2.0125608, 0
691, 1735596499, 0.43726897, -0.43412942, 0.2813049, 0.73570156, 0.6953571, -10.977781, 8.888124, 0
692, 1735613166, 0.42953193, -0.5126699, 0.2910481, 0.68412334, 0.010955264, -12.931148, 12.686949, 0
694, 1735646500, 0.43778563, -0.6349732, 0.35979617, 0.5251297, 14.661285, -23.14069, 28.189514, 0
696, 1735679834, 0.36365163, -0.71113497, 0.3687715, 0.47551453, 18.853266, -38.139084, 8.513044, 0
698, 1735713168, 0.36889657, -0.7214091, 0.4042387, 0.42442545, 2.275685, -10.059357, -1.9055109, 0
699, 1735729835, 0.37722808, -0.73364115, 0.41733092, 0.38126928, 7.0122447, -32.3482, -6.3606405, 0
700, 1735746502, 0.37767455, -0.7447851, 0.4231307, 0.351681, -2.9225597, -30.814955, -11.310645, 0
702, 1735779836, 0.4123984, -0.74153495, 0.42788514, 0.3114958, -7.1473403, -24.306534, -16.330694, 0
703, 1735796503, 0.43652302, -0.7361276, 0.4176631, 0.3052591, -4.3401823, -19.699602, -17.73358, 0
704, 1735813170, 0.45682257, -0.7336475, 0.39805984, 0.30770883, -2.9803977, -15.182919, -17.021702, 0
706, 1735846504, 0.48743993, -0.7303293, 0.34511822, 0.3316272, 0.24816331, -11.784492, -16.304996, 0
707, 1735863171, 0.49576733, -0.7279862, 0.3160625, 0.35272813, 1.8197652, -9.514033, -17.223204, 0
708, 1735879838, 0.50036734, -0.7228942, 0.29043984, 0.37784004, 1.5984273, -7.9434733, -16.707214, 0
710, 1735913172, 0.5129121, -0.6871887, 0.2642473, 0.44150674, 0.5955641, -9.878455, -12.619215, 0
711, 1735929839, 0.5211525, -0.65675825, 0.25888923, 0.47969458, -1.7633727, -7.4575543, -8.964689, 0
712, 1735946506, 0.5321735, -0.62109125, 0.2548499, 0.5158976, -4.120965, -4.69126, -5.504627, 0
714, 1735979840, 0.5621203, -0.53851295, 0.24453372, 0.5781778, -4.8472137, -6.9287167, 0.938035, 0
715, 1735996507, 0.5778673, -0.49443936, 0.23540643, 0.60518146, -3.8232777, -6.022566, 5.6805334, 0
716, 1736013174, 0.59339213, -0.447595, 0.2255601, 0.6298642, 0.26772672, -4.3466797, 8.559542, 0
718, 1736046508, 0.6020472, -0.35767338, 0.21103218, 0.6820091, 7.8979115, -2.834473, 11.229776, 0
719, 1736063175, 0.588737, -0.31700242, 0.20981294, 0.71339923, 8.169495, 0.72510487, 11.614862, 0
721, 1736096509, 0.5440737, -0.24712741, 0.21342587, 0.7729315, 2.9146385, 7.49145, 11.722538, 0
723, 1736129843, 0.49833965, -0.194529, 0.20852295, 0.8187772, 1.3150514, 7.7351217, 8.998138, 0
725, 1736163177, 0.45946038, -0.15021193, 0.19755967, 0.8528565, -0.92619056, 7.666763, 4.647646, 0
726, 1736179844, 0.4431596, -0.13061544, 0.19197713, 0.8658843, -1.253231, 7.5211062, 2.2757635, 0
727, 1736196511, 0.42926127, -0.11394868, 0.18563418, 0.876557, -1.8958199, 7.0792556, 0.36196995, 0
729, 1736229845, 0.40720436, -0.090113014, 0.17251413, 0.89239275, -1.8085343, 4.9531765, 0.15812016, 0
730, 1736246512, 0.39847553, -0.08221055, 0.16550009, 0.89840424, -2.9922316, 4.8134704, -0.1917944, 0
731, 1736263179, 0.39102298, -0.0739176, 0.16150668, 0.90311384, -2.9056857, 5.416479, 2.219902, 0
733, 1736296513, 0.37964478, -0.05151197, 0.15292378, 0.9109842, -2.4394999, 5.873951, 0.39087582, 0
734, 1736313180, 0.37588802, -0.039968245, 0.14990206, 0.91362023, -1.5433518, 6.5401764, -0.4873209, 0
735, 1736329847, 0.37279367, -0.029651439, 0.14821832, 0.9155538, -0.6137477, 7.17295, -1.0070486, 0
738, 1736379848, 0.36510485, -0.00767345, 0.14993684, 0.9188146, 1.1220098, 9.366194, -1.3014221, 0
739, 1736396515, 0.36281407, -7.5215474E-4, 0.1520252, 0.9194105, 1.8051609, 11.400078, 1.4857979, 0
741, 1736429849, 0.36029735, 0.014257524, 0.1561408, 0.9196001, -0.30939072, 9.961514, -5.9165244, 0
742, 1736446516, 0.36039287, 0.019520674, 0.16304484, 0.918267, -1.2416751, 10.669345, -5.687699, 0
744, 1736479850, 0.3610807, 0.02398375, 0.1753347, 0.91562283, -1.1297507, 13.496152, -5.512586, 0
745, 1736496517, 0.36107364, 0.022091866, 0.17956154, 0.9148537, -1.7036494, 15.3503, -5.710116, 0
746, 1736513184, 0.35962754, 0.018986471, 0.1850686, 0.91439533, -2.628777, 16.098095, -7.549041, 0
748, 1736546518, 0.35505253, 0.0054452866, 0.20544338, 0.9120103, -4.1520944, 19.571657, -5.7801814, 0
749, 1736563185, 0.35536742, -0.0052492917, 0.21586114, 0.909479, -4.4353967, 20.96555, -3.7819386, 0
750, 1736579852, 0.35939178, -0.019436374, 0.22536097, 0.90539163, -3.970023, 21.183659, -4.1555204, 0
753, 1736629853, 0.38062975, -0.104430765, 0.25326824, 0.88325095, -2.882781, 19.972, -2.2325125, 0
754, 1736646520, 0.39743048, -0.15999696, 0.24828379, 0.8688309, -6.819039, 41.643906, 18.431278, 0
757, 1736696521, 0.4377697, -0.23137644, 0.2260156, 0.83892864, -3.1520762, 7.960222, 3.0876293, 0
758, 1736713188, 0.4370731, -0.26128036, 0.23433827, 0.82815886, -1.5321561, -1.461261, -0.40824795, 0
760, 1736746522, 0.4286294, -0.3242818, 0.2579407, 0.80289876, 1.0652599, -2.5175533, 1.6054087, 0
761, 1736763189, 0.4230383, -0.36654514, 0.26672086, 0.7846051, 0.79426885, -5.503517, 2.894308, 0
762, 1736779856, 0.41376626, -0.42183942, 0.27058348, 0.76006263, 0.5575068, -7.481859, 2.4556017, 0
764, 1736813190, 0.38960177, -0.5591124, 0.28089008, 0.6758449, -0.11293618, -14.471248, 13.174162, 0
765, 1736829857, 0.3867272, -0.61845386, 0.30981833, 0.6099436, 3.2900007, -23.719137, 15.068579, 0
766, 1736846524, 0.3907522, -0.6730759, 0.35614115, 0.51721066, 17.69753, -33.2831, 32.692253, 0
769, 1736896525, 0.33151394, -0.74287295, 0.39389837, 0.4279537, -4.8916774, -1.6748637, 4.9626255, 0
770, 1736913192, 0.3593105, -0.74732286, 0.41221642, 0.3775504, 4.0243473, -9.412176, 1.0789299, 0
772, 1736946526, 0.3744579, -0.76978433, 0.4354455, 0.27867946, 7.9841056, -36.86646, -14.274004, 0
773, 1736963193, 0.36413425, -0.7788955, 0.4465989, 0.24766725, -3.1434746, -29.87162, -17.677355, 0
775, 1736996527, 0.37552682, -0.77003527, 0.47109967, 0.21012455, -8.284329, -22.66946, -23.41243, 0
776, 1737013194, 0.38683286, -0.76189196, 0.47296286, 0.21505554, -8.011497, -20.003147, -22.758705, 0
777, 1737029861, 0.39691076, -0.7549064, 0.4660113, 0.23552787, -7.681879, -15.8288765, -19.78646, 0
779, 1737063195, 0.42365205, -0.7350066, 0.43543398, 0.3012365, -5.9346585, -7.9451437, -14.216629, 0
780, 1737079862, 0.43782732, -0.7226817, 0.41440624, 0.338183, -3.5911112, -7.6692724, -13.956514, 0
781, 1737096529, 0.44800633, -0.70883346, 0.38966113, 0.38088247, -2.630704, -12.212471, -12.594389, 0
783, 1737129863, 0.47522032, -0.65830123, 0.34071547, 0.4741097, -5.5655527, -1.705415, -7.688755, 0
784, 1737146530, 0.49463972, -0.626037, 0.3199234, 0.5109989, -3.4083524, -4.774806, -4.2371173, 0
785, 1737163197, 0.5107355, -0.5912807, 0.3003272, 0.5471762, -0.86348575, -8.90884, -3.1116567, 0
787, 1737196531, 0.5310722, -0.5116433, 0.2710808, 0.6186763, 1.5624179, -7.148732, 4.693449, 0
788, 1737213198, 0.5361966, -0.46895725, 0.26062647, 0.6516962, 2.360029, -6.2737484, 7.9739704, 0
789, 1737229865, 0.5373531, -0.42525023, 0.2518712, 0.6834009, 3.1207738, -4.7195134, 10.384888, 0
791, 1737263199, 0.53153396, -0.3388573, 0.23672539, 0.73937166, 0.6275446, 1.4088696, 13.699265, 0
792, 1737279866, 0.5295846, -0.29705805, 0.2274366, 0.76133513, 2.0794077, 4.1594205, 14.505669, 0
793, 1737296533, 0.5268934, -0.25516874, 0.21667187, 0.7812731, 3.5638614, 5.8765106, 14.18457, 0
796, 1737346534, 0.50378376, -0.13972104, 0.19303274, 0.8303494, 4.5270905, 11.568857, 5.209326, 0
797, 1737363201, 0.48869067, -0.11117828, 0.18706504, 0.8449198, 4.1164203, 11.316018, 2.3460712, 0
799, 1737396535, 0.44542253, -0.07195304, 0.17775294, 0.87457836, 1.0412449, 10.2188225, 3.14388, 0
800, 1737413202, 0.41908452, -0.05587078, 0.17364483, 0.8894695, -1.1067874, 9.937859, 2.3745556, 0
802, 1737446536, 0.37046307, -0.03318935, 0.16099508, 0.91421986, -4.8026276, 9.515005, -0.09652424, 0
803, 1737463203, 0.35355234, -0.026787367, 0.15207097, 0.92261565, -4.56048, 8.213588, -2.85423, 0
804, 1737479870, 0.34291092, -0.025257412, 0.14340055, 0.92804754, -4.2853303, 7.7131834, -3.208764, 0
806, 1737513204, 0.33212057, -0.012637578, 0.13367775, 0.93366385, -3.2353191, 9.755593, 1.833745, 0
807, 1737529871, 0.33123642, -0.0034650564, 0.13115251, 0.934415, -3.1423173, 8.25013, -2.9202785, 0
808, 1737546538, 0.33323795, 0.0029757805, 0.13153705, 0.9336506, -2.3250377, 8.14291, -3.854074, 0
811, 1737596539, 0.3463147, 0.006990578, 0.13492106, 0.9283724, 1.1543927, 7.937698, 1.1439667, 0
812, 1737613206, 0.3482684, 0.009432074, 0.13371359, 0.9277946, 1.7925104, 5.5135093, 0.1645813, 0
814, 1737646540, 0.34835374, 0.01152017, 0.13172637, 0.92802316, 1.5171459, 4.3350935, -2.0343843, 0
815, 1737663207, 0.34731373, 0.011044037, 0.13253449, 0.9283036, 1.0885663, 4.565404, -2.6150718, 0
816, 1737679874, 0.3459803, 0.009564213, 0.13574488, 0.928354, 0.7867115, 5.541225, -2.521018, 0
818, 1737713208, 0.34279776, 0.008647222, 0.14891842, 0.9275236, 0.21106136, 7.7581143, -1.893961, 0
819, 1737729875, 0.34194604, 0.008560155, 0.15565094, 0.92673314, 0.7389023, 8.0730095, -2.1777062, 0
820, 1737746542, 0.34238678, 0.006691672, 0.1602536, 0.9258008, -0.07039412, 8.459038, -2.9939656, 0
822, 1737779876, 0.3423629, -0.0010057054, 0.16769734, 0.92451406, 1.2442758, 10.664298, -4.8806105, 0
823, 1737796543, 0.3398086, -0.009163115, 0.17266452, 0.92449725, 0.721539, 12.397987, -4.89806, 0
826, 1737846544, 0.3281117, -0.04183598, 0.19790575, 0.9227609, -3.006295, 16.998953, -5.484928, 0
827, 1737863211, 0.3299496, -0.05982437, 0.20801567, 0.9188829, -1.6053843, 19.317503, -1.5291357, 0
829, 1737896545, 0.34263232, -0.11048051, 0.23259011, 0.9035269, -2.8698902, 22.017334, -7.19876, 0
830, 1737913212, 0.35538164, -0.14565271, 0.25025812, 0.8887755, -5.371289, 23.133167, -7.902137, 0
831, 1737929879, 0.37326577, -0.18999337, 0.26540866, 0.8684442, -1.9400697, 20.143133, -6.86868, 0
833, 1737963213, 0.41552466, -0.23518063, 0.23365206, 0.8470525, -2.41354, -21.983864, 3.3414068, 0
834, 1737979880, 0.41841298, -0.26645514, 0.24118376, 0.8341608, -10.551395, 2.5774553, 7.358021, 0
835, 1737996547, 0.41285533, -0.30467248, 0.26159552, 0.8175297, 0.643687, -8.957658, -0.54921055, 0
837, 1738029881, 0.40099567, -0.41443568, 0.29655534, 0.7612899, 1.8959622, -5.6177425, 4.7946835, 0
838, 1738046548, 0.3934836, -0.48022637, 0.3083879, 0.7207717, -0.07086255, -8.271766, 6.8207874, 0
841, 1738096549, 0.3418414, -0.6761972, 0.37035853, 0.5373994, 5.7440524, -34.483486, 20.310772, 0
842, 1738113216, 0.31731677, -0.72836417, 0.375522, 0.4773268, 39.687927, -45.482346, 27.323349, 0
843, 1738129883, 0.27235144, -0.7500992, 0.36671978, 0.4782827, 25.58368, -68.74133, 14.515387, 0
845, 1738163217, 0.32294375, -0.7449869, 0.3892069, 0.4350654, 2.498761, -12.385285, 3.0336494, 0
846, 1738179884, 0.3640813, -0.7427821, 0.39366078, 0.40101463, 13.146381, -32.952244, -2.5121307, 0
847, 1738196551, 0.38832203, -0.7450743, 0.38767466, 0.37926328, 3.449657, -24.299438, -9.250347, 0
849, 1738229885, 0.44704232, -0.7406031, 0.37529528, 0.33297986, -2.429961, -23.097939, -13.190865, 0
850, 1738246552, 0.47447467, -0.735552, 0.3618216, 0.32091108, 3.0806804, -22.62097, -18.732864, 0
852, 1738279886, 0.4919294, -0.7325134, 0.3308629, 0.33469513, 1.6703222, -17.695284, -19.896126, 0
853, 1738296553, 0.49440628, -0.72483766, 0.32072464, 0.35688955, -0.80306417, -13.883621, -17.31172, 0
854, 1738313220, 0.4995116, -0.7096503, 0.31187543, 0.38688505, -2.6619902, -15.876231, -13.651816, 0
856, 1738346554, 0.5238723, -0.6550286, 0.28652897, 0.46309644, -7.1137457, -2.8311644, -8.482951, 0
857, 1738363221, 0.5477341, -0.6189942, 0.2716197, 0.49307007, -7.3063025, -2.079735, -4.7888536, 0
858, 1738379888, 0.57492733, -0.58001757, 0.25291413, 0.51878154, -3.7931817, -3.8052576, -4.0658674, 0
860, 1738413222, 0.6206628, -0.5002198, 0.21429515, 0.564533, 0.63383514, -6.6654015, -1.2000933, 0
861, 1738429889, 0.6349658, -0.4590033, 0.20193498, 0.58772314, 4.9598866, -7.4861507, -1.9191642, 0
862, 1738446556, 0.63699454, -0.42000034, 0.19762035, 0.6155045, 5.911392, -9.107287, 0.48023129, 0
864, 1738479890, 0.61052406, -0.34453803, 0.21212786, 0.6808946, 3.7543383, -2.5954895, 10.959494, 0
865, 1738496557, 0.58991563, -0.30926895, 0.21814892, 0.7133198, 1.9487636, 0.30014995, 14.395128, 0
868, 1738546558, 0.537058, -0.20197427, 0.20872718, 0.7920038, 1.2127033, 8.069935, 8.945631, 0
869, 1738563225, 0.5236919, -0.1696288, 0.20016718, 0.8105355, 3.6931853, 8.107137, 5.980694, 0
870, 1738579892, 0.5088561, -0.14013283, 0.19281478, 0.8272318, 4.1546535, 7.487536, 4.5205336, 0
872, 1738613226, 0.46571672, -0.08927768, 0.18552957, 0.8606847, 2.3602667, 6.809103, 4.5905523, 0
873, 1738629893, 0.43878463, -0.070975, 0.18024012, 0.8774997, 1.4447819, 7.3746796, 4.257618, 0
874, 1738646560, 0.4128931, -0.059049826, 0.1706507, 0.8927331, -0.5140076, 7.8525724, 1.7890768, 0
876, 1738679894, 0.37834844, -0.047064565, 0.15751618, 0.91098183, -4.97665, 9.355997, 0.9689703, 0
877, 1738696561, 0.36928982, -0.036589008, 0.15523891, 0.9155593, -4.818143, 10.390219, 3.9761276, 0
878, 1738713228, 0.36575627, -0.025325589, 0.15225267, 0.9178572, -3.9229138, 8.730293, -1.2809544, 0
880, 1738746562, 0.37444505, -0.011264961, 0.15013365, 0.9149787, -1.2539303, 8.951007, -1.3253298, 0
883, 1738796563, 0.3881131, 5.824715E-4, 0.1525546, 0.9089317, 2.0804327, 7.3510513, 0.29279327, 0
884, 1738813230, 0.38657346, 0.002926778, 0.15123948, 0.9098027, 1.5226583, 6.5714335, 0.3130331, 0
885, 1738829897, 0.38156858, 0.0045152903, 0.14984974, 0.9121359, 1.0155936, 4.8315353, -1.9846635, 0
887, 1738863231, 0.36541533, 0.00547377, 0.15082319, 0.9185618, -1.3101825, 4.578487, -0.6692314, 0
888, 1738879898, 0.35720402, 0.006185189, 0.15037668, 0.9218545, -2.4401562, 4.657127, -0.051894188, 0
889, 1738896565, 0.35059112, 0.008748323, 0.14955135, 0.92450285, -3.144161, 5.9183, 1.0061684, 0
891, 1738929899, 0.3434185, 0.021506827, 0.15011343, 0.92689216, -2.7396436, 6.160256, -4.007551, 0
892, 1738946566, 0.34281003, 0.026743934, 0.15283832, 0.92653567, -2.6086752, 7.605867, -4.216501, 0
893, 1738963233, 0.34276924, 0.03158264, 0.15748271, 0.9256203, -2.3379776, 9.400043, -3.650373, 0
895, 1738996567, 0.34174562, 0.03840081, 0.16740195, 0.92399883, -1.6834303, 12.515836, -6.252908, 0
897, 1739029901, 0.33662176, 0.032047864, 0.18208744, 0.92334425, -2.2837787, 16.046394, -6.799749, 0
899, 1739063235, 0.33120003, 0.013029516, 0.20845073, 0.9201885, -5.059239, 20.425089, -3.6374826, 0
900, 1739079902, 0.33284587, -0.0017881095, 0.21913777, 0.91719735, -5.732345, 20.656113, -2.2362556, 0
901, 1739096569, 0.33971843, -0.02226612, 0.22589162, 0.9127597, -6.6419506, 21.174341, -3.2894573, 0
903, 1739129903, 0.36329904, -0.08761783, 0.24068639, 0.8958063, -4.968284, 20.623434, -6.8544188, 0
904, 1739146570, 0.374871, -0.13175803, 0.25233954, 0.8823254, -6.982747, 20.123466, -14.135244, 0
905, 1739163237, 0.39056766, -0.18738306, 0.24798486, 0.8665506, 18.077787, 48.352863, 72.489746, 0
907, 1739196571, 0.41494173, -0.22260326, 0.22654065, 0.85265017, 5.618058, -7.714589, -0.50581264, 0
908, 1739213238, 0.4216262, -0.26267886, 0.23325618, 0.83599305, -5.4737597, -2.9549325, 0.3850832, 0
910, 1739246572, 0.41821682, -0.35918996, 0.2555343, 0.79425514, 0.13156855, -3.2150412, 1.7736254, 0
912, 1739279906, 0.40897018, -0.48314822, 0.26654476, 0.72686094, -0.92968893, -7.7832737, 7.5451317, 0
914, 1739313240, 0.39555404, -0.60218436, 0.30777365, 0.62148875, 2.2234292, -28.641998, 13.737858, 0
915, 1739329907, 0.3907601, -0.6604725, 0.34339955, 0.54149896, 8.153414, -27.395, 20.223078, 0
916, 1739346574, 0.38361847, -0.7033199, 0.37243122, 0.46854538, 35.232273, -34.767513, 31.925972, 0
918, 1739379908, 0.3181931, -0.7385915, 0.37432915, 0.46170902, -1.0172698, 0.603156, 7.1179485, 0
919, 1739396575, 0.35180944, -0.73304355, 0.40044916, 0.42258668, -1.9305229, 8.725238, 4.451665, 0
920, 1739413242, 0.38567382, -0.7309762, 0.42584503, 0.36830312, 18.036476, -27.128147, 2.639906, 0
922, 1739446576, 0.37865028, -0.74824715, 0.4503723, 0.30655643, -2.3367617, -27.325832, -10.207849, 0
923, 1739463243, 0.38088763, -0.7491461, 0.46531337, 0.27793908, -11.668051, -25.2184, -12.412167, 0
924, 1739479910, 0.3979243, -0.7435131, 0.47519672, 0.25118613, -11.81107, -22.217464, -15.99496, 0
926, 1739513244, 0.43406948, -0.7404144, 0.4582271, 0.23121394, -6.0708704, -17.710464, -19.772097, 0
927, 1739529911, 0.44318974, -0.7461528, 0.43561524, 0.23903994, -4.574337, -15.236487, -19.278732, 0
928, 1739546578, 0.44929773, -0.75087833, 0.41032737, 0.256917, -3.348585, -13.71695, -18.195457, 0
930, 1739579912, 0.45530483, -0.7540724, 0.3595729, 0.30796322, -1.6138173, -6.3708177, -16.309193, 0
931, 1739596579, 0.46042764, -0.7490495, 0.3368814, 0.33690324, -1.5186942, -6.5311246, -14.707699, 0
933, 1739629913, 0.47522742, -0.72297263, 0.30335355, 0.39938423, 0.3506051, -6.2427793, -14.243748, 0
934, 1739646580, 0.48278725, -0.7003193, 0.2939302, 0.43604589, 0.28115025, -12.304016, -11.392445, 0
935, 1739663247, 0.4882743, -0.6699071, 0.28821784, 0.4793798, -0.030441571, -10.313915, -9.405914, 0
937, 1739696581, 0.50233436, -0.59431463, 0.28223515, 0.56111974, -7.096144, -7.669384, 1.2210817, 0
939, 1739729915, 0.53772753, -0.5027353, 0.25749347, 0.6259915, -3.34836, -7.7697983, 10.224985, 0
941, 1739763249, 0.574251, -0.39756778, 0.22627676, 0.67899656, 10.600322, -6.9079595, 12.450712, 0
942, 1739779916, 0.5734579, -0.34204566, 0.22106227, 0.71087575, 11.422887, -4.2012763, 12.76906, 0
943, 1739796583, 0.5602059, -0.28841382, 0.22363478, 0.74366397, 5.3854604, 4.034904, 8.6695595, 0
945, 1739829917, 0.52335095, -0.20382977, 0.23218733, 0.79417133, 3.6607792, 7.077297, 18.68734, 0
946, 1739846584, 0.5033639, -0.16890602, 0.22614159, 0.8167112, 0.49602705, 11.34067, 14.647734, 0
947, 1739863251, 0.48472068, -0.13779785, 0.21818212, 0.8357727, 1.271946, 12.448852, 9.787205, 0
949, 1739896585, 0.44859624, -0.08170615, 0.20550299, 0.8659767, -0.2697892, 11.051175, 4.317461, 0
950, 1739913252, 0.42891628, -0.05890905, 0.20114997, 0.8787269, -1.7107443, 9.666977, 1.810668, 0
951, 1739929919, 0.40904683, -0.042432826, 0.1961676, 0.8902022, -3.5378397, 8.648904, -1.3398552, 0
954, 1739979920, 0.3706258, -0.025423557, 0.17607021, 0.9116201, -4.4930763, 11.167161, 4.390704, 0
955, 1739996587, 0.36430302, -0.01594412, 0.1684141, 0.9158207, -4.7402377, 10.852691, 2.5343685, 0
957, 1740029921, 0.3603427, 0.0032071546, 0.16109112, 0.918833, -2.8679338, 8.248696, -3.502008, 0
958, 1740046588, 0.3613891, 0.008846857, 0.15902913, 0.9187443, -0.9901585, 8.349952, -2.5280814, 0
960, 1740079922, 0.3649169, 0.01209769, 0.15295239, 0.9183445, 1.2914625, 8.935258, -1.2916727, 0
961, 1740096589, 0.36502433, 0.014318515, 0.15067458, 0.9186466, 1.8950839, 9.658439, 0.2748623, 0
962, 1740113256, 0.36311343, 0.01708753, 0.14897624, 0.9196329, 2.0854745, 7.77509, -2.2011313, 0
964, 1740146590, 0.35635352, 0.016438529, 0.14881244, 0.92231154, 1.0195519, 7.5284867, -2.0607514, 0
965, 1740163257, 0.35277784, 0.015064582, 0.14959058, 0.9235828, 0.49665943, 7.1903443, -2.156569, 0
966, 1740179924, 0.34923232, 0.013647612, 0.15146314, 0.9246466, -0.085178606, 6.598077, -2.9970713, 0
969, 1740229925, 0.33572727, 0.013320696, 0.1601921, 0.9281756, -0.7044524, 7.0778737, -4.7169394, 0
970, 1740246592, 0.33141047, 0.009032808, 0.15997289, 0.92981505, -0.3803005, 7.7230735, -5.8141336, 0
972, 1740279926, 0.3227614, -0.013401303, 0.1580653, 0.93312526, -0.28297585, 10.02289, -7.745532, 0
973, 1740296593, 0.3166601, -0.028192908, 0.16043581, 0.9344804, -1.083929, 13.419433, -4.2674475, 0
974, 1740313260, 0.30898297, -0.03981968, 0.16450727, 0.93591833, -2.1260657, 15.5634985, -2.731907, 0
976, 1740346594, 0.29803327, -0.067252964, 0.1766027, 0.93569577, -4.0645967, 19.93544, -5.8603344, 0
978, 1740379928, 0.30340785, -0.11349359, 0.2001926, 0.92468786, -3.5411973, 25.40591, -3.1038446, 0
980, 1740413262, 0.32797262, -0.18355262, 0.23108557, 0.89744276, 3.18853, 29.29549, 11.77685, 0
981, 1740429929, 0.35837042, -0.2117468, 0.20563705, 0.8857254, -14.810371, 62.76146, 22.754257, 0
982, 1740446596, 0.37495223, -0.23013811, 0.21069711, 0.8729924, -6.317719, -25.848427, 10.568619, 0
985, 1740496597, 0.36769402, -0.34746593, 0.256981, 0.82346284, -1.566183, -0.9320922, 1.6854506, 0
986, 1740513264, 0.3606603, -0.39176458, 0.27516383, 0.8004943, 1.6912298, -2.6312494, 2.7121172, 0
988, 1740546598, 0.34322548, -0.50325704, 0.30147395, 0.7335558, -1.6303469, -11.485626, 9.441181, 0
989, 1740563265, 0.32770473, -0.5713525, 0.32121068, 0.6804788, 1.3726745, -22.838657, 16.805351, 0
991, 1740596599, 0.3122856, -0.6943004, 0.37307897, 0.5303758, 11.084808, -38.118767, 36.625835, 0
992, 1740613266, 0.31216806, -0.7288866, 0.38922027, 0.46887594, 28.678259, -40.62168, 42.38944, 1024
993, 1740629933, 0.31882414, -0.7296587, 0.38993728, 0.46255812, 1.5918454, -3.2891438, 8.240906, 0
996, 1740679934, 0.35654578, -0.785046, 0.401486, 0.3089478, 16.352238, -34.854996, -7.0424137, 0
997, 1740696601, 0.34881547, -0.80003697, 0.40839988, 0.26746947, 3.9234803, -28.029837, -10.319462, 0
999, 1740729935, 0.36500356, -0.803512, 0.431545, 0.1870072, -6.3595943, -27.208172, -20.221745, 0
1000, 1740746602, 0.3826535, -0.7978603, 0.43627197, 0.16347416, -6.457266, -23.272001, -22.236385, 0
1001, 1740763269, 0.39851967, -0.7929006, 0.434362, 0.15453835, -5.913793, -19.198711, -22.56715, 0
1003, 1740796603, 0.42105615, -0.7844642, 0.41840214, 0.17980291, -6.2367797, -15.010589, -20.16504, 0
1004, 1740813270, 0.4287965, -0.7796531, 0.4055483, 0.20944498, -5.1940384, -10.29222, -17.267815, 0
1005, 1740829937, 0.43416247, -0.77572995, 0.3894611, 0.2410973, -4.4638844, -5.080059, -15.201469, 0
1007, 1740863271, 0.44447625, -0.7665546, 0.34807754, 0.3061676, -3.4247923, -7.2347345, -14.815717, 0
1008, 1740879938, 0.44865197, -0.7575252, 0.3260533, 0.34440994, -1.7825915, -7.569669, -14.730634, 0
1009, 1740896605, 0.45167336, -0.74395835, 0.30566144, 0.3861993, -0.6876224, -9.579555, -13.415238, 0
1011, 1740929939, 0.4586915, -0.6946071, 0.27435625, 0.48157406, -0.7999591, -6.497729, -9.310208, 0
1013, 1740963273, 0.46947783, -0.6225662, 0.25903928, 0.5700546, -0.9896054, -8.637394, -3.9048848, 0
1015, 1740996607, 0.48762837, -0.5349165, 0.243376, 0.6456878, 0.5914479, -12.964838, 7.3983974, 0
1016, 1741013274, 0.500914, -0.48348176, 0.23096186, 0.67974186, 1.3780383, -7.0616674, 9.374849, 0
1018, 1741046608, 0.52119404, -0.38528538, 0.21382383, 0.73092616, 8.065363, -1.8647978, 14.041374, 0
1019, 1741063275, 0.5216305, -0.33643144, 0.21267888, 0.75468206, 9.542947, -0.97475654, 19.946354, 0
1020, 1741079942, 0.5137456, -0.28668287, 0.21330397, 0.7800267, 7.4430065, 2.9547858, 18.902584, 0
1022, 1741113276, 0.48273563, -0.19312891, 0.21720313, 0.82616705, 1.2466474, 9.317177, 14.552612, 0
1023, 1741129943, 0.46447384, -0.15209548, 0.21543257, 0.8454476, 0.16797896, 9.65104, 12.776358, 0
1024, 1741146610, 0.4453432, -0.115385585, 0.21116625, 0.8624536, -0.77162665, 9.710088, 10.030918, 0
1026, 1741179944, 0.40900117, -0.05702785, 0.19790827, 0.889022, -3.999067, 10.13841, 4.5071955, 0
1028, 1741213278, 0.38656822, -0.02377111, 0.17561512, 0.9051083, -5.3255606, 9.522073, 4.175498, 0
1030, 1741246612, 0.37292105, 0.010765333, 0.16535108, 0.91298115, -6.2766423, 10.310999, -0.35870266, 0
1031, 1741263279, 0.36899984, 0.025039528, 0.16413808, 0.9145123, -4.376646, 10.198187, -1.8760657, 0
1032, 1741279946, 0.36719078, 0.033299353, 0.15953574, 0.91579044, -3.5709858, 10.25469, -2.6517272, 0
1034, 1741313280, 0.36611995, 0.03873061, 0.14709458, 0.9180856, -2.929692, 11.071562, -3.1353984, 0
1035, 1741329947, 0.36473238, 0.03938029, 0.1428076, 0.9192862, -1.8413101, 11.449084, -3.3417425, 0
1036, 1741346614, 0.36158627, 0.040055063, 0.13948676, 0.92100817, -1.5516878, 11.806877, -2.977785, 0
1038, 1741379948, 0.3517038, 0.037731327, 0.13502474, 0.9255868, -1.5817089, 9.0211, -6.5668426, 0
1039, 1741396615, 0.34753472, 0.031442344, 0.13405661, 0.9275352, -1.6455038, 9.278137, -5.6677146, 0
1041, 1741429949, 0.34191066, 0.015576415, 0.13454594, 0.9299535, -0.9053344, 10.086482, -2.9144235, 0
1043, 1741463283, 0.34083802, 0.0017697401, 0.1367439, 0.9301554, -0.3811263, 8.626401, -3.7596397, 0
1045, 1741496617, 0.34734794, -0.01464428, 0.14232126, 0.92679083, 0.17080185, 9.095233, -3.8240328, 0
1046, 1741513284, 0.3510121, -0.021758769, 0.14930426, 0.9241684, 0.33550417, 9.564533, -3.0305133, 0
1047, 1741529951, 0.35364458, -0.027371645, 0.15802382, 0.9215621, 1.8765783, 10.945389, -0.8066511, 0
1049, 1741563285, 0.35614613, -0.03936726, 0.16919933, 0.9181741, 0.9795918, 13.382489, -3.8361616, 0
1050, 1741579952, 0.3572294, -0.04748914, 0.1767798, 0.9159381, 0.54012144, 16.03058, -3.130248, 0
1051, 1741596619, 0.35934636, -0.057733234, 0.18292615, 0.913311, 1.4497612, 17.669249, -2.3725104, 0
1053, 1741629953, 0.36597311, -0.09769557, 0.19738293, 0.9042239, 2.6033592, 19.881624, -1.1845055, 0
1054, 1741646620, 0.36556238, -0.12581006, 0.2071401, 0.8987161, 0.8926968, 17.748749, -2.8688688, 0
1055, 1741663287, 0.3652575, -0.16159765, 0.22314279, 0.8892368, -7.065135, 15.8726635, -8.545435, 0
1058, 1741713288, 0.4004292, -0.2599273, 0.23659566, 0.8462733, -11.630379, 8.49575, -17.63688, 0
1059, 1741729955, 0.4090702, -0.27998224, 0.23647276, 0.8357116, 7.320969, -6.0079393, -7.8814807, 0
1061, 1741763289, 0.40157694, -0.3427141, 0.27038985, 0.8051299, -4.290882, -2.231879, 1.2078247, 0
1062, 1741779956, 0.39280617, -0.39045376, 0.29122376, 0.780064, 1.1468652, -5.9639354, 2.1244211, 0
1063, 1741796623, 0.38330713, -0.44925278, 0.30594382, 0.7467983, 0.6121468, -10.20685, 5.8250666, 0
1065, 1741829957, 0.35492343, -0.5913881, 0.34982497, 0.634014, 4.964541, -34.789124, 26.45477, 0
1066, 1741846624, 0.34500527, -0.66297865, 0.36872715, 0.5527501, 10.92283, -22.093967, 26.008514, 0
1069, 1741896625, 0.36598524, -0.7463404, 0.36875993, 0.41606307, 13.853805, 8.835392, 4.962453, 0
1070, 1741913292, 0.3913297, -0.7607269, 0.38204288, 0.34965786, 21.676128, -13.147285, 5.1971483, 0
1072, 1741946626, 0.37511757, -0.7948554, 0.4049839, 0.25207394, -0.62657744, -40.483383, -12.5054, 0
1073, 1741963293, 0.38392422, -0.7961515, 0.41862625, 0.20870762, -15.798677, -30.62824, -15.765066, 0
1074, 1741979960, 0.41187224, -0.7886268, 0.423009, 0.17191362, -13.183682, -29.798468, -23.000706, 0
1076, 1742013294, 0.45604217, -0.77881587, 0.40147123, 0.1560579, -6.1741133, -16.622646, -23.37897, 0
1077, 1742029961, 0.46802342, -0.77587545, 0.3881891, 0.16835196, -5.2464175, -12.928293, -21.402725, 0
1078, 1742046628, 0.47519577, -0.77186155, 0.3765347, 0.19157791, -5.227929, -11.745558, -19.977497, 0
1080, 1742079962, 0.48213446, -0.75961435, 0.35349298, 0.25619668, -7.1112757, -5.578604, -15.28518, 0
1081, 1742096629, 0.48748043, -0.7480217, 0.34050733, 0.29486054, -6.6399603, -7.090265, -14.239889, 0
1082, 1742113296, 0.49417347, -0.7304044, 0.32756418, 0.33921307, -6.490951, -8.183426, -12.369589, 0
1084, 1742146630, 0.5101473, -0.67834127, 0.29978138, 0.43565547, -6.4223385, -5.412429, -7.7514358, 0
1086, 1742179964, 0.5342282, -0.6061125, 0.2675572, 0.525074, -4.595681, -7.01077, -3.049314, 0
1088, 1742213298, 0.56485844, -0.5127528, 0.23264073, 0.6032905, -0.41405687, -7.811404, 3.378067, 0
1089, 1742229965, 0.57939434, -0.46003348, 0.21704134, 0.6368878, 3.0578542, -4.7397637, 5.509227, 0
1090, 1742246632, 0.5886469, -0.40701538, 0.20564881, 0.6675354, 6.4284406, -4.321364, 8.125408, 0
1092, 1742279966, 0.5848707, -0.30511418, 0.20110416, 0.72418946, 8.554967, 3.48783, 17.752851, 0
1093, 1742296633, 0.57277185, -0.25607306, 0.19891204, 0.7528977, 7.8806753, 7.6103497, 20.34597, 0
1094, 1742313300, 0.55583465, -0.20978579, 0.19398916, 0.7806841, 6.6754923, 11.403041, 15.387482, 0
1096, 1742346634, 0.5118599, -0.13162161, 0.18194719, 0.82923585, 5.5799417, 11.411759, 9.454712, 0
1097, 1742363301, 0.48501855, -0.10065682, 0.17550911, 0.8508135, 3.9616084, 11.146144, 6.599354, 0
1099, 1742396635, 0.43068117, -0.061909027, 0.15725766, 0.8865737, 0.9986373, 9.571653, 0.6484041, 0
1101, 1742429969, 0.39600426, -0.04584164, 0.14068907, 0.9062823, -5.438731, 9.953703, -0.90380955, 0
1103, 1742463303, 0.39016637, -0.0285549, 0.1373865, 0.9100227, -5.0539036, 9.096685, 0.72260666, 0
1104, 1742479970, 0.39618987, -0.020913187, 0.13676466, 0.9077187, -1.0808495, 9.126427, 1.1110134, 0
1105, 1742496637, 0.40415356, -0.014604356, 0.1353021, 0.90454507, 1.0249777, 7.3683863, -0.13426685, 0
1107, 1742529971, 0.41155148, -0.0061423555, 0.13071646, 0.9019772, 5.3503036, 3.4280572, 0.86142063, 0
1108, 1742546638, 0.40754583, -0.00460368, 0.12644845, 0.90441024, 2.5313776, 3.0085702, -0.5145149, 0
1109, 1742563305, 0.39885822, -9.4746053E-4, 0.12756735, 0.9081297, 0.46366152, 4.7655044, 1.5776863, 0
1111, 1742596639, 0.38057655, 0.007691942, 0.12855253, 0.9157719, -2.5305634, 4.8342714, -0.81140995, 0
1112, 1742613306, 0.37420872, 0.012236722, 0.13002022, 0.9181366, -3.2867558, 5.656679, -1.0098419, 0
1113, 1742629973, 0.37047166, 0.017623879, 0.13208605, 0.91926897, -3.2663655, 6.365395, -0.7704954, 0
1116, 1742679974, 0.36917397, 0.031804554, 0.13575707, 0.91887474, -2.4390235, 5.758255, -4.9976945, 0
1117, 1742696641, 0.36766738, 0.03450643, 0.13875225, 0.9189339, -0.8674663, 6.8349357, -3.6640668, 0
1119, 1742729975, 0.3611757, 0.03297722, 0.13893813, 0.92153263, 0.9127973, 9.396805, -4.0368595, 0
1120, 1742746642, 0.3550667, 0.029991455, 0.14020777, 0.9238137, 0.40109435, 10.634955, -5.4537354, 0
1121, 1742763309, 0.3465895, 0.026889905, 0.14440411, 0.92647815, -0.64749527, 12.288423, -5.9812183, 0
1123, 1742796643, 0.3274508, 0.021056656, 0.16040131, 0.9309488, -4.575543, 15.131795, -5.170527, 0
1124, 1742813310, 0.32223088, 0.017054476, 0.17213185, 0.93075716, -4.4557457, 17.394503, -6.9932537, 0
1126, 1742846644, 0.32642496, -0.0054100454, 0.20062271, 0.9237044, -2.9754272, 22.793411, -8.617014, 0
1128, 1742879978, 0.34736037, -0.060407173, 0.23247217, 0.90648234, -1.85409, 24.078123, -4.131039, 0
1130, 1742913312, 0.3760323, -0.13988307, 0.26751924, 0.8760865, -1.479965, 14.390533, -9.891199, 0
1132, 1742946646, 0.42185843, -0.1859003, 0.21254131, 0.86160576, 0.20764144, -18.10342, -9.351407, 1024
1134, 1742979980, 0.43272, -0.24369349, 0.22532378, 0.8382469, -3.355213, -8.028646, -0.54732704, 0
1135, 1742996647, 0.42719844, -0.29115018, 0.24286582, 0.8208599, -0.39260432, -2.673741, 2.5825567, 0
1136, 1743013314, 0.42470622, -0.34484068, 0.2592551, 0.7959636, 2.8041399, -4.9983754, 2.6477137, 0
1138, 1743046648, 0.41612783, -0.4839493, 0.2748936, 0.71911466, -1.8575008, -13.080066, 11.852989, 0
1139, 1743063315, 0.41005862, -0.5519843, 0.29917532, 0.661605, -0.05090597, -16.204578, 12.079121, 0
1140, 1743079982, 0.4073115, -0.6168868, 0.33059427, 0.5867854, 6.6322846, -26.604038, 16.081142, 0
1142, 1743113316, 0.37244374, -0.72623754, 0.37432265, 0.4402374, 50.925816, -72.75232, 38.17248, 0
1143, 1743129983, 0.33271745, -0.73745286, 0.37061375, 0.4562561, 15.499904, -22.360247, 6.502594, 0
1144, 1743146650, 0.34684336, -0.7384367, 0.38840896, 0.4284988, -8.963646, 18.20944, 3.0553951, 0
1146, 1743179984, 0.38234624, -0.7521186, 0.42321965, 0.3302666, 14.653858, -39.29033, -6.888796, 0
1147, 1743196651, 0.37799594, -0.76154727, 0.43184984, 0.30121806, -2.5261326, -27.285778, -10.618022, 0
1149, 1743229985, 0.41526717, -0.7519877, 0.45248622, 0.23955306, -8.5956, -25.158993, -17.444248, 0
1150, 1743246652, 0.43887356, -0.74524117, 0.4492222, 0.2242024, -7.0449753, -22.376415, -19.413593, 0
1151, 1743263319, 0.45541215, -0.7435223, 0.435991, 0.22304255, -5.040989, -17.09022, -19.325382, 0
1153, 1743296653, 0.46654785, -0.74942166, 0.39883566, 0.24837893, -2.637582, -11.807962, -18.758957, 0
1154, 1743313320, 0.4655833, -0.75152636, 0.38081348, 0.27107784, -2.6808898, -7.8565593, -17.568707, 0
1155, 1743329987, 0.46671644, -0.74930704, 0.36522266, 0.2956162, -4.3833394, -6.843031, -15.632299, 0
1157, 1743363321, 0.4829772, -0.72189504, 0.3404155, 0.36024964, -3.4870026, -8.532983, -13.641108, 0
1159, 1743396655, 0.5004869, -0.67628765, 0.31088388, 0.44222248, -5.133764, -4.572531, -8.858236, 0
1161, 1743429989, 0.5259598, -0.614066, 0.2813684, 0.516897, -3.2541869, -5.4973526, -6.368347, 0
1162, 1743446656, 0.53621125, -0.57991076, 0.2681772, 0.55165553, -3.3166373, -8.69321, -4.1294537, 0
1163, 1743463323, 0.544784, -0.54155207, 0.25528985, 0.58721423, -3.0313945, -9.806364, 0.23069096, 0
1165, 1743496657, 0.56272125, -0.45350343, 0.23067836, 0.65155876, 2.1252823, -8.474141, 5.954713, 0
1166, 1743513324, 0.5672675, -0.4080751, 0.22250834, 0.679878, 3.7117305, -6.154598, 6.5098457, 0
1167, 1743529991, 0.5676393, -0.363654, 0.21905491, 0.7054205, 6.2979093, -6.521813, 13.977249, 0
1169, 1743563325, 0.55373836, -0.2728051, 0.21121138, 0.7578936, 9.102418, 0.022176508, 21.432678, 0
1170, 1743579992, 0.5381724, -0.22598806, 0.2048968, 0.78573465, 9.228829, 4.950631, 17.466236, 0
1171, 1743596659, 0.51758176, -0.1821805, 0.19853434, 0.8121362, 8.5144005, 9.241807, 11.876684, 0
1174, 1743646660, 0.4372965, -0.07453194, 0.1857945, 0.876789, 4.049398, 12.008838, 4.6782856, 0
1175, 1743663327, 0.40869543, -0.049828514, 0.18242879, 0.8928979, 1.7442434, 11.454291, 2.3543854, 0
1177, 1743696661, 0.35782155, -0.017135426, 0.17246492, 0.91759884, -5.5151863, 12.987786, 2.2913904, 0
1178, 1743713328, 0.34394374, -0.0063585415, 0.1630291, 0.9247408, -9.011228, 11.745398, -3.5522637, 0
1180, 1743746662, 0.34314618, 0.0057976134, 0.15279704, 0.92678577, -6.2939672, 9.939109, -3.3295822, 0
1181, 1743763329, 0.34843808, 0.008915219, 0.151529, 0.92499304, -4.0666285, 9.293737, -2.443327, 0
1182, 1743779996, 0.3548042, 0.010399736, 0.1514704, 0.92256397, -2.1005626, 9.142618, -1.4853163, 0
1184, 1743813330, 0.3656865, 0.012511939, 0.14979823, 0.9185527, 1.0284859, 9.039049, 1.5030928, 0
1185, 1743829997, 0.36788183, 0.013951592, 0.14762567, 0.918007, 1.3394884, 7.6075354, 0.23718357, 0
1186, 1743846664, 0.36700818, 0.014932942, 0.14558688, 0.9186665, 2.0637379, 6.4067845, -0.19386196, 0
1189, 1743896665, 0.34857184, 0.020842649, 0.14248097, 0.926188, -1.8183776, 4.6001854, -1.3948097, 0
1190, 1743913332, 0.34209192, 0.023508575, 0.14252117, 0.92853105, -2.759985, 5.9408717, -0.9839916, 0
1192, 1743946666, 0.3349111, 0.031857755, 0.14289899, 0.930839, -2.8159592, 7.1264467, -3.0905824, 0
1193, 1743963333, 0.3333998, 0.03625857, 0.1444922, 0.93097454, -2.9547138, 7.9717, -4.3815966, 0
1194, 1743980000, 0.33238235, 0.040216345, 0.14723061, 0.93074673, -2.5263402, 9.238958, -5.006311, 0
1196, 1744013334, 0.32968247, 0.042834535, 0.1527248, 0.93070483, -1.317115, 12.444179, -5.8763447, 0
1197, 1744030001, 0.3254961, 0.04098191, 0.15539932, 0.93181837, -0.28769684, 14.040946, -6.3255386, 0
1198, 1744046668, 0.31843153, 0.03441984, 0.15557481, 0.9344919, 0.9386154, 15.517954, -5.638187, 0
1200, 1744080002, 0.2962605, 0.009209476, 0.15053494, 0.94315743, -3.945063, 15.994771, -8.884055, 0
1201, 1744096669, 0.2850547, -0.010763038, 0.15491156, 0.9458817, -4.4455376, 16.935751, -7.1029644, 0
1204, 1744146670, 0.27498505, -0.0843884, 0.18952532, 0.93883103, -4.8071337, 16.738907, -1.0493917, 0
1207, 1744196671, 0.3231873, -0.19075707, 0.22989447, 0.8979823, -2.4000008, 13.5033, -10.443257, 0
1208, 1744213338, 0.3495472, -0.2273275, 0.21932134, 0.8820992, 0.32550436, 66.57398, 56.40723, 0
1209, 1744230005, 0.3639384, -0.2477687, 0.2136531, 0.8721088, -5.6137614, -14.356225, -15.092924, 0
1211, 1744263339, 0.36786366, -0.31363463, 0.23174202, 0.844196, -5.8222404, -4.299307, -0.81264114, 0
1212, 1744280006, 0.35764605, -0.35013455, 0.25401676, 0.82766676, -1.7405021, -1.7662654, 2.4473991, 0
1213, 1744296673, 0.3486387, -0.39613813, 0.2720705, 0.8047142, 3.2065952, -5.3691745, 3.439908, 0
1215, 1744330007, 0.3315922, -0.5259563, 0.293118, 0.72633344, 0.007971781, -16.64715, 14.881882, 0
1216, 1744346674, 0.3226831, -0.5982011, 0.31367874, 0.66309774, 7.839676, -29.565224, 19.405008, 0
1217, 1744363341, 0.31748903, -0.67151564, 0.34087467, 0.5763104, 13.730496, -22.39597, 29.428635, 0
1219, 1744396675, 0.2876792, -0.74050593, 0.38162082, 0.47256655, 29.8009, -50.900314, 15.290043, 0
1220, 1744413342, 0.2906629, -0.7504409, 0.38264555, 0.45386976, -13.519858, 15.764794, 9.585497, 0
1221, 1744430009, 0.32334816, -0.7652197, 0.40313086, 0.38396895, 13.844609, -17.222706, 10.214855, 0
1223, 1744463343, 0.31916875, -0.7982057, 0.42207944, 0.28794056, -0.54417986, -34.793896, -10.462597, 0
1224, 1744480010, 0.33267584, -0.80171466, 0.43520552, 0.23924509, -8.845229, -29.750217, -15.951347, 0
1225, 1744496677, 0.361266, -0.79693115, 0.44345576, 0.1944132, -5.9182706, -29.243723, -23.598162, 0
1227, 1744530011, 0.40976098, -0.78591883, 0.43485355, 0.15934838, -1.9396816, -16.348652, -25.837605, 0
1228, 1744546678, 0.4213073, -0.7843728, 0.42578498, 0.16133398, -1.8438079, -12.657976, -23.98796, 0
1229, 1744563345, 0.42613173, -0.7849995, 0.41512406, 0.17297818, -4.061952, -12.541325, -21.999805, 0
1232, 1744613346, 0.4461155, -0.7764471, 0.37024796, 0.24716179, -6.7219377, -8.668713, -16.27428, 0
1234, 1744646680, 0.4683313, -0.7485125, 0.33717155, 0.32675952, -3.2119272, -7.550652, -14.094337, 0
1235, 1744663347, 0.47473377, -0.7296732, 0.32076907, 0.37332803, -3.8685331, -4.4579744, -11.53328, 0
1236, 1744680014, 0.48235267, -0.7057923, 0.3069319, 0.41838706, -3.862193, -3.7151659, -10.008399, 0
1238, 1744713348, 0.49747825, -0.6468977, 0.2877776, 0.50128317, -1.5465912, -10.537796, -6.388426, 0
1239, 1744730015, 0.50071, -0.6119154, 0.28065276, 0.5441919, -2.57113, -10.9491205, -2.89229, 0
1240, 1744746682, 0.50484425, -0.5729615, 0.27136403, 0.58589303, -2.1078448, -11.714476, 3.2584429, 0
1242, 1744780016, 0.51553154, -0.4863565, 0.24684492, 0.66091913, 3.1217942, -9.428079, 7.2183895, 0
1243, 1744796683, 0.5165958, -0.441161, 0.23727368, 0.6944558, 2.5145204, -7.9237185, 10.301876, 0
1244, 1744813350, 0.5177262, -0.39206964, 0.23078915, 0.7245959, 2.2049584, -6.599687, 17.301846, 0
1247, 1744863351, 0.5205437, -0.2354573, 0.19706875, 0.7967559, 8.406626, 2.3964276, 17.806353, 0
1250, 1744913352, 0.47240242, -0.090256065, 0.1782378, 0.8584771, 6.1204443, 7.8102365, 13.210278, 0
1251, 1744930019, 0.4446177, -0.051460095, 0.17185052, 0.8776082, 4.08181, 9.787814, 11.802856, 0
1252, 1744946686, 0.41452578, -0.019752774, 0.16320841, 0.8950994, -0.80173105, 11.296641, 7.677397, 0
1254, 1744980020, 0.36709225, 0.022525143, 0.142918, 0.9188972, -7.1407995, 14.880874, 3.264677, 0
1255, 1744996687, 0.35609394, 0.037465785, 0.13487606, 0.92393935, -8.171747, 13.925996, -3.638001, 0
1257, 1745030021, 0.35619354, 0.05972847, 0.12578589, 0.9240122, -5.673343, 16.082294, -4.404131, 0
1258, 1745046688, 0.36184433, 0.067875504, 0.12268052, 0.92166865, -4.5627027, 15.183934, -7.6027184, 0
1259, 1745063355, 0.36859915, 0.07337109, 0.12283424, 0.91854495, -2.317336, 13.83744, -9.395828, 0
1261, 1745096689, 0.3795106, 0.075653635, 0.128467, 0.9131299, 1.8208656, 13.388103, -6.1320868, 0
1263, 1745130023, 0.3817371, 0.07019452, 0.12729433, 0.912802, 2.2467782, 9.423634, -6.2469034, 0
1265, 1745163357, 0.376967, 0.053064946, 0.12646852, 0.91604996, 1.9014907, 6.6742835, -3.3893404, 0
1266, 1745180024, 0.3716707, 0.043983895, 0.12667982, 0.9186623, 1.1668969, 5.836585, -1.8729997, 0
1267, 1745196691, 0.3648723, 0.03660888, 0.12673303, 0.92169875, 0.2615006, 6.0994935, -0.0044488907, 0
1269, 1745230025, 0.3500316, 0.030654203, 0.12829599, 0.9274374, -1.0398248, 6.885009, -0.69816303, 0
1270, 1745246692, 0.34435195, 0.030045789, 0.12998767, 0.9293461, -1.2438583, 7.177514, -2.0300794, 0
1271, 1745263359, 0.340481, 0.028877102, 0.13333802, 0.9303341, -0.86884147, 7.829117, -2.9906201, 0
1273, 1745296693, 0.3352766, 0.02308859, 0.1476113, 0.93023074, -1.0301104, 9.429759, -3.8070993, 0
1274, 1745313360, 0.33202034, 0.019016106, 0.15764633, 0.92984426, -1.1134665, 11.677839, -2.0149312, 0
1275, 1745330027, 0.32850954, 0.014378712, 0.16539578, 0.9298284, -1.0968864, 12.412377, -3.380393, 0
1278, 1745380028, 0.31952482, -0.011984777, 0.19260107, 0.9277537, -4.0843124, 16.108677, -4.951254, 0
1279, 1745396695, 0.32031575, -0.026091848, 0.20354697, 0.92484987, -4.931203, 17.584778, -4.5706964, 0
1281, 1745430029, 0.33962035, -0.070184365, 0.22793627, 0.9098567, -6.1233344, 20.604395, -9.383855, 0
1282, 1745446696, 0.35748592, -0.10410281, 0.24101835, 0.8962915, -5.2466083, 21.3314, -9.2442465, 0
1283, 1745463363, 0.38423496, -0.15868025, 0.24051149, 0.8771547, 0.63533413, 56.07349, 26.522015, 0
1286, 1745513364, 0.4205243, -0.20948598, 0.21993127, 0.85496616, -6.817345, -0.6694962, 3.0261545, 0
1288, 1745546698, 0.41154125, -0.30855915, 0.26992744, 0.8140184, -0.8812388, -5.354371, 1.0651541, 0
1289, 1745563365, 0.40350705, -0.3753666, 0.28743535, 0.7834058, -0.79908943, -10.024342, 5.7430925, 0
1290, 1745580032, 0.39192754, -0.4562577, 0.29401642, 0.7428578, 0.244782, -12.400797, 11.5648365, 0
1292, 1745613366, 0.36454466, -0.6203822, 0.32333267, 0.6146146, 12.913421, -19.992218, 14.713036, 0
1293, 1745630033, 0.34486797, -0.69554955, 0.34867352, 0.52513385, 38.52352, -12.628939, 23.650932, 0
1294, 1745646700, 0.3029941, -0.75236404, 0.3797586, 0.44495875, 42.07741, -60.19764, 50.81442, 0
1296, 1745680034, 0.2617135, -0.7657019, 0.4284338, 0.4021357, -21.612066, -9.873049, -0.3679247, 0
1297, 1745696701, 0.30546042, -0.7610018, 0.4597913, 0.34091634, -15.332635, -24.897476, -0.93663025, 0
1298, 1745713368, 0.34687844, -0.7607795, 0.46286514, 0.29446164, -1.2667105, -41.08382, -10.398659, 0
1300, 1745746702, 0.407003, -0.7684636, 0.42220974, 0.25615048, -4.118427, -22.912218, -15.987956, 0
1301, 1745763369, 0.43989092, -0.7672683, 0.3955977, 0.24770856, 0.12913997, -20.36624, -18.60653, 0
1302, 1745780036, 0.46577144, -0.7662327, 0.3665232, 0.24832848, 3.6221964, -16.207687, -20.442324, 0
1304, 1745813370, 0.48667595, -0.7701585, 0.31152123, 0.27021956, 2.5458484, -10.681564, -20.12451, 0
1306, 1745846704, 0.49836257, -0.75935245, 0.28077403, 0.31023628, -0.5419303, -6.4345365, -17.535255, 0
1308, 1745880038, 0.50625974, -0.7292092, 0.27554983, 0.3689025, -1.9389656, -8.750512, -14.330322, 0
1309, 1745896705, 0.5098655, -0.7061764, 0.2770654, 0.40576917, -4.4350424, -7.021047, -11.123161, 0
1310, 1745913372, 0.5171333, -0.6770895, 0.27896035, 0.44313186, -5.977256, -5.8954988, -8.621222, 0
1312, 1745946706, 0.53991014, -0.610468, 0.27263927, 0.5114252, -5.4623976, -6.625641, -4.8226175, 0
1313, 1745963373, 0.5507143, -0.57561874, 0.26421505, 0.5437179, -5.147584, -9.737737, -3.050787, 0
1315, 1745996707, 0.57586884, -0.492388, 0.2427271, 0.6058668, -4.1009746, -7.6408405, 4.406225, 0
1316, 1746013374, 0.5914111, -0.4466133, 0.2284523, 0.63137996, -0.20080762, -7.560442, 6.728901, 0
1317, 1746030041, 0.6042145, -0.3992467, 0.21582235, 0.6549881, 3.8047798, -7.425102, 7.672451, 0
1319, 1746063375, 0.609064, -0.30023113, 0.20542966, 0.70481414, 7.2743583, -4.2952976, 13.391745, 0
1321, 1746096709, 0.5893553, -0.19941172, 0.20488831, 0.7556308, 5.4293413, 1.0699123, 15.986738, 0
1323, 1746130043, 0.54819053, -0.10822517, 0.19942655, 0.8050251, 4.1077647, 4.7589397, 14.734779, 0
1324, 1746146710, 0.5209628, -0.07089957, 0.19299926, 0.8284832, 3.4131405, 7.463618, 10.625107, 0
1325, 1746163377, 0.49153072, -0.04312411, 0.18396263, 0.85015136, 1.8048592, 9.302335, 7.018305, 0
1327, 1746196711, 0.43644273, -0.011896957, 0.16373801, 0.8846625, -4.6994553, 14.552344, 3.8336449, 0
1328, 1746213378, 0.41926715, 0.002757538, 0.15953752, 0.89376557, -7.523472, 15.89516, 0.5707998, 0
1329, 1746230045, 0.41032293, 0.017840583, 0.16351618, 0.8970177, -5.845904, 13.736951, -4.5240164, 0
1331, 1746263379, 0.40514007, 0.03357485, 0.16814746, 0.89806604, 0.5211673, 13.13573, -1.5656643, 0
1332, 1746280046, 0.40547785, 0.03353049, 0.15920001, 0.89954466, -0.02855906, 11.627241, -2.601169, 0
1333, 1746296713, 0.4065426, 0.030659184, 0.15058476, 0.90064925, -0.7279483, 9.968932, -3.654818, 0
1336, 1746346714, 0.40023765, 0.011886459, 0.13479957, 0.90639913, 2.7538984, 5.593577, 1.1156912, 0
1338, 1746380048, 0.3836119, 0.006187126, 0.12611479, 0.9148556, -0.02495592, 5.143827, 0.63839054, 0
1339, 1746396715, 0.3743895, 0.008592539, 0.12526914, 0.9187645, -0.8387405, 4.5431504, -1.2221737, 0
1340, 1746413382, 0.36700392, 0.011330295, 0.12411837, 0.9218657, -1.3874209, 4.7168984, -1.8566208, 0
1342, 1746446716, 0.35878488, 0.021790098, 0.122543104, 0.9251182, -2.036383, 6.7737346, -1.7117262, 0
1343, 1746463383, 0.357739, 0.029199518, 0.12243681, 0.92533296, -0.9135405, 7.575783, -1.9740891, 0
1344, 1746480050, 0.35830164, 0.03649159, 0.12196116, 0.9249192, -0.1673851, 8.121273, -3.0080976, 0
1346, 1746513384, 0.35867134, 0.049848754, 0.12551305, 0.92367655, -0.41784093, 7.930487, -6.3316064, 0
1347, 1746530051, 0.35698563, 0.053725548, 0.12940475, 0.92357504, -1.0363331, 8.621173, -6.1886673, 0
1348, 1746546718, 0.35414717, 0.05479721, 0.1327069, 0.9241363, -1.058433, 9.896277, -5.274384, 0
1351, 1746596719, 0.3417864, 0.04268547, 0.14063622, 0.92824745, -1.408366, 12.350604, -5.0251393, 0
1352, 1746613386, 0.3364557, 0.034969803, 0.1449309, 0.9298557, -1.4937643, 11.806677, -6.5299344, 0
1354, 1746646720, 0.32545128, 0.010491021, 0.1644373, 0.93112487, -2.0342, 14.720593, -3.9563603, 0
1355, 1746663387, 0.31905267, -9.295121E-4, 0.18038596, 0.9304447, -1.5479534, 18.230675, 0.05359745, 0
1356, 1746680054, 0.31276858, -0.010581054, 0.19754802, 0.92903197, -0.6175882, 19.438509, -1.6171198, 0
1358, 1746713388, 0.31920826, -0.04175174, 0.23819405, 0.916345, -3.6331677, 20.344156, -10.607287, 0
1359, 1746730055, 0.33323053, -0.06864725, 0.25526625, 0.90506685, -2.7202961, 21.388523, -5.4883137, 0
1360, 1746746722, 0.349249, -0.10108659, 0.2678418, 0.89226073, -3.675791, 17.96304, -8.053813, 0
1362, 1746780056, 0.40522975, -0.14622742, 0.19285405, 0.8816322, -11.89233, -25.454847, -9.38021, 0
1363, 1746796723, 0.41970724, -0.17576234, 0.19548427, 0.86879295, -2.0478387, -3.5725358, 10.253935, 0
1364, 1746813390, 0.42128375, -0.22154754, 0.21153563, 0.8536693, -5.227796, -6.948695, 1.9802713, 0
1366, 1746846724, 0.40865025, -0.34659612, 0.25214618, 0.8058289, 1.0495281, -8.613125, 7.3666363, 0
1367, 1746863391, 0.40052956, -0.42046553, 0.26819742, 0.76871103, -0.38205382, -14.327185, 11.313906, 0
1369, 1746896725, 0.38225222, -0.5835984, 0.30960009, 0.646147, 9.662986, -11.697277, 11.246935, 0
1370, 1746913392, 0.3655076, -0.66437274, 0.34555346, 0.5528721, 28.493008, -3.7081783, 30.348072, 0
1371, 1746930059, 0.32903725, -0.7215611, 0.3852821, 0.4719149, 40.80229, -69.90305, 55.232014, 0
1373, 1746963393, 0.2846155, -0.74532443, 0.42679656, 0.42590123, -17.299978, 5.555434, 5.9792433, 0
1374, 1746980060, 0.3141798, -0.7539966, 0.45743078, 0.3515666, 1.6559118, -25.52945, 7.2085247, 0
1375, 1746996727, 0.33336657, -0.76322997, 0.46914476, 0.29378843, 7.740369, -46.989784, -6.1192794, 0
1378, 1747046728, 0.40005782, -0.77009773, 0.46031442, 0.18728498, -2.9622028, -22.835085, -22.882278, 0
1379, 1747063395, 0.42563322, -0.77050686, 0.44387347, 0.16791046, -3.2985067, -22.718178, -24.943644, 0
1381, 1747096729, 0.46518332, -0.7732166, 0.39574295, 0.17085063, -1.2517123, -15.769264, -23.078363, 0
1382, 1747113396, 0.47870666, -0.7741563, 0.36870593, 0.18878484, -0.53677124, -14.431957, -21.865097, 0
1383, 1747130063, 0.4881129, -0.77294487, 0.34295732, 0.21620436, 0.76169056, -9.412284, -20.499529, 0
1385, 1747163397, 0.50236535, -0.7581241, 0.30534685, 0.2823155, -1.2056197, -4.665131, -16.988377, 0
1386, 1747180064, 0.5094024, -0.7400332, 0.2961753, 0.32434872, -1.7840048, -4.6427355, -15.219055, 0
1387, 1747196731, 0.5130994, -0.7166578, 0.2914224, 0.37184083, -2.6106923, -2.356704, -13.365208, 0
1389, 1747230065, 0.5156758, -0.6593842, 0.28454444, 0.4673192, -5.5612416, -3.2710671, -7.0384846, 0
1390, 1747246732, 0.51706034, -0.6263621, 0.28030914, 0.51167166, -4.954886, -4.8309402, -4.4152045, 0
1393, 1747296733, 0.5204198, -0.5188618, 0.24373853, 0.63292897, -0.47795296, -10.156937, 8.159082, 0
1394, 1747313400, 0.52668625, -0.4781351, 0.22020534, 0.66750276, 5.984416, -8.804696, 7.926996, 0
1396, 1747346734, 0.5267365, -0.39350533, 0.18778592, 0.7297264, 13.110553, -5.7912445, 9.406755, 0
1397, 1747363401, 0.5160545, -0.34895635, 0.18422762, 0.760289, 14.482167, -3.5932112, 11.862778, 0
1398, 1747380068, 0.49890426, -0.30397108, 0.1854993, 0.79015684, 11.554949, 0.3638469, 12.748653, 0
1400, 1747413402, 0.45658565, -0.21823259, 0.19367564, 0.8405092, 6.2895856, 4.3969183, 12.439331, 0
1401, 1747430069, 0.43512192, -0.17886707, 0.19759399, 0.86005455, 2.819464, 4.949461, 10.890907, 0
1402, 1747446736, 0.41444495, -0.14292051, 0.20018992, 0.8762391, 1.1423768, 5.185532, 11.436285, 0
1404, 1747480070, 0.37264895, -0.082804844, 0.19682418, 0.9031048, -7.6744246, 6.9900565, 7.173071, 0
1405, 1747496737, 0.3575205, -0.060796276, 0.18986796, 0.9124116, -6.7960267, 8.926644, 4.264268, 0
1408, 1747546738, 0.35657272, -0.009014122, 0.17515223, 0.91769177, -3.7397158, 13.335824, 4.8016167, 0
1409, 1747563405, 0.35950714, 0.009457268, 0.1718655, 0.91716367, -2.8453174, 12.390073, 0.5799494, 0
1410, 1747580072, 0.36267087, 0.025121398, 0.16783202, 0.9163696, -2.239217, 12.085338, -1.2762194, 0
1412, 1747613406, 0.36515462, 0.046214156, 0.1610459, 0.9157797, 0.23501177, 10.1916685, -3.0414171, 0
1413, 1747630073, 0.361373, 0.050367296, 0.15651584, 0.9178438, 0.59040827, 10.411444, -2.3990445, 0
1414, 1747646740, 0.35416108, 0.052615758, 0.15136302, 0.9213861, -0.35120574, 10.651009, -2.401245, 0
1416, 1747680074, 0.33675754, 0.05369957, 0.14374727, 0.92903674, -2.3325346, 8.362596, -4.683709, 0
1417, 1747696741, 0.32824528, 0.05215041, 0.14115389, 0.9325626, -1.8889349, 8.52555, -3.5954208, 0
1418, 1747713408, 0.3203498, 0.049433786, 0.13771887, 0.9359635, -2.6020718, 8.50705, -3.3877392, 0
1420, 1747746742, 0.30749452, 0.04677679, 0.13261953, 0.9411338, -3.6074922, 10.354219, -2.0676494, 0
1423, 1747796743, 0.2971971, 0.04689992, 0.13407026, 0.9442252, -4.093757, 10.084208, -4.589848, 0
1424, 1747813410, 0.29687497, 0.044003963, 0.13575181, 0.94422567, -4.543941, 10.515414, -5.3251743, 0
1425, 1747830077, 0.29756695, 0.040637374, 0.13908505, 0.9436735, -4.293167, 12.464114, -3.8815293, 0
1427, 1747863411, 0.30166605, 0.032911077, 0.14685312, 0.94149375, -5.4432273, 13.266682, -6.8501835, 0
1428, 1747880078, 0.30727795, 0.025334865, 0.1543746, 0.9387059, -5.198188, 15.461961, -7.1852407, 0
1429, 1747896745, 0.31619543, 0.01413738, 0.16367711, 0.93439406, -4.2423344, 18.264366, -7.2394204, 0
1431, 1747930079, 0.33980846, -0.026931588, 0.18731268, 0.9212929, -0.49588016, 23.05671, -8.457832, 0
1432, 1747946746, 0.3502323, -0.059506413, 0.20150554, 0.9128273, 0.37269595, 24.222956, -7.3509197, 0
1433, 1747963413, 0.3576511, -0.100173526, 0.21927123, 0.90223765, -2.9824321, 24.90472, -8.018157, 0
1435, 1747996747, 0.38232887, -0.17600764, 0.20528327, 0.88360995, 5.978777, 67.17813, 40.411324, 1024
1436, 1748013414, 0.3907821, -0.17619845, 0.20529118, 0.8798641, 1.5273553, -26.913288, 6.2280807, 1024
1437, 1748030081, 0.40321568, -0.20112285, 0.2044391, 0.86904156, -7.6914043, 2.6026096, 10.196941, 0
1439, 1748063415, 0.4019158, -0.2961622, 0.24353233, 0.831568, -3.3636422, -6.6573873, 2.9648924, 0
1440, 1748080082, 0.39626732, -0.36582315, 0.2620455, 0.8003372, 0.17146103, -10.119869, 6.3338833, 0
1441, 1748096749, 0.3894551, -0.44499725, 0.27173758, 0.75929093, 0.7478274, -8.817978, 9.254047, 0
1443, 1748130083, 0.3774284, -0.59436214, 0.31715712, 0.63541687, 6.071932, -17.150454, 16.347845, 0
1444, 1748146750, 0.38199693, -0.65964544, 0.34804428, 0.54577756, 12.875073, -19.024055, 38.431946, 0
1446, 1748180084, 0.3770524, -0.7027227, 0.37276983, 0.47446465, 12.409079, -25.017637, 14.249149, 0
1447, 1748196751, 0.38803324, -0.71669924, 0.37271944, 0.4437505, -7.2568207, 15.253291, 7.7394447, 0
1450, 1748246752, 0.39663908, -0.7796637, 0.38566273, 0.293476, 7.151109, -33.16245, -7.718877, 0
1451, 1748263419, 0.38549912, -0.79580045, 0.3933904, 0.25178942, -8.516076, -25.79278, -9.455299, 0
1452, 1748280086, 0.3947562, -0.8023829, 0.39911216, 0.20278203, -12.743534, -26.195637, -13.159281, 0
1454, 1748313420, 0.43655536, -0.8077621, 0.37556696, 0.12629855, -7.0176578, -24.625685, -24.405922, 0
1455, 1748330087, 0.4541714, -0.8111253, 0.35072473, 0.113394536, -5.042906, -21.12504, -25.672733, 0
1456, 1748346754, 0.46677226, -0.81518835, 0.32286152, 0.115818806, -2.6752014, -15.435218, -24.095463, 0
1458, 1748380088, 0.47509998, -0.8254063, 0.2672853, 0.14698634, 0.41883063, -7.10294, -21.240648, 0
1459, 1748396755, 0.47511768, -0.8277713, 0.24536732, 0.17004305, 1.0527478, -5.3871193, -20.564465, 0
1460, 1748413422, 0.47459784, -0.8263854, 0.22923177, 0.19839108, 1.5787255, -4.6525016, -20.260416, 0
1462, 1748446756, 0.47212353, -0.81160486, 0.21514529, 0.26864785, 1.9842193, -4.625967, -17.543705, 0
1464, 1748480090, 0.46824583, -0.77569795, 0.21997826, 0.3615381, 0.515158, -7.597428, -12.441638, 0
1466, 1748513424, 0.47455323, -0.7119938, 0.22575581, 0.4657897, -1.8113407, -11.80649, -5.531201, 0
1467, 1748530091, 0.48503733, -0.66876614, 0.22335348, 0.5173644, -2.9503808, -8.743317, -3.051725, 0
1468, 1748546758, 0.50229084, -0.62006557, 0.21775672, 0.56201994, -3.362943, -7.5345063, 0.7130022, 0
1470, 1748580092, 0.54300106, -0.5117663, 0.19791207, 0.6357182, 2.7424471, -9.585369, 6.4383965, 0
1471, 1748596759, 0.5618856, -0.453687, 0.19116805, 0.6648077, 4.2280564, -4.5678325, 9.501787, 0
1473, 1748630093, 0.57953084, -0.3407221, 0.19490552, 0.71423125, 11.771415, -4.596779, 20.780708, 0
1474, 1748646760, 0.57338756, -0.2832374, 0.2036718, 0.7413386, 8.397854, 1.5590037, 21.695415, 0
1475, 1748663427, 0.55922496, -0.22769934, 0.21065299, 0.7688352, 5.4100933, 5.273082, 22.853958, 0
1477, 1748696761, 0.51542485, -0.1284727, 0.21403064, 0.81980777, -1.2107944, 10.37228, 16.634155, 0
1479, 1748730095, 0.46285552, -0.05550391, 0.19406067, 0.86318386, -0.34166363, 12.108345, 9.105391, 0
1481, 1748763429, 0.41849387, -0.008297108, 0.1731296, 0.8915616, -2.7534242, 12.622165, -1.9166241, 0
1482, 1748780096, 0.40243307, 0.0055646263, 0.16906531, 0.89971966, -2.2828593, 12.022663, -1.3450432, 0
1483, 1748796763, 0.39217868, 0.011595294, 0.1626429, 0.90535665, -3.558958, 12.387593, -0.4874506, 0
1485, 1748830097, 0.38636935, 0.018923823, 0.15662995, 0.9087847, -2.9652205, 11.451739, -0.81736183, 0
1486, 1748846764, 0.38635838, 0.022310983, 0.15957363, 0.9082002, -0.43695548, 11.135327, 0.36724377, 0
1487, 1748863431, 0.38572174, 0.025166225, 0.16046283, 0.9082395, 0.9540827, 11.249091, 2.115512, 0
1489, 1748896765, 0.37756056, 0.0306606, 0.15412104, 0.9125879, 0.9289039, 6.4244776, -1.273323, 0
1490, 1748913432, 0.3707693, 0.03027412, 0.14770992, 0.9164373, 1.1002384, 5.954408, -0.90660286, 0
1491, 1748930099, 0.36291307, 0.030836117, 0.14156732, 0.92052376, -0.39844877, 5.8837147, -1.0892124, 0
1494, 1748980100, 0.33895186, 0.04778143, 0.1409266, 0.92899424, -3.1597786, 8.095448, -2.0541239, 0
1495, 1748996767, 0.3352221, 0.05666868, 0.1414065, 0.92977464, -3.8733597, 7.451403, -4.2937093, 0
1497, 1749030101, 0.33494827, 0.07000508, 0.14586891, 0.9282743, -3.0084786, 8.049781, -5.163796, 0
1498, 1749046768, 0.33651897, 0.072844684, 0.14589651, 0.92748296, -2.1599667, 9.076602, -4.791611, 0
1499, 1749063435, 0.33715773, 0.07423085, 0.14578259, 0.92715895, -2.0308366, 9.922427, -4.7944427, 0
1501, 1749096769, 0.3325185, 0.07475368, 0.14735988, 0.928542, -1.9751766, 10.0318165, -6.461279, 0
1502, 1749113436, 0.32758436, 0.06938854, 0.14748895, 0.93068933, -1.9192415, 10.696715, -7.1094403, 0
1504, 1749146770, 0.31424743, 0.04425596, 0.14585747, 0.937058, -3.03357, 13.843711, -6.700288, 0
1505, 1749163437, 0.30508804, 0.026819706, 0.1449984, 0.9408716, -3.5683546, 16.540264, -5.7756524, 0
1506, 1749180104, 0.29378492, 0.007617671, 0.14621343, 0.9446248, -5.134225, 17.638943, -6.7867374, 0
1508, 1749213438, 0.27730274, -0.03967409, 0.16328761, 0.94600636, -8.064519, 20.829428, -4.968328, 0
1509, 1749230105, 0.27945936, -0.06677072, 0.17518945, 0.9417083, -6.417909, 22.948004, -1.8144975, 0
1510, 1749246772, 0.2911607, -0.09759533, 0.18646784, 0.93326956, -5.6403184, 22.740726, -3.6110992, 0
1512, 1749280106, 0.33721086, -0.17277065, 0.2106998, 0.90116954, -2.957228, 19.553461, -6.3626966, 0
1513, 1749296773, 0.36527535, -0.19785422, 0.2056998, 0.8861021, 11.170193, 58.262123, 60.436573, 1024
1514, 1749313440, 0.3767124, -0.20404467, 0.2002896, 0.8811353, -11.41456, -2.1014416, -14.869675, 1024
1516, 1749346774, 0.39165688, -0.28252524, 0.20901623, 0.85038716, -4.661495, -6.8378015, 0.92392254, 0
1517, 1749363441, 0.39060825, -0.3399878, 0.22195587, 0.82621485, -1.6034871, -5.262877, 6.140506, 0
1518, 1749380108, 0.38602453, -0.4057584, 0.23181973, 0.7954035, 0.32494125, -5.3943152, 1.8517466, 0
1521, 1749430109, 0.36233658, -0.6105654, 0.28498906, 0.64402246, 2.7206542, -18.675838, 8.340406, 0
1522, 1749446776, 0.35702723, -0.67629105, 0.32372737, 0.5571573, 7.718759, -26.153927, 32.227028, 0
1524, 1749480110, 0.341087, -0.72349036, 0.37609136, 0.46780175, 17.269487, -51.93768, 18.04639, 0
1525, 1749496777, 0.33691695, -0.73139, 0.36661744, 0.466057, -22.272861, 19.297976, 10.067619, 0
1526, 1749513444, 0.36560953, -0.7484195, 0.3669811, 0.41422772, 0.82100946, -3.1845198, 13.285721, 0
1528, 1749546778, 0.3963614, -0.780002, 0.35106897, 0.33362702, 17.425274, -28.872427, -5.239553, 0
1529, 1749563445, 0.4002713, -0.7955575, 0.34625202, 0.29503003, 7.7624316, -27.84029, -10.294499, 0
1531, 1749596779, 0.43040684, -0.80360293, 0.3489309, 0.21744289, 0.8542826, -24.52641, -22.587399, 0
1532, 1749613446, 0.44485912, -0.80420995, 0.34536314, 0.19008629, -1.576968, -22.892586, -26.140703, 0
1533, 1749630113, 0.4576562, -0.80359125, 0.33643064, 0.17795546, -3.4545465, -21.76757, -26.07964, 0
1536, 1749680114, 0.48991117, -0.792617, 0.29139376, 0.2165566, -1.8652523, -12.925725, -20.986519, 0
1537, 1749696781, 0.49870116, -0.7832022, 0.27620167, 0.24832682, -0.94946426, -7.698472, -18.615656, 0
1539, 1749730115, 0.5129689, -0.7573025, 0.2522611, 0.31588268, -1.0312625, -7.1476264, -15.779138, 0
1540, 1749746782, 0.5193334, -0.73787093, 0.2434235, 0.35587347, -0.5167662, -8.944084, -14.305084, 0
1541, 1749763449, 0.5248712, -0.71304303, 0.23667598, 0.40015757, -0.57921726, -9.873774, -11.783604, 0
1543, 1749796783, 0.53982896, -0.6445825, 0.2266615, 0.4917159, -2.7300053, -8.026787, -4.814299, 0
1544, 1749813450, 0.55145544, -0.60163534, 0.22383323, 0.5328155, -2.533488, -7.660016, -2.3785367, 0
1545, 1749830117, 0.562308, -0.55733347, 0.22013922, 0.56990325, -2.0610926, -11.139415, 0.6502228, 0
1547, 1749863451, 0.5903286, -0.45321316, 0.20966041, 0.63420385, -1.4131091, -7.511184, 11.858629, 0
1548, 1749880118, 0.6063483, -0.3967441, 0.20419243, 0.6582578, 3.1703663, -5.675904, 13.117535, 0
1551, 1749930119, 0.60587937, -0.22949353, 0.2056369, 0.73349726, 5.7067847, 1.3326707, 18.20714, 0
1552, 1749946786, 0.58966327, -0.17832689, 0.20766231, 0.75989145, 5.798217, 3.018678, 19.584974, 0
1554, 1749980120, 0.53544205, -0.088782005, 0.20134276, 0.8154401, 3.6543472, 8.541767, 14.363171, 0
1555, 1749996787, 0.5020215, -0.051892407, 0.19384089, 0.84129024, 2.3631856, 11.04637, 12.202169, 0
1556, 1750013454, 0.4685433, -0.021702364, 0.18228725, 0.8641929, -1.3589631, 13.23104, 9.717089, 0
1558, 1750046788, 0.41932625, 0.023824882, 0.1566467, 0.8939359, -8.163614, 15.569224, 0.47641945, 0
1559, 1750063455, 0.41068238, 0.04128024, 0.15124172, 0.89823353, -8.379005, 16.494133, -1.2442493, 0
1560, 1750080122, 0.409995, 0.058438372, 0.14919885, 0.8979369, -5.025243, 16.55711, -1.118617, 0
1562, 1750113456, 0.41550046, 0.07931548, 0.14790055, 0.89401096, 0.18025006, 13.090163, -6.429303, 0
1563, 1750130123, 0.4162518, 0.082886346, 0.14781485, 0.8933514, 2.0106463, 14.643445, -3.5658927, 0
1566, 1750180124, 0.40155515, 0.08076692, 0.13929811, 0.901603, 0.7379457, 10.225775, -4.75206, 0
1567, 1750196791, 0.3928814, 0.074945495, 0.13620096, 0.9063876, -0.15229186, 10.034984, -3.23286, 0
1568, 1750213458, 0.38338295, 0.068976745, 0.13303956, 0.91138476, -0.5901788, 8.071849, -2.5471334, 0
1570, 1750246792, 0.36520278, 0.05890171, 0.12653926, 0.92043865, -1.8869549, 7.8471546, -0.9455681, 0
1571, 1750263459, 0.35792553, 0.05776713, 0.124505565, 0.92364085, -2.4715188, 7.549681, -1.729639, 0
1572, 1750280126, 0.3531323, 0.058664944, 0.12344833, 0.9255693, -2.5370734, 7.473179, -2.6631923, 0
1574, 1750313460, 0.35067886, 0.06413411, 0.12432819, 0.92602146, -1.8436995, 8.00241, -5.30821, 0
1575, 1750330127, 0.35119212, 0.066951685, 0.12737371, 0.9252131, -1.4758797, 8.547098, -6.146379, 0
1576, 1750346794, 0.3511597, 0.06814256, 0.13161755, 0.92454433, -0.46685675, 9.486715, -5.8491383, 0
1578, 1750380128, 0.3460095, 0.06493458, 0.13801415, 0.9257834, 0.58725154, 12.542712, -6.616049, 0
1579, 1750396795, 0.3401576, 0.05831143, 0.14168032, 0.9278368, -0.0040981867, 13.603737, -8.599404, 0
1580, 1750413462, 0.33295426, 0.048295904, 0.14803223, 0.9300307, -1.8396151, 17.393368, -7.344154, 0
1582, 1750446796, 0.3232504, 0.024458002, 0.17002633, 0.93062544, -6.613188, 22.794336, -6.726221, 0
1583, 1750463463, 0.32707733, 0.008449905, 0.18444066, 0.9268185, -5.9669237, 24.551617, -8.145233, 0
1585, 1750496797, 0.36125693, -0.046918225, 0.21861592, 0.9052962, -4.5511, 30.538786, -2.4609795, 0
1586, 1750513464, 0.3878313, -0.080688186, 0.2379421, 0.8868605, -2.3554385, 29.023106, -5.89822, 0
1587, 1750530131, 0.4180103, -0.12193829, 0.25986242, 0.86193496, -1.3085909, 24.219257, -15.61415, 0
1589, 1750563465, 0.4703033, -0.15078667, 0.20518854, 0.8450075, -5.746188, -17.51465, -18.676712, 1024
1590, 1750580132, 0.47299337, -0.17392218, 0.20748827, 0.8384743, -5.691703, -4.0565796, 7.623598, 0
1594, 1750646800, 0.44719392, -0.44930345, 0.27497625, 0.7229066, -2.4623113, -11.688009, 14.054373, 0
1595, 1750663467, 0.43855757, -0.52340704, 0.29412594, 0.6687782, -0.776248, -17.470436, 15.927439, 0
1597, 1750696801, 0.4251144, -0.6519449, 0.34518304, 0.52455336, 22.982891, -28.756184, 23.877827, 0
1598, 1750713468, 0.4039659, -0.6931204, 0.37298316, 0.46619874, 32.568855, -63.58564, 43.183765, 0
1599, 1750730135, 0.3788622, -0.69946444, 0.3745249, 0.47645146, 12.4178505, -35.43224, 11.511631, 0
1601, 1750763469, 0.4066917, -0.71153796, 0.38838664, 0.421347, -0.9421911, -9.443795, 6.1433554, 0
1602, 1750780136, 0.42909545, -0.7209034, 0.38694644, 0.38276595, 9.577964, -31.967495, 1.3751726, 0
1603, 1750796803, 0.44357765, -0.73016274, 0.37814632, 0.356607, 5.177105, -26.60461, -5.214938, 0
1605, 1750830137, 0.4762595, -0.7394767, 0.3649887, 0.3052807, -0.023932425, -22.392143, -13.396042, 0
1606, 1750846804, 0.49272192, -0.7400541, 0.35733837, 0.28620997, -1.249137, -22.768293, -16.205725, 0
1609, 1750896805, 0.5236848, -0.74394846, 0.31187564, 0.2740266, -2.296424, -15.9972725, -18.7155, 0
1610, 1750913472, 0.52815264, -0.7443752, 0.29332995, 0.2845694, -1.8334292, -10.814761, -18.300318, 0
1612, 1750946806, 0.5305647, -0.7427718, 0.26145428, 0.31383845, -0.5512976, -8.187272, -17.71995, 0
1613, 1750963473, 0.5314592, -0.73561, 0.25101352, 0.3368724, -0.1613102, -10.7595005, -16.87572, 0
1614, 1750980140, 0.5329244, -0.7213968, 0.24525124, 0.36809206, 0.13840683, -9.446759, -15.692611, 0
1616, 1751013474, 0.53561115, -0.6782623, 0.24268186, 0.44073588, -1.7159473, -6.2044477, -10.974549, 0
1617, 1751030141, 0.5403698, -0.6485562, 0.24321675, 0.47778958, -2.0424297, -9.351658, -7.2712965, 0
1618, 1751046808, 0.54710644, -0.6136611, 0.24254043, 0.5151025, -3.5666409, -7.2027993, -5.5229716, 0
1620, 1751080142, 0.57045805, -0.53101444, 0.23659252, 0.5802475, -3.3525476, -10.943226, 2.8585348, 0
1621, 1751096809, 0.5848017, -0.48500675, 0.22606936, 0.6096967, -0.9914002, -7.4804263, 4.924304, 0
1624, 1751146810, 0.6120366, -0.34169787, 0.21038789, 0.68150747, 8.057374, -4.32988, 12.098799, 0
1625, 1751163477, 0.60404086, -0.29370657, 0.21442646, 0.70919275, 8.128598, -1.8022838, 16.20851, 0
1626, 1751180144, 0.5874698, -0.2489908, 0.21626763, 0.7390351, 6.597847, 1.9173042, 15.997538, 0
1628, 1751213478, 0.5344087, -0.16877085, 0.21439448, 0.80001307, 2.2927928, 6.2143397, 14.137327, 0
1629, 1751230145, 0.5021022, -0.13266471, 0.21065463, 0.8282391, -1.1741239, 8.38356, 12.238762, 0
1630, 1751246812, 0.47080913, -0.10160731, 0.2017632, 0.8528588, -2.3937268, 9.164612, 11.106548, 0
1632, 1751280146, 0.42551604, -0.053805836, 0.17132436, 0.8869897, -4.739709, 11.954651, 4.836629, 0
1633, 1751296813, 0.4156318, -0.033158455, 0.16052632, 0.89467525, -5.199939, 11.955943, 0.4544735, 0
1634, 1751313480, 0.41272494, -0.015551951, 0.15526934, 0.897424, -3.8783314, 11.546457, -1.3010511, 0
1636, 1751346814, 0.4158073, 0.009959724, 0.14970315, 0.89702624, 0.4944456, 11.924454, -0.21453667, 0
1639, 1751396815, 0.41579258, 0.022489287, 0.14770174, 0.8971381, 2.8871481, 9.927204, -1.1490984, 0
1640, 1751413482, 0.4095985, 0.02231989, 0.14621955, 0.9002291, 2.5341077, 9.521314, 0.10090256, 0
1641, 1751430149, 0.4004542, 0.020461395, 0.14298059, 0.9048957, 1.2565358, 8.089556, -1.561862, 0
1643, 1751463483, 0.37862906, 0.009820227, 0.13821203, 0.91515183, 0.14907978, 5.9822106, -1.8668399, 0
1644, 1751480150, 0.36762545, 0.0031321049, 0.13580197, 0.92003345, 0.42048287, 5.926678, -0.2522955, 0
1645, 1751496817, 0.35627747, -0.0019189864, 0.1325449, 0.92496294, 0.23238128, 5.322999, 0.35784817, 0
1647, 1751530151, 0.33313933, -0.0018329807, 0.12688573, 0.93433213, -1.6827122, 5.411284, -0.5338793, 0
1648, 1751546818, 0.32304314, 0.004167229, 0.127117, 0.937832, -2.3944862, 5.478352, -3.1003828, 0
1649, 1751563485, 0.31516916, 0.011805598, 0.13049807, 0.9399793, -3.3008835, 6.14669, -5.116636, 0
1651, 1751596819, 0.30777317, 0.027231697, 0.14102703, 0.94058883, -0.95949036, 13.756715, -2.9996104, 0
1652, 1751613486, 0.30706394, 0.035752814, 0.14177753, 0.94042253, -2.5552847, 14.460208, -7.5359025, 0
1653, 1751630153, 0.30440784, 0.046029724, 0.14631796, 0.94014364, -4.064602, 16.939728, -9.322897, 0
1655, 1751663487, 0.296678, 0.054896183, 0.15565836, 0.94063854, -4.6528206, 16.520672, -15.471814, 0
1656, 1751680154, 0.29535145, 0.048379824, 0.16395584, 0.94000375, -6.88517, 19.689291, -12.696449, 0
1657, 1751696821, 0.29636797, 0.039945032, 0.17499876, 0.93808717, -6.211494, 21.425722, -8.970108, 0
1659, 1751730155, 0.31303927, 0.008629523, 0.201101, 0.92819846, -5.3699703, 24.153784, -6.0452094, 0
1660, 1751746822, 0.32894328, -0.017512739, 0.216185, 0.91913855, -2.4608033, 23.499792, -8.149193, 0
1662, 1751780156, 0.37054324, -0.11941987, 0.22075167, 0.894297, 14.985064, 58.401733, 33.990147, 0
1663, 1751796823, 0.38802344, -0.12103967, 0.18237555, 0.89531463, -31.456978, 37.826733, 38.59352, 0
1666, 1751846824, 0.41264814, -0.23585974, 0.22143877, 0.8515388, 1.721609, -6.6154165, 0.67782974, 0
1667, 1751863491, 0.4111392, -0.2999993, 0.24276984, 0.8258871, -2.5390382, -4.3379674, 3.6020546, 0
1668, 1751880158, 0.40832263, -0.37064648, 0.25368768, 0.7947315, 0.4556608, -6.11895, 5.315029, 0
1670, 1751913492, 0.39627975, -0.51656616, 0.2852108, 0.7034476, -0.806048, -11.923704, 9.491129, 0
1671, 1751930159, 0.3887054, -0.58724916, 0.30733484, 0.6400421, 6.586166, -17.420895, 7.590063, 0
1672, 1751946826, 0.37524292, -0.6597177, 0.33820176, 0.5564591, 18.233637, -21.924858, 23.327625, 0
1674, 1751980160, 0.26136714, -0.7541901, 0.3805763, 0.46702042, 29.767918, -62.45171, 21.643703, 0
1675, 1751996827, 0.21830878, -0.76147956, 0.3779942, 0.4792413, -17.089415, -12.990569, 7.6003666, 0
1676, 1752013494, 0.2421728, -0.7623917, 0.3992612, 0.4480664, -21.993608, -0.30521858, -0.39401913, 0
1678, 1752046828, 0.31748584, -0.76905406, 0.41677058, 0.36622798, 5.5598097, -33.404823, -5.552896, 0
1680, 1752080162, 0.37325433, -0.7663901, 0.40446708, 0.3313542, -2.2325127, -17.120241, -11.467142, 0
1682, 1752113496, 0.43387106, -0.75953734, 0.37725237, 0.30430493, 1.4697508, -12.77555, -14.9481735, 0
1683, 1752130163, 0.45716363, -0.7578741, 0.35852435, 0.296901, 3.100029, -12.167192, -16.60291, 0
1684, 1752146830, 0.47283623, -0.75698197, 0.3392561, 0.29727283, 3.2671788, -13.626552, -18.244606, 0
1686, 1752180164, 0.49198094, -0.7462549, 0.31123072, 0.32288668, -0.44714046, -6.6228266, -16.307999, 0
1687, 1752196831, 0.5020512, -0.73434067, 0.30504742, 0.34014148, -1.1582901, -4.1143637, -15.40229, 0
1688, 1752213498, 0.5122693, -0.7189884, 0.30213577, 0.35973817, -2.1375208, -5.449756, -14.261967, 0
1690, 1752246832, 0.53542364, -0.6761314, 0.30130565, 0.4067486, -5.644973, -3.305162, -11.132079, 0
1691, 1752263499, 0.55035424, -0.64914167, 0.30048066, 0.43069553, -7.0238686, -3.4470422, -9.395207, 0
1693, 1752296833, 0.58630586, -0.5884016, 0.29184103, 0.4742568, -6.127072, -4.4686794, -5.709522, 0
1695, 1752330167, 0.61851585, -0.5216391, 0.27873263, 0.517398, -5.5328236, -5.09653, -3.015171, 0
1697, 1752363501, 0.6460038, -0.45264578, 0.26053977, 0.55675095, -0.81706536, -4.6403165, 2.5999784, 0
1698, 1752380168, 0.65542805, -0.42039895, 0.25002146, 0.57552576, 2.4915044, -5.8330007, 4.525975, 0
1699, 1752396835, 0.6586294, -0.3869964, 0.24283051, 0.5979434, 4.9810953, -6.1893277, 6.478321, 0
1701, 1752430169, 0.63439155, -0.3260095, 0.237659, 0.65942776, -2.3779986, 7.9417086, 14.265444, 0
1702, 1752446836, 0.6165699, -0.29339385, 0.23980796, 0.6901562, 8.229412, -0.014054048, 8.603607, 0
1703, 1752463503, 0.5937754, -0.27145222, 0.23396999, 0.72046125, 3.9372988, 6.184803, 8.939486, 0
1705, 1752496837, 0.54781824, -0.23194231, 0.22557984, 0.7715396, 5.3855324, 7.164778, 7.056244, 0
1706, 1752513504, 0.52542067, -0.21961509, 0.21762764, 0.7927184, 3.3766873, 8.463123, 6.2257786, 0
1707, 1752530171, 0.5041715, -0.20713052, 0.2122322, 0.8111272, 2.511396, 8.433049, 5.7186594, 0
1710, 1752580172, 0.44348186, -0.18078753, 0.20196356, 0.854349, -1.7369388, 9.418717, 2.1478672, 0
1711, 1752596839, 0.42907292, -0.17572115, 0.19746356, 0.8637641, -2.3870494, 8.781408, 3.0541906, 0
1713, 1752630173, 0.41120678, -0.16833204, 0.18597162, 0.87638444, -2.4087474, 7.246205, 0.70730114, 0
1714, 1752646840, 0.40609622, -0.16576216, 0.18114887, 0.8802589, -1.848185, 6.276127, -0.0810318, 0
1715, 1752663507, 0.40225044, -0.16435313, 0.17702582, 0.88312304, -1.369063, 5.51473, 0.6217146, 0
1717, 1752696841, 0.3976212, -0.16253984, 0.16976072, 0.8869731, -0.51322645, 5.126628, 0.692132, 0
1718, 1752713508, 0.3958106, -0.1614035, 0.16698238, 0.8885166, -0.078223445, 4.882756, 0.8497162, 0
1720, 1752746842, 0.390685, -0.1593649, 0.1617105, 0.8921209, 0.7445505, 3.7905169, -0.35119057, 0
1721, 1752763509, 0.38723558, -0.15868065, 0.16063587, 0.893939, -0.036250643, 3.3537922, -0.6322832, 0
