sep=,
DeviceTag:,Xsens_DOT_3,,,,,,,,,,,,,,,,,
FirmwareVersion:,3.0.0,,,,,,,,,,,,,,,,,
AppVersion:,2023.6.1,,,,,,,,,,,,,,,,,
SyncStatus:,Synced,,,,,,,,,,,,,,,,,
OutputRate:,60Hz,,,,,,,,,,,,,,,,,
FilterProfile:,General,,,,,,,,,,,,,,,,,
Measurement Mode:,Sensor fusion Mode - Extended (Quaternion),,,,,,,,,,,,,,,,,
StartTime:,2025-05-05 11:35:31.074 +0200,,,,,,,,,,,,,,,,,
 2025,,,,,,,,,,,,,,,,,,,

PacketCounter,SampleTimeFine,Quat_W,Quat_X,Quat_Y,Quat_Z,FreeAcc_X,FreeAcc_Y,FreeAcc_Z,Status
1, 1724096269, -0.71727747, -0.13344787, 0.6838901, -0.0012616813, 0.025752716, -0.060470425, -0.033446312, 0
2, 1724112936, -0.7173863, -0.13350637, 0.6837643, -0.0013874844, 0.032696817, -0.114596486, -0.047694206, 0
3, 1724129603, -0.71765965, -0.13358878, 0.68346095, -0.0015786514, 0.111136004, -0.08040415, -0.015774727, 0
4, 1724146270, -0.7179459, -0.13370512, 0.68313694, -0.0018262677, 0.056147795, -0.081556916, 0.020730972, 0
5, 1724162937, -0.71822906, -0.13383482, 0.68281305, -0.0020625032, 0.019387066, -0.08399443, 0.011254311, 0
6, 1724179604, -0.71841586, -0.13398491, 0.68258655, -0.0022456795, -0.020284249, -0.112417236, -0.016604424, 0
7, 1724196271, -0.7185348, -0.13412131, 0.682434, -0.0023763776, 0.032568518, -0.11534487, -0.01515007, 0
8, 1724212938, -0.7186408, -0.13427666, 0.68229145, -0.0024886783, 0.08536675, -0.110631764, -0.0368824, 0
9, 1724229605, -0.71871907, -0.13443646, 0.6821768, -0.002653258, 0.018096056, -0.084906645, -0.010889053, 0
10, 1724246272, -0.7188001, -0.13458847, 0.6820607, -0.0028605256, 0.075115554, -0.114053406, -0.02805996, 0
11, 1724262939, -0.718904, -0.1347484, 0.6819187, -0.0030467939, -0.0059731603, -0.108589694, 0.011040688, 0
12, 1724279606, -0.7189256, -0.13492231, 0.6818606, -0.0032222308, 0.01340139, -0.07290059, -0.033273697, 0
13, 1724296273, -0.7190872, -0.13507769, 0.6816585, -0.003446076, 0.07710526, -0.095127895, -0.017902374, 0
14, 1724312940, -0.71919596, -0.13521537, 0.68151546, -0.0036466774, 0.08498275, -0.10110139, -0.04270363, 0
15, 1724329607, -0.7193091, -0.13533938, 0.68137056, -0.0038118567, 0.09362843, -0.08431738, -0.031929016, 0
16, 1724346274, -0.7195643, -0.13549323, 0.6810694, -0.0039777774, 0.06863502, -0.10369749, -0.05604458, 0
17, 1724362941, -0.7198955, -0.13567753, 0.6806817, -0.0041418895, 0.10704438, -0.07651625, -0.008002281, 0
18, 1724379608, -0.7201322, -0.13579221, 0.680408, -0.0041996483, 0.09075431, -0.04593085, 0.06106949, 0
19, 1724396275, -0.72020614, -0.1358517, 0.68031806, -0.0041462015, 0.099139616, -0.03210585, 0.050190926, 0
20, 1724412942, -0.72017944, -0.13584682, 0.68034816, -0.004017327, 0.1199147, -0.07165049, -0.05000305, 0
21, 1724429609, -0.7202283, -0.13582529, 0.6803015, -0.003876917, 0.12831074, -0.07877485, -0.06101322, 0
22, 1724446276, -0.72033644, -0.13580917, 0.6801912, -0.0037058592, 0.11379223, -0.12435763, -0.014181137, 0
23, 1724462943, -0.7202703, -0.13567884, 0.68028903, -0.0034135543, 0.15969777, -0.10604209, 0.061354637, 0
24, 1724479610, -0.72001195, -0.13552211, 0.6805955, -0.0029967278, 0.13511358, -0.09543031, 0.036359787, 0
25, 1724496277, -0.7195163, -0.13541853, 0.6811419, -0.0025262553, -0.0050612274, -0.05424609, -0.036973, 0
26, 1724512944, -0.71870375, -0.13524093, 0.68203604, -0.00206846, -0.15777959, -0.03059937, -0.15752983, 0
27, 1724529611, -0.7180002, -0.13497822, 0.6828296, -0.0017802976, -0.188484, 0.005787868, -0.27962875, 0
28, 1724546278, -0.71741706, -0.13461395, 0.6835145, -0.0016012974, -0.28938937, 9.041099E-5, -0.23112106, 0
29, 1724562945, -0.71693385, -0.1341226, 0.68411803, -0.001420565, -0.26048782, -0.024422366, -0.08674145, 0
30, 1724579612, -0.7168033, -0.13361236, 0.68435514, -0.001260452, -0.045438394, -0.027675765, 0.098127365, 0
31, 1724596279, -0.71703875, -0.13313293, 0.6842022, -0.0010985434, 0.060452603, -0.14847387, 0.2730446, 0
32, 1724612946, -0.71760523, -0.13278598, 0.6836759, -8.385815E-4, 0.27170637, -0.2735987, 0.38960838, 0
33, 1724629613, -0.71844274, -0.13259971, 0.6828322, -4.319176E-4, 0.29009926, -0.30596948, 0.3860798, 0
34, 1724646280, -0.71933246, -0.1326198, 0.6818911, 9.842962E-5, 0.31447288, -0.24422073, 0.2564888, 0
35, 1724662947, -0.72003424, -0.13280733, 0.6811133, 6.845556E-4, 0.18373168, -0.24865277, 0.096087456, 0
36, 1724679614, -0.72042114, -0.13320522, 0.68062544, 0.0012601055, 0.16331913, -0.29602638, -0.08710194, 0
37, 1724696281, -0.7206314, -0.13381289, 0.6802824, 0.0016988553, 0.16980056, -0.32143283, -0.20841217, 0
38, 1724712948, -0.7208348, -0.13450807, 0.6799292, 0.0019116476, 0.16134194, -0.29268593, -0.2216301, 0
39, 1724729615, -0.7210301, -0.13524964, 0.679575, 0.0018583387, 0.1551609, -0.2090207, -0.20726967, 0
40, 1724746282, -0.72116476, -0.13604319, 0.6792744, 0.0016002469, 0.16240048, -0.15411688, -0.14612007, 0
41, 1724762949, -0.7212692, -0.13680159, 0.6790121, 0.0011575744, 0.16706878, -0.15018685, -0.1124897, 0
42, 1724779616, -0.7213181, -0.13756871, 0.6788057, 5.729906E-4, 0.14086322, -0.18038899, -0.06655407, 0
43, 1724796283, -0.72124034, -0.13839506, 0.6787207, -7.34441E-5, 0.20174682, -0.20183381, -0.043619156, 0
46, 1724846284, -0.72106105, -0.14157066, 0.67825335, -0.0019157864, 0.30245146, -0.13752747, 0.058703423, 0
47, 1724862951, -0.7206764, -0.141925, 0.6785861, -0.0025227703, 0.56838185, -0.14330482, 0.21537876, 0
48, 1724879618, -0.71976817, -0.14172804, 0.6795895, -0.0027704798, 0.98306364, -0.13468015, 0.4291916, 0
50, 1724912952, -0.7178883, -0.14268094, 0.68137324, -0.0034464467, 0.7989162, -0.16439673, 0.19516659, 0
55, 1724996287, -0.7110914, -0.15327843, 0.68614525, -0.007883387, 0.012447436, 0.07052951, -0.5317192, 0
56, 1725012954, -0.7095424, -0.15544611, 0.6872396, -0.009513505, -0.06666721, 0.1841331, -0.21743679, 0
58, 1725046288, -0.70693934, -0.15982637, 0.6888608, -0.012875212, -0.110009946, 0.087458216, 0.07141876, 0
59, 1725062955, -0.7058496, -0.16189447, 0.6894595, -0.014663374, -0.1781881, 0.006386603, 0.07550335, 0
63, 1725129623, -0.7027969, -0.16964215, 0.6905803, -0.019987516, -0.34323007, -0.023344811, 0.13259697, 0
67, 1725196291, -0.7027716, -0.17382678, 0.68954116, -0.020783156, -0.41955483, -0.058469426, 0.13370323, 0
68, 1725212958, -0.7028345, -0.17413113, 0.68940985, -0.02046356, -0.2743635, -0.05092072, 0.15038013, 0
79, 1725396295, -0.7052024, -0.17139414, 0.6877861, -0.016324403, 0.2032372, -0.103476666, -0.18171024, 0
86, 1725512964, -0.7086712, -0.17407106, 0.68343973, -0.019930318, 0.0490146, -0.108381435, 0.043107033, 0
87, 1725529631, -0.70923245, -0.17445007, 0.68275934, -0.01996867, -0.011010248, -0.013524434, 0.03783989, 0
88, 1725546298, -0.70993817, -0.17473589, 0.6819549, -0.019880338, 0.078833915, 0.06863904, 0.11736202, 0
91, 1725596299, -0.7111341, -0.17487186, 0.6807058, -0.018721689, 0.0656994, 0.032966036, -0.2820921, 0
95, 1725662967, -0.71393913, -0.17466739, 0.67779255, -0.019548371, 0.10856203, -0.14371291, -0.22053719, 0
106, 1725846304, -0.71290636, -0.17584974, 0.67854774, -0.020415366, -0.19277322, -0.18772037, -0.28998566, 0
107, 1725862971, -0.71235293, -0.1757241, 0.67915434, -0.020646956, -0.21896939, -0.082517795, -0.1761179, 0
108, 1725879638, -0.7116429, -0.17528158, 0.68000585, -0.020870233, -0.22165467, 0.013622556, -0.035951614, 0
110, 1725912972, -0.7100238, -0.1740314, 0.682003, -0.021310477, 0.1560782, -0.059413042, 0.07919502, 0
112, 1725946306, -0.70913357, -0.17412503, 0.6828941, -0.021643229, -0.06666631, -0.15714279, 0.13626766, 0
113, 1725962973, -0.7089482, -0.17441927, 0.68300104, -0.021968748, -0.18769367, -0.31585777, 0.1674385, 0
114, 1725979640, -0.7085324, -0.17452417, 0.68339944, -0.02215879, -0.19447097, -0.16364731, 0.057896614, 0
116, 1726012974, -0.7072656, -0.17236525, 0.6852553, -0.022213902, -0.049716435, 0.19074014, -0.059375763, 0
117, 1726029641, -0.7069596, -0.1711377, 0.6858757, -0.022298608, 0.13951008, 0.1482652, -0.08770943, 0
118, 1726046308, -0.7070035, -0.17026466, 0.6860443, -0.0224084, 0.18521178, 0.08119253, -0.09629059, 0
120, 1726079642, -0.7074412, -0.17009795, 0.68562686, -0.022626247, 0.084182575, -0.04572997, 0.018683434, 0
122, 1726112976, -0.70736265, -0.16993384, 0.68574077, -0.02286623, -0.011023212, -0.0073521235, 0.03286457, 0
124, 1726146310, -0.7061448, -0.16896072, 0.68724924, -0.0224276, -0.082232654, -0.007382968, -0.04811001, 0
125, 1726162977, -0.70575655, -0.16839361, 0.6877915, -0.022291524, 0.10911903, -0.021199198, -0.20228767, 0
126, 1726179644, -0.7056925, -0.16760346, 0.68805337, -0.02218879, 0.15421052, 0.07609644, -0.22393417, 0
128, 1726212978, -0.7059887, -0.16482991, 0.68841624, -0.0222839, 0.1930468, 0.24326067, -0.10968208, 0
129, 1726229645, -0.7063185, -0.16419034, 0.6882349, -0.022157785, 0.28178054, 0.12372062, 0.03501892, 0
131, 1726262979, -0.7066937, -0.16391864, 0.6879196, -0.021999203, 0.39686155, -0.2703883, 0.098633766, 0
132, 1726279646, -0.7070555, -0.16424505, 0.6874609, -0.022274647, 0.45821854, -0.274774, 0.01266098, 0
133, 1726296313, -0.7077781, -0.16498406, 0.6865177, -0.022943713, 0.40917042, -0.30895767, -0.08994007, 0
135, 1726329647, -0.709638, -0.16737969, 0.6839137, -0.025740521, 0.18340266, -0.36520514, -0.06070423, 0
137, 1726362981, -0.71165043, -0.17114672, 0.68071634, -0.02984183, 0.13002509, -0.334442, -0.19188404, 0
139, 1726396315, -0.7134438, -0.17480074, 0.67768914, -0.034391854, 0.14501476, 0.11854546, 0.13571644, 0
140, 1726412982, -0.7139479, -0.17640138, 0.6766298, -0.036549717, 0.062568426, 0.079943545, 0.14628983, 0
141, 1726429649, -0.714141, -0.17787586, 0.6759446, -0.038266502, 0.0071644844, -5.150856E-4, 0.08000851, 0
143, 1726462983, -0.71429527, -0.17920798, 0.6753139, -0.04025822, -0.14535315, 0.16382852, 0.06997204, 0
144, 1726479650, -0.71417516, -0.17896351, 0.67549825, -0.040378977, -0.17722924, 0.31935665, -0.056488037, 0
145, 1726496317, -0.71408606, -0.17834395, 0.6757797, -0.039985303, -0.1745444, 0.3143104, -0.1729002, 0
148, 1726546318, -0.714849, -0.17583524, 0.67577565, -0.037456304, -0.024898002, -0.039225407, -0.050281525, 0
149, 1726562985, -0.7151688, -0.17514654, 0.675653, -0.03678219, -0.10570017, -0.15121892, 0.06937027, 0
151, 1726596319, -0.71505517, -0.17378835, 0.67615896, -0.03613125, 0.090409204, -0.37533906, 0.025115967, 0
154, 1726646320, -0.71586466, -0.17321157, 0.67541593, -0.03676117, 0.14221905, -0.2695188, 0.0022153854, 0
155, 1726662987, -0.7161456, -0.17348626, 0.6750296, -0.03709495, 0.14662763, -0.21666206, 0.12007904, 0
156, 1726679654, -0.7161405, -0.17399165, 0.6748846, -0.03745938, 0.14723961, -0.27753884, 0.076538086, 0
158, 1726712988, -0.7162474, -0.17541234, 0.67433435, -0.038680576, 0.020113036, -0.34737635, 0.021606445, 0
159, 1726729655, -0.7158854, -0.17619495, 0.67447567, -0.039351884, -0.17296103, -0.24291702, -0.004872322, 0
160, 1726746322, -0.7154334, -0.17682038, 0.6747538, -0.039995555, -0.07654827, -0.1354922, -0.045387268, 0
162, 1726779656, -0.71449107, -0.17733978, 0.6755521, -0.041051347, -0.22507218, -0.009832446, -0.18560696, 0
163, 1726796323, -0.71399236, -0.17714189, 0.67610824, -0.0414254, -0.1788184, -0.011146369, -0.18842697, 0
164, 1726812990, -0.7135231, -0.17679176, 0.67668015, -0.041665513, -0.09543511, 0.039556317, -0.14489174, 0
166, 1726846324, -0.71231884, -0.17587756, 0.67817336, -0.041864816, -0.026334297, -0.09943158, -0.023417473, 0
168, 1726879658, -0.7118805, -0.17460442, 0.67896795, -0.0417689, 0.10994781, -0.0678896, 0.119039536, 0
170, 1726912992, -0.7119169, -0.17320842, 0.67932236, -0.041194588, 0.17058821, -0.08213168, 0.13819027, 0
171, 1726929659, -0.71199334, -0.17269884, 0.6793969, -0.040782128, 0.19469722, -0.15191884, 0.15179348, 0
172, 1726946326, -0.712104, -0.17233932, 0.6793977, -0.040355172, 0.22122732, -0.22095306, 0.13750553, 0
174, 1726979660, -0.71248794, -0.17182685, 0.67917264, -0.03954102, 0.033308793, -0.10756868, 0.030269623, 0
175, 1726996327, -0.71283257, -0.17160304, 0.6788882, -0.039186057, 0.05248263, -0.023969194, -0.06459999, 0
176, 1727012994, -0.71322113, -0.17142063, 0.67854226, -0.038906805, -0.028092002, 0.03873334, -0.1356287, 0
178, 1727046328, -0.7137369, -0.17097788, 0.67813843, -0.038434133, -0.05436461, 0.01745748, -0.066007614, 0
179, 1727062995, -0.71369916, -0.17065549, 0.67827195, -0.03821408, -0.076636784, -0.037875723, 0.0012273788, 0
181, 1727096329, -0.7134271, -0.16978867, 0.67879516, -0.03786085, -0.16170223, -0.07891036, -0.13050842, 0
182, 1727112996, -0.71334493, -0.16925165, 0.67902374, -0.037712738, -0.08830818, -0.020060288, -0.14456081, 0
183, 1727129663, -0.7133393, -0.16880704, 0.679142, -0.03768298, -0.0020116167, -0.0029698166, -0.11640835, 0
185, 1727162997, -0.7134902, -0.16834736, 0.67908543, -0.03790261, 0.06733462, -0.21048757, 0.13826466, 0
186, 1727179664, -0.7135464, -0.16803306, 0.67909974, -0.037983187, 0.104704194, -0.20923902, 0.10501766, 0
187, 1727196331, -0.71377987, -0.16769424, 0.6789433, -0.037892822, 0.16861683, -0.05164032, 0.11003971, 0
189, 1727229665, -0.71413445, -0.16713305, 0.6787445, -0.037244804, 0.073058784, -0.08765413, 0.17263317, 0
190, 1727246332, -0.7140958, -0.16682433, 0.67888784, -0.036754962, 0.02924086, -0.0817179, 0.05308342, 0
191, 1727262999, -0.71420795, -0.166608, 0.67885274, -0.036197387, 0.036928363, -0.13578826, -0.027166367, 0
193, 1727296333, -0.71444505, -0.16653365, 0.67868036, -0.03508004, 0.09412667, -0.16587366, -0.07293415, 0
195, 1727329667, -0.71517515, -0.16679278, 0.67786926, -0.034650967, 0.1248445, -0.04592152, -0.18356514, 0
197, 1727363001, -0.7158694, -0.16741697, 0.6769685, -0.034911774, 0.2707882, -0.16076103, -0.038012505, 0
198, 1727379668, -0.7160766, -0.16799, 0.6765859, -0.035326533, 0.23298678, -0.23026747, 0.03232193, 0
199, 1727396335, -0.71630424, -0.16876882, 0.6761248, -0.035825714, 0.22744231, -0.24919526, 0.083045006, 0
201, 1727429669, -0.7170914, -0.17102627, 0.67466754, -0.036831435, 0.19576696, -0.13779429, -0.028492928, 0
202, 1727446336, -0.7176059, -0.17231877, 0.67375433, -0.0374941, 0.13223474, -0.1039043, -0.018490791, 0
203, 1727463003, -0.7182375, -0.17353067, 0.67272496, -0.038285427, 0.09587812, -0.021537932, -0.015160561, 0
205, 1727496337, -0.71933776, -0.17590979, 0.6708347, -0.03990512, 0.04688542, 0.06625941, 0.032515526, 0
206, 1727513004, -0.71934825, -0.17689131, 0.67052704, -0.040542606, -0.023375431, 0.037061352, 0.018902779, 0
208, 1727546338, -0.71912783, -0.17820337, 0.67037374, -0.041234117, 0.120862395, 0.14142056, -0.026817322, 0
210, 1727579672, -0.7191115, -0.17859137, 0.6702944, -0.04113087, 0.036260508, 0.15988642, -0.0112428665, 0
212, 1727613006, -0.7191951, -0.17824171, 0.6703371, -0.040487144, 0.038793355, 0.02260409, -7.343292E-5, 0
213, 1727629673, -0.71917367, -0.17789581, 0.6704864, -0.03991047, 0.058423676, 0.048648473, 0.0036525726, 0
214, 1727646340, -0.719179, -0.17747104, 0.6706338, -0.039224558, 0.096273735, 0.04003888, -0.017988205, 0
216, 1727679674, -0.7192706, -0.17648536, 0.6708746, -0.037849024, 0.10288927, -0.037077557, -0.112724304, 0
217, 1727696341, -0.7194364, -0.17588374, 0.67088175, -0.037372053, 0.14008719, -0.13257223, -0.09204388, 0
218, 1727713008, -0.7195962, -0.17531598, 0.6708779, -0.037032906, 0.15904601, -0.19331205, 0.0033254623, 0
220, 1727746342, -0.7196942, -0.17438409, 0.6710545, -0.036320303, 0.031000353, -0.11685341, 0.0069789886, 0
221, 1727763009, -0.7194116, -0.17391111, 0.6715028, -0.03589871, 0.038356163, -0.047341272, -0.074282646, 0
222, 1727779676, -0.7190639, -0.17347282, 0.6720067, -0.035552997, 0.08163632, -0.09338857, -0.11872387, 0
225, 1727829677, -0.7185866, -0.17250559, 0.672765, -0.035566665, -0.04909954, -0.16382891, -0.044784546, 0
226, 1727846344, -0.7184378, -0.17224696, 0.67298263, -0.035710555, -0.0037880975, -0.1614728, 0.030631065, 0
228, 1727879678, -0.71779084, -0.17186671, 0.6737729, -0.03565372, 0.05729397, -0.062603295, 0.103692055, 0
229, 1727896345, -0.7175226, -0.17158312, 0.6741383, -0.03550895, 0.028977163, -0.08800166, 0.12887478, 0
230, 1727913012, -0.7170919, -0.17124885, 0.67470074, -0.03513603, 0.0062154485, -0.14561987, 0.032338142, 0
232, 1727946346, -0.71648663, -0.17054307, 0.67557013, -0.034202073, -0.074409254, -0.0916307, -0.10191727, 0
233, 1727963013, -0.71621746, -0.16952059, 0.6761237, -0.033981375, 0.6741723, -0.3567871, 1.599411, 0
235, 1727996347, -0.6925305, -0.20712686, 0.6877419, -0.06718548, -6.8062344, 4.072671, 3.3174381, 0
236, 1728013014, -0.70098597, -0.19088289, 0.6838815, -0.06701615, -2.6961374, -7.7612753, -4.3685045, 0
237, 1728029681, -0.7063412, -0.17686146, 0.6825181, -0.06303722, -0.78427464, -3.2454574, -6.6742105, 0
240, 1728079682, -0.7125323, -0.1678624, 0.6805134, -0.03200263, 0.9957274, 3.866305, 4.3553095, 0
241, 1728096349, -0.7129356, -0.16877228, 0.6796661, -0.035992254, 2.2184703, 0.6061163, 1.8531485, 0
243, 1728129683, -0.71189386, -0.17341703, 0.6794506, -0.038514078, 0.11555664, -1.5150471, 0.32664585, 0
244, 1728146350, -0.7123356, -0.17393881, 0.6788261, -0.039003927, -0.43736613, -0.8863841, 0.49280548, 0
245, 1728163017, -0.7127711, -0.1744639, 0.6781605, -0.040255688, -0.4569691, 0.24666958, 0.52503204, 0
247, 1728196351, -0.7133098, -0.17867921, 0.6764166, -0.041547313, -0.26291472, -0.1514084, -0.11668968, 0
248, 1728213018, -0.71358943, -0.1820329, 0.67523044, -0.041481428, -0.47749832, -0.07200794, -0.15954971, 0
249, 1728229685, -0.7139987, -0.18557796, 0.67383, -0.041504506, -0.55836886, -0.038375944, -0.13561153, 0
251, 1728263019, -0.7167726, -0.18822253, 0.67007756, -0.04252222, -0.35395646, 0.12546721, -0.033301353, 0
252, 1728279686, -0.7177663, -0.18796906, 0.66906834, -0.04277428, -0.19382864, 0.41397774, -0.19591141, 0
253, 1728296353, -0.7188978, -0.18759736, 0.6679445, -0.042964835, -0.19820413, 0.50955266, -0.14092731, 0
255, 1728329687, -0.7202249, -0.1866653, 0.6668212, -0.042241294, -0.26252267, 0.23448464, -0.2384634, 0
256, 1728346354, -0.72053, -0.18629698, 0.66663504, -0.041598625, -0.35111874, 0.07709185, -0.25555325, 0
257, 1728363021, -0.7206237, -0.18582465, 0.66670364, -0.04098371, -0.29441753, -0.0641642, -0.23240566, 0
259, 1728396355, -0.72111803, -0.18426247, 0.6666713, -0.039851427, -0.03787293, -0.054227147, 0.1311779, 0
260, 1728413022, -0.7210993, -0.18319581, 0.66702914, -0.039114784, -0.025777303, 0.059687234, 0.10899258, 0
261, 1728429689, -0.72097456, -0.18198922, 0.66754353, -0.038261972, 0.016967762, 0.139823, -0.014644623, 0
263, 1728463023, -0.7202538, -0.18006411, 0.66893893, -0.03653215, 0.07315579, -0.13749684, 0.026303291, 0
264, 1728479690, -0.7199222, -0.17940392, 0.6695129, -0.035799693, 0.032826006, -0.20731631, -0.054499626, 0
267, 1728529691, -0.7197567, -0.17846549, 0.6699889, -0.034900054, 0.03833918, -0.07021693, -0.1484375, 0
268, 1728546358, -0.7196134, -0.17854953, 0.6701203, -0.034900706, 0.05971104, -0.122867644, -0.14439583, 0
270, 1728579692, -0.71954036, -0.17941962, 0.669934, -0.035514932, 0.06847275, -0.18945836, -0.057154655, 0
271, 1728596359, -0.7195729, -0.1799976, 0.6697171, -0.036018576, 0.011595405, -0.09948014, 0.0023355484, 0
272, 1728613026, -0.71965504, -0.18065095, 0.6694229, -0.036571592, -0.040393263, -0.077533625, -0.045632362, 0
274, 1728646360, -0.71950305, -0.18192577, 0.66919416, -0.03741963, -0.065858096, -0.033951283, -0.046165466, 0
275, 1728663027, -0.7195175, -0.18257955, 0.66898054, -0.037774224, -0.09408599, -0.13590169, -0.011591911, 0
276, 1728679694, -0.71948767, -0.18307017, 0.6688566, -0.03816704, -0.13615829, -0.23912321, 0.056028366, 0
278, 1728713028, -0.7192814, -0.18345758, 0.6689307, -0.038883127, -0.073173225, -0.012440172, 0.13400364, 0
279, 1728729695, -0.71908045, -0.18362372, 0.6690925, -0.03903389, -0.03606344, -0.025383402, 0.06948471, 0
282, 1728779696, -0.7182904, -0.18357906, 0.66996723, -0.038783845, -0.037323087, -0.21505427, -0.014146805, 0
283, 1728796363, -0.7178934, -0.18368022, 0.67036825, -0.038728375, -0.010974933, -0.25899732, -0.063877106, 0
284, 1728813030, -0.7176528, -0.1838587, 0.6705705, -0.03883854, -0.03730297, -0.24756491, -0.07873535, 0
286, 1728846364, -0.7171533, -0.18393646, 0.6710531, -0.039356705, -0.050043657, -0.13893576, -0.06808567, 0
287, 1728863031, -0.71687937, -0.18387845, 0.6713403, -0.03972043, 0.039991386, -0.04299674, -0.0033836365, 0
289, 1728896365, -0.71607244, -0.18379715, 0.6721919, -0.04024654, -0.008493492, -0.03913153, 0.045484543, 0
290, 1728913032, -0.7156023, -0.18366417, 0.6727226, -0.040346123, -0.013320925, -0.034745984, 0.03663826, 0
291, 1728929699, -0.71519804, -0.18350613, 0.6731948, -0.040357586, 0.015191281, -0.09781687, 0.044303894, 0
293, 1728963033, -0.7143193, -0.18276262, 0.6743463, -0.04006934, 0.016244028, 0.011856804, -0.02450943, 0
294, 1728979700, -0.71383274, -0.18226969, 0.67500323, -0.039922863, 0.11434163, -0.016121207, -0.05151081, 0
298, 1729046368, -0.71246934, -0.18123706, 0.6767395, -0.03958529, 0.08407485, -0.09007539, -0.09845829, 0
299, 1729063035, -0.71226794, -0.1811954, 0.67695826, -0.03965801, 0.07989739, -0.05127007, -0.10722542, 0
301, 1729096369, -0.71184945, -0.1809435, 0.6774461, -0.03998894, 0.04942363, -0.056300454, -0.060483932, 0
302, 1729113036, -0.71176165, -0.18089518, 0.6775447, -0.040100973, 0.044195663, -0.123505436, 0.046858788, 0
303, 1729129703, -0.7116028, -0.18090501, 0.6777029, -0.04020365, 0.065979235, -0.098278984, 0.09352398, 0
305, 1729163037, -0.7112448, -0.18057324, 0.67815995, -0.04032343, 0.06206731, -0.044816136, 0.10426426, 0
306, 1729179704, -0.7109794, -0.18034545, 0.6784997, -0.040308468, 0.11688789, -0.04153217, 0.06920338, 0
307, 1729196371, -0.71080106, -0.1800048, 0.678787, -0.04013837, 0.11554457, -0.008939289, 0.0073890686, 0
309, 1729229705, -0.71065325, -0.17933425, 0.6791456, -0.039690956, 0.16660611, 0.030904131, 0.011216164, 0
310, 1729246372, -0.71041733, -0.17913556, 0.67945594, -0.039496504, 0.22399575, -0.10825269, 0.0082063675, 0
313, 1729296373, -0.7093064, -0.1788624, 0.6807016, -0.039250262, 0.27111092, -0.2889456, 0.05168152, 0
314, 1729313040, -0.66568017, -0.18706799, 0.7212327, -0.04124903, 2.5144591, 5.4584126, 14.200834, 0
316, 1729346374, -0.66387326, -0.21355753, 0.7129904, -0.07288854, -7.348538, -0.6662538, -3.8379893, 0
317, 1729363041, -0.6647923, -0.20913777, 0.7134646, -0.07268806, 2.4442656, -8.319861, -4.4787693, 0
318, 1729379708, -0.6642086, -0.20804018, 0.7148681, -0.06717529, 2.1165502, -5.271883, -1.5783157, 0
320, 1729413042, -0.6654083, -0.1949253, 0.71859485, -0.053479016, 0.7663522, 4.9411616, 2.9709072, 0
321, 1729429709, -0.6687463, -0.19034332, 0.7168252, -0.052077293, 1.6908206, 2.9535372, 2.8614225, 0
322, 1729446376, -0.67164177, -0.18953054, 0.714414, -0.050898895, 0.7784831, 0.19687949, 1.6502237, 0
324, 1729479710, -0.6731668, -0.18971103, 0.71309894, -0.04846364, -0.086954586, -0.824898, 0.45018864, 0
325, 1729496377, -0.6727037, -0.19034252, 0.71340096, -0.0479708, -0.50446653, -1.1071993, -0.3944416, 0
326, 1729513044, -0.67223567, -0.19127858, 0.71363246, -0.047361583, -0.5345558, -0.53545356, -0.73989296, 0
328, 1729546378, -0.6725692, -0.19401172, 0.71268785, -0.045704655, -0.62849146, -0.16828208, -0.5439186, 0
330, 1729579712, -0.6753473, -0.1961216, 0.70957655, -0.044112645, -0.4785658, 0.034973186, -0.09437466, 0
332, 1729613046, -0.67956257, -0.19549234, 0.7056842, -0.044607934, -0.47774956, 0.05741623, 0.028916359, 0
333, 1729629713, -0.6818532, -0.19480309, 0.70363367, -0.045061253, -0.4114252, 0.17721303, -0.19299889, 0
334, 1729646380, -0.68452585, -0.19426453, 0.7011332, -0.045832407, -0.3884861, 0.13318813, -0.260355, 0
336, 1729679714, -0.69057786, -0.19284002, 0.6954453, -0.047681, -0.27441847, -0.0658296, 0.029037476, 0
337, 1729696381, -0.6930738, -0.19187672, 0.6932003, -0.04804216, -0.36166006, -0.009502765, 0.21185684, 0
338, 1729713048, -0.69449437, -0.19082099, 0.69211286, -0.047408223, -0.4170828, 0.13379173, 0.41446018, 0
341, 1729763049, -0.6958829, -0.1871097, 0.69192743, -0.044453602, -0.27184585, 0.011048245, -0.013273239, 0
343, 1729796383, -0.69708854, -0.18415752, 0.6915998, -0.042963557, -0.08232295, 0.05426984, 0.048747063, 0
344, 1729813050, -0.69765, -0.18265346, 0.69147646, -0.042249132, -0.09600239, -0.04474528, 0.072330475, 0
345, 1729829717, -0.6982917, -0.18158509, 0.6911484, -0.04161704, 0.020419365, -0.1428914, -0.041401863, 0
347, 1729863051, -0.7000885, -0.18034661, 0.68968296, -0.041126113, 0.325518, -0.17472717, -0.09419155, 0
348, 1729879718, -0.70142037, -0.18026695, 0.68833643, -0.041340392, 0.44895974, -0.19331211, 0.18128681, 0
349, 1729896385, -0.70261097, -0.18075392, 0.6869657, -0.041794445, 0.4026805, -0.3027758, 0.28520298, 0
351, 1729929719, -0.7047683, -0.18297173, 0.6840311, -0.04389943, 0.44368887, -0.29845116, -0.01799202, 0
352, 1729946386, -0.70603424, -0.18465294, 0.6821616, -0.045574304, 0.4355293, -0.25884476, 0.01162529, 0
353, 1729963053, -0.70726216, -0.1866523, 0.68021876, -0.047393896, 0.40039352, -0.16057248, 0.11892319, 0
356, 1730013054, -0.7105975, -0.19313493, 0.67452836, -0.052576236, -0.017314654, 0.2553318, -0.1651907, 0
357, 1730029721, -0.71185076, -0.1952972, 0.67245746, -0.054141168, 0.04053497, 0.31160378, -0.2988634, 0
359, 1730063055, -0.71493363, -0.19937646, 0.6677483, -0.056866337, 0.016559182, 0.21154608, -0.25252247, 0
360, 1730079722, -0.71658236, -0.20152079, 0.665231, -0.058047004, 0.20700474, 0.0552153, -0.31219196, 0
361, 1730096389, -0.71829486, -0.20400812, 0.66251916, -0.059196092, 0.24659732, -0.11128679, -0.35853672, 0
363, 1730129723, -0.7214078, -0.20961218, 0.6571438, -0.06162725, 0.33057612, -0.36820725, -0.40414906, 0
364, 1730146390, -0.7226897, -0.21210255, 0.6547914, -0.06311093, 0.44349128, -0.36588228, -0.27216244, 0
365, 1730163057, -0.724089, -0.21466988, 0.6522315, -0.064874195, 0.44104248, -0.31905898, -0.1423521, 0
367, 1730196391, -0.727114, -0.22009657, 0.64651394, -0.06989293, 0.5980876, -0.4193534, 0.10953045, 0
368, 1730213058, -0.7287524, -0.2230193, 0.6432747, -0.0733664, 0.86538494, -0.26190287, 0.29095554, 0
371, 1730263059, -0.73332894, -0.23531882, 0.63198835, -0.086297706, 0.7085982, -0.27202052, 0.37337685, 0
372, 1730279726, -0.73518795, -0.23976809, 0.62753665, -0.09060998, 0.5814122, -0.11540075, 0.15521526, 0
374, 1730313060, -0.7399193, -0.2505394, 0.6164657, -0.098601, 0.63699764, -0.11256604, 0.030004501, 0
375, 1730329727, -0.74238765, -0.25607643, 0.6106088, -0.10220117, 0.5008465, -0.061575808, 0.061552048, 0
376, 1730346394, -0.74492353, -0.26128381, 0.60468507, -0.105727166, 0.4056255, 0.103586964, 0.09102154, 0
378, 1730379728, -0.7497297, -0.27087447, 0.5930866, -0.11306417, 0.47707364, 0.037330903, 0.28255844, 0
379, 1730396395, -0.75242144, -0.27539966, 0.5869308, -0.1163281, 0.42510957, -0.035147525, 0.3523674, 0
380, 1730413062, -0.755444, -0.2796096, 0.58043826, -0.11923532, 0.569874, -0.33881244, 0.20886517, 0
382, 1730446396, -0.7629355, -0.28530148, 0.56700194, -0.12265442, 0.54466844, 0.2880665, -0.08175278, 0
384, 1730479730, -0.7711574, -0.28987646, 0.55259126, -0.12622781, 0.2226274, 0.4030484, -0.00207901, 0
387, 1730529731, -0.7847754, -0.28808594, 0.53284466, -0.13120049, 0.95948726, 0.9982367, -0.3883047, 0
388, 1730546398, -0.7893631, -0.28580594, 0.52711296, -0.13181667, 0.9477752, 1.6746942, -0.44153404, 0
390, 1730579732, -0.7993499, -0.28346547, 0.51303923, -0.13221389, 1.9370909, 1.5261425, 0.71240807, 0
392, 1730613066, -0.8117785, -0.27806255, 0.49605268, -0.13278332, 2.1714253, 0.942333, -0.9143114, 0
394, 1730646400, -0.82212377, -0.27032286, 0.4836165, -0.13097993, 2.309757, 1.2602203, -0.46000004, 0
395, 1730663067, -0.82715946, -0.26608378, 0.47787592, -0.12901102, 2.320244, 1.2804105, -0.5513172, 0
396, 1730679734, -0.83194095, -0.26204488, 0.47249627, -0.12631917, 2.628101, 1.5821785, -0.20595074, 0
398, 1730713068, -0.8405387, -0.25629157, 0.46184415, -0.12046531, 2.129457, 1.4830081, -0.6404648, 0
399, 1730729735, -0.84454745, -0.252586, 0.45727465, -0.11765471, 2.4565701, 1.5567415, -0.8736439, 0
401, 1730763069, -0.8525053, -0.24372685, 0.44871932, -0.1117395, 2.0544055, 1.0802106, -1.3589001, 0
402, 1730779736, -0.8563393, -0.23825233, 0.44537005, -0.10754979, 1.7091571, 1.0241083, -2.0013437, 0
403, 1730796403, -0.8597427, -0.23368305, 0.44226372, -0.10315183, 1.66188, 0.86976737, -2.2450066, 0
405, 1730829737, -0.8652815, -0.22699046, 0.4365155, -0.09602091, 1.3586963, 0.32963848, -2.723423, 0
406, 1730846404, -0.8676604, -0.2234774, 0.43412238, -0.09361498, 1.5913436, 0.44153923, -3.0607772, 0
407, 1730863071, -0.87018, -0.21822917, 0.43241, -0.09048183, 1.2057809, 0.5341592, -3.633068, 0
409, 1730896405, -0.92084694, -0.12368153, 0.36936653, -0.017737465, 5.3270736, 21.239635, -14.061924, 0
410, 1730913072, -0.9174325, -0.15554714, 0.36290514, -0.049245425, 2.0999186, 6.0870595, 3.8411303, 0
413, 1730963073, -0.9224723, -0.15512957, 0.3482718, -0.060738217, -4.298054, -2.9722083, -10.465401, 0
414, 1730979740, -0.89411956, -0.20029981, 0.39111957, -0.086361006, 6.4819202, -3.559508, -14.286924, 0
417, 1731029741, -0.88963306, -0.18697718, 0.40634698, -0.09207192, 9.969638, 5.618846, 7.5654087, 0
418, 1731046408, -0.889971, -0.1824175, 0.40750924, -0.09281328, 7.5078053, 4.0908284, 7.619528, 0
419, 1731063075, -0.8911662, -0.18306091, 0.40458652, -0.09286572, 9.467735, 4.862114, 11.390427, 0
421, 1731096409, -0.8936613, -0.20015562, 0.38954744, -0.097789615, 9.501342, 1.2351838, 12.9262905, 0
422, 1731113076, -0.89525354, -0.20546696, 0.38210365, -0.101505816, 5.022817, 4.565353, 12.241781, 0
424, 1731146410, -0.8974338, -0.21681067, 0.36775059, -0.11120965, -0.34090555, -0.13527474, 6.706423, 0
425, 1731163077, -0.8986342, -0.21601833, 0.36403418, -0.115213886, -1.3837602, -0.72596586, 4.1550694, 0
426, 1731179744, -0.9000974, -0.21164007, 0.36218828, -0.11770858, -1.4158437, -0.65637505, 1.8410387, 0
428, 1731213078, -0.90311927, -0.19777673, 0.36196077, -0.11936131, -2.9685695, 0.33856916, 0.9237528, 0
429, 1731229745, -0.90315825, -0.19463205, 0.36232594, -0.12306963, -1.5205108, -1.5645428, -0.69464016, 0
432, 1731279746, -0.9002146, -0.18049271, 0.3748408, -0.12858036, 0.36909968, -0.41125435, -2.8545947, 0
433, 1731296413, -0.89888483, -0.1751122, 0.3803336, -0.12919249, 0.06844213, -0.5931055, -3.116068, 0
434, 1731313080, -0.8973612, -0.1711312, 0.38558814, -0.12954287, 0.056329064, -0.3998328, -3.0466752, 0
436, 1731346414, -0.8937451, -0.16534069, 0.3969396, -0.1277635, -0.15632944, -0.7771619, -3.0937557, 0
438, 1731379748, -0.8896384, -0.1574817, 0.41047993, -0.12349829, -0.5470296, -0.9903507, -2.9674382, 0
440, 1731413082, -0.8842768, -0.15322973, 0.4241278, -0.121215686, -0.2500055, -1.0886581, -2.2519965, 0
441, 1731429749, -0.88148326, -0.1517204, 0.4304283, -0.12125251, -0.16547915, -1.710508, -1.9199553, 0
442, 1731446416, -0.8788248, -0.1489071, 0.43703395, -0.12040529, -0.12430271, -2.0429626, -1.7380829, 0
444, 1731479750, -0.87238663, -0.14083682, 0.4529953, -0.117916755, 0.10989852, -1.4929876, -1.2490501, 0
445, 1731496417, -0.8690999, -0.1386755, 0.45995557, -0.11780456, 0.038725182, -1.359762, -1.2151337, 0
448, 1731546418, -0.86138994, -0.13615884, 0.47527716, -0.11654444, -0.5357174, -0.8859211, -0.9393549, 0
449, 1731563085, -0.85957277, -0.13619286, 0.47885245, -0.11527856, -0.73480934, -0.29962486, -0.7602396, 0
450, 1731579752, -0.85737765, -0.13593929, 0.4827606, -0.11562424, -0.7048101, -0.5784334, -0.6586199, 0
452, 1731613086, -0.85261816, -0.13681675, 0.48992264, -0.119590625, -0.5350368, -1.2025591, -0.49438667, 0
453, 1731629753, -0.85008323, -0.13734831, 0.4935954, -0.12190111, -0.45027086, -1.1742094, -0.6379595, 0
455, 1731663087, -0.8456536, -0.1334874, 0.5019948, -0.12269858, -0.107601374, -0.053764757, -0.85736275, 0
456, 1731679754, -0.84337, -0.13169348, 0.5066258, -0.12131292, -0.20413707, 0.1309568, -0.23232651, 0
459, 1731729755, -0.83768845, -0.13182537, 0.5176604, -0.11371124, -0.45769328, 0.31822366, -1.4292841, 0
460, 1731746422, -0.83714247, -0.13100177, 0.51940304, -0.110697344, -0.32020155, 0.13016239, -1.8051367, 0
461, 1731763089, -0.8371997, -0.1295499, 0.5203471, -0.10749264, -0.67023647, -0.40294078, -2.3288736, 0
464, 1731813090, -0.8412421, -0.12550914, 0.51648957, -0.0989963, -1.0003741, -1.6184039, -4.5145273, 0
467, 1731863091, -0.84869856, -0.11776426, 0.5070813, -0.09334686, 0.32119024, -1.9457589, -7.609916, 0
468, 1731879758, -0.85134715, -0.12125604, 0.5014385, -0.09522241, 1.1851616, -2.7321007, -8.132103, 0
469, 1731896425, -0.8548669, -0.12175146, 0.49508736, -0.09628138, -1.0754995, -1.8086627, -5.514419, 0
471, 1731929759, -0.8637033, -0.08184104, 0.49052438, -0.08189624, -4.4205337, 2.008053, 0.69006824, 0
472, 1731946426, -0.8674165, -0.069209576, 0.4874359, -0.07216426, 2.356288, 3.589924, 3.1619473, 0
475, 1731996427, -0.87497944, -0.09674304, 0.46964422, -0.066998824, 10.766502, 0.046872567, 11.891129, 0
479, 1732063095, -0.88324165, -0.08884734, 0.45457628, -0.073164776, 9.347725, 3.0204375, 8.926516, 0
480, 1732079762, -0.88520706, -0.09420707, 0.4488616, -0.07784207, 7.9926767, 2.648656, 5.9199934, 0
482, 1732113096, -0.8881288, -0.10490324, 0.43904585, -0.08639322, 4.144838, 2.1826978, 0.08973789, 0
483, 1732129763, -0.8892496, -0.116386116, 0.43305665, -0.09029875, -0.14304851, 0.7291471, -3.168683, 0
484, 1732146430, -0.8902762, -0.13023129, 0.42548048, -0.097041026, -3.8454547, -0.6518983, -4.726715, 0
486, 1732179764, -0.8930399, -0.13653848, 0.41566417, -0.10518065, -2.1876147, 0.54924756, -0.89139557, 0
487, 1732196431, -0.89475113, -0.13667691, 0.41102287, -0.10864083, -1.530486, 0.51374835, -0.27400017, 0
488, 1732213098, -0.8963409, -0.13966975, 0.40505388, -0.11401413, -0.9782941, -0.16950195, 0.49016094, 0
490, 1732246432, -0.8983921, -0.14699644, 0.393326, -0.12876679, -0.95948946, -0.60310274, 0.23142147, 0
491, 1732263099, -0.89855635, -0.15092207, 0.38863245, -0.1370638, -1.446518, -0.79181427, -0.5434542, 0
492, 1732279766, -0.8984933, -0.15253858, 0.38545164, -0.1444699, -1.2779495, -0.64674497, -0.64742565, 0
494, 1732313100, -0.89746964, -0.15270385, 0.38257715, -0.15769279, -1.1180445, 0.95107824, -0.078440666, 0
496, 1732346434, -0.89464766, -0.15181085, 0.38468456, -0.16905433, -1.0428164, 0.62166774, -0.28443336, 0
498, 1732379768, -0.89059645, -0.15078326, 0.3907793, -0.17719057, -1.3166469, 1.0189224, -0.67797947, 0
500, 1732413102, -0.88642913, -0.14709218, 0.40024662, -0.18003519, -0.7326846, 0.4175982, -0.79741, 0
502, 1732446436, -0.88209134, -0.14650212, 0.4092193, -0.18164292, -0.6188609, 0.06438525, -0.8428192, 0
503, 1732463103, -0.8797425, -0.14653671, 0.41444862, -0.1811496, -0.40008527, 0.025550548, -1.2468748, 0
505, 1732496437, -0.87541175, -0.14174372, 0.42688543, -0.1770159, -0.28830042, 0.15953897, -1.543891, 0
506, 1732513104, -0.87315136, -0.14062735, 0.432671, -0.17501207, -0.35668623, -0.08933064, -1.5198965, 0
507, 1732529771, -0.8706616, -0.14102983, 0.43807158, -0.17365167, -0.6443738, -0.8034624, -1.5103111, 0
509, 1732563105, -0.86506224, -0.14170207, 0.45000458, -0.17054746, -0.7230602, -0.3151073, -1.5801458, 0
510, 1732579772, -0.86191964, -0.14028452, 0.45687032, -0.16937101, -0.38595712, -0.6773679, -1.1918774, 0
514, 1732646440, -0.8501237, -0.13210253, 0.48306537, -0.1627543, -0.027468849, 0.18518998, -0.49495697, 0
515, 1732663107, -0.84720916, -0.12983194, 0.48933762, -0.16103315, 0.17933004, -0.30592403, -0.804656, 0
518, 1732713108, -0.8424201, -0.12906677, 0.49882904, -0.15761447, -0.06830422, -1.5404189, 0.44256306, 0
519, 1732729775, -0.8410366, -0.12820715, 0.50146353, -0.15734427, -0.23230462, -1.3721277, 0.47532272, 0
521, 1732763109, -0.83843714, -0.12903234, 0.5050188, -0.15916224, -0.262119, -0.69310504, -0.27138233, 0
522, 1732779776, -0.837429, -0.13021371, 0.50584996, -0.16085912, -0.40103945, -0.175534, -0.42813206, 0
523, 1732796443, -0.83699805, -0.13158804, 0.5057435, -0.16231203, -0.48212504, -0.7825377, -0.28810787, 0
525, 1732829777, -0.83603674, -0.13649435, 0.50525653, -0.16471215, -0.32109693, -0.5155031, -0.39861012, 0
527, 1732863111, -0.835804, -0.14303963, 0.5025577, -0.1685519, -0.2850463, -0.6603237, -1.4046345, 0
529, 1732896445, -0.83672094, -0.14808495, 0.49897712, -0.17027506, 0.07569825, -0.79872674, -2.56081, 0
531, 1732929779, -0.8395918, -0.15364428, 0.49314266, -0.16820195, -0.36030602, -1.2804176, -3.1756673, 0
533, 1732963113, -0.8455054, -0.15689117, 0.4831755, -0.1644675, -1.4519857, -0.47246426, -5.263811, 0
534, 1732979780, -0.8494121, -0.15298067, 0.47859842, -0.16137615, -0.8517257, -0.11852146, -6.707861, 0
536, 1733013114, -0.857772, -0.14397033, 0.46884683, -0.1538997, 0.06407524, -1.9061742, -7.942506, 0
537, 1733029781, -0.8609886, -0.14614008, 0.46264708, -0.15264936, 2.5692267, -2.0858777, -8.615728, 0
538, 1733046448, -0.8645377, -0.14974968, 0.45514774, -0.15163328, 0.47510484, -1.7774688, -5.999607, 0
540, 1733079782, -0.87147623, -0.13468201, 0.449942, -0.14122632, 0.68860185, 3.386616, 1.7683706, 0
541, 1733096449, -0.87453455, -0.13121209, 0.44634494, -0.1369353, 8.167193, 5.4972534, 5.9341745, 0
544, 1733146450, -0.8858497, -0.1309058, 0.4273765, -0.1244412, 10.643576, 2.6410072, 12.160913, 0
546, 1733179784, -0.8931289, -0.1329783, 0.4135758, -0.11659748, 10.130013, 2.5697181, 10.42486, 0
549, 1733229785, -0.9023154, -0.14409375, 0.39029822, -0.11284402, 0.33631772, 2.7666152, 2.6568108, 0
550, 1733246452, -0.90371585, -0.15531258, 0.38159245, -0.116472155, -2.169542, 0.57165796, 1.3970232, 0
552, 1733279786, -0.9056983, -0.15674965, 0.37484208, -0.1209797, -3.6172252, -1.0786244, 0.5413208, 0
553, 1733296453, -0.9067156, -0.15511382, 0.3722423, -0.123470366, 0.24746951, 0.13724087, 3.5648403, 0
554, 1733313120, -0.9070515, -0.15646856, 0.36931354, -0.12800413, 0.8970541, -1.3500594, 3.6557798, 0
556, 1733346454, -0.9057061, -0.16069537, 0.3658823, -0.14144298, -0.5997856, -1.6994355, 0.46476936, 0
557, 1733363121, -0.90446204, -0.16213796, 0.36573818, -0.14797913, -0.58776754, -0.39279038, 0.40061855, 0
559, 1733396455, -0.9013166, -0.16581963, 0.36720878, -0.1590367, -0.6939366, 0.8048249, 0.077082634, 0
560, 1733413122, -0.8996224, -0.16803046, 0.3685808, -0.16308428, -0.83853257, 1.0170702, 0.22304153, 0
563, 1733463123, -0.89378536, -0.1735682, 0.37717438, -0.16959919, -1.0148876, 0.8666022, -0.37351608, 0
565, 1733496457, -0.8889856, -0.17499042, 0.38668954, -0.17192087, -0.7347414, 0.3501459, -0.7416706, 0
567, 1733529791, -0.88317, -0.17497607, 0.39899442, -0.1737817, -0.083682135, -0.22364035, -0.9710121, 0
568, 1733546458, -0.8802981, -0.17444706, 0.4055305, -0.17375615, 0.24872455, -0.39961284, -0.71680164, 0
571, 1733596459, -0.8708124, -0.17115912, 0.4278943, -0.1711709, 0.18958436, -0.8816979, -0.67775154, 0
573, 1733629793, -0.8633082, -0.16907972, 0.4448309, -0.16804467, 0.102786906, -0.13568902, -1.8272233, 0
575, 1733663127, -0.8560812, -0.16545956, 0.46155733, -0.16344914, -0.24728289, -1.1347201, -1.9813151, 0
579, 1733729795, -0.83469397, -0.17442676, 0.4954294, -0.16557056, 1.0509498, -0.7274017, -2.614633, 0
580, 1733746462, -0.83004737, -0.17327522, 0.50371677, -0.1651341, 0.87172514, -0.7016558, -2.1872888, 0
581, 1733763129, -0.8262978, -0.17371336, 0.51003873, -0.1640695, 0.13417795, -0.6396345, -1.3682985, 0
584, 1733813130, -0.81679994, -0.17079774, 0.5276403, -0.15894705, -0.5667812, -0.6867628, -1.1001034, 0
587, 1733863131, -0.80825996, -0.16752599, 0.5430968, -0.15394609, -1.3576709, -0.61437637, 0.004462242, 0
588, 1733879798, -0.80520016, -0.16353954, 0.549506, -0.15150219, -0.88044345, -1.0172321, 0.03500557, 0
590, 1733913132, -0.7986571, -0.15986614, 0.56073767, -0.14888038, -1.0752162, -1.3985859, -0.057175636, 0
591, 1733929799, -0.7958909, -0.15597712, 0.566309, -0.14671604, -0.9213021, -0.70160425, -0.2687044, 0
592, 1733946466, -0.79424894, -0.15195364, 0.5700598, -0.1453038, 0.19369274, -1.1160843, 0.05351925, 0
594, 1733979800, -0.79298276, -0.1524383, 0.57181394, -0.14481777, 0.39058217, -1.0435243, 1.2230682, 0
595, 1733996467, -0.7935246, -0.15329285, 0.57101417, -0.14410171, 0.3723851, 0.12855549, 1.0170221, 0
596, 1734013134, -0.7950254, -0.1524929, 0.5691702, -0.14397381, 0.21444057, 0.029960124, -0.27493286, 0
598, 1734046468, -0.8000395, -0.15492728, 0.56134313, -0.14433046, -0.23702252, -1.0677031, -0.8603773, 0
600, 1734079802, -0.80618876, -0.16241316, 0.550265, -0.1445435, -1.5478384, -0.5532194, -1.8624525, 0
602, 1734113136, -0.81426644, -0.16212451, 0.53894746, -0.14221135, -2.7440956, 0.10544967, -3.7358584, 0
604, 1734146470, -0.82393956, -0.15752508, 0.5264555, -0.13840711, -2.461916, -0.6550301, -4.570956, 0
606, 1734179804, -0.8325205, -0.15605287, 0.51320004, -0.13851124, -1.5993185, -1.7797288, -6.039866, 0
607, 1734196471, -0.837682, -0.1539309, 0.50549626, -0.13809508, -0.72019774, -1.818017, -6.462542, 0
608, 1734213138, -0.84226954, -0.15575138, 0.49693105, -0.13923275, 0.7932234, -2.2599044, -7.9637012, 0
610, 1734246472, -0.8519412, -0.15498339, 0.4803271, -0.13951585, -2.772323, 0.309327, -4.3202367, 0
611, 1734263139, -0.8579999, -0.14461301, 0.4742223, -0.13431063, 1.2827214, 0.68777025, -0.74710274, 0
613, 1734296473, -0.8690331, -0.13786647, 0.45906046, -0.12264072, 9.431404, 1.8044277, 4.4005356, 0
614, 1734313140, -0.8736617, -0.1435991, 0.44937852, -0.11897915, 11.046495, 1.6615198, 6.747566, 0
618, 1734379808, -0.8909077, -0.16123855, 0.41149676, -0.10468399, 2.1993911, 1.2922902, 6.248085, 0
619, 1734396475, -0.8930293, -0.17027275, 0.40311843, -0.10490057, -0.11599115, -0.5842357, 3.8936653, 0
621, 1734429809, -0.8962803, -0.17580195, 0.39277127, -0.107279375, -4.76543, 0.94163525, 4.0553045, 0
622, 1734446476, -0.89911, -0.16991495, 0.38958913, -0.104656205, -3.6395438, 2.8550053, 5.023196, 0
623, 1734463143, -0.9011241, -0.17339806, 0.38226286, -0.10856408, -0.4426513, 0.62993884, 7.8680744, 0
625, 1734496477, -0.9023426, -0.1749616, 0.37560952, -0.118685484, 0.25214323, -1.2601279, 2.4805422, 0
626, 1734513144, -0.9027319, -0.17247848, 0.37491068, -0.121535674, -0.28185833, -0.49305493, 1.4951897, 0
627, 1734529811, -0.9029538, -0.16983227, 0.37524456, -0.1225794, -0.62251395, 0.5439561, 0.6849489, 0
629, 1734563145, -0.9027548, -0.16442575, 0.37867597, -0.120851524, -0.20578569, 2.5993698, 1.2546682, 0
630, 1734579812, -0.9023695, -0.16321799, 0.38052216, -0.11956079, -0.18755911, 1.5292993, 1.2791386, 0
635, 1734663147, -0.9003141, -0.14475723, 0.39913934, -0.0957613, 0.035924565, -0.57096946, 0.093997, 0
638, 1734713148, -0.8976869, -0.13030721, 0.4136279, -0.07805616, 1.0672811, -0.11089612, 0.19560623, 0
641, 1734763149, -0.89100116, -0.12907255, 0.42996138, -0.06777207, 1.1563112, -1.2369816, -0.38048458, 0
642, 1734779816, -0.8878489, -0.12849724, 0.43678755, -0.066571444, 1.5723228, -1.2912848, -0.59788895, 0
645, 1734829817, -0.87538064, -0.13929786, 0.45710486, -0.07322845, 1.5835316, -1.2531017, -0.53022385, 0
646, 1734846484, -0.8707306, -0.14303705, 0.46414798, -0.077057734, 1.4537426, -1.3385257, -0.1597414, 0
648, 1734879818, -0.86164284, -0.1465536, 0.47859752, -0.083908975, 0.96854824, -0.27631944, -0.6250076, 0
649, 1734896485, -0.8575262, -0.14781481, 0.48498276, -0.08714211, 0.32622027, -0.0067182966, -1.0062733, 0
650, 1734913152, -0.8534969, -0.14976904, 0.49070534, -0.09123142, -0.42955905, 0.12552571, -1.4836779, 0
653, 1734963153, -0.8411695, -0.15831566, 0.505892, -0.10698573, -0.62124664, -0.6580446, -2.714384, 0
654, 1734979820, -0.8377078, -0.15847765, 0.51088345, -0.11014127, -0.6828582, -0.8067781, -2.6216106, 0
656, 1735013154, -0.832191, -0.1557057, 0.52004, -0.11302675, -1.7176481, -0.4095334, -2.541276, 0
657, 1735029821, -0.8296793, -0.15356123, 0.5246356, -0.11318731, -2.0600142, -0.554142, -2.7317572, 0
658, 1735046488, -0.8268137, -0.15086652, 0.5300257, -0.1126661, -1.7176573, -0.5442878, -2.3872023, 0
660, 1735079822, -0.81949455, -0.14855833, 0.54174125, -0.11348228, -0.88205117, -1.1909621, -1.8687844, 0
661, 1735096489, -0.8163006, -0.14680341, 0.54681605, -0.114441946, -1.1430329, -1.2666763, -0.87986374, 0
665, 1735163157, -0.8073781, -0.13892807, 0.5609331, -0.1191472, -0.94488716, -0.703673, 0.41304398, 0
667, 1735196491, -0.80360645, -0.13495615, 0.5665778, -0.12245636, -1.1163833, 0.30532965, 0.24529266, 0
668, 1735213158, -0.8019278, -0.13478932, 0.56867236, -0.1239271, -1.2634372, 0.2839537, 0.06613541, 0
671, 1735263159, -0.80202454, -0.13543674, 0.5680141, -0.12560308, -1.7260039, 0.51235867, 0.51265717, 0
672, 1735279826, -0.80303746, -0.13489802, 0.5669342, -0.12458603, -1.3618882, 0.68356174, 0.75106716, 0
673, 1735296493, -0.80440485, -0.13332736, 0.56585544, -0.12233958, -1.2906806, 1.0577829, -0.2682743, 0
675, 1735329827, -0.8115004, -0.12519789, 0.5592366, -0.11423577, -1.8553481, -0.10310682, -2.4967804, 0
680, 1735413162, -0.84099346, -0.09502584, 0.5247893, -0.09109785, -0.8082208, -1.1731335, -7.5092583, 0
681, 1735429829, -0.846679, -0.088690534, 0.5171677, -0.08836919, -0.40055677, -2.2715766, -7.916473, 0
683, 1735463163, -0.853412, -0.10106808, 0.5021609, -0.096490726, 4.233543, -2.1466575, -10.025935, 0
684, 1735479830, -0.8578419, -0.09969507, 0.49475217, -0.096907124, -0.5321153, -1.2762679, -4.897001, 0
685, 1735496497, -0.86378056, -0.077134036, 0.49060306, -0.08511697, -0.40522206, 2.7448754, -0.19032478, 0
687, 1735529831, -0.8738554, -0.07362999, 0.47459775, -0.07559888, 10.270244, 2.4057293, 8.451683, 0
689, 1735563165, -0.8843766, -0.09609786, 0.45093417, -0.07282982, 8.480014, 0.18915656, 11.123865, 0
691, 1735596499, -0.8926484, -0.10970199, 0.43136504, -0.07121251, 4.6337905, 0.8416189, 7.7602654, 0
694, 1735646500, -0.8982301, -0.13958299, 0.40886912, -0.080795854, -4.6960278, 0.95063, 1.3664474, 0
695, 1735663167, -0.89993143, -0.13993685, 0.40391698, -0.085991934, -6.194974, -0.33594835, 2.9069338, 0
696, 1735679834, -0.9017961, -0.14004557, 0.3983708, -0.091948465, -1.6485806, -0.0015498388, 6.4581223, 0
698, 1735713168, -0.9046807, -0.14065719, 0.38964602, -0.09973332, -0.12507114, -0.59201115, 4.2871933, 0
700, 1735746502, -0.90599465, -0.14311983, 0.38423097, -0.10516444, -1.3706919, 0.7479872, 1.2291431, 0
702, 1735779836, -0.906466, -0.13955116, 0.3846861, -0.10423002, -0.78254455, 2.5719383, 0.8939762, 0
703, 1735796503, -0.9062312, -0.1392717, 0.3856878, -0.102935225, -0.42339188, 1.5037795, 0.89666176, 0
704, 1735813170, -0.9057016, -0.13861606, 0.38765466, -0.10107671, -0.36588153, 1.2038493, 0.51778984, 0
710, 1735913172, -0.8970486, -0.12809186, 0.41363075, -0.0883657, 0.8549791, -1.3359485, -0.89001083, 0
711, 1735929839, -0.8941895, -0.12922426, 0.41969135, -0.08710956, 0.9749492, -0.78529507, -0.5862608, 0
712, 1735946506, -0.89094687, -0.12979499, 0.42655307, -0.08615184, 1.3003112, -0.3945633, -0.24365044, 0
714, 1735979840, -0.8820748, -0.13359913, 0.44359457, -0.08556807, 1.830167, -0.24906166, -0.57818794, 0
715, 1735996507, -0.8769145, -0.13660029, 0.4526012, -0.08669606, 1.8241382, -0.4042039, -0.13169956, 0
719, 1736063175, -0.8526235, -0.1537631, 0.48877594, -0.102423966, 0.0754392, -0.35454363, -0.20925903, 0
720, 1736079842, -0.8458133, -0.15735015, 0.4980417, -0.10861902, 0.10036626, -0.9229006, -0.44608116, 0
722, 1736113176, -0.83347714, -0.16335543, 0.5142349, -0.11914639, -0.25899094, -0.10969597, -1.1683092, 0
723, 1736129843, -0.8280401, -0.16512246, 0.52122647, -0.12413515, -0.77940977, -0.36907232, -2.0992756, 0
725, 1736163177, -0.81882066, -0.16545977, 0.53401124, -0.13034704, -0.9584485, -0.22975351, -2.157682, 0
729, 1736229845, -0.8067129, -0.14935315, 0.55534756, -0.13601309, -1.6298685, -0.49440876, -3.1303496, 0
730, 1736246512, -0.80679953, -0.1393332, 0.5581811, -0.13452658, -1.6607271, 0.09930245, -1.6480885, 0
734, 1736313180, -0.8036267, -0.13473219, 0.56366414, -0.13533881, -1.5141101, -1.6728951, -0.2224102, 0
735, 1736329847, -0.8020435, -0.13700134, 0.56512135, -0.13637161, -1.4341488, -2.3853517, -0.12993145, 0
737, 1736363181, -0.79931384, -0.14183992, 0.5671578, -0.13897318, -1.0819458, -0.7800542, 0.18148136, 0
738, 1736379848, -0.7980507, -0.14239852, 0.5685126, -0.14012052, -0.691993, -0.46573573, 0.97675705, 0
739, 1736396515, -0.7963857, -0.14393914, 0.57002187, -0.14187743, -0.82430595, -0.18380526, 1.3263874, 0
742, 1736446516, -0.7895807, -0.14262185, 0.57876724, -0.14578274, -0.59512293, 0.09017457, -0.6867819, 0
746, 1736513184, -0.79097563, -0.14883095, 0.5739517, -0.15095977, -1.3732339, 0.892436, -2.1761613, 0
749, 1736563185, -0.80276465, -0.15078433, 0.55730987, -0.14913628, -1.9554764, -0.80275124, -4.192099, 0
750, 1736579852, -0.8087528, -0.14783816, 0.55006784, -0.14659677, -2.5905626, -0.3579276, -4.7032347, 0
752, 1736613186, -0.82063293, -0.13432913, 0.53750783, -0.1400183, -1.9656872, -1.1544418, -6.126124, 0
753, 1736629853, -0.8260253, -0.12989429, 0.5308435, -0.13790366, -1.1650414, -2.1616256, -6.7884684, 0
756, 1736679854, -0.84260064, -0.1235078, 0.50827354, -0.12818171, -0.6698451, -0.054899365, -3.267694, 0
757, 1736696521, -0.8478782, -0.124365136, 0.5006538, -0.12241061, 5.8906326, -0.8927501, -0.5728531, 0
758, 1736713188, -0.8533261, -0.13037829, 0.49133432, -0.11588483, 8.693184, 2.2957804, 4.6994514, 0
762, 1736779856, -0.8770828, -0.13662094, 0.44932717, -0.10083817, 5.5047164, 0.4786207, 7.022791, 0
764, 1736813190, -0.88439745, -0.16090538, 0.42796245, -0.093815014, 2.686868, 2.9308941, 3.0086794, 0
765, 1736829857, -0.88660544, -0.17146738, 0.4195243, -0.092367515, -1.3356291, 5.0485644, 1.5390491, 0
768, 1736879858, -0.8960396, -0.16523899, 0.40072265, -0.09608832, -1.8520718, -2.7917297, 8.0145, 0
769, 1736896525, -0.8996005, -0.16336729, 0.39258054, -0.099565, 2.4321396, -4.7014804, 10.880304, 0
772, 1736946526, -0.90554774, -0.15093012, 0.38230136, -0.105127, -2.3719275, 1.6844606, -0.5001898, 0
773, 1736963193, -0.9065148, -0.14758989, 0.3813199, -0.10510036, -1.0479358, 1.3057301, 0.57759094, 0
774, 1736979860, -0.9070871, -0.14531918, 0.38136724, -0.10313636, 0.23280963, 1.7156129, 1.4643049, 0
776, 1737013194, -0.90681434, -0.14335635, 0.38459364, -0.09605695, -0.24434392, 1.0476266, 1.0247183, 0
777, 1737029861, -0.90614355, -0.1426063, 0.387351, -0.09235293, -0.55420977, 0.42957076, 0.6920929, 0
780, 1737079862, -0.9025364, -0.13792664, 0.39963722, -0.081834756, 0.54980344, -0.49890518, 0.93510246, 0
781, 1737096529, -0.9008201, -0.13621469, 0.40477738, -0.07827167, 0.68910676, -0.29368362, 0.5240898, 0
783, 1737129863, -0.8968245, -0.13320231, 0.41580567, -0.07121327, 0.49074012, -0.025926832, 0.198843, 0
787, 1737196531, -0.8854531, -0.13040361, 0.44108334, -0.06645249, 0.8912043, -0.4160302, -0.23022842, 0
788, 1737213198, -0.88164496, -0.13011342, 0.4486166, -0.0672196, 0.85798734, -0.7383914, -0.51277256, 0
789, 1737229865, -0.87741554, -0.13183062, 0.45597085, -0.06968413, 0.99965566, -0.7256096, -0.31645107, 0
791, 1737263199, -0.86812985, -0.13554356, 0.47151724, -0.075184464, 0.56922406, -0.7932685, -0.6556797, 0
792, 1737279866, -0.8631354, -0.13650218, 0.48001295, -0.077165544, 0.9080026, -0.20647384, -1.3811235, 0
793, 1737296533, -0.8579201, -0.13928127, 0.48811585, -0.07949397, 0.66981065, -0.29723758, -1.7944307, 0
795, 1737329867, -0.84711057, -0.14633676, 0.5035202, -0.08636679, 0.25244737, -0.4892128, -1.9804783, 0
797, 1737363201, -0.8361507, -0.15267333, 0.51811, -0.09543343, 0.20654385, -0.720244, -2.0974874, 0
799, 1737396535, -0.82689524, -0.15238346, 0.53159994, -0.10211662, -0.1884755, -0.76378953, -2.1539993, 0
802, 1737446536, -0.8175968, -0.15128922, 0.54460365, -0.109801196, -0.97683835, -0.5887077, -1.6721773, 0
804, 1737479870, -0.8125328, -0.14745826, 0.55223554, -0.11438908, -1.4258977, -0.63398176, -1.7770691, 0
806, 1737513204, -0.80746156, -0.14590655, 0.55897737, -0.11943239, -1.814233, -1.4180241, -0.52726364, 0
808, 1737546538, -0.8018808, -0.14188965, 0.56711084, -0.12346114, -0.9000594, -0.24373831, 0.24853802, 0
810, 1737579872, -0.7967848, -0.13026702, 0.5771835, -0.12258197, -1.0692766, 0.6993992, 0.22947884, 0
811, 1737596539, -0.79328156, -0.12681416, 0.5825855, -0.12336707, -1.5909638, 0.09770433, 0.46945667, 0
815, 1737663207, -0.7888285, -0.124771155, 0.58862364, -0.125325, -1.0396178, -0.13001353, 0.2443552, 0
816, 1737679874, -0.7896239, -0.12538007, 0.58724874, -0.12615585, -1.4242638, 0.13697147, -0.18258095, 0
818, 1737713208, -0.7922027, -0.12704803, 0.58317035, -0.12723461, -1.5911299, 0.30722558, -0.8828087, 0
819, 1737729875, -0.79423344, -0.12779266, 0.58011097, -0.12781286, -1.5786043, 0.14168207, -0.96971226, 0
820, 1737746542, -0.79701996, -0.1304667, 0.5753688, -0.12919311, -1.1647403, -0.08373343, -0.92027664, 0
823, 1737796543, -0.8105696, -0.13790202, 0.5536551, -0.13201748, -1.9141681, -0.10655796, -2.6190486, 0
824, 1737813210, -0.8160559, -0.13854396, 0.54546314, -0.13164671, -1.5538749, 0.052280508, -3.5165272, 0
826, 1737846544, -0.82826716, -0.13772868, 0.5274271, -0.12972048, -1.1295006, -0.46889666, -4.8327026, 0
829, 1737896545, -0.84908706, -0.123661265, 0.49886492, -0.12204794, 0.19609787, -0.98505914, -8.054743, 0
830, 1737913212, -0.85510725, -0.11759193, 0.49069154, -0.11911453, 0.8966082, -1.8840526, -8.27016, 0
831, 1737929879, -0.8596839, -0.11981294, 0.48267472, -0.11668937, 3.108266, -2.415401, -8.892606, 0
833, 1737963213, -0.8698088, -0.12135237, 0.466337, -0.106013134, 0.9328349, 1.3834643, 1.1436014, 0
834, 1737979880, -0.8747465, -0.11157752, 0.46095073, -0.09947855, 5.597904, 2.1081014, 3.00873, 0
835, 1737996547, -0.87955093, -0.107322134, 0.45405546, -0.093319364, 5.2214837, 3.4272544, 6.9245243, 0
837, 1738029881, -0.8856066, -0.13155685, 0.43542725, -0.093805775, 7.501057, -0.4106069, 8.297197, 0
841, 1738096549, -0.8917508, -0.148903, 0.41275, -0.11067232, -1.2582514, 0.37068775, 3.0222778, 0
842, 1738113216, -0.8927924, -0.14976558, 0.40930122, -0.11387364, -4.35522, 0.5388548, 4.205674, 0
843, 1738129883, -0.8943988, -0.14611247, 0.4067695, -0.11507849, -4.9291525, 3.3888698, 5.88348, 0
845, 1738163217, -0.8980758, -0.14555979, 0.39713758, -0.12065072, -1.4669839, 0.507399, 8.657904, 0
846, 1738179884, -0.89884865, -0.14671423, 0.39348838, -0.12536284, -2.0698173, -2.4811523, 3.6533804, 0
849, 1738229885, -0.89948153, -0.13708507, 0.39469308, -0.12790807, -0.8993969, 1.8042127, 1.987299, 0
850, 1738246552, -0.8991452, -0.13311754, 0.39712045, -0.12694682, -0.20110087, 2.2525384, 1.7862444, 0
851, 1738263219, -0.8984157, -0.13024692, 0.39991373, -0.12631865, -0.06373427, 1.2720618, 1.2427855, 0
854, 1738313220, -0.89470315, -0.12659949, 0.41057765, -0.12209579, 0.7931652, -0.45672974, 0.9718485, 0
857, 1738363221, -0.8877297, -0.12303192, 0.4270242, -0.1202168, 0.47703654, 0.6106414, 0.25057983, 0
858, 1738379888, -0.8846676, -0.119192965, 0.4347361, -0.11901039, 0.76240426, 0.79635054, -0.24313164, 0
861, 1738429889, -0.87450385, -0.11868092, 0.45590132, -0.11538903, 0.046586134, 0.29984766, -0.6896982, 0
864, 1738479890, -0.8620715, -0.11250381, 0.48223647, -0.10782601, 0.26821578, -0.38416302, -2.2836823, 0
865, 1738496557, -0.85746694, -0.11412947, 0.49004275, -0.10763716, 0.003020554, -1.2907659, -2.2826266, 0
866, 1738513224, -0.8526599, -0.11586678, 0.49792895, -0.10777417, 0.06070433, -1.2647824, -2.3333693, 0
868, 1738546558, -0.84251297, -0.11593652, 0.51469105, -0.10874909, 0.43324432, -0.646767, -3.3668432, 0
869, 1738563225, -0.83716846, -0.11599357, 0.52292687, -0.1106547, 0.40240982, -0.3497025, -3.4901276, 0
870, 1738579892, -0.8323393, -0.11587153, 0.5299897, -0.113572076, 0.3903352, -1.4019445, -2.8781948, 0
872, 1738613226, -0.8251033, -0.119564176, 0.5392583, -0.118794516, -0.922562, -1.4765997, -1.6536312, 0
874, 1738646560, -0.8188692, -0.124230936, 0.5466878, -0.12310525, -0.3466165, -0.39541444, -1.4956713, 0
876, 1738679894, -0.81496334, -0.12041394, 0.5530397, -0.12443796, -1.6264398, -0.1900325, -1.7329683, 0
877, 1738696561, -0.8126015, -0.12571177, 0.5544673, -0.12823375, -1.3700359, -2.4252837, -0.9879179, 0
880, 1738746562, -0.8037194, -0.1364793, 0.5619573, -0.140054, -1.0476794, -0.6011721, 0.099422455, 0
883, 1738796563, -0.79557145, -0.13352475, 0.5725564, -0.14635178, -0.958268, 0.77508956, 0.446167, 0
884, 1738813230, -0.7929538, -0.1357019, 0.57525325, -0.14797091, -0.88898253, 0.37371048, -0.10962486, 0
889, 1738896565, -0.78476536, -0.14924517, 0.5808841, -0.15635106, -0.19373834, -0.5207492, 0.80307007, 0
892, 1738946566, -0.7834388, -0.1531836, 0.58186114, -0.1555596, -0.8118773, -0.10217716, -1.1043434, 0
893, 1738963233, -0.78395087, -0.15487203, 0.58073425, -0.15551868, -1.2175153, -0.2993105, -1.4930058, 0
895, 1738996567, -0.7881265, -0.15804736, 0.57455456, -0.15416667, -1.6003653, -0.53935164, -1.4370594, 0
897, 1739029901, -0.7963735, -0.16155683, 0.5635554, -0.14864875, -1.6955217, 0.09078096, -2.266962, 0
900, 1739079902, -0.81578153, -0.15580812, 0.5399422, -0.13670877, -2.1782153, -0.7646707, -4.065892, 0
901, 1739096569, -0.8235208, -0.1521706, 0.53000796, -0.13323635, -2.8769367, -0.5618645, -4.789187, 0
903, 1739129903, -0.83712935, -0.13939136, 0.5135459, -0.12671936, -1.1570103, -2.0889215, -7.221696, 0
904, 1739146570, -0.8423995, -0.1384063, 0.50553906, -0.12505955, 1.7254028, -2.1604307, -8.833225, 0
905, 1739163237, -0.8473615, -0.14291759, 0.4957613, -0.12560391, 3.1924152, -1.6539807, -8.620363, 0
907, 1739196571, -0.8607798, -0.11770577, 0.4826874, -0.11053891, 0.49869183, 1.9498318, 4.1449947, 0
908, 1739213238, -0.8659122, -0.11223574, 0.4763901, -0.10322051, 7.438062, 2.6907647, 3.7813606, 0
909, 1739229905, -0.870756, -0.11971437, 0.46628717, -0.100156724, 9.728266, 2.712917, 6.971773, 0
911, 1739263239, -0.88087213, -0.13291594, 0.44406393, -0.09595628, 6.866118, -0.6015138, 7.7743797, 0
914, 1739313240, -0.8919315, -0.14701557, 0.41894826, -0.08561334, -0.59917206, 3.3055923, 1.836832, 0
916, 1739346574, -0.89590156, -0.15207005, 0.4092415, -0.08221266, -3.7000544, 2.1477726, 3.1238098, 0
918, 1739379908, -0.9016723, -0.14555348, 0.39810425, -0.085537836, -1.3852707, -0.6821142, 8.373547, 0
919, 1739396575, -0.9041598, -0.14735407, 0.3908657, -0.08948918, 1.5238738, -1.6098717, 9.487068, 0
920, 1739413242, -0.9055125, -0.14823961, 0.38615626, -0.09464666, -1.295313, -2.9122066, 3.698388, 0
922, 1739446576, -0.90735066, -0.14223616, 0.3822841, -0.10171127, -0.119718455, 0.5634345, 1.127078, 0
924, 1739479910, -0.9075737, -0.13909133, 0.38270846, -0.10247123, -0.18416864, 2.005122, 0.7962103, 0
927, 1739529911, -0.90548605, -0.13705555, 0.38908187, -0.099642895, -0.2724889, 0.48231247, 1.0925703, 0
930, 1739579912, -0.9015982, -0.13026968, 0.40167794, -0.093851164, 0.20065764, 0.21357657, 0.3906908, 0
931, 1739596579, -0.899737, -0.12931553, 0.4064102, -0.09265008, 0.047708392, -0.43552002, 0.49994183, 0
932, 1739613246, -0.8974095, -0.13061132, 0.41124544, -0.09206934, -0.0073142378, -0.7400835, 0.57677937, 0
935, 1739663247, -0.8880671, -0.1306068, 0.43123984, -0.091178805, 0.9117965, -0.65304655, 0.23680782, 0
937, 1739696581, -0.8797636, -0.13074295, 0.44793773, -0.0909754, 1.0636394, -0.29813746, -0.2096901, 0
938, 1739713248, -0.87503874, -0.13172403, 0.4567417, -0.09135342, 1.2377043, -0.08482473, -0.8606205, 0
939, 1739729915, -0.87009794, -0.13552631, 0.46469328, -0.092870414, 0.93722767, -0.34025636, -0.91320515, 0
941, 1739763249, -0.85940063, -0.14427294, 0.48040563, -0.09913994, 0.27070683, -0.47853106, -2.4558554, 0
942, 1739779916, -0.8539666, -0.14709394, 0.48836195, -0.10300371, 0.30974337, -0.56826526, -2.2855797, 0
943, 1739796583, -0.84842455, -0.14940861, 0.4962686, -0.10757864, -0.3126126, -0.33219713, -2.1897545, 0
945, 1739829917, -0.83675784, -0.15483165, 0.5119518, -0.117351204, -0.9276389, -1.6249617, -2.8141336, 0
947, 1739863251, -0.8253152, -0.15387829, 0.52930814, -0.122523226, -0.91026235, -0.4154666, -3.015727, 0
949, 1739896585, -0.81608033, -0.14836743, 0.5447094, -0.12367091, -0.6836184, -0.42012534, -2.381456, 0
950, 1739913252, -0.81264156, -0.14359479, 0.55130035, -0.12273809, -1.4086819, 0.11879099, -2.3532844, 0
951, 1739929919, -0.8097769, -0.13829851, 0.5571694, -0.121242, -1.5018871, -0.1613369, -2.1218848, 0
954, 1739979920, -0.80193436, -0.1365414, 0.56822896, -0.12400109, -0.9910826, -1.2928616, -0.6646719, 0
955, 1739996587, -0.7997244, -0.1348773, 0.57142407, -0.1254051, -1.3917606, -1.2044153, -0.31105423, 0
958, 1740046588, -0.79397446, -0.1292117, 0.58013445, -0.12788776, -0.86370635, -1.8334515, 0.9092369, 0
965, 1740163257, -0.77979386, -0.13092256, 0.5964098, -0.138126, -1.1438092, 1.073907, 0.23697472, 0
966, 1740179924, -0.77956146, -0.12950264, 0.59714466, -0.1376003, -1.3164368, 0.8313675, -0.4640484, 0
969, 1740229925, -0.7823532, -0.13323095, 0.592874, -0.13666044, -0.71821845, -1.4496084, -1.409627, 0
972, 1740279926, -0.7949275, -0.14551698, 0.57242537, -0.13873276, -0.43701625, 0.8929365, -2.6948433, 0
973, 1740296593, -0.80379975, -0.14151372, 0.5618142, -0.13508205, -1.1160531, 1.1185197, -3.326469, 0
974, 1740313260, -0.8130718, -0.14030705, 0.5490697, -0.1332408, -0.4708779, -0.56376106, -3.7795806, 0
976, 1740346594, -0.83190286, -0.14055604, 0.5197604, -0.13428845, -2.6729677, -0.4841464, -2.8685007, 0
977, 1740363261, -0.8392691, -0.13292831, 0.50994265, -0.13386026, -1.8175321, -0.63130844, -3.8428059, 0
980, 1740413262, -0.85612005, -0.13435586, 0.477871, -0.14369777, 1.3961717, -1.9951421, -6.212189, 0
982, 1740446596, -0.86479676, -0.13572891, 0.46137387, -0.14436468, 0.306679, -0.8231831, -1.7197342, 0
984, 1740479930, -0.87459034, -0.12973651, 0.44785896, -0.13298528, 9.609028, 2.5253353, 5.908041, 0
985, 1740496597, -0.879584, -0.13954589, 0.43497157, -0.13289554, 9.498639, 2.5850847, 6.6746063, 0
986, 1740513264, -0.88443154, -0.15019403, 0.4208204, -0.13466874, 8.052706, 1.0603852, 6.425314, 0
989, 1740563265, -0.8967123, -0.16166224, 0.39087442, -0.13035351, -1.2718579, 0.31266168, 1.2324886, 0
991, 1740596599, -0.902054, -0.1714812, 0.37767252, -0.11941062, -6.9690385, 6.1155334, 1.7149115, 0
993, 1740629933, -0.90987, -0.1604178, 0.36303765, -0.120868474, -5.2189507, -1.1619456, 7.0476933, 0
995, 1740663267, -0.9168013, -0.1528783, 0.34907344, -0.11938998, 0.58686143, -2.143518, 4.7252197, 0
996, 1740679934, -0.9192942, -0.14667542, 0.34593776, -0.11710822, -1.6279554, -1.0251713, 1.8245668, 0
997, 1740696601, -0.9212978, -0.14210805, 0.34261423, -0.11676319, 0.11588431, 0.19559284, 1.9082403, 0
1000, 1740746602, -0.9233765, -0.1362967, 0.33849806, -0.11925089, 0.67474806, 0.46523863, 1.7007942, 0
1001, 1740763269, -0.9231778, -0.13648441, 0.3383646, -0.120941214, 0.8465182, 0.3550378, 2.167059, 0
1007, 1740863271, -0.91284806, -0.15290868, 0.35114425, -0.14151901, -0.83536226, 0.03953173, 0.65390205, 0
1009, 1740896605, -0.906384, -0.15577766, 0.36524412, -0.1442247, -0.69516397, 0.71359307, -0.6541796, 0
1012, 1740946606, -0.89437234, -0.16070458, 0.39212468, -0.14322361, -0.042178683, 0.24661928, -1.715004, 0
1016, 1741013274, -0.8743158, -0.17302945, 0.42998737, -0.14403558, 0.11673612, -0.9830252, -1.9265823, 0
1018, 1741046608, -0.861966, -0.18143854, 0.4490958, -0.14970043, 0.08946173, -1.6456939, -2.3921142, 0
1019, 1741063275, -0.8556802, -0.18483372, 0.45863163, -0.1526679, -0.2786203, -1.3027178, -1.84765, 0
1020, 1741079942, -0.8491995, -0.185276, 0.46957138, -0.15504384, -0.95884866, -1.2742244, -1.879116, 0
1022, 1741113276, -0.83651125, -0.18368752, 0.49195132, -0.15650696, -1.0386659, -0.7018955, -2.0850239, 0
1024, 1741146610, -0.82603794, -0.18192105, 0.51062506, -0.15437192, -1.1108444, -0.45803112, -1.7007647, 0
1026, 1741179944, -0.8188726, -0.1722745, 0.5280163, -0.14481242, -1.1363108, 0.97378635, -1.2420359, 0
1028, 1741213278, -0.8131751, -0.1628364, 0.5425867, -0.13353956, -0.42851055, -0.089014366, -0.34594154, 0
1030, 1741246612, -0.8080175, -0.15912023, 0.5532375, -0.12537698, 0.1528842, -1.3285197, -0.29102612, 0
1031, 1741263279, -0.80605054, -0.15709272, 0.5573593, -0.12230123, -0.20667751, -1.5180826, 0.34291077, 0
1032, 1741279946, -0.803772, -0.15413633, 0.5621014, -0.11932042, -0.58997136, -1.5708531, 0.45304203, 0
1034, 1741313280, -0.79773825, -0.15085745, 0.57208204, -0.11653453, 0.017967312, -1.4182407, 0.002448082, 0
1035, 1741329947, -0.7949086, -0.14651817, 0.5773555, -0.11539501, -0.1353304, -0.93088496, -0.040730476, 0
1038, 1741379948, -0.7869545, -0.13596389, 0.5903846, -0.11689763, 0.11829071, -0.68772006, 0.43639088, 0
1039, 1741396615, -0.7849503, -0.13339494, 0.59346783, -0.11771687, -0.05308701, -0.48978993, 0.45175362, 0
1040, 1741413282, -0.7836497, -0.13057488, 0.5955788, -0.11887847, -0.25445253, -0.35545227, 0.48949242, 0
1042, 1741446616, -0.78191006, -0.124973774, 0.5989961, -0.1191826, 0.010667379, -0.64842045, 0.43714905, 0
1044, 1741479950, -0.78271246, -0.12375193, 0.59804505, -0.11996424, -0.7904938, 0.064024165, -0.25186634, 0
1047, 1741529951, -0.7867407, -0.12498496, 0.59237665, -0.1204589, -0.22743113, -1.2354404, -1.2347927, 0
1049, 1741563285, -0.79690677, -0.12219474, 0.5795578, -0.11884118, -2.6175125, 0.21404612, -2.6509662, 0
1050, 1741579952, -0.8036642, -0.11532198, 0.572245, -0.11559826, -2.7641294, -0.06512541, -3.8571138, 0
1051, 1741596619, -0.81101304, -0.10932317, 0.5633714, -0.113671385, -2.7092328, -0.3376946, -5.014616, 0
1053, 1741629953, -0.8269764, -0.099263474, 0.5416922, -0.113264054, -3.422411, -0.67306966, -6.4073906, 0
1054, 1741646620, -0.83356273, -0.09456268, 0.5319915, -0.114971735, -1.988846, -1.855248, -7.4592524, 0
1055, 1741663287, -0.84047705, -0.09050866, 0.52137256, -0.11653283, -0.97432077, -3.2964642, -8.284375, 0
1057, 1741696621, -0.8520742, -0.10873614, 0.49688622, -0.123502895, 3.090239, -3.4092183, -9.498362, 0
1058, 1741713288, -0.8573877, -0.12624305, 0.48294854, -0.12534842, 3.4130478, -2.402729, -3.7029443, 0
1062, 1741779956, -0.8812669, -0.108877294, 0.44928136, -0.098301575, 7.189678, 0.2785908, 7.698757, 0
1066, 1741846624, -0.8912475, -0.14023794, 0.42104575, -0.093457334, -2.2367766, 2.1859608, 3.2884474, 0
1067, 1741863291, -0.89260215, -0.14171799, 0.41679263, -0.09728348, -5.2520447, -0.37813765, 6.1852493, 0
1069, 1741896625, -0.89758176, -0.13369867, 0.40789318, -0.10048639, -1.4225961, 1.7479885, 12.075174, 0
1070, 1741913292, -0.89899194, -0.13390589, 0.40357995, -0.10492048, 0.0021305254, -1.5117387, 8.186876, 0
1072, 1741946626, -0.90055305, -0.12285914, 0.40365937, -0.10474584, -0.9160303, 0.92205185, 1.3765936, 0
1073, 1741963293, -0.90098476, -0.11761327, 0.40513417, -0.10130358, -0.8549496, 3.2592504, 0.87051487, 0
1074, 1741979960, -0.90119296, -0.11701308, 0.4054086, -0.09902325, -1.1669272, 2.051881, 0.8375664, 0
1076, 1742013294, -0.9000094, -0.110674776, 0.41101015, -0.09384918, -0.061006073, 1.4014008, 1.4388266, 0
1077, 1742029961, -0.8990984, -0.10958056, 0.41387984, -0.09121506, 0.17435709, 1.1558688, 2.0810356, 0
1078, 1742046628, -0.8977144, -0.111389704, 0.41660812, -0.09022979, -0.5342094, -0.05468887, 1.4899492, 0
1081, 1742096629, -0.89218706, -0.107565254, 0.4292212, -0.09057464, -0.39436245, 0.037946746, 0.7176504, 0
1084, 1742146630, -0.88365895, -0.10863191, 0.44574085, -0.09307979, -0.25849295, -0.14858487, 0.024785995, 0
1085, 1742163297, -0.8800656, -0.1066365, 0.4533143, -0.09285368, 0.71327364, 0.5317796, -0.25751686, 0
1086, 1742179964, -0.87607557, -0.10479709, 0.46151388, -0.09228732, 1.0076959, 0.7414475, -0.7403641, 0
1088, 1742213298, -0.86686856, -0.10718078, 0.47785684, -0.09330852, 0.82896626, 0.337187, -1.5745153, 0
1089, 1742229965, -0.8615767, -0.11076634, 0.48620212, -0.09500773, 0.6178631, 0.14516139, -1.6848936, 0
1090, 1742246632, -0.8556477, -0.11360918, 0.49555135, -0.0969091, 0.4607154, 0.06248897, -2.5558906, 0
1092, 1742279966, -0.84244996, -0.122976474, 0.5142224, -0.10359901, 0.12477052, -1.3663689, -2.7297053, 0
1094, 1742313300, -0.82810575, -0.1295053, 0.5335699, -0.113027416, 0.6334351, -1.7276715, -3.3307896, 0
1096, 1742346634, -0.81671774, -0.13271713, 0.5487576, -0.11927293, 0.38108444, -1.8158351, -2.3724718, 0
1098, 1742379968, -0.80997795, -0.13505913, 0.55810857, -0.11921367, -0.8851576, -0.15263739, -1.2409363, 0
1100, 1742413302, -0.80472934, -0.13043487, 0.5673026, -0.11648075, -1.3254586, 0.7074153, -2.947114, 0
1103, 1742463303, -0.8029354, -0.12605014, 0.5716527, -0.11234702, -1.4978346, -3.3296444, 0.08687115, 0
1104, 1742479970, -0.80202574, -0.12582359, 0.57320374, -0.11119029, -2.086379, -1.3003793, 0.2383728, 0
1108, 1742546638, -0.793348, -0.10158574, 0.5912524, -0.103450716, -1.9830581, 0.5765254, -0.7542467, 0
1109, 1742563305, -0.7910885, -0.10769233, 0.5925309, -0.10719545, 0.58580375, -1.2296357, 0.6536379, 0
1111, 1742596639, -0.7882606, -0.11087813, 0.59503376, -0.11085361, -1.0826141, 0.34722543, 1.6187792, 0
1112, 1742613306, -0.7863134, -0.1094348, 0.5977041, -0.111747414, -0.5869432, -0.47663411, 0.5804281, 0
1116, 1742679974, -0.78195345, -0.09903884, 0.60481054, -0.11378497, -1.5537785, -1.2397721, -1.0345783, 0
1117, 1742696641, -0.781704, -0.10751042, 0.6028597, -0.11808193, 0.40398535, -3.0137794, 0.2729826, 0
1119, 1742729975, -0.7849951, -0.11730447, 0.59614843, -0.12096354, -1.2286782, 0.26702377, -0.4731121, 0
1120, 1742746642, -0.7875957, -0.11671132, 0.592987, -0.120168254, -1.0690382, 1.2281733, -1.5916119, 0
1121, 1742763309, -0.7906397, -0.11333361, 0.5900512, -0.117840275, -2.3109798, 1.5729768, -2.5517368, 0
1123, 1742796643, -0.79924446, -0.12224107, 0.5766087, -0.11743206, -0.97073084, -1.8650333, -2.1679826, 0
1124, 1742813310, -0.80493647, -0.13059592, 0.5664215, -0.119127594, -1.7283962, -1.2210524, -3.4167414, 0
1126, 1742846644, -0.8185941, -0.113136955, 0.552639, -0.108150914, -1.9828522, -0.4590531, -6.069234, 0
1128, 1742879978, -0.83150053, -0.10341843, 0.5368391, -0.098579995, -0.55648917, -1.7395396, -6.8253975, 0
1130, 1742913312, -0.84265095, -0.11618805, 0.5163339, -0.09920449, 1.8654597, -1.3328831, -7.4945617, 0
1131, 1742929979, -0.8474044, -0.12247196, 0.50664, -0.101119965, 3.4382036, -1.6137472, -6.0858803, 0
1135, 1742996647, -0.868491, -0.106643476, 0.4767727, -0.083910495, 7.5458956, 2.7817962, 9.044153, 0
1136, 1743013314, -0.873593, -0.11825121, 0.46452206, -0.08410583, 6.2282815, 1.2354233, 10.644142, 0
1138, 1743046648, -0.8814506, -0.1289655, 0.44613793, -0.085885525, 4.2083087, -1.2505549E-4, 5.446375, 0
1139, 1743063315, -0.8845774, -0.1314991, 0.43935823, -0.08484083, 1.5733895, 3.3905046, 3.2274055, 0
1140, 1743079982, -0.88698983, -0.13651422, 0.43288657, -0.084997855, -1.2981225, 3.5749707, 0.66052437, 0
1142, 1743113316, -0.8916012, -0.13627793, 0.4221967, -0.0907083, -6.758027, -2.4354553, 2.7694244, 0
1143, 1743129983, -0.8945326, -0.13184711, 0.41673818, -0.093592, -4.415649, 0.23642194, 7.073654, 0
1144, 1743146650, -0.8973647, -0.1321179, 0.40955642, -0.09771169, -0.5091245, -0.3713023, 10.3626175, 0
1146, 1743179984, -0.90074325, -0.12739772, 0.4017734, -0.10493827, -1.9632871, -0.087801926, 0.39870453, 0
1148, 1743213318, -0.9029603, -0.12230027, 0.39813274, -0.10582045, -0.8077561, 1.1934289, -0.394269, 0
1154, 1743313320, -0.89971775, -0.10309891, 0.41537526, -0.085701175, 0.19488043, 0.37325233, -0.01875496, 0
1155, 1743329987, -0.89805615, -0.1034242, 0.4194784, -0.082698256, -0.0034832258, -0.4874243, 0.33226395, 0
1157, 1743363321, -0.89366597, -0.10052542, 0.43044627, -0.0772941, 0.9317996, -0.68868977, -0.08237553, 0
1159, 1743396655, -0.88823426, -0.09816681, 0.44265047, -0.07393638, 1.0744278, -0.7307507, -0.50288486, 0
1161, 1743429989, -0.88109386, -0.10004437, 0.45619556, -0.074518174, 0.9327616, -0.8195373, -0.11951065, 0
1163, 1743463323, -0.8721681, -0.104932636, 0.47135657, -0.07834335, 0.47372857, -0.5691926, -0.19649982, 0
1165, 1743496657, -0.8622517, -0.1084497, 0.48768577, -0.08322176, 0.564712, -0.24015646, -0.74998283, 0
1166, 1743513324, -0.85717475, -0.11072952, 0.4954834, -0.08654104, 0.632518, -0.27057981, -1.0413198, 0
1167, 1743529991, -0.85188466, -0.11415607, 0.5028967, -0.09142451, 0.1488793, -1.0871763, -1.6447601, 0
1169, 1743563325, -0.84059274, -0.12603131, 0.5165174, -0.10359651, -0.47977862, -1.5185083, -1.7767344, 0
1173, 1743629993, -0.8206907, -0.1263681, 0.544066, -0.12038582, -1.5098602, -0.52752167, -3.295403, 0
1174, 1743646660, -0.8154298, -0.12500478, 0.5506916, -0.12723735, -1.0445601, -0.69448304, -2.7817345, 0
1175, 1743663327, -0.811103, -0.12437832, 0.55611885, -0.13181956, -0.92063063, -0.88222194, -1.7419796, 0
1177, 1743696661, -0.80310243, -0.123380646, 0.5664673, -0.13755368, -1.2898291, -1.1757106, -1.0643253, 0
1178, 1743713328, -0.8006842, -0.12183443, 0.5702409, -0.13743807, -2.030974, 0.67124695, -1.5203791, 0
1179, 1743729995, -0.797265, -0.121087424, 0.5747651, -0.13911855, -2.023179, 0.050763424, -2.3676243, 0
1181, 1743763329, -0.7900636, -0.12427975, 0.583333, -0.1417004, -1.1116184, -1.2194343, -1.0629921, 0
1182, 1743779996, -0.78697646, -0.12621295, 0.5869363, -0.14229074, -1.2883054, -0.4158692, 0.019761086, 0
1184, 1743813330, -0.7797039, -0.1339723, 0.5943581, -0.14441055, -0.5499201, -0.16245033, 1.5727768, 0
1185, 1743829997, -0.77564317, -0.13532484, 0.5992562, -0.14477293, -0.041309666, 1.3063334, 1.3959618, 0
1188, 1743879998, -0.76692253, -0.133143, 0.6117865, -0.14079317, -0.07796355, -0.35570225, 0.997653, 0
1189, 1743896665, -0.7643622, -0.13584188, 0.61439216, -0.14079204, 0.17810674, -1.0516087, 1.0967464, 0
1190, 1743913332, -0.76165825, -0.13831025, 0.6171533, -0.14096574, 0.32191095, -0.8171993, 1.0419636, 0
1192, 1743946666, -0.76052916, -0.13718805, 0.6192116, -0.13912019, -1.1267016, -0.04951734, -0.13389969, 0
1194, 1743980000, -0.7611342, -0.13975598, 0.6178388, -0.13935903, -1.0939678, -0.5692416, -0.8498049, 0
1196, 1744013334, -0.7650456, -0.14473088, 0.61116534, -0.14225908, -1.0393531, -0.6684196, -1.2707338, 0
1197, 1744030001, -0.76941454, -0.1464714, 0.6050349, -0.14311801, -1.3541139, -0.9563245, -1.0413303, 0
1198, 1744046668, -0.77458835, -0.15077803, 0.5968182, -0.14522268, -0.4693142, -0.58816975, -1.0182409, 0
1200, 1744080002, -0.79105157, -0.14276962, 0.57823473, -0.13964733, -3.12435, 1.2715371, -3.7075653, 0
1201, 1744096669, -0.80005616, -0.13093893, 0.5702849, -0.1324494, -1.8862817, -0.5914981, -4.8755665, 0
1202, 1744113336, -0.80814695, -0.12411455, 0.5615389, -0.12716432, -1.7525916, -0.79166365, -5.1381936, 0
1204, 1744146670, -0.8228123, -0.11400615, 0.5443129, -0.117083, -1.2601599, -1.7357457, -4.3015423, 0
1205, 1744163337, -0.8285388, -0.11372363, 0.53615844, -0.114573486, -1.0575242, -3.5127108, -4.5427866, 0
1207, 1744196671, -0.84025407, -0.11818171, 0.5167532, -0.11390886, 2.310882, -2.6330042, -6.6376686, 0
1208, 1744213338, -0.8453766, -0.12911531, 0.5049473, -0.11703989, 4.169017, -3.140403, -6.222259, 0
1212, 1744280006, -0.8697272, -0.14401147, 0.456316, -0.120886624, 6.1080203, 2.2237916, 6.7725563, 0
1213, 1744296673, -0.87512857, -0.15721488, 0.44089055, -0.122685224, 5.35728, 0.37583345, 7.642658, 0
1215, 1744330007, -0.8859056, -0.1692871, 0.41629875, -0.11493935, -0.5769625, 2.4699116, 3.776949, 0
1216, 1744346674, -0.8902884, -0.17372793, 0.40648326, -0.109449945, -2.0129194, 3.4168072, 1.9642916, 0
1219, 1744396675, -0.8997939, -0.1838721, 0.3791828, -0.113070056, -4.701784, -0.9185533, 6.2083244, 0
1220, 1744413342, -0.9033046, -0.17942557, 0.3728443, -0.11330126, 0.17435244, 0.2630916, 9.250254, 0
1221, 1744430009, -0.90584075, -0.17500463, 0.3681094, -0.11542915, 0.69553614, -1.1065972, 6.005209, 0
1223, 1744463343, -0.9101555, -0.16035125, 0.36421514, -0.11512837, -0.8736766, 0.49879253, 1.3931303, 0
1224, 1744480010, -0.9121917, -0.14866035, 0.36514026, -0.111721896, -0.69798714, 2.8062265, 1.3092566, 0
1225, 1744496677, -0.9138383, -0.13969885, 0.36573473, -0.10781595, -1.0628356, 2.697297, 0.56002426, 0
1227, 1744530011, -0.915492, -0.13208088, 0.3662496, -0.101453096, -0.62428105, 0.19296812, 0.6332979, 0
1228, 1744546678, -0.9156597, -0.12821788, 0.36804938, -0.09833446, -0.22373043, 0.2106338, 0.4570589, 0
1229, 1744563345, -0.9155423, -0.12416984, 0.370469, -0.09549549, -0.2612891, -0.44410196, 0.47133255, 0
1231, 1744596679, -0.91445595, -0.11500034, 0.376952, -0.09195119, -0.92946833, -0.97732204, -0.047610283, 0
1239, 1744730015, -0.897684, -0.10212086, 0.41963702, -0.08741881, -0.10561367, 0.3444595, -0.25884056, 0
1240, 1744746682, -0.8942447, -0.10171895, 0.42709547, -0.087014996, 0.16816936, 1.0828812, -0.17395687, 0
1242, 1744780016, -0.8868261, -0.10550764, 0.441172, -0.08818887, 0.020545311, -0.19140364, 0.1119442, 0
1243, 1744796683, -0.88276803, -0.10631709, 0.44893384, -0.08875887, 0.14113055, -0.18781123, -0.14500237, 0
1244, 1744813350, -0.8783881, -0.10697045, 0.45717633, -0.08935286, 0.29408136, -0.28988028, -0.29259872, 0
1247, 1744863351, -0.86398256, -0.11382528, 0.48171946, -0.092340976, 0.5093194, -0.23627278, -1.3214025, 0
1248, 1744880018, -0.85885435, -0.11746222, 0.48963684, -0.09396951, 0.40758973, -0.4399933, -1.4343376, 0
1250, 1744913352, -0.8477846, -0.12430074, 0.5062819, -0.09742639, 0.20743701, -0.91826814, -1.8516526, 0
1252, 1744946686, -0.8379524, -0.12610124, 0.5216656, -0.099005185, -0.010550035, -0.9617567, -1.4596558, 0
1254, 1744980020, -0.8293691, -0.124023035, 0.53571993, -0.0988537, -0.23337702, -0.9180868, -2.548758, 0
1256, 1745013354, -0.82198375, -0.119865246, 0.5479154, -0.098826215, -0.61376077, -0.9907135, -1.4475927, 0
1258, 1745046688, -0.8147855, -0.11543774, 0.55952716, -0.09864359, -0.5804513, -1.3623284, -1.4234276, 0
1259, 1745063355, -0.81099916, -0.114029, 0.56523395, -0.098949075, -0.52958536, -1.3278637, -0.9476948, 0
1261, 1745096689, -0.80297816, -0.11065546, 0.57713175, -0.09951343, 0.06575036, -0.75234306, -0.70897484, 0
1262, 1745113356, -0.79855925, -0.11298457, 0.58235097, -0.10201807, 0.10207166, -0.8002108, -0.0042877197, 0
1263, 1745130023, -0.7948061, -0.116631866, 0.5861115, -0.1056244, 0.30940005, -0.849739, 0.23399734, 0
1265, 1745163357, -0.78881556, -0.11929348, 0.5922613, -0.112996705, -0.261925, 0.07826887, 0.3613901, 0
1266, 1745180024, -0.7863785, -0.122125715, 0.5940368, -0.11754654, 0.022659743, 0.045614693, 0.4864502, 0
1267, 1745196691, -0.7845905, -0.12533148, 0.59481126, -0.12211442, -0.38157505, 0.14723268, 0.560874, 0
1269, 1745230025, -0.7828777, -0.13347651, 0.59319866, -0.1319261, -1.5476959, 0.1397955, 0.66942215, 0
1271, 1745263359, -0.78261936, -0.13695444, 0.5907865, -0.14044327, -1.8797377, 0.95462996, 0.14862823, 0
1273, 1745296693, -0.78688836, -0.13726062, 0.58333427, -0.14727463, -1.6550225, 0.85922205, -0.69683456, 0
1274, 1745313360, -0.79091144, -0.1398887, 0.5762304, -0.15116782, -1.8852006, 0.056203786, -1.229558, 0
1275, 1745330027, -0.7964083, -0.13897349, 0.56826663, -0.15328343, -1.8473549, 0.384605, -2.090047, 0
1277, 1745363361, -0.81045645, -0.13472381, 0.54840267, -0.15577874, -1.9356499, -0.742118, -4.2646837, 0
1278, 1745380028, -0.8179831, -0.13045616, 0.5384732, -0.1547067, -2.1380215, -0.67686534, -5.292718, 0
1279, 1745396695, -0.824993, -0.12703788, 0.52862644, -0.154288, -2.1171606, -1.4379709, -6.009408, 0
1281, 1745430029, -0.83754385, -0.120382994, 0.51034814, -0.15354349, -0.8482998, -2.9011948, -8.446902, 0
1282, 1745446696, -0.84236115, -0.12325272, 0.5015387, -0.15394145, -0.844231, -3.1317139, -9.933068, 0
1285, 1745496697, -0.85453016, -0.1258853, 0.4843768, -0.13897073, 2.0944948, 1.9984195, 5.9786444, 0
1288, 1745546698, -0.8631523, -0.17059219, 0.45343226, -0.14236663, 9.493369, 0.11377491, 8.588186, 0
1289, 1745563365, -0.86609405, -0.18803942, 0.43904772, -0.1475192, 4.49862, -0.8593811, 7.819174, 0
1292, 1745613366, -0.87448776, -0.19804406, 0.4169541, -0.14900106, -1.4785064, 2.1310701, 2.92655, 0
1293, 1745630033, -0.87617964, -0.2102151, 0.40600684, -0.15257739, -4.5529857, 1.7679714, 5.100154, 0
1294, 1745646700, -0.87911105, -0.20579574, 0.40141618, -0.15388145, -6.420794, 0.78230006, 6.112153, 0
1296, 1745680034, -0.88535404, -0.19839005, 0.390595, -0.15565364, 0.09908017, 0.5802928, 6.783966, 0
1297, 1745696701, -0.88750184, -0.19605894, 0.3860296, -0.15775068, 0.20518132, -2.725003, 3.4724922, 0
1298, 1745713368, -0.8898819, -0.18757328, 0.38589087, -0.15497637, -0.5722781, -0.34983018, 2.01439, 0
1300, 1745746702, -0.89333856, -0.17121902, 0.38937432, -0.14498456, -1.2276243, 2.395884, 0.8372812, 0
1302, 1745780036, -0.8939616, -0.16508803, 0.3930437, -0.1381946, -0.1587743, 0.69206274, 0.7309923, 0
1304, 1745813370, -0.89316136, -0.15610678, 0.40118924, -0.13016644, 0.24948628, -0.2414854, -0.05067444, 0
1305, 1745830037, -0.8922675, -0.15246883, 0.40564328, -0.12675981, -0.04944576, -0.67242813, -0.1182785, 0
1306, 1745846704, -0.8908091, -0.1509777, 0.41009212, -0.12446596, -0.13587755, -0.7263608, -0.23342514, 0
1308, 1745880038, -0.8867499, -0.14604719, 0.42160472, -0.12081726, 0.4114462, -0.82735413, -0.5470209, 0
1310, 1745913372, -0.88128155, -0.14370075, 0.43478012, -0.11688423, 0.43225437, -0.7923576, -0.42068005, 0
1312, 1745946706, -0.874714, -0.14237946, 0.44936085, -0.11260864, 0.32556003, -0.23693697, 0.21076393, 0
1314, 1745980040, -0.8671758, -0.13894162, 0.4659473, -0.107689366, 0.39080012, 0.11849735, -0.6394129, 0
1316, 1746013374, -0.8592701, -0.132018, 0.48353675, -0.10208334, 0.7191954, 0.28861842, -0.8679304, 0
1317, 1746030041, -0.8549505, -0.13155372, 0.49156517, -0.10059601, 0.6685771, -0.47047657, -1.2958746, 0
1320, 1746080042, -0.8412067, -0.12972942, 0.51573753, -0.097769216, 0.03406516, -1.4499009, -2.251926, 0
1321, 1746096709, -0.8369568, -0.12953284, 0.5227581, -0.097216934, -0.1765578, -1.5817103, -1.7369452, 0
1323, 1746130043, -0.8295493, -0.122496925, 0.53658175, -0.0944722, -0.73145777, -0.19545795, -2.368073, 0
1324, 1746146710, -0.82609105, -0.11911659, 0.5429078, -0.09294417, -0.5538133, -0.37030676, -2.6953254, 0
1325, 1746163377, -0.8231676, -0.117777914, 0.5478076, -0.09183126, -1.043854, -0.41807315, -2.0067167, 0
1327, 1746196711, -0.81656486, -0.11964092, 0.5573718, -0.09081432, -1.7364341, -0.6224131, -1.5326929, 0
1328, 1746213378, -0.81372833, -0.11846712, 0.56163305, -0.091555156, -1.7765954, -0.5623137, -1.5008802, 0
1329, 1746230045, -0.81131303, -0.11360429, 0.5663379, -0.090162724, -1.7784959, -0.45001507, -0.8793287, 0
1331, 1746263379, -0.80530304, -0.10700333, 0.5759786, -0.09104213, -1.6033239, -1.463123, -0.41012764, 0
1332, 1746280046, -0.8016785, -0.106455155, 0.5807618, -0.09325904, -0.8891636, -1.6112446, -0.5120983, 0
1335, 1746330047, -0.793374, -0.10085169, 0.59181744, -0.10070382, 0.14170183, -0.9626998, 0.8269119, 0
1336, 1746346714, -0.7912286, -0.102216475, 0.59370464, -0.10500768, 0.46408665, -0.37433878, 1.3291607, 0
1337, 1746363381, -0.7890884, -0.10457196, 0.5953386, -0.10944717, -0.020867169, 0.08212296, 0.9432249, 0
1340, 1746413382, -0.78297377, -0.10810126, 0.60033876, -0.12191127, -0.2968641, 0.19766703, 0.21831703, 0
1342, 1746446716, -0.7804425, -0.11154075, 0.60135466, -0.12978184, 0.18413801, -0.9613643, 0.64705944, 0
1343, 1746463383, -0.77967393, -0.11580741, 0.60068655, -0.13369985, -0.35938737, -0.33690622, 1.1444788, 0
1347, 1746530051, -0.78297853, -0.11537812, 0.595544, -0.13770452, -0.48292565, -0.3043549, -0.6969099, 0
1348, 1746546718, -0.7846997, -0.119753845, 0.59205055, -0.13922754, -0.101332724, -0.28523734, -0.2406025, 0
1350, 1746580052, -0.7900959, -0.124140605, 0.58319587, -0.142206, -0.37563407, -0.40121323, -0.6599884, 0
1351, 1746596719, -0.7939358, -0.12691653, 0.5768467, -0.1442516, -0.5889687, -0.563194, -1.1816645, 0
1354, 1746646720, -0.8125606, -0.121969864, 0.5515128, -0.14389154, -0.6092621, -0.028347086, -3.6809645, 0
1355, 1746663387, -0.822455, -0.116973184, 0.53815144, -0.14240995, -1.3272197, -1.4641386, -3.7204747, 0
1356, 1746680054, -0.83242977, -0.115356214, 0.52267104, -0.14342646, -2.5389023, -2.272829, -3.24057, 0
1358, 1746713388, -0.8462181, -0.10613755, 0.5015431, -0.1452826, -1.6867819, -1.5816793, -6.524893, 0
1359, 1746730055, -0.85083175, -0.10567164, 0.49317136, -0.14732066, 1.4130508, -3.3023038, -7.636145, 0
1360, 1746746722, -0.8549486, -0.112969525, 0.4837214, -0.14938872, 3.2426276, -3.1864407, -6.4722657, 0
1362, 1746780056, -0.8623908, -0.13420904, 0.46295065, -0.15475631, 2.6027288, -1.9071661, 2.6487894, 0
1363, 1746796723, -0.8677101, -0.12353704, 0.45697042, -0.15165287, 3.3740783, 4.974691, 6.0188828, 0
1364, 1746813390, -0.87273645, -0.12708251, 0.44675472, -0.15031244, 6.405009, 4.6849265, 5.050871, 0
1366, 1746846724, -0.88358885, -0.15923294, 0.41400334, -0.15006627, 4.8889894, 0.74961275, 5.8129787, 0
1367, 1746863391, -0.8885812, -0.16880503, 0.39987683, -0.14842305, -0.07404359, 0.1926837, 4.175563, 0
1368, 1746880058, -0.8928903, -0.16919869, 0.3912193, -0.14515059, -2.5226233, 1.5263757, 2.0878868, 0
1370, 1746913392, -0.8979064, -0.1775842, 0.3759825, -0.14445563, -2.9501095, 1.7980003, 3.4889212, 0
1373, 1746963393, -0.9043779, -0.16756193, 0.3639869, -0.14676462, 0.85043955, 0.62075067, 6.96854, 0
1374, 1746980060, -0.9059524, -0.16474721, 0.36084694, -0.14798862, 0.19059353, -1.627274, 3.9686985, 0
1375, 1746996727, -0.9072033, -0.15996347, 0.36002064, -0.14758539, -1.2869606, -1.0798099, 1.600811, 0
1377, 1747030061, -0.9087298, -0.14718042, 0.3638009, -0.14212541, -0.8403618, 2.6355093, 1.1216726, 0
1379, 1747063395, -0.90908074, -0.14066786, 0.36773238, -0.13623606, 0.21653801, 0.9196189, 1.592617, 0
1381, 1747096729, -0.9086529, -0.13333803, 0.37359184, -0.13039385, 0.21369225, 0.12971686, 1.702507, 0
1385, 1747163397, -0.9031223, -0.12615265, 0.38846996, -0.13247341, 0.16112305, -1.4385884, 0.9956312, 0
1387, 1747196731, -0.89659107, -0.12498615, 0.40110496, -0.1400721, 0.7818834, -0.28206217, 0.8172903, 0
1391, 1747263399, -0.87928414, -0.112590864, 0.43759653, -0.15064676, 0.14645776, 0.8793822, -1.1782675, 0
1393, 1747296733, -0.8696405, -0.11804575, 0.45409495, -0.15359332, -0.4962466, -0.11524133, -1.9277105, 0
1394, 1747313400, -0.86475813, -0.11926528, 0.46280614, -0.15421551, -0.5305668, -0.10758209, -1.9992471, 0
1396, 1747346734, -0.8552787, -0.11617582, 0.48149052, -0.15222026, -0.7253939, 0.3413402, -3.1193857, 0
1397, 1747363401, -0.8507916, -0.112390526, 0.49090737, -0.15011562, -0.6788938, 0.7501956, -3.5713081, 0
1400, 1747413402, -0.8377589, -0.11239623, 0.51355094, -0.14763181, -1.0268449, -0.7724184, -3.2272959, 0
1401, 1747430069, -0.8335931, -0.1114194, 0.5207935, -0.1465775, -0.4899007, -0.9869887, -3.0891724, 0
1404, 1747480070, -0.8234228, -0.108134866, 0.5388125, -0.14129853, -1.789658, -1.4731064, -2.0077324, 0
1406, 1747513404, -0.81894976, -0.10904877, 0.54598373, -0.13904682, -1.5325472, -1.6436397, -0.7436142, 0
1410, 1747580072, -0.8091819, -0.11227126, 0.5609838, -0.13386452, -1.2165359, -0.95674354, -0.04045391, 0
1412, 1747613406, -0.80226755, -0.119154274, 0.5693489, -0.13421497, 0.15436296, -0.65850323, 0.7507725, 0
1414, 1747646740, -0.7954444, -0.12581407, 0.5763312, -0.13886742, 1.0708023, -1.1431619, 1.0035038, 0
1416, 1747680074, -0.78848803, -0.13096169, 0.583376, -0.14425775, 0.6142221, -0.9475195, 0.12018204, 0
1418, 1747713408, -0.7816989, -0.14084178, 0.58805853, -0.15264454, 0.46859136, -0.33034527, 0.650795, 0
1420, 1747746742, -0.7766043, -0.14709187, 0.5916406, -0.15878852, -1.0147779, 1.7831663, 0.10319042, 0
1422, 1747780076, -0.7746766, -0.15050045, 0.5921738, -0.16296738, -0.1770254, 0.28635573, 0.40803814, 0
1424, 1747813410, -0.7766272, -0.15407744, 0.58838695, -0.16405429, -0.81842846, 0.47341764, -0.5433512, 0
1425, 1747830077, -0.7797294, -0.15368341, 0.5847498, -0.16270751, -0.6917681, 0.12388161, -0.68220997, 0
1428, 1747880078, -0.7977781, -0.15321551, 0.56204295, -0.15551706, -1.9736614, -0.86017627, -2.302123, 0
1429, 1747896745, -0.8054309, -0.1505864, 0.55264, -0.15230435, -2.082843, -0.7922077, -3.2139106, 0
1431, 1747930079, -0.8212081, -0.1323461, 0.5366641, -0.14176, -3.1904812, -1.3324883, -5.493022, 0
1433, 1747963413, -0.83465916, -0.13082273, 0.5167851, -0.13843843, 0.9229801, -3.7243252, -7.8547926, 0
1435, 1747996747, -0.84632194, -0.15288503, 0.48985907, -0.14284962, 3.079947, -3.3596048, -7.576132, 0
1436, 1748013414, -0.853121, -0.15073062, 0.47954518, -0.13965622, 0.42636213, -1.628894, 0.24489594, 0
1437, 1748030081, -0.86159635, -0.12861179, 0.47463074, -0.12585358, 6.543996, 3.37719, 9.713011, 0
1440, 1748080082, -0.8792518, -0.1603783, 0.43466374, -0.11074844, 6.865054, -0.18037137, 6.9230633, 0
1444, 1748146750, -0.89093804, -0.1748672, 0.4076453, -0.09736048, -4.3100443, 3.9603152, -0.10227966, 0
1445, 1748163417, -0.89285606, -0.17931323, 0.4006102, -0.100841, -5.3758755, 1.7383403, 3.8303137, 0
1450, 1748246752, -0.8981552, -0.17549542, 0.3823251, -0.12786147, -2.6936471, -0.35127228, 2.0304976, 0
1452, 1748280086, -0.899604, -0.15881838, 0.38527152, -0.13060564, 0.21686143, 3.8397782, 1.3641119, 0
1454, 1748313420, -0.9005641, -0.16224627, 0.38063583, -0.1333399, -0.73578143, 1.7365278, 1.5663662, 0
1455, 1748330087, -0.90045315, -0.16246381, 0.38049433, -0.13422514, -0.9829888, 1.0728914, 0.6276064, 0
1456, 1748346754, -0.90021414, -0.16149864, 0.38135436, -0.13455115, -0.3868303, 0.7752036, 0.6275978, 0
1458, 1748380088, -0.8988318, -0.15994757, 0.3849027, -0.13553919, -0.58828545, -0.12416759, 0.6445179, 0
1463, 1748463423, -0.8878834, -0.14587806, 0.41347924, -0.13935703, -0.18564293, -0.5401493, -0.32330418, 0
1464, 1748480090, -0.88441896, -0.14298841, 0.42207062, -0.13862368, -0.2434226, -0.57224214, -0.41535473, 0
1466, 1748513424, -0.87649196, -0.1317743, 0.4427418, -0.13557175, 0.061556585, 0.6379568, -0.72792625, 0
1468, 1748546758, -0.86739135, -0.12363488, 0.46330252, -0.13304107, 0.61766195, 0.89960337, -0.7677679, 0
1470, 1748580092, -0.8568449, -0.124460965, 0.48233876, -0.13296011, 0.20321083, 0.036985807, -2.257214, 0
1471, 1748596759, -0.85109574, -0.12689596, 0.49154693, -0.13385737, 0.3206414, -0.23309161, -2.455995, 0
1472, 1748613426, -0.8450679, -0.13018127, 0.5005825, -0.13539928, -0.31976858, -0.62891054, -2.7093844, 0
1477, 1748696761, -0.8071517, -0.1382982, 0.55484396, -0.14673278, -0.9013386, -1.8175738, -2.1464052, 0
1478, 1748713428, -0.80098104, -0.14098242, 0.5628238, -0.1475985, -0.71634626, -1.7138005, -1.5530844, 0
1479, 1748730095, -0.79527825, -0.14409336, 0.5700611, -0.147657, -0.61957633, -1.547873, -1.3089008, 0
1481, 1748763429, -0.78587234, -0.1502348, 0.58095795, -0.14941484, -1.4777132, -0.353107, -0.98554325, 0
1482, 1748780096, -0.78228974, -0.15013921, 0.58549964, -0.15057802, -1.4106386, -0.77139425, -0.018054962, 0
1483, 1748796763, -0.779499, -0.15062988, 0.588787, -0.15173756, -1.4269634, -0.2644297, 0.36934566, 0
1487, 1748863431, -0.77129084, -0.15111151, 0.59856945, -0.15489656, -0.6108113, 0.6642282, 0.9272232, 0
1489, 1748896765, -0.7673075, -0.14783785, 0.60468453, -0.1540852, 0.12191335, -0.71983325, 0.07651043, 0
1490, 1748913432, -0.76513445, -0.15050495, 0.6065607, -0.15493286, 0.36138245, -0.58247435, 0.5705824, 0
1491, 1748930099, -0.7629601, -0.1529832, 0.6083551, -0.15618902, 0.30465487, -0.65862274, 0.910203, 0
1493, 1748963433, -0.7576229, -0.15934624, 0.61218, -0.16079323, 0.3074385, -0.1884064, 0.15891647, 0
1494, 1748980100, -0.75447524, -0.16205996, 0.61487716, -0.16258116, -0.2937872, 0.3548134, -0.20679188, 0
1495, 1748996767, -0.75099474, -0.16259892, 0.61863554, -0.16389383, -0.9559658, 0.14874676, -0.6282482, 0
1497, 1749030101, -0.7451986, -0.16563022, 0.62441343, -0.165397, -1.0822426, -0.18278672, -1.546855, 0
1498, 1749046768, -0.74526185, -0.16385429, 0.625564, -0.16250852, -1.6466463, 0.0850003, -0.90498257, 0
1499, 1749063435, -0.7468688, -0.1634534, 0.62435275, -0.16017589, -0.6395774, -0.0979992, -0.095498085, 0
1502, 1749113436, -0.7572226, -0.17070857, 0.6106447, -0.15680632, -0.54900014, 0.023046533, 0.3492422, 0
1505, 1749163437, -0.7757523, -0.17655656, 0.5859892, -0.15380439, -1.1661446, -0.30322304, -1.8244858, 0
1508, 1749213438, -0.80498546, -0.16756679, 0.54989827, -0.1467458, -1.1026607, -2.894031, -4.1489406, 0
1509, 1749230105, -0.813776, -0.16595608, 0.53746796, -0.14614403, -0.32566172, -3.3818808, -4.7680607, 0
1510, 1749246772, -0.82128865, -0.16639343, 0.5255765, -0.1468682, -0.34901616, -3.0793514, -5.6390343, 0
1512, 1749280106, -0.8332092, -0.1715318, 0.50356984, -0.1508615, 1.9211247, -2.0900254, -7.2413225, 0
1513, 1749296773, -0.83764404, -0.18451214, 0.4895372, -0.15704654, 5.157552, -2.3157363, -5.991926, 0
1514, 1749313440, -0.84299463, -0.19782987, 0.47290656, -0.16304985, 4.0338173, -3.5499659, -0.82342243, 0
1516, 1749346774, -0.85577625, -0.19563012, 0.45102358, -0.16110969, 4.698194, 0.43836367, 4.662778, 0
1517, 1749363441, -0.8618704, -0.19573127, 0.43963075, -0.15998855, 5.7055745, 3.0792546, 6.227522, 0
1520, 1749413442, -0.87530416, -0.22009452, 0.39989993, -0.15963724, -0.5031916, 1.9644806, 2.4155016, 0
1521, 1749430109, -0.8791126, -0.21939622, 0.39390185, -0.15450095, -2.6587417, 3.7868602, 2.027728, 0
1522, 1749446776, -0.8820121, -0.22089858, 0.388247, -0.15008572, -3.7700396, 5.374497, 2.0433292, 0
1524, 1749480110, -0.886357, -0.21753983, 0.3806459, -0.14885938, -4.9563227, 0.26829645, 4.6322937, 0
1525, 1749496777, -0.88941836, -0.20806377, 0.37938762, -0.1473512, -0.54744583, -0.25558773, 8.951361, 0
1526, 1749513444, -0.8921113, -0.20175685, 0.37698078, -0.14601278, 1.1051656, -1.56458, 9.217964, 0
1528, 1749546778, -0.89530265, -0.18645631, 0.37750793, -0.14545663, -1.5789051, -0.4479215, 1.8616714, 0
1529, 1749563445, -0.8961921, -0.17835608, 0.37962046, -0.14463662, -1.1285639, 1.3104593, 1.1211681, 0
1532, 1749613446, -0.89624697, -0.16481425, 0.38725513, -0.14004916, 0.41482618, 0.42442697, 1.7887297, 0
1533, 1749630113, -0.8953759, -0.16043282, 0.39216423, -0.13701637, 0.36180866, -0.19079217, 0.7511883, 0
1536, 1749680114, -0.89139736, -0.15519476, 0.40503335, -0.13143802, -0.2654261, -0.861216, 1.1443424, 0
1540, 1749746782, -0.8798896, -0.1463727, 0.43139568, -0.13516597, 0.15743068, -0.24915011, -0.41417408, 0
1541, 1749763449, -0.87638336, -0.14030932, 0.44094634, -0.13354632, 0.048592836, 0.31564188, -1.020896, 0
1545, 1749830117, -0.86072356, -0.12903258, 0.47740024, -0.120818675, -0.0014588691, -0.36627713, -1.2172718, 0
1547, 1749863451, -0.85256577, -0.12562948, 0.4945544, -0.11299494, 0.4215164, 0.23859097, -1.3865538, 0
1548, 1749880118, -0.84850997, -0.118915014, 0.50437427, -0.10723494, 0.7442539, 1.2978133, -2.556623, 0
1549, 1749896785, -0.84457916, -0.11412187, 0.5128536, -0.103180885, 0.5913726, 0.118261434, -2.6796494, 0
1551, 1749930119, -0.83615094, -0.113689184, 0.52690333, -0.1014975, -0.63881814, -1.9390321, -2.8644185, 0
1552, 1749946786, -0.8314777, -0.11598621, 0.53360385, -0.102281556, -0.3660295, -2.3013425, -2.765143, 0
1553, 1749963453, -0.8268536, -0.114350334, 0.5411092, -0.10217938, -0.34970212, -1.7571023, -2.870791, 0
1555, 1749996787, -0.81634873, -0.10823251, 0.5581372, -0.10171504, -0.80854136, -1.0480082, -2.4508033, 0
1557, 1750030121, -0.80603135, -0.10869327, 0.5723719, -0.10436791, -0.7807308, -1.2052077, -1.331542, 0
1560, 1750080122, -0.7933546, -0.11166248, 0.58801275, -0.11119218, -1.8949654, -0.91417456, -0.018828392, 0
1562, 1750113456, -0.7846138, -0.11143311, 0.59893614, -0.115074635, -1.5609993, -0.66103125, -0.34737682, 0
1563, 1750130123, -0.78101826, -0.11230544, 0.6030743, -0.11705549, -0.9643091, -0.7278269, -0.119345665, 0
1564, 1750146790, -0.77863085, -0.114853434, 0.6052237, -0.11937113, 0.2568991, -1.2434716, 0.63716793, 0
1566, 1750180124, -0.77511257, -0.11961717, 0.6080891, -0.122973844, 0.12841077, -0.14453542, 1.2506943, 0
1567, 1750196791, -0.7725275, -0.12220025, 0.61045456, -0.124964416, -0.3341474, -0.10391022, 0.3380165, 0
1570, 1750246792, -0.7668234, -0.12753212, 0.614953, -0.13248777, 0.18423145, -0.3341822, 1.4576349, 0
1572, 1750280126, -0.7652069, -0.12871756, 0.6155937, -0.13761413, -0.39527103, 0.64252037, 0.6554527, 0
1574, 1750313460, -0.7657796, -0.12846753, 0.6141277, -0.14116511, -1.1497344, 0.033074833, -0.8471031, 0
1575, 1750330127, -0.7667068, -0.12950324, 0.6123186, -0.14303175, -1.5343081, -0.52225745, -1.2838945, 0
1576, 1750346794, -0.7675154, -0.1331889, 0.60988593, -0.14567995, -0.4831456, -1.0254163, -0.9734316, 0
1578, 1750380128, -0.77375937, -0.13813679, 0.60007656, -0.14874637, -1.6075727, 0.435885, -1.1635275, 0
1579, 1750396795, -0.7791205, -0.13968064, 0.5925029, -0.14967895, -1.7268205, -0.1078207, -1.3567371, 0
1580, 1750413462, -0.7855505, -0.14124514, 0.58354694, -0.14978616, -2.2600307, 0.23230356, -1.6730652, 0
1582, 1750446796, -0.79889166, -0.14303891, 0.564928, -0.14889984, -2.2083142, -0.6112967, -3.853539, 0
1583, 1750463463, -0.8071408, -0.14001156, 0.5544897, -0.1465073, -1.6542999, -0.95281845, -4.3814974, 0
1586, 1750513464, -0.8323029, -0.15249825, 0.51273197, -0.14534366, 1.6204969, -4.445459, -7.4732957, 0
1589, 1750563465, -0.85239244, -0.19256899, 0.46460593, -0.14313766, -3.63718, 0.6221163, 2.242589, 0
1590, 1750580132, -0.86266017, -0.15780407, 0.46377084, -0.12583646, 2.3785408, 6.5829062, 10.349443, 0
1591, 1750596799, -0.8686811, -0.1541176, 0.4540238, -0.12452251, 7.8197026, 8.904618, 7.9221478, 0
1594, 1750646800, -0.8804041, -0.19547611, 0.411406, -0.1320061, 2.1498017, -0.34005418, 3.8360777, 0
1595, 1750663467, -0.8865956, -0.18353073, 0.40553433, -0.12573564, -0.48763195, 1.9059356, 2.2032871, 0
1598, 1750713468, -0.89804244, -0.18631583, 0.3807785, -0.117544584, -2.6380217, 1.4047468, 3.392068, 0
1599, 1750730135, -0.9006396, -0.18326655, 0.37599826, -0.11785439, -3.5849319, -2.4688663, 2.4404554, 0
1601, 1750763469, -0.9049339, -0.17574298, 0.36782902, -0.12212178, 0.1920705, -0.3152446, 5.14172, 0
1602, 1750780136, -0.9062499, -0.1714569, 0.3654777, -0.12546875, -0.3737092, -0.94943017, 2.489688, 0
1603, 1750796803, -0.90721256, -0.16659246, 0.3644628, -0.12799168, -0.6143446, -0.28755546, 1.8932476, 0
1606, 1750846804, -0.90810215, -0.1557706, 0.3661841, -0.13037565, -0.8960762, 1.7538736, 1.1777048, 0
1607, 1750863471, -0.9079686, -0.15314788, 0.36791492, -0.12953892, -0.69305825, 1.1530325, 1.2111712, 0
1609, 1750896805, -0.90698916, -0.14794143, 0.37329784, -0.12702534, -0.6712376, 0.62987036, 1.0852365, 0
1610, 1750913472, -0.9061113, -0.14433588, 0.37721732, -0.12585434, -0.5216245, 0.6019653, 0.807209, 0
1612, 1750946806, -0.9032855, -0.13565625, 0.3878352, -0.12352752, -0.20238651, 0.22211465, 0.47273922, 0
1613, 1750963473, -0.9011985, -0.1327698, 0.39378363, -0.123086765, -0.041345872, 0.22536945, 0.030026436, 0
1614, 1750980140, -0.8987136, -0.13051479, 0.40027463, -0.122729376, -0.026780875, 0.06483317, -0.2025404, 0
1617, 1751030141, -0.8894257, -0.11759695, 0.42564744, -0.11798146, 0.38825184, 0.43659875, -0.8684492, 0
1621, 1751096809, -0.87302285, -0.11425181, 0.46146813, -0.10875437, 0.49796027, -0.3249084, -1.1391335, 0
1622, 1751113476, -0.86835164, -0.11281761, 0.47108215, -0.106404684, 0.33458504, 0.3094087, -2.038444, 0
1628, 1751213478, -0.83893126, -0.10940685, 0.52292943, -0.10378818, -0.5021326, -1.143854, -1.9781628, 0
1632, 1751280146, -0.8258521, -0.11832571, 0.54055345, -0.10849923, -1.6541494, -0.32922068, -1.9994988, 0
1633, 1751296813, -0.82306397, -0.11811254, 0.54439557, -0.11068417, -1.5628102, -0.21981409, -1.1687422, 0
1634, 1751313480, -0.82017094, -0.116729766, 0.5484563, -0.113543555, -1.7923832, -1.0221208, -0.8504486, 0
1636, 1751346814, -0.8137948, -0.1196231, 0.55572855, -0.12081762, -1.3697414, -1.973466, 0.97351074, 0
1637, 1751363481, -0.81051964, -0.12044281, 0.5594951, -0.12457761, -1.2778473, -0.64910835, 0.8313856, 0
1638, 1751380148, -0.80691713, -0.11672285, 0.564768, -0.12767208, -0.94524837, 0.18103293, 0.38414764, 0
1640, 1751413482, -0.8000076, -0.11441301, 0.5732582, -0.13518564, 0.3184094, -0.91478693, 0.3689518, 0
1641, 1751430149, -0.79688454, -0.11761441, 0.5759394, -0.13942114, -0.3408689, -0.617847, 0.55976486, 0
1643, 1751463483, -0.7912543, -0.12502913, 0.5795328, -0.14976236, 0.6680945, -0.94246006, 0.83552647, 0
1644, 1751480150, -0.7892815, -0.12807979, 0.58005327, -0.15547062, 0.47967625, 0.14522481, 0.4369793, 0
1645, 1751496817, -0.7880323, -0.12990792, 0.57995343, -0.16057925, -0.2890246, 0.315779, 0.7813263, 0
1647, 1751530151, -0.7856178, -0.13375394, 0.5799891, -0.1689085, -0.09756564, 0.69796044, -0.79893875, 0
1649, 1751563485, -0.7874732, -0.13037202, 0.5771626, -0.17255384, -0.7407977, -1.2517772, -1.1583328, 0
1651, 1751596819, -0.791247, -0.1452933, 0.565873, -0.18057728, -2.7201009, 1.5883176, -1.0589123, 0
1653, 1751630153, -0.7974405, -0.13592628, 0.5607513, -0.17655945, -0.47017315, -0.3865637, -1.8658481, 0
1655, 1751663487, -0.80573285, -0.13631134, 0.5499467, -0.17255375, -2.3340127, 1.129031, -3.036508, 0
1656, 1751680154, -0.81063485, -0.13413174, 0.544227, -0.16940829, -1.6369632, 0.38976687, -2.999988, 0
1657, 1751696821, -0.8161271, -0.1318749, 0.5374391, -0.16645548, -0.96470004, -1.5984691, -3.2613487, 0
1661, 1751763489, -0.8396772, -0.11501183, 0.50926155, -0.14956534, 0.58276397, -2.253904, -6.311077, 0
1663, 1751796823, -0.8508014, -0.114756465, 0.49411106, -0.13720351, -1.824452, 0.022488533, -0.24281216, 0
1666, 1751846824, -0.8682354, -0.09785464, 0.47300482, -0.11340578, 9.369876, 2.6002223, 8.102398, 0
1667, 1751863491, -0.87450266, -0.11126051, 0.45889086, -0.11085159, 8.660916, -0.11870695, 9.611961, 0
1668, 1751880158, -0.88043344, -0.12095569, 0.4452455, -0.10938801, 6.5230966, -1.8103956, 7.3877106, 0
1670, 1751913492, -0.8898241, -0.12683761, 0.4247647, -0.10817939, 2.5424213, -0.69197553, 3.073536, 0
1671, 1751930159, -0.89350367, -0.12724614, 0.4173308, -0.106288835, 0.62104595, -0.07413936, 1.6133451, 0
1672, 1751946826, -0.8965921, -0.13425055, 0.4089304, -0.104298025, -1.630979, 2.7296948, 2.4930792, 0
1674, 1751980160, -0.90178305, -0.14839827, 0.39093, -0.109277606, -6.02182, -1.1504182, 4.775219, 0
1675, 1751996827, -0.9044086, -0.14452778, 0.38628045, -0.10930236, -3.0194468, 0.10281641, 6.106367, 0
1679, 1752063495, -0.9111499, -0.12961404, 0.3768071, -0.105000846, -1.2620153, 1.3902102, 0.17709255, 0
1680, 1752080162, -0.9114727, -0.12677325, 0.37777036, -0.10216805, -0.8999512, 1.2693197, 0.041189194, 0
1683, 1752130163, -0.9100375, -0.11335442, 0.38882437, -0.088321224, -0.38406143, 0.6593818, -0.632143, 0
1684, 1752146830, -0.9085022, -0.110424675, 0.39417663, -0.08400903, -0.39832893, 0.21366397, -1.0933781, 0
1686, 1752180164, -0.9040665, -0.10145159, 0.40806156, -0.07655004, -0.19315855, -0.691753, -1.3031282, 0
1687, 1752196831, -0.90124154, -0.09468639, 0.4165547, -0.07268334, 0.044915374, -0.19616514, -1.840519, 0
1688, 1752213498, -0.89788246, -0.08834623, 0.4256106, -0.06971595, 0.31763425, -0.057925534, -1.8827376, 0
1690, 1752246832, -0.89028406, -0.080340825, 0.44337484, -0.06603918, -0.12685344, -0.2395912, -2.1197553, 0
1691, 1752263499, -0.8860359, -0.07705788, 0.45252237, -0.06502665, -0.34942695, -0.41618094, -2.7370996, 0
1692, 1752280166, -0.88159585, -0.07315102, 0.46194768, -0.06359692, -0.21212006, -0.49926168, -2.4475498, 0
1695, 1752330167, -0.8678056, -0.06780153, 0.488288, -0.062402505, -0.47995675, -0.91101396, -2.1507297, 0
1698, 1752380168, -0.8542612, -0.06608229, 0.5116746, -0.06373775, -0.011054735, -1.5363618, -0.76412773, 0
1702, 1752446836, -0.8310583, -0.07091913, 0.5462186, -0.07720487, -0.71915716, -0.9277863, -0.7472372, 0
1703, 1752463503, -0.82490194, -0.07482959, 0.5542823, -0.08192195, -0.83924043, -1.2271928, -0.41955185, 0
1705, 1752496837, -0.8131736, -0.084319614, 0.56823206, -0.09356264, -0.79483265, -0.5398038, 0.7487097, 0
1709, 1752563505, -0.7942845, -0.0883138, 0.5897742, -0.116110876, -0.9637235, 0.04771292, -0.05360794, 0
1711, 1752596839, -0.78662777, -0.09860235, 0.5959627, -0.12777065, -0.4871237, -0.6887501, 0.22905636, 0
1713, 1752630173, -0.78234935, -0.103039235, 0.5993999, -0.13429314, -0.19952376, 0.17084375, 0.0680151, 0
1714, 1752646840, -0.78062594, -0.10554237, 0.6006218, -0.13689426, -0.15191147, 0.13243428, 0.09041309, 0
1715, 1752663507, -0.77868164, -0.108359985, 0.6022523, -0.13859168, -0.021831434, 0.42248252, 0.14796734, 0
1720, 1752746842, -0.7712736, -0.11822638, 0.6082861, -0.1454308, -0.25058126, -0.21974955, 0.8273163, 0
1722, 1752780176, -0.76804036, -0.119193435, 0.6114946, -0.14827007, 0.2962508, -0.22661224, 0.49371147, 0
1724, 1752813510, -0.7652659, -0.11972655, 0.61459184, -0.14937656, 0.17198741, -0.25925, -0.33006763, 0
1726, 1752846844, -0.7634642, -0.12173408, 0.6159006, -0.15156616, -0.60266024, -0.610153, -0.4433012, 0
1728, 1752880178, -0.7616994, -0.12548791, 0.6170201, -0.15282539, -0.7661689, -0.99642354, 0.23826313, 0
1729, 1752896845, -0.76188654, -0.12931573, 0.6160094, -0.152779, -1.0802609, -0.19872956, 0.44456768, 0
1730, 1752913512, -0.76171106, -0.13118668, 0.6158734, -0.15260687, -1.74137, 0.9975341, 0.14491558, 0
1734, 1752980180, -0.76125044, -0.13277341, 0.61736584, -0.14741468, -0.5351146, -0.72095746, 0.09747028, 0
1736, 1753013514, -0.76538163, -0.12996176, 0.6139217, -0.1428414, -0.24769258, 0.4110976, 1.4183588, 0
1737, 1753030181, -0.76722234, -0.12961355, 0.6121419, -0.14090835, -0.4587666, -0.2023902, -0.4317789, 0
1738, 1753046848, -0.76853114, -0.13012902, 0.6106286, -0.13986303, -0.58943003, -0.62387973, 0.5184984, 0
1740, 1753080182, -0.77205545, -0.12924707, 0.6064136, -0.13960916, -0.930121, -0.57513285, -0.03813839, 0
1741, 1753096849, -0.7732738, -0.12968528, 0.6047707, -0.13958623, -0.5771878, -0.88936186, 1.0412416, 0
1742, 1753113516, -0.7751713, -0.12936768, 0.6022654, -0.14018631, -0.53850305, -0.3092305, 0.19544888, 0
1744, 1753146850, -0.77772504, -0.12494257, 0.60016835, -0.139046, -1.2266985, -0.4714722, 0.1461792, 0
1745, 1753163517, -0.77967966, -0.12604943, 0.5974175, -0.13894625, -0.8441476, -0.89557284, -0.12141895, 0
1746, 1753180184, -0.78170395, -0.12379359, 0.5953964, -0.13827436, -1.8853135, -0.40018705, -0.42829037, 0
1749, 1753230185, -0.78888226, -0.1229783, 0.5861717, -0.13764629, -2.2951727, 0.23137844, -0.8120346, 0
1751, 1753263519, -0.7920348, -0.11628639, 0.58352154, -0.13661477, -1.8919196, -0.66441417, -1.1164846, 0
1753, 1753296853, -0.7939253, -0.12278868, 0.57859164, -0.14085473, -1.0539672, -0.22284448, -1.066, 0
1755, 1753330187, -0.7957446, -0.122656144, 0.57559884, -0.14294967, 0.07701631, -1.8548765, 0.6276636, 0
1756, 1753346854, -0.796927, -0.11654621, 0.5758488, -0.14044711, -2.906414, 0.63210243, -1.3033075, 0
1757, 1753363521, -0.7975395, -0.117768, 0.57442003, -0.14179496, -1.7363626, -1.1775548, 0.742877, 0
1759, 1753396855, -0.79892826, -0.11037369, 0.5748732, -0.13803898, -2.9537928, 1.7552795, -1.3480072, 0
1760, 1753413522, -0.79963577, -0.107709736, 0.574763, -0.13649677, -1.6164045, -0.2760908, 0.45320415, 0
1761, 1753430189, -0.8003835, -0.10621564, 0.574582, -0.13402516, -1.6337148, -1.3285177, 0.46522522, 0
1763, 1753463523, -0.80126745, -0.10630061, 0.5741926, -0.1302926, -1.4821748, -0.8548492, 0.87979317, 0
1764, 1753480190, -0.8018992, -0.10214616, 0.57483065, -0.12687002, -2.5053747, -0.022042753, 0.14076996, 0
1765, 1753496857, -0.80220306, -0.1035987, 0.57444066, -0.1255315, -2.436074, -1.920135, 0.95154953, 0
1768, 1753546858, -0.79990387, -0.10641192, 0.5775415, -0.12360734, -3.4744925, -0.88003105, -0.10712147, 0
1769, 1753563525, -0.79888844, -0.10631066, 0.5788962, -0.12392409, -2.1741443, -1.4650036, -0.23905945, 0
1771, 1753596859, -0.7976957, -0.10555889, 0.5805496, -0.1245143, -3.3932176, -0.56567943, -0.5602722, 0
1772, 1753613526, -0.79697347, -0.10583502, 0.5813484, -0.12517661, -2.9470208, -1.4517154, -0.12626457, 0
1774, 1753646860, -0.7952163, -0.10619372, 0.58358806, -0.12562501, -3.707653, -0.3538629, -0.9002123, 0
1775, 1753663527, -0.79437786, -0.10538578, 0.58491415, -0.12544277, -3.2734995, -0.6775764, -0.9223871, 0
1776, 1753680194, -0.79351133, -0.10565002, 0.58602065, -0.12553969, -3.2429764, -1.2950745, -0.6687374, 0
1778, 1753713528, -0.79154503, -0.10905959, 0.5879149, -0.12617885, -3.4128, -1.281075, 0.23553753, 0
1779, 1753730195, -0.79038125, -0.11194935, 0.58875537, -0.12702231, -2.8303077, -1.6604279, 0.36648655, 0
1780, 1753746862, -0.7890518, -0.11364718, 0.5900406, -0.1278143, -3.0025113, 0.14344934, -0.60460186, 0
1783, 1753796863, -0.78705525, -0.11653359, 0.59199494, -0.12848583, -1.9418604, -2.721943, 0.70298195, 0
1784, 1753813530, -0.7863824, -0.11845922, 0.5924236, -0.12886904, -2.6317887, -0.2119232, -0.043931007, 0
1786, 1753846864, -0.78578925, -0.11132856, 0.5952911, -0.12558848, -2.59299, -1.0801808, 0.3800745, 0
1787, 1753863531, -0.7850076, -0.11590662, 0.59512216, -0.12712577, -2.4940531, -2.3220708, 0.6133156, 0
1790, 1753913532, -0.7795554, -0.11342029, 0.60289377, -0.12629712, -3.2029924, -0.48279682, 0.9235153, 0
1792, 1753946866, -0.77554977, -0.114039026, 0.60850155, -0.12347488, -2.9885972, -0.80571294, -0.5967026, 0
1794, 1753980200, -0.77401364, -0.10917466, 0.61161053, -0.122142866, -3.3709354, -0.7112669, 0.19427776, 0
1795, 1753996867, -0.7722951, -0.10878289, 0.61399585, -0.12140156, -3.4295478, -1.712722, -0.08038139, 0
1796, 1754013534, -0.7706311, -0.111283414, 0.61573297, -0.12090989, -3.3581696, -1.6195939, -0.40806103, 0
1798, 1754046868, -0.7690289, -0.11254255, 0.61750734, -0.1208978, -3.9158275, -0.24921158, -0.28968716, 0
1801, 1754096869, -0.76437366, -0.11810055, 0.62183154, -0.122937106, -3.2099223, -1.4577904, 0.21218967, 0
1802, 1754113536, -0.76330435, -0.11898626, 0.62274283, -0.124107525, -3.2101648, -0.121989295, 0.21996593, 0
1803, 1754130203, -0.76133394, -0.117392614, 0.625454, -0.12409474, -3.569186, 0.40179992, -0.085074425, 0
1805, 1754163537, -0.7568987, -0.11591367, 0.6310687, -0.124189876, -3.5913882, -1.2287652, -0.4652338, 0
1807, 1754196871, -0.75505507, -0.11741279, 0.6327706, -0.12533969, -3.3436437, -2.0106707, -0.47412395, 0
1809, 1754230205, -0.7542598, -0.119366564, 0.63343805, -0.12491062, -3.2892208, 0.6288569, 0.34926128, 0
1810, 1754246872, -0.7524307, -0.1195168, 0.63575286, -0.12403573, -3.519013, 0.47968143, 0.25154495, 0
1811, 1754263539, -0.7503315, -0.11863653, 0.6385871, -0.12303415, -3.7762043, -0.20885353, -0.13495922, 0
1813, 1754296873, -0.7479262, -0.11624628, 0.6420613, -0.12187286, -3.6659758, -2.0016897, -0.5574684, 0
1814, 1754313540, -0.7475581, -0.11615864, 0.64263046, -0.12121312, -3.3156667, -1.6912684, -0.22871399, 0
1815, 1754330207, -0.74727803, -0.116831556, 0.64308786, -0.119860165, -3.5367057, -0.47334075, 0.11634445, 0
1817, 1754363541, -0.74548876, -0.117921546, 0.6453469, -0.11777598, -3.4253082, -0.47430456, 0.056955338, 0
1818, 1754380208, -0.7447152, -0.11772552, 0.64645135, -0.11680436, -3.3705008, -0.7017447, 0.08264637, 0
1819, 1754396875, -0.7442271, -0.11686111, 0.64731807, -0.11597994, -3.200196, -0.8784246, 0.21059036, 0
1821, 1754430209, -0.7428879, -0.11507945, 0.6495523, -0.1138366, -3.2257147, -1.1541048, 0.20348644, 0
1822, 1754446876, -0.74228203, -0.115636766, 0.65034455, -0.112695545, -3.1555283, -1.2218231, 0.18614864, 0
1823, 1754463543, -0.7419538, -0.11671758, 0.6507348, -0.11148395, -3.1511345, -0.7482659, 0.2692852, 0
1825, 1754496877, -0.7418415, -0.11616646, 0.6512252, -0.109931186, -2.9309816, -0.20242786, 0.34543324, 0
1826, 1754513544, -0.7410917, -0.1146823, 0.65248483, -0.10907463, -2.914009, -0.48312682, 0.23035431, 0
1829, 1754563545, -0.7369783, -0.11225198, 0.6579112, -0.10685436, -3.411848, -1.5428914, -0.14484024, 0
1830, 1754580212, -0.73522687, -0.1123507, 0.6599613, -0.10617246, -3.3257499, -1.1691029, -0.35342598, 0
1832, 1754613546, -0.7328505, -0.11273502, 0.6627149, -0.105036646, -3.50283, -0.5332315, -0.7049732, 0
1833, 1754630213, -0.73210686, -0.11267422, 0.66358346, -0.10480274, -3.414471, -0.686399, -0.6322117, 0
1834, 1754646880, -0.73140687, -0.112620115, 0.664338, -0.104969144, -3.0957298, -0.91011596, -0.45717335, 0
1836, 1754680214, -0.72905856, -0.11100181, 0.6672703, -0.10442768, -3.272401, -0.37934405, -0.071686745, 0
1837, 1754696881, -0.72676057, -0.10743937, 0.6705898, -0.102897406, -2.3555303, -0.5051388, -0.24770355, 0
1838, 1754713548, -0.7246483, -0.10570496, 0.6732883, -0.10196463, -1.7561337, -0.75888145, -0.1789074, 0
1840, 1754746882, -0.7212293, -0.10567564, 0.6771033, -0.10096805, -1.9344249, -0.84566164, -0.20365047, 0
1841, 1754763549, -0.7198545, -0.10598536, 0.67855716, -0.10069573, -1.7940259, -0.82484865, -0.18962955, 0
1844, 1754813550, -0.7137381, -0.10841632, 0.6848017, -0.099363804, -2.1546192, -1.3838493, -0.19063377, 0
1845, 1754830217, -0.7108592, -0.11126234, 0.68744206, -0.098620266, -1.8840662, -1.4016247, -0.5551443, 0
1846, 1754846884, -0.70890516, -0.114328444, 0.6890715, -0.097803555, -1.6826643, -1.7161628, -0.6542616, 0
1848, 1754880218, -0.70519185, -0.13012263, 0.6900038, -0.098335065, -1.0446768, -1.7009356, -1.0733471, 0
1849, 1754896885, -0.7028156, -0.13923585, 0.6907084, -0.097919874, -1.1930884, -1.3078123, -0.2219038, 0
1850, 1754913552, -0.69972634, -0.1472522, 0.6922323, -0.097553685, -1.5832536, -0.7646424, 0.596138, 0
1852, 1754946886, -0.6913218, -0.15974635, 0.6982454, -0.094927445, -1.208025, 0.20437232, 1.5595045, 0
1853, 1754963553, -0.6881375, -0.16253006, 0.7011915, -0.091563135, -1.6123747, 1.8788633, 1.0964794, 0
1855, 1754996887, -0.6787983, -0.14905065, 0.7150778, -0.07538684, 1.716415, 1.8074125, 0.4962721, 0
1856, 1755013554, -0.67733335, -0.14617056, 0.71745485, -0.071519315, 1.6643275, 0.45848224, 0.21047783, 0
1859, 1755063555, -0.6787826, -0.13376799, 0.7189269, -0.06713463, -0.0076334146, -0.54845756, -0.037837982, 0
1860, 1755080222, -0.6791929, -0.12956212, 0.7193625, -0.06656489, -0.32145768, -1.6801587, 0.46057606, 0
1861, 1755096889, -0.6801839, -0.12582581, 0.71921897, -0.06515044, -0.34116122, -1.1648005, 0.6998625, 0
1863, 1755130223, -0.6819149, -0.124565616, 0.71807045, -0.06207239, -0.64937705, 1.0263668, -0.5830679, 0
1864, 1755146890, -0.6815415, -0.12506957, 0.71836454, -0.06175495, -0.07866762, 1.0487367, -1.181428, 0
1865, 1755163557, -0.68147564, -0.124475524, 0.7185067, -0.06203048, 0.36527336, 1.0374388, -1.1133747, 0
1867, 1755196891, -0.68461883, -0.124375105, 0.7154603, -0.062824935, 0.6138756, 0.23337993, 0.50113773, 0
1868, 1755213558, -0.6864387, -0.12373366, 0.71372616, -0.06395002, 0.6940775, -0.61368006, 1.1428127, 0
1871, 1755263559, -0.69029903, -0.12576988, 0.7095034, -0.065397605, 0.3559444, 0.088308066, 0.22933292, 0
1872, 1755280226, -0.6909468, -0.12783393, 0.7084619, -0.06584379, -0.18723322, -0.6480923, 0.06490326, 0
1876, 1755346894, -0.69176185, -0.14250116, 0.7044358, -0.07022531, 0.14200583, -0.31695774, -0.09727383, 0
1877, 1755363561, -0.69247985, -0.14452869, 0.7032074, -0.07130936, 0.30931824, -0.06733965, -0.49723244, 0
1879, 1755396895, -0.69562536, -0.14713936, 0.6994561, -0.07224347, 0.05939857, 0.08050898, -0.31171227, 0
1880, 1755413562, -0.69677114, -0.14777018, 0.6981692, -0.072363526, -0.17946969, -0.049406696, 0.07855511, 0
1881, 1755430229, -0.6977996, -0.14797232, 0.69712305, -0.07212388, 0.15139784, 0.10154585, 0.065974236, 0
1883, 1755463563, -0.7020842, -0.14967728, 0.6925093, -0.07147068, 0.19250187, 0.2270986, 0.16719341, 0
1884, 1755480230, -0.7040731, -0.1511238, 0.690153, -0.0716532, -0.05389523, -0.096175164, 0.25147724, 0
1886, 1755513564, -0.70757526, -0.15406232, 0.68577975, -0.072875455, -0.15152569, -0.3653545, 0.008536339, 0
1887, 1755530231, -0.7091421, -0.15600125, 0.68364763, -0.07354995, -0.080070384, -0.2983152, -0.087322235, 0
1888, 1755546898, -0.7109384, -0.15758249, 0.6813301, -0.07433848, -0.123109594, -0.46056575, -0.099782944, 0
1890, 1755580232, -0.71493256, -0.15951844, 0.6765834, -0.075249806, -0.15910368, -0.2526458, 0.05806923, 0
1891, 1755596899, -0.7171789, -0.16070169, 0.6739085, -0.075361714, -0.17994492, 0.041975174, 0.08673763, 0
1894, 1755646900, -0.725315, -0.16143417, 0.6649202, -0.07576894, -0.10015795, -0.3057004, -0.109350204, 0
1895, 1755663567, -0.72829825, -0.16061574, 0.6618987, -0.075347945, 0.14279304, -0.3178918, -0.17421436, 0
1896, 1755680234, -0.7307408, -0.15983787, 0.65945965, -0.07473537, 0.34064728, -0.44758603, -0.15476131, 0
1898, 1755713568, -0.7338347, -0.1608518, 0.6559787, -0.07285567, 0.5540864, -0.35334125, 0.14923191, 0
1899, 1755730235, -0.73467124, -0.16319758, 0.6546233, -0.071383424, 0.46745366, -0.39040315, -0.02384758, 0
1900, 1755746902, -0.734967, -0.16686875, 0.6535575, -0.06959754, 0.10540424, -0.32595682, -0.1031971, 0
1903, 1755796903, -0.73338574, -0.17984256, 0.65237314, -0.064915195, 0.3886953, -0.78519577, -0.09065437, 0
1906, 1755846904, -0.7338227, -0.1831385, 0.6514458, -0.059879914, 0.07360729, -0.72095627, -0.20619202, 0
1907, 1755863571, -0.735052, -0.18505529, 0.6496426, -0.05848137, -0.024873415, -0.7237174, -0.53527355, 0
1910, 1755913572, -0.74463826, -0.20805092, 0.6311503, -0.062294845, 0.09454196, -1.2782254, -1.2538805, 0
1914, 1755980240, -0.7524907, -0.24423724, 0.60589963, -0.08363111, -0.67218167, -0.8146425, -0.8544426, 0
1915, 1755996907, -0.75437737, -0.25352615, 0.5987336, -0.09033337, -0.71517617, 0.6380107, 1.1735754, 0
1917, 1756030241, -0.7577026, -0.26478487, 0.587446, -0.103369154, -0.10229786, 1.3006338, 3.4824533, 0
1918, 1756046908, -0.75934505, -0.26922876, 0.58213335, -0.10970049, 0.85418916, 0.62015367, 2.1719751, 0
1919, 1756063575, -0.7615158, -0.27403724, 0.57614315, -0.11427535, 1.5201523, 0.72400284, 0.69646645, 0
1921, 1756096909, -0.76460564, -0.28640035, 0.56483924, -0.11963387, 0.40445608, 1.4586303, 0.29219437, 0
1923, 1756130243, -0.7651786, -0.29846406, 0.55621576, -0.12667865, 1.0552475, 1.5086155, 0.097620964, 0
1926, 1756180244, -0.7651413, -0.3105119, 0.54785734, -0.1341502, 0.3535586, 1.2984998, -0.34776402, 0
1927, 1756196911, -0.76527154, -0.3126989, 0.54609275, -0.13551483, 0.2267892, 1.384254, -0.26597118, 0
1929, 1756230245, -0.7651584, -0.31599042, 0.54363674, -0.13836405, 0.19833528, 1.0692801, -0.35829163, 0
1930, 1756246912, -0.7651529, -0.3163806, 0.5431547, -0.13939247, 0.33765745, 1.101663, -0.27876282, 0
1931, 1756263579, -0.76479775, -0.31611744, 0.5435066, -0.14056057, 0.28117484, 0.97185355, -0.2505617, 0
1933, 1756296913, -0.76369864, -0.312833, 0.5469248, -0.14062648, 0.16913448, 1.0674062, -0.06293869, 0
1934, 1756313580, -0.7632638, -0.3099467, 0.54940164, -0.13972068, 0.18268652, 1.3221364, -0.11106014, 0
1936, 1756346914, -0.76236516, -0.30228683, 0.55555546, -0.13704905, 0.296135, 1.3405699, -0.07189846, 0
1937, 1756363581, -0.76202154, -0.2975126, 0.5590875, -0.13503201, 0.27308857, 1.4811479, -0.04615307, 0
1938, 1756380248, -0.7617218, -0.29187876, 0.5629952, -0.13276237, 0.23771185, 1.5723078, -0.15392113, 0
1941, 1756430249, -0.76098347, -0.27188048, 0.5759208, -0.12370589, 0.5335071, 1.5501981, 0.16369629, 0
1942, 1756446916, -0.7610861, -0.2652549, 0.5794505, -0.12094508, 0.40870774, 1.7616763, -0.0149793625, 0
1945, 1756496917, -0.7577454, -0.24612802, 0.5930951, -0.11612065, 0.19290867, 1.3696108, -0.13094616, 0
1946, 1756513584, -0.75618577, -0.23895466, 0.59846365, -0.11369964, 0.13587521, 1.5184791, -0.4464054, 0
1948, 1756546918, -0.7523192, -0.2245033, 0.60978216, -0.108546734, -0.10403902, 1.9063165, -0.8696461, 0
1949, 1756563585, -0.7498313, -0.21913603, 0.61476266, -0.1086365, -0.50458163, 3.0922275, -3.2086945, 0
1950, 1756580252, -0.7490083, -0.21532205, 0.6169005, -0.10981618, 1.4825963, -0.4781729, 2.0620756, 0
1952, 1756613586, -0.745607, -0.20080699, 0.626438, -0.10641679, 0.0731169, 1.5297471, -0.97520065, 0
1953, 1756630253, -0.743383, -0.19372827, 0.6315105, -0.105110005, -0.09848875, 0.9426307, -0.8140936, 0
1958, 1756713588, -0.7250915, -0.14366187, 0.665382, -0.10427381, -1.2972455, -1.3127078, 1.9565487, 0
1961, 1756763589, -0.72222006, -0.1143854, 0.6753701, -0.0958748, -0.9049244, 0.4613621, 1.1177473, 0
1962, 1756780256, -0.7236051, -0.10311687, 0.67621535, -0.092183895, -0.6100344, 0.75487906, -0.08557892, 0
