sep=,
DeviceTag:,Xsens_DOT_5,,,,,,,,,,,,,,,,,
FirmwareVersion:,3.0.0,,,,,,,,,,,,,,,,,
AppVersion:,2023.6.1,,,,,,,,,,,,,,,,,
SyncStatus:,Synced,,,,,,,,,,,,,,,,,
OutputRate:,60Hz,,,,,,,,,,,,,,,,,
FilterProfile:,General,,,,,,,,,,,,,,,,,
Measurement Mode:,Sensor fusion Mode - Extended (Quaternion),,,,,,,,,,,,,,,,,
StartTime:,2025-05-05 11:41:02.035 +0200,,,,,,,,,,,,,,,,,
 2025,,,,,,,,,,,,,,,,,,,

PacketCounter,SampleTimeFine,Quat_W,Quat_X,Quat_Y,Quat_Z,FreeAcc_X,FreeAcc_Y,FreeAcc_Z,Status
1, 2055052888, -0.7580612, -0.010827377, -0.42653906, 0.49324402, -0.13515225, 0.0063929455, -0.08867741, 0
2, 2055069555, -0.7580156, -0.0108317435, -0.42654347, 0.49331006, -0.17253569, 0.01020792, -0.113622665, 0
3, 2055086222, -0.7580557, -0.010845503, -0.42651445, 0.49327323, -0.18375246, -0.014337099, -0.07824707, 0
4, 2055102889, -0.75813645, -0.010861516, -0.42644185, 0.49321163, -0.1369312, 0.031114792, -0.07952881, 0
5, 2055119556, -0.7582209, -0.010868704, -0.42632285, 0.49318463, -0.11159287, 0.05469541, -0.088516235, 0
6, 2055136223, -0.7582752, -0.010855449, -0.42617348, 0.4932303, -0.11808503, 0.045169886, -0.10089016, 0
7, 2055152890, -0.7583372, -0.010817124, -0.4260008, 0.49328518, -0.12429712, 0.0037853036, -0.09049225, 0
8, 2055169557, -0.75841284, -0.010757998, -0.42584926, 0.49330112, -0.13491689, -0.005675511, -0.10218525, 0
9, 2055186224, -0.7584539, -0.010694856, -0.4257592, 0.49331695, -0.07893963, 0.017834336, -0.10029602, 0
10, 2055202891, -0.75847054, -0.010598719, -0.4257774, 0.49327773, -0.08651918, -0.016651995, -0.09961891, 0
11, 2055219558, -0.75838983, -0.01056676, -0.42589483, 0.49330133, -0.09704642, -0.016028086, -0.07158661, 0
12, 2055236225, -0.75826067, -0.010534661, -0.42610508, 0.4933188, -0.080666944, -0.025227726, -0.07792759, 0
13, 2055252892, -0.7581618, -0.010531593, -0.4263274, 0.4932789, -0.16083434, -0.010103735, -0.10755634, 0
14, 2055269559, -0.7580797, -0.010608753, -0.4265298, 0.49322826, -0.17972565, -0.017222175, -0.112285614, 0
15, 2055286226, -0.7580616, -0.010685096, -0.4266786, 0.49312603, -0.12987153, 0.021527035, -0.08146763, 0
16, 2055302893, -0.7580647, -0.010716399, -0.4268442, 0.49297684, -0.1125866, 0.022322519, -0.08629799, 0
17, 2055319560, -0.758029, -0.0107499305, -0.4270046, 0.49289232, -0.09878624, 0.03810267, -0.0893507, 0
18, 2055336227, -0.75796163, -0.01074166, -0.42719984, 0.49282685, -0.09072704, 0.021825816, -0.099588394, 0
19, 2055352894, -0.75784594, -0.010764413, -0.42740697, 0.49282485, -0.13539924, 0.029825289, -0.08458233, 0
20, 2055369561, -0.75777084, -0.010756897, -0.427569, 0.49279976, -0.16875586, 0.010662573, -0.10279751, 0
21, 2055386228, -0.7577307, -0.010754878, -0.42767406, 0.4927703, -0.15537727, 0.02324374, -0.09323788, 0
22, 2055402895, -0.7577196, -0.010721583, -0.427738, 0.49273276, -0.117542334, 0.023169046, -0.09982586, 0
23, 2055419562, -0.7576698, -0.010708228, -0.42780396, 0.49275225, -0.114927456, 0.0145487655, -0.08471203, 0
24, 2055436229, -0.7576184, -0.010714157, -0.42786554, 0.49277765, -0.12989053, 8.078457E-4, -0.08600426, 0
25, 2055452896, -0.7576011, -0.010766154, -0.4279168, 0.49275875, -0.1700804, -0.014264429, -0.10341835, 0
26, 2055469563, -0.75763583, -0.0108229015, -0.42792857, 0.49269387, -0.13029508, -0.018015884, -0.09659004, 0
27, 2055486230, -0.7576709, -0.010856807, -0.42798245, 0.49259245, -0.08462938, 0.014179424, -0.092803955, 0
28, 2055502897, -0.7576454, -0.010898463, -0.42805743, 0.4925653, -0.09030147, 0.05209285, -0.1128912, 0
29, 2055519564, -0.75761044, -0.010925895, -0.42814723, 0.49254045, -0.1216438, 0.0031529297, -0.09683514, 0
30, 2055536231, -0.7575702, -0.010970008, -0.42823374, 0.49252617, -0.13368623, 0.016964018, -0.07614803, 0
31, 2055552898, -0.7575928, -0.011028295, -0.42828536, 0.4924453, -0.15497047, 0.0044347206, -0.09278774, 0
32, 2055569565, -0.75763315, -0.011106715, -0.42831048, 0.49235964, -0.11818337, -0.0045998967, -0.09717274, 0
33, 2055586232, -0.7576632, -0.011172906, -0.42832476, 0.49229932, -0.09586962, 0.023273287, -0.08157253, 0
34, 2055602899, -0.75765, -0.011228453, -0.42835236, 0.49229443, -0.089502856, 0.039144702, -0.09763241, 0
35, 2055619566, -0.75756323, -0.011289997, -0.42839476, 0.49238986, -0.10518631, 0.001717683, -0.09893513, 0
36, 2055636233, -0.7575039, -0.011325529, -0.42846376, 0.49242026, -0.12441402, 0.020960877, -0.09974861, 0
37, 2055652900, -0.75745595, -0.01133427, -0.42852443, 0.49244094, -0.12364424, -0.013730178, -0.09757328, 0
39, 2055686234, -0.7573922, -0.01139259, -0.4286567, 0.49242234, -0.13868442, 0.020206423, -0.09574318, 0
42, 2055736235, -0.7574102, -0.011501677, -0.428811, 0.4922579, -0.15578048, 0.016867572, -0.10909748, 0
43, 2055752902, -0.7574476, -0.011569338, -0.42880625, 0.49220297, -0.1376138, 0.013095596, -0.09812069, 0
44, 2055769569, -0.75749147, -0.011623606, -0.42880535, 0.49213505, -0.10888791, 9.184706E-4, -0.10093403, 0
46, 2055802903, -0.7575025, -0.011747804, -0.42894942, 0.49198934, -0.112383656, 0.010969206, -0.10642052, 0
47, 2055819570, -0.7574655, -0.011814037, -0.4290551, 0.49195263, -0.112328224, 0.033378866, -0.08560562, 0
48, 2055836237, -0.75743383, -0.011848804, -0.42913866, 0.49192765, -0.13106173, 0.036590494, -0.09209442, 0
50, 2055869571, -0.75741154, -0.011820475, -0.42913744, 0.49196362, -0.13232526, 0.041576624, -0.09865093, 0
51, 2055886238, -0.7574313, -0.011779243, -0.42905575, 0.4920054, -0.15790184, 0.038277656, -0.08843422, 0
52, 2055902905, -0.75748223, -0.01171788, -0.42895693, 0.49201483, -0.15239672, 1.2061318E-4, -0.11255932, 0
56, 2055969573, -0.75753874, -0.011782447, -0.42891523, 0.49196276, -0.12042073, 0.019802969, -0.0903883, 0
58, 2056002907, -0.75751597, -0.011863526, -0.4288537, 0.49204943, -0.12294487, -0.0022061847, -0.07440472, 0
59, 2056019574, -0.7575429, -0.011860974, -0.42879194, 0.49206167, -0.12851906, 0.025868021, -0.097545624, 0
61, 2056052908, -0.75754815, -0.011875557, -0.42873985, 0.49209872, -0.09848808, 6.768531E-4, -0.07675266, 0
62, 2056069575, -0.7574746, -0.011911076, -0.42874455, 0.49220678, -0.10788613, -0.009711401, -0.07983303, 0
63, 2056086242, -0.7574736, -0.011878671, -0.42875972, 0.49219608, -0.14231919, 0.001615859, -0.10590744, 0
65, 2056119576, -0.7574308, -0.011936065, -0.42882702, 0.49220192, -0.11613443, -0.01452404, -0.08145809, 0
66, 2056136243, -0.7574109, -0.01198091, -0.42890894, 0.49216026, -0.111179814, 0.003345458, -0.0920105, 0
67, 2056152910, -0.7573671, -0.012033422, -0.4289993, 0.49214762, -0.15517029, 0.015352546, -0.100354195, 0
69, 2056186244, -0.757365, -0.01209119, -0.42912078, 0.49204344, -0.120083675, 0.022418126, -0.09104633, 0
71, 2056219578, -0.75735193, -0.012094067, -0.42913732, 0.49204883, -0.12971127, 0.017092595, -0.10972977, 0
73, 2056252912, -0.7574073, -0.012036832, -0.42900088, 0.49208403, -0.15313454, -0.014987829, -0.09117031, 0
74, 2056269579, -0.75748634, -0.01198061, -0.42886212, 0.4920847, -0.14085875, 0.05877589, -0.09206581, 0
77, 2056319580, -0.75778115, -0.011711106, -0.42798874, 0.49239764, -0.14254472, -0.012443008, -0.11734772, 0
78, 2056336247, -0.7579139, -0.01165604, -0.4276354, 0.4925018, -0.15484464, -0.03130264, -0.11912346, 0
79, 2056352914, -0.7580517, -0.011691868, -0.42729256, 0.49258637, -0.11306984, -0.03928595, -0.09194946, 0
81, 2056386248, -0.7581894, -0.011845779, -0.42696136, 0.49265796, -0.07930151, -0.08197069, -0.08386421, 0
82, 2056402915, -0.75816363, -0.011968436, -0.42705914, 0.49260998, -0.028071886, -0.02067626, -0.08649063, 0
83, 2056419582, -0.75805813, -0.012072092, -0.42732328, 0.49254057, -0.066801764, -0.012942448, -0.081728935, 0
88, 2056502917, -0.7573298, -0.012508182, -0.42901286, 0.49218124, -0.10366352, 0.03473073, -0.11646557, 0
89, 2056519584, -0.7571422, -0.012509627, -0.4293146, 0.492207, -0.07600781, 0.011203531, -0.09072113, 0
90, 2056536251, -0.75687593, -0.012516245, -0.42968073, 0.49229676, -0.063472316, 0.0041379794, -0.06458092, 0
92, 2056569585, -0.7562532, -0.012550689, -0.43054056, 0.4925015, -0.14766964, -0.0144889755, -0.10478115, 0
93, 2056586252, -0.7560466, -0.012558313, -0.43086272, 0.4925367, -0.18566036, 0.002720907, -0.10592747, 0
94, 2056602919, -0.7558845, -0.012621373, -0.43110353, 0.49257302, -0.18793908, -0.014157088, -0.09010887, 0
96, 2056636253, -0.7556023, -0.01280853, -0.43156627, 0.4925961, -0.086770184, 0.0075497925, -0.10072422, 0
97, 2056652920, -0.7554292, -0.012873307, -0.43190834, 0.49256015, -0.08183055, 0.0034811865, -0.08387947, 0
98, 2056669587, -0.75521445, -0.0129805375, -0.43227953, 0.49256122, -0.12711562, -8.6086016E-4, -0.098986626, 0
101, 2056719588, -0.7547845, -0.013219288, -0.4332469, 0.49236375, -0.10307412, 0.012674162, -0.10412216, 0
104, 2056769589, -0.7542903, -0.013201183, -0.4340955, 0.49237418, -0.11641918, 0.041367833, -0.09597969, 0
105, 2056786256, -0.75416344, -0.013123656, -0.43422008, 0.4924606, -0.16188462, 0.037240136, -0.09804249, 0
106, 2056802923, -0.7541391, -0.0130511895, -0.43421322, 0.49250582, -0.22601227, -0.0041473946, -0.076423645, 0
108, 2056836257, -0.75425375, -0.012907429, -0.43400827, 0.49251467, -0.12117442, -0.0065641007, -0.080019, 0
109, 2056852924, -0.7542379, -0.012905868, -0.43401006, 0.49253735, -0.08783277, -0.06029301, -0.07890415, 0
110, 2056869591, -0.7541634, -0.013004856, -0.4341657, 0.49251175, -0.11769947, -0.09213049, -0.083434105, 0
112, 2056902925, -0.7538633, -0.01343905, -0.4348262, 0.49237686, -0.09990269, -0.06747194, -0.06874275, 0
113, 2056919592, -0.75366163, -0.013766386, -0.43524563, 0.4923061, -0.15388107, -0.015271481, -0.12291908, 0
116, 2056969593, -0.753247, -0.014626864, -0.43609866, 0.49216068, -0.19280027, 0.00276357, -0.08885765, 0
117, 2056986260, -0.7532246, -0.014812425, -0.43614045, 0.49215245, -0.10071628, 0.08223268, -0.082491875, 0
120, 2057036261, -0.75308734, -0.014881894, -0.43608013, 0.492414, -0.16952832, -0.0047293664, -0.09138298, 0
121, 2057052928, -0.7531167, -0.014900707, -0.43596488, 0.4924703, -0.15645146, -0.017947001, -0.07229996, 0
123, 2057086262, -0.7531977, -0.014893685, -0.43581843, 0.49247628, -0.13416074, -0.040682137, -0.08693123, 0
124, 2057102929, -0.7531856, -0.014985131, -0.4358234, 0.49248776, -0.1189261, -0.055142965, -0.07621193, 0
125, 2057119596, -0.7531765, -0.015135853, -0.43590274, 0.49242678, -0.14554359, -0.066114575, -0.09469986, 0
127, 2057152930, -0.75335705, -0.015433105, -0.4359768, 0.4920757, -0.12602822, 0.0066504884, -0.10900593, 0
128, 2057169597, -0.75348884, -0.015422864, -0.43595046, 0.49189755, -0.09829251, 0.051232383, -0.10024929, 0
131, 2057219598, -0.75357896, -0.015390186, -0.435925, 0.49178293, -0.15255073, -0.0048491694, -0.06276989, 0
132, 2057236265, -0.75367796, -0.015388399, -0.43583304, 0.49171287, -0.17945789, 0.00697271, -0.08390617, 0
133, 2057252932, -0.7538633, -0.015333148, -0.43563434, 0.49160662, -0.16206701, 0.01754641, -0.11693668, 0
136, 2057302933, -0.75433826, -0.014639422, -0.4347745, 0.49166048, -0.07722484, 0.04514118, -0.090296745, 0
137, 2057319600, -0.75439364, -0.014288833, -0.43441227, 0.49190602, -0.15435089, 0.015196813, -0.1005373, 0
139, 2057352934, -0.75466347, -0.01355464, -0.43354622, 0.49227676, -0.15215644, -0.07078524, -0.084690094, 0
140, 2057369601, -0.75479907, -0.013322996, -0.43325868, 0.49232835, -0.13984402, -0.099905334, -0.08557415, 0
142, 2057402935, -0.7548964, -0.013196742, -0.43325204, 0.49218816, -0.044346757, -0.09610596, -0.070672035, 0
143, 2057419602, -0.75482446, -0.013241682, -0.4334852, 0.492092, -0.07962135, -0.043925617, -0.07659626, 0
146, 2057469603, -0.7543243, -0.013392052, -0.43445492, 0.49199983, -0.14964484, -0.022015328, -0.09496212, 0
147, 2057486270, -0.754145, -0.01352316, -0.43478113, 0.4919829, -0.19729646, -0.01263664, -0.08868122, 0
148, 2057502937, -0.7540525, -0.01365638, -0.43498582, 0.49194005, -0.18842813, 0.0062502045, -0.09592247, 0
150, 2057536271, -0.75385755, -0.013903871, -0.4352561, 0.49199277, -0.10784344, -0.01352815, -0.1029129, 0
151, 2057552938, -0.7537571, -0.014031621, -0.43543315, 0.49198636, -0.10233809, -0.028178459, -0.10925102, 0
152, 2057569605, -0.7535993, -0.014190789, -0.43565843, 0.49202412, -0.118654534, -0.031374108, -0.08384037, 0
154, 2057602939, -0.75336343, -0.014334047, -0.43603167, 0.4920504, -0.13908161, 0.009502374, -0.10530472, 0
155, 2057619606, -0.7532793, -0.014373334, -0.4361217, 0.49209827, -0.17505132, -0.026661757, -0.08327961, 0
156, 2057636273, -0.75323343, -0.014475094, -0.43616155, 0.49213037, -0.17606138, -0.03126551, -0.091332436, 0
158, 2057669607, -0.7533293, -0.014708798, -0.436184, 0.4919569, -0.082759246, -0.008040963, -0.08242607, 0
160, 2057702941, -0.7532669, -0.01470671, -0.43641725, 0.49184546, -0.04600366, 0.014210115, -0.070248604, 0
162, 2057736275, -0.75307065, -0.014598131, -0.43675777, 0.49184704, -0.15924002, 0.0034135736, -0.081801414, 0
163, 2057752942, -0.7530286, -0.014515379, -0.43688408, 0.49180147, -0.13930333, -0.0354054, -0.088469505, 0
166, 2057802943, -0.75275505, -0.014211128, -0.43727228, 0.49188432, -0.15812401, -0.029628668, -0.087451935, 0
167, 2057819610, -0.75268465, -0.014117746, -0.4373262, 0.49194664, -0.14905587, 0.032174047, -0.12115669, 0
169, 2057852944, -0.7526497, -0.013793018, -0.43718114, 0.4921383, -0.15601137, -0.003082076, -0.111641884, 0
170, 2057869611, -0.752658, -0.013631331, -0.43707767, 0.49222213, -0.14253823, -0.025217151, -0.09491253, 0
171, 2057886278, -0.7527085, -0.013462357, -0.43699095, 0.49222642, -0.13100742, -0.030664204, -0.06605244, 0
173, 2057919612, -0.7527474, -0.01326194, -0.4369078, 0.49224612, -0.085850656, -0.045139894, -0.08010769, 0
175, 2057952946, -0.75258714, -0.013222301, -0.43721187, 0.49222213, -0.06967703, -0.05631603, -0.08717728, 0
177, 2057986280, -0.7522725, -0.013259949, -0.43788537, 0.49210355, -0.121873565, -0.002324004, -0.09378433, 0
178, 2058002947, -0.75208986, -0.013335697, -0.43821284, 0.49208918, -0.148291, -0.019088928, -0.095602036, 0
179, 2058019614, -0.7519442, -0.013448466, -0.43848923, 0.49206266, -0.18214585, -0.040532663, -0.09049606, 0
182, 2058069615, -0.75196266, -0.013820497, -0.43864617, 0.49188423, -0.12858477, 0.010973872, -0.11524868, 0
183, 2058086282, -0.75204444, -0.013832318, -0.43856704, 0.49182934, -0.070161164, 0.035758525, -0.08662319, 0
185, 2058119616, -0.75214505, -0.013847144, -0.43845698, 0.49177313, -0.094312854, -0.024801025, -0.10188866, 0
186, 2058136283, -0.75214183, -0.013828853, -0.43844438, 0.49178964, -0.085167825, 0.018432442, -0.10053539, 0
187, 2058152950, -0.7521036, -0.0137979705, -0.4384517, 0.49184257, -0.10765949, 0.011861498, -0.09165287, 0
190, 2058202951, -0.7521823, -0.013735445, -0.4384598, 0.4917167, -0.12658164, -0.015225368, -0.07187939, 0
191, 2058219618, -0.7522148, -0.013731046, -0.43846262, 0.49166456, -0.099404484, -0.016785152, -0.08171368, 0
193, 2058252952, -0.7521296, -0.013690483, -0.43862194, 0.4916541, -0.10657947, -0.032382667, -0.09316158, 0
194, 2058269619, -0.75205755, -0.013690049, -0.43877566, 0.4916271, -0.12019789, -0.030081715, -0.09232712, 0
195, 2058286286, -0.7519839, -0.013720343, -0.43890435, 0.4916241, -0.15542868, -0.015910042, -0.086769104, 0
200, 2058369621, -0.7521133, -0.014208343, -0.43892682, 0.4913922, -0.07983793, -0.029413272, -0.078959465, 0
201, 2058386288, -0.7521393, -0.014313655, -0.43896067, 0.49131906, -0.08928963, -0.02560003, -0.07852268, 0
202, 2058402955, -0.7521092, -0.014428269, -0.43901756, 0.49131078, -0.09647355, -0.02295886, -0.1047411, 0
205, 2058452956, -0.75210416, -0.014841652, -0.43919018, 0.49115202, -0.13526602, -0.006002189, -0.11637974, 0
206, 2058469623, -0.75212026, -0.015002817, -0.43921068, 0.49110413, -0.12736237, -0.030913575, -0.08610535, 0
208, 2058502957, -0.75222754, -0.015310874, -0.43932045, 0.490832, -0.103634015, -0.048731048, -0.073283195, 0
209, 2058519624, -0.7522772, -0.015454261, -0.43948647, 0.49060285, -0.119467676, -0.035784744, -0.09113598, 0
210, 2058536291, -0.75226116, -0.015669486, -0.43967375, 0.49045274, -0.12318604, -0.016297055, -0.10284042, 0
212, 2058569625, -0.75214595, -0.015980525, -0.44004244, 0.49028865, -0.12749179, -0.016750172, -0.10351372, 0
213, 2058586292, -0.7520892, -0.016104102, -0.44026077, 0.4901756, -0.12508433, -0.017164147, -0.097987175, 0
216, 2058636293, -0.7519302, -0.016461594, -0.44096717, 0.48977262, -0.083803274, 0.0017942502, -0.088562965, 0
217, 2058652960, -0.7518022, -0.016551627, -0.44120422, 0.48975265, -0.11355889, -0.0010654024, -0.10692501, 0
220, 2058702961, -0.7515019, -0.016528018, -0.44158915, 0.48986733, -0.15535626, 0.017692111, -0.10629845, 0
221, 2058719628, -0.7514838, -0.016472986, -0.44148412, 0.48999155, -0.17149702, -0.002714453, -0.10061169, 0
223, 2058752962, -0.75151634, -0.016436202, -0.44118494, 0.4902122, -0.13197322, -0.06302815, -0.081933975, 0
224, 2058769629, -0.7516162, -0.01645019, -0.44107682, 0.49015597, -0.14615914, -0.07453885, -0.09449768, 0
225, 2058786296, -0.7516813, -0.016505724, -0.44101822, 0.49010697, -0.10041074, -0.041261986, -0.09295273, 0
227, 2058819630, -0.7517148, -0.016554339, -0.4410445, 0.4900304, -0.09525385, 0.005874032, -0.098145485, 0
228, 2058836297, -0.7516884, -0.016547838, -0.4410613, 0.490056, -0.12693547, 0.0050873505, -0.07467079, 0
229, 2058852964, -0.75167394, -0.016536526, -0.44098726, 0.49014518, -0.15134174, 0.026262717, -0.102194786, 0
231, 2058886298, -0.75169337, -0.016471112, -0.44077352, 0.4903099, -0.14805186, -0.0711731, -0.06862545, 0
232, 2058902965, -0.7517063, -0.016541073, -0.44075465, 0.49030447, -0.10975045, -0.074312314, -0.057575226, 0
235, 2058952966, -0.75151974, -0.0170203, -0.4411037, 0.49026012, -0.08565664, -0.011115495, -0.10990238, 0
236, 2058969633, -0.75141734, -0.017151417, -0.4412516, 0.4902795, -0.13211963, -0.030390553, -0.1348486, 0
237, 2058986300, -0.7513308, -0.017284982, -0.44141486, 0.49026054, -0.13549712, -0.032476265, -0.095448494, 0
239, 2059019634, -0.75127053, -0.01751558, -0.4415884, 0.4901887, -0.19212347, 0.014025577, -0.0789175, 0
240, 2059036301, -0.7513554, -0.017625693, -0.44148436, 0.49014822, -0.18404682, 0.014567792, -0.08054447, 0
241, 2059052968, -0.75154454, -0.017722048, -0.4412408, 0.4900741, -0.17791453, 5.27742E-4, -0.072045326, 0
243, 2059086302, -0.7518742, -0.017676555, -0.44067866, 0.4900759, -0.06894592, 0.04155877, -0.12931538, 0
245, 2059119636, -0.75201005, -0.01739992, -0.44004565, 0.49044615, -0.16503593, 0.011846466, -0.06422901, 0
247, 2059152970, -0.7524786, -0.017134247, -0.4388313, 0.49082464, -0.22039987, -0.10096741, -0.087038994, 0
250, 2059202971, -0.7532345, -0.017254742, -0.4378895, 0.4905019, 0.07714661, -0.07014169, -0.065478325, 0
251, 2059219638, -0.75309837, -0.01744777, -0.4382942, 0.49034268, 0.024501937, -0.093400754, -0.058415413, 0
252, 2059236305, -0.7528196, -0.01764364, -0.43895888, 0.490169, -0.0024338325, 0.018362874, -0.11155033, 0
254, 2059269639, -0.7520744, -0.017564356, -0.44004872, 0.4903387, -0.21060061, 0.16785057, -0.15065289, 0
255, 2059286306, -0.75189245, -0.017284473, -0.44000083, 0.49067056, -0.31439176, 0.11378374, -0.10733795, 0
256, 2059302973, -0.75195473, -0.01693345, -0.4395117, 0.49102566, -0.26571423, 0.058376305, -0.061980247, 0
258, 2059336307, -0.75249827, -0.01625518, -0.43825537, 0.49133864, -0.1167549, -0.15072408, -0.07751942, 0
259, 2059352974, -0.7527013, -0.016084233, -0.43790856, 0.49134254, -0.013561425, -0.12123306, -0.06691837, 0
262, 2059402975, -0.752246, -0.016146515, -0.43864518, 0.4913806, -0.11400167, -0.14672256, -0.055386543, 0
264, 2059436309, -0.7516245, -0.016659489, -0.43999168, 0.49111065, -0.14593965, -0.0116228415, -0.12532806, 0
266, 2059469643, -0.751188, -0.016828913, -0.44083348, 0.49101788, -0.120098874, 0.1240762, -0.12524223, 0
267, 2059486310, -0.751042, -0.01665664, -0.44086042, 0.4912228, -0.17870376, 0.1464211, -0.124082565, 0
268, 2059502977, -0.7509588, -0.01636399, -0.4406874, 0.49151522, -0.19360156, 0.009959347, -0.10043526, 0
270, 2059536311, -0.7510075, -0.015905518, -0.44027644, 0.4918238, -0.12795469, -0.039990827, -0.11363697, 0
271, 2059552978, -0.75105274, -0.015697924, -0.4400775, 0.49193937, -0.15737748, 0.007584074, -0.100162506, 0
272, 2059569645, -0.75115365, -0.01541814, -0.43980697, 0.4920362, -0.13749914, -0.03159582, -0.054284096, 0
274, 2059602979, -0.7513985, -0.015168579, -0.4393944, 0.4920386, -0.11177704, -0.109603114, -0.04870987, 0
275, 2059619646, -0.7514915, -0.015179979, -0.43941048, 0.49188176, -0.06298483, -0.07252953, -0.09228706, 0
279, 2059686314, -0.7509349, -0.014815671, -0.4403296, 0.49192142, -0.122218676, 0.002015053, -0.08088398, 0
281, 2059719648, -0.7504675, -0.014464688, -0.44095892, 0.49208108, -0.06950247, -0.04076217, -0.08466244, 0
282, 2059736315, -0.75016475, -0.0143091325, -0.44140685, 0.49214572, -0.045441076, -0.018802524, -0.09133339, 0
283, 2059752982, -0.74979204, -0.014247572, -0.44187927, 0.49229136, -0.1441833, -0.023214838, -0.0836916, 0
285, 2059786316, -0.7493929, -0.0141911805, -0.442492, 0.49235052, -0.1982533, -0.008537161, -0.10348797, 0
286, 2059802983, -0.7493349, -0.014004296, -0.44258323, 0.49236214, -0.049782146, 0.07062534, -0.09597397, 0
287, 2059819650, -0.74915415, -0.0137141645, -0.44269276, 0.49254674, -0.0445468, 0.029099235, -0.0848608, 0
289, 2059852984, -0.7487922, -0.012929888, -0.4427088, 0.49310356, -0.18568473, -0.025463937, -0.09611225, 0
290, 2059869651, -0.74868244, -0.012549834, -0.44258347, 0.49339247, -0.17617805, -0.056309212, -0.09684849, 0
291, 2059886318, -0.74864566, -0.012245938, -0.4423979, 0.49362227, -0.14986901, -0.11183708, -0.09323025, 0
295, 2059952986, -0.748634, -0.012358807, -0.4422867, 0.49373695, -0.056992676, -0.025077442, -0.080646515, 0
297, 2059986320, -0.74836445, -0.012619656, -0.44253713, 0.49391443, -0.15487817, -0.031467438, -0.10684967, 0
298, 2060002987, -0.7483039, -0.012787089, -0.4425599, 0.49398157, -0.22260326, -0.055702724, -0.092292786, 0
299, 2060019654, -0.7484589, -0.012922889, -0.44241208, 0.4938754, -0.2505075, -0.030776113, -0.103274345, 0
301, 2060052988, -0.7490626, -0.013297394, -0.4418116, 0.49348772, -0.10222186, -0.037071735, -0.07509613, 0
302, 2060069655, -0.7493223, -0.013554327, -0.44157854, 0.49329516, -0.06280424, -0.06458359, -0.06682396, 0
304, 2060102989, -0.7496381, -0.014127485, -0.44144958, 0.4929147, -0.080645934, -0.023465717, -0.07176113, 0
305, 2060119656, -0.74971914, -0.014411187, -0.44146058, 0.49277315, -0.095883705, 9.7580167E-4, -0.11288643, 0
306, 2060136323, -0.7498158, -0.014624424, -0.44148788, 0.4925952, -0.13400294, -0.023231866, -0.09328365, 0
309, 2060186324, -0.75013363, -0.014995122, -0.4411389, 0.4924129, -0.14145508, 0.021802794, -0.091656685, 0
310, 2060202991, -0.7502508, -0.015057754, -0.44087625, 0.4924677, -0.14623581, 0.024332598, -0.09270573, 0
312, 2060236325, -0.7506719, -0.015052931, -0.43985346, 0.49274072, -0.19686931, 0.006999392, -0.10141373, 0
313, 2060252992, -0.75100505, -0.015032733, -0.43911773, 0.4928897, -0.18062775, -0.03135835, -0.1108799, 0
314, 2060269659, -0.75138533, -0.014996259, -0.4383398, 0.49300373, -0.15339604, -0.05191228, -0.11647701, 0
316, 2060302993, -0.7520834, -0.014991421, -0.4369703, 0.49315545, -0.07474139, -0.027803028, -0.072984695, 0
317, 2060319660, -0.75232667, -0.014972502, -0.4364395, 0.49325472, -0.0598333, -0.029694995, -0.08657932, 0
318, 2060336327, -0.75252926, -0.014954543, -0.43599707, 0.4933375, -0.0895641, -0.054037232, -0.0951004, 0
320, 2060369661, -0.7529114, -0.014937587, -0.4352524, 0.4934124, -0.1705053, -0.05074683, -0.09022617, 0
321, 2060386328, -0.7531352, -0.014985535, -0.43495062, 0.4933357, -0.13233063, -0.056794684, -0.08604431, 0
325, 2060452996, -0.7537622, -0.014928618, -0.43413535, 0.49309775, -0.1659244, -0.01822466, -0.14053822, 0
326, 2060469663, -0.75391024, -0.014867736, -0.43385705, 0.49311835, -0.18239619, -0.042885404, -0.13511944, 0
328, 2060502997, -0.7542696, -0.014767224, -0.43332735, 0.4930376, -0.11785346, -0.044497058, -0.106705666, 0
329, 2060519664, -0.7543789, -0.014736058, -0.43315274, 0.49302462, -0.0630796, -0.042594235, -0.07608032, 0
331, 2060552998, -0.75448406, -0.014606081, -0.43286607, 0.49311942, -0.10353009, -0.024107227, -0.11398506, 0
332, 2060569665, -0.7545154, -0.014510287, -0.43267313, 0.49324366, -0.1137216, -0.024329273, -0.09708691, 0
333, 2060586332, -0.7545611, -0.014389951, -0.4324554, 0.4933682, -0.12597369, -0.06739761, -0.076992035, 0
335, 2060619666, -0.75465345, -0.01411584, -0.43203294, 0.4936048, -0.0850697, -0.053119518, -0.07191086, 0
336, 2060636333, -0.7546566, -0.013966136, -0.43190244, 0.49371856, -0.08309787, -0.062088702, -0.052143097, 0
339, 2060686334, -0.7541338, -0.01401595, -0.43250933, 0.49398452, -0.09397133, -0.13997984, -0.08517361, 0
341, 2060719668, -0.75358605, -0.014459873, -0.43374005, 0.49372828, -0.16397893, -0.104714364, -0.10912037, 0
343, 2060753002, -0.7533138, -0.015239876, -0.4349438, 0.4930613, -0.13146317, -0.06384921, -0.07211971, 0
344, 2060769669, -0.75318694, -0.015645482, -0.4355975, 0.49266487, -0.13076268, -8.373354E-5, -0.10329819, 0
345, 2060786336, -0.7531464, -0.016046476, -0.43620318, 0.49217787, -0.14283037, -0.0239797, -0.10761452, 0
347, 2060819670, -0.7528403, -0.016762555, -0.43739542, 0.4915638, 0.022226352, 0.08218907, -0.054388046, 0
348, 2060836337, -0.7524263, -0.01704658, -0.438162, 0.4915052, -0.08165934, -0.0421557, -0.08570862, 0
349, 2060853004, -0.75202, -0.017310783, -0.43890473, 0.49145523, -0.17961411, 0.033711005, -0.08303356, 0
351, 2060886338, -0.7514225, -0.017301021, -0.44012678, 0.49127632, -0.143998, 0.045281406, -0.10318375, 0
353, 2060919672, -0.75074536, -0.016850747, -0.44072908, 0.49178723, -0.036271907, 0.08425279, -0.09202099, 0
355, 2060953006, -0.75012124, -0.016185332, -0.44057882, 0.49289536, -0.26894397, 0.056974962, -0.08140659, 0
357, 2060986340, -0.7502393, -0.015507059, -0.43950203, 0.49369812, -0.1883698, -0.1652778, -0.10774517, 0
359, 2061019674, -0.75065017, -0.014957527, -0.43875852, 0.4937517, -0.14485227, -0.23088539, -0.1282587, 0
360, 2061036341, -0.75079745, -0.014871448, -0.4387044, 0.4935785, -0.07302794, -0.18431972, -0.124539375, 0
362, 2061069675, -0.7505293, -0.014411591, -0.4395668, 0.49323258, 0.1042489, 0.030572549, -0.12555695, 0
363, 2061086342, -0.75003934, -0.0140700955, -0.44043183, 0.4932159, -0.05946696, -0.057551917, -0.13974667, 0
364, 2061103009, -0.7494628, -0.013885951, -0.44135708, 0.49327073, -0.17273685, -0.10010333, -0.119179726, 0
366, 2061136343, -0.7483631, -0.013776291, -0.44297418, 0.49349385, -0.21041934, 0.00613286, -0.08640766, 0
368, 2061169677, -0.74797124, -0.013846124, -0.4436379, 0.49348974, -0.3426735, -0.07043198, -0.12672424, 0
370, 2061203011, -0.7483083, -0.014110498, -0.4433038, 0.4932713, -0.16635689, 0.025614807, -0.034210205, 0
371, 2061219678, -0.74853367, -0.014235923, -0.4430251, 0.493176, -0.13136303, -0.05699558, -0.04620266, 0
374, 2061269679, -0.7490898, -0.014766157, -0.44237524, 0.49289945, -0.039313022, -0.04722196, -0.093170166, 0
375, 2061286346, -0.7491081, -0.01494902, -0.44233486, 0.49290252, -0.08538731, -0.062318347, -0.080929756, 0
376, 2061303013, -0.7491055, -0.015130566, -0.4423746, 0.492865, -0.056511004, -0.023852743, -0.0873518, 0
378, 2061336347, -0.7489606, -0.015380494, -0.4428064, 0.4926897, -0.15353663, -0.08278249, -0.09424019, 0
379, 2061353014, -0.74891585, -0.0154851135, -0.44305372, 0.49253196, -0.12604119, -0.03698402, -0.115130424, 0
380, 2061369681, -0.7488728, -0.015578847, -0.44328746, 0.49238425, -0.07650692, -0.02158582, -0.07526493, 0
383, 2061419682, -0.7486994, -0.015327156, -0.44381303, 0.49218225, -0.12786372, -0.04875576, -0.11177921, 0
384, 2061436349, -0.748662, -0.015141526, -0.44390592, 0.4921612, -0.060656052, 0.0070322207, -0.10309124, 0
386, 2061469683, -0.7483274, -0.014746694, -0.4442489, 0.49237266, -0.15172149, -0.09372885, -0.062615395, 0
387, 2061486350, -0.7482162, -0.01467411, -0.44437212, 0.4924327, -0.19209084, -0.10209568, -0.056653976, 0
389, 2061519684, -0.748285, -0.014667692, -0.44444725, 0.49226028, -0.1606705, -0.037518006, -0.11118889, 0
390, 2061536351, -0.74837804, -0.014675779, -0.444414, 0.4921489, -0.08891055, -0.031577226, -0.09225941, 0
391, 2061553018, -0.7483948, -0.01471252, -0.44440946, 0.49212626, -0.1126018, -0.036830746, -0.073949814, 0
393, 2061586352, -0.7483967, -0.01486381, -0.44438216, 0.49214342, -0.18044424, -0.04601812, -0.08474922, 0
394, 2061603019, -0.74848586, -0.014902769, -0.44428554, 0.49209395, -0.14814529, -0.02540412, -0.11688995, 0
395, 2061619686, -0.7486318, -0.014888048, -0.4441666, 0.49197978, -0.14692065, -0.057144497, -0.086764336, 0
398, 2061669687, -0.74899065, -0.015096646, -0.4438604, 0.49170363, -0.09531509, -0.030688455, -0.084952354, 0
399, 2061686354, -0.749052, -0.015174337, -0.44377393, 0.49168563, -0.09973014, -0.056042325, -0.08044529, 0
401, 2061719688, -0.74924845, -0.015343998, -0.44357365, 0.49156177, -0.14665893, -0.07804739, -0.08961201, 0
403, 2061753022, -0.7494497, -0.015596971, -0.44341385, 0.4913913, -0.10781103, -0.034140628, -0.07946968, 0
405, 2061786356, -0.74963903, -0.015851486, -0.44326347, 0.49122998, -0.08175232, -0.032436088, -0.091688156, 0
406, 2061803023, -0.7496684, -0.015978314, -0.44324484, 0.4911977, -0.07309164, -0.037363447, -0.097177505, 0
407, 2061819690, -0.7496841, -0.016073119, -0.44324726, 0.4911686, -0.12985097, -0.030849397, -0.0914793, 0
409, 2061853024, -0.7497287, -0.016284874, -0.4432445, 0.4910961, -0.14220117, -0.089544125, -0.11304283, 0
410, 2061869691, -0.74974656, -0.016408263, -0.44325802, 0.4910525, -0.12114089, -0.03337152, -0.06290913, 0
413, 2061919692, -0.7498027, -0.016634863, -0.44326144, 0.49095583, -0.13603178, -0.06325037, -0.10385895, 0
414, 2061936359, -0.7498312, -0.016732901, -0.443268, 0.49090305, -0.15145841, -0.061357643, -0.0870657, 0
416, 2061969693, -0.74986666, -0.016929558, -0.44331256, 0.49080187, -0.10509132, -0.024632469, -0.067834854, 0
417, 2061986360, -0.74987066, -0.017019575, -0.44335514, 0.49075422, -0.10883807, -0.04432351, -0.08431339, 0
420, 2062036361, -0.7498382, -0.017228976, -0.44359112, 0.4905833, -0.13223206, -0.059898525, -0.09334183, 0
421, 2062053028, -0.74981797, -0.017331002, -0.44366357, 0.49054518, -0.12114514, -0.04979095, -0.095430374, 0
422, 2062069695, -0.7497938, -0.017413687, -0.4437038, 0.49054277, -0.11864425, -0.023737216, -0.107904434, 0
424, 2062103029, -0.7498502, -0.017470298, -0.44362512, 0.49052554, -0.10724174, -0.038093172, -0.08079243, 0
425, 2062119696, -0.7498806, -0.017470745, -0.44354305, 0.49055347, -0.12442274, -0.055103444, -0.100216866, 0
428, 2062169697, -0.74996567, -0.01749154, -0.44339547, 0.49055618, -0.12270794, -0.03906238, -0.11561489, 0
429, 2062186364, -0.7499903, -0.017517133, -0.44334084, 0.49056682, -0.11508235, -0.0486151, -0.09546471, 0
430, 2062203031, -0.7500371, -0.017525937, -0.44328183, 0.49054846, -0.120924756, -0.065478526, -0.09890556, 0
432, 2062236365, -0.75015306, -0.017550658, -0.44317412, 0.49046743, -0.10955554, -0.053186513, -0.08578968, 0
433, 2062253032, -0.75017613, -0.01759922, -0.44314578, 0.49045587, -0.11170753, -0.06891942, -0.0839386, 0
436, 2062303033, -0.7501517, -0.017723944, -0.4434154, 0.49024493, -0.114610516, -0.06855517, -0.06943703, 0
437, 2062319700, -0.75009805, -0.01782597, -0.44356608, 0.49018723, -0.12578817, -0.031402174, -0.092868805, 0
438, 2062336367, -0.75000685, -0.017962132, -0.4437041, 0.49019682, -0.1356053, -0.046092253, -0.093149185, 0
440, 2062369701, -0.74998796, -0.018134162, -0.4438233, 0.49011162, -0.11981546, -0.046315126, -0.092679024, 0
443, 2062419702, -0.7500583, -0.018221362, -0.44372806, 0.49008712, -0.106256045, -0.028441017, -0.088866234, 0
444, 2062436369, -0.7500936, -0.018220592, -0.44362688, 0.4901244, -0.14097007, -0.03616015, -0.08831787, 0
445, 2062453036, -0.7501221, -0.018234031, -0.44349244, 0.4902022, -0.13968353, -0.07573933, -0.09601402, 0
447, 2062486370, -0.7502772, -0.018158821, -0.44322383, 0.49021035, -0.09192619, -0.05180596, -0.088685036, 0
448, 2062503037, -0.75031734, -0.018093705, -0.44314423, 0.49022338, -0.08403774, -0.028268969, -0.07567215, 0
449, 2062519704, -0.7503078, -0.018055297, -0.44310704, 0.49027294, -0.09460499, -0.06592423, -0.083844185, 0
452, 2062569705, -0.750334, -0.018018981, -0.44304278, 0.49029216, -0.11657207, -0.062305607, -0.09056759, 0
453, 2062586372, -0.75038004, -0.018004846, -0.44302958, 0.49023423, -0.10766664, -0.033748195, -0.07805538, 0
455, 2062619706, -0.7503828, -0.01802178, -0.44303378, 0.4902255, -0.102052666, -0.024282364, -0.09169674, 0
457, 2062653040, -0.75036407, -0.0179775, -0.4430134, 0.49027437, -0.12684293, -0.057771392, -0.08854294, 0
459, 2062686374, -0.7503682, -0.017975586, -0.44303352, 0.49024984, -0.08837166, -0.063665345, -0.083797455, 0
460, 2062703041, -0.75033337, -0.017986162, -0.44305786, 0.49028078, -0.091748044, -0.005623642, -0.084934235, 0
461, 2062719708, -0.7502802, -0.017982135, -0.44305018, 0.49036917, -0.13497925, -0.044293396, -0.09824276, 0
463, 2062753042, -0.7502862, -0.017981358, -0.44299218, 0.4904125, -0.133646, -0.062226076, -0.084174156, 0
464, 2062769709, -0.7503164, -0.017963944, -0.44294223, 0.49041215, -0.11158214, -0.028422019, -0.07284546, 0
466, 2062803043, -0.7503292, -0.017925078, -0.4428483, 0.49047872, -0.08395929, -0.055452798, -0.086094856, 0
467, 2062819710, -0.75034696, -0.017866042, -0.44281822, 0.49048087, -0.11892118, -0.06569788, -0.09971714, 0
468, 2062836377, -0.75033724, -0.017862063, -0.44280106, 0.49051124, -0.10353456, -0.06544918, -0.09409523, 0
470, 2062869711, -0.7502837, -0.017816601, -0.44289556, 0.4905095, -0.10896011, -0.0423602, -0.08443642, 0
472, 2062903045, -0.75021756, -0.017782934, -0.44292322, 0.49058697, -0.12471978, -0.030497393, -0.097626686, 0
474, 2062936379, -0.750262, -0.017655987, -0.4427452, 0.49068433, -0.14879794, -0.067205206, -0.10143566, 0
475, 2062953046, -0.7502991, -0.017614279, -0.44266212, 0.490704, -0.10791608, -0.07417221, -0.0852623, 0
476, 2062969713, -0.75032145, -0.017572816, -0.442619, 0.49071026, -0.078887336, -0.07394074, -0.08325958, 0
478, 2063003047, -0.75022334, -0.017495707, -0.44267985, 0.49080813, -0.099208236, -0.042096514, -0.101462364, 0
479, 2063019714, -0.7501647, -0.017469782, -0.44271073, 0.4908709, -0.11915476, -0.041416924, -0.0750103, 0
482, 2063069715, -0.7501537, -0.017308092, -0.44258046, 0.4910107, -0.106855735, -0.063781835, -0.100120544, 0
483, 2063086382, -0.7501641, -0.017240133, -0.44252813, 0.49104458, -0.08058223, -0.04065164, -0.095238686, 0
484, 2063103049, -0.75015175, -0.01715842, -0.44252607, 0.49106804, -0.0805829, -0.0619851, -0.096040726, 0
487, 2063153050, -0.7500414, -0.017054873, -0.44246346, 0.49129632, -0.13185565, -0.05530465, -0.09170914, 0
488, 2063169717, -0.7500489, -0.016996952, -0.4423894, 0.49135372, -0.1317582, -0.06925504, -0.11105919, 0
490, 2063203051, -0.75008374, -0.016902281, -0.44225097, 0.49142867, -0.10332311, -0.047965992, -0.09025955, 0
491, 2063219718, -0.75008327, -0.016853118, -0.442179, 0.49149576, -0.078860514, -0.05717446, -0.08016205, 0
493, 2063253052, -0.75008625, -0.016743677, -0.44196963, 0.4916832, -0.14885718, -0.055431116, -0.10523319, 0
494, 2063269719, -0.75012034, -0.016687337, -0.44185892, 0.49173254, -0.12532304, -0.08817069, -0.10746384, 0
495, 2063286386, -0.7501369, -0.016623288, -0.4417957, 0.49176624, -0.08886942, -0.086070344, -0.08391857, 0
498, 2063336387, -0.7499915, -0.016496047, -0.4418281, 0.49196327, -0.11447797, -0.045111034, -0.107115746, 0
499, 2063353054, -0.7499421, -0.0164444, -0.44182286, 0.4920449, -0.12720145, -0.050102036, -0.09521294, 0
502, 2063403055, -0.7499991, -0.016259395, -0.44156227, 0.49219823, -0.13099423, -0.032159742, -0.10410309, 0
503, 2063419722, -0.7500219, -0.016163802, -0.4414428, 0.49227378, -0.093608566, -0.071470276, -0.095272064, 0
505, 2063453056, -0.7499404, -0.016054383, -0.4413737, 0.49246344, -0.1082357, -0.07515033, -0.091171265, 0
506, 2063469723, -0.7499247, -0.016001303, -0.4414123, 0.49245438, -0.11604994, -0.084393494, -0.07835102, 0
507, 2063486390, -0.7498655, -0.01599333, -0.44146693, 0.4924958, -0.118944876, -0.051122304, -0.090727806, 0
509, 2063519724, -0.7497651, -0.015947586, -0.4415532, 0.4925727, -0.12704298, -0.0730021, -0.10372734, 0
510, 2063536391, -0.749737, -0.015941052, -0.44154572, 0.4926223, -0.11468137, -0.036080804, -0.09795189, 0
511, 2063553058, -0.749708, -0.015903171, -0.44152513, 0.4926864, -0.07587371, -0.03783838, -0.09324074, 0
514, 2063603059, -0.7496378, -0.01562728, -0.44131064, 0.49299416, -0.003972496, -0.11444597, -0.050397873, 0
517, 2063653060, -0.74985284, -0.015273027, -0.44077277, 0.4931593, -0.1824476, -0.14947431, -0.11559296, 0
518, 2063669727, -0.750073, -0.01518164, -0.44047514, 0.49309322, -0.13805546, -0.10505857, -0.09690094, 0
519, 2063686394, -0.7502482, -0.015119944, -0.44025087, 0.4930291, -0.052942842, -0.07673324, -0.112306595, 0
521, 2063719728, -0.7504832, -0.015519023, -0.44027194, 0.49263978, -0.14283238, -0.24086133, -0.049977303, 0
522, 2063736395, -0.7505605, -0.01601108, -0.4405905, 0.49222142, -0.060882695, -0.12021493, -0.06691456, 0
524, 2063769729, -0.75044626, -0.017142387, -0.4417759, 0.49129415, -0.09220535, -0.024168512, -0.06527805, 0
525, 2063786396, -0.7503057, -0.017636532, -0.44237912, 0.4909485, -0.054107346, 0.070155606, -0.1071558, 0
526, 2063803063, -0.75008255, -0.01794945, -0.4429036, 0.49080497, -0.047585685, 0.068377055, -0.10604477, 0
528, 2063836397, -0.7496351, -0.01817585, -0.4436043, 0.49084768, -0.16870467, -0.01105252, -0.089710236, 0
532, 2063903065, -0.749606, -0.018214665, -0.44378164, 0.49073035, -0.10212307, -0.03321897, -0.09224987, 0
533, 2063919732, -0.74963117, -0.018173693, -0.4437373, 0.49073344, -0.06741262, -0.04156173, -0.08838081, 0
534, 2063936399, -0.7496347, -0.018065438, -0.4437272, 0.49074125, -0.07447854, -0.027850915, -0.09235382, 0
536, 2063969733, -0.74957037, -0.017830944, -0.4438041, 0.4907786, -0.12333758, -0.07304893, -0.086340904, 0
537, 2063986400, -0.7495323, -0.01775742, -0.44379675, 0.49084604, -0.12752889, -0.031622138, -0.07610321, 0
538, 2064003067, -0.7495291, -0.017669132, -0.44370228, 0.49093923, -0.13906999, -0.018477062, -0.111465454, 0
540, 2064036401, -0.7496015, -0.01735303, -0.44336143, 0.491148, -0.1213273, -0.014530717, -0.1058445, 0
541, 2064053068, -0.7496326, -0.017162198, -0.44313186, 0.4913144, -0.08819419, -0.042496294, -0.112133026, 0
542, 2064069735, -0.7496695, -0.016935935, -0.44291782, 0.49145886, -0.0974331, -0.0736264, -0.09736252, 0
544, 2064103069, -0.7496465, -0.016624931, -0.4426275, 0.49176607, -0.12379466, -0.10047002, -0.10004902, 0
546, 2064136403, -0.7496718, -0.016472822, -0.44242018, 0.491919, -0.12164201, -0.024971453, -0.079888344, 0
548, 2064169737, -0.74970794, -0.016432881, -0.44224203, 0.49202552, -0.102615245, -0.08712419, -0.103580475, 0
549, 2064186404, -0.74970144, -0.016428597, -0.44226715, 0.49201307, -0.0750105, -0.109773986, -0.094475746, 0
551, 2064219738, -0.74956167, -0.0164437, -0.44244444, 0.4920661, -0.11508705, -0.03780192, -0.09635162, 0
552, 2064236405, -0.7494933, -0.01643789, -0.44249195, 0.49212772, -0.12808476, -0.036094327, -0.10758591, 0
553, 2064253072, -0.7494627, -0.01640827, -0.44249797, 0.49216992, -0.1456663, -0.07457644, -0.11048794, 0
555, 2064286406, -0.74948704, -0.016383002, -0.44248164, 0.49214816, -0.091116846, -0.03193919, -0.10381317, 0
556, 2064303073, -0.74947995, -0.016329603, -0.4424856, 0.49215743, -0.07396357, -0.016822508, -0.06552601, 0
557, 2064319740, -0.74942327, -0.01627719, -0.44246185, 0.49226663, -0.103131786, -0.036551017, -0.07007885, 0
561, 2064386408, -0.7495065, -0.015981967, -0.44210023, 0.49247473, -0.0704068, -0.062090334, -0.089476585, 0
563, 2064419742, -0.7494987, -0.015825288, -0.441996, 0.49258506, -0.12006602, -0.07101368, -0.10523701, 0
564, 2064436409, -0.749497, -0.015749227, -0.44195518, 0.49262682, -0.1308778, -0.05937996, -0.11817455, 0
565, 2064453076, -0.7494728, -0.01569471, -0.4419076, 0.49270782, -0.103198834, -0.06148485, -0.088970184, 0
567, 2064486410, -0.7494813, -0.015585359, -0.44183204, 0.49276614, -0.10319906, -0.051904317, -0.085463524, 0
568, 2064503077, -0.7494756, -0.015541427, -0.44178864, 0.49281514, -0.10291296, -0.0664756, -0.063067436, 0
569, 2064519744, -0.74944735, -0.015504278, -0.44175285, 0.4928912, -0.0996499, -0.046216264, -0.084825516, 0
571, 2064553078, -0.7494493, -0.015419034, -0.4416193, 0.49301082, -0.10888031, -0.06851436, -0.10488224, 0
572, 2064569745, -0.7494599, -0.015388612, -0.44155535, 0.49305293, -0.08786786, -0.054658696, -0.09024143, 0
574, 2064603079, -0.74947417, -0.015319187, -0.44139552, 0.49317646, -0.11081035, -0.05692579, -0.08366871, 0
578, 2064669747, -0.7494596, -0.015162507, -0.44103834, 0.49352294, -0.115506575, -0.049803548, -0.0898304, 0
579, 2064686414, -0.74948204, -0.015096799, -0.44093356, 0.4935844, -0.13338359, -0.06839766, -0.100645065, 0
580, 2064703081, -0.7495045, -0.015036924, -0.44082648, 0.49364802, -0.12124438, -0.06715084, -0.09113979, 0
582, 2064736415, -0.7495644, -0.014922475, -0.44061825, 0.49374625, -0.10702068, -0.07031685, -0.087142944, 0
583, 2064753082, -0.7495889, -0.01488244, -0.44051883, 0.49379897, -0.09967091, -0.066641755, -0.08273506, 0
584, 2064769749, -0.7495703, -0.014835255, -0.4404235, 0.4939137, -0.09848048, -0.041442726, -0.08690357, 0
586, 2064803083, -0.7495499, -0.014720418, -0.44025213, 0.49410078, -0.11226564, -0.09215468, -0.09527302, 0
587, 2064819750, -0.74954545, -0.014677731, -0.44019395, 0.4941607, -0.08728114, -0.07892068, -0.07433796, 0
588, 2064836417, -0.7495139, -0.014655191, -0.44014508, 0.49425247, -0.09770265, -0.06555467, -0.091807365, 0
591, 2064886418, -0.7495556, -0.014495164, -0.43980736, 0.49449465, -0.09245837, -0.10578082, -0.092720985, 0
594, 2064936419, -0.7496152, -0.014345238, -0.4396119, 0.49458256, -0.077794135, -0.028252289, -0.08905792, 0
595, 2064953086, -0.7495635, -0.014305059, -0.43957385, 0.494696, -0.1250041, -0.061157223, -0.09321213, 0
596, 2064969753, -0.7495371, -0.014257966, -0.43949774, 0.4948048, -0.092256986, -0.06271049, -0.16742706, 0
598, 2065003087, -0.7496071, -0.013873441, -0.43913007, 0.49503618, -0.2063038, -0.18381917, -0.11749935, 0
599, 2065019754, -0.74976677, -0.013594069, -0.43882865, 0.49506935, -0.062936775, 0.1161663, -0.10308361, 0
600, 2065036421, -0.7499912, -0.013223218, -0.4382891, 0.49521747, -0.2191569, -0.06185288, -0.12561417, 0
602, 2065069755, -0.75060767, -0.012546003, -0.43699595, 0.49544388, -0.096915886, -0.17247315, -0.11190605, 0
603, 2065086422, -0.7508321, -0.012345767, -0.43659565, 0.49546185, -0.062867716, -0.16495575, -0.08631706, 0
606, 2065136423, -0.7506651, -0.012844423, -0.43738058, 0.49500954, -0.047128376, -0.20118847, -0.086756706, 0
607, 2065153090, -0.75042105, -0.0132898465, -0.43818402, 0.49465704, -0.07596691, -0.14598657, -0.09216213, 0
610, 2065203091, -0.74964046, -0.014494732, -0.4406172, 0.49364433, -0.13408385, -0.013238644, -0.11083889, 0
611, 2065219758, -0.7494414, -0.014739061, -0.44124505, 0.4933786, -0.117760256, -0.005937286, -0.08274746, 0
613, 2065253092, -0.749302, -0.015158666, -0.44204056, 0.49286515, -0.15638597, -0.056368876, -0.09992695, 0
614, 2065269759, -0.7493215, -0.015376266, -0.4422648, 0.49262756, -0.15013611, -0.05863045, -0.079387665, 0
615, 2065286426, -0.74936575, -0.015617397, -0.44245932, 0.4923781, -0.099474885, -0.08746628, -0.09309578, 0
617, 2065319760, -0.7493844, -0.016213635, -0.4429709, 0.49187025, -0.08089761, -0.06278591, -0.07296562, 0
618, 2065336427, -0.7493368, -0.016501347, -0.44330966, 0.49162778, -0.05764265, -0.03107917, -0.092785835, 0
621, 2065386428, -0.74900854, -0.017337296, -0.44422284, 0.49127495, -0.121162795, -0.043184184, -0.0966053, 0
622, 2065403095, -0.74892986, -0.017587947, -0.44434163, 0.49127844, -0.13668287, -0.03303594, -0.0891819, 0
623, 2065419762, -0.7489298, -0.017748997, -0.44437686, 0.49124086, -0.13468422, -0.016892998, -0.11222458, 0
625, 2065453096, -0.7489997, -0.017891835, -0.4443238, 0.4911771, -0.08517498, -0.05114644, -0.10773659, 0
626, 2065469763, -0.749022, -0.017888084, -0.44431195, 0.491154, -0.058725346, -0.07991654, -0.10701752, 0
628, 2065503097, -0.7489995, -0.017856471, -0.44438067, 0.49112722, -0.08447203, -0.064107455, -0.094171524, 0
629, 2065519764, -0.74896795, -0.017844753, -0.44443724, 0.4911245, -0.11342992, -0.09808564, -0.095861435, 0
630, 2065536431, -0.74894285, -0.01787576, -0.44448566, 0.49111775, -0.11873411, -0.086836055, -0.08408928, 0
632, 2065569765, -0.7489245, -0.017916659, -0.44453564, 0.49109924, -0.120964095, -0.061635472, -0.09948063, 0
633, 2065586432, -0.7489224, -0.017914647, -0.44455847, 0.49108166, -0.10126165, -0.092149235, -0.10756683, 0
636, 2065636433, -0.7487478, -0.01794711, -0.44480747, 0.49112135, -0.08263587, -0.10018397, -0.07635403, 0
637, 2065653100, -0.74865246, -0.01797924, -0.44498476, 0.49110493, -0.09588192, -0.083226554, -0.094306946, 0
640, 2065703101, -0.7481962, -0.018063055, -0.44588146, 0.49098366, -0.12137134, -0.07592221, -0.094885826, 0
641, 2065719768, -0.7480135, -0.018167516, -0.44620913, 0.49096096, -0.12055462, -0.056824356, -0.07210541, 0
642, 2065736435, -0.7478358, -0.01828024, -0.44645277, 0.49100584, -0.15756166, -0.014302594, -0.083969116, 0
644, 2065769769, -0.747732, -0.018342204, -0.446576, 0.4910494, -0.13668197, -0.046252318, -0.12009716, 0
645, 2065786436, -0.74767, -0.018396962, -0.44655332, 0.49116257, -0.10840826, -0.06877924, -0.09919071, 0
646, 2065803103, -0.74769866, -0.0183548, -0.446525, 0.49114624, -0.10292928, -0.082462855, -0.06548405, 0
648, 2065836437, -0.7476516, -0.018258829, -0.44657522, 0.49117562, -0.088652834, -0.08611687, -0.07840252, 0
650, 2065869771, -0.74756444, -0.018261993, -0.44672373, 0.49117327, -0.11562526, -0.091617025, -0.09305763, 0
652, 2065903105, -0.74756765, -0.01821604, -0.44682807, 0.4910751, -0.10385127, -0.0679716, -0.097494125, 0
653, 2065919772, -0.74755865, -0.018198363, -0.4468601, 0.4910602, -0.09521585, -0.038601387, -0.08856487, 0
656, 2065969773, -0.7474126, -0.018101992, -0.44697392, 0.49118263, -0.098096035, -0.06867843, -0.06909084, 0
657, 2065986440, -0.7473944, -0.01804704, -0.4469888, 0.49119872, -0.13472936, -0.052344162, -0.091231346, 0
659, 2066019774, -0.74741256, -0.017963488, -0.44688517, 0.49126855, -0.119341165, -0.082793154, -0.09441471, 0
660, 2066036441, -0.7474492, -0.017915478, -0.44680727, 0.4912852, -0.10902426, -0.07287901, -0.08301258, 0
661, 2066053108, -0.74746096, -0.017864432, -0.44674075, 0.4913296, -0.07753508, -0.07595859, -0.09229946, 0
663, 2066086442, -0.74748814, -0.017776186, -0.446658, 0.49136677, -0.109877184, -0.07531906, -0.07818222, 0
665, 2066119776, -0.747506, -0.017728759, -0.44654644, 0.49144277, -0.118082345, -0.07923428, -0.116475105, 0
667, 2066153110, -0.74756604, -0.01768231, -0.44644794, 0.49144253, -0.07886744, -0.052033257, -0.07944012, 0
668, 2066169777, -0.7475584, -0.017681394, -0.44641018, 0.49148852, -0.10873548, -0.053146686, -0.0878582, 0
669, 2066186444, -0.74754894, -0.017676355, -0.44636467, 0.49154437, -0.088508, -0.07475318, -0.07794285, 0
672, 2066236445, -0.74760103, -0.017604327, -0.44616085, 0.491653, -0.09930904, -0.07006968, -0.08163166, 0
673, 2066253112, -0.74761575, -0.0175928, -0.4460697, 0.49171367, -0.082686156, -0.055997707, -0.09426212, 0
675, 2066286446, -0.7476303, -0.017512474, -0.4458605, 0.49188396, -0.08680282, -0.05517131, -0.10067177, 0
676, 2066303113, -0.7476231, -0.017443787, -0.44578642, 0.4919646, -0.11285639, -0.09812223, -0.09444523, 0
677, 2066319780, -0.74760103, -0.017431898, -0.4457302, 0.4920494, -0.09251425, -0.064524695, -0.07620525, 0
680, 2066369781, -0.74761695, -0.017341014, -0.44553217, 0.49220783, -0.12155104, -0.0753892, -0.112392426, 0
681, 2066386448, -0.74762946, -0.01734739, -0.44545195, 0.49226135, -0.099056475, -0.086323984, -0.09254265, 0
683, 2066419782, -0.7476018, -0.01731447, -0.44535333, 0.4923936, -0.09830145, -0.07206671, -0.07959843, 0
684, 2066436449, -0.7475828, -0.017247438, -0.44528458, 0.49248692, -0.0637032, -0.010519163, -0.23539257, 0
686, 2066469783, -0.7473593, -0.017075576, -0.4454269, 0.49270353, -0.2609715, 0.14858101, -0.08371067, 0
688, 2066503117, -0.7475474, -0.016852153, -0.4449401, 0.49286562, -0.18416215, -0.04128829, -0.12661457, 0
690, 2066536451, -0.7482374, -0.016661227, -0.44400012, 0.4926726, -0.034849692, -0.19797935, -0.12135124, 0
691, 2066553118, -0.7484214, -0.016775493, -0.4437459, 0.49261826, -0.007924205, -0.07697852, -0.09890461, 0
692, 2066569785, -0.7484941, -0.016917003, -0.44371346, 0.49253228, -0.057781897, -0.15115498, -0.06423473, 0
695, 2066619786, -0.7482318, -0.017999904, -0.44525865, 0.49149674, -0.084174976, -0.1364782, -0.09167576, 0
696, 2066636453, -0.74803114, -0.018500503, -0.44612336, 0.49099925, -0.01960611, -0.09344563, -0.08557892, 0
698, 2066669787, -0.7474122, -0.019687137, -0.44784084, 0.49033177, -0.13122848, -0.0471949, -0.06790447, 0
699, 2066686454, -0.74713206, -0.020278709, -0.44862157, 0.49002078, -0.20769629, -0.07168217, -0.10107231, 0
700, 2066703121, -0.74692166, -0.020862255, -0.44932953, 0.48966834, -0.20050766, -0.11850236, -0.108644485, 0
702, 2066736455, -0.746735, -0.021906847, -0.45051858, 0.4888142, -0.08937635, 0.04210903, -0.09350872, 0
703, 2066753122, -0.7465124, -0.022380553, -0.45111865, 0.48857898, -0.0013234202, 0.034083687, -0.048996925, 0
704, 2066769789, -0.7461154, -0.022927964, -0.45177203, 0.48855662, -0.030373622, 0.06751346, -0.028730392, 0
706, 2066803123, -0.7447444, -0.024237579, -0.4532375, 0.48922738, -0.06609502, 0.112544, 0.038746834, 0
707, 2066819790, -0.743953, -0.024824666, -0.453731, 0.489944, -0.13319004, 0.13006811, 0.076164246, 0
710, 2066869791, -0.7428883, -0.021675067, -0.4527277, 0.49262965, 0.27329978, 0.6768825, 2.0014677, 0
711, 2066886458, -0.74393547, -0.01332018, -0.44986024, 0.49397132, 0.50329864, 1.8188083, 1.723671, 0
713, 2066919792, -0.74839455, 0.011478756, -0.43912196, 0.49693576, -1.6005487, 3.9140785, 1.167654, 0
714, 2066936459, -0.75387764, 0.016793588, -0.42666578, 0.49934158, -1.9485066, 3.4731088, -0.20257187, 0
715, 2066953126, -0.76051885, 0.019289538, -0.414244, 0.4996398, -0.35866565, 3.6915615, -1.938488, 0
718, 2067003127, -0.7827872, 0.01623676, -0.39452085, 0.48097086, -3.0843365, 1.3835014, -4.8430777, 0
719, 2067019794, -0.7858831, 0.011782774, -0.39725617, 0.47374615, -5.5158463, 0.34172735, -2.6979299, 0
721, 2067053128, -0.7819913, -0.009616286, -0.41233647, 0.46730632, -1.988829, 0.27065974, -6.4493103, 0
722, 2067069795, -0.7770892, -0.0154120345, -0.42200005, 0.4667011, 11.647942, -9.623783, 29.785492, 0
725, 2067119796, -0.78702456, 0.0064312303, -0.3960385, 0.47297335, -0.2317322, 3.6962476, -0.11011791, 0
726, 2067136463, -0.78809094, 0.013956806, -0.3886643, 0.47713462, 0.5460835, -2.1213307, -0.7022791, 0
727, 2067153130, -0.7884036, 0.019938625, -0.38236114, 0.48147836, 0.014531694, 0.5285769, 0.42336082, 0
729, 2067186464, -0.79025114, 0.027261537, -0.3681859, 0.48907927, -1.3030624, -0.4818446, 0.043889046, 0
730, 2067203131, -0.7927123, 0.02962009, -0.3598351, 0.49117017, -1.1036822, -0.63067603, -0.2876587, 0
731, 2067219798, -0.79603434, 0.03068331, -0.35067424, 0.49235645, -0.8475629, -0.521108, -0.15181828, 0
734, 2067269799, -0.8026624, 0.03082795, -0.32832187, 0.49697763, 1.581695, 0.17589131, 0.45084, 0
736, 2067303133, -0.80346245, 0.03215108, -0.32030168, 0.5008198, -0.35891598, -0.14016855, -0.0055856705, 0
737, 2067319800, -0.8039719, 0.03281969, -0.31669083, 0.5022533, -0.38734707, -0.3532468, -0.14558029, 0
740, 2067369801, -0.8048956, 0.033463784, -0.30905944, 0.50547487, 0.0048017288, -0.25361523, -0.09585571, 0
741, 2067386468, -0.8050479, 0.033548445, -0.30741957, 0.5062261, -0.13919091, -0.33681172, -0.2691717, 0
742, 2067403135, -0.8051693, 0.033494964, -0.30615026, 0.5068056, -0.22056147, -0.27325237, -0.23551464, 0
744, 2067436469, -0.80517644, 0.032955844, -0.30468106, 0.5077139, 0.044767857, -0.2952847, -0.34955502, 0
745, 2067453136, -0.80503345, 0.033137586, -0.3047876, 0.50786513, 0.905613, -0.16329524, -0.43190575, 0
746, 2067469803, -0.8047083, 0.0335789, -0.30572724, 0.5077867, -0.076347776, -0.3889458, -0.18934155, 0
748, 2067503137, -0.80416155, 0.033548027, -0.30705285, 0.50785494, -0.3340334, -0.11917301, -0.20916176, 0
750, 2067536471, -0.8043487, 0.033207767, -0.30638155, 0.5079863, -0.086710736, 0.30871615, 0.25752163, 0
752, 2067569805, -0.8046773, 0.034716897, -0.30438828, 0.5085629, 0.20919271, -0.14961068, -0.05607605, 0
754, 2067603139, -0.8042346, 0.03943029, -0.30393645, 0.5091894, -0.069812484, 0.12502143, 0.13853931, 0
756, 2067636473, -0.80340856, 0.04641323, -0.30409545, 0.5098092, -0.10078244, 0.019530227, 0.24829865, 0
757, 2067653140, -0.80355656, 0.049105115, -0.30296975, 0.50999427, -0.23189469, -0.26206532, -0.76267815, 0
758, 2067669807, -0.80407774, 0.050368145, -0.30121, 0.5100921, -0.28915066, -0.18235034, -0.17860985, 0
760, 2067703141, -0.8049293, 0.05314963, -0.29821247, 0.510228, 0.2807886, -0.30344757, -0.4505806, 0
761, 2067719808, -0.80517125, 0.054705005, -0.2977024, 0.50997984, 0.52779377, -0.4185093, -0.48717594, 0
762, 2067736475, -0.80531454, 0.056142703, -0.29760918, 0.5096514, -0.027633578, -0.19639248, -0.46083736, 0
764, 2067769809, -0.80617476, 0.055932637, -0.29688045, 0.50873876, -0.40987268, -0.6070177, -0.65107155, 0
767, 2067819810, -0.8068709, 0.05220363, -0.29780254, 0.5074912, -0.13523585, -0.50477844, -0.42906475, 0
769, 2067853144, -0.8066461, 0.04992034, -0.30078533, 0.50631756, 0.21372823, -0.44518667, -0.4520054, 0
771, 2067886478, -0.8069229, 0.04555505, -0.30358657, 0.5046132, -0.8062633, -0.016955525, 0.0073633194, 0
772, 2067903145, -0.8073891, 0.04300912, -0.30383247, 0.50394267, -0.23301874, 0.08959557, 0.078549385, 0
773, 2067919812, -0.807815, 0.040632013, -0.3042239, 0.50322086, 0.18566461, -0.18112977, -0.069247246, 0
775, 2067953146, -0.80819106, 0.036745153, -0.3064701, 0.5015498, 0.43981805, -0.36635786, -0.28727818, 0
776, 2067969813, -0.8079281, 0.035422795, -0.30921218, 0.50038433, 0.5034464, -0.3914855, -0.23330593, 0
777, 2067986480, -0.80771327, 0.033128403, -0.31220964, 0.49902534, -0.3317015, -0.91043806, -0.85023403, 0
779, 2068019814, -0.8077078, 0.025089074, -0.31790859, 0.4958953, -0.20961559, 0.50444824, 0.3521061, 0
780, 2068036481, -0.8066277, 0.021068035, -0.3213509, 0.4956217, -0.5691154, 0.21814428, 0.049425125, 0
781, 2068053148, -0.8035499, 0.015873253, -0.32562178, 0.4980216, 0.89036936, 0.07282978, 0.33208752, 0
784, 2068103149, -0.7922432, 9.3421526E-4, -0.34879017, 0.5006942, 0.56172204, -1.2838147, 0.3082285, 0
785, 2068119816, -0.7872933, -0.0073404144, -0.36210686, 0.49899215, 0.18311702, -1.6669348, -0.045178413, 0
787, 2068153150, -0.77401567, -0.03778675, -0.39957032, 0.4897092, 0.2026849, -1.8968284, -0.1195879, 0
788, 2068169817, -0.7652049, -0.060832076, -0.42332792, 0.4812003, 0.21234335, -1.7900138, -1.0889101, 0
789, 2068186484, -0.75338566, -0.08912005, -0.4500001, 0.47113356, 0.64618045, -1.3914047, -0.07974815, 0
791, 2068219818, -0.7281901, -0.148491, -0.4998306, 0.44481272, -1.7970089, 2.0448647, -1.7265301, 0
792, 2068236485, -0.717831, -0.17670947, -0.51781213, 0.43053734, -0.36310574, 2.2794316, -0.8847065, 0
794, 2068269819, -0.7063184, -0.21262485, -0.5366279, 0.40979838, -1.0785153, 4.1848407, 8.831024E-4, 0
796, 2068303153, -0.70848066, -0.22271176, -0.5352616, 0.402429, 0.49834627, -0.03023795, 1.0684834, 0
799, 2068353154, -0.6921809, -0.2564155, -0.5562815, 0.3816895, 0.11827456, -4.6518226, 0.45047188, 0
800, 2068369821, -0.6757399, -0.2858824, -0.5740401, 0.36348897, 0.5025765, -5.3801966, 2.2711296, 0
802, 2068403155, -0.62471324, -0.35529557, -0.62932986, 0.29570523, 2.4545255, -11.402619, 9.842384, 0
803, 2068419822, -0.597639, -0.37845236, -0.6618137, 0.24820045, -2.4046175, -21.013205, 12.054001, 0
804, 2068436489, -0.5706133, -0.4079808, -0.6847025, 0.19782284, -4.6500673, -23.963053, 14.380209, 0
806, 2068469823, -0.5602992, -0.43961552, -0.68304944, 0.16200604, -9.199817, -23.735508, 8.132851, 0
807, 2068486490, -0.56879747, -0.453749, -0.6634068, 0.17456226, -7.127161, -15.351687, -0.16290379, 0
808, 2068503157, -0.5808163, -0.4619863, -0.64521044, 0.18144952, -4.02368, -5.7344103, -4.6736836, 0
810, 2068536491, -0.592264, -0.46697512, -0.6313094, 0.18056954, -11.757974, -10.571463, -8.354615, 0
814, 2068603159, -0.5843277, -0.4481148, -0.6367898, 0.22858751, 1.5921946, -10.982263, -9.687632, 0
815, 2068619826, -0.59165186, -0.43068296, -0.6384815, 0.23832978, 3.3794167, -11.867702, -8.162863, 0
817, 2068653160, -0.6293382, -0.3889534, -0.6201993, 0.26076952, 2.4646957, -10.286905, -6.197242, 0
818, 2068669827, -0.65502757, -0.3676658, -0.60070837, 0.27369612, 0.8066701, -8.5243435, -5.5328717, 0
819, 2068686494, -0.68163466, -0.34431666, -0.5775, 0.28864035, -1.0260445, -7.2839823, -5.3069696, 0
821, 2068719828, -0.7225373, -0.2965407, -0.5369502, 0.31888455, -1.8089991, -3.9808452, -6.5927973, 0
822, 2068736495, -0.73555624, -0.26851583, -0.523139, 0.33642453, -3.9226909, -7.4571943, -1.4713478, 0
823, 2068753162, -0.742244, -0.23762429, -0.51238304, 0.36065412, -2.9910698, -5.809134, -0.69347095, 0
825, 2068786496, -0.73754895, -0.17211157, -0.50045496, 0.41945615, 2.062978, -2.8162942, 5.204405, 0
826, 2068803163, -0.73216474, -0.14025886, -0.49170002, 0.4499918, 4.4480877, -0.20246296, 7.096365, 0
830, 2068869831, -0.7251106, -0.045328762, -0.42514408, 0.5398258, 0.6097436, 9.559667, 1.9401655, 0
831, 2068886498, -0.7217932, -0.03349829, -0.41062114, 0.55613136, 1.7696482, 9.7777, 2.7899818, 0
833, 2068919832, -0.71104515, -0.0076175537, -0.38783333, 0.58646524, 1.3066384, 15.43787, 5.8528156, 0
834, 2068936499, -0.70500267, 0.0022368617, -0.3759553, 0.6013511, 3.6731524, 16.26286, 0.59303665, 0
835, 2068953166, -0.6992942, 0.009485171, -0.36786523, 0.61283946, 4.882653, 16.226833, -2.7661676, 0
837, 2068986500, -0.69453424, 0.0099516325, -0.36383906, 0.62059945, 7.0187225, 17.656927, -5.627708, 0
838, 2069003167, -0.6978691, 0.0035967939, -0.36334118, 0.6172099, 6.2378745, 19.617453, 1.0604172, 0
839, 2069019834, -0.70554125, -0.0012410618, -0.35763797, 0.6118041, 7.8821754, 19.768038, 2.9840345, 0
841, 2069053168, -0.72652704, -0.009456467, -0.35365754, 0.5890625, 0.9186048, 20.09023, -6.0313425, 0
843, 2069086502, -0.7421567, -0.047396626, -0.35917652, 0.5638692, -4.266845, 20.104086, -4.369118, 0
846, 2069136503, -0.7097296, -0.12839684, -0.4068993, 0.5605628, 25.888653, 8.512374, 21.135096, 0
848, 2069169837, -0.6927916, -0.09997819, -0.41389516, 0.58200884, 1.474327, -3.3611717, 2.5759459, 0
849, 2069186504, -0.6879723, -0.09709226, -0.41390395, 0.5881751, -5.0083194, -1.9951891, -1.8018293, 0
850, 2069203171, -0.6911808, -0.0974325, -0.4119708, 0.5857093, -3.4429293, -1.5906997, -0.27569485, 0
852, 2069236505, -0.69668984, -0.111222774, -0.42145497, 0.5697613, 2.0656471, -2.1608407, -0.17688942, 0
853, 2069253172, -0.69452083, -0.1217925, -0.43336406, 0.5612508, 0.055393886, -0.14806934, 0.013648033, 0
854, 2069269839, -0.6933517, -0.13322383, -0.44448787, 0.5513116, -1.4789908, 0.035785597, 0.14894104, 0
856, 2069303173, -0.692546, -0.16403243, -0.4689285, 0.52304757, -0.43200183, -1.6258558, 0.5759573, 0
858, 2069336507, -0.67827165, -0.21903042, -0.50538915, 0.48636848, 0.28745553, -4.11763, 0.8009758, 0
860, 2069369841, -0.64376265, -0.30517447, -0.5524632, 0.4326915, 0.18546882, -6.280354, 3.9782095, 0
861, 2069386508, -0.6163451, -0.35362285, -0.5826091, 0.39450666, -0.75735533, -9.609378, 4.604946, 0
862, 2069403175, -0.582548, -0.39594358, -0.62352717, 0.33923426, -1.0194908, -15.853057, 14.323086, 0
864, 2069436509, -0.52247703, -0.45287842, -0.69005686, 0.21386844, -14.333403, -63.840893, 31.652367, 0
865, 2069453176, -0.5104391, -0.45943946, -0.69199, 0.22252357, -49.893887, -40.236065, 3.8403673, 0
866, 2069469843, -0.4913167, -0.46369925, -0.68801636, 0.26499778, -10.496558, -6.310317, -10.306726, 0
868, 2069503177, -0.50568163, -0.41564876, -0.72172564, 0.22501953, -6.065108, -25.455576, -5.3630037, 0
869, 2069519844, -0.51533276, -0.39568248, -0.72672063, 0.22303328, -0.57807064, -16.518341, -8.875386, 0
870, 2069536511, -0.52224886, -0.38422903, -0.7271177, 0.22566143, 2.8700163, -13.971384, -8.465511, 0
873, 2069586512, -0.5606189, -0.344444, -0.70996064, 0.25103807, 1.2717181, -10.190589, -9.314646, 0
876, 2069636513, -0.59743583, -0.31449887, -0.67403924, 0.2997188, 2.8216665, -10.366031, -7.0394325, 0
877, 2069653180, -0.6134878, -0.3006131, -0.6577972, 0.31712258, 3.3003101, -10.562363, -4.193311, 0
879, 2069686514, -0.65200543, -0.26655477, -0.61682403, 0.3512337, -1.2701001, -6.804226, -3.1870618, 0
880, 2069703181, -0.6698047, -0.2490948, -0.59420335, 0.3691008, -1.8702089, -6.2612853, -0.9561758, 0
881, 2069719848, -0.6847727, -0.22824192, -0.5731544, 0.38792488, -2.5523522, -4.870525, 0.3423605, 0
883, 2069753182, -0.70073956, -0.17911825, -0.53964883, 0.43088192, -2.0396202, -1.9504353, 3.3483438, 0
884, 2069769849, -0.7021412, -0.15457705, -0.5252914, 0.45516148, -0.7304886, 0.20884514, 3.4857578, 0
885, 2069786516, -0.70091903, -0.13090198, -0.5120017, 0.47898933, 0.88362765, 1.5141935, 4.529991, 0
888, 2069836517, -0.69242096, -0.068649925, -0.4643543, 0.54791886, -0.16756678, 1.6155972, 4.649143, 0
889, 2069853184, -0.68780667, -0.049442194, -0.44699737, 0.5697985, 1.0063356, 1.671433, 4.7553177, 0
892, 2069903185, -0.6785351, 0.014728585, -0.39292398, 0.6204703, 3.367487, 5.610435, 5.7896795, 0
893, 2069919852, -0.6794354, 0.037369348, -0.37180167, 0.63145405, 1.9090854, 6.2692485, 5.239319, 0
895, 2069953186, -0.68027496, 0.08152858, -0.33381888, 0.64741296, 1.9731265, 7.629665, 2.967227, 0
896, 2069969853, -0.6794152, 0.10077817, -0.3169341, 0.65405715, 1.3959564, 9.170087, 1.5927153, 0
898, 2070003187, -0.67823446, 0.13350728, -0.28338593, 0.66472995, 2.558279, 11.335955, 0.9058428, 0
899, 2070019854, -0.6771685, 0.14748058, -0.26770025, 0.66934925, 2.5024393, 11.267768, -2.220118, 0
900, 2070036521, -0.67529917, 0.1578781, -0.2533118, 0.67444646, 1.8092136, 11.202627, -3.7912855, 0
903, 2070086522, -0.66529256, 0.17249537, -0.22392222, 0.6910061, 2.7992234, 13.674979, -4.843598, 0
904, 2070103189, -0.66222143, 0.1745056, -0.2176364, 0.6954455, 3.5579383, 13.262428, -6.691782, 0
906, 2070136523, -0.6635128, 0.17123333, -0.21032645, 0.6972748, 4.6875005, 13.5819025, -7.456362, 0
908, 2070169857, -0.6748766, 0.16140373, -0.20774479, 0.6894431, 5.635501, 14.662203, -7.3190274, 0
910, 2070203191, -0.6999707, 0.1472026, -0.2123404, 0.6657954, 4.468794, 18.878523, -6.3800054, 0
911, 2070219858, -0.7161348, 0.13632807, -0.21724202, 0.649131, 0.6633009, 20.680136, -6.4749565, 0
912, 2070236525, -0.73258626, 0.11779644, -0.224029, 0.6318636, -3.0565977, 21.677954, -5.551536, 0
914, 2070269859, -0.7504722, 0.059405833, -0.24787071, 0.6097721, -9.764392, 18.89175, -9.2171, 0
915, 2070286526, -0.74138165, 0.030247103, -0.2783513, 0.60988396, -0.16290541, 11.317288, -11.794755, 0
918, 2070336527, -0.73596746, -0.0148405265, -0.3063183, 0.6035729, 11.121916, 3.941504, 4.97103, 0
919, 2070353194, -0.7380693, -0.018833496, -0.309174, 0.5994246, 2.041805, 3.2951818, 2.2253428, 0
920, 2070369861, -0.7395905, -0.020568663, -0.31102505, 0.5965281, -0.4212448, 1.3784218, 0.7172766, 0
922, 2070403195, -0.74297804, -0.03134074, -0.32537866, 0.58406293, 1.3889631, -2.679379, 2.1140127, 0
924, 2070436529, -0.7300242, -0.07526371, -0.38674706, 0.55841416, -2.2899473, -6.387963, 0.18236637, 0
926, 2070469863, -0.69183034, -0.20447418, -0.49295118, 0.48637408, -0.09641142, -11.227333, 4.8048725, 0
927, 2070486530, -0.66298246, -0.29315597, -0.5380691, 0.4301102, -3.5601537, -18.771635, 10.722368, 0
929, 2070519864, -0.5994042, -0.43191108, -0.6066039, 0.293596, -30.65924, -46.830616, 22.92199, 0
930, 2070536531, -0.5678076, -0.4665719, -0.61414814, 0.2876225, -34.92118, -74.44694, 36.072014, 0
933, 2070586532, -0.5268843, -0.46731415, -0.65320516, 0.27808827, -4.5513453, -38.363743, -11.2368965, 0
934, 2070603199, -0.5344248, -0.46009088, -0.6528917, 0.27647528, -4.9149976, -32.921898, -15.672375, 0
935, 2070619866, -0.5470036, -0.44850948, -0.6477643, 0.2828907, -1.8606689, -18.764887, -18.85898, 0
937, 2070653200, -0.57441527, -0.4190602, -0.6270375, 0.31821257, -6.190691, -12.745273, -14.2115, 0
938, 2070669867, -0.585133, -0.39992046, -0.6138725, 0.34762478, -4.4127717, -8.970331, -12.499098, 0
939, 2070686534, -0.59274125, -0.3763873, -0.6016284, 0.38083228, -5.3834605, -6.001438, -11.121871, 0
941, 2070719868, -0.5949878, -0.32320914, -0.5778208, 0.45568433, -6.069394, -4.687617, -4.36092, 0
942, 2070736535, -0.5906909, -0.2920646, -0.56476647, 0.49681082, -6.8489046, -1.2837831, -1.6037674, 0
943, 2070753202, -0.58048904, -0.2596498, -0.55302125, 0.53831357, -4.980102, 3.497923, -1.5639067, 0
945, 2070786536, -0.5496278, -0.19655192, -0.52914536, 0.61585826, 2.4442484, 9.858634, 2.0342455, 0
947, 2070819870, -0.5249687, -0.151005, -0.49516326, 0.67558736, 3.904462, 18.45002, 7.679287, 0
949, 2070853204, -0.5052628, -0.12461972, -0.46146423, 0.7184912, 3.9380856, 21.289919, 1.4534979, 0
950, 2070869871, -0.4948988, -0.12034334, -0.4498739, 0.733625, 7.0830083, 18.303205, -0.17134285, 0
951, 2070886538, -0.48789865, -0.1186111, -0.44143242, 0.74365544, 7.8815584, 14.541431, 1.0265207, 0
954, 2070936539, -0.4891393, -0.11332245, -0.4200047, 0.7559738, -0.10989898, 5.496439, -0.93343353, 0
956, 2070969873, -0.4955242, -0.12025565, -0.39964142, 0.7617617, 22.807024, -2.4730997, -8.886623, 0
957, 2070986540, -0.50585526, -0.15370303, -0.387339, 0.75528395, 2.3746552, 33.437603, 21.826391, 0
958, 2071003207, -0.51197755, -0.15195459, -0.3785444, 0.7559712, 12.585318, -0.2803132, 4.082918, 0
960, 2071036541, -0.51774126, -0.1561547, -0.37988663, 0.7504969, 0.5607042, -1.3311481, 1.5592442, 0
962, 2071069875, -0.5219621, -0.15967609, -0.38734457, 0.7429823, 3.768787, -1.197166, 2.5358496, 0
964, 2071103209, -0.5265329, -0.16030064, -0.39327306, 0.73648006, -5.569333, -0.30184588, 1.1581373, 0
965, 2071119876, -0.53409976, -0.16058275, -0.3897702, 0.73282295, -1.2908796, -1.1691207, -1.3797503, 0
966, 2071136543, -0.5421156, -0.16057888, -0.38831472, 0.7276924, -2.4459028, -6.3087807, -3.7442656, 0
968, 2071169877, -0.56189126, -0.15672956, -0.38389665, 0.7157772, 1.9194798, -3.5224068, -0.025828362, 0
970, 2071203211, -0.58823943, -0.14637005, -0.3787842, 0.6993371, -1.2828485, -2.557863, -0.54146767, 0
972, 2071236545, -0.6182417, -0.1315969, -0.37406942, 0.6786244, 1.370889, -1.3985101, 2.0158997, 0
973, 2071253212, -0.63481456, -0.11965675, -0.36950645, 0.66795, 0.95824116, -2.6306968, 0.26786518, 0
974, 2071269879, -0.6532295, -0.1024604, -0.36223486, 0.65694636, 2.1266038, -2.0121818, -1.1617575, 0
977, 2071319880, -0.6972152, -0.052312184, -0.33050427, 0.6339723, -1.0633545, -2.3438454, -2.7481265, 0
979, 2071353214, -0.70374495, -0.03277777, -0.30398905, 0.64129484, 2.1630874, -4.1455445, -1.7502317, 0
980, 2071369881, -0.70415735, -0.030051623, -0.29541346, 0.6449728, -4.0192304, -6.403008, 0.12908363, 0
981, 2071386548, -0.70517194, -0.028839286, -0.29153582, 0.6456837, -1.1065435, -2.6955361, 6.0830965, 0
983, 2071419882, -0.70554984, -0.026423631, -0.29478055, 0.64389855, 1.4988389, -4.187866, -3.1111913, 0
984, 2071436549, -0.7050459, -0.023382418, -0.2969282, 0.64358145, 2.2997026, -3.7884257, -4.709685, 0
987, 2071486550, -0.69925153, -0.003818823, -0.30128288, 0.6482754, 1.1376389, -2.5856926, 7.298031, 0
988, 2071503217, -0.69797903, 0.001716123, -0.30301204, 0.6488493, 1.9623979, -3.2596433, -0.42054558, 0
989, 2071519884, -0.69743884, 0.007157862, -0.30553487, 0.6482097, 0.36943975, 1.8702121, -5.0556135, 0
992, 2071569885, -0.6931045, 0.021551155, -0.30407867, 0.65320545, -1.6417843, -0.26272017, -0.76244545, 0
993, 2071586552, -0.6924172, 0.02331352, -0.30530214, 0.6533032, 1.8494871, 5.931379, 2.1405382, 0
995, 2071619886, -0.6926679, 0.022158971, -0.3083908, 0.6516248, 2.4728992, 5.4653687, 0.079631805, 0
996, 2071636553, -0.69351774, 0.020029787, -0.3084699, 0.65075165, -0.2324423, 5.6888323, 3.1344147, 0
997, 2071653220, -0.6944618, 0.017758472, -0.30653492, 0.65072536, -2.7023375, 4.5126357, 3.451435, 0
999, 2071686554, -0.6954176, 0.010445785, -0.30067307, 0.65259516, 0.90395176, 3.9855556, -2.4159389, 0
1000, 2071703221, -0.6959636, 0.006851959, -0.29710707, 0.6536932, 2.4762561, 2.891858, -2.2130642, 0
1003, 2071753222, -0.7026532, -0.0037157694, -0.28353068, 0.65259075, -2.0676186, 3.2442918, 1.3807077, 0
1004, 2071769889, -0.70372915, -0.0089695705, -0.2812047, 0.6523867, -2.8846793, 2.836068, -0.33565998, 0
1007, 2071819890, -0.70404834, -0.019263417, -0.27521977, 0.65436876, -0.77743226, -0.026102457, -0.9272785, 0
1008, 2071836557, -0.7032887, -0.022062652, -0.27396676, 0.65562195, -0.5308108, 1.1109717, -0.35631847, 0
1010, 2071869891, -0.70091724, -0.024790142, -0.27409765, 0.65800494, -0.566451, 0.4063181, 0.70429707, 0
1011, 2071886558, -0.6993425, -0.02418641, -0.2747232, 0.6594405, -1.0219536, -1.5989723, 0.92653275, 0
1012, 2071903225, -0.6976675, -0.023493465, -0.2760852, 0.66066986, -0.9791649, 0.13961098, 0.36955452, 0
1014, 2071936559, -0.69419754, -0.021033816, -0.2783803, 0.6634391, -1.3977835, -0.107868776, -0.55301094, 0
1015, 2071953226, -0.6925479, -0.020569498, -0.27902907, 0.6649035, -1.7635612, 0.24784662, 0.2510252, 0
1016, 2071969893, -0.69095206, -0.021117881, -0.2792067, 0.66647005, -1.6632739, 0.311548, 0.10855198, 0
1018, 2072003227, -0.6879635, -0.021519281, -0.28046963, 0.66901386, -1.2848545, -0.071068935, -1.0008287, 0
1019, 2072019894, -0.6865688, -0.021788511, -0.28026956, 0.67051995, -0.67564803, -0.54331595, 0.12873268, 0
1022, 2072069895, -0.6837343, -0.022030074, -0.28043598, 0.67333305, -0.28060734, -2.3326826, -2.799189, 0
1023, 2072086562, -0.6827662, -0.021527842, -0.28131363, 0.6739652, -0.65228164, 0.0462671, -0.76601124, 0
1024, 2072103229, -0.6818205, -0.020582613, -0.28130087, 0.6749568, -0.46087545, -0.05382199, 1.4012432, 0
1026, 2072136563, -0.6810528, -0.020286318, -0.2809367, 0.67589176, -0.45994776, -1.1892629, 0.5875673, 0
1027, 2072153230, -0.6809237, -0.020470377, -0.28054428, 0.6761792, -0.3646646, -2.096428, -0.66399765, 0
1028, 2072169897, -0.68093, -0.020909458, -0.28075874, 0.6760704, -0.35385376, -1.2400765, -0.9590292, 0
1030, 2072203231, -0.68081796, -0.019870533, -0.2807588, 0.6762145, -0.56297123, -0.8775307, 0.15766048, 0
1032, 2072236565, -0.68043065, -0.018283036, -0.28155822, 0.6763165, 0.022265354, -1.733641, -0.14702511, 0
1034, 2072269899, -0.6800213, -0.018239783, -0.2821998, 0.67646235, -1.9786878, -3.2969403, -0.15685272, 0
1037, 2072319900, -0.6784426, -0.017165657, -0.28438827, 0.6771587, -0.8671999, -1.9388274, 1.6216173, 0
1038, 2072336567, -0.6780408, -0.01713756, -0.2850954, 0.6772643, -1.140625, -1.8408699, 2.147254, 0
1039, 2072353234, -0.67793715, -0.017677348, -0.286418, 0.6767961, -0.58750916, -5.4397917, -1.0084763, 0
1041, 2072386568, -0.6789212, -0.020344296, -0.29145464, 0.6735769, -1.454118, -3.01296, 0.6893072, 0
1042, 2072403235, -0.6789074, -0.02066378, -0.29231453, 0.6732082, -1.166496, -6.6096797, -0.5979347, 0
1043, 2072419902, -0.6796164, -0.022045646, -0.29347754, 0.671942, -0.6544549, -4.5757422, 2.0707226, 0
1045, 2072453236, -0.6814164, -0.02536939, -0.29883462, 0.66762674, -1.5606087, -7.8894296, -2.0520558, 0
1046, 2072469903, -0.6823575, -0.02783406, -0.30437323, 0.6640556, -0.33982417, -5.205649, -4.0035057, 0
1049, 2072519904, -0.68231046, -0.024201225, -0.3039123, 0.6644574, -2.281606, -5.1225014, 2.4622364, 0
1051, 2072553238, -0.6800143, -0.020999165, -0.3102263, 0.66400206, 0.19740933, -2.1951382, -1.5200224, 0
1053, 2072586572, -0.67568946, -0.011609977, -0.31366616, 0.66702485, -0.3222125, -0.28555575, 2.9865522, 0
1054, 2072603239, -0.673385, -0.0063665286, -0.31336263, 0.66956365, -0.9890142, 1.8058636, 1.3967361, 0
1055, 2072619906, -0.67154336, -0.0024209693, -0.3125075, 0.671835, -1.027345, 2.5203178, -0.77967644, 0
1057, 2072653240, -0.66986287, -9.351773E-4, -0.3065902, 0.67622846, 1.2244762, 3.0342374, 0.87772846, 0
1058, 2072669907, -0.67050624, -0.0052515566, -0.30439457, 0.6765627, 4.7329125, 4.714338, -0.9268141, 0
1060, 2072703241, -0.67286897, -0.010388705, -0.29922992, 0.6764619, 2.4074266, 5.539355, -2.2911773, 0
1061, 2072719908, -0.674274, -0.011189978, -0.29638943, 0.6763004, 1.0239081, 6.251128, 3.0797014, 0
1062, 2072736575, -0.67579055, -0.01202835, -0.29452157, 0.67558783, 1.2451435, 5.195412, 1.3333235, 0
1066, 2072803243, -0.6797369, -0.012890993, -0.28900272, 0.67399454, 1.0304154, 2.8869784, -1.2514791, 0
1068, 2072836577, -0.6805249, -0.01135755, -0.2899536, 0.6728175, -0.6508227, 2.9212754, -0.23398209, 0
1069, 2072853244, -0.6806195, -0.010675575, -0.29007384, 0.67268115, -0.5642339, 1.6902831, 0.23891258, 0
1070, 2072869911, -0.6806499, -0.010099078, -0.28995782, 0.67270935, -0.46964687, 0.91225684, -0.6813841, 0
1072, 2072903245, -0.6821831, -0.011622754, -0.28564578, 0.67297643, -0.2262463, 2.9765987, 1.2012377, 0
1073, 2072919912, -0.6831512, -0.012707604, -0.28334764, 0.67294616, -0.3691256, 1.3726445, 0.5677328, 0
1074, 2072936579, -0.68463486, -0.014071141, -0.27962342, 0.6729691, 0.20546898, 1.7412205, 0.48377132, 0
1076, 2072969913, -0.687211, -0.01754107, -0.27406374, 0.6725489, -0.12860444, 2.1968706, 0.8837776, 0
1077, 2072986580, -0.68758076, -0.018761523, -0.27132955, 0.67324626, -1.6798676, -0.6118178, 0.30732632, 0
1078, 2073003247, -0.687612, -0.02048701, -0.2701071, 0.67365545, -0.9685792, 1.3199352, 0.42821407, 0
1082, 2073069915, -0.68294483, -0.021999173, -0.26863757, 0.6789226, -0.92551553, 0.54787284, 1.1105738, 0
1084, 2073103249, -0.67958677, -0.022705145, -0.26945108, 0.6819399, -2.020803, -1.6170114, 0.1102047, 0
1085, 2073119916, -0.67779654, -0.022618089, -0.26938826, 0.683747, -2.4413424, -2.7618585, -1.2697697, 0
1086, 2073136583, -0.67606354, -0.022691295, -0.2695671, 0.6853878, -1.2909487, -0.103701785, 0.76098156, 0
1088, 2073169917, -0.6738501, -0.02406022, -0.26883325, 0.68780476, 0.38355383, 0.81499344, -0.8787136, 0
1089, 2073186584, -0.6730387, -0.025152214, -0.26886585, 0.688547, -0.21322298, 0.7550312, -0.18741989, 0
1092, 2073236585, -0.6707579, -0.025450349, -0.26731652, 0.6913592, -0.4426103, -0.93264925, -0.24764061, 0
1093, 2073253252, -0.67023313, -0.025520917, -0.26789463, 0.69164175, 0.4436685, 1.0439849, -0.52373886, 0
1096, 2073303253, -0.6674177, -0.024552945, -0.2699537, 0.6935959, -2.3342276, -0.72621304, -0.9909382, 0
1097, 2073319920, -0.6662222, -0.02449752, -0.27123228, 0.69424826, -2.0115075, -1.040099, -1.3006811, 0
1099, 2073353254, -0.66311085, -0.02355265, -0.27231142, 0.69683236, -2.140797, -0.8226832, 1.0124245, 0
1100, 2073369921, -0.6611607, -0.022989966, -0.27365947, 0.69817483, -1.9551098, -1.8230615, -0.8394089, 0
1101, 2073386588, -0.65927404, -0.022444371, -0.27448192, 0.6996522, -0.7446406, -0.62513584, 0.81330013, 0
1103, 2073419922, -0.65512735, -0.021250151, -0.27806187, 0.70216644, -0.3415334, 0.73072624, 1.2844076, 0
1104, 2073436589, -0.6530379, -0.020136083, -0.2804726, 0.7031862, -0.748605, -2.7865798, -1.694664, 0
1105, 2073453256, -0.6512468, -0.018662514, -0.2831906, 0.70379835, -0.6862785, -1.6842369, -1.3250017, 0
1107, 2073486590, -0.64704436, -0.014471729, -0.28760755, 0.70597845, -1.8824055, -0.121376514, 0.6072941, 0
1108, 2073503257, -0.64495146, -0.012370173, -0.2892283, 0.70727015, -0.7156422, -0.5112021, 1.7287121, 0
1111, 2073553258, -0.6413199, -0.010881268, -0.29363576, 0.7087791, -1.5396051, -3.7308693, -0.3360653, 0
1113, 2073586592, -0.64224434, -0.019067463, -0.295303, 0.70707446, -1.2417052, -3.0683844, -0.9727087, 0
1115, 2073619926, -0.6431091, -0.022133693, -0.2943212, 0.7066082, 0.5118129, -5.343107, 3.5762205, 0
1116, 2073636593, -0.6436588, -0.023413751, -0.2936465, 0.7063472, -1.0908147, -7.825284, -0.34776783, 0
1118, 2073669927, -0.6467582, -0.03010292, -0.29721525, 0.70175517, -0.77457184, -7.1494255, 0.19435501, 0
1119, 2073686594, -0.6485304, -0.033259925, -0.29795465, 0.6996605, -2.490207, -8.0754175, -4.1183414, 0
1120, 2073703261, -0.65038186, -0.035751972, -0.2976747, 0.6979358, 1.3087769, -5.1911044, -2.7912936, 0
1122, 2073736595, -0.65255475, -0.033572957, -0.2948431, 0.69721764, -1.1289624, -6.551536, -3.585164, 0
1123, 2073753262, -0.65316534, -0.0327695, -0.2960922, 0.6961539, 1.7896831, -0.12287703, 0.2698288, 0
1126, 2073803263, -0.6514427, -0.015937647, -0.28959972, 0.7010706, 0.19262056, 0.07570216, -1.9773197, 0
1127, 2073819930, -0.6500348, -0.010998571, -0.29058024, 0.7020659, 3.6132264, 6.121643, 0.1140089, 0
1130, 2073869931, -0.6451975, 8.9830626E-4, -0.29706246, 0.7038983, 1.6818593, 10.303657, 0.9806032, 0
1131, 2073886598, -0.6435579, 0.0046185423, -0.299881, 0.7041895, 0.85878056, 7.2698746, -3.1127844, 0
1132, 2073903265, -0.64267766, 0.0056180246, -0.300263, 0.70482296, 1.8917354, 9.700279, 3.0974445, 0
1134, 2073936599, -0.6417187, 0.007428236, -0.30069038, 0.7054977, 2.7756166, 6.3693376, 0.8642311, 0
1135, 2073953266, -0.64153826, 0.009020824, -0.3014543, 0.70531696, 4.312025, 4.4659047, -2.1138906, 0
1136, 2073969933, -0.6419536, 0.012212208, -0.3015927, 0.7048317, 2.117045, 0.6886778, -2.5319881, 0
1138, 2074003267, -0.6430969, 0.019058019, -0.30152118, 0.70366734, 0.8647457, 5.236504, 0.3200903, 0
1141, 2074053268, -0.6487337, 0.026525449, -0.297864, 0.69979835, 0.009999858, 1.5773423, 0.38939857, 0
1142, 2074069935, -0.65056896, 0.031575162, -0.29417717, 0.6994445, -2.7000244, -2.647188, -2.1497722, 0
1143, 2074086602, -0.650496, 0.036832683, -0.29150534, 0.7003732, -2.5420647, 1.78735, -1.5304556, 0
1146, 2074136603, -0.65194553, 0.05393816, -0.2812472, 0.70210916, 2.583377, -2.9828136, 1.6820278, 0
1147, 2074153270, -0.6545925, 0.06218198, -0.27764505, 0.70039624, 0.59214205, -3.014316, -2.2952871, 0
1149, 2074186604, -0.66621584, 0.07853571, -0.26895878, 0.6911218, 5.6196074, -1.5266241, 0.4457531, 0
1150, 2074203271, -0.68034905, 0.087208934, -0.26398543, 0.6781085, 7.887344, -0.6580626, 0.58994865, 0
1151, 2074219938, -0.6996674, 0.09656112, -0.25844494, 0.6590503, 4.0390577, -0.0076605715, -0.07972431, 0
1153, 2074253272, -0.74227774, 0.11398144, -0.24833195, 0.6118521, -3.4491186, 1.0380775, -3.5357213, 0
1155, 2074286606, -0.76903313, 0.12367141, -0.24996641, 0.57516074, -10.7717705, 1.6303258, 0.514802, 0
1157, 2074319940, -0.78050053, 0.12488982, -0.25821754, 0.5554682, -6.6849084, -0.09993697, -2.1209626, 0
1158, 2074336607, -0.7815884, 0.122643486, -0.2637572, 0.55182415, -5.4958177, -0.15823656, -0.8312235, 0
1159, 2074353274, -0.7817079, 0.12052167, -0.26832944, 0.54991484, -1.3826089, 1.0100124, -1.0421982, 0
1162, 2074403275, -0.78637767, 0.104930885, -0.2797978, 0.5406591, -12.783666, 0.7519541, 1.5731239, 0
1163, 2074419942, -0.78459114, 0.103456356, -0.2899985, 0.53815776, 2.1228762, 3.0465689, 1.5661659, 0
1165, 2074453276, -0.7721383, 0.11635096, -0.33152848, 0.5294842, 10.328183, -5.5393615, -6.2845945, 0
1166, 2074469943, -0.7636138, 0.120517015, -0.36612538, 0.5179973, 1.6345537, -5.016883, -3.9501138, 0
1167, 2074486610, -0.74484634, 0.12227774, -0.4122336, 0.51021093, -5.0499687, -4.1253614, -0.51285744, 0
1170, 2074536611, -0.7021219, 0.014286677, -0.451965, 0.5500435, 39.295307, -8.309207, 12.446491, 0
1172, 2074569945, -0.7115412, -0.05302666, -0.40719998, 0.5701623, -2.411295, -15.526568, 1.393136, 0
1173, 2074586612, -0.7180994, -0.076110825, -0.3792465, 0.57854307, -8.78562, -13.835903, 2.5578308, 0
1174, 2074603279, -0.7237645, -0.08241072, -0.35029832, 0.58878195, -11.92489, -9.570911, 6.658432, 0
1176, 2074636613, -0.72259855, -0.056835826, -0.2978366, 0.6212197, -13.707553, 1.9080628, -1.0260229, 0
1177, 2074653280, -0.71367866, -0.03270767, -0.2786433, 0.64183354, -10.726275, 7.2645326, 0.99901676, 0
1178, 2074669947, -0.7006889, -0.0052588694, -0.26387954, 0.6628535, -5.8318086, 9.595014, -3.3093028, 0
1180, 2074703281, -0.66833943, 0.047261216, -0.25273377, 0.6980072, 3.012745, 14.092941, -1.9003425, 0
1181, 2074719948, -0.6547119, 0.06709339, -0.24288222, 0.712642, 6.750103, 15.367512, -4.64206, 0
1182, 2074736615, -0.64946103, 0.08001189, -0.23130429, 0.719928, 9.102694, 14.738093, -12.221891, 0
1185, 2074786616, -0.6589803, 0.08744736, -0.21498923, 0.7154559, 9.390974, 24.097, -14.948539, 0
1186, 2074803283, -0.6650835, 0.07532934, -0.21853961, 0.7100911, 10.095788, 25.864191, -12.215591, 0
1188, 2074836617, -0.6878749, 0.020282954, -0.2302002, 0.68805826, 8.446262, 20.334541, -18.03466, 0
1189, 2074853284, -0.6886897, -0.021298118, -0.26064345, 0.6762525, 6.066503, 48.100662, -45.829693, 0
1192, 2074903285, -0.68946236, -0.058419313, -0.2826984, 0.66431165, 8.561063, 2.0297344, 5.305479, 0
1193, 2074919952, -0.69651085, -0.06767047, -0.2873784, 0.6539929, 4.093446, 1.1021843, 1.746314, 0
1194, 2074936619, -0.6999531, -0.080581516, -0.29786545, 0.64408696, -1.3723823, -2.9785273, 0.87829494, 0
1196, 2074969953, -0.6970313, -0.14656852, -0.34905583, 0.60895383, -3.5602221, -5.2941923, 1.7716837, 0
1197, 2074986620, -0.6883481, -0.20639229, -0.38904965, 0.5763845, -4.7111855, -6.8002234, 3.8222523, 0
1200, 2075036621, -0.6465927, -0.40175316, -0.52491194, 0.38076144, -10.625686, -30.360037, 33.070564, 0
1201, 2075053288, -0.63917977, -0.4448515, -0.5475386, 0.30619824, -47.654484, -22.78789, 26.097305, 0
1203, 2075086622, -0.57668775, -0.48698494, -0.5804988, 0.30544665, -2.0380275, 9.950872, -3.0684175, 0
1204, 2075103289, -0.54858494, -0.5111899, -0.6011874, 0.27624732, -4.1088724, -8.19192, 6.6392803, 0
1205, 2075119956, -0.5239035, -0.52882427, -0.6181585, 0.2524868, -20.392178, -27.395428, 4.0727797, 0
1208, 2075169957, -0.46742997, -0.5578835, -0.6573941, 0.19521189, -2.9656553, -24.05735, -13.24957, 0
1209, 2075186624, -0.46695969, -0.5612033, -0.65963507, 0.1785521, 0.4932627, -19.166956, -15.801458, 0
1211, 2075219958, -0.49250203, -0.57024854, -0.64013916, 0.14993268, -1.3012272, -11.218442, -15.954327, 0
1212, 2075236625, -0.51017606, -0.578183, -0.6198173, 0.14577706, -3.368964, -9.225226, -16.147171, 0
1215, 2075286626, -0.55612725, -0.59152555, -0.55744815, 0.17341018, -6.0149307, -4.501962, -16.402239, 0
1216, 2075303293, -0.56573504, -0.5886964, -0.54300547, 0.1962779, -4.2810197, -3.642216, -15.476289, 0
1217, 2075319960, -0.5745751, -0.5793603, -0.5339227, 0.22165515, -1.8059095, -2.808008, -14.297384, 0
1219, 2075353294, -0.592668, -0.5406591, -0.5297116, 0.27538627, -2.5662203, -4.851667, -12.364985, 0
1220, 2075369961, -0.6002604, -0.51532006, -0.5287324, 0.30752954, -1.933822, -6.933319, -9.66961, 0
1222, 2075403295, -0.6151825, -0.45046544, -0.52959776, 0.37169483, 0.8604404, -6.201055, -6.168477, 0
1224, 2075436629, -0.63289046, -0.37652582, -0.5207845, 0.43181145, 2.7860277, -9.239259, 2.1860456, 0
1226, 2075469963, -0.6670343, -0.29621148, -0.48389602, 0.482875, -1.4450836, -6.107283, 9.3471775, 0
1227, 2075486630, -0.6828449, -0.25336593, -0.45774597, 0.50989884, -6.129521, -3.9847925, 12.421835, 0
1230, 2075536631, -0.6880328, -0.11744919, -0.39205843, 0.5992547, -1.336366, 5.878734, 12.806017, 0
1231, 2075553298, -0.68028605, -0.073517606, -0.37505466, 0.6254116, 0.9694781, 8.009429, 12.033987, 0
1232, 2075569965, -0.6694697, -0.033734, -0.35890326, 0.64950776, 1.9452194, 10.132024, 11.400438, 0
1234, 2075603299, -0.6415149, 0.03390408, -0.32848048, 0.6923939, 2.12171, 13.35885, 10.0432625, 0
1235, 2075619966, -0.62396914, 0.061586067, -0.31468228, 0.71263194, 4.7515974, 13.968445, 5.7673798, 0
1236, 2075636633, -0.60438615, 0.08556813, -0.30446026, 0.7312312, 7.369399, 13.781209, 2.741127, 0
1238, 2075669967, -0.5717317, 0.12668745, -0.28676924, 0.7581796, 13.676063, 12.46804, -2.194508, 0
1240, 2075703301, -0.57157683, 0.14682584, -0.2602227, 0.76421607, 10.556786, 17.62478, -2.0089593, 0
1242, 2075736635, -0.5764545, 0.15730494, -0.24573535, 0.76326215, 6.098804, 17.313248, -10.222807, 0
1244, 2075769969, -0.5742528, 0.15010953, -0.24482419, 0.76665604, 10.801759, 15.094109, -8.107887, 0
1246, 2075803303, -0.5873746, 0.12498191, -0.23830214, 0.7632709, 14.966857, 19.384085, -8.060458, 0
1247, 2075819970, -0.6024288, 0.10182438, -0.23438409, 0.7561582, 12.818517, 21.322422, -13.225985, 0
1248, 2075836637, -0.6187951, 0.070978306, -0.23490435, 0.7462402, 11.980178, 23.548788, -15.275764, 0
1250, 2075869971, -0.6539784, -0.0020798165, -0.2637912, 0.70902884, 8.32904, 25.188438, -18.460228, 0
1251, 2075886638, -0.6653108, -0.04911851, -0.28795534, 0.6870444, 11.635686, 19.782145, -15.344331, 0
1253, 2075919972, -0.66450435, -0.047710318, -0.28566125, 0.6888795, -8.2656555, -18.072414, -2.958622, 0
1254, 2075936639, -0.6755769, -0.064179085, -0.29104877, 0.6743642, 2.9526212, 1.9267529, 3.8866577, 0
1255, 2075953306, -0.6833916, -0.08329864, -0.30081025, 0.6599622, 6.1080065, 0.7738046, 1.8447399, 0
1257, 2075986640, -0.6772501, -0.13496678, -0.33836377, 0.6392385, -2.4060218, -0.9967996, -0.20244217, 0
1259, 2076019974, -0.66887033, -0.21304284, -0.39081138, 0.5953916, -2.7146435, -3.6845427, 1.3281946, 0
1261, 2076053308, -0.64676195, -0.32569394, -0.45590368, 0.51746875, -3.9222128, -7.561724, 3.2725916, 0
1262, 2076069975, -0.62603843, -0.3930305, -0.4912889, 0.4606928, -1.6190867, -9.544, 6.5921745, 0
1263, 2076086642, -0.60517657, -0.44308317, -0.5369937, 0.3861037, -10.215112, -30.700867, 28.595535, 0
1265, 2076119976, -0.5826081, -0.49084073, -0.596356, 0.25298667, -59.819477, -47.999863, 39.287827, 1024
1266, 2076136643, -0.55869776, -0.49924985, -0.6000599, 0.28023925, -20.98634, -10.286121, 11.581924, 0
1267, 2076153310, -0.54533863, -0.5164801, -0.6076169, 0.25817692, 15.486964, 15.086865, 3.0004559, 0
1271, 2076219978, -0.5017906, -0.56842434, -0.6353193, 0.1465236, -11.877089, -23.514954, -8.964823, 0
1274, 2076269979, -0.4610509, -0.5948959, -0.6470783, 0.12173821, 0.30966648, -13.468991, -16.754787, 0
1275, 2076286646, -0.45846853, -0.5988584, -0.6457894, 0.11887346, 1.1757865, -11.146805, -17.241875, 0
1277, 2076319980, -0.46314603, -0.60411227, -0.6345797, 0.13361178, -2.2576919, -7.6333723, -17.032682, 0
1278, 2076336647, -0.4655915, -0.6079151, -0.6240523, 0.15563454, -2.6652389, -7.3336415, -16.214968, 0
1280, 2076369981, -0.4781894, -0.6041025, -0.59890735, 0.2184144, -1.7525989, -5.503297, -14.162119, 0
1281, 2076386648, -0.48843434, -0.594465, -0.5852171, 0.2560542, -3.0136, -5.886655, -12.645813, 0
1282, 2076403315, -0.50016934, -0.57956225, -0.57012373, 0.29815575, -3.5624666, -6.0497108, -11.013627, 0
1284, 2076436649, -0.52841824, -0.53132486, -0.5381842, 0.38577923, -1.6693299, -5.067669, -8.024908, 0
1285, 2076453316, -0.5452596, -0.4966529, -0.52383107, 0.42617887, -1.9273996, -4.0673895, -6.6111975, 0
1289, 2076519984, -0.59529424, -0.32375222, -0.4675834, 0.56760436, 0.8726384, -4.72854, 8.756699, 0
1290, 2076536651, -0.6085719, -0.27444685, -0.4490139, 0.59388995, 0.34249339, -1.7556728, 13.436472, 0
1292, 2076569985, -0.6249106, -0.17452736, -0.40536612, 0.64397603, -2.4358635, 8.9347515, 18.701633, 0
1293, 2076586652, -0.62035817, -0.1245653, -0.38598228, 0.6713094, 0.97295415, 11.501244, 14.860291, 0
1294, 2076603319, -0.60933065, -0.07699828, -0.36892897, 0.6976234, 4.818688, 11.532087, 13.520777, 0
1296, 2076636653, -0.5834317, 0.0105669815, -0.33539063, 0.7396, 10.492356, 12.116326, 7.9209576, 0
1297, 2076653320, -0.57423055, 0.04753326, -0.31761974, 0.7530718, 11.252996, 12.823491, 4.2635155, 0
1298, 2076669987, -0.5672356, 0.07921291, -0.30076104, 0.76256883, 9.266159, 13.330207, 1.3331547, 0
1300, 2076703321, -0.553388, 0.1284568, -0.2768317, 0.7749996, 10.84087, 15.216086, -1.0521393, 0
1301, 2076719988, -0.5476424, 0.14617848, -0.26593372, 0.7797425, 12.073905, 16.705454, -3.8973327, 0
1305, 2076786656, -0.54420495, 0.15909469, -0.24022105, 0.7879233, 16.564377, 19.849453, -12.037712, 0
1307, 2076819990, -0.55914366, 0.13509874, -0.2377199, 0.7826847, 16.941257, 21.71534, -16.770374, 0
1308, 2076836657, -0.5728649, 0.110683665, -0.24026778, 0.77578723, 16.0624, 26.369, -16.42158, 0
1309, 2076853324, -0.58771366, 0.07941161, -0.24844329, 0.76587343, 15.208582, 31.25102, -15.082538, 0
1311, 2076886658, -0.608847, -0.0016089259, -0.2845232, 0.7405057, 12.10797, 35.491272, -13.499193, 0
1312, 2076903325, -0.61066365, -0.044839043, -0.3089437, 0.7277586, 4.800175, 13.657523, 10.505819, 0
1313, 2076919992, -0.60718024, -0.028249735, -0.28232062, 0.74217856, -25.232634, -1.1565541, 13.047047, 1024
1315, 2076953326, -0.6234617, -0.056352723, -0.2909844, 0.7234967, 8.329493, 0.5635634, 3.618453, 0
1316, 2076969993, -0.62517655, -0.069976665, -0.30216968, 0.71620584, 4.1792383, -1.1217709, 1.5603056, 0
1319, 2077019994, -0.6254969, -0.14251076, -0.34782898, 0.6837096, -1.4745505, -2.6513817, 1.2799654, 0
1321, 2077053328, -0.61194366, -0.23577553, -0.40192646, 0.6390537, -1.4761821, -5.3316617, 2.9683332, 0
1323, 2077086662, -0.58625716, -0.36576086, -0.46617275, 0.5524528, -6.2044296, -13.075439, 7.107445, 0
1324, 2077103329, -0.5641267, -0.44188258, -0.50412214, 0.48203847, -10.903336, -19.643366, 20.905367, 0
1325, 2077119996, -0.54751146, -0.49654636, -0.5430745, 0.3984252, -19.013882, -26.420279, 23.05582, 0
1327, 2077153330, -0.48363712, -0.574726, -0.5622497, 0.34591913, -61.66912, -49.706516, 34.628098, 1024
1328, 2077169997, -0.4480709, -0.5819057, -0.5781369, 0.35549346, 10.524853, -14.230313, -6.3955054, 0
1329, 2077186664, -0.4434591, -0.5843844, -0.60080135, 0.3176103, -1.0327228, -33.80934, -0.72655106, 0
1331, 2077219998, -0.45136437, -0.5966322, -0.59650296, 0.29066095, -16.268631, -27.25735, -17.778856, 0
1334, 2077269999, -0.4873154, -0.5816124, -0.5625079, 0.32838288, -13.271318, -9.154245, -19.4007, 0
1335, 2077286666, -0.4952226, -0.5688725, -0.5476024, 0.36231175, -10.779663, -7.873578, -16.150253, 0
1336, 2077303333, -0.5028082, -0.54677814, -0.53555804, 0.40173978, -7.4883966, -7.277532, -13.272007, 0
1338, 2077336667, -0.5172008, -0.47857744, -0.5119261, 0.49132293, -8.205395, -2.4636316, -3.9986992, 0
1339, 2077353334, -0.5187063, -0.44032684, -0.49531543, 0.54010963, -5.3660583, 5.2240796, -3.671867, 0
1340, 2077370001, -0.5115714, -0.39990723, -0.48593393, 0.58501005, -4.9276967, 7.0544186, -2.1321487, 0
1342, 2077403335, -0.47546408, -0.30504176, -0.48620874, 0.6666964, 9.230167, 9.447173, 7.573576, 0
1343, 2077420002, -0.4605592, -0.2626929, -0.47997448, 0.6989289, 16.786922, 13.856219, 5.3238325, 0
1344, 2077436669, -0.4548683, -0.22960728, -0.4667511, 0.7228544, 18.550938, 16.042177, 1.8454504, 0
1346, 2077470003, -0.46591836, -0.19294539, -0.43038222, 0.7486408, 12.424347, 21.939257, 3.6606417, 0
1348, 2077503337, -0.4636666, -0.15810806, -0.4238207, 0.7618337, 12.190855, 24.578989, 3.23594, 0
1351, 2077553338, -0.4857588, -0.13880469, -0.4415755, 0.74147314, 22.201525, 4.5967245, 5.4487495, 0
1352, 2077570005, -0.51342475, -0.13595647, -0.4414577, 0.72320515, -3.2091088, 11.735389, -2.4796085, 0
1354, 2077603339, -0.55377823, -0.122994944, -0.44490996, 0.6930055, -3.7106507, 0.6539179, -5.675504, 0
1355, 2077620006, -0.56838655, -0.117438965, -0.446745, 0.6808548, -4.322891, -2.0509038, -6.882635, 0
1356, 2077636673, -0.5806565, -0.11418683, -0.44499934, 0.6721417, -5.5184956, -4.5073786, -3.7529573, 0
1358, 2077670007, -0.5982031, -0.107782066, -0.4336036, 0.66522425, -5.0514345, -6.7685647, -5.331377, 0
1359, 2077686674, -0.6029382, -0.1107698, -0.42274243, 0.6674458, -6.1454005, -6.6369224, -4.3981204, 0
1361, 2077720008, -0.6161467, -0.07329047, -0.37751, 0.6873701, 2.4026086, -2.5353463, 2.4938593, 0
1363, 2077753342, -0.61942, -0.038313888, -0.33580783, 0.7085785, -0.24758418, -6.957539, -1.3293428, 0
1365, 2077786676, -0.627864, -0.030486261, -0.3125388, 0.7121632, 4.5063424, -0.5316589, 0.94285774, 0
1367, 2077820010, -0.631352, -0.025659753, -0.30573076, 0.712225, 5.626595, -0.16935943, -2.5418015, 0
1369, 2077853344, -0.6305716, -0.014983181, -0.3000813, 0.7156157, -4.5670376, 3.646885, 2.1405468, 0
1370, 2077870011, -0.6295353, -0.010472894, -0.29996073, 0.71665806, -0.114187405, 6.0822234, 3.0060492, 0
1371, 2077886678, -0.6293976, -0.006563871, -0.29946604, 0.71703225, 1.756704, 3.5044558, -0.40772247, 0
1373, 2077920012, -0.62870765, -0.003308719, -0.2964421, 0.71891403, 0.7002175, 1.6590904, -0.5140829, 0
1374, 2077936679, -0.62726086, -0.0048275637, -0.2939872, 0.72117376, 0.8097766, 1.9977007, 0.60867214, 0
1375, 2077953346, -0.6260046, -0.0060274918, -0.29106805, 0.7234369, 1.6164044, 1.7436113, 0.5187721, 0
1378, 2078003347, -0.61670905, -0.013674239, -0.28414044, 0.7339936, -7.3694386, -2.22296, -3.0823803, 0
1379, 2078020014, -0.6060858, -0.018733785, -0.28267777, 0.74323744, -3.8814187, -2.4150145, -2.2734027, 0
1381, 2078053348, -0.5912619, -0.029152505, -0.28108132, 0.75534916, 4.3281646, -5.8588896, -0.6619806, 0
1384, 2078103349, -0.5944823, -0.044603236, -0.26928824, 0.7563627, -3.5257144, -6.5184884, -3.177897, 0
1385, 2078120016, -0.59571165, -0.04783041, -0.26788247, 0.75569737, -0.03762036, -3.59696, 0.21189785, 0
1386, 2078136683, -0.5967808, -0.049126074, -0.26583457, 0.75549376, -0.43321952, -5.812981, 2.7690182, 0
1388, 2078170017, -0.5983022, -0.05110675, -0.2665893, 0.7538915, -3.3564188, -3.009812, 0.017906189, 0
1389, 2078186684, -0.5986456, -0.050694644, -0.26503202, 0.7541955, -3.6918685, -0.04942834, -3.3429322, 0
1390, 2078203351, -0.59808314, -0.048875235, -0.2600644, 0.7564878, -2.6707618, 2.2324033, -2.1865687, 0
1393, 2078253352, -0.5927003, -0.043959826, -0.24496551, 0.76600605, 6.09814, 6.3229995, 5.3051004, 0
1394, 2078270019, -0.5899645, -0.043447535, -0.24680239, 0.767556, 4.440621, 1.3459213, -3.0747313, 0
1396, 2078303353, -0.5823593, -0.040722866, -0.25572675, 0.77058595, 1.7292519, 3.6422188, -2.557991, 0
1397, 2078320020, -0.57866466, -0.039078385, -0.2612598, 0.77159745, 1.8861657, 9.585435, 0.3966818, 0
1401, 2078386688, -0.5722888, -0.042286508, -0.26459578, 0.77503914, 2.1635008, 1.4999919, -1.8409295, 0
1402, 2078403355, -0.5719813, -0.04518248, -0.26124474, 0.7762388, 1.5974792, 2.6888657, 0.86269283, 0
1404, 2078436689, -0.5714952, -0.051527645, -0.25633672, 0.7778363, 1.274455, 2.6250606, -4.0162654, 0
1405, 2078453356, -0.57102406, -0.05345445, -0.25302818, 0.77913433, 3.000603, 3.1551442, 9.848146, 0
1408, 2078503357, -0.5681163, -0.05762563, -0.25008848, 0.78190684, 4.9288325, 5.3132677, 1.0764198, 0
1409, 2078520024, -0.566934, -0.056201603, -0.24838991, 0.78340864, -2.294407, -1.9549642, 1.3571892, 0
1410, 2078536691, -0.5662261, -0.056341026, -0.24908601, 0.7836897, 1.0615375, 1.5561271, 1.846034, 0
1412, 2078570025, -0.56407446, -0.05559792, -0.25136042, 0.78456765, 1.1010474, 0.20241742, -1.4608297, 0
1413, 2078586692, -0.56267965, -0.054445654, -0.25223443, 0.7853689, -0.08248153, -0.74571335, 0.1971941, 0
1415, 2078620026, -0.5596596, -0.05207541, -0.254484, 0.7869605, -0.70446134, 1.3434306, -0.5193958, 0
1416, 2078636693, -0.558038, -0.05136544, -0.25595832, 0.7876802, -0.52433616, -0.40394947, -1.5096931, 0
1417, 2078653360, -0.55640316, -0.049744967, -0.25695944, 0.7886144, -0.016775876, -1.2421901, -0.39342403, 0
1419, 2078686694, -0.55298233, -0.047133997, -0.26002967, 0.7901729, 0.19241045, 1.4310896, 0.5049124, 0
1420, 2078703361, -0.55150384, -0.045486916, -0.2614654, 0.7908285, -0.40512583, -0.10368638, -1.4798317, 0
1423, 2078753362, -0.5504652, -0.042803284, -0.2597283, 0.7922731, -1.9707901, -0.59607905, 0.09121513, 0
1424, 2078770029, -0.55082005, -0.04312086, -0.25882742, 0.79230404, 0.73052245, 0.5173038, 0.13648605, 0
1425, 2078786696, -0.55157226, -0.042783815, -0.25813147, 0.7920261, -0.050107133, -1.9750859, -2.7807689, 0
1427, 2078820030, -0.55422616, -0.04310913, -0.2539528, 0.7915064, 0.72400296, 1.611675, 3.2209578, 0
1428, 2078836697, -0.55510914, -0.043794274, -0.25429118, 0.79074097, -0.56306994, -1.218317, -3.5316968, 0
1431, 2078886698, -0.5561675, -0.04303901, -0.25281665, 0.7905115, 0.45169866, 2.6009178, 1.4704084, 0
1432, 2078903365, -0.5556579, -0.04285776, -0.252863, 0.79086494, 0.04044981, 1.6786815, 2.3894053, 0
1433, 2078920032, -0.5550183, -0.04252645, -0.25282034, 0.7913455, 0.03410897, -0.45547694, 0.569355, 0
1435, 2078953366, -0.55414087, -0.045676127, -0.25560513, 0.7908901, -2.1953518, -0.67464453, -0.5143099, 0
1437, 2078986700, -0.5534987, -0.05148013, -0.25675586, 0.79061055, -3.849354, -1.6092367, 0.07465172, 0
1439, 2079020034, -0.5518075, -0.054242495, -0.25508267, 0.7921482, -3.9733787, -5.232063, 0.12720776, 0
1440, 2079036701, -0.5514882, -0.0569345, -0.2556552, 0.7919971, -3.834176, -5.696399, 1.5797787, 0
1442, 2079070035, -0.553523, -0.06608041, -0.2577093, 0.78919655, -4.392841, -4.482169, -0.12976646, 0
1443, 2079086702, -0.554799, -0.0711104, -0.2584814, 0.78760916, -3.1147187, -4.516155, 0.69285965, 0
1444, 2079103369, -0.55550253, -0.07520074, -0.25854918, 0.7867107, -3.8390844, -4.9667873, 3.514988, 0
1447, 2079153370, -0.5558419, -0.090941556, -0.26539797, 0.7825169, -2.5357738, -1.562133, 2.633028, 0
1448, 2079170037, -0.555903, -0.09455706, -0.26747268, 0.78133774, -1.734836, -1.9021943, 1.4452829, 0
1450, 2079203371, -0.553997, -0.08917322, -0.2646996, 0.78426343, -6.610491, -3.3274977, -5.9894753, 0
1452, 2079236705, -0.55188435, -0.077365875, -0.25849068, 0.78906286, 2.5297868, 3.2845778, -0.25391674, 0
1454, 2079270039, -0.5373471, -0.05565105, -0.25325838, 0.80250907, -0.66085225, 1.998555, 2.342207, 0
1455, 2079286706, -0.531995, -0.052848235, -0.25484124, 0.8057566, 3.5390046, 8.771149, 10.093163, 0
1456, 2079303373, -0.5263631, -0.052126713, -0.25957447, 0.80798846, 3.5994387, 8.565514, 0.6947994, 0
1458, 2079336707, -0.51486194, -0.049432054, -0.26994756, 0.8121586, 1.2394263, 8.570296, -3.6950073, 0
1459, 2079353374, -0.50862855, -0.048389338, -0.2739157, 0.81481606, 0.44141182, 5.9608364, 2.6660137, 0
1460, 2079370041, -0.50409114, -0.050186865, -0.27796254, 0.8161554, 6.466371, 9.260529, 4.5079737, 0
1463, 2079420042, -0.49922955, -0.053994227, -0.27472275, 0.8199888, 2.403286, 1.8176008, -3.719378, 0
1465, 2079453376, -0.49823368, -0.05867102, -0.27161747, 0.8213066, 11.077494, 5.403568, 9.719044, 0
1467, 2079486710, -0.49828506, -0.061905447, -0.27033478, 0.82146114, 2.009894, 3.6361346, -4.8900604, 0
1469, 2079520044, -0.49670133, -0.062137995, -0.27089486, 0.822218, 0.13307694, -0.66833127, 0.4891529, 0
1470, 2079536711, -0.49535066, -0.06212309, -0.27191228, 0.82269776, 2.694314, 1.6825299, 3.3782263, 0
1471, 2079553378, -0.4939251, -0.0629193, -0.27393976, 0.82282186, 2.7296708, 4.5896516, 0.9230871, 0
1473, 2079586712, -0.49123895, -0.06273221, -0.2765148, 0.82358235, -1.6851737, -0.75949407, -2.3607926, 0
1474, 2079603379, -0.4899888, -0.062256493, -0.2772006, 0.82413256, -0.0015121769, 0.648108, 0.75595856, 0
1475, 2079620046, -0.48865712, -0.0617396, -0.27841252, 0.82455343, 0.72016925, 0.46216887, 0.7254944, 0
1477, 2079653380, -0.48726547, -0.060804244, -0.2793703, 0.82512236, 2.264846, 0.7754545, -0.09417629, 0
1479, 2079686714, -0.4871097, -0.059376355, -0.27923074, 0.8253655, 1.5381249, -0.4553104, -1.2396631, 0
1482, 2079736715, -0.49102974, -0.059285678, -0.27849084, 0.82329655, 1.917287, -0.6169448, -0.28096962, 0
1483, 2079753382, -0.49280542, -0.05896875, -0.27845505, 0.8222699, 0.6409054, -2.3170073, -2.2757387, 0
1485, 2079786716, -0.4968831, -0.05730614, -0.27761996, 0.82021326, -0.43109906, -2.732011, -0.11552334, 0
1486, 2079803383, -0.4990062, -0.056186475, -0.27765462, 0.8189891, -0.70089406, -1.567505, -0.7376528, 0
1487, 2079820050, -0.5011023, -0.055222955, -0.27739233, 0.8178629, -0.092376895, -1.1795875, 0.621665, 0
1489, 2079853384, -0.5060822, -0.0536857, -0.27603894, 0.81535316, -0.37739873, -0.9859325, -0.90133667, 0
1490, 2079870051, -0.5085636, -0.05295314, -0.27485988, 0.8142546, -0.4349694, -0.9524448, 0.038841248, 0
1492, 2079903385, -0.5131367, -0.051287033, -0.27149194, 0.81262046, -1.65071, -1.4014086, -0.84216785, 0
1493, 2079920052, -0.51514435, -0.050638344, -0.26985392, 0.8119363, -0.0107334275, 0.10889372, 1.3836441, 0
1494, 2079936719, -0.5170246, -0.04957691, -0.2677623, 0.811499, -1.505277, -0.86793995, 1.2287426, 0
1497, 2079986720, -0.5201762, -0.04962264, -0.26401177, 0.8107104, -1.1693028, -0.49155998, 0.36304188, 0
1498, 2080003387, -0.5209933, -0.049599003, -0.26274475, 0.81059897, -0.7262204, 0.6146757, -0.4120903, 0
1500, 2080036721, -0.5212698, -0.050316133, -0.26161698, 0.8107417, -0.30417776, 0.40601972, 0.24651527, 0
1501, 2080053388, -0.5209802, -0.051707827, -0.2614396, 0.81089765, 1.2805939, 0.3774178, -0.6016264, 0
1502, 2080070055, -0.5208797, -0.052995678, -0.2606196, 0.811143, -0.22215858, -0.1972858, -0.16484642, 0
1504, 2080103389, -0.5200364, -0.054978985, -0.2594244, 0.8119346, -2.896801, -0.48758155, -0.66719437, 0
1505, 2080120056, -0.5193522, -0.05600117, -0.258841, 0.8124888, -1.7301394, -2.126453, 0.5613556, 0
1506, 2080136723, -0.51924556, -0.057698365, -0.2578317, 0.812759, -1.8874185, -3.676418, -0.28600883, 0
1509, 2080186724, -0.51965725, -0.06791714, -0.25841478, 0.8115202, -4.5415053, -4.0142198, -0.112273216, 0
1512, 2080236725, -0.51763266, -0.07451858, -0.26501316, 0.8101055, -4.8386364, -4.7155423, 1.7422247, 0
1513, 2080253392, -0.5179916, -0.07958585, -0.27026206, 0.8076564, -5.380252, -3.8863673, 0.40690804, 0
1514, 2080270059, -0.51854575, -0.084883094, -0.27462873, 0.8052849, -5.922877, -3.3227408, 3.2172422, 0
1516, 2080303393, -0.5151698, -0.105022006, -0.289672, 0.7997875, -5.813361, -6.530458, -1.2457409, 0
1517, 2080320060, -0.5126618, -0.11514348, -0.2997757, 0.79627514, -4.709578, -0.7921309, 3.7397566, 0
1518, 2080336727, -0.5077601, -0.121584885, -0.30983242, 0.7946069, -2.3739252, -2.5066035, -1.3934975, 0
1520, 2080370061, -0.49498966, -0.12755138, -0.31957716, 0.79786336, -0.6352697, -0.5423749, -6.3934574, 0
1521, 2080386728, -0.48810333, -0.12241187, -0.31910104, 0.80308425, -2.1069658, 3.1794248, 0.13752651, 0
1523, 2080420062, -0.47504905, -0.09172849, -0.31160054, 0.81781346, -1.8709778, 3.818279, 0.43080997, 0
1527, 2080486730, -0.45732042, -0.06174536, -0.30245912, 0.8340045, 7.5267825, 0.99641126, -4.2252574, 0
1528, 2080503397, -0.45520866, -0.061055604, -0.30376545, 0.8347355, 10.179252, 5.766499, -1.9090595, 0
1529, 2080520064, -0.45348337, -0.058821432, -0.303466, 0.8359431, 1.5114789, 4.3435917, -1.0328293, 0
1531, 2080553398, -0.4547243, -0.05839425, -0.30310592, 0.83542925, 9.437902, 5.076817, 0.32055283, 0
1532, 2080570065, -0.45691183, -0.058047578, -0.30158645, 0.83480984, 11.109899, 4.4737835, 0.8422041, 0
1533, 2080586732, -0.45876944, -0.05723744, -0.30058652, 0.8342073, 5.2191043, -0.51454633, -2.9339728, 0
1535, 2080620066, -0.46275607, -0.055516884, -0.29979497, 0.8324045, 3.9249108, 2.3561797, -0.5280514, 0
1536, 2080636733, -0.4644206, -0.054457426, -0.30045113, 0.83131015, 3.582927, 2.6221972, 1.5714493, 0
1537, 2080653400, -0.46498626, -0.052596506, -0.30233812, 0.8304292, 2.7848861, 1.8018991, 0.7386656, 0
1539, 2080686734, -0.46493447, -0.048545137, -0.30759367, 0.82877314, 0.7423184, 0.49723485, -2.1880064, 0
1543, 2080753402, -0.46691364, -0.025190625, -0.3184535, 0.82458717, 3.9040709, -1.9103024, 0.25903893, 0
1544, 2080770069, -0.47029898, -0.015334394, -0.31875402, 0.82278764, 4.1049905, -1.878001, 2.4461813, 0
1546, 2080803403, -0.48369315, 0.0056794677, -0.31825668, 0.8153043, 3.9071076, -0.7769688, -0.18430996, 0
1547, 2080820070, -0.4956618, 0.015421305, -0.31619066, 0.8087673, 3.5141237, -2.2343433, -1.9213386, 0
1548, 2080836737, -0.51475745, 0.024839193, -0.3123249, 0.7980355, 6.2081237, -3.3752372, -3.4322944, 0
1550, 2080870071, -0.5672225, 0.042783, -0.30280104, 0.76468253, -3.0563781, 4.037013, -2.178237, 0
1551, 2080886738, -0.58609426, 0.047644578, -0.30009413, 0.7511104, -8.681797, 5.4014397, -3.9550686, 0
1552, 2080903405, -0.5939363, 0.047446836, -0.30025667, 0.7448715, -11.629111, 4.9049034, -3.4575639, 0
1554, 2080936739, -0.5962831, 0.03367825, -0.30640626, 0.7412334, -0.6185323, 2.6450999, -2.3055267, 0
1556, 2080970073, -0.5960178, 0.016704679, -0.312832, 0.73933715, 5.441944, 2.7762458, 3.368309, 0
1559, 2081020074, -0.58837795, 0.013125157, -0.3740524, 0.7167448, 5.809562, -3.3214047, -1.9507732, 0
1560, 2081036741, -0.5670798, 0.01653723, -0.42397296, 0.70597, -4.553499, 0.41812015, 1.2831631, 0
1562, 2081070075, -0.5228919, -0.023735723, -0.51359314, 0.67988414, -19.640902, -10.177999, 8.403276, 0
1563, 2081086742, -0.5032703, -0.080337934, -0.51997286, 0.6854871, -7.841648, -16.227415, 2.2692537, 0
1564, 2081103409, -0.47836125, -0.13231197, -0.5176034, 0.69695795, -3.2842147, -16.041328, 5.410534, 0
1566, 2081136743, -0.48248616, -0.1990715, -0.46806797, 0.71308446, 9.493884, -27.334017, 4.1470757, 0
1567, 2081153410, -0.5115499, -0.19875726, -0.4295781, 0.7171292, -6.8941035, -6.6622667, 1.9992056, 0
1568, 2081170077, -0.5401875, -0.2051896, -0.37803802, 0.7233126, -12.067345, 8.7428, -2.093377, 0
1571, 2081220078, -0.5230391, -0.19523428, -0.2881814, 0.7779876, -0.35723943, 29.727743, -7.826872, 0
1573, 2081253412, -0.44055927, -0.2020467, -0.28345424, 0.82748896, 32.10814, 14.022131, -8.093419, 0
1574, 2081270079, -0.42622527, -0.21233746, -0.27985936, 0.8336204, 31.208849, 11.936964, -7.0451136, 0
1575, 2081286746, -0.4364771, -0.22594905, -0.26626793, 0.8291778, 28.333645, 14.123272, -4.0518, 0
1577, 2081320080, -0.47872764, -0.26314688, -0.26231888, 0.79546344, 4.3897853, 32.28533, -16.4667, 0
1578, 2081336747, -0.47490022, -0.2908808, -0.28755528, 0.77921087, 31.50081, 20.536373, 3.7149286, 0
1579, 2081353414, -0.46738964, -0.2896111, -0.3038066, 0.7780575, 23.972343, 19.6071, 27.37957, 0
1581, 2081386748, -0.4466359, -0.26302224, -0.32182562, 0.7923153, -5.344078, 2.4695919, 1.510149, 0
1582, 2081403415, -0.4519442, -0.25418338, -0.32428733, 0.7911855, -6.1544113, 0.47456735, 0.4682293, 0
1583, 2081420082, -0.45887423, -0.25798792, -0.32869956, 0.7841129, -3.7135475, -2.8536334, 0.72679615, 0
1586, 2081470083, -0.45341218, -0.36482757, -0.3671444, 0.7256189, -7.6745605, -3.9417355, 2.2992973, 0
1589, 2081520084, -0.44898513, -0.56736606, -0.43265235, 0.5378845, -23.49583, -20.272007, 29.85468, 0
1590, 2081536751, -0.46333742, -0.6030522, -0.46936795, 0.448709, -31.151169, -10.986116, 32.347168, 0
1591, 2081553418, -0.45383766, -0.62205154, -0.4855118, 0.41395813, -64.48569, 3.4727833, 32.396008, 0
1594, 2081603419, -0.3884224, -0.6689455, -0.5221975, 0.359095, -23.750525, -22.523478, 6.463091, 0
1595, 2081620086, -0.38704216, -0.6765197, -0.5275392, 0.3379666, -16.748148, -20.458467, -3.9629579, 0
1597, 2081653420, -0.3991951, -0.68919855, -0.5219687, 0.3052818, -14.595721, -17.544498, -10.262427, 0
1598, 2081670087, -0.41075978, -0.69384474, -0.5105045, 0.29873195, -11.243047, -12.835115, -12.753696, 0
1601, 2081720088, -0.4556347, -0.7031635, -0.46211553, 0.2905286, -10.589475, -5.117976, -15.503042, 0
1602, 2081736755, -0.4642301, -0.7033861, -0.44682628, 0.3001405, -9.180473, -1.7076627, -16.685442, 0
1604, 2081770089, -0.4664973, -0.69824004, -0.4278746, 0.33431125, -7.284543, -2.9647365, -14.676611, 0
1606, 2081803423, -0.4613417, -0.67314124, -0.43142584, 0.38459867, -4.5560274, -5.5318866, -12.949576, 0
1608, 2081836757, -0.4560324, -0.62839055, -0.44593126, 0.4453142, 0.023147896, -7.794138, -10.968469, 0
1609, 2081853424, -0.4573672, -0.6015589, -0.45163617, 0.4743062, 0.36216542, -9.12012, -9.428522, 0
1610, 2081870091, -0.4628759, -0.57163334, -0.45274344, 0.50398815, -3.338977, -11.786024, -5.0084467, 0
1612, 2081903425, -0.4849561, -0.49667084, -0.44095147, 0.5689436, -0.4774049, -9.631572, -1.488369, 0
1613, 2081920092, -0.50153506, -0.45313662, -0.4309919, 0.5978086, -1.8157133, -7.5199666, 3.2462502, 0
1616, 2081970093, -0.5291903, -0.31923106, -0.39971152, 0.6769635, -0.14064777, 5.674567, 13.703426, 0
1617, 2081986760, -0.52044463, -0.27492565, -0.39528725, 0.70519567, 1.8749554, 7.8131466, 15.215584, 0
1618, 2082003427, -0.5028965, -0.23345104, -0.3897502, 0.7353163, 6.706866, 8.0403185, 12.325783, 0
1620, 2082036761, -0.46060488, -0.16221121, -0.37681052, 0.787111, 13.515485, 10.726338, 8.115231, 0
1622, 2082070095, -0.4274127, -0.11292423, -0.34843674, 0.8265337, 14.320419, 7.8859777, 2.599536, 0
1624, 2082103429, -0.41287756, -0.0817784, -0.31448466, 0.85084856, 13.370834, 12.021152, -1.2602549, 0
1625, 2082120096, -0.40673843, -0.07188788, -0.30320457, 0.8587565, 14.314385, 11.979895, -3.7201457, 0
1627, 2082153430, -0.39255008, -0.061458252, -0.29713225, 0.86823916, 15.633632, 12.940887, -5.1656013, 0
1628, 2082170097, -0.3874228, -0.061495125, -0.29593152, 0.87094533, 17.300785, 11.949167, -5.449979, 0
1631, 2082220098, -0.38667822, -0.08997745, -0.29484296, 0.8691669, 20.531017, 15.329942, -4.9233212, 0
1632, 2082236765, -0.39097655, -0.10862866, -0.29002687, 0.8667302, 21.65815, 12.1305895, -4.456815, 0
1633, 2082253432, -0.40259337, -0.13335325, -0.28043318, 0.8610995, 21.33748, 7.7365255, -5.674564, 0
1635, 2082286766, -0.426008, -0.193533, -0.28214183, 0.8375307, 14.701262, 14.644769, -10.570265, 0
1636, 2082303433, -0.42277262, -0.21390665, -0.3031893, 0.8267909, 36.150932, 6.9147034, 43.797264, 0
1639, 2082353434, -0.40821087, -0.21340623, -0.3109271, 0.8313517, -1.7246845, 3.187554, 0.57987976, 0
1640, 2082370101, -0.41819012, -0.21730717, -0.31405303, 0.8241751, -0.21654728, -2.5017617, 0.60427856, 0
1641, 2082386768, -0.42228335, -0.22954795, -0.32262552, 0.8154121, 0.5711137, -5.6460447, 0.38162422, 0
1643, 2082420102, -0.4238335, -0.26879653, -0.3463718, 0.7925527, -2.033992, 1.183192, 0.31906033, 0
1645, 2082453436, -0.42809486, -0.32826847, -0.3703599, 0.75617975, -2.5300224, -2.0954952, 0.35238457, 0
1647, 2082486770, -0.42569014, -0.43373197, -0.38922572, 0.6922192, -4.201832, -3.8143246, 4.707367, 0
1648, 2082503437, -0.42308784, -0.50233847, -0.4051391, 0.6360147, -11.788471, -8.7638855, 9.752314, 0
1649, 2082520104, -0.42548484, -0.56095004, -0.44227496, 0.5555989, -24.738947, -19.12739, 25.230976, 0
1651, 2082553438, -0.44251132, -0.62834984, -0.5002751, 0.39885396, -45.839344, -7.1291995, 35.60861, 0
1652, 2082570105, -0.41974345, -0.64064574, -0.5049567, 0.39800346, -44.20531, -21.558285, 14.179724, 0
1654, 2082603439, -0.4179026, -0.6688877, -0.49246618, 0.3679992, -0.9028077, -12.097116, -7.355287, 0
1655, 2082620106, -0.4292567, -0.683949, -0.47928265, 0.34386072, -30.303343, -11.986279, -8.684527, 0
1656, 2082636773, -0.43067864, -0.69878185, -0.45888153, 0.34006926, -22.059774, -12.902253, -10.533763, 0
1658, 2082670107, -0.43973568, -0.71492046, -0.4274547, 0.33586204, -13.9426365, -9.662638, -9.661709, 0
1660, 2082703441, -0.4535972, -0.71404094, -0.40643838, 0.3452573, -12.388898, -7.7062144, -9.9980755, 0
1662, 2082736775, -0.4712535, -0.69877493, -0.39572376, 0.36474127, -9.749978, -5.824755, -10.0135765, 0
1663, 2082753442, -0.48257998, -0.68592113, -0.39189515, 0.37821493, -10.115905, -5.6231422, -8.945702, 0
1664, 2082770109, -0.49417663, -0.6712732, -0.3857047, 0.3954913, -8.747221, -3.4097137, -8.67022, 0
1666, 2082803443, -0.5158653, -0.6403482, -0.36693105, 0.4349694, -8.300646, -1.7397587, -5.9944925, 0
1668, 2082836777, -0.53366107, -0.59560347, -0.35714024, 0.48261034, -4.441556, 1.6597317, -6.2686367, 0
1670, 2082870111, -0.54065764, -0.5359425, -0.37472045, 0.5291874, -1.6592276, -0.8592954, -1.4859428, 0
1671, 2082886778, -0.53781235, -0.5036599, -0.38938367, 0.5526886, 0.33784184, 0.059534688, -0.7088585, 0
1672, 2082903445, -0.5295033, -0.47475123, -0.40405357, 0.5753067, 1.9161032, -0.9614052, 1.4721928, 0
1675, 2082953446, -0.4952111, -0.39382416, -0.429148, 0.644593, 4.8983593, -4.5432734, 5.9565706, 0
1676, 2082970113, -0.48818114, -0.3680421, -0.4261327, 0.6668092, 4.406005, -3.7267277, 5.462614, 0
1678, 2083003447, -0.48262778, -0.31663588, -0.40730193, 0.7077549, 1.3067392, -0.10608618, 3.6515913, 0
1679, 2083020114, -0.480366, -0.2914133, -0.39496982, 0.7268598, -0.5171989, 1.9726652, 3.1461325, 0
1680, 2083036781, -0.47526723, -0.26604918, -0.38471082, 0.7452089, -0.46843946, 3.030034, 2.9752884, 0
1682, 2083070115, -0.45649415, -0.21535857, -0.37031218, 0.7798091, 0.8048798, 3.1720083, 4.0656805, 0
1685, 2083120116, -0.41717204, -0.13440447, -0.35632148, 0.82518935, 4.328977, 4.1849995, 4.3604, 0
1686, 2083136783, -0.40401953, -0.10827359, -0.35101756, 0.8377538, 7.189129, 3.7713761, 4.8137264, 0
1687, 2083153450, -0.392189, -0.08156396, -0.3460547, 0.848399, 9.230508, 5.355913, 3.3100882, 0
1690, 2083203451, -0.36854595, -0.014380682, -0.332145, 0.8681281, 14.5760145, 6.8937564, -2.8043313, 0
1691, 2083220118, -0.36516675, 0.003076381, -0.3309261, 0.87013286, 15.489314, 6.7580137, -4.296725, 0
1693, 2083253452, -0.3682512, 0.025714101, -0.32425514, 0.8709696, 16.84337, 10.444189, -7.542001, 0
1694, 2083270119, -0.37347886, 0.029083293, -0.317823, 0.8710086, 18.319265, 10.621738, -7.898743, 0
1695, 2083286786, -0.3785604, 0.028169215, -0.31275126, 0.87068075, 17.679903, 10.067296, -8.946295, 0
1697, 2083320120, -0.3903629, 0.010061918, -0.30278012, 0.86939037, 17.787136, 8.577371, -8.139625, 0
1698, 2083336787, -0.40137738, -0.009061953, -0.29278445, 0.8678082, 17.913029, 7.850028, -9.103794, 0
1701, 2083386788, -0.44099784, -0.101009965, -0.26382238, 0.8518893, 20.201223, 16.45616, -7.849204, 0
1702, 2083403455, -0.4486938, -0.14536598, -0.2587045, 0.8429795, 21.64436, 21.961304, -7.0042934, 0
1705, 2083453456, -0.4349982, -0.17203636, -0.29727027, 0.8323521, -26.07397, 11.040634, -2.5107503, 0
1706, 2083470123, -0.43737346, -0.17490831, -0.2979932, 0.8302478, -0.4250688, 1.9513611, 6.8533688, 0
1708, 2083503457, -0.44711387, -0.1970498, -0.3049073, 0.81749105, -0.3522865, -1.620708, -0.102565765, 0
1709, 2083520124, -0.4531035, -0.2146395, -0.30948892, 0.80798715, 0.42402834, 0.017023306, -0.5754204, 0
1710, 2083536791, -0.45806414, -0.23103373, -0.31468344, 0.7986079, 1.9488338, -0.2784512, 0.7998028, 0
1712, 2083570125, -0.4591152, -0.27053654, -0.3348256, 0.7771197, -2.3314426, -0.8698904, 0.8875246, 0
1713, 2083586792, -0.4590511, -0.30187714, -0.34835446, 0.75946766, -3.9860396, -0.9381714, 0.7967005, 0
1714, 2083603459, -0.45999825, -0.34615177, -0.3604479, 0.733933, -4.627382, -3.5432863, 2.0929718, 0
1717, 2083653460, -0.45817894, -0.544885, -0.42448896, 0.55944735, -21.257858, -15.288896, 27.725918, 0
1720, 2083703461, -0.41673726, -0.6687589, -0.45891905, 0.41046867, -66.2853, -17.422012, 19.275616, 0
1721, 2083720128, -0.3734505, -0.68733776, -0.4654992, 0.41401926, -1.6644822, -8.022075, -5.5357423, 0
1722, 2083736795, -0.35781154, -0.6951151, -0.49396816, 0.38050136, -16.12806, -20.463076, -2.5736723, 0
1724, 2083770129, -0.3192221, -0.7011726, -0.5316267, 0.35189044, -23.020082, -27.263481, -18.723562, 0
1725, 2083786796, -0.3063601, -0.6977706, -0.54086155, 0.35598916, -13.082261, -29.207396, -24.226362, 0
1726, 2083803463, -0.31443286, -0.68380356, -0.54751843, 0.36574295, -8.817546, -23.633595, -23.642004, 0
1728, 2083836797, -0.34400696, -0.65545034, -0.5239959, 0.42127433, -12.315327, -8.023119, -15.313108, 0
1729, 2083853464, -0.3558901, -0.63887554, -0.49998024, 0.4638963, -12.811918, -7.7960167, -11.141858, 0
1730, 2083870131, -0.367636, -0.61431354, -0.4759311, 0.51083463, -11.688627, -2.3618512, -7.8563814, 0
1732, 2083903465, -0.37658972, -0.5552023, -0.44045028, 0.59660167, -8.899734, 5.1178646, -5.0901246, 0
1735, 2083953466, -0.35113057, -0.437706, -0.43274748, 0.70558506, 2.2979193, 5.061966, 6.5220127, 0
1736, 2083970133, -0.34492055, -0.39507788, -0.4286372, 0.735672, 8.089067, 11.511911, 8.621616, 0
1737, 2083986800, -0.33907938, -0.35611627, -0.42350045, 0.76082414, 14.032509, 13.882978, 7.9772167, 0
1739, 2084020134, -0.330406, -0.29285812, -0.41638246, 0.79479, 19.505291, 16.445862, 5.179265, 0
1740, 2084036801, -0.32678708, -0.26905844, -0.41970855, 0.8029085, 23.223015, 13.970029, 2.2686539, 0
1741, 2084053468, -0.3245607, -0.24843006, -0.4310972, 0.80442405, 25.559603, 11.956209, 1.5284348, 0
1743, 2084086802, -0.33120984, -0.22799316, -0.45187396, 0.79632217, 29.946316, 6.9175825, -3.740203, 0
1744, 2084103469, -0.36555582, -0.23242286, -0.4463636, 0.78301203, 51.19341, -17.40063, -1.5324316, 0
1747, 2084153470, -0.4283721, -0.250403, -0.43156052, 0.75335974, -1.566237, 3.5618875, -14.333078, 0
1749, 2084186804, -0.4345008, -0.27719712, -0.42812565, 0.7423468, -3.736699, -8.911189, 1.1295748, 0
1751, 2084220138, -0.44397116, -0.24692258, -0.4243019, 0.7495909, -17.844334, -7.6952972, 14.231535, 0
1752, 2084236805, -0.44436416, -0.22084504, -0.41261497, 0.7638825, -5.6725907, 0.46348116, 2.7982826, 0
1753, 2084253472, -0.45086342, -0.18899758, -0.39990768, 0.7752905, 3.718092, -2.0697305, 0.2607956, 0
1755, 2084286806, -0.4704649, -0.17569813, -0.36580607, 0.78356785, 4.03628, -5.0088663, 5.4241343, 0
1756, 2084303473, -0.4746847, -0.17202252, -0.3608224, 0.784149, 5.900686, -4.497629, 4.981099, 0
1757, 2084320140, -0.47729877, -0.16930072, -0.3571135, 0.784852, 5.363819, -4.020205, -2.5727234, 0
1759, 2084353474, -0.47887522, -0.15467526, -0.35285947, 0.7888244, -1.7644898, 0.9111963, -2.8459296, 0
1760, 2084370141, -0.4803837, -0.14669688, -0.34922013, 0.79104775, -3.2590177, -1.1493423, -6.011133, 0
1764, 2084436809, -0.48536465, -0.09729103, -0.32772213, 0.80470705, 7.618666, 0.2049872, 16.053413, 0
1766, 2084470143, -0.49155778, -0.099168226, -0.3195447, 0.80400723, 8.561559, -2.3022954, 0.38830376, 0
1767, 2084486810, -0.49443227, -0.098456405, -0.31393343, 0.8045424, -2.235657, -2.9282503, -1.2340488, 0
1768, 2084503477, -0.49608177, -0.098099, -0.3101303, 0.80504555, -1.9853799, 4.096986, 0.8188124, 0
1770, 2084536811, -0.50107956, -0.0978748, -0.29842696, 0.8063999, 0.66621995, 2.0997107, 2.6654787, 0
1771, 2084553478, -0.5028069, -0.09936093, -0.2913491, 0.80773014, 0.018320799, -0.31962073, 2.4373932, 0
1772, 2084570145, -0.49456543, -0.10281671, -0.2856678, 0.81438774, -12.011278, 6.049551, 1.3612404, 0
1774, 2084603479, -0.42832556, -0.10933655, -0.3044943, 0.8437213, -4.1456623, 4.116044, 1.4966135, 0
1775, 2084620146, -0.39255443, -0.10902691, -0.31994742, 0.8553641, 7.808803, -12.753677, -3.3667235, 0
1776, 2084636813, -0.37312716, -0.10635513, -0.3268594, 0.8617582, -0.5816252, -19.64674, -10.731643, 0
1780, 2084703481, -0.41000044, -0.1010637, -0.28414625, 0.8607824, -2.081546, 0.9194488, 3.765688, 0
1782, 2084736815, -0.41387567, -0.10924337, -0.2715322, 0.8619993, 3.5268211, 3.160074, 1.6769924, 0
1783, 2084753482, -0.4118534, -0.10284319, -0.2646171, 0.86589694, -6.946509, -2.6882925, -3.3847284, 0
1784, 2084770149, -0.4127096, -0.100428544, -0.25865632, 0.8675722, 1.5814022, 0.44310147, 0.5771456, 0
1786, 2084803483, -0.41174108, -0.098843075, -0.2524779, 0.87003094, 4.04195, 0.86107445, 3.64775, 0
1787, 2084820150, -0.41187608, -0.099881046, -0.25002024, 0.87055814, 4.7147894, 4.49194, 1.0850143, 0
1789, 2084853484, -0.41338682, -0.100168705, -0.24417464, 0.8714677, 1.2917527, 1.5042588, -2.180357, 0
1790, 2084870151, -0.41452873, -0.09990002, -0.24019282, 0.87206256, 1.975163, 2.2725112, 1.6293659, 0
1791, 2084886818, -0.41557518, -0.1009701, -0.23736319, 0.87221587, 5.241311, 4.3524694, 1.3422241, 0
1794, 2084936819, -0.4182587, -0.10356922, -0.22653352, 0.87350744, 0.26864642, 1.2579073, -0.17989922, 0
1797, 2084986820, -0.41263056, -0.10777884, -0.22498685, 0.8760709, 1.6699642, 4.701557, -0.09768963, 0
1798, 2085003487, -0.40976447, -0.10842757, -0.22537082, 0.8772368, -0.60619175, 2.98371, -0.36351013, 0
1799, 2085020154, -0.40624553, -0.10849935, -0.22546986, 0.8788375, -1.0219984, 2.6553974, -1.703619, 0
1801, 2085053488, -0.39720017, -0.10933584, -0.22515668, 0.88293934, -0.22104426, 2.4318755, 1.4286757, 0
