sep=,
DeviceTag:,Xsens_DOT_3,,,,,,,,,,,,,,,,,
FirmwareVersion:,3.0.0,,,,,,,,,,,,,,,,,
AppVersion:,2023.6.1,,,,,,,,,,,,,,,,,
SyncStatus:,Synced,,,,,,,,,,,,,,,,,
OutputRate:,60Hz,,,,,,,,,,,,,,,,,
FilterProfile:,General,,,,,,,,,,,,,,,,,
Measurement Mode:,Sensor fusion Mode - Extended (Quaternion),,,,,,,,,,,,,,,,,
StartTime:,2025-05-05 11:41:02.035 +0200,,,,,,,,,,,,,,,,,
 2025,,,,,,,,,,,,,,,,,,,

PacketCounter,SampleTimeFine,Quat_W,Quat_X,Quat_Y,Quat_Z,FreeAcc_X,FreeAcc_Y,FreeAcc_Z,Status
1, 2055052888, -0.6249503, -0.09657638, 0.75917673, -0.15415469, 0.12647079, 0.07426679, 0.08934116, 0
2, 2055069555, -0.6248862, -0.09679424, 0.75916475, -0.15433657, 0.13235007, 0.06522245, 0.03831768, 0
3, 2055086222, -0.6247959, -0.09700611, 0.7591832, -0.15447849, 0.15938753, 0.10643997, 0.021800041, 0
4, 2055102889, -0.6247782, -0.09698336, 0.75920725, -0.15444632, 0.1514649, 0.1594105, 0.017803192, 0
5, 2055119556, -0.6247356, -0.09704268, 0.75921315, -0.15455201, 0.1683437, 0.15138602, 0.014535904, 0
6, 2055136223, -0.62469244, -0.09703401, 0.75922847, -0.15465675, 0.14525615, 0.14823502, 0.015823364, 0
7, 2055152890, -0.62464637, -0.096985266, 0.75925297, -0.15475261, 0.16091144, 0.13846508, -0.002456665, 0
8, 2055169557, -0.6246139, -0.09687353, 0.75929505, -0.15474744, 0.13612074, 0.08910623, 0.004098892, 0
9, 2055186224, -0.6245736, -0.09673038, 0.75936, -0.15468091, 0.12660712, 0.07339274, 0.044626236, 0
10, 2055202891, -0.6244952, -0.09675525, 0.759408, -0.1547462, 0.13065471, 0.03135137, 0.078038216, 0
11, 2055219558, -0.6243995, -0.09661714, 0.7595093, -0.1547217, 0.13326378, 0.052832987, 0.1039629, 0
12, 2055236225, -0.6242539, -0.09648177, 0.75964123, -0.15474616, 0.16323687, 0.11993308, 0.10042381, 0
13, 2055252892, -0.6241489, -0.09631212, 0.7597501, -0.15474066, 0.171725, 0.130429, 0.04355526, 0
14, 2055269559, -0.6240283, -0.0961776, 0.7598631, -0.1547566, 0.1656079, 0.12725824, 0.046369553, 0
15, 2055286226, -0.6238918, -0.0961598, 0.7599594, -0.15484488, 0.13174836, 0.13229416, 0.013323784, 0
16, 2055302893, -0.6238132, -0.0958037, 0.7601061, -0.15466179, 0.16975318, 0.13007756, 0.011454582, 0
17, 2055319560, -0.6236944, -0.095723, 0.76020014, -0.15472843, 0.16031243, 0.14289229, 0.031697273, 0
18, 2055336227, -0.6235978, -0.09567553, 0.7602774, -0.15476754, 0.19869274, 0.18212895, 0.047239304, 0
19, 2055352894, -0.6234949, -0.0956731, 0.7603579, -0.1547882, 0.17168209, 0.15702224, 0.029597282, 0
20, 2055369561, -0.62340784, -0.09565613, 0.7604422, -0.15473524, 0.17794582, 0.1713923, 0.036989212, 0
21, 2055386228, -0.6233338, -0.09561898, 0.7605227, -0.15466067, 0.1682771, 0.15800153, 0.05764389, 0
22, 2055402895, -0.62325484, -0.095609576, 0.7605981, -0.1546143, 0.18584476, 0.107748024, 0.053800583, 0
23, 2055419562, -0.6232357, -0.0952811, 0.76071906, -0.15429887, 0.19965877, 0.08630014, 0.06579399, 0
24, 2055436229, -0.623169, -0.09525888, 0.7607889, -0.1542375, 0.1432566, 0.1153057, 0.089879036, 0
25, 2055452896, -0.6230852, -0.09523772, 0.7608769, -0.15415563, 0.13414085, 0.08385846, 0.11012077, 0
26, 2055469563, -0.623011, -0.09534539, 0.760916, -0.15419556, 0.14629655, 0.05104319, 0.05326271, 0
27, 2055486230, -0.6229065, -0.09543865, 0.76098967, -0.15419671, 0.11220708, 0.044662304, 0.04699135, 0
28, 2055502897, -0.6228459, -0.09550674, 0.7610291, -0.15420459, 0.14536567, 0.06815936, 0.043307304, 0
29, 2055519564, -0.6228442, -0.09554039, 0.76101935, -0.15423866, 0.2093257, 0.08961447, 0.09220219, 0
30, 2055536231, -0.6228048, -0.09555779, 0.7610465, -0.15425298, 0.18007769, 0.073422834, 0.018850327, 0
31, 2055552898, -0.622791, -0.09548494, 0.7610842, -0.15416801, 0.12851459, 0.13313684, 0.05446911, 0
32, 2055569565, -0.6227779, -0.095573686, 0.7610699, -0.15423602, 0.14215738, 0.16212906, 0.04982376, 0
33, 2055586232, -0.6227518, -0.09560165, 0.76108223, -0.15426293, 0.07881916, 0.15269823, 0.026568413, 0
34, 2055602899, -0.622714, -0.09554246, 0.76112705, -0.1542315, 0.086807065, 0.14645684, -0.00385952, 0
35, 2055619566, -0.62268364, -0.09555158, 0.76115084, -0.1542312, 0.08247986, 0.12524459, 0.013949394, 0
36, 2055636233, -0.6227026, -0.09548659, 0.76116276, -0.15413627, 0.11133002, 0.11032217, 0.04668808, 0
37, 2055652900, -0.6227949, -0.09530995, 0.7611393, -0.15398891, 0.13224502, 0.080458574, 0.048502922, 0
38, 2055669567, -0.6228671, -0.09528011, 0.7610832, -0.15399209, 0.17504774, 0.056783997, 0.070916176, 0
39, 2055686234, -0.62294513, -0.09504916, 0.7610811, -0.1538295, 0.18097755, 0.058537036, 0.046278954, 0
40, 2055702901, -0.6230186, -0.09485935, 0.76107335, -0.15368676, 0.17160743, 0.05053536, 0.014809608, 0
41, 2055719568, -0.62307423, -0.09478293, 0.76105684, -0.15359041, 0.08199662, 0.0267728, -0.0053281784, 0
42, 2055736235, -0.6231078, -0.094682276, 0.7610625, -0.15348768, 0.038919862, 0.019645866, 0.016776085, 0
43, 2055752902, -0.62312514, -0.0946098, 0.7610712, -0.15341915, 0.11829831, 0.05600013, 0.04718685, 0
44, 2055769569, -0.62316394, -0.094572425, 0.76104957, -0.15339279, 0.122890554, 0.040255744, 0.032117844, 0
46, 2055802903, -0.62324476, -0.09466822, 0.7609615, -0.15344177, 0.15538353, 0.03981724, 0.09177971, 0
47, 2055819570, -0.62331706, -0.09477568, 0.76088065, -0.15348306, 0.1530429, 0.06637458, 0.042141914, 0
48, 2055836237, -0.62342143, -0.094929285, 0.7607578, -0.15357302, 0.20105885, 0.12317849, 0.039740562, 0
50, 2055869571, -0.62359786, -0.09518616, 0.7605433, -0.15375975, 0.14538981, 0.107976735, -0.008272171, 0
51, 2055886238, -0.6236615, -0.095144734, 0.76050115, -0.15373552, 0.14713188, 0.110168085, -0.010363579, 0
55, 2055952906, -0.62398493, -0.09518228, 0.76019377, -0.15392001, 0.15297808, 0.10224301, 0.11920643, 0
56, 2055969573, -0.62403524, -0.095139325, 0.76014274, -0.15399426, 0.14171705, 0.16341357, 0.04511261, 0
58, 2056002907, -0.62409276, -0.09491325, 0.7601122, -0.15405181, 0.123984426, 0.16051078, -0.03472805, 0
59, 2056019574, -0.6241347, -0.0947486, 0.76010495, -0.15401918, 0.094765596, 0.18674889, 0.0021629333, 0
60, 2056036241, -0.6241739, -0.09447394, 0.7601353, -0.15387876, 0.06696851, 0.19669548, 0.08286953, 0
62, 2056069575, -0.6240607, -0.093880504, 0.7603732, -0.15352643, 0.06204496, 0.17784573, 0.034524918, 0
63, 2056086242, -0.6240621, -0.09350637, 0.7604597, -0.15331873, 0.08223757, 0.1913287, 0.035342216, 0
64, 2056102909, -0.6241379, -0.093158945, 0.76048535, -0.1530955, 0.06612452, 0.1585299, 0.024894714, 0
67, 2056152910, -0.6247909, -0.09249525, 0.7601178, -0.15265904, 0.24670242, -0.09030206, 0.09815884, 0
70, 2056202911, -0.62762135, -0.09183523, 0.7578418, -0.15276271, 0.31457928, 0.01990802, 0.113176346, 0
73, 2056252912, -0.6294731, -0.090540335, 0.7563533, -0.15329254, 0.18546748, 0.25196537, -0.050658226, 0
75, 2056286246, -0.6294818, -0.08919879, 0.7564364, -0.15363277, -0.002210096, 0.34538308, -0.13278389, 0
77, 2056319580, -0.6289813, -0.08782242, 0.75703454, -0.15352945, -0.06678478, 0.21300368, -0.056225777, 0
78, 2056336247, -0.6286401, -0.08727617, 0.7574195, -0.1533395, -0.07277805, 0.17505378, 0.063715935, 0
79, 2056352914, -0.6284242, -0.086707085, 0.7577064, -0.15313046, -0.0027027186, 0.14332916, 0.12206173, 0
82, 2056402915, -0.62899774, -0.08439278, 0.75769913, -0.15210092, 0.09713784, 0.16412441, 0.23491383, 0
83, 2056419582, -0.62941515, -0.08376245, 0.7575104, -0.15166205, 0.049846966, 0.124224424, 0.15992641, 0
85, 2056452916, -0.63066095, -0.08213575, 0.7568221, -0.1508101, 0.05514735, 0.17706749, 0.058314323, 0
86, 2056469583, -0.63129395, -0.08135916, 0.7564916, -0.1502388, 0.07752904, 0.23942856, -0.024298668, 0
87, 2056486250, -0.6318455, -0.0806196, 0.7562292, -0.14963926, 0.08070785, 0.27967513, -0.066391945, 0
90, 2056536251, -0.6334987, -0.07854342, 0.75558424, -0.14698817, 0.15444298, 0.09750512, 0.08613014, 0
91, 2056552918, -0.63386476, -0.077901214, 0.7555369, -0.14599164, 0.16894674, 0.101150036, 0.07313061, 0
93, 2056586252, -0.6347291, -0.07667099, 0.7552906, -0.14415193, 0.18206695, 0.14496562, 0.070261955, 0
95, 2056619586, -0.6355909, -0.075755134, 0.7549004, -0.14287637, 0.1512463, -0.06011852, 0.06921768, 0
98, 2056669587, -0.6366397, -0.07553058, 0.7542121, -0.14195816, 0.18174599, 0.05463109, 0.056796074, 0
99, 2056686254, -0.6370571, -0.07570438, 0.7538824, -0.14174351, 0.21557198, 0.15378779, 0.058496475, 0
101, 2056719588, -0.6381394, -0.07635021, 0.7529495, -0.14148688, 0.24547891, 0.02217345, 0.009878159, 0
104, 2056769589, -0.63974595, -0.07768509, 0.7513784, -0.14185725, 0.124526665, 0.04129459, -0.03366089, 0
106, 2056802923, -0.6404801, -0.078056835, 0.7506886, -0.14199273, 0.17311391, 0.3144956, -0.00525856, 0
108, 2056836257, -0.6414087, -0.07782916, 0.74997956, -0.14167222, 0.15066516, 0.18564321, 0.15538311, 0
109, 2056852924, -0.6419413, -0.07747021, 0.7496282, -0.14131565, 0.17382722, 0.13470161, 0.25802803, 0
110, 2056869591, -0.64242846, -0.07705957, 0.74934644, -0.14081997, 0.14609611, 0.07499723, 0.2775383, 0
112, 2056902925, -0.64326584, -0.07614166, 0.74898684, -0.139403, 0.04063555, 0.13322844, 0.019054413, 0
113, 2056919592, -0.6436343, -0.07563525, 0.7488753, -0.13857369, -0.059961822, 0.11329927, -0.0049142838, 0
114, 2056936259, -0.6439084, -0.075107485, 0.7488514, -0.1377141, -0.07570473, 0.13750677, -0.101836205, 0
116, 2056969593, -0.6442351, -0.07420929, 0.7489568, -0.13609125, -0.038884997, 0.056632064, 0.031864166, 0
117, 2056986260, -0.64432126, -0.07400566, 0.7490121, -0.13548905, 0.05092966, -0.06109144, 0.019060135, 0
118, 2057002927, -0.64436024, -0.07390888, 0.7490552, -0.13511683, 0.116864644, -0.095700875, -0.14030361, 0
121, 2057052928, -0.64446664, -0.073479384, 0.74915284, -0.13430023, 0.11072474, 0.049294706, 0.07209873, 0
124, 2057102929, -0.64417756, -0.07325572, 0.7496625, -0.13295925, 0.060518816, -0.08581326, 0.06779671, 0
127, 2057152930, -0.6445028, -0.07478656, 0.7492545, -0.13282858, 0.20055325, -0.0795618, -0.04982376, 0
128, 2057169597, -0.64476746, -0.07572679, 0.74884486, -0.13332082, 0.31519037, 0.03606619, 0.013227463, 0
129, 2057186264, -0.6452815, -0.07679991, 0.7481412, -0.13416791, 0.31828022, -0.07920024, 0.1606493, 0
131, 2057219598, -0.64655656, -0.07951446, 0.7463328, -0.13649918, 0.44939828, -0.048740603, 0.16182137, 0
132, 2057236265, -0.64718163, -0.08133859, 0.7453561, -0.1377932, 0.5104839, 0.10721207, 0.08130169, 0
133, 2057252932, -0.64770806, -0.083272226, 0.744428, -0.13917539, 0.5099703, 0.24190229, -0.011338234, 0
135, 2057286266, -0.6483158, -0.08790432, 0.7429094, -0.1415906, 0.26357943, 0.32954383, -0.22685051, 0
137, 2057319600, -0.64822084, -0.09299448, 0.7418996, -0.14404717, 0.17096193, 0.3024104, -0.07600498, 0
139, 2057352934, -0.6477553, -0.09753351, 0.7412315, -0.14655727, 0.15744476, 0.13575053, 0.15490055, 0
141, 2057386268, -0.64739287, -0.10063713, 0.74071246, -0.14866924, 0.08261352, 0.19822648, 0.26051617, 0
143, 2057419602, -0.6469745, -0.10241935, 0.7406174, -0.1497432, 0.043086145, 0.389367, 0.057940483, 0
144, 2057436269, -0.6469214, -0.10259418, 0.7406062, -0.14990811, -0.027765226, 0.56680214, -0.012486458, 0
145, 2057452936, -0.64704293, -0.10230142, 0.7405497, -0.1498624, 0.10221426, 0.5406995, 0.053124428, 0
148, 2057502937, -0.6478431, -0.09983829, 0.7405764, -0.14792225, 0.03005981, 0.17569602, -0.10001373, 0
149, 2057519604, -0.6482418, -0.09881699, 0.74055326, -0.14697474, 0.014484534, 0.21116112, -0.11342621, 0
151, 2057552938, -0.64922905, -0.096364126, 0.7403754, -0.14513087, 0.08532294, 0.1404005, 0.13832664, 0
152, 2057569605, -0.64967114, -0.09513232, 0.7403143, -0.14427435, 0.15256369, 0.05239968, 0.12251568, 0
153, 2057586272, -0.6500011, -0.09396437, 0.7403361, -0.14343876, 0.019392878, 0.038040955, -0.029118538, 0
155, 2057619606, -0.6506272, -0.09187582, 0.74031085, -0.14207676, 0.051312763, -0.06266147, -0.06357765, 0
158, 2057669607, -0.6512333, -0.090819776, 0.7400255, -0.14146385, -0.012691198, 0.022829836, 0.061808586, 0
159, 2057686274, -0.65138906, -0.09091963, 0.73982745, -0.14171928, 0.07873199, 0.035863046, 0.041811943, 0
160, 2057702941, -0.65163696, -0.091083616, 0.7395269, -0.14204216, 0.12419989, 0.047156036, 0.05734825, 0
162, 2057736275, -0.65176874, -0.09196846, 0.73912996, -0.14293027, 0.13498975, 0.06564623, 0.106077194, 0
163, 2057752942, -0.65175587, -0.09256206, 0.7389608, -0.14347973, 0.010820262, 0.044322617, -0.009335518, 0
164, 2057769609, -0.65167683, -0.093120396, 0.7388548, -0.14402238, -0.022078162, 0.15695605, -0.06914711, 0
166, 2057802943, -0.65145487, -0.094090044, 0.73875606, -0.14489971, -0.0046459404, 0.17521745, -2.7656555E-4, 0
167, 2057819610, -0.6512843, -0.09455155, 0.7387831, -0.14522772, 0.0012445202, 0.120212585, -0.0855217, 0
168, 2057836277, -0.65110403, -0.09499512, 0.73881155, -0.14560191, 0.040268987, 0.13827054, -0.09576607, 0
170, 2057869611, -0.6507769, -0.09592962, 0.7387983, -0.1465154, 0.08661708, -0.04981545, 0.058267593, 0
172, 2057902945, -0.65025485, -0.09715696, 0.73891264, -0.14744537, 0.06527696, 0.09118175, 0.10880566, 0
174, 2057936279, -0.6498307, -0.09833745, 0.7389441, -0.14837158, 0.026830494, 0.045354214, 0.12636185, 0
176, 2057969613, -0.649538, -0.099226676, 0.73901486, -0.14870957, -0.051504537, 0.07189493, 0.03696537, 0
178, 2058002947, -0.6490956, -0.09972842, 0.7393427, -0.14867519, -8.444319E-4, 0.15417051, -0.040412903, 0
182, 2058069615, -0.6485464, -0.09946126, 0.7399992, -0.14798422, 0.19669229, 0.10832444, -0.017277718, 0
183, 2058086282, -0.6483749, -0.09933122, 0.7402069, -0.14778298, 0.18522698, 0.14897498, 0.027302742, 0
185, 2058119616, -0.64810693, -0.0991008, 0.7405569, -0.14735943, 0.15241483, 0.10703454, 0.067474365, 0
187, 2058152950, -0.6480305, -0.09898692, 0.7406956, -0.14707412, 0.2118715, 0.024155017, 0.05683899, 0
189, 2058186284, -0.6479297, -0.099124655, 0.74076235, -0.14708972, 0.11820348, 0.022093864, 0.10809612, 0
190, 2058202951, -0.64775276, -0.099345595, 0.7408853, -0.14710131, 0.11241808, 0.066355854, 0.056988716, 0
191, 2058219618, -0.6475559, -0.09955504, 0.7410251, -0.14712211, 0.09527562, 0.12801579, 0.014302254, 0
194, 2058269619, -0.64677584, -0.10032159, 0.74156976, -0.14728813, 0.0843292, 2.4016468E-4, 0.004053116, 0
195, 2058286286, -0.6465065, -0.100573376, 0.74179083, -0.147186, 0.13636704, 0.0999631, -0.015337944, 0
198, 2058336287, -0.6460322, -0.1008002, 0.74226266, -0.14673327, 0.12889142, 0.16187638, 0.06633377, 0
199, 2058352954, -0.6459004, -0.10076746, 0.7424039, -0.14662108, 0.15904646, 0.15197928, 0.09551048, 0
201, 2058386288, -0.64559793, -0.10037933, 0.74285483, -0.1459347, 0.13951321, 0.15632077, 0.044345856, 0
202, 2058402955, -0.6454832, -0.100032315, 0.74309134, -0.14547569, 0.08336408, 0.20455427, -0.012065887, 0
203, 2058419622, -0.64539784, -0.09957598, 0.7433235, -0.14497961, 0.037934173, 0.23823838, 0.041013718, 0
206, 2058469623, -0.64498115, -0.09789124, 0.74424016, -0.14326869, -0.011872561, 0.08202065, -0.027273178, 0
209, 2058519624, -0.64401215, -0.09675814, 0.7454837, -0.14192721, -0.02866956, 0.08888303, 0.061276436, 0
210, 2058536291, -0.64375186, -0.096345276, 0.7458352, -0.14154212, 0.057947073, 0.15730621, -0.034794807, 0
212, 2058569625, -0.6437405, -0.09587185, 0.7459864, -0.1411173, 0.16364725, 0.0416691, -0.00470829, 0
213, 2058586292, -0.6437308, -0.095861286, 0.74601424, -0.14102119, 0.09116021, 0.033334162, 0.13646793, 0
214, 2058602959, -0.6436221, -0.09597033, 0.7461057, -0.1409592, 0.11801842, 0.022635967, 0.15152359, 0
216, 2058636293, -0.64343435, -0.096365005, 0.7462312, -0.14088249, 0.11838006, 0.22967769, 0.04656601, 0
217, 2058652960, -0.6432874, -0.09654486, 0.74635416, -0.14077905, 0.09956876, 0.22287907, 0.02056694, 0
218, 2058669627, -0.6430876, -0.09668662, 0.7465524, -0.14054286, 0.19747503, 0.21860924, -0.0338974, 0
220, 2058702961, -0.6430963, -0.096644305, 0.746683, -0.13983786, 0.21933371, 0.19063632, -0.051041603, 0
221, 2058719628, -0.6432131, -0.096584834, 0.7466294, -0.13962641, 0.18313982, 0.16684194, 0.0542202, 0
224, 2058769629, -0.64347684, -0.09579021, 0.7466656, -0.13876367, 0.04958069, -0.0836235, 0.1275177, 0
225, 2058786296, -0.64345044, -0.09574568, 0.7467168, -0.13864024, 0.064079374, 0.044859637, 0.060412407, 0
228, 2058836297, -0.64360756, -0.095395476, 0.7466374, -0.13858055, 0.12984046, 0.1518696, -0.019500732, 0
229, 2058852964, -0.6438274, -0.09512663, 0.7464834, -0.13857318, 0.19946475, 0.21249826, 0.0032157898, 0
230, 2058869631, -0.64421886, -0.09450267, 0.746273, -0.13831446, 0.21324745, 0.28781185, 0.04397297, 0
232, 2058902965, -0.644968, -0.09271078, 0.7460841, -0.1370494, 0.11454994, 0.25313252, 0.3307314, 0
233, 2058919632, -0.6452814, -0.091803044, 0.7460986, -0.13610345, 0.062411524, 0.10759207, 0.18862247, 0
235, 2058952966, -0.6463202, -0.08987236, 0.74578214, -0.13418245, 0.13660307, 0.10420479, -0.07279205, 0
237, 2058986300, -0.6476673, -0.08753721, 0.7451556, -0.13270427, 0.16050823, -0.0753812, 0.012992859, 0
239, 2059019634, -0.6485453, -0.08559154, 0.7448196, -0.13156694, 0.25701532, 0.014066648, 0.005019188, 0
241, 2059052968, -0.64924836, -0.08425774, 0.7445053, -0.13073617, 0.25355127, 0.11350109, -0.032294273, 0
243, 2059086302, -0.6496699, -0.08285555, 0.7444359, -0.12993112, 0.11025313, 0.18036562, -0.116900444, 0
244, 2059102969, -0.64963204, -0.08209447, 0.744612, -0.12959442, 0.066080265, 0.2133874, -0.18860435, 0
245, 2059119636, -0.6495959, -0.08124124, 0.7447973, -0.12924741, 0.096287146, 0.25249177, -0.11147404, 0
249, 2059186304, -0.65032536, -0.07935186, 0.7444031, -0.12902343, 0.17387609, 0.0070694913, 0.4155445, 0
251, 2059219638, -0.65082854, -0.08007287, 0.7438017, -0.12950982, 0.16758062, 0.20445412, 0.1449318, 0
252, 2059236305, -0.65107805, -0.08059837, 0.7434767, -0.12979418, 0.024889061, 0.23652157, -0.029532433, 0
253, 2059252972, -0.65113693, -0.08112074, 0.743315, -0.13009964, -0.15669376, 0.20003305, -0.3025627, 0
255, 2059286306, -0.65097684, -0.08195032, 0.74325734, -0.13070928, -0.0289941, 0.21798092, -0.5109854, 0
256, 2059302973, -0.65092605, -0.082419835, 0.74316895, -0.13116862, 0.045349885, 0.2539706, -0.14432907, 0
259, 2059352974, -0.6508408, -0.0833298, 0.74283415, -0.13290104, 0.20665918, 0.24953613, 0.49733257, 0
260, 2059369641, -0.6507597, -0.08343509, 0.74283844, -0.13320792, 0.2365983, 0.37972668, 0.5288267, 0
262, 2059402975, -0.65090746, -0.08330925, 0.7427285, -0.13317797, 0.09428223, 0.3110826, 0.025530815, 0
263, 2059419642, -0.6510055, -0.08325066, 0.7426842, -0.13298191, 0.056117844, 0.10927671, -0.49147606, 0
264, 2059436309, -0.6512996, -0.0832509, 0.7424611, -0.13278796, -0.11372741, 0.21503416, -0.2860384, 0
266, 2059469643, -0.6515338, -0.08366172, 0.7422373, -0.13263153, -0.16871473, 0.12831734, -0.27721786, 0
267, 2059486310, -0.6511305, -0.083991215, 0.74253625, -0.13273066, -0.14616048, 0.22056247, -0.24897575, 0
268, 2059502977, -0.65055513, -0.0842718, 0.74296445, -0.13297777, -0.08287503, 0.26422182, -0.14360523, 0
270, 2059536311, -0.6493922, -0.08467929, 0.74385905, -0.13340163, -0.09725585, -0.052704662, 0.12907505, 0
271, 2059552978, -0.6487947, -0.08530141, 0.74424034, -0.133785, -0.12394419, -0.17655015, 0.0533247, 0
272, 2059569645, -0.64817375, -0.086077705, 0.7445937, -0.13433088, -0.05605884, -0.14567329, 0.023036003, 0
275, 2059619646, -0.6469701, -0.08703263, 0.7452592, -0.13581753, -0.071817845, 0.25896016, 0.35489082, 0
276, 2059636313, -0.64704037, -0.08682657, 0.74519306, -0.13597852, 0.013538627, 0.410919, 0.24785233, 0
278, 2059669647, -0.6478988, -0.08581783, 0.7446181, -0.13568076, 0.2001867, 0.3056681, 0.046484947, 0
279, 2059686314, -0.64862376, -0.085348055, 0.7440921, -0.13539802, 0.3414813, 0.15374269, -0.015780449, 0
280, 2059702981, -0.64971465, -0.08559361, 0.743153, -0.13517016, 0.40107164, -0.089521326, 0.121334076, 0
282, 2059736315, -0.6524209, -0.08734913, 0.74059117, -0.13507378, 0.47956538, -0.23522498, 0.21112919, 0
283, 2059752982, -0.6536386, -0.08821558, 0.7393845, -0.13523331, 0.46439153, -0.22018641, 0.098153114, 0
284, 2059769649, -0.65472925, -0.08951162, 0.73819673, -0.13559434, 0.4302839, -0.1442663, 0.031921387, 0
287, 2059819650, -0.6584755, -0.09508526, 0.7339084, -0.1369311, 0.32507008, 0.309508, -0.096541405, 0
288, 2059836317, -0.6595644, -0.0968995, 0.7325384, -0.13775271, 0.4186523, -0.04585251, -0.047380447, 0
290, 2059869651, -0.6609142, -0.09969832, 0.73063815, -0.13936828, 0.31667963, 0.0062135668, 0.07192135, 0
291, 2059886318, -0.6613703, -0.100655824, 0.72996956, -0.14001755, 0.20809548, 0.20521344, 0.13543797, 0
293, 2059919652, -0.662445, -0.10227091, 0.72870106, -0.14037475, 0.19849426, 0.083778664, 0.20634079, 0
294, 2059936319, -0.66317904, -0.102838784, 0.72795933, -0.14034206, 0.12678146, -0.007934542, 0.10861015, 0
295, 2059952986, -0.66391164, -0.10313993, 0.7272841, -0.14015828, 0.086684585, 0.04708703, -0.0120744705, 0
297, 2059986320, -0.6654778, -0.10322372, 0.72598714, -0.13939062, 0.019322695, -0.07767045, -0.20472336, 0
299, 2060019654, -0.66674715, -0.10343371, 0.7250421, -0.13808249, 0.07700916, -0.1458181, -0.11602211, 0
301, 2060052988, -0.66793597, -0.10386148, 0.7240487, -0.13722554, 0.093273744, -0.1310108, 0.0762558, 0
303, 2060086322, -0.66881186, -0.10533667, 0.72307515, -0.13696793, 0.11935949, -0.16343312, 0.11902714, 0
305, 2060119656, -0.66991925, -0.10758495, 0.7217548, -0.13677225, 0.3685827, 0.07450055, -0.038942337, 0
306, 2060136323, -0.67058915, -0.10868999, 0.72098124, -0.13669547, 0.3677709, 0.11111033, 0.0072202682, 0
307, 2060152990, -0.6711253, -0.10964738, 0.72034174, -0.1366713, 0.37725604, 0.17268363, 0.050230026, 0
309, 2060186324, -0.67189336, -0.11116609, 0.7193968, -0.13664754, 0.32201913, 0.29464993, 0.11990833, 0
310, 2060202991, -0.6720044, -0.11150366, 0.71922994, -0.1367058, 0.21076646, 0.29540583, -0.037773132, 0
311, 2060219658, -0.67204714, -0.11157822, 0.7191882, -0.1366539, 0.13836615, 0.41893658, -0.15192509, 0
313, 2060252992, -0.6720028, -0.111309, 0.7193234, -0.13638018, 0.028943587, 0.26296315, -0.11246395, 0
314, 2060269659, -0.6718355, -0.111235484, 0.7195127, -0.13626507, 0.005671418, 0.14346677, -0.07902908, 0
316, 2060302993, -0.67145073, -0.11159222, 0.7198319, -0.1361844, -0.0040415614, 0.120072335, 0.16719532, 0
318, 2060336327, -0.6715117, -0.11290997, 0.7194477, -0.1368265, 0.10644, 0.06492962, 0.10706806, 0
320, 2060369661, -0.6720338, -0.11531788, 0.7183189, -0.1381788, 0.12750877, 0.060075253, 0.11549473, 0
321, 2060386328, -0.67235714, -0.11680282, 0.71762335, -0.13896924, -0.00817074, 0.050106127, 0.11441803, 0
322, 2060402995, -0.67245567, -0.118388824, 0.7171163, -0.13976607, -0.012282484, 0.150201, 0.06612873, 0
325, 2060452996, -0.6730181, -0.12255386, 0.7154653, -0.14191386, -0.06539229, 0.43688294, -0.010922432, 0
326, 2060469663, -0.6731865, -0.12346016, 0.71504706, -0.1424362, 2.2887727E-4, 0.44812343, -0.005589485, 0
328, 2060502997, -0.6736776, -0.124870434, 0.7142979, -0.14264454, -0.01714389, 0.47196427, 0.089829445, 0
329, 2060519664, -0.6738695, -0.12520744, 0.7140952, -0.14245728, 0.015548903, 0.5396648, 0.10485649, 0
330, 2060536331, -0.67409605, -0.12530513, 0.71388876, -0.14233327, -0.012509573, 0.44201967, 0.052505493, 0
332, 2060569665, -0.6747154, -0.12502904, 0.7133517, -0.14233431, -0.016501067, 0.3683522, -0.041547775, 0
334, 2060602999, -0.6753541, -0.12458686, 0.7127934, -0.14249033, -0.030443806, 0.29493898, 0.13807869, 0
336, 2060636333, -0.67632395, -0.124507755, 0.7117349, -0.14324796, -0.07631895, -0.08594856, 0.1730814, 0
337, 2060653000, -0.6767731, -0.124888435, 0.71110034, -0.14394528, -0.19593994, -0.054448426, 0.22636604, 0
338, 2060669667, -0.67728806, -0.12554407, 0.7102985, -0.14490815, -0.1856065, 0.008651908, 0.28448868, 0
340, 2060703001, -0.6789259, -0.12741092, 0.70789295, -0.14736524, 0.040922765, -0.09462054, 0.1427679, 0
341, 2060719668, -0.68051434, -0.12837465, 0.7058795, -0.14885327, 0.08509898, -0.07367848, 0.22532845, 0
342, 2060736335, -0.68249077, -0.12918833, 0.7034657, -0.15051779, -0.11725892, -0.09444372, 0.3672924, 0
344, 2060769669, -0.68652475, -0.1309139, 0.69847643, -0.1538789, -0.30127758, -0.078387275, 0.2653389, 0
345, 2060786336, -0.68824023, -0.1318704, 0.69622, -0.1556156, -0.17448136, -0.11078308, -0.029704094, 0
347, 2060819670, -0.691234, -0.13352996, 0.69204724, -0.1594956, -0.1289777, 0.07511846, -0.20116329, 0
349, 2060853004, -0.69394153, -0.13514644, 0.6879573, -0.16400687, 0.32419124, 0.19796118, -0.22621346, 0
351, 2060886338, -0.6962284, -0.13744088, 0.68419456, -0.1680977, 0.38727644, -0.04422567, -0.3183813, 0
352, 2060903005, -0.69649816, -0.1392754, 0.6831404, -0.16974923, 0.20265025, 0.16716327, -0.43942928, 0
353, 2060919672, -0.6962761, -0.14148141, 0.6825456, -0.17122175, 0.11589012, 0.3639418, -0.5134344, 0
355, 2060953006, -0.69496197, -0.14580795, 0.68238384, -0.1735599, -0.13737419, 0.40408227, -0.39954185, 0
356, 2060969673, -0.6940771, -0.14819075, 0.68262476, -0.1741347, 0.0032577293, 0.6510228, -0.40282917, 0
357, 2060986340, -0.69314903, -0.15011416, 0.6831199, -0.17424187, 0.18126006, 0.7705401, -0.15071583, 0
359, 2061019674, -0.69083035, -0.15281782, 0.6851842, -0.1729898, 0.27681813, 0.43684283, 0.088772774, 0
360, 2061036341, -0.6895473, -0.15413852, 0.6864464, -0.17193048, 0.36141598, 0.39678377, 0.010655403, 0
363, 2061086342, -0.68527806, -0.1585109, 0.6901024, -0.17038155, 0.36953664, 0.44920617, 0.30145168, 0
364, 2061103009, -0.6838639, -0.15944317, 0.6912857, -0.17039618, 0.14570542, 0.38389167, 0.24017143, 0
365, 2061119676, -0.6825091, -0.16002038, 0.6925284, -0.17024069, -0.08068952, 0.3891055, 0.11636543, 0
367, 2061153010, -0.6806079, -0.15951961, 0.69478935, -0.16910654, -0.36609545, 0.27030724, -0.023576736, 0
368, 2061169677, -0.6798602, -0.15851894, 0.6960207, -0.16798797, -0.33883, 0.2490349, -0.107460976, 0
370, 2061203011, -0.67901134, -0.15502343, 0.6984586, -0.16452913, -0.18756537, 0.21463245, 0.0762701, 0
371, 2061219678, -0.6787847, -0.15281558, 0.6996727, -0.16235727, -0.24262466, 0.112427354, 0.05000496, 0
372, 2061236345, -0.67861384, -0.1506347, 0.7008391, -0.16006227, -0.17478758, -0.0071870033, -0.022053719, 0
374, 2061269679, -0.67834985, -0.1469842, 0.7028801, -0.15556288, 0.1418668, -0.13829099, -0.042134285, 0
375, 2061286346, -0.6781315, -0.14543764, 0.70386964, -0.15347989, 0.1386263, -0.15907785, 0.03490734, 0
379, 2061353014, -0.6762375, -0.14238682, 0.70743966, -0.14819229, 0.3683185, -0.13870348, 0.01865387, 0
380, 2061369681, -0.67569864, -0.14249787, 0.70800006, -0.14786702, 0.2827582, -0.14247604, -0.06680012, 0
382, 2061403015, -0.67426264, -0.14353609, 0.70913553, -0.14797664, 0.18823054, 0.08635585, -0.048895836, 0
383, 2061419682, -0.6735687, -0.1442415, 0.70958024, -0.14831808, 0.18524933, 0.13382067, 0.005566597, 0
386, 2061469683, -0.6714056, -0.14660114, 0.7107866, -0.15002629, 0.07340612, 0.03499587, 0.10350227, 0
387, 2061486350, -0.67074054, -0.14743328, 0.71111697, -0.15061906, 0.047321714, 0.026980864, 0.10290241, 0
388, 2061503017, -0.6701528, -0.14823388, 0.7113894, -0.15116218, 0.1023211, 0.07734197, 0.1333437, 0
390, 2061536351, -0.6692316, -0.14952831, 0.7117741, -0.15215532, -0.0028699064, 0.11186058, 0.063261986, 0
391, 2061553018, -0.6689034, -0.15008089, 0.7118709, -0.1525997, -0.008413922, 0.008958008, 0.032541275, 0
392, 2061569685, -0.66865194, -0.15060723, 0.71192497, -0.1529307, -0.0056486195, -0.03692635, 0.03600025, 0
395, 2061619686, -0.6680063, -0.15196724, 0.71209574, -0.15361035, 0.16650464, 0.15549596, 0.12701607, 0
397, 2061653020, -0.66790706, -0.15283012, 0.7118665, -0.15424632, 0.13915023, 0.10519744, 0.072916985, 0
398, 2061669687, -0.6679579, -0.15330097, 0.7116444, -0.15458336, 0.13212879, 0.10826928, -0.0096235275, 0
399, 2061686354, -0.66801447, -0.15374117, 0.7114208, -0.15493141, 0.12719452, 0.15955903, -0.012452126, 0
401, 2061719688, -0.6682513, -0.1543918, 0.71090585, -0.15562476, 0.03226454, 0.1869954, 0.068831444, 0
402, 2061736355, -0.6682963, -0.15459037, 0.71077675, -0.1558241, -0.002827439, 0.19296633, 0.028829575, 0
403, 2061753022, -0.6684412, -0.15469874, 0.7105893, -0.15594962, 0.029229237, 0.24281526, -0.0010604858, 0
405, 2061786356, -0.66895366, -0.15456045, 0.710148, -0.1558999, 0.032226544, 0.29793662, 0.02265644, 0
406, 2061803023, -0.66913444, -0.15438516, 0.71005976, -0.15569904, 0.002365072, 0.22283933, 0.040808678, 0
407, 2061819690, -0.6692129, -0.1541676, 0.7100954, -0.15541492, 0.02733474, 0.21632037, 0.0047712326, 0
410, 2061869691, -0.66950256, -0.15355153, 0.71011955, -0.15466551, 0.075752564, 0.1898781, 0.05287075, 0
413, 2061919692, -0.6695431, -0.15306737, 0.7102888, -0.15419231, -0.004054525, 0.18912314, 0.0149793625, 0
414, 2061936359, -0.66948074, -0.15288506, 0.7104221, -0.15402973, 0.029161735, 0.15974538, 0.014627457, 0
415, 2061953026, -0.6693866, -0.15269677, 0.71059537, -0.15382598, -0.007170743, 0.13943481, 0.015019417, 0
417, 2061986360, -0.66912305, -0.15230773, 0.7110149, -0.15341848, 0.06218488, 0.20471445, 0.04902935, 0
419, 2062019694, -0.6688106, -0.15181589, 0.71152323, -0.15291214, 0.15637994, 0.17374997, 0.081175804, 0
421, 2062053028, -0.6686638, -0.15157303, 0.7117888, -0.15255773, 0.18840668, 0.18257432, 0.010775566, 0
422, 2062069695, -0.66856277, -0.15148896, 0.7119325, -0.15241377, 0.16156961, 0.16365513, -0.036017418, 0
424, 2062103029, -0.6683634, -0.15138921, 0.71218735, -0.15219596, 0.14981402, 0.20981535, -0.0472126, 0
426, 2062136363, -0.66825926, -0.15139316, 0.7123005, -0.15212056, 0.058191597, 0.125094, 0.039564133, 0
428, 2062169697, -0.66790247, -0.15153168, 0.71261936, -0.15205608, 0.016914567, 0.101109326, 0.04933548, 0
429, 2062186364, -0.6676771, -0.1516231, 0.71281576, -0.1520339, 0.066258624, 0.17055391, 0.006711006, 0
430, 2062203031, -0.66751784, -0.15165648, 0.71294814, -0.1520792, 0.060664546, 0.20177934, -0.004945755, 0
432, 2062236365, -0.66720843, -0.15172075, 0.7132148, -0.15212208, -0.009781821, 0.14096509, 0.03267002, 0
433, 2062253032, -0.66703314, -0.151681, 0.71340656, -0.1520312, -0.046538528, 0.1386794, 0.06028366, 0
434, 2062269699, -0.666808, -0.15158434, 0.7136672, -0.15189211, 0.06098819, 0.16774893, 0.0810833, 0
436, 2062303033, -0.6664611, -0.15133077, 0.71411777, -0.15155041, 0.06717548, 0.19407071, 0.073636055, 0
437, 2062319700, -0.66628283, -0.15113994, 0.7143728, -0.15132213, 0.066166095, 0.23519112, 0.03302574, 0
438, 2062336367, -0.6661606, -0.1509368, 0.7145752, -0.15110664, 0.052255988, 0.18954033, -0.006052017, 0
441, 2062386368, -0.66566324, -0.15040053, 0.71529484, -0.15042758, 0.04828014, 0.18506403, -0.0017900467, 0
442, 2062403035, -0.66541475, -0.15016672, 0.71562713, -0.15017977, 0.097932205, 0.20256917, 0.009960175, 0
444, 2062436369, -0.6650697, -0.14961705, 0.7161411, -0.14980581, 0.15609698, 0.16929848, 0.04093933, 0
445, 2062453036, -0.6649103, -0.14938895, 0.7163577, -0.14970538, 0.15855563, 0.17298165, 0.01714325, 0
446, 2062469703, -0.6647755, -0.14919403, 0.71654457, -0.14960426, 0.13783462, 0.19228081, 0.035676003, 0
448, 2062503037, -0.66441, -0.14905512, 0.7169311, -0.14951435, 0.13530223, 0.14460193, 0.022379875, 0
449, 2062519704, -0.66429895, -0.14905438, 0.71703494, -0.14951053, 0.11467243, 0.15456301, 0.035004616, 0
451, 2062553038, -0.6640766, -0.14919606, 0.7171971, -0.14957894, 0.042705726, 0.15153787, -0.018415451, 0
452, 2062569705, -0.6640216, -0.14927663, 0.7172156, -0.14965446, 0.037605606, 0.18541037, -0.021623611, 0
453, 2062586372, -0.664003, -0.14933889, 0.71721035, -0.1496998, 0.059162986, 0.16422017, 0.01101017, 0
457, 2062653040, -0.6636566, -0.14952244, 0.71746784, -0.14981842, 0.13066702, 0.21563965, 0.015868187, 0
459, 2062686374, -0.6636503, -0.14955992, 0.71744555, -0.14991629, 0.03441295, 0.1318209, 0.03447628, 0
461, 2062719708, -0.6636422, -0.14958629, 0.71744144, -0.1499449, 0.01755292, 0.16019246, 0.026033401, 0
463, 2062753042, -0.6636255, -0.14953142, 0.71745306, -0.1500179, 0.14467546, 0.17030877, 0.062024117, 0
464, 2062769709, -0.6636385, -0.14953893, 0.71741486, -0.15013641, 0.122004546, 0.12682271, -0.02375412, 0
465, 2062786376, -0.66368586, -0.14955278, 0.71733904, -0.15027471, 0.09111595, 0.18757543, 0.007446289, 0
467, 2062819710, -0.6638109, -0.14962888, 0.7171547, -0.15052722, 0.08240431, 0.16422011, 0.007914543, 0
468, 2062836377, -0.6638292, -0.14969933, 0.71708876, -0.15068978, 0.092632264, 0.15580899, 0.051252365, 0
469, 2062853044, -0.66384137, -0.1497697, 0.7170296, -0.15084828, 0.078090064, 0.13779546, 0.06822586, 0
471, 2062886378, -0.6637533, -0.14994314, 0.7170404, -0.15101188, 0.03990064, 0.19164588, 0.032492638, 0
473, 2062919712, -0.66381234, -0.15000975, 0.71691054, -0.15130225, 0.030466156, 0.21501662, -0.04852009, 0
475, 2062953046, -0.66381276, -0.14996481, 0.71687037, -0.15153505, 0.0350513, 0.11814487, 0.049304962, 0
476, 2062969713, -0.66376716, -0.15007539, 0.71685445, -0.1517008, 0.06727919, 0.112837166, 0.076319695, 0
477, 2062986380, -0.66371167, -0.15014975, 0.71685827, -0.15185243, 0.081829436, 0.16803531, 0.0824213, 0
479, 2063019714, -0.66366524, -0.15032792, 0.71680105, -0.15214774, 0.07083975, 0.19791006, 0.027153969, 0
480, 2063036381, -0.6636792, -0.15035701, 0.71676576, -0.15222459, 0.079108834, 0.18336143, -0.032313347, 0
482, 2063069715, -0.6637023, -0.15051943, 0.7166543, -0.15248817, 0.057314534, 0.16919719, 0.014482498, 0
483, 2063086382, -0.6636891, -0.15056145, 0.7166302, -0.15261702, 0.115580335, 0.19126144, 0.06687355, 0
484, 2063103049, -0.66369265, -0.15061942, 0.71658117, -0.15277454, 0.10124601, 0.14607924, 0.08800125, 0
486, 2063136383, -0.6637347, -0.15068531, 0.7164819, -0.15299295, 0.033627972, 0.16594395, 0.006380081, 0
488, 2063169717, -0.66374165, -0.15061292, 0.71645373, -0.1531655, 0.05901729, 0.18552083, -0.0154771805, 0
490, 2063203051, -0.6637589, -0.15050507, 0.71643037, -0.15330642, 0.059338666, 0.17725857, 0.07305336, 0
491, 2063219718, -0.6637029, -0.15043221, 0.7164944, -0.15332057, 0.060629677, 0.1827895, 0.05700016, 0
492, 2063236385, -0.6636679, -0.15037113, 0.7165246, -0.15339077, 0.050674856, 0.16941662, 0.008808136, 0
494, 2063269719, -0.66366756, -0.15016374, 0.716535, -0.15354681, 0.07214641, 0.1743657, 0.027902603, 0
495, 2063286386, -0.6636834, -0.15009633, 0.71651804, -0.15362275, 0.13351814, 0.14057271, 0.052500725, 0
496, 2063303053, -0.66371876, -0.15007666, 0.7164698, -0.15371469, 0.10884231, 0.121278524, 0.06458664, 0
498, 2063336387, -0.6637594, -0.1499413, 0.71645695, -0.15373164, 0.115993835, 0.14572068, 0.025623322, 0
499, 2063353054, -0.66378677, -0.1498536, 0.7164505, -0.15372872, 0.0921003, 0.19234067, 0.0131073, 0
500, 2063369721, -0.6637945, -0.14983624, 0.7164328, -0.1537947, 0.06599175, 0.21942887, -0.02608776, 0
502, 2063403055, -0.6637604, -0.14973435, 0.71647286, -0.15385425, 0.106051534, 0.15483217, -0.031087875, 0
503, 2063419722, -0.66372657, -0.14971806, 0.7164953, -0.15391195, 0.088410996, 0.14896467, 0.03156376, 0
505, 2063453056, -0.66361135, -0.1497701, 0.7165708, -0.15400603, 0.12332168, 0.1327105, 0.10139656, 0
506, 2063469723, -0.66359425, -0.14985296, 0.7165443, -0.1541234, 0.10073505, 0.10283323, 0.032055855, 0
507, 2063486390, -0.6635734, -0.1498557, 0.7165546, -0.15416218, 0.08062872, 0.19933473, 0.023368835, 0
509, 2063519724, -0.6636001, -0.14976642, 0.7165356, -0.15422198, 0.04033783, 0.18594937, -0.025092125, 0
510, 2063536391, -0.6635938, -0.14973456, 0.7165511, -0.15420808, 0.049373563, 0.15424468, -0.012169838, 0
513, 2063586392, -0.61817247, -0.17567879, 0.7496764, -0.1580757, 30.891476, 5.026928, 20.36782, 1024
514, 2063603059, -0.6270742, -0.1801917, 0.7368655, -0.17703414, -25.23027, -5.1243715, -20.989967, 0
517, 2063653060, -0.644715, -0.16365093, 0.72829306, -0.16478178, 0.9087706, 0.26238912, 3.4300127, 0
518, 2063669727, -0.64957255, -0.16272405, 0.7245149, -0.16327147, 0.4987477, 0.20378928, 1.6940651, 0
519, 2063686394, -0.65218365, -0.16210985, 0.72254026, -0.16222002, 0.4619177, -0.17054653, 1.0689182, 0
521, 2063719728, -0.6525804, -0.16225764, 0.72228813, -0.16159894, -0.0884343, -0.09065247, 0.19701195, 0
522, 2063736395, -0.65271556, -0.16214508, 0.7222368, -0.16139473, -0.441253, 0.22309074, 0.14540672, 0
523, 2063753062, -0.65283877, -0.16203043, 0.72222716, -0.16105421, -0.4823964, 0.47499683, -0.21251965, 0
525, 2063786396, -0.6534465, -0.16141608, 0.722024, -0.16011494, -0.056047663, 0.26418644, -0.14732742, 0
526, 2063803063, -0.65368104, -0.16101071, 0.7219938, -0.15970135, 0.07576508, 0.16400665, 0.014198303, 0
527, 2063819730, -0.65371615, -0.16067027, 0.722103, -0.15940723, 0.21547945, 0.28012365, 0.011779785, 0
529, 2063853064, -0.6537494, -0.16017015, 0.7222289, -0.15920347, 0.19775622, 0.3476608, 0.083200455, 0
531, 2063886398, -0.6538457, -0.1598751, 0.72215694, -0.15943034, 0.30608758, 0.23219833, 0.1354618, 0
533, 2063919732, -0.6540215, -0.15973717, 0.7218939, -0.16003796, 0.36072576, 0.17345197, 0.06294346, 0
534, 2063936399, -0.6541667, -0.1597498, 0.7216883, -0.16035862, 0.38862467, 0.20984766, 0.045531273, 0
536, 2063969733, -0.6547514, -0.15998264, 0.7209904, -0.16087808, 0.2621543, 0.28417394, 0.028380394, 0
537, 2063986400, -0.6551418, -0.16010433, 0.72056836, -0.16105905, 0.25532198, 0.2860734, 0.03467655, 0
538, 2064003067, -0.655529, -0.1601938, 0.72015184, -0.16125703, 0.28187582, 0.3234566, 0.010630608, 0
540, 2064036401, -0.6562279, -0.16021042, 0.7194249, -0.16164204, 0.18195519, 0.30248958, -0.008096695, 0
541, 2064053068, -0.65652007, -0.16015162, 0.7191366, -0.16179663, 0.20859034, 0.2705965, -0.030565262, 0
542, 2064069735, -0.65678054, -0.1600361, 0.7188939, -0.16193268, 0.17508484, 0.21711032, -5.235672E-4, 0
544, 2064103069, -0.6572772, -0.15974288, 0.71847314, -0.16207439, 0.062458906, 0.19392772, 0.04528618, 0
546, 2064136403, -0.6576107, -0.15934502, 0.7182624, -0.16204713, 0.038771003, 0.14589842, -0.027356148, 0
548, 2064169737, -0.6577771, -0.15884903, 0.7182517, -0.16190669, 0.14653689, 0.19062598, 1.7261505E-4, 0
550, 2064203071, -0.6579948, -0.15839645, 0.7181706, -0.16182484, 0.22417903, 0.18438354, 0.002705574, 0
552, 2064236405, -0.6581465, -0.15786958, 0.718194, -0.16161855, 0.20052375, 0.2475867, -0.02499199, 0
553, 2064253072, -0.6582332, -0.1576246, 0.7181918, -0.16151465, 0.22332297, 0.19996385, -0.023407936, 0
554, 2064269739, -0.65828717, -0.15745384, 0.7181962, -0.16144143, 0.19536005, 0.16042456, 0.008317947, 0
556, 2064303073, -0.65826243, -0.15740891, 0.71825206, -0.16133797, 0.23170695, 0.14149074, 0.024829865, 0
557, 2064319740, -0.65825653, -0.15746342, 0.7182334, -0.1613916, 0.21528143, 0.15743096, 0.020871162, 0
559, 2064353074, -0.6581394, -0.15770996, 0.7182385, -0.16160622, 0.17752874, 0.16377443, -0.007843971, 0
560, 2064369741, -0.6581234, -0.15784597, 0.7181921, -0.16174412, 0.19054078, 0.16190027, 0.019675255, 0
563, 2064419742, -0.6581004, -0.15837741, 0.71799254, -0.16220355, 0.14979793, 0.19611892, 0.07075691, 0
564, 2064436409, -0.6580365, -0.15850161, 0.7179985, -0.16231461, 0.14875011, 0.19837177, 0.027974129, 0
565, 2064453076, -0.6580041, -0.15858145, 0.71799064, -0.16240333, 0.12795447, 0.22729546, -0.011585236, 0
567, 2064486410, -0.65802205, -0.15863696, 0.717951, -0.1624516, 0.10027059, 0.19361715, 0.01404953, 0
568, 2064503077, -0.6580302, -0.15865858, 0.7179416, -0.16243899, 0.10815479, 0.17772442, 0.04448414, 0
569, 2064519744, -0.6580223, -0.1586568, 0.7179542, -0.16241713, 0.13824724, 0.17184207, 0.02156353, 0
571, 2064553078, -0.6580358, -0.15848246, 0.7179886, -0.16237998, 0.14907196, 0.203982, 0.018669128, 0
572, 2064569745, -0.65803754, -0.1583689, 0.71801394, -0.16237152, 0.18573748, 0.18879066, 0.05185318, 0
573, 2064586412, -0.65801805, -0.15830345, 0.7180454, -0.1623762, 0.15428786, 0.16127846, 0.058338165, 0
575, 2064619746, -0.6579984, -0.15818647, 0.7180765, -0.1624316, 0.21222645, 0.17204592, 0.007372856, 0
576, 2064636413, -0.65799016, -0.15815148, 0.7180831, -0.1624698, 0.17033029, 0.18734555, 0.008995056, 0
577, 2064653080, -0.6580026, -0.15813577, 0.71806586, -0.1625109, 0.13159505, 0.20201163, -0.010565758, 0
579, 2064686414, -0.65799695, -0.15812923, 0.71804756, -0.16262096, 0.16372503, 0.18614388, 0.035759926, 0
580, 2064703081, -0.65798753, -0.15810347, 0.7180485, -0.16268013, 0.17033789, 0.20802256, 0.04528618, 0
581, 2064719748, -0.65797, -0.15806043, 0.7180625, -0.16273108, 0.17401065, 0.20793495, 0.020773888, 0
583, 2064753082, -0.65796405, -0.15794572, 0.7180821, -0.16278026, 0.14802548, 0.24253821, 0.025140762, 0
584, 2064769749, -0.65794355, -0.15785128, 0.71812147, -0.16278064, 0.16711304, 0.24179816, 0.03804016, 0
586, 2064803083, -0.6578365, -0.15764517, 0.7182807, -0.1627114, 0.21746247, 0.18099292, 0.03547764, 0
587, 2064819750, -0.65773696, -0.1575761, 0.7183986, -0.16265984, 0.21883644, 0.19739804, 0.036587715, 0
590, 2064869751, -0.657426, -0.1574704, 0.71874714, -0.16247946, 0.1999529, 0.19056642, 0.003873825, 0
591, 2064886418, -0.65727115, -0.15746473, 0.7188985, -0.16244224, 0.20914376, 0.18985492, 0.013818741, 0
592, 2064903085, -0.65711, -0.15752585, 0.7190283, -0.16246004, 0.26179403, 0.21872537, 0.049815178, 0
594, 2064936419, -0.65682715, -0.15760991, 0.7192602, -0.16249573, 0.30043182, 0.19337189, 0.05794239, 0
595, 2064953086, -0.6566492, -0.15765369, 0.71941483, -0.16248828, 0.24321249, 0.25639322, 0.036619186, 0
596, 2064969753, -0.6153441, -0.18451643, 0.74648666, -0.17339557, -1.9575282, 1.5391513, 20.165134, 0
598, 2065003087, -0.61705106, -0.18568486, 0.74509406, -0.17206606, -3.083917, 3.312901, -4.4942265, 0
599, 2065019754, -0.6297493, -0.18204182, 0.73537076, -0.17178263, 0.8598499, 0.5877768, 0.7620182, 0
600, 2065036421, -0.6349526, -0.18114254, 0.7313321, -0.17081776, 0.5130986, 0.2795566, 3.707324, 0
602, 2065069755, -0.6359678, -0.18205929, 0.73131555, -0.16607174, 0.5637064, -0.41609496, 0.11168671, 0
604, 2065103089, -0.6418535, -0.17726062, 0.7282115, -0.16221535, 0.34528175, -0.11586194, 0.7352686, 0
606, 2065136423, -0.6448071, -0.17347932, 0.72700596, -0.15998131, 0.15913676, 0.021227974, 0.52418995, 0
607, 2065153090, -0.6446098, -0.17341971, 0.72725827, -0.15969442, 0.14868663, 0.20903027, -0.006526947, 0
608, 2065169757, -0.64430344, -0.17397211, 0.7273795, -0.1597768, -0.06505926, 0.087319866, -0.47351456, 0
610, 2065203091, -0.6449604, -0.17501897, 0.72644204, -0.16024739, -0.28009748, 0.1205597, -0.36815548, 0
611, 2065219758, -0.645758, -0.17552069, 0.72556466, -0.16046202, -0.123251304, 0.16951708, -0.2069397, 0
612, 2065236425, -0.64655536, -0.17603101, 0.72466445, -0.16075927, -0.07026577, 0.31578904, 0.029830933, 0
614, 2065269759, -0.64719844, -0.17654647, 0.7238267, -0.1613798, -0.23806767, 0.30469772, -0.027475357, 0
615, 2065286426, -0.64770216, -0.17645073, 0.7233417, -0.16163786, -0.16506924, 0.28231335, -0.045233727, 0
617, 2065319760, -0.6495143, -0.1759921, 0.72180843, -0.16172042, -0.10171314, 0.13787581, 0.03488922, 0
619, 2065353094, -0.65047324, -0.175026, 0.7213242, -0.16107342, 0.28698304, 0.36949095, 0.28667068, 0
621, 2065386428, -0.65102214, -0.1741313, 0.7211565, -0.16057685, 0.10417939, 0.25607672, 0.07981682, 0
622, 2065403095, -0.6513374, -0.17375827, 0.720998, -0.16041362, 0.06472891, 0.33361062, 0.033602715, 0
623, 2065419762, -0.65156513, -0.17352633, 0.72087157, -0.16030744, 0.14301297, 0.25665334, -0.08111858, 0
625, 2065453096, -0.6519973, -0.17327325, 0.72053945, -0.16031796, 0.14416228, 0.17399175, 0.035402298, 0
626, 2065469763, -0.6520909, -0.17297195, 0.72050256, -0.16042832, 0.25189194, 0.26788157, 0.10023403, 0
627, 2065486430, -0.6522159, -0.17270303, 0.72042197, -0.1605711, 0.20548709, 0.30813456, 0.11489487, 0
629, 2065519764, -0.65248406, -0.17245562, 0.7202037, -0.16072682, 0.16737768, 0.37760234, 0.024868965, 0
630, 2065536431, -0.65260184, -0.17229867, 0.7201405, -0.1607001, 0.12258658, 0.34850788, 0.00463295, 0
631, 2065553098, -0.6526959, -0.1720787, 0.7201318, -0.16059297, 0.24090092, 0.35875416, -0.0038394928, 0
635, 2065619766, -0.65304136, -0.1706046, 0.7203003, -0.16000421, 0.15763028, 0.23456444, 0.003602028, 0
637, 2065653100, -0.65314275, -0.17000094, 0.720438, -0.15961237, 0.25972927, 0.28286588, 0.06948471, 0
638, 2065669767, -0.6532587, -0.16964915, 0.720442, -0.15949416, 0.26530674, 0.2782483, 0.015712738, 0
640, 2065703101, -0.65354055, -0.16888492, 0.7204162, -0.15926696, 0.22924428, 0.24273022, 0.0049819946, 0
642, 2065736435, -0.65379626, -0.1681255, 0.72047806, -0.15874124, 0.18488365, 0.28194305, -0.02722168, 0
644, 2065769769, -0.65392727, -0.16740915, 0.7206119, -0.15834959, 0.20773026, 0.22753887, -0.07427406, 0
645, 2065786436, -0.6539729, -0.16714802, 0.7206535, -0.15824714, 0.18519747, 0.18458432, -0.046603203, 0
646, 2065803103, -0.65400785, -0.16704348, 0.72064763, -0.15824002, 0.18711565, 0.14695676, 0.012352943, 0
648, 2065836437, -0.6539538, -0.166982, 0.7207317, -0.15814584, 0.16267765, 0.11941029, 0.08156872, 0
649, 2065853104, -0.6538757, -0.16709049, 0.7207689, -0.1581847, 0.18192345, 0.15824018, 0.07363415, 0
650, 2065869771, -0.6538032, -0.16722639, 0.7207889, -0.15824938, 0.18869992, 0.19081095, 0.028420448, 0
652, 2065903105, -0.6537485, -0.1675528, 0.7207011, -0.15852976, 0.1560478, 0.22169954, 0.0042181015, 0
653, 2065919772, -0.6537529, -0.16768485, 0.7206449, -0.15862776, 0.0940057, 0.21765995, 0.012501717, 0
654, 2065936439, -0.65371335, -0.1678163, 0.72063094, -0.15871505, 0.13319674, 0.23311602, -0.007659912, 0
656, 2065969773, -0.6537222, -0.16799551, 0.7205565, -0.15882708, 0.18677592, 0.21988092, 0.054968834, 0
657, 2065986440, -0.65373147, -0.16804492, 0.7205316, -0.15884933, 0.111953616, 0.20740756, 0.050870895, 0
658, 2066003107, -0.65370065, -0.16808417, 0.7205439, -0.15887934, 0.14881672, 0.21490464, 0.01847744, 0
660, 2066036441, -0.65372187, -0.16811295, 0.72048557, -0.15902549, 0.13097145, 0.20427537, 0.02537918, 0
661, 2066053108, -0.6536954, -0.1681627, 0.7204784, -0.15911433, 0.16248229, 0.17449556, 0.036510468, 0
665, 2066119776, -0.65378284, -0.16827336, 0.7203307, -0.15930672, 0.111318395, 0.2228826, -0.003282547, 0
666, 2066136443, -0.6538267, -0.16830617, 0.7202696, -0.15936801, 0.09704217, 0.1906794, 0.030202866, 0
668, 2066169777, -0.65380394, -0.16828476, 0.72029537, -0.15936762, 0.1565212, 0.21086329, 0.062176704, 0
669, 2066186444, -0.6537438, -0.16825128, 0.7203547, -0.15938163, 0.11122094, 0.1973572, 0.030099869, 0
671, 2066219778, -0.65369284, -0.16813883, 0.7204192, -0.1594175, 0.17956091, 0.22712184, 0.029696465, 0
672, 2066236445, -0.6537262, -0.16809621, 0.720394, -0.15943965, 0.21661133, 0.2593532, 0.04138851, 0
673, 2066253112, -0.6537752, -0.16805078, 0.7203582, -0.15944861, 0.13868487, 0.21295415, 0.037809372, 0
675, 2066286446, -0.653695, -0.16800821, 0.7204378, -0.15946272, 0.19491269, 0.21719185, 0.0066576004, 0
676, 2066303113, -0.65363055, -0.16803189, 0.7204773, -0.15952307, 0.19276786, 0.20863056, 0.02996254, 0
677, 2066319780, -0.6536307, -0.16802408, 0.7204799, -0.15951899, 0.1742601, 0.17564856, 0.031698227, 0
680, 2066369781, -0.65346813, -0.16824716, 0.72056425, -0.15956944, 0.19376516, 0.24960396, 0.06254864, 0
681, 2066386448, -0.65343046, -0.1683307, 0.720564, -0.15963633, 0.21965602, 0.23122387, 0.029720306, 0
683, 2066419782, -0.6532668, -0.16830367, 0.720727, -0.15959811, 0.24350128, 0.3135994, -0.024413109, 0
684, 2066436449, -0.6453518, -0.18113405, 0.7248485, -0.15908766, -36.47323, -10.65137, 16.275164, 1024
685, 2066453116, -0.61784494, -0.18921825, 0.74638546, -0.15929776, 17.441874, -2.1118944, -29.13022, 0
687, 2066486450, -0.64223695, -0.18140012, 0.7268136, -0.16239023, 4.747462, 2.810121, 1.2273493, 0
688, 2066503117, -0.6425765, -0.18146685, 0.72638077, -0.16290827, 2.6201925, -0.20905524, 0.4498911, 0
689, 2066519784, -0.6437254, -0.18068644, 0.7257965, -0.16184083, -1.2745719, -0.018503185, 0.6220703, 0
691, 2066553118, -0.64482194, -0.18056965, 0.7250248, -0.16106258, 0.09363047, -0.12708679, 0.06884956, 0
696, 2066636453, -0.6525544, -0.17821929, 0.7188387, -0.16026396, 5.6638184E-4, 0.29092872, 0.49219513, 0
699, 2066686454, -0.65370405, -0.17894337, 0.7174397, -0.16103852, -0.35030112, 0.2606122, -0.28795815, 0
702, 2066736455, -0.65957856, -0.17751199, 0.711993, -0.162833, -0.06773694, 0.2900712, 0.49625587, 0
703, 2066753122, -0.662619, -0.17661816, 0.70924604, -0.16344795, -0.09394669, 0.07827513, 0.24964905, 0
704, 2066769789, -0.66558915, -0.17591365, 0.7065265, -0.16391617, -0.21507087, 0.02064634, 0.34204292, 0
706, 2066803123, -0.67102855, -0.17489773, 0.7014705, -0.16454051, -0.106016666, 0.23055942, -0.0070228577, 0
707, 2066819790, -0.6739419, -0.17459476, 0.69869065, -0.16478266, 0.046941742, 0.22434281, -0.17316914, 0
710, 2066869791, -0.6854013, -0.17422926, 0.68703073, -0.1669157, -0.10659243, 0.74091333, -0.35310364, 0
711, 2066886458, -0.68836313, -0.17374353, 0.68393195, -0.1679563, -0.24919325, 1.239661, -0.6617317, 0
712, 2066903125, -0.69085956, -0.17267512, 0.68128735, -0.1695487, -0.17380546, 1.3805088, -0.7431412, 0
714, 2066936459, -0.6959599, -0.16960573, 0.6758762, -0.1734014, -0.20110802, 1.0629705, 0.0869894, 0
716, 2066969793, -0.6997347, -0.1675342, 0.6717277, -0.17631903, 0.19224036, 1.066475, 0.43283653, 0
718, 2067003127, -0.7039268, -0.16305041, 0.6682622, -0.17700353, -0.099216506, 1.3841509, 0.22431278, 0
719, 2067019794, -0.7065197, -0.16028777, 0.66628057, -0.17666629, -0.3139337, 1.5383314, -0.13724995, 0
722, 2067069795, -0.7148165, -0.14741048, 0.66065794, -0.17561735, -0.0075605493, 1.4079372, -1.4352589, 0
723, 2067086462, -0.7181459, -0.14119118, 0.6582402, -0.17622219, -0.37257597, 0.75094944, -1.1955833, 0
725, 2067119796, -0.72393626, -0.124899864, 0.6545744, -0.17847031, -0.9093651, -0.19334044, 0.22058678, 0
726, 2067136463, -0.7262556, -0.11524986, 0.65326315, -0.18033414, -0.888063, 0.072528, 0.7599869, 0
727, 2067153130, -0.7296955, -0.10489233, 0.6508424, -0.18151952, -0.5605191, -0.92316467, 0.5479593, 0
730, 2067203131, -0.7418625, -0.08049165, 0.64162236, -0.17743899, -0.53036404, 1.4277308, 0.46742344, 0
734, 2067269799, -0.76125264, -0.05209537, 0.6252504, -0.16384533, 1.2970659, -0.5084662, 1.4745045, 0
735, 2067286466, -0.7665349, -0.048268765, 0.6200572, -0.16008282, 0.8574315, -1.0796772, 0.85998535, 0
737, 2067319800, -0.777746, -0.03674432, 0.6091543, -0.15064861, 1.6146357, -0.0138364155, -0.39569283, 0
739, 2067353134, -0.7881871, -0.025346039, 0.5974585, -0.14548248, 1.9525726, -0.22239584, 0.4572153, 0
741, 2067386468, -0.7977971, -0.014166972, 0.5858461, -0.14179674, 1.8341438, -0.024963742, 0.2578373, 0
742, 2067403135, -0.80232775, -0.0083587095, 0.58028066, -0.13956273, 2.2050505, 0.1442947, 0.090444565, 0
743, 2067419802, -0.8065617, -0.0053644963, 0.5747007, -0.13838935, 1.9111891, -0.33046868, 0.2678156, 0
745, 2067453136, -0.8114677, -3.2021664E-4, 0.56773955, -0.13854466, 0.93340707, 0.1243275, 0.5681715, 0
746, 2067469803, -0.8135834, 0.0050047114, 0.56465405, -0.1386568, 0.28613278, 0.39609924, 0.34184265, 0
748, 2067503137, -0.81955457, 0.016986204, 0.556536, -0.1353231, 0.025455443, 1.1511896, -0.78951454, 0
753, 2067586472, -0.8278038, 0.029052345, 0.54499143, -0.12993814, 1.252938, 0.14915936, -0.06875801, 0
754, 2067603139, -0.82895195, 0.030888421, 0.5435057, -0.12840874, 1.0782305, 0.551735, -0.32625866, 0
756, 2067636473, -0.8307459, 0.036232546, 0.541047, -0.12577558, 1.7056926, 0.41171387, -0.1612482, 0
757, 2067653140, -0.83161926, 0.038589075, 0.5398685, -0.1243597, 1.9030286, 0.7005315, -0.2904892, 0
758, 2067669807, -0.8326269, 0.040064044, 0.5384226, -0.12341528, 2.12869, 0.7107987, -0.20484161, 0
760, 2067703141, -0.834738, 0.041361146, 0.53539956, -0.12186819, 2.3343973, 0.238648, -0.12848282, 0
761, 2067719808, -0.83575654, 0.041839577, 0.53395677, -0.12105267, 2.338824, 0.12881312, -0.2951908, 0
766, 2067803143, -0.8412099, 0.039004616, 0.5257886, -0.11997399, 2.137361, 0.1827635, -0.598999, 0
768, 2067836477, -0.84327096, 0.036273986, 0.5223936, -0.12118623, 2.1705372, 0.34420455, -0.3410921, 0
769, 2067853144, -0.8442738, 0.03555353, 0.52059996, -0.1221319, 1.9572662, 0.16808775, -0.27513504, 0
772, 2067903145, -0.8482232, 0.034953687, 0.51324445, -0.12601121, 1.14001, -0.02716895, -0.4991827, 0
773, 2067919812, -0.8500752, 0.034901403, 0.5098031, -0.12750648, 1.0893373, -0.29477236, -0.44514275, 0
775, 2067953146, -0.8546392, 0.03509604, 0.5014435, -0.13006812, 0.3651321, -0.07908478, -0.8846159, 0
776, 2067969813, -0.85723597, 0.03526444, 0.4967112, -0.13108654, 0.4248257, -0.007086031, -1.1612177, 0
780, 2068036481, -0.8700393, 0.03166467, 0.47222674, -0.1379628, 1.3837949, 0.092162885, -1.9424553, 0
781, 2068053148, -0.8731198, 0.028674832, 0.4658433, -0.14082807, 2.0307062, -0.44635403, -1.9980454, 0
783, 2068086482, -0.87992936, 0.016152935, 0.45220143, -0.14484529, 1.9796299, -0.0016531856, -1.0529451, 0
785, 2068119816, -0.88573, 5.722176E-4, 0.438824, -0.15138894, 2.5947902, 0.056696568, -0.94026756, 0
789, 2068186484, -0.8913368, -0.009948866, 0.42148647, -0.16664848, 3.074833, -0.14695363, -3.714315, 0
791, 2068219818, -0.8914005, -8.7621994E-4, 0.4217928, -0.16582668, 4.0843797, 1.4241387, -4.5679574, 0
793, 2068253152, -0.89060813, 0.006061176, 0.42479828, -0.16226488, 6.115761, 2.1961522, -2.276381, 0
795, 2068286486, -0.8886815, 0.0125161875, 0.42966765, -0.15961571, 9.753545, 1.4677786, 3.273467, 0
796, 2068303153, -0.88802695, 0.014013624, 0.43148386, -0.15822902, 10.089269, 0.9790793, 6.135021, 0
797, 2068319820, -0.8876393, 0.014197731, 0.43260503, -0.15732315, 10.309967, 0.7660883, 8.2873535, 0
799, 2068353154, -0.8876221, 0.014019553, 0.4327522, -0.15703145, 9.225804, 1.1642787, 10.771551, 0
800, 2068369821, -0.88789344, 0.01552319, 0.4320181, -0.15737724, 7.512998, 1.6485524, 10.466312, 0
801, 2068386488, -0.8883281, 0.019658541, 0.43123898, -0.15659726, 5.959793, 0.6740342, 8.140543, 0
803, 2068419822, -0.89093137, 0.027711526, 0.42765322, -0.15029636, 0.48162884, 0.39147705, 4.9767027, 0
804, 2068436489, -0.8925772, 0.031555302, 0.42558712, -0.14556381, -1.3664361, 2.0894625, 3.1136894, 0
806, 2068469823, -0.8964545, 0.030019047, 0.41936168, -0.14002469, -1.0972984, 1.5526683, 4.369483, 0
810, 2068536491, -0.89930475, 0.02020729, 0.4152223, -0.13577981, -0.89994854, -0.574483, 0.49590015, 0
811, 2068553158, -0.8989424, 0.017224554, 0.4162716, -0.135376, -0.89656544, -0.5325148, -0.16849041, 0
812, 2068569825, -0.898258, 0.013466541, 0.41796124, -0.13513872, -0.7748689, -0.40772727, -0.53482246, 0
814, 2068603159, -0.89590406, 0.0031718183, 0.42345604, -0.13429005, -0.6664846, -0.46518984, -0.990551, 0
815, 2068619826, -0.8942866, -0.0032760128, 0.42693415, -0.13405506, -0.43020746, -0.43631896, -0.90304184, 0
818, 2068669827, -0.8882544, -0.021307083, 0.4399134, -0.13049614, 0.04968976, 0.7981057, -1.8728766, 0
819, 2068686494, -0.8860428, -0.030186776, 0.44422716, -0.12915966, -0.027507963, 0.75637096, -2.261231, 0
822, 2068736495, -0.8773514, -0.055698693, 0.45901376, -0.12830237, 0.2479702, 0.24734887, -2.90449, 0
824, 2068769829, -0.8705461, -0.06917393, 0.46982762, -0.12895556, -0.006742045, 0.56034696, -2.7885456, 0
826, 2068803163, -0.86360055, -0.080378056, 0.4811683, -0.12733151, -0.453791, 0.99272466, -2.3364267, 0
827, 2068819830, -0.8597791, -0.084226936, 0.4879199, -0.12499052, -0.6033209, 0.97997034, -2.7211957, 0
830, 2068869831, -0.8500079, -0.0862066, 0.50757784, -0.11145687, 1.0668932, 1.097168, -2.1292286, 0
831, 2068886498, -0.8497198, -0.085990205, 0.50919944, -0.106304854, -1.197333, 1.6826634, 0.06423473, 0
833, 2068919832, -0.84473133, -0.07834144, 0.5209773, -0.09421918, -1.4151696, 0.9955721, -1.2384243, 0
834, 2068936499, -0.84194696, -0.07311729, 0.5272115, -0.08848816, -0.7605091, 1.1361897, -1.0932713, 0
835, 2068953166, -0.83958054, -0.06958119, 0.5323205, -0.08307081, -1.3811246, 1.2006234, -0.7909794, 0
837, 2068986500, -0.8342902, -0.06334674, 0.54243904, -0.07556122, -1.165758, 0.450055, -1.4036274, 0
838, 2069003167, -0.8323213, -0.058176585, 0.54654294, -0.071766116, -2.138306, 0.8220719, -1.4982557, 0
839, 2069019834, -0.830201, -0.052434295, 0.5505663, -0.069976784, -1.6550415, 0.60190386, -2.5135798, 0
843, 2069086502, -0.8353777, -0.026905363, 0.5442563, -0.072167575, -1.758458, -0.03747723, -5.9505987, 0
845, 2069119836, -0.8430395, -0.029486535, 0.5318932, -0.07421168, 1.2296904, 1.2876575, -7.8771205, 0
846, 2069136503, -0.8480748, -0.02837336, 0.52404505, -0.0731014, 0.8845995, 2.838201, -7.7567477, 0
849, 2069186504, -0.86700034, -0.03626281, 0.49066663, -0.079021804, 2.019024, -0.94958204, -1.631382, 0
850, 2069203171, -0.8730729, -0.043896172, 0.4778101, -0.08669971, 3.8579042, -2.3067846, 0.65037155, 0
851, 2069219838, -0.8780467, -0.048504263, 0.46663523, -0.0945292, 5.523703, -2.6136894, 2.2617216, 0
853, 2069253172, -0.88537896, -0.04156983, 0.45002285, -0.10889657, 10.096343, 0.023617929, 4.9434824, 0
854, 2069269839, -0.88853145, -0.040993076, 0.4423858, -0.11458296, 11.550873, 2.2323349, 5.9715366, 0
855, 2069286506, -0.8915332, -0.044048164, 0.4346714, -0.11954965, 11.267875, 2.683114, 7.7395782, 0
857, 2069319840, -0.8960755, -0.040804565, 0.4238775, -0.12535772, 11.049028, 3.1142652, 8.752382, 0
861, 2069386508, -0.90092444, 0.010654945, 0.41693902, -0.11994365, 5.2535095, -0.75425017, 4.315711, 0
862, 2069403175, -0.9020399, 0.021773122, 0.41491944, -0.11702435, 0.8373211, -3.3153727, 3.7339401, 0
865, 2069453176, -0.9083246, 0.032776766, 0.40254232, -0.10878813, -3.6212814, 2.4128003, 6.675253, 0
866, 2069469843, -0.9109316, 0.033486634, 0.39695552, -0.10729161, -2.5996068, 2.2037551, 7.258091, 0
868, 2069503177, -0.9144869, 0.0323935, 0.39065486, -0.100280404, -1.4363728, 0.47531295, 0.88503265, 0
870, 2069536511, -0.9152059, 0.025986278, 0.39071906, -0.095207006, -0.2923449, -1.786149, -1.8933625, 0
872, 2069569845, -0.913281, 0.016766911, 0.39617363, -0.09319793, 0.22034958, -1.2477237, -2.6480575, 0
873, 2069586512, -0.9116002, 0.009822296, 0.4001526, -0.093645886, 0.34123522, -1.009697, -2.0645943, 0
876, 2069636513, -0.90334547, -0.012071416, 0.4170918, -0.09929037, 0.30226663, -1.1763825, -2.1691203, 0
877, 2069653180, -0.9000631, -0.016925871, 0.4237088, -0.10036786, -0.037184287, -0.12730706, -1.9296083, 0
880, 2069703181, -0.88948303, -0.032789215, 0.4444489, -0.10105979, -0.33558413, 0.7139232, -1.7217216, 0
883, 2069753182, -0.87810117, -0.054627072, 0.46501055, -0.09860104, -0.6169009, 0.22221936, -1.9618006, 0
884, 2069769849, -0.87402827, -0.060089268, 0.4724096, -0.09641601, -0.8762045, 0.57246333, -2.0384145, 0
885, 2069786516, -0.86980295, -0.0638319, 0.48026955, -0.0933408, -0.71380806, 0.5342171, -2.5730038, 0
887, 2069819850, -0.8624518, -0.06885571, 0.49395937, -0.086272, 0.17617872, 1.1570823, -2.2283025, 0
888, 2069836517, -0.86004114, -0.071693346, 0.4982518, -0.08329296, -0.12969875, 0.9611942, -1.5866642, 0
889, 2069853184, -0.85768634, -0.073128015, 0.5023876, -0.08146198, -2.0159698, 0.73177284, -0.41517925, 0
891, 2069886518, -0.8481889, -0.070170656, 0.51960516, -0.07526738, -0.13624097, 0.036380675, -2.236075, 0
893, 2069919852, -0.84170955, -0.07354185, 0.5302339, -0.07050795, -0.09108041, 1.0455, -1.5212326, 0
895, 2069953186, -0.83889574, -0.0727797, 0.53513414, -0.06776037, -1.9073657, 1.3088467, 0.105109215, 0
897, 2069986520, -0.83321244, -0.07305634, 0.5439896, -0.06706817, -0.39837876, -0.040466797, -0.5937109, 0
899, 2070019854, -0.8271764, -0.079953894, 0.5518272, -0.06983142, -0.30135536, -0.36401013, -0.9147253, 0
900, 2070036521, -0.8250858, -0.082290985, 0.5544896, -0.07075194, -0.66771364, 0.44543827, -0.41290474, 0
901, 2070053188, -0.8240641, -0.080567755, 0.5562969, -0.07045594, -1.6112379, 1.4173014, 0.10921574, 0
903, 2070086522, -0.8227117, -0.06874004, 0.56040263, -0.066122174, -0.4308172, 0.94167894, -0.92817974, 0
905, 2070119856, -0.82348037, -0.06699841, 0.55948204, -0.06613846, 0.65407044, -0.4340568, -0.20111847, 0
907, 2070153190, -0.82750833, -0.06037031, 0.55410165, -0.06752324, -0.8168071, 1.7776399, -1.1032763, 0
908, 2070169857, -0.8305431, -0.053397283, 0.55025345, -0.06760774, 0.1803441, 1.2556407, -1.6561909, 0
910, 2070203191, -0.8387861, -0.046879873, 0.5378287, -0.07059183, 0.11657877, 1.066816, -3.1488557, 0
911, 2070219858, -0.843995, -0.042592354, 0.52980673, -0.07187468, 0.036193453, 1.4924567, -3.8545947, 0
912, 2070236525, -0.8496115, -0.037017927, 0.5210558, -0.072756216, -0.23608914, 1.1157718, -5.290205, 0
918, 2070336527, -0.87992775, -0.05994636, 0.46238673, -0.09129603, 5.524414, 2.0224297, 2.069251, 0
919, 2070353194, -0.88306266, -0.049656875, 0.4568589, -0.094960265, 7.845112, 1.973475, 3.4097233, 0
920, 2070369861, -0.8863645, -0.0465149, 0.45033956, -0.09691003, 9.558221, -2.1459706, 6.201891, 0
923, 2070419862, -0.89528054, -0.04601057, 0.4308606, -0.10352695, 8.67401, 0.8854645, 8.7390995, 0
924, 2070436529, -0.8964574, -0.038009487, 0.4288414, -0.1049656, 8.660573, 0.33657065, 7.7110443, 0
926, 2070469863, -0.89642537, -0.010482821, 0.4311171, -0.102238014, 4.13177, -5.7206516, 5.268305, 0
927, 2070486530, -0.8970304, -0.0054665804, 0.43086407, -0.09831455, -0.69785035, -5.197976, 4.6065607, 0
930, 2070536531, -0.8993386, -0.0052795466, 0.42816213, -0.08855717, -6.3917313, 1.6599109, 5.9776306, 0
934, 2070603199, -0.8967512, -0.025314901, 0.43248004, -0.09033435, -2.258564, -0.20919868, 2.1537685, 0
935, 2070619866, -0.8953658, -0.027685508, 0.43556517, -0.088541396, -1.6832781, -0.180818, 1.4414654, 0
936, 2070636533, -0.89396185, -0.028720848, 0.43889013, -0.085941255, -0.6920459, 0.011990091, 0.8855591, 0
938, 2070669867, -0.8915385, -0.032685522, 0.4450009, -0.0778973, 0.5821364, -0.24043433, -1.1627932, 0
939, 2070686534, -0.8906121, -0.036642045, 0.44733462, -0.07322513, 0.4523408, -0.1068001, -2.0830393, 0
941, 2070719868, -0.8895182, -0.0445965, 0.45046094, -0.062100932, 1.0265039, 1.3057661, -4.6832886, 0
942, 2070736535, -0.8886361, -0.0496604, 0.4523469, -0.056964524, 0.9106814, 1.281317, -5.140933, 0
945, 2070786536, -0.8823416, -0.06998813, 0.4633928, -0.042950306, 0.5709917, 1.3972906, -6.0193977, 0
946, 2070803203, -0.87956905, -0.07167101, 0.4688614, -0.037325893, 1.2116659, 1.5166968, -6.2846107, 0
947, 2070819870, -0.8766966, -0.072690845, 0.47443217, -0.032187015, 0.6540657, 1.4926256, -5.232285, 0
950, 2070869871, -0.8678864, -0.06662713, 0.4918497, -0.020508498, 0.9580518, -0.124888346, -2.6753945, 0
951, 2070886538, -0.86476386, -0.06527859, 0.49758446, -0.01829408, 1.4040818, 0.033998918, -1.5168991, 0
954, 2070936539, -0.85702986, -0.04903119, 0.51267374, -0.016256142, 1.8004282, -1.4512049, 1.1686773, 0
955, 2070953206, -0.85498047, -0.047252975, 0.5161974, -0.017857902, 1.9677222, -1.6256558, 1.8964901, 0
957, 2070986540, -0.85061693, -0.041832946, 0.5237061, -0.020874621, 2.2979708, -0.7494415, 1.7346325, 0
959, 2071019874, -0.8481948, -0.048234105, 0.5267562, -0.027742269, 0.66332567, -1.796533, 3.3561068, 0
961, 2071053208, -0.8448614, -0.054295033, 0.53100985, -0.035955593, -0.57398754, -0.31058878, 2.6916027, 0
962, 2071069875, -0.8429607, -0.05532511, 0.533688, -0.039195035, -1.0373089, 1.6476413, 2.3302221, 0
964, 2071103209, -0.8396177, -0.05184256, 0.53891176, -0.04395132, -1.870929, 2.3558576, 0.6119051, 0
965, 2071119876, -0.83811975, -0.051693108, 0.54103917, -0.04650257, -2.3820689, 2.751859, -0.99399185, 0
968, 2071169877, -0.83450425, -0.05733335, 0.5448611, -0.058694296, -2.9116788, -0.048305243, -1.4279137, 0
969, 2071186544, -0.8328547, -0.058101267, 0.54678357, -0.06330744, -2.393705, -0.05478832, -1.0562773, 0
970, 2071203211, -0.8311645, -0.05838385, 0.5487633, -0.067960195, -1.5937575, 0.39640066, -1.1640434, 0
972, 2071236545, -0.82865155, -0.061492734, 0.55078477, -0.07870489, -1.4723873, 0.9716097, -2.3679738, 0
973, 2071253212, -0.82832605, -0.060199603, 0.5511455, -0.08058135, -1.5780625, 1.6929716, -3.2122598, 0
974, 2071269879, -0.8285928, -0.057108764, 0.5510738, -0.08058064, -1.5475578, 2.0098522, -4.150389, 0
976, 2071303213, -0.83252335, -0.05344213, 0.5457531, -0.07877389, -2.0598648, 0.5153037, -5.119272, 0
977, 2071319880, -0.8354479, -0.054504223, 0.5411372, -0.07892896, -2.2348397, -1.151281, -5.2169094, 0
978, 2071336547, -0.8387138, -0.05384583, 0.5362281, -0.07824437, -0.72543925, -1.1765336, -5.6217656, 0
980, 2071369881, -0.8490922, -0.060319833, 0.51859784, -0.08039386, -0.2846234, -2.9012349, -2.6734247, 0
982, 2071403215, -0.85997045, -0.06542534, 0.498578, -0.08714005, 0.85602355, -1.0935011, -6.021859, 0
984, 2071436549, -0.8686565, -0.062332083, 0.48241836, -0.09394677, 2.884219, -3.9976556, -6.3336043, 0
985, 2071453216, -0.87165004, -0.06921054, 0.47520432, -0.09808235, 4.214035, -1.591742, -3.0280676, 0
986, 2071469883, -0.8742059, -0.08272618, 0.4668789, -0.10463, 7.0075355, -1.3390951, -3.370812, 0
988, 2071503217, -0.8815765, -0.09468385, 0.44987074, -0.10713193, 2.711457, 5.731491, 7.433958, 0
989, 2071519884, -0.8850592, -0.08805762, 0.4455324, -0.102078535, 4.986361, 4.7625017, 10.849504, 0
990, 2071536551, -0.887812, -0.08930577, 0.44104534, -0.09641785, 8.816315, 5.5191255, 11.012724, 0
993, 2071586552, -0.893341, -0.13109341, 0.41883668, -0.0966177, 6.6577015, -0.5127403, 8.848356, 0
995, 2071619886, -0.89477116, -0.13279964, 0.41288546, -0.10619412, -0.69858974, 0.24402106, 4.4993076, 0
996, 2071636553, -0.8957583, -0.13613486, 0.40807387, -0.11208415, -1.1819432, -2.1480057, 5.5759583, 0
997, 2071653220, -0.89701474, -0.13844995, 0.40354088, -0.115558535, -4.2031846, 0.25018072, 7.1841297, 0
999, 2071686554, -0.90036404, -0.13285384, 0.3980914, -0.114981234, -3.0264208, 4.8686395, 5.8966618, 0
1000, 2071703221, -0.90176284, -0.13131398, 0.39502296, -0.11636214, -1.1699703, 1.7052311, 1.3861313, 0
1001, 2071719888, -0.902645, -0.13063663, 0.39287156, -0.11756217, -0.951958, 0.23466033, -0.18905067, 0
1003, 2071753222, -0.9020814, -0.1256822, 0.39668235, -0.114451945, -0.84853834, 1.2635465, -1.2545376, 0
1004, 2071769889, -0.9007373, -0.12415802, 0.400798, -0.112343155, -0.21174611, 1.2693621, -0.9640608, 0
1005, 2071786556, -0.89888257, -0.12139724, 0.40628967, -0.11047493, 0.058956236, 0.42063612, -1.227355, 0
1007, 2071819890, -0.8941853, -0.115461074, 0.41916743, -0.1067847, 0.28030023, 0.12790093, -0.9726391, 0
1008, 2071836557, -0.89130336, -0.1121975, 0.42660567, -0.104882956, 0.118890114, -0.47855505, -1.6075506, 0
1011, 2071886558, -0.8806523, -0.10346264, 0.4515292, -0.09935405, 0.19010715, -0.7912393, -1.6382046, 0
1012, 2071903225, -0.8768602, -0.101953216, 0.45943752, -0.09819235, -0.12544352, -0.50903964, -1.9003925, 0
1013, 2071919892, -0.87362856, -0.09865826, 0.4665505, -0.09681477, -0.4407139, -0.52053094, -2.279973, 0
1015, 2071953226, -0.86640036, -0.09119479, 0.48219755, -0.092316404, -0.10877348, 0.046005614, -2.4789524, 0
1016, 2071969893, -0.86241424, -0.08864294, 0.49007946, -0.09060423, -0.61360973, -0.37918252, -2.8693519, 0
1018, 2072003227, -0.8537353, -0.085053355, 0.50629574, -0.0870036, -0.25137922, 0.21319577, -2.7743478, 0
1019, 2072019894, -0.8500566, -0.08202252, 0.5133645, -0.0844742, -0.39598247, 0.0892074, -2.70678, 0
1020, 2072036561, -0.84683335, -0.0793203, 0.51935667, -0.08278373, -0.5362378, -0.6933695, -1.8127522, 0
1022, 2072069895, -0.8393592, -0.07755774, 0.53202957, -0.0800535, -0.21708472, -0.7665073, -1.8900967, 0
1023, 2072086562, -0.8354747, -0.07564347, 0.5386602, -0.078153774, 0.2642082, -0.4256582, -1.7561035, 0
1026, 2072136563, -0.82750297, -0.078686446, 0.55049425, -0.07750042, -0.67839134, -1.3371104, 0.096933365, 0
1027, 2072153230, -0.8245878, -0.08004062, 0.5546321, -0.077682465, -0.9679179, -0.8775594, 0.072906494, 0
1028, 2072169897, -0.8213501, -0.07995163, 0.5594108, -0.077808976, -0.8224982, -0.21788394, 0.49624157, 0
1030, 2072203231, -0.815072, -0.07240559, 0.56966436, -0.07681539, -0.32193017, 0.087051615, 0.7478523, 0
1032, 2072236565, -0.8103335, -0.0711333, 0.5764638, -0.07740915, 0.09273285, -0.6792965, 0.9308281, 0
1034, 2072269899, -0.8063925, -0.07372376, 0.58108234, -0.08149879, 0.30517074, -0.51927817, 0.35305405, 0
1035, 2072286566, -0.8050832, -0.07433167, 0.58258015, -0.08318139, 0.7147542, 0.3841223, 0.0725832, 0
1036, 2072303233, -0.8047142, -0.072639495, 0.5831839, -0.084011376, 0.19727165, 0.7022136, -0.6832571, 0
1039, 2072353234, -0.8108731, -0.080186054, 0.57308155, -0.087381534, -1.6764082, 0.13540001, -1.5836134, 0
1040, 2072369901, -0.8142831, -0.07934448, 0.5682702, -0.0878599, -1.5212044, 0.7809849, -2.4989548, 0
1043, 2072419902, -0.83109725, -0.06393578, 0.546746, -0.07912874, -2.2230773, 0.20550652, -4.701951, 0
1045, 2072453236, -0.8435084, -0.049447663, 0.5297208, -0.07380603, -1.4409499, -0.3306857, -7.030842, 0
1046, 2072469903, -0.8494022, -0.04304589, 0.5208184, -0.07358007, -0.37721187, -1.8164445, -9.4702, 0
1049, 2072519904, -0.8658317, -0.04444176, 0.49270424, -0.07487273, 2.810744, -4.249773, -7.40776, 0
1050, 2072536571, -0.87083006, -0.04883413, 0.4835965, -0.07353668, 0.7401037, 0.5483824, -1.0877714, 0
1051, 2072553238, -0.8746062, -0.032225337, 0.4792265, -0.06610914, 1.0812006, 3.9921515, 5.973318, 0
1053, 2072586572, -0.8817436, -0.011529399, 0.4685391, -0.053565048, 7.5248165, 3.285822, 12.3473, 0
1054, 2072603239, -0.8858586, -0.024633596, 0.4606655, -0.049374867, 9.109714, 2.3270001, 13.7615795, 0
1055, 2072619906, -0.8894581, -0.035473213, 0.45330107, -0.046118308, 8.97025, 0.19386765, 13.522074, 0
1057, 2072653240, -0.89445394, -0.045256194, 0.44275013, -0.043349724, 5.9860196, 1.6619745, 6.097167, 0
1059, 2072686574, -0.897001, -0.056194566, 0.43618673, -0.044447165, -0.02748494, 2.825298, 1.9834719, 0
1061, 2072719908, -0.89876544, -0.06276817, 0.43132305, -0.047370862, -3.8838308, -0.46442902, 3.6874208, 0
1062, 2072736575, -0.89956105, -0.060665883, 0.4300946, -0.04616122, -2.2289293, 2.2936454, 4.9941416, 0
1063, 2072753242, -0.900224, -0.058355145, 0.42915633, -0.044937003, 0.14545374, 1.6446916, 5.4918013, 0
1066, 2072803243, -0.90073645, -0.06456856, 0.42685813, -0.047956083, -0.8324781, -1.9009038, -0.39037323, 0
1067, 2072819910, -0.8996467, -0.06523212, 0.42900774, -0.048332084, -0.071935184, -1.0927063, -0.7263737, 0
1069, 2072853244, -0.8965086, -0.06928773, 0.4348797, -0.04852005, 0.39139488, 0.30203858, -0.85494137, 0
1070, 2072869911, -0.89462847, -0.071860775, 0.43816057, -0.04994307, 0.35233733, 0.53433084, -0.7707319, 0
1072, 2072903245, -0.88980114, -0.075113066, 0.44700092, -0.05296038, 0.0017693286, -0.24623668, -1.1371975, 0
1073, 2072919912, -0.88698906, -0.07790535, 0.45189208, -0.05456656, -0.07658269, -0.08476997, -0.80432224, 0
1074, 2072936579, -0.8840029, -0.07951246, 0.4572347, -0.056177117, -0.26548356, -0.38966253, -0.95312977, 0
1076, 2072969913, -0.8770892, -0.07854707, 0.4703374, -0.057710625, 0.21403198, 0.19754492, -1.1892548, 0
1077, 2072986580, -0.87352633, -0.07941222, 0.47675046, -0.05794213, -0.01422347, -0.032114062, -0.8004627, 0
1078, 2073003247, -0.86983323, -0.08094105, 0.48327667, -0.057319444, -0.23884192, 0.38017902, -0.77779865, 0
1080, 2073036581, -0.8625579, -0.079590894, 0.49677882, -0.05360058, -0.2150778, 0.6504219, -1.5530443, 0
1082, 2073069915, -0.85546565, -0.08153652, 0.5089705, -0.049819697, -1.0881859, -0.11933484, -1.4252796, 0
1084, 2073103249, -0.8471495, -0.080548696, 0.52329296, -0.04491096, -1.5050151, -0.18343575, -1.7403421, 0
1085, 2073119916, -0.84258634, -0.08007697, 0.5308742, -0.04256063, -0.70865834, -0.24251477, -1.5329161, 0
1086, 2073136583, -0.83818096, -0.07888117, 0.53811014, -0.040874146, -0.5192224, -0.3139057, -1.6459227, 0
1089, 2073186584, -0.8270635, -0.0754496, 0.5556898, -0.038534638, -0.6970044, -1.3219258, -1.2800083, 0
1090, 2073203251, -0.82403475, -0.07386266, 0.56047076, -0.037234038, -1.0085257, -1.5799828, -0.98768044, 0
1092, 2073236585, -0.8160022, -0.08032743, 0.5711469, -0.03849786, 0.20062567, -1.7028978, -1.2785492, 0
1093, 2073253252, -0.81283695, -0.08017275, 0.5754581, -0.041465625, -0.5643608, -1.0298997, -0.09484577, 0
1094, 2073269919, -0.8104755, -0.07891802, 0.5788042, -0.043474358, -0.9484173, -1.0584877, 0.40063477, 0
1096, 2073303253, -0.8060143, -0.07747346, 0.58495593, -0.046565045, -1.4939767, -0.21437499, 0.25257683, 0
1097, 2073319920, -0.80256516, -0.07631564, 0.58975667, -0.0474872, -0.5785128, 0.71227014, 0.3430872, 0
1099, 2073353254, -0.7986388, -0.076842494, 0.5946665, -0.051439017, -0.024301104, 0.12645732, 0.7542391, 0
1100, 2073369921, -0.797282, -0.07975829, 0.5958574, -0.05419255, 0.36896446, -0.06299514, 1.491086, 0
1101, 2073386588, -0.79630286, -0.081369355, 0.59682184, -0.05556362, -0.123034045, 3.8069845E-4, 1.1127911, 0
1104, 2073436589, -0.7945156, -0.085186794, 0.59813005, -0.0610872, 0.34665117, -0.22467573, 0.49947357, 0
1105, 2073453256, -0.7946501, -0.08343034, 0.5982043, -0.061032973, 0.17433295, 0.407779, -0.0497818, 0
1107, 2073486590, -0.79629344, -0.07633485, 0.5972168, -0.058521897, -0.6047268, -0.14953099, -0.63562775, 0
1108, 2073503257, -0.7978979, -0.074305646, 0.59546286, -0.057136264, -0.63500524, -0.5942478, -0.3675251, 0
1109, 2073519924, -0.8002103, -0.07178226, 0.59288955, -0.054733057, -0.71553695, -0.36629948, -0.3151245, 0
1111, 2073553258, -0.8074197, -0.06517191, 0.58438414, -0.048210636, -1.0383857, 0.08581162, -1.1101351, 0
1112, 2073569925, -0.8121352, -0.061524477, 0.5785095, -0.04450613, -1.0153108, 0.6367323, -2.4071064, 0
1113, 2073586592, -0.8177982, -0.051617853, 0.5719702, -0.037344158, -1.5976541, 0.73543686, -3.4638577, 0
1115, 2073619926, -0.83166, -0.02877127, 0.5541732, -0.020227533, -0.93482685, -1.0210146, -4.1390257, 0
1116, 2073636593, -0.8395327, -0.022222776, 0.5426674, -0.014349949, -1.0479401, -0.8733723, -4.525884, 0
1119, 2073686594, -0.8621515, -0.015595068, 0.5062395, -0.0132727325, 0.34507194, -4.9788966, -9.492854, 0
1120, 2073703261, -0.86778253, -0.025767447, 0.49598303, -0.01713429, 2.8962276, -5.1633663, -11.02168, 0
1121, 2073719928, -0.873154, -0.03616336, 0.48568287, -0.020242983, 0.1613017, -3.6844158, -7.0299892, 0
1123, 2073753262, -0.88004756, -0.012262264, 0.4746776, -0.0070834905, 3.2536612, 2.5432618, 5.134528, 0
1124, 2073769929, -0.8827964, -0.003198076, 0.46974096, -0.0025589913, 10.620969, 5.206781, 11.839413, 0
1125, 2073786596, -0.8858924, -0.019255806, 0.46348485, -0.002920065, 9.0297, -0.79107124, 11.7443905, 0
1127, 2073819930, -0.890397, -0.055501442, 0.4517426, -0.0066505335, 6.814113, -3.2025137, 9.627945, 0
1128, 2073836597, -0.89163566, -0.060878742, 0.4485598, -0.008756891, 3.1094358, 2.356481, 7.236023, 0
1130, 2073869931, -0.89388734, -0.07838023, 0.4406619, -0.025336685, -2.2003326, 1.2819734, 5.6808987, 0
1131, 2073886598, -0.89480656, -0.081110284, 0.4378278, -0.03243814, -2.6931312, 1.9516872, 7.253132, 0
1134, 2073936599, -0.89707303, -0.09363121, 0.42890003, -0.05040751, -1.8173413, 1.2238849, 4.0235395, 0
1135, 2073953266, -0.8965583, -0.09492856, 0.42912707, -0.054997623, -0.9697371, 1.9544799, 1.663702, 0
1136, 2073969933, -0.8954945, -0.09618497, 0.430506, -0.05920738, -0.6090558, 1.978886, 0.5629864, 0
1138, 2074003267, -0.8919433, -0.10315391, 0.4351249, -0.06682636, -0.8477044, 1.23835, -0.21199226, 0
1139, 2074019934, -0.88957953, -0.10697527, 0.43847573, -0.07033195, -1.3104218, 0.415871, -0.020194054, 0
1140, 2074036601, -0.8868406, -0.110128775, 0.44278204, -0.073022686, -1.0937173, 0.21574275, -0.16016674, 0
1142, 2074069935, -0.8814893, -0.10931555, 0.45300993, -0.076235175, 0.20016792, 0.3415087, -0.6492462, 0
1143, 2074086602, -0.8790812, -0.10882202, 0.4576285, -0.077156566, -0.085931346, 0.50054914, -1.1160002, 0
1144, 2074103269, -0.87695307, -0.1105112, 0.46096465, -0.07908821, -0.3732103, -0.16945858, -1.269167, 0
1146, 2074136603, -0.87283343, -0.11930983, 0.4653166, -0.086082645, -0.57636684, -0.8174728, -1.1758795, 0
1147, 2074153270, -0.8710412, -0.12113057, 0.46726865, -0.09098092, -0.12861606, -0.55053884, -1.2316704, 0
1150, 2074203271, -0.86411333, -0.119175, 0.47727698, -0.10637222, 0.55724174, -1.2944541, -3.9729934, 0
1151, 2074219938, -0.86111885, -0.123181075, 0.48021975, -0.112660065, 0.5429984, -1.1370636, -3.8534474, 0
1153, 2074253272, -0.85432994, -0.12545402, 0.48884386, -0.12416207, 1.3024368, -0.85787773, -3.6360936, 0
1154, 2074269939, -0.85065544, -0.12911242, 0.49263114, -0.13051018, 0.44948968, -0.9063611, -3.4859366, 0
1155, 2074286606, -0.84615016, -0.13772771, 0.49575984, -0.13887444, 0.20359325, -1.2356161, -3.4412065, 0
1157, 2074319940, -0.8370016, -0.14642014, 0.5045789, -0.15294638, 0.6869072, 0.61854196, -1.9314609, 0
1159, 2074353274, -0.82908005, -0.14563678, 0.51539385, -0.16058686, 0.60015774, 1.7435906, -0.56265926, 0
1161, 2074386608, -0.8221568, -0.150427, 0.524017, -0.1638257, 0.35204542, 3.1079464, 1.2825804, 0
1165, 2074453276, -0.81676584, -0.14049405, 0.5415143, -0.1411387, -1.0259649, 2.7917082, 3.3329325, 0
1166, 2074469943, -0.8172126, -0.13195084, 0.54569805, -0.13026577, -1.4280936, 1.2504206, 2.3452454, 0
1167, 2074486610, -0.8188686, -0.119020164, 0.5490953, -0.117412426, -1.3074422, -0.08586177, 1.2452087, 0
1169, 2074519944, -0.82381296, -0.09216055, 0.5517841, -0.09152077, -3.0082283, -1.1421928, -0.4009142, 0
1170, 2074536611, -0.82590973, -0.08370075, 0.5516358, -0.08104433, -4.7678585, -1.8983233, -0.0339365, 0
1171, 2074553278, -0.8269275, -0.074628346, 0.5529114, -0.07009621, -4.7019024, -3.1169395, 0.41318226, 0
1173, 2074586612, -0.8258242, -0.06133149, 0.55853087, -0.04794633, -2.8114052, -2.357736, -0.7145443, 0
1174, 2074603279, -0.82512856, -0.05717375, 0.56066936, -0.039331194, -1.2903097, -1.8362112, -1.3170958, 0
1177, 2074653280, -0.8235855, -0.045629937, 0.5648919, -0.022910336, -1.4200015, -0.7690077, -2.461934, 0
1179, 2074686614, -0.8240961, -0.033455912, 0.56527406, -0.014642747, -1.0793238, 0.35025978, -4.7813993, 0
1182, 2074736615, -0.830125, -0.035695598, 0.55635405, -0.009558156, -0.8875229, 1.4895095, -4.8740644, 0
1184, 2074769949, -0.84000295, -0.035777118, 0.5413644, -0.0065333545, -0.9229863, 2.7508056, -6.1200256, 0
1185, 2074786616, -0.84575474, -0.036265727, 0.53231055, -0.005668469, -0.33601362, 2.5502255, -7.3769393, 0
1186, 2074803283, -0.8515722, -0.035347514, 0.5230219, -0.0051280074, 0.16145146, 2.7045894, -7.3716073, 0
1188, 2074836617, -0.862318, -0.028943364, 0.5055413, -8.804202E-4, 0.6614338, 0.47511148, -8.033667, 0
1189, 2074853284, -0.86624706, -0.01979236, 0.49922287, 0.0019490533, 3.059905, 1.5567331, -6.3428574, 0
1190, 2074869951, -0.87030536, -0.011731366, 0.4923668, 0.0029467084, -0.14101611, -0.19687302, 0.8019781, 0
1192, 2074903285, -0.8776045, -0.030777823, 0.47836488, -0.005751636, 7.500149, -4.2551637, 8.762165, 0
1193, 2074919952, -0.8812572, -0.037084103, 0.47106817, -0.010409415, 9.022893, -7.98711, 11.80448, 0
1194, 2074936619, -0.88561594, -0.037083592, 0.46263808, -0.01667546, 8.419354, -6.1096263, 14.788424, 0
1197, 2074986620, -0.89690125, -0.014359465, 0.44146037, -0.02185971, 7.2310486, -0.78948027, 9.438919, 0
1201, 2075053288, -0.90340143, 0.027633939, 0.42788684, -0.004240684, -6.6691046, -4.3819437, 4.0125036, 0
1205, 2075119956, -0.90593797, 0.020156674, 0.42292637, 0.002555322, -2.7537448, 1.446456, 2.089489, 0
1207, 2075153290, -0.9050928, 0.017094567, 0.42483905, 0.0054192245, -1.653094, -0.0071738157, -1.5754089, 0
1208, 2075169957, -0.90392095, 0.015465153, 0.42738017, 0.006067019, -0.98373437, -0.36639333, -1.9979177, 0
1209, 2075186624, -0.90259355, 0.013420058, 0.43023846, 0.0065355897, -0.50108474, -0.95579535, -1.755537, 0
1212, 2075236625, -0.8980356, 0.0073573627, 0.43980184, 0.0074342787, -1.5912282, 0.10826864, -1.8879323, 0
1213, 2075253292, -0.89605755, 0.006489305, 0.44381905, 0.008133285, -0.5828058, 0.27298656, -3.0570388, 0
1215, 2075286626, -0.891487, 0.0058065765, 0.45288053, 0.010919437, -0.738234, 0.20187774, -2.8618622, 0
1216, 2075303293, -0.8883167, 5.611591E-5, 0.45907167, 0.012227524, -0.63683915, -0.2259744, -3.4706697, 0
1220, 2075369961, -0.87430304, -0.013139661, 0.48476982, 0.020562686, -0.7616604, 1.7582498, -1.8548865, 0
1221, 2075386628, -0.8703786, -0.014184376, 0.49168208, 0.022172015, -0.42811984, 1.5615562, -1.7912416, 0
1223, 2075419962, -0.8619168, -0.012642504, 0.506126, 0.027909555, -0.80263346, -0.5566395, -2.7235336, 0
1224, 2075436629, -0.85860133, -0.009111952, 0.5115548, 0.032175656, -2.266968, 0.21757866, -1.3415966, 0
1225, 2075453296, -0.8547894, -9.25418E-4, 0.5175683, 0.0382135, -2.6826105, 1.0305027, -1.1549721, 0
1227, 2075486630, -0.8482513, 0.004970152, 0.52736217, 0.048344582, -1.4180462, -0.35139593, -1.6064558, 0
1228, 2075503297, -0.84527594, 0.0012556706, 0.5320081, 0.049771473, -2.0598583, -1.2957946, -1.0838509, 0
1229, 2075519964, -0.8418273, -0.0020486657, 0.53738594, 0.050415702, -2.4908807, -1.5412799, -0.9707184, 0
1231, 2075553298, -0.8345121, -0.0019817837, 0.5486432, 0.050783433, -1.7052624, 1.2116772, -0.7814884, 0
1232, 2075569965, -0.8315317, 0.0016690977, 0.553081, 0.051542368, -1.7634077, 2.8494375, 0.5517397, 0
1234, 2075603299, -0.8274657, 0.008944796, 0.55874234, 0.05504946, -1.0226737, 0.07782473, -1.1072931, 0
1235, 2075619966, -0.8255644, 0.0065029114, 0.56177837, 0.052999295, -1.5522052, -1.5832142, -0.9136572, 0
1236, 2075636633, -0.82311106, 0.002179442, 0.5658017, 0.048524585, -2.677538, -1.7292067, -1.2542133, 0
1239, 2075686634, -0.8180265, 0.028774086, 0.5720993, 0.052058324, -1.5731369, 7.143136, 2.6440458, 0
1240, 2075703301, -0.8166738, 0.037457936, 0.57298255, 0.0577461, -1.035268, 0.7205217, -3.516141, 0
1243, 2075753302, -0.81967646, 0.0173858, 0.57118326, 0.0397602, -1.9413247, -0.7393059, 0.20549202, 0
1244, 2075769969, -0.8236198, 0.029901875, 0.5649633, 0.0396952, 0.4950262, 4.2944026, 1.7662191, 0
1246, 2075803303, -0.8364082, 0.047927566, 0.5445719, 0.039603923, 0.75531965, -0.79842234, -6.9389443, 0
1247, 2075819970, -0.8435799, 0.035804182, 0.53452957, 0.037038032, 1.7881407, -0.2963902, -8.734091, 0
1250, 2075869971, -0.8618857, 0.033238076, 0.50499254, 0.032149516, 1.9607651, 1.9264481, -9.337763, 0
1251, 2075886638, -0.8657506, 0.048496913, 0.49703303, 0.03294157, 4.3592806, 1.7751095, -9.816461, 0
1252, 2075903305, -0.8716373, 0.048673958, 0.48673257, 0.031200841, -1.1606636, -1.9181803, -3.5013561, 0
1254, 2075936639, -0.8807773, 0.022154659, 0.47236618, 0.02477894, 3.6711895, -3.6361427, 3.7537756, 0
1255, 2075953306, -0.8836516, 0.026565233, 0.46682993, 0.022956215, 8.219975, -4.157673, 4.779276, 0
1258, 2076003307, -0.89518875, 0.028956592, 0.4445804, 0.012245499, 9.391701, -1.4843701, 10.829424, 0
1259, 2076019974, -0.89844203, 0.033712164, 0.43769997, 0.009337235, 8.505768, -0.6640231, 10.092848, 0
1260, 2076036641, -0.900189, 0.048898906, 0.4326613, 0.008708082, 5.8006687, 0.46970442, 9.481218, 0
1262, 2076069975, -0.8994596, 0.082180366, 0.42916772, 0.0060722493, 1.1449728, -1.6372142, 2.6442318, 0
1265, 2076119976, -0.89940673, 0.07688574, 0.4302842, -0.0038109422, -6.5922523, -2.4090183, 8.3071785, 0
1267, 2076153310, -0.9017775, 0.06721272, 0.42685854, -0.008636206, -2.9647872, 3.6211317, 10.72024, 0
1273, 2076253312, -0.90198696, 0.05034454, 0.4287115, -0.0097038075, -1.2073463, 1.8483214, -0.04627037, 0
1274, 2076269979, -0.90067124, 0.05105752, 0.4314538, -0.0059162825, -1.0070372, 1.2862375, -0.17225838, 0
1275, 2076286646, -0.89919966, 0.050380774, 0.4346308, -8.683726E-4, -1.9613289, 0.52085584, -0.88452053, 0
1277, 2076319980, -0.8960139, 0.049177445, 0.4411801, 0.010164186, -1.5180712, -0.052826393, -1.1033335, 0
1278, 2076336647, -0.89369434, 0.04976844, 0.44556302, 0.017606419, -1.5455844, 0.30353156, -1.4144268, 0
1279, 2076353314, -0.8904595, 0.049911655, 0.4515999, 0.025518924, -0.9873495, 0.8800785, -2.670343, 0
1281, 2076386648, -0.8825163, 0.04836846, 0.4657821, 0.043308336, -0.80406284, 0.6785734, -2.9346933, 0
1282, 2076403315, -0.8778315, 0.047370672, 0.47387114, 0.051153585, -0.8095979, 0.95011604, -3.9140282, 0
1283, 2076419982, -0.8732439, 0.04521081, 0.4817189, 0.057884578, -0.6277661, -0.19886649, -3.134851, 0
1286, 2076469983, -0.8570471, 0.04535508, 0.5074262, 0.077038124, -1.2455142, -0.20241922, -2.8417273, 0
1289, 2076519984, -0.84077144, 0.045128696, 0.5321458, 0.088828355, -1.2709557, -1.0154929, -2.4882517, 0
1290, 2076536651, -0.83576083, 0.045543835, 0.5395522, 0.09118993, -1.666403, -0.5088057, -2.5319414, 0
1292, 2076569985, -0.8248678, 0.04620836, 0.55599415, 0.09127653, -1.0417633, 0.15796544, -2.105919, 0
1293, 2076586652, -0.82000875, 0.04516422, 0.56336683, 0.090369344, -0.50551903, 0.14869116, -2.0833335, 0
1294, 2076603319, -0.8165734, 0.04333211, 0.5686964, 0.08898142, -0.6156468, 0.82439256, -0.86211586, 0
1296, 2076636653, -0.8109235, 0.04207167, 0.57712656, 0.0869534, -1.8452755, 1.0047982, -0.8757181, 0
1297, 2076653320, -0.8080739, 0.0402814, 0.5814055, 0.085816875, -2.0802686, 1.1242979, -0.4434204, 0
1298, 2076669987, -0.8047213, 0.039927706, 0.5862349, 0.08462135, -2.0073745, 1.6909811, -0.39859962, 0
1300, 2076703321, -0.79758793, 0.044149656, 0.5958614, 0.082803264, -1.7670178, 1.2036586, -1.492156, 0
1302, 2076736655, -0.7938368, 0.047596466, 0.6004359, 0.08388829, -0.8610506, 0.9925675, -1.806674, 0
1304, 2076769989, -0.79807925, 0.04270549, 0.59523696, 0.08331671, 0.02319975, 1.099779, -0.82703114, 0
1305, 2076786656, -0.8027512, 0.041846544, 0.58884436, 0.08428873, -0.8532381, 0.9044158, -2.7373128, 0
1306, 2076803323, -0.8079563, 0.04262426, 0.5813305, 0.08629953, -0.18596323, 0.62218505, -3.4871845, 0
1308, 2076836657, -0.82118714, 0.033835158, 0.5633702, 0.08440219, 0.9320396, 0.4927875, -5.1419983, 0
1309, 2076853324, -0.8286678, 0.026265528, 0.5532893, 0.08058296, 0.57166344, 0.05398606, -5.230542, 0
1310, 2076869991, -0.83612865, 0.023954872, 0.5423143, 0.07882404, 0.33178586, 0.603941, -6.4015617, 0
1312, 2076903325, -0.84955496, 0.03609293, 0.52009606, 0.08035296, 2.3557434, 2.3888586, -7.411407, 0
1313, 2076919992, -0.8587319, 0.017939083, 0.5072827, 0.070176944, -5.5841465, -3.5056698, -0.4800787, 0
1316, 2076969993, -0.872369, 0.026549557, 0.48452485, 0.05921447, 9.99683, -1.5199572, 3.549159, 0
1317, 2076986660, -0.87672096, 0.029615453, 0.47663403, 0.057500526, 9.489557, -2.8805504, 6.4835167, 0
1319, 2077019994, -0.88638943, 0.03017643, 0.4588875, 0.05318084, 8.271689, -2.1293547, 9.313242, 0
1321, 2077053328, -0.89210707, 0.053001337, 0.44592732, 0.04987432, 7.423563, -2.153636, 8.456448, 0
1323, 2077086662, -0.8912842, 0.09504609, 0.4403144, 0.052006975, 2.8062732, -9.030225, 2.8067722, 0
1328, 2077169997, -0.90047985, 0.09682576, 0.4188468, 0.06581116, -4.5280933, 4.6519523, 6.637829, 0
1331, 2077219998, -0.90055954, 0.08085587, 0.421466, 0.06945585, -1.8062382, -0.09909737, 0.5074434, 0
1333, 2077253332, -0.89771837, 0.07293333, 0.4283866, 0.07259656, -1.4373251, 0.3482039, -0.884346, 0
1335, 2077286666, -0.8950864, 0.058706276, 0.43609935, 0.07207219, -1.0626868, -0.57677656, -0.5823202, 0
1336, 2077303333, -0.8940119, 0.04937384, 0.43994012, 0.068997845, -1.0574561, -1.0025195, -0.9463129, 0
1340, 2077370001, -0.8883902, 0.009537462, 0.4555179, 0.056377776, 0.30293068, 1.829888, -0.52493286, 0
1347, 2077486670, -0.8645364, -0.017362237, 0.50148624, 0.028104242, -0.22711577, 0.8957696, -3.9961505, 0
1348, 2077503337, -0.8606195, -0.017097164, 0.50832176, 0.025569838, 0.6642872, 0.34220526, -3.9271731, 0
1350, 2077536671, -0.85366726, -0.01562798, 0.52002805, 0.02411576, 0.4709751, 0.99976784, -3.0799322, 0
1351, 2077553338, -0.8505571, -0.014898005, 0.5250957, 0.024657462, -0.26019323, 0.91143024, -2.8189898, 0
1352, 2077570005, -0.8481095, -0.014672924, 0.52904296, 0.02472296, -1.1090965, 0.6273576, -1.6778717, 0
1356, 2077636673, -0.8438485, 0.014769768, 0.5353435, 0.03333946, -1.6269915, 2.8866537, -0.83182335, 0
1358, 2077670007, -0.8443478, 0.028012909, 0.533792, 0.03689405, -3.615186, 1.826023, -0.83754253, 0
1359, 2077686674, -0.8440698, 0.0383566, 0.5331837, 0.042342603, -3.744252, 1.5539122, -1.1285954, 0
1360, 2077703341, -0.8432533, 0.05207961, 0.5326876, 0.04958312, -3.2345498, 1.8395344, -0.8124485, 0
1363, 2077753342, -0.84034175, 0.0817045, 0.5315193, 0.06811904, -3.000999, 0.16559975, 0.04976654, 0
1366, 2077803343, -0.8431284, 0.07519467, 0.52817714, 0.06717014, -0.60728693, -2.781269, 0.8812065, 0
1369, 2077853344, -0.84635377, 0.068491496, 0.5245352, 0.06212961, 0.82341504, 0.16649413, 2.8287697, 0
1370, 2077870011, -0.8478124, 0.06258173, 0.52321416, 0.059560925, 0.03217067, 1.2609999, 1.7328157, 0
1371, 2077886678, -0.8487094, 0.059403323, 0.52213174, 0.059539042, 0.67347986, 1.9693177, 1.5095129, 0
1373, 2077920012, -0.8502014, 0.056838565, 0.519399, 0.06445709, 0.0146664735, 0.76387095, -1.0056715, 0
1374, 2077936679, -0.85164225, 0.049523912, 0.51755244, 0.06629705, -0.29552102, -0.3905176, -2.6365352, 0
1375, 2077953346, -0.8536141, 0.041322522, 0.5147843, 0.06808372, -0.7654342, -0.9414761, -3.1452394, 0
1378, 2078003347, -0.8609547, 0.0335344, 0.5013992, 0.078957304, -1.5708725, -0.3430477, -6.567666, 0
1379, 2078020014, -0.86449784, 0.03569083, 0.49446893, 0.082903445, -1.2452899, -0.44149208, -7.857563, 0
1382, 2078070015, -0.8758961, 0.044492587, 0.4712831, 0.09338935, -0.53490525, -0.75925475, -9.485939, 0
1383, 2078086682, -0.88019556, 0.039239928, 0.46383607, 0.09260188, -0.1339868, -2.176922, -8.8721075, 0
1385, 2078120016, -0.8864553, 0.017679011, 0.45377287, 0.089315265, 3.9077199, -3.495194, -8.379402, 0
1389, 2078186684, -0.8936025, 0.06454956, 0.4277622, 0.119710416, 9.037938, 2.7228637, 16.975695, 0
1391, 2078220018, -0.90108705, 0.012278251, 0.4127793, 0.13231647, 7.5763764, -6.2803063, 18.729414, 0
1393, 2078253352, -0.9058474, -0.0060500503, 0.40217343, 0.13290347, 4.383143, -1.8318152, 8.400616, 0
1394, 2078270019, -0.90691906, -0.012745208, 0.3990441, 0.13454439, 2.352561, 1.8985385, 3.8160048, 0
1397, 2078320020, -0.9070406, -0.026357498, 0.39842793, 0.13356885, -2.5019004, 3.1001785, 2.00486, 0
1398, 2078336687, -0.9089631, -0.030548528, 0.3962915, 0.12573287, -3.811069, 0.087650985, 1.2913866, 0
1401, 2078386688, -0.90846926, -0.01878938, 0.39936554, 0.121822506, -0.9209865, 1.4247632, -0.22123718, 0
1405, 2078453356, -0.90035033, -0.01114089, 0.4157483, 0.1280673, -0.5430357, -0.3012167, -1.5343218, 0
1406, 2078470023, -0.8980896, -0.015676726, 0.42011213, 0.12921962, -2.6302981, -0.8116113, -0.19270325, 0
1408, 2078503357, -0.8909153, -0.012187111, 0.43465722, 0.13113835, -1.0453426, 0.31256807, -2.2951298, 0
1409, 2078520024, -0.887063, -0.012045827, 0.44259205, 0.13072637, -1.2057397, -0.46010318, -0.7091389, 0
1410, 2078536691, -0.8832959, -0.016029608, 0.45079458, 0.12774368, -2.1172817, -0.25033897, -1.4731731, 0
1413, 2078586692, -0.87200606, -0.012811016, 0.47510663, 0.1171235, -1.3679668, -0.09763358, -1.7521706, 0
1414, 2078603359, -0.8687739, -0.010028698, 0.48181397, 0.11397283, -1.5865698, -0.4491417, -1.3758183, 0
1417, 2078653360, -0.8581583, 0.0010714438, 0.5009802, 0.1121822, -1.021148, 1.6026808, -1.9379687, 0
1418, 2078670027, -0.85457003, 0.005494129, 0.50657254, 0.11431061, -0.5667553, 0.8743905, -1.434969, 0
1420, 2078703361, -0.84771013, 0.013125209, 0.5179152, 0.11393807, -1.4727769, 0.60700876, -1.9549975, 0
1421, 2078720028, -0.84415627, 0.016756449, 0.5234824, 0.1144045, -1.4958446, 0.37457025, -2.48803, 0
1423, 2078753362, -0.8379517, 0.02117338, 0.53415537, 0.10986121, -1.7476664, -1.126672, -1.2002087, 0
1424, 2078770029, -0.83532524, 0.021337248, 0.5389733, 0.10624184, -1.298076, -1.6006836, -1.2282295, 0
1425, 2078786696, -0.8330024, 0.027393939, 0.5427433, 0.10387028, -1.6974436, -0.045967925, 0.18284035, 0
1428, 2078836697, -0.8258172, 0.02933205, 0.55456924, 0.098089546, -0.4708314, -0.88281757, 1.1642923, 0
1429, 2078853364, -0.82251376, 0.03261853, 0.5588704, 0.10036899, -0.6823861, 0.37530354, 0.44822598, 0
1431, 2078886698, -0.81735426, 0.035514988, 0.5657424, 0.10300149, -0.7179192, -0.11748584, 0.76609516, 0
1432, 2078903365, -0.81583315, 0.0369135, 0.56765455, 0.10404366, -1.8098389, -0.35837418, 0.26272774, 0
1433, 2078920032, -0.8148528, 0.037812322, 0.568855, 0.10484364, -1.4174018, -0.49818295, 0.20201397, 0
1437, 2078986700, -0.8193294, 0.035593763, 0.5617162, 0.1091329, -1.7642604, -0.18844156, -4.085721, 0
1439, 2079020034, -0.82827485, 0.02112627, 0.5486892, 0.11161362, -1.9731145, -0.026775818, -3.0925179, 0
1440, 2079036701, -0.8329916, 0.016552938, 0.5411297, 0.11416129, -2.2769704, 0.6108644, -3.1491213, 0
1441, 2079053368, -0.8394527, 0.017503811, 0.53127855, 0.11295481, -0.5396146, 0.9004727, -3.5210304, 0
1443, 2079086702, -0.85258055, 0.01600328, 0.51016045, 0.1122042, -1.1222268, -0.65937847, -6.858159, 0
1445, 2079120036, -0.86541575, 0.011978647, 0.4891757, 0.107806265, 0.90609765, -1.9933803, -9.3090515, 0
1447, 2079153370, -0.87890464, 0.016319834, 0.46301535, 0.11349006, -1.733018, 1.2831616, -4.2304797, 0
1448, 2079170037, -0.88327914, 0.024360487, 0.45190457, 0.12251437, 0.63042545, 2.529016, 0.6032686, 0
1449, 2079186704, -0.88681, 0.033037283, 0.4415483, 0.13234401, 8.710797, 2.0540693, 6.2582703, 0
1451, 2079220038, -0.8930991, 0.016573913, 0.42324287, 0.15155056, 9.864683, -6.8457394, 9.741703, 0
1454, 2079270039, -0.89886326, -0.03002401, 0.4030572, 0.16938564, 2.2950034, -3.832565, 7.449938, 0
1456, 2079303373, -0.8985459, -0.033311196, 0.40253648, 0.17167649, -0.9063486, 7.130133, 2.5177574, 0
1462, 2079403375, -0.8983895, -0.020557312, 0.3994161, 0.18150288, -0.20994653, -0.49162707, 2.1595926, 0
1463, 2079420042, -0.89693826, -0.013866199, 0.4019359, 0.18373884, -1.062223, -0.5695608, 1.1606617, 0
1464, 2079436709, -0.8954563, -0.008790521, 0.40464354, 0.18532982, -0.6573793, -0.56629133, 1.373538, 0
1466, 2079470043, -0.8919181, -0.006342301, 0.41244492, 0.18529393, -1.8495032, -1.1575724, 1.8046103, 0
1467, 2079486710, -0.88936764, -0.0040966608, 0.41804916, 0.18505771, -0.8925433, -0.23702884, 1.7276936, 0
1468, 2079503377, -0.88671726, -1.4254637E-4, 0.42388678, 0.18454118, -0.34145716, 0.41874817, 1.8434048, 0
1470, 2079536711, -0.8818836, 0.003052298, 0.43501893, 0.18175098, -1.2010734, 1.1002645, 1.4268064, 0
1471, 2079553378, -0.8790544, 0.0032505468, 0.44152355, 0.17975709, -0.95900536, 0.21962361, 0.8967991, 0
1474, 2079603379, -0.8685132, 0.011147834, 0.46301568, 0.17657754, 0.085664466, 0.9225745, 0.59770775, 0
1475, 2079620046, -0.86441, 0.014636207, 0.47061944, 0.17635605, 0.13361828, 0.8235577, -0.17784119, 0
1477, 2079653380, -0.85493237, 0.023288788, 0.48717096, 0.17668058, 0.3750849, 0.06802389, -2.1429496, 0
1478, 2079670047, -0.85071605, 0.028249156, 0.49490038, 0.17481638, 0.52515864, -0.030595075, -2.4897552, 0
1479, 2079686714, -0.8458991, 0.030540265, 0.5034677, 0.17333557, -0.54308397, -0.47872406, -3.608263, 0
1481, 2079720048, -0.8372233, 0.032399938, 0.5203291, 0.16512974, -0.5536852, -1.5788635, -3.9387383, 0
1482, 2079736715, -0.8333991, 0.032141607, 0.52816415, 0.1595563, -0.6996027, -1.6986657, -3.4074597, 0
1483, 2079753382, -0.8299695, 0.03228789, 0.5349779, 0.154627, -0.8534666, -1.27759, -3.0254211, 0
1485, 2079786716, -0.8239965, 0.029286342, 0.5469526, 0.14497566, -1.4833179, -0.77655876, -2.2184186, 0
1486, 2079803383, -0.82166433, 0.028012963, 0.55159914, 0.14079943, -2.1174934, -0.4602369, -1.9010258, 0
1489, 2079853384, -0.8140016, 0.03005845, 0.56652147, 0.12471566, -4.060853, 0.4682468, -2.0137467, 0
1490, 2079870051, -0.8113102, 0.035089076, 0.5708856, 0.12098371, -2.7576761, -0.22138092, -2.011754, 0
1491, 2079886718, -0.809387, 0.03894282, 0.5744179, 0.11585824, -3.166385, 0.73107916, -0.8115263, 0
1493, 2079920052, -0.8050781, 0.049192272, 0.58144593, 0.1065512, -1.8520288, 0.74617606, -0.67454624, 0
1494, 2079936719, -0.80350703, 0.05183269, 0.58432966, 0.10125098, -1.8863881, 0.8017564, -0.0747385, 0
1495, 2079953386, -0.8021304, 0.04985011, 0.5874044, 0.09518955, -0.67480457, 0.29251134, 0.22739601, 0
1497, 2079986720, -0.8005237, 0.05573719, 0.58959717, 0.09183271, -0.49434853, 0.7333407, -0.54692936, 0
1498, 2080003387, -0.80053383, 0.05240157, 0.5903828, 0.08860493, 0.5394628, 0.046014052, 0.9487667, 0
1499, 2080020054, -0.80069464, 0.04970299, 0.5906852, 0.08666964, 0.32525605, 0.36757928, 0.93664265, 0
1502, 2080070055, -0.80385315, 0.04057477, 0.5874033, 0.08446179, 0.22641416, 0.65797865, -0.7787771, 0
1504, 2080103389, -0.8065802, 0.035981152, 0.5833055, 0.08883481, -0.59510237, 0.033703573, -0.6147537, 0
1505, 2080120056, -0.8086197, 0.032125995, 0.5803231, 0.091268495, -1.1450826, 0.0134396665, -1.3226376, 0
1506, 2080136723, -0.81163037, 0.026273329, 0.576069, 0.09334569, -1.476403, -0.36893913, -1.4127884, 0
1508, 2080170057, -0.8195725, 0.017501093, 0.563914, 0.09999208, -2.5187821, 0.32282305, -3.0472317, 0
1509, 2080186724, -0.82457036, 0.014937963, 0.5557107, 0.105114624, -2.2171855, -0.35883367, -2.7149916, 0
1510, 2080203391, -0.8301827, 0.012778625, 0.5461865, 0.11098131, -1.7493333, -0.23577113, -2.9120393, 0
1512, 2080236725, -0.8436273, 0.0066854637, 0.52353704, 0.11899644, -3.4036574, 0.18174261, -4.8100214, 0
1513, 2080253392, -0.85059977, 0.009063749, 0.5109648, 0.12375595, -3.7745237, 0.51693386, -5.0674305, 0
1514, 2080270059, -0.857336, 0.011253377, 0.49869055, 0.12711754, -3.8518918, 0.08028344, -5.2702885, 0
1518, 2080336727, -0.87591606, -0.003668122, 0.46242228, 0.1375725, 3.9321132, -2.6930358, -0.84713745, 0
1520, 2080370061, -0.87892646, -0.0016458742, 0.4527362, 0.15006196, 8.531971, -0.899335, 6.890747, 0
1521, 2080386728, -0.8804064, 0.00613573, 0.44681147, 0.1587746, 10.031735, -0.32302162, 9.30443, 0
1522, 2080403395, -0.8819358, 0.004655501, 0.44106868, 0.16621995, 9.635679, -2.6391356, 9.534552, 0
1524, 2080436729, -0.88406974, -0.019198399, 0.43282893, 0.17525414, 7.529312, -4.0472274, 9.690313, 0
1525, 2080453396, -0.88601065, -0.02652339, 0.42827398, 0.17568734, 3.7534187, -0.046700243, 7.579809, 0
1526, 2080470063, -0.8881906, -0.02683761, 0.42428803, 0.17429745, 0.9298814, 0.7961618, 5.1588297, 0
1528, 2080503397, -0.89037985, -0.021010602, 0.4207114, 0.17258939, 1.2274541, 4.8079805, 4.1116295, 0
1529, 2080520064, -0.8919398, -0.019298406, 0.41773358, 0.17196634, -2.652035, 2.640463, 5.2400217, 0
1531, 2080553398, -0.89389896, -0.015773952, 0.4142563, 0.17055963, -0.7360572, 0.48980233, 5.702533, 0
1533, 2080586732, -0.8953086, -0.013594997, 0.4136988, 0.1646018, -1.4184164, -0.13723774, 0.9486151, 0
1535, 2080620066, -0.89480776, -0.00958003, 0.41804045, 0.15643713, -1.5281047, 0.40737483, -0.18543053, 0
1537, 2080653400, -0.8925294, -0.0064450465, 0.4257408, 0.14865172, -1.0746564, 1.168132, 0.013285637, 0
1539, 2080686734, -0.8892576, -0.0038869623, 0.4353803, 0.14018807, -0.7385069, 1.3039259, -0.09282303, 0
1540, 2080703401, -0.8877605, -0.004535336, 0.43989584, 0.13548107, -0.8814001, 0.8843557, 0.032206535, 0
1541, 2080720068, -0.8868939, -0.008379016, 0.44342685, 0.12932357, -1.6079564, 0.43413258, 0.35764122, 0
1544, 2080770069, -0.8865637, -0.01905435, 0.44982764, 0.10629986, -0.4143469, 0.6079241, -0.570385, 0
1547, 2080820070, -0.8872725, -0.017343175, 0.4544036, 0.07724714, -0.22823176, 0.2384586, -4.6842146, 0
1548, 2080836737, -0.8866202, -0.0078114215, 0.45700955, 0.070631176, 0.43529695, 0.49821457, -5.667248, 0
1549, 2080853404, -0.885617, 0.002934346, 0.45976222, 0.06554146, 0.13788804, 0.36595228, -5.8962994, 0
1552, 2080903405, -0.87911, 0.016275598, 0.47300956, 0.056264043, -0.10679002, -0.15064706, -4.7629275, 0
1553, 2080920072, -0.8758943, 0.021475721, 0.47893503, 0.054517984, 0.72637707, 0.38761806, -3.6581283, 0
1556, 2080970073, -0.86055964, 0.0468346, 0.50338024, 0.062087636, 2.5854912, 0.6374982, -0.28345203, 0
1558, 2081003407, -0.8471511, 0.045550536, 0.52450484, 0.07181728, 2.0072906, -0.71696633, -0.28238106, 0
1559, 2081020074, -0.84169084, 0.038369108, 0.5333417, 0.07505913, -1.0807487, -1.625523, 1.2835817, 0
1560, 2081036741, -0.83639795, 0.035067394, 0.5414733, 0.07757775, -3.9075696, -0.49383876, 4.3542833, 0
1562, 2081070075, -0.8287705, 0.03989406, 0.5520704, 0.08227481, -6.5946784, 1.2443889, 1.7397194, 0
1563, 2081086742, -0.82586855, 0.045390896, 0.55543375, 0.085890725, -5.938195, 2.2819886, 2.2452745, 0
1564, 2081103409, -0.82423913, 0.048368283, 0.5569886, 0.08976209, -5.39536, 4.173079, 1.5442924, 0
1567, 2081153410, -0.8238597, 0.05353888, 0.5549048, 0.10233492, -2.5246613, 0.8489544, -0.4972067, 0
1570, 2081203411, -0.8296967, 0.04846546, 0.54384273, 0.11615853, -1.4514471, 1.1950005, -5.1542883, 0
1574, 2081270079, -0.8365238, 0.071200565, 0.5234788, 0.14536503, 1.132235, 2.901667, -7.4958, 0
1575, 2081286746, -0.8377983, 0.07930958, 0.5175391, 0.15479067, 1.3020221, 3.4367132, -7.7982054, 0
1576, 2081303413, -0.8389598, 0.08589523, 0.5114344, 0.16494322, 2.0596564, 3.2057908, -9.140081, 0
1578, 2081336747, -0.84095395, 0.10245597, 0.49816018, 0.18476689, 2.6190677, 1.8682779, -7.7460155, 0
1582, 2081403415, -0.85156345, 0.12360922, 0.46786088, 0.2016673, 4.847488, -11.189869, 10.196787, 0
1583, 2081420082, -0.85659564, 0.1256606, 0.45896813, 0.19951054, 7.357684, -10.411543, 12.087776, 0
1586, 2081470083, -0.8671137, 0.1601241, 0.42816016, 0.19787884, 8.163979, -4.861112, 10.094875, 0
1589, 2081520084, -0.87454325, 0.1698968, 0.41017815, 0.19510493, -5.0585084, -6.6748805, 6.846468, 0
1590, 2081536751, -0.876423, 0.17091578, 0.40621078, 0.19407827, -6.719548, -0.5811353, 6.7515717, 0
1591, 2081553418, -0.8781623, 0.16503617, 0.40563393, 0.19250458, -5.209224, 3.7425861, 5.734227, 0
1594, 2081603419, -0.8800942, 0.14784288, 0.40911752, 0.19026959, -0.7083898, 2.6507142, 3.7661972, 0
1598, 2081670087, -0.87584424, 0.1382214, 0.42027548, 0.19277713, -0.24555402, 0.96179837, -0.4328165, 0
1599, 2081686754, -0.8741075, 0.13641231, 0.4238119, 0.19420107, -0.54980564, 0.7852949, -0.5111685, 0
1602, 2081736755, -0.86788446, 0.13265899, 0.43571982, 0.19831665, -1.6534854, -0.22187461, -2.1872473, 0
1603, 2081753422, -0.86504024, 0.13129745, 0.44086382, 0.20027074, -1.935633, -0.47686893, -2.5167603, 0
1605, 2081786756, -0.85744923, 0.12988435, 0.45371607, 0.20507458, -1.1224605, 1.0103532, -3.7610736, 0
1609, 2081853424, -0.84270406, 0.11407627, 0.48491678, 0.20419364, -2.4498093, -0.2811765, -3.0308232, 0
1610, 2081870091, -0.83909494, 0.109866604, 0.49272093, 0.20267716, -1.8836362, 0.5109678, -2.7764182, 0
1614, 2081936759, -0.8276418, 0.1003357, 0.51752603, 0.19264284, -2.0292318, 1.2294582, -0.6591759, 0
1616, 2081970093, -0.8219466, 0.09387342, 0.5302673, 0.18550262, -1.2176094, 1.0738223, -2.0084739, 0
1617, 2081986760, -0.8190746, 0.0905019, 0.5364995, 0.18192692, -0.267676, 1.3498079, -1.0051041, 0
1620, 2082036761, -0.80822337, 0.087151654, 0.5551716, 0.17597485, 0.6214903, 1.7081302, -0.49099827, 0
1621, 2082053428, -0.8052139, 0.089083575, 0.55929106, 0.17575869, 1.4559156, 1.7668965, -0.40249825, 0
1622, 2082070095, -0.8036105, 0.090903714, 0.5609005, 0.17703156, 0.8888623, 2.7817035, 0.02736187, 0
1625, 2082120096, -0.79862356, 0.09899651, 0.56446755, 0.18379122, -1.4645771, 1.8190594, -1.3165932, 0
1628, 2082170097, -0.79267484, 0.11128315, 0.566022, 0.19724281, -0.7413131, 2.5817168, -1.9127903, 0
1629, 2082186764, -0.7924096, 0.11742251, 0.5624259, 0.20488775, -1.883003, 3.8331175, -1.6956816, 0
1632, 2082236765, -0.7920478, 0.13658074, 0.54788965, 0.2320037, -1.6611243, 1.4930724, -5.7959595, 0
1636, 2082303433, -0.80596936, 0.16263708, 0.50402117, 0.26443952, 5.2234592, 0.50079423, -7.2525597, 0
1637, 2082320100, -0.81522626, 0.16503529, 0.48923928, 0.2623308, 0.28668052, -1.6483953, -4.6973014, 0
1638, 2082336767, -0.8241036, 0.15922053, 0.47761548, 0.25959283, -1.6762798, -3.853358, -2.016101, 0
1640, 2082370101, -0.8396416, 0.15739617, 0.45450196, 0.25230828, 3.8077514, -5.6494684, 2.3133135, 0
1641, 2082386768, -0.8470304, 0.15447801, 0.444248, 0.24763416, 5.4599357, -8.656461, 4.688941, 0
1643, 2082420102, -0.8610844, 0.14787316, 0.42408845, 0.23836848, 9.50553, -6.247219, 9.141684, 0
1644, 2082436769, -0.8676009, 0.14500126, 0.41392627, 0.23433112, 8.758255, -4.8024993, 10.282957, 0
1647, 2082486770, -0.879214, 0.1685771, 0.3796052, 0.23338236, 5.0869727, -2.061242, 7.3366623, 0
1648, 2082503437, -0.88076437, 0.1826068, 0.368671, 0.2345073, 0.6882594, -1.5509428, 3.9468231, 0
1649, 2082520104, -0.88127106, 0.19407056, 0.3604999, 0.23609433, -4.600709, -2.0605721, 2.179121, 0
1655, 2082620106, -0.8911715, 0.1821848, 0.34223765, 0.23558044, -2.8435664, -0.5940176, 2.5538082, 0
1656, 2082636773, -0.89219004, 0.17786051, 0.34232563, 0.2349015, -2.7779503, 0.47281003, 0.0035972595, 0
1657, 2082653440, -0.8926784, 0.17287748, 0.34455028, 0.23350924, -1.5629792, 0.9323293, -0.9876385, 0
1659, 2082686774, -0.89244455, 0.16449311, 0.35196894, 0.22935916, -1.016655, 0.67934835, -1.2680082, 0
1660, 2082703441, -0.8917572, 0.16163738, 0.35676238, 0.22664058, -1.2283674, 0.3113381, -1.4180288, 0
1661, 2082720108, -0.8906284, 0.15852842, 0.36260653, 0.22398505, -1.4674336, 0.3895723, -2.128171, 0
1663, 2082753442, -0.8872826, 0.15083033, 0.37570527, 0.220971, -0.9384348, 1.4089406, -1.6716661, 0
1664, 2082770109, -0.8849472, 0.14703198, 0.3828364, 0.22065687, -0.50322914, 1.3249811, -2.606835, 0
1668, 2082836777, -0.8727774, 0.12984523, 0.4166605, 0.21862447, -0.2599125, 1.8311255, -1.9189811, 0
1670, 2082870111, -0.86513144, 0.12573285, 0.43526745, 0.21513757, -0.61136246, 0.4507469, -3.0154157, 0
1679, 2083020114, -0.821713, 0.11531647, 0.5164486, 0.21159777, -0.67437524, 1.9307688, -0.98213387, 0
1688, 2083170117, -0.7874527, 0.1266994, 0.55271494, 0.24160814, -1.0366312, 0.3032597, -0.6377878, 0
1690, 2083203451, -0.7829555, 0.12804762, 0.5601619, 0.23834004, -1.4843926, 1.5615692, -0.13583755, 0
1691, 2083220118, -0.7809941, 0.13274696, 0.562102, 0.23763552, -2.0371778, 2.092107, -0.47955704, 0
1694, 2083270119, -0.7751438, 0.14665405, 0.5697353, 0.23032448, -1.9772989, 1.3874031, -1.1705141, 0
1695, 2083286786, -0.7750002, 0.14846946, 0.5709814, 0.22652714, -2.178573, 1.6995761, -1.082325, 0
1697, 2083320120, -0.77478856, 0.15768237, 0.5687107, 0.22673757, -1.6056272, 2.2655463, -1.8061666, 0
1698, 2083336787, -0.77685624, 0.15949778, 0.5649461, 0.22780186, -1.0012971, 1.4073817, -3.3376455, 0
1699, 2083353454, -0.78039867, 0.16037944, 0.5598277, 0.22771108, 0.050859254, 1.925672, -2.4670658, 0
1701, 2083386788, -0.78956443, 0.16411825, 0.5447095, 0.23010379, 2.3515568, 0.6997021, -3.689518, 0
1703, 2083420122, -0.8009337, 0.17253259, 0.52171654, 0.23780741, 3.751723, -0.10019827, -6.8950686, 0
1705, 2083453456, -0.8190943, 0.1580613, 0.49746308, 0.23798041, -0.90073407, -2.0447655, -3.5780587, 0
1710, 2083536791, -0.85003275, 0.1385407, 0.45473972, 0.22685993, 8.718173, -7.385555, 6.247381, 0
1711, 2083553458, -0.8555681, 0.12943313, 0.4483231, 0.22418647, 7.127365, -6.814843, 7.9312553, 0
1713, 2083586792, -0.8656013, 0.12598568, 0.4323918, 0.21886571, 6.8250055, -4.372975, 10.461458, 0
1714, 2083603459, -0.86836314, 0.14026126, 0.42292392, 0.21773934, 7.5613317, -3.5173051, 10.233181, 0
1715, 2083620126, -0.869233, 0.15831453, 0.41428733, 0.21849322, 5.1923823, -3.0923038, 6.875265, 0
1717, 2083653460, -0.8730432, 0.16675161, 0.40471113, 0.21494412, -6.9249, -5.7276692, 4.648594, 0
1718, 2083670127, -0.8755793, 0.16437177, 0.39988598, 0.21549243, -7.0210567, -1.7702671, 8.037767, 0
1721, 2083720128, -0.88119024, 0.15142621, 0.38870305, 0.22245646, -2.2774663, 2.7180119, 5.942981, 0
1722, 2083736795, -0.8820318, 0.14762942, 0.38748023, 0.22380242, -1.9248638, 2.1475286, 1.7869205, 0
1724, 2083770129, -0.8829046, 0.13545024, 0.39012364, 0.22347067, -1.1949399, -0.3821601, 0.16386223, 0
1725, 2083786796, -0.8823436, 0.12883972, 0.39360464, 0.22349156, -1.7304171, -0.78848094, 1.3413048, 0
1726, 2083803463, -0.8809307, 0.1256482, 0.3974414, 0.22409105, -1.9127171, 9.322166E-4, 0.5106859, 0
1728, 2083836797, -0.87803787, 0.11474205, 0.40740877, 0.22339341, -1.4596174, 0.15963921, -0.61791897, 0
1729, 2083853464, -0.87668365, 0.10483318, 0.41390815, 0.22162732, -1.8550769, 0.39924973, -0.18148994, 0
1730, 2083870131, -0.874988, 0.094082415, 0.42140913, 0.21900131, -1.7681167, 1.125854, -0.1752882, 0
1732, 2083903465, -0.87304074, 0.06864195, 0.43446317, 0.21055374, -0.10535596, 3.1671383, 0.5865774, 0
1733, 2083920132, -0.8721211, 0.061882913, 0.43940702, 0.2061545, 0.23328047, 3.4037905, -1.0619707, 0
1736, 2083970133, -0.86563444, 0.05605967, 0.45702952, 0.19662464, 1.3442113, 2.138414, -4.4413066, 0
1738, 2084003467, -0.8621619, 0.050046124, 0.46903712, 0.18487719, 2.3500748, 1.5893844, -4.412017, 0
1740, 2084036801, -0.8595504, 0.04744898, 0.47978592, 0.1694998, 0.88553864, -0.53064835, -4.497228, 0
1741, 2084053468, -0.8576307, 0.049840864, 0.48531285, 0.16266486, 1.3407141, -0.42978546, -4.1109905, 0
1742, 2084070135, -0.85560006, 0.0531447, 0.4908021, 0.15569307, 1.4863685, -0.17683674, -3.5970163, 0
1745, 2084120136, -0.85036135, 0.0667372, 0.5035629, 0.13732815, -0.22087528, 1.9493763, -1.1615019, 0
1747, 2084153470, -0.8479609, 0.078574665, 0.50742, 0.1315918, -0.7093099, 2.0725071, 0.4176674, 0
1748, 2084170137, -0.8471723, 0.08678754, 0.5072871, 0.13202119, -1.2459112, 2.7667024, 0.21336174, 0
1752, 2084236805, -0.84189063, 0.11940105, 0.5031176, 0.15439884, -1.9214528, 3.0278835, -0.40168476, 0
1753, 2084253472, -0.8401949, 0.12786601, 0.50115824, 0.16299117, -1.9009817, 4.5409794, -0.1005249, 0
1756, 2084303473, -0.83386993, 0.14319786, 0.5014015, 0.18098214, -1.800832, 3.0153842, -0.9211836, 0
1757, 2084320140, -0.83059824, 0.15435442, 0.5013981, 0.18677261, 0.5630817, -0.6187184, -2.1326737, 0
1759, 2084353474, -0.82407147, 0.1683715, 0.5009144, 0.20407149, 1.757532, -2.3089373, -2.7489295, 0
1760, 2084370141, -0.82277286, 0.16429769, 0.5018281, 0.21029139, 0.7468187, -2.7550087, -1.6572285, 0
1761, 2084386808, -0.82162285, 0.16117364, 0.50318277, 0.21393666, 1.9344778, -3.1272025, -3.1725774, 0
1763, 2084420142, -0.8215894, 0.15801802, 0.50199515, 0.2191456, -2.6750264, -4.139759, 2.2924118, 0
1764, 2084436809, -0.8237724, 0.14717066, 0.5020539, 0.21836802, -2.894779, 0.7966661, 1.4721184, 0
1765, 2084453476, -0.8270513, 0.1369223, 0.50091743, 0.2152279, -2.4415078, -0.029093117, 2.946209, 0
1767, 2084486810, -0.8284306, 0.15514709, 0.49210292, 0.21787554, 1.0857804, 2.0720139, -0.5560789, 0
1768, 2084503477, -0.82914907, 0.15530111, 0.48938796, 0.22112378, 0.48114628, 0.566401, -0.7978735, 0
1771, 2084553478, -0.84324664, 0.121675104, 0.47326547, 0.22394867, -3.7511053, -2.336773, -3.1400352, 0
1772, 2084570145, -0.8485741, 0.120086946, 0.4636025, 0.22489265, -2.540866, -1.3400435, -6.8650765, 0
1773, 2084586812, -0.8525828, 0.12026389, 0.45500785, 0.22717813, -0.50485, 0.1298447, -9.601953, 0
1775, 2084620146, -0.8597191, 0.104101986, 0.44497827, 0.22812957, 1.742739, -0.68698764, -12.339119, 0
1776, 2084636813, -0.8621757, 0.09049148, 0.44430137, 0.22597255, 2.2044272, -2.3467965, -13.43255, 0
1778, 2084670147, -0.8619726, 0.08454485, 0.44269982, 0.23211046, 2.2705958, 2.3636816, -0.31124306, 0
1779, 2084686814, -0.8586287, 0.1034635, 0.43953082, 0.2426264, 8.733065, 4.6718507, 4.1524467, 0
1780, 2084703481, -0.8568545, 0.10882311, 0.43597946, 0.25275043, 8.7283745, -0.4043173, 7.877226, 0
1782, 2084736815, -0.8566059, 0.094204724, 0.43033996, 0.26863033, 4.655981, -9.652059, 14.642836, 0
1783, 2084753482, -0.8580492, 0.08483155, 0.42787147, 0.27107927, 3.2540832, -11.234512, 15.466494, 0
1784, 2084770149, -0.86004543, 0.0757669, 0.42613122, 0.27017832, 1.613127, -6.7721663, 12.202814, 0
1786, 2084803483, -0.86309135, 0.06034458, 0.42409137, 0.26754707, 2.19711, 3.9914997, 5.5235987, 0
1788, 2084836817, -0.86430013, 0.043983303, 0.42435205, 0.2664188, -1.0453303, 6.9028373, 4.1766415, 0
1790, 2084870151, -0.8673258, 0.044158608, 0.42162734, 0.26082435, -1.251779, 1.9206501, 6.2409096, 0
1791, 2084886818, -0.8691604, 0.041657478, 0.4202548, 0.25731984, -2.738309, -0.43652582, 4.838828, 0
1792, 2084903485, -0.8702503, 0.041530818, 0.4200798, 0.25392064, -3.0092125, -1.0932071, 2.8276825, 0
1794, 2084936819, -0.87075, 0.044220306, 0.42255455, 0.2475676, -1.5614723, 0.8642358, 0.19462776, 0
1795, 2084953486, -0.8701571, 0.045865253, 0.4249725, 0.24520254, -0.8121576, 0.90699667, -0.1788826, 0
1796, 2084970153, -0.8687434, 0.048338987, 0.42825404, 0.2440277, -0.17948158, 1.0182818, -0.35885715, 0
1799, 2085020154, -0.86239505, 0.053645242, 0.43988302, 0.24475053, -0.24787475, 1.1104707, -0.8438206, 0
1801, 2085053488, -0.85655385, 0.058187306, 0.4487898, 0.248033, -0.8622978, 0.5737258, -0.83240795, 0
1803, 2085086822, -0.84955925, 0.064364046, 0.4593872, 0.25114274, -0.46819437, 0.5831276, -0.98185635, 0
1805, 2085120156, -0.8408575, 0.0755142, 0.47130072, 0.25521493, -0.44519332, -0.11350127, -1.4568987, 0
1806, 2085136823, -0.83623534, 0.08101486, 0.4773404, 0.2574802, -0.4511875, -0.20460364, -1.5397921, 0
1807, 2085153490, -0.8316406, 0.08653017, 0.48313013, 0.25975883, -0.55879873, -0.20797853, -1.9828715, 0
1809, 2085186824, -0.82279485, 0.09607204, 0.49408942, 0.26392737, -1.4491879, -0.153551, -2.268836, 0
1810, 2085203491, -0.8174565, 0.10191212, 0.50078344, 0.26570243, -1.1880449, 0.26447853, -2.9823403, 0
1811, 2085220158, -0.81243396, 0.10787973, 0.5073767, 0.2662424, -0.87873155, -0.1214375, -3.0618067, 0
1813, 2085253492, -0.80325043, 0.117215894, 0.5201348, 0.26554072, -0.8701223, -0.69517016, -3.536676, 0
1815, 2085286826, -0.79574275, 0.1251873, 0.5294032, 0.2661893, -0.86268693, -0.4421949, -2.3434877, 0
1817, 2085320160, -0.7907583, 0.12677062, 0.5364232, 0.26623952, -1.8627651, 0.0034844552, -1.5410004, 0
1819, 2085353494, -0.78612965, 0.12728308, 0.5439265, 0.2644734, -3.1236696, 0.29813632, -0.7548151, 0
1821, 2085386828, -0.78050673, 0.133415, 0.55171573, 0.26195872, -2.5730567, 0.14043923, -0.6515188, 0
1822, 2085403495, -0.77828383, 0.13705619, 0.55538446, 0.25892258, -2.1439085, 0.1950944, -0.13840675, 0
1823, 2085420162, -0.7767453, 0.14170243, 0.55748475, 0.25651702, -2.3906136, 0.07023392, 0.24712563, 0
1825, 2085453496, -0.77294695, 0.15255766, 0.56150496, 0.2529709, -0.28123572, 0.05207707, 0.8654432, 0
1826, 2085470163, -0.772241, 0.15686117, 0.5625913, 0.25006512, -0.1251297, -0.13424702, 0.6742201, 0
1828, 2085503497, -0.7728003, 0.16515936, 0.56216353, 0.24387904, -0.33301374, -0.05367876, 0.93304443, 0
1829, 2085520164, -0.77393824, 0.16631982, 0.561489, 0.24101977, -1.0462586, -0.43438068, 0.8456459, 0
1832, 2085570165, -0.7808688, 0.16418462, 0.5532438, 0.23918957, -1.5690533, 0.9974848, -0.58149815, 0
1833, 2085586832, -0.78519857, 0.1586842, 0.5481219, 0.24051559, -1.837412, 1.1788447, -1.3935318, 0
1834, 2085603499, -0.79008263, 0.15218496, 0.54206026, 0.24245149, -1.8478285, 1.8336383, -1.8425646, 0
1836, 2085636833, -0.8005359, 0.14101891, 0.5270932, 0.24785405, -1.6380327, 2.165781, -3.111425, 0
1837, 2085653500, -0.80655354, 0.1353196, 0.5179776, 0.25072345, -2.502219, 1.5397618, -3.4033995, 0
1838, 2085670167, -0.81295854, 0.1273958, 0.50905913, 0.25244927, -2.6120896, 1.2217809, -3.6725373, 0
1840, 2085703501, -0.8243182, 0.12248008, 0.48927757, 0.25711584, -2.240977, 0.8631068, -6.0740666, 0
1841, 2085720168, -0.8305267, 0.119303055, 0.47870758, 0.25852287, -1.8132514, -0.4491663, -7.349718, 0
1842, 2085736835, -0.8372799, 0.11006562, 0.46966282, 0.25742498, -2.436875, -0.41334382, -8.517439, 0
1844, 2085770169, -0.8483199, 0.09087929, 0.4542698, 0.2563908, -1.5594645, -1.1864635, -9.826503, 0
1846, 2085803503, -0.85255116, 0.08684785, 0.43922344, 0.26962906, 0.19436419, 1.7871742, -3.3032718, 0
1848, 2085836837, -0.8479304, 0.11378679, 0.4236132, 0.2976935, 9.64127, -5.0552645, 8.875349, 0
1849, 2085853504, -0.84737146, 0.097458705, 0.42313176, 0.30565643, 7.502686, -9.446151, 12.350803, 0
1850, 2085870171, -0.84806025, 0.07931407, 0.4222139, 0.31022805, 5.087006, -7.935005, 13.417612, 0
1852, 2085903505, -0.85186493, 0.060630392, 0.41982967, 0.30723956, 0.31456453, -3.6714973, 9.428303, 0
1853, 2085920172, -0.8507444, 0.06386078, 0.4215429, 0.3073438, 7.0933404, 3.4071476, 5.8385954, 0
1855, 2085953506, -0.8505135, 0.060321078, 0.41907027, 0.31204343, 5.251841, 7.61342, 5.997368, 0
1856, 2085970173, -0.8541217, 0.05403555, 0.41673583, 0.3064156, -2.1740024, 2.462181, 4.9345646, 0
1857, 2085986840, -0.85655576, 0.054809436, 0.4147145, 0.30219704, -2.1489859, -1.127164, 4.868189, 0
1859, 2086020174, -0.85800815, 0.05581903, 0.4134518, 0.29961133, -0.21915087, -0.6990843, 4.110627, 0
1860, 2086036841, -0.85880905, 0.05724718, 0.41316342, 0.29743743, -0.271528, 0.5250281, 2.7591286, 0
1861, 2086053508, -0.85900784, 0.060124546, 0.41376552, 0.29545152, 0.02126547, 0.55164057, 2.0218182, 0
1864, 2086103509, -0.85813105, 0.065074176, 0.41819903, 0.29066965, -0.17105983, 0.69254375, 1.8796988, 0
1865, 2086120176, -0.85759205, 0.06653833, 0.41978237, 0.28964508, -0.17749968, 0.8127231, 1.6897497, 0
1867, 2086153510, -0.85581666, 0.06803832, 0.42395353, 0.28847003, 0.0016052701, 1.4702014, 1.1830549, 0
1868, 2086170177, -0.85456973, 0.06705491, 0.4271211, 0.28772327, 0.10146192, 1.167065, 0.8622446, 0
1871, 2086220178, -0.8492576, 0.065370224, 0.4399728, 0.2844556, 0.12910064, 0.35336116, -0.7276888, 0
1872, 2086236845, -0.84684825, 0.066379115, 0.44499043, 0.28359896, 0.12594955, 0.48795125, -1.4734468, 0
1873, 2086253512, -0.8438718, 0.06846865, 0.45041037, 0.28341877, -0.052289963, 0.5897535, -2.1199245, 0
1877, 2086320180, -0.82724303, 0.080059275, 0.4794961, 0.281684, -0.479212, 0.0066416874, -3.8050394, 0
1879, 2086353514, -0.8182885, 0.08426314, 0.4974424, 0.27542266, -0.3800013, -0.8815542, -3.7081242, 0
1880, 2086370181, -0.8133918, 0.08486377, 0.5069819, 0.27233076, -0.75783384, -0.78020877, -3.811586, 0
1882, 2086403515, -0.805978, 0.086444736, 0.52399826, 0.26144862, -1.4853171, -0.44444177, -2.3859825, 0
1883, 2086420182, -0.8025519, 0.088448055, 0.5317097, 0.25568524, -2.0142903, 0.1140766, -2.3926282, 0
1884, 2086436849, -0.7979332, 0.09317822, 0.5397862, 0.25150338, -1.8738698, -0.2245011, -2.903707, 0
1886, 2086470183, -0.7897888, 0.10614062, 0.55236053, 0.24468097, -1.9829935, 0.198998, -2.0864286, 0
1887, 2086486850, -0.785774, 0.11131178, 0.5585221, 0.24129848, -2.5988224, 0.60791874, -2.0899944, 0
1888, 2086503517, -0.7817795, 0.11724412, 0.5640633, 0.23855811, -1.6223551, 0.82317215, -1.382719, 0
1890, 2086536851, -0.7778413, 0.12814853, 0.5704432, 0.23051704, -1.0129873, 0.24566431, -0.49554348, 0
1895, 2086620186, -0.7752199, 0.14226699, 0.57573223, 0.21755318, -0.17650148, 0.75820297, 0.6022186, 0
1896, 2086636853, -0.77568424, 0.14169721, 0.5755024, 0.21687755, -0.30102098, 1.006947, 0.67511845, 0
1898, 2086670187, -0.7778616, 0.13582729, 0.5736962, 0.21761839, -0.9060844, 1.5642354, -0.63579273, 0
1899, 2086686854, -0.77978826, 0.13369061, 0.57052255, 0.22037219, -0.7634179, 1.8864588, -1.4389925, 0
1900, 2086703521, -0.7834097, 0.12887499, 0.56569046, 0.22284047, -2.094321, 1.9151909, -1.6328125, 0
1902, 2086736855, -0.79246205, 0.11624239, 0.55407774, 0.2269192, -1.6628875, 1.2123001, -3.7038488, 0
1903, 2086753522, -0.79912204, 0.10903968, 0.5451327, 0.22879604, -2.6731377, 0.9723399, -3.936801, 0
1904, 2086770189, -0.80583465, 0.10278432, 0.5356868, 0.23045297, -3.6088057, 0.879817, -4.487853, 0
1906, 2086803523, -0.8194923, 0.09470239, 0.5138942, 0.23532796, -2.6283727, 2.1812918, -5.378946, 0
1907, 2086820190, -0.82602555, 0.09327444, 0.5020953, 0.23850575, -1.6536307, 1.8342837, -5.9188795, 0
1910, 2086870191, -0.8417622, 0.09236469, 0.46687916, 0.25481722, -2.1209106, 0.75980526, -5.651199, 0
1911, 2086886858, -0.8438297, 0.08538357, 0.46003288, 0.2627425, 1.4184248, -1.1774982, -4.0102906, 0
1913, 2086920192, -0.8434738, 0.07830138, 0.45115575, 0.28086025, 7.204732, -7.2048798, 4.1766424, 0
1914, 2086936859, -0.8434288, 0.080158554, 0.44728327, 0.28660592, 8.505102, -8.061837, 7.208164, 0
1915, 2086953526, -0.84438896, 0.075872146, 0.4443622, 0.2894752, 7.1462235, -8.249471, 9.5511265, 0
