sep=,
DeviceTag:,Xsens_DOT_5,,,,,,,,,,,,,,,,,
FirmwareVersion:,3.0.0,,,,,,,,,,,,,,,,,
AppVersion:,2023.6.1,,,,,,,,,,,,,,,,,
SyncStatus:,Synced,,,,,,,,,,,,,,,,,
OutputRate:,60Hz,,,,,,,,,,,,,,,,,
FilterProfile:,General,,,,,,,,,,,,,,,,,
Measurement Mode:,Sensor fusion Mode - Extended (Quaternion),,,,,,,,,,,,,,,,,
StartTime:,2025-05-05 11:37:20.644 +0200,,,,,,,,,,,,,,,,,
 2025,,,,,,,,,,,,,,,,,,,

PacketCounter,SampleTimeFine,Quat_W,Quat_X,Quat_Y,Quat_Z,FreeAcc_X,FreeAcc_Y,FreeAcc_Z,Status
1, 1833648460, 0.29889378, -0.40190083, -0.07665928, 0.8621267, 0.0026705747, 0.13713671, -0.10974312, 0
2, 1833665127, 0.29876885, -0.40176478, -0.07656448, 0.86224186, -0.020080628, 0.102163635, -0.097203255, 0
3, 1833681794, 0.2986519, -0.40162528, -0.07650949, 0.8623523, -0.049473867, 0.09334102, -0.09902954, 0
4, 1833698461, 0.29857117, -0.40151924, -0.07648212, 0.8624321, -0.043948878, 0.08806522, -0.095308304, 0
5, 1833715128, 0.2985523, -0.40144753, -0.07644506, 0.8624753, -0.03213644, 0.110051185, -0.101638794, 0
6, 1833731795, 0.2985329, -0.4013906, -0.076435976, 0.86250925, -0.02267824, 0.12235725, -0.07914162, 0
7, 1833748462, 0.29851145, -0.4013497, -0.07641883, 0.86253726, -0.00490502, 0.11752032, -0.10339546, 0
8, 1833765129, 0.2984892, -0.40128973, -0.07641442, 0.86257327, -0.042801656, 0.12842675, -0.09588337, 0
9, 1833781796, 0.29846638, -0.40123495, -0.07640859, 0.8626071, 0.0048582777, 0.11871991, -0.108756065, 0
10, 1833798463, 0.2984421, -0.4011786, -0.07639513, 0.86264294, -0.02054538, 0.13167048, -0.10048962, 0
11, 1833815130, 0.29841927, -0.40109736, -0.07637037, 0.86269075, -0.0039115045, 0.13397434, -0.116993904, 0
12, 1833831797, 0.298383, -0.40104508, -0.076377414, 0.862727, -0.035245173, 0.11295808, -0.10333824, 0
13, 1833848464, 0.2983361, -0.4010317, -0.076393485, 0.8627481, -0.03272854, 0.13084571, -0.08654022, 0
14, 1833865131, 0.29831335, -0.40103328, -0.076384, 0.86275595, -0.023491407, 0.12931174, -0.083758354, 0
15, 1833881798, 0.298284, -0.40104625, -0.0763742, 0.86276096, -0.019870777, 0.12648956, -0.099723816, 0
16, 1833898465, 0.29827794, -0.40105066, -0.07637538, 0.8627609, -0.022609985, 0.123732634, -0.10213852, 0
17, 1833915132, 0.29825938, -0.40108764, -0.076375514, 0.86275005, -0.019721568, 0.13550897, -0.09703159, 0
18, 1833931799, 0.2982488, -0.40115327, -0.07637328, 0.8627234, -0.03108392, 0.12056892, -0.09039593, 0
19, 1833948466, 0.29827097, -0.40122256, -0.07633418, 0.86268705, -0.02645801, 0.12566401, -0.081534386, 0
20, 1833965133, 0.2982669, -0.40127584, -0.07632838, 0.86266416, 0.012078347, 0.101609886, -0.11391735, 0
21, 1833981800, 0.29828203, -0.40130267, -0.07632471, 0.8626468, 8.5658545E-4, 0.1294786, -0.102695465, 0
22, 1833998467, 0.29828483, -0.4013124, -0.07633321, 0.86264056, -0.009522658, 0.10909835, -0.10138035, 0
23, 1834015134, 0.2982813, -0.40135112, -0.07635066, 0.86262226, -0.009847296, 0.14765054, -0.09696865, 0
24, 1834031801, 0.29826412, -0.4014285, -0.0763343, 0.86259353, -0.026098853, 0.12847257, -0.07841301, 0
25, 1834048468, 0.2982502, -0.40150273, -0.076314926, 0.8625655, -0.015277921, 0.119917944, -0.0725584, 0
26, 1834065135, 0.2982436, -0.401572, -0.076314725, 0.8625355, -0.04156708, 0.11540522, -0.08864498, 0
27, 1834081802, 0.29825217, -0.40167937, -0.07632311, 0.86248195, -0.039887577, 0.1334493, -0.09494972, 0
28, 1834098469, 0.2982562, -0.40181154, -0.07632963, 0.8624184, -0.026690869, 0.1528044, -0.10778904, 0
29, 1834115136, 0.29825115, -0.4019672, -0.07629088, 0.86235106, 3.54282E-4, 0.12876268, -0.09956074, 0
30, 1834131803, 0.29821733, -0.4021121, -0.076240495, 0.86229974, 8.547973E-5, 0.12710813, -0.10088539, 0
31, 1834148470, 0.2982054, -0.40223512, -0.0761828, 0.8622514, -0.0063639306, 0.12281668, -0.105285645, 0
32, 1834165137, 0.2981763, -0.40230677, -0.07613039, 0.8622327, -0.0013100094, 0.08689759, -0.101857185, 0
33, 1834181804, 0.29819474, -0.40234643, -0.07610278, 0.8622103, -0.00925211, 0.08242811, -0.10878754, 0
34, 1834198471, 0.29820108, -0.4023483, -0.07609219, 0.86220807, -0.0037150087, 0.14152616, -0.110440254, 0
35, 1834215138, 0.29819563, -0.40233082, -0.07608336, 0.862219, -0.0032742133, 0.14098158, -0.102422714, 0
36, 1834231805, 0.29812896, -0.40227383, -0.07609026, 0.86226803, 0.0010368486, 0.13343623, -0.10535431, 0
38, 1834265139, 0.2981221, -0.40215808, -0.07614627, 0.8623194, -0.023664825, 0.1239015, -0.101656914, 0
39, 1834281806, 0.29815787, -0.40210062, -0.07621293, 0.862328, -0.06835775, -0.014566675, -0.060952187, 0
40, 1834298473, 0.29831013, -0.40223438, -0.076188244, 0.86221516, -0.009254191, 0.19775969, -0.06567383, 0
42, 1834331807, 0.2984267, -0.40305436, -0.07586161, 0.8618206, -0.008320997, 0.10258965, -0.15727615, 0
43, 1834348474, 0.29839668, -0.40323472, -0.07575755, 0.86175585, 0.13893327, 0.125352, -0.14682198, 0
44, 1834365141, 0.29828322, -0.4032319, -0.075721994, 0.8617994, 0.02169104, 0.19013934, -0.1009779, 0
46, 1834398475, 0.29723537, -0.40390998, -0.07553282, 0.86186063, -0.20109403, 0.32077494, -0.0290699, 0
50, 1834465143, 0.29475176, -0.4130444, -0.07251473, 0.85863745, -0.034687605, 0.13172267, -0.084412575, 0
51, 1834481810, 0.2941619, -0.41616657, -0.07153268, 0.85741365, -0.05035262, 0.06958696, -0.13680363, 0
52, 1834498477, 0.2934869, -0.41919008, -0.07088987, 0.8562248, -0.025220377, -0.0923227, -0.15278912, 0
54, 1834531811, 0.29266834, -0.4239472, -0.070229456, 0.85421467, 0.27190903, 0.028015561, -0.13221931, 0
55, 1834548478, 0.29239392, -0.4252139, -0.07007616, 0.85369146, 0.3032259, 0.14216118, -0.14828396, 0
57, 1834581812, 0.291216, -0.42600375, -0.070075065, 0.85370064, 0.16874492, 0.14776061, -0.09192753, 0
58, 1834598479, 0.2907348, -0.425788, -0.06990708, 0.8539859, 0.049674608, 0.04764514, -0.061623573, 0
59, 1834615146, 0.29057854, -0.42557603, -0.06970311, 0.85416144, -0.10910311, -0.030753594, -0.044210434, 0
61, 1834648480, 0.29067826, -0.42557132, -0.0694145, 0.8541533, 0.008412302, 0.06821515, -0.0889616, 0
62, 1834665147, 0.29080343, -0.4254851, -0.06935591, 0.85415846, 0.07491822, 0.10899408, -0.09436035, 0
66, 1834731815, 0.29081553, -0.42324695, -0.06916125, 0.85528135, -0.06179443, 0.041531052, -0.15447712, 0
67, 1834748482, 0.29077718, -0.42263836, -0.06934037, 0.8555808, -0.13136168, 0.10955733, -0.1462326, 0
69, 1834781816, 0.29075968, -0.42208248, -0.06959473, 0.8558405, -0.04971649, 0.13121305, -0.053709984, 0
70, 1834798483, 0.29079965, -0.42199656, -0.06962717, 0.85586643, -0.06847847, 0.10360775, -0.08003998, 0
71, 1834815150, 0.29077792, -0.42201695, -0.069706544, 0.85585743, -0.007954365, 0.14434433, -0.075016975, 0
73, 1834848484, 0.29062283, -0.4222195, -0.069644645, 0.85581505, -0.023709932, 0.14805286, -0.088994026, 0
74, 1834865151, 0.29044738, -0.42244062, -0.06960602, 0.85576886, -0.06267399, 0.116967015, -0.11392498, 0
75, 1834881818, 0.29021972, -0.42273685, -0.06959212, 0.8557008, -0.02169615, 0.12209373, -0.09770584, 0
77, 1834915152, 0.28982514, -0.4231471, -0.06953716, 0.8556363, 0.07098943, 0.05489646, -0.082001686, 0
79, 1834948486, 0.2895116, -0.42287853, -0.06967266, 0.85586417, 0.041973874, 0.11162282, -0.101714134, 0
81, 1834981820, 0.28923365, -0.42206842, -0.06993647, 0.8563363, 0.019536247, 0.061761323, -0.114925385, 0
82, 1834998487, 0.2891453, -0.42152745, -0.07022598, 0.85660887, -0.023139989, 0.09730312, -0.10799408, 0
84, 1835031821, 0.28887016, -0.4203664, -0.070614085, 0.8572401, -0.05188022, 0.10672811, -0.096915245, 0
85, 1835048488, 0.28872806, -0.42002642, -0.0708498, 0.8574352, -0.12950183, 0.07002605, -0.0960989, 0
86, 1835065155, 0.2886895, -0.4199092, -0.07111364, 0.8574838, -0.09074989, 0.08535021, -0.060355186, 0
88, 1835098489, 0.28874928, -0.41978434, -0.07121286, 0.8575166, 0.048454173, 0.19958243, -0.09285259, 0
89, 1835115156, 0.28861392, -0.4196609, -0.07121007, 0.8576228, 0.03758345, 0.1526028, -0.097828865, 0
90, 1835131823, 0.28842437, -0.41943225, -0.07119732, 0.8577995, 0.05352251, 0.14899306, -0.1034441, 0
92, 1835165157, 0.2881421, -0.4188757, -0.07108639, 0.8581753, -0.06761082, 0.087387756, -0.10227108, 0
96, 1835231825, 0.28813532, -0.41924584, -0.071075015, 0.85799783, -0.002445022, 0.18797864, -0.07024193, 0
97, 1835248492, 0.28810373, -0.41939852, -0.070969515, 0.85794264, -0.0040133707, 0.16455784, -0.09172535, 0
98, 1835265159, 0.2880295, -0.4195282, -0.07083084, 0.8579156, -0.0152374925, 0.13192762, -0.066690445, 0
100, 1835298493, 0.28788432, -0.4197104, -0.07054586, 0.8578987, -0.041357413, 0.097729474, -0.11988926, 0
101, 1835315160, 0.287784, -0.41983625, -0.07048124, 0.85787606, -0.05513728, 0.113562465, -0.08399677, 0
102, 1835331827, 0.28771496, -0.4200472, -0.0704009, 0.85780245, -0.012458431, 0.11329905, -0.083963394, 0
104, 1835365161, 0.28762013, -0.42043355, -0.0701747, 0.8576636, 0.019435974, 0.12655348, -0.086722374, 0
105, 1835381828, 0.2875249, -0.4205743, -0.07008214, 0.857634, 0.025076995, 0.14454359, -0.09748459, 0
106, 1835398495, 0.28741223, -0.42067018, -0.069990784, 0.8576322, 0.01408411, 0.11272887, -0.08986473, 0
109, 1835448496, 0.28739327, -0.42077366, -0.0697902, 0.85760415, -0.0045340024, 0.08559954, -0.11180401, 0
112, 1835498497, 0.28755322, -0.42043784, -0.06992882, 0.857704, 0.004717157, 0.15368102, -0.08202934, 0
113, 1835515164, 0.28756967, -0.42029908, -0.06990886, 0.85776806, -0.016158799, 0.12753393, -0.080934525, 0
115, 1835548498, 0.28766665, -0.4201031, -0.0697986, 0.85784054, 0.0011203587, 0.098676614, -0.110346794, 0
116, 1835565165, 0.28773075, -0.4199459, -0.069778346, 0.85789764, 0.04780069, 0.12353807, -0.13314915, 0
117, 1835581832, 0.28779402, -0.41971985, -0.06976721, 0.8579881, -0.0012262061, 0.09591477, -0.124396324, 0
119, 1835615166, 0.2879905, -0.4192295, -0.0699304, 0.8581486, -0.06719604, 0.2900066, -0.020890236, 0
120, 1835631833, 0.28801647, -0.41940236, -0.069759734, 0.8580691, -0.17232879, 0.19061084, -0.030920029, 0
121, 1835648500, 0.2880624, -0.4197187, -0.06954871, 0.85791624, -0.021560855, 0.07678743, -0.10696983, 0
124, 1835698501, 0.28767684, -0.42040873, -0.069229774, 0.85773355, 0.02540567, 0.30026507, -0.07327843, 0
125, 1835715168, 0.28708774, -0.42074302, -0.06883944, 0.8577985, -0.022619637, 0.3030061, -0.047680855, 0
128, 1835765169, 0.28439745, -0.42281753, -0.06681814, 0.85783434, -0.079716206, 0.090602316, -0.09490776, 0
129, 1835781836, 0.28347903, -0.42381948, -0.06610383, 0.8576993, -0.03814366, 0.038972612, -0.093066216, 0
131, 1835815170, 0.28206223, -0.42579672, -0.065033756, 0.8572687, -0.020489084, 0.02431318, -0.1440134, 0
132, 1835831837, 0.28150412, -0.4267183, -0.064665444, 0.8570217, 0.045300193, 0.04157352, -0.1179657, 0
133, 1835848504, 0.28108993, -0.42746738, -0.06432042, 0.85681045, 0.07950156, 0.07137048, -0.10497761, 0
135, 1835881838, 0.28021416, -0.42855763, -0.06385994, 0.856587, 0.04283599, 0.13402596, -0.092461586, 0
136, 1835898505, 0.2797821, -0.4289211, -0.06360154, 0.8565655, 0.037476346, 0.11934798, -0.08703804, 0
139, 1835948506, 0.2783647, -0.42986888, -0.062630996, 0.8566237, 0.009892642, 0.17676254, -0.090405464, 0
140, 1835965173, 0.27776238, -0.4301695, -0.062244806, 0.85669655, 0.07312954, 0.15316918, -0.11009312, 0
142, 1835998507, 0.2765191, -0.43042675, -0.061444644, 0.8570272, -0.003884711, 0.05717305, -0.06735897, 0
144, 1836031841, 0.27558362, -0.43026936, -0.0609212, 0.8574449, 0.0014690389, 0.1111654, -0.08314133, 0
146, 1836065175, 0.2743916, -0.43013346, -0.060694225, 0.8579112, -0.05572853, 0.09718735, -0.08277702, 0
147, 1836081842, 0.2738688, -0.43014407, -0.06064818, 0.8580762, -0.028469166, 0.054757435, -0.08185673, 0
148, 1836098509, 0.27351782, -0.4300674, -0.060612664, 0.8582291, 0.025956238, 0.070064045, -0.110352516, 0
150, 1836131843, 0.2731227, -0.42934695, -0.0608015, 0.858702, 0.0694484, 0.07798959, -0.13552666, 0
151, 1836148510, 0.27306896, -0.42868054, -0.060994364, 0.85903853, 0.06297252, 0.06988904, -0.114382744, 0
154, 1836198511, 0.2729208, -0.42646897, -0.061754867, 0.8601314, -0.046524696, 0.16426425, -0.09461594, 0
155, 1836215178, 0.2727107, -0.42600378, -0.062031142, 0.86040854, -0.11964825, 0.14939795, -0.0898304, 0
156, 1836231845, 0.27249512, -0.4257967, -0.062252726, 0.86056334, -0.14787273, 0.15975924, -0.07811546, 0
158, 1836265179, 0.2720974, -0.4263147, -0.06251477, 0.8604136, -0.08183055, 0.17077306, -0.054961205, 0
159, 1836281846, 0.27189577, -0.42687047, -0.062555805, 0.86019886, -0.058878608, 0.13574366, -0.07600975, 0
160, 1836298513, 0.2716807, -0.4275077, -0.062634505, 0.85994464, -0.052111305, 0.08815485, -0.11123276, 0
162, 1836331847, 0.27104807, -0.42884395, -0.06298131, 0.8594535, 0.029360257, 0.15162493, -0.061332703, 0
163, 1836348514, 0.27069476, -0.42936552, -0.063119724, 0.85929424, 0.09243846, 0.11311544, -0.11648941, 0
165, 1836381848, 0.27012265, -0.4299258, -0.06349741, 0.8591663, 0.025921594, 0.08216515, -0.11522484, 0
166, 1836398515, 0.26981393, -0.42999136, -0.06372116, 0.85921395, 0.06798056, 0.12570548, -0.07298565, 0
169, 1836448516, 0.26924786, -0.4297048, -0.064346634, 0.8594881, -0.025269983, 0.10896201, -0.085160255, 0
170, 1836465183, 0.26909074, -0.42971164, -0.06453655, 0.8595197, -0.038582847, 0.17147546, -0.08342266, 0
171, 1836481850, 0.26890045, -0.42984876, -0.0646677, 0.8595009, -0.08989652, 0.13480905, -0.07691479, 0
174, 1836531851, 0.26867482, -0.43092752, -0.06471398, 0.85902756, 0.014889791, 0.119485, -0.086800575, 0
175, 1836548518, 0.2687041, -0.4312707, -0.06467578, 0.8588491, 0.005083788, 0.1235726, -0.10747051, 0
177, 1836581852, 0.26872543, -0.43176326, -0.064845696, 0.85858226, 0.021688078, 0.06305781, -0.11868191, 0
178, 1836598519, 0.26884383, -0.4318881, -0.06499939, 0.85847074, 0.04285614, 0.06055681, -0.10136032, 0
179, 1836615186, 0.26905072, -0.43188488, -0.065165125, 0.8583948, 0.018654378, 0.09959994, -0.09940243, 0
181, 1836648520, 0.26935396, -0.43155593, -0.06558934, 0.85843307, 0.066352054, 0.1382431, -0.09876442, 0
183, 1836681854, 0.26946092, -0.4310427, -0.06605228, 0.8586216, -0.050383423, 0.08382205, -0.09798336, 0
185, 1836715188, 0.26950818, -0.43082014, -0.066734284, 0.8586658, -0.03856572, 0.09891365, -0.07679081, 0
186, 1836731855, 0.2695288, -0.43074974, -0.06705581, 0.8586695, -0.02162594, 0.144248, -0.07826805, 0
187, 1836748522, 0.26950878, -0.430753, -0.067347236, 0.85865146, -0.034823317, 0.16228695, -0.08208275, 0
190, 1836798523, 0.2694233, -0.43125394, -0.06769097, 0.8583997, 0.034229655, 0.13666375, -0.08260441, 0
191, 1836815190, 0.26939803, -0.43143848, -0.06768373, 0.8583156, 0.0051693795, 0.1393828, -0.08881092, 0
193, 1836848524, 0.26932457, -0.43173197, -0.0676401, 0.8581943, 0.058247548, 0.11289137, -0.11512756, 0
194, 1836865191, 0.26932284, -0.4317603, -0.06756849, 0.8581862, 0.05807772, 0.103924476, -0.11722183, 0
196, 1836898525, 0.26949486, -0.4315221, -0.06744754, 0.85826164, 0.054164566, 0.06002619, -0.09901619, 0
198, 1836931859, 0.26982504, -0.4307635, -0.06748527, 0.85853595, 0.045151908, 0.11344713, -0.103405, 0
200, 1836965193, 0.27014035, -0.42975107, -0.06757082, 0.85893726, -0.03575601, 0.10795106, -0.07321262, 0
201, 1836981860, 0.27028468, -0.42933914, -0.06762597, 0.8590934, -0.038724974, 0.09984659, -0.07633591, 0
202, 1836998527, 0.27045006, -0.42901948, -0.067663535, 0.8591982, -0.031447656, 0.09639522, -0.09346962, 0
204, 1837031861, 0.27091932, -0.42867094, -0.06774655, 0.8592178, -0.082523316, 0.15160303, -0.031030655, 0
206, 1837065195, 0.2708589, -0.42932847, -0.06708157, 0.8589608, -0.11537391, 0.17386839, -0.0464077, 0
208, 1837098529, 0.27058575, -0.43034205, -0.0663604, 0.8585956, 0.07046053, 0.04636486, -0.18732452, 0
209, 1837115196, 0.27046174, -0.43055835, -0.066190675, 0.85853934, 0.04710168, 0.14715232, -0.16525841, 0
210, 1837131863, 0.27024227, -0.43071815, -0.06602122, 0.8585413, -0.013018135, 0.19645023, -0.094005585, 0
213, 1837181864, 0.26871338, -0.4329447, -0.06477595, 0.857996, -0.13443033, 0.191678, -0.036989212, 0
214, 1837198531, 0.268084, -0.4343077, -0.0641153, 0.8575536, -0.099246666, 0.14213279, -0.033688545, 0
216, 1837231865, 0.26675326, -0.4373585, -0.06279726, 0.8565149, 0.061786205, 0.092797324, -0.05661583, 0
217, 1837248532, 0.2660851, -0.4387356, -0.062324323, 0.8560528, 0.09263621, 0.021370744, -0.12772083, 0
218, 1837265199, 0.2656619, -0.43974876, -0.061950736, 0.8556915, 0.11292841, -0.029725546, -0.14571953, 0
220, 1837298533, 0.265473, -0.44070554, -0.061764915, 0.8552713, 0.11529603, 0.03721625, -0.13879871, 0
223, 1837348534, 0.26554424, -0.43999353, -0.062065467, 0.85559386, 0.008584336, 0.112944, -0.07583523, 0
224, 1837365201, 0.26553285, -0.4396846, -0.06215577, 0.8557497, -0.0737556, 0.12975843, -0.06293869, 0
225, 1837381868, 0.26548436, -0.43949077, -0.06223712, 0.8558583, -0.07362254, 0.16618791, -0.053581238, 0
228, 1837431869, 0.26497987, -0.43944448, -0.062156953, 0.8560443, -0.026615309, 0.11534755, -0.087020874, 0
229, 1837448536, 0.26482806, -0.43941447, -0.062132243, 0.8561084, 0.028406247, 0.10650113, -0.09653568, 0
231, 1837481870, 0.26453137, -0.43919778, -0.062117644, 0.85631233, 0.02536316, 0.12096208, -0.06894302, 0
232, 1837498537, 0.26437765, -0.43902594, -0.06207464, 0.85645103, 0.02113287, 0.14151622, -0.090512276, 0
233, 1837515204, 0.26420182, -0.4388507, -0.062005416, 0.85660017, -0.023912827, 0.1420493, -0.08717346, 0
235, 1837548538, 0.26384908, -0.43867117, -0.06193631, 0.8568058, -0.02804765, 0.08024819, -0.09854317, 0
236, 1837565205, 0.26369542, -0.43860674, -0.061970655, 0.8568836, -0.02372129, 0.11796779, -0.09563732, 0
237, 1837581872, 0.2635353, -0.43857872, -0.061999522, 0.8569451, -0.026379026, 0.13486436, -0.09863186, 0
239, 1837615206, 0.26297462, -0.4388332, -0.06211537, 0.8569786, -0.009299466, 0.13777986, -0.049830437, 0
240, 1837631873, 0.2626177, -0.43906057, -0.062185008, 0.8569666, -0.029720629, 0.101910286, -0.08149052, 0
243, 1837681874, 0.26159954, -0.43929642, -0.06242306, 0.8571399, 0.010305246, 0.09779016, -0.09975433, 0
244, 1837698541, 0.26129034, -0.43924513, -0.06259938, 0.85724765, -0.021871777, 0.08688675, -0.09723282, 0
246, 1837731875, 0.26057705, -0.43909425, -0.06302263, 0.857511, -0.002202329, 0.1359903, -0.06544399, 0
247, 1837748542, 0.26019484, -0.43906868, -0.063201055, 0.85762686, -0.059890367, 0.12192073, -0.08975029, 0
248, 1837765209, 0.25974137, -0.43916076, -0.06335269, 0.8577061, -0.040868297, 0.1693475, -0.07236004, 0
250, 1837798543, 0.25868303, -0.43964338, -0.06337468, 0.857777, -0.021270486, 0.15609619, -0.11764336, 0
252, 1837831877, 0.2576498, -0.44056696, -0.063485205, 0.857606, -0.12815472, 0.035046495, -0.08260918, 0
254, 1837865211, 0.2572149, -0.44168568, -0.06356662, 0.8571548, 0.11191942, 0.15273121, -0.08319664, 0
255, 1837881878, 0.25701165, -0.44197178, -0.06355102, 0.85706955, 0.10725929, 0.14233764, -0.100839615, 0
258, 1837931879, 0.25566807, -0.44214597, -0.06357284, 0.85737985, 0.027462576, 0.20278694, -0.07825184, 0
259, 1837948546, 0.25502503, -0.44223216, -0.06343818, 0.857537, -0.06276573, 0.11734386, -0.076722145, 0
260, 1837965213, 0.25431496, -0.44244826, -0.06343096, 0.8576369, -0.08049793, 0.0912923, -0.07628441, 0
262, 1837998547, 0.25300473, -0.4432861, -0.063182265, 0.85761017, -0.013719924, 0.19805416, -0.07099533, 0
263, 1838015214, 0.25233418, -0.4438712, -0.06288416, 0.85752684, -0.027893104, 0.21726197, -0.0628376, 0
264, 1838031881, 0.25158885, -0.4444925, -0.062456124, 0.8574553, 0.029931724, 0.21359333, -4.043579E-4, 0
266, 1838065215, 0.24963675, -0.4457019, -0.061575763, 0.8574617, 0.06505107, 0.095108114, -0.052488327, 0
268, 1838098549, 0.24752808, -0.4466702, -0.060913835, 0.85761666, 0.02665672, 0.104814164, -0.10780048, 0
270, 1838131883, 0.24556908, -0.4476875, -0.060523804, 0.8576768, -0.0509151, 0.019072361, -0.13306522, 0
272, 1838165217, 0.244286, -0.44880205, -0.0604942, 0.8574628, -0.082461156, 0.051188268, -0.058585167, 0
274, 1838198551, 0.24373728, -0.4497835, -0.060583465, 0.8570984, -0.0065629133, 0.09791544, -0.08953571, 0
275, 1838215218, 0.24355283, -0.45020953, -0.060652193, 0.8569223, 0.024477888, 0.10367481, -0.13501263, 0
277, 1838248552, 0.2431762, -0.45091236, -0.061034627, 0.8566325, 0.039042853, 0.11059969, -0.06953812, 0
278, 1838265219, 0.24301417, -0.45122105, -0.061241977, 0.85650086, -0.02356708, 0.14311881, -0.038814545, 0
281, 1838315220, 0.24301037, -0.45242316, -0.0614476, 0.8558531, 0.06835328, 0.007151185, -0.12227154, 0
282, 1838331887, 0.2432119, -0.45265517, -0.061536632, 0.8556667, 0.09989538, 0.12494899, -0.122177124, 0
283, 1838348554, 0.24338838, -0.4528399, -0.061543487, 0.85551834, 0.043160923, 0.09331979, -0.12534904, 0
287, 1838415222, 0.24615537, -0.45413905, -0.0641979, 0.8538411, 0.117090926, -0.01480114, 0.07812023, 0
289, 1838448556, 0.24807991, -0.45350426, -0.06693105, 0.8534116, 0.09343677, 0.34379858, -0.25239277, 0
290, 1838465223, 0.24838044, -0.4529385, -0.06845127, 0.85350406, 0.10311046, 0.17430647, -0.159688, 0
291, 1838481890, 0.24877119, -0.45226642, -0.07043477, 0.85358536, -0.13197316, -0.17830299, -0.15109158, 0
293, 1838515224, 0.25086513, -0.45103788, -0.07600673, 0.8531445, 0.080322884, -0.088737324, 0.06304264, 0
294, 1838531891, 0.25240353, -0.44944704, -0.07882201, 0.85327476, 0.35340595, -0.2347018, -0.027918816, 0
295, 1838548558, 0.2542668, -0.44675192, -0.082233, 0.8538149, 0.31081858, -0.37933424, -0.14886379, 0
297, 1838581892, 0.25819147, -0.43703938, -0.09014078, 0.8568602, 0.874177, 0.27844986, 0.14881802, 0
298, 1838598559, 0.25991327, -0.42894366, -0.0935869, 0.8600552, 1.0163568, -0.08472113, -0.014505386, 0
299, 1838615226, 0.26172867, -0.4184279, -0.09677767, 0.8643213, 1.0059975, -0.04741537, -0.062625885, 0
304, 1838698561, 0.27883604, -0.346202, -0.10939677, 0.8890601, 0.5971263, -0.049677767, 0.26422596, 0
305, 1838715228, 0.28396153, -0.32931983, -0.1104572, 0.8937082, 0.56166357, -0.12564836, 0.6443882, 0
306, 1838731895, 0.2872882, -0.31379604, -0.11142312, 0.8980999, -0.5608871, 1.4690135, -0.17133236, 0
308, 1838765229, 0.29245722, -0.296751, -0.11144286, 0.9022134, -2.3693044, 1.1072305, 0.51887226, 0
309, 1838781896, 0.29350704, -0.29478386, -0.11539558, 0.9020205, -2.3389993, -1.4032242, 0.77525234, 0
310, 1838798563, 0.2944531, -0.2938063, -0.12148874, 0.90123063, 0.0031700563, 0.018977033, 0.46205235, 0
312, 1838831897, 0.2963144, -0.29118407, -0.134056, 0.8996888, -0.11982429, 0.7178053, -0.717927, 0
313, 1838848564, 0.2967479, -0.2903286, -0.13874267, 0.8991115, -0.03319972, 0.71597344, -1.1630335, 0
314, 1838865231, 0.29705584, -0.29019913, -0.14178813, 0.8985763, -0.32740694, 0.6913603, -1.1874027, 0
317, 1838915232, 0.29675457, -0.29383415, -0.14067273, 0.89766943, 0.06744559, 0.9138984, -1.2081718, 0
318, 1838931899, 0.2961295, -0.2961415, -0.13614433, 0.8978158, -0.052460503, 0.7757349, -1.349103, 0
320, 1838965233, 0.2937231, -0.30266568, -0.12023991, 0.8987011, -0.94587934, 0.34779388, 0.050275803, 0
321, 1838981900, 0.2919697, -0.30766788, -0.11189857, 0.89865124, -0.99351084, 1.3663609, -0.36989403, 0
322, 1838998567, 0.2903837, -0.316681, -0.103409015, 0.8970496, -0.7095724, -0.3457645, 0.66480637, 0
324, 1839031901, 0.28937244, -0.34605473, -0.08939729, 0.8879857, -1.3075922, 2.4014902, 0.39684677, 0
325, 1839048568, 0.28468063, -0.366454, -0.080417626, 0.8821578, -1.1792767, 1.8620404, 1.1318197, 0
327, 1839081902, 0.26771256, -0.4173128, -0.05222419, 0.86686426, 0.5261651, 0.27310902, 0.20740414, 0
328, 1839098569, 0.25950545, -0.44306836, -0.03492953, 0.85739625, 1.1595985, -0.7973693, -0.031931877, 0
329, 1839115236, 0.25176936, -0.4658738, -0.017859988, 0.84808964, 1.5604234, -0.17771739, -0.88549423, 0
333, 1839181904, 0.22557536, -0.5038156, 0.028454708, 0.8333528, -0.027338637, -1.3102132, 0.038881302, 0
335, 1839215238, 0.21453653, -0.50691146, 0.036568295, 0.83407354, 0.58584404, -0.8942312, 0.86665154, 0
336, 1839231905, 0.20954672, -0.5068852, 0.03816986, 0.83528554, -0.34449917, 0.82753736, 0.66401386, 0
337, 1839248572, 0.20443693, -0.51121825, 0.04220184, 0.8337155, -1.6277752, 2.3904362, 0.5902424, 0
339, 1839281906, 0.18361722, -0.5487389, 0.06681222, 0.81283915, -3.9790652, 6.101063, 1.3291645, 0
340, 1839298573, 0.16113356, -0.5864045, 0.09563671, 0.7880484, -4.3647113, 7.135776, 3.4588242, 0
341, 1839315240, 0.13047367, -0.63107806, 0.12955226, 0.7536141, -6.640315, 9.765352, 4.616864, 0
343, 1839348574, 0.03607094, -0.7167676, 0.1673274, 0.6759774, -7.295413, 13.190898, 9.314774, 0
344, 1839365241, -0.014751366, -0.7411397, 0.1725117, 0.64864093, -17.696306, 40.076595, 21.701166, 0
347, 1839415242, 0.032608792, -0.7527914, 0.19529603, 0.6277755, -0.7622688, 0.062460843, -7.859968, 0
349, 1839448576, 0.047777712, -0.7694823, 0.19082147, 0.60762006, -3.112177, 15.243791, -4.5499573, 0
351, 1839481910, 0.08681582, -0.7808558, 0.19227587, 0.58801216, -8.302683, 10.798798, -7.2637415, 0
352, 1839498577, 0.10368626, -0.7830885, 0.18902183, 0.5833464, -10.324366, 8.728534, -8.95348, 0
353, 1839515244, 0.11364801, -0.78185976, 0.18190272, 0.58539885, -11.774726, 7.509472, -9.627098, 0
355, 1839548578, 0.116859704, -0.7609898, 0.16337033, 0.61688685, -11.35507, 6.790827, -8.393419, 0
356, 1839565245, 0.113461204, -0.7386861, 0.15629308, 0.64578825, -8.907724, 5.866087, -7.000944, 0
358, 1839598579, 0.10429914, -0.67406064, 0.1442846, 0.7169007, -1.9060041, 6.263296, -3.9257045, 0
359, 1839615246, 0.10282986, -0.63741213, 0.13580461, 0.7514585, 3.0519712, 6.681008, -4.699347, 0
362, 1839665247, 0.13384585, -0.5581916, 0.086056024, 0.81431085, 4.806601, 7.2709594, -2.4884248, 0
363, 1839681914, 0.16010734, -0.5455257, 0.05779974, 0.82062626, 0.9323966, 4.9556174, 0.11674881, 0
366, 1839731915, 0.23603947, -0.50482523, -0.03074489, 0.82975453, -2.606758, -4.4972467, 8.315994, 0
367, 1839748582, 0.25511032, -0.48210055, -0.049106896, 0.83671206, -0.57552093, -3.955651, 7.702902, 0
368, 1839765249, 0.27409735, -0.45777485, -0.064779356, 0.8432777, 2.1130915, -2.5959487, 5.429804, 0
370, 1839798583, 0.31435955, -0.4122045, -0.096005626, 0.84973496, 1.7577183, -4.8666797, 4.467431, 0
371, 1839815250, 0.333016, -0.38982937, -0.10887428, 0.851634, 3.5021057, -5.595414, 3.020648, 0
372, 1839831917, 0.3503363, -0.36779225, -0.11770074, 0.8533116, 4.5152674, -5.4826937, 2.8635197, 0
374, 1839865251, 0.38620663, -0.32725573, -0.12814674, 0.852835, 5.16645, -4.0067086, 4.4501543, 0
376, 1839898585, 0.42880085, -0.29635894, -0.15190716, 0.8397775, 0.46211246, -9.243755, 3.6757956, 0
378, 1839931919, 0.4527953, -0.26145804, -0.17587692, 0.83407694, -0.9615656, -12.359102, 0.4319954, 0
379, 1839948586, 0.45351934, -0.24204282, -0.18520983, 0.8375163, 0.7542449, -11.846911, -1.2916317, 0
382, 1839998587, 0.4415661, -0.19861314, -0.19678593, 0.8525541, 6.991699, -13.172392, -5.327835, 0
383, 1840015254, 0.43909335, -0.19096804, -0.19861704, 0.85514945, 7.7421694, -14.992961, -3.268705, 0
385, 1840048588, 0.44238493, -0.18780906, -0.19932015, 0.85398805, 5.6036315, -13.008355, -7.8403015, 0
386, 1840065255, 0.44372657, -0.19222553, -0.19512644, 0.85327756, 4.5112643, -13.460834, -7.463748, 0
387, 1840081922, 0.44288567, -0.1993395, -0.1878792, 0.85370857, 4.3292127, -13.497547, -7.306729, 0
389, 1840115256, 0.43095085, -0.22239329, -0.16580455, 0.8586806, 2.7862408, -14.354959, -7.304324, 0
391, 1840148590, 0.40287405, -0.26145834, -0.13475163, 0.8667036, 6.259303, -13.394483, -8.269564, 0
393, 1840181924, 0.3701696, -0.32189628, -0.0836468, 0.86738753, 16.067337, -15.068972, -3.1457605, 0
394, 1840198591, 0.35908312, -0.3579416, -0.05016706, 0.8604774, 17.656038, -17.0545, 1.1187916, 0
395, 1840215258, 0.35847512, -0.3841893, -0.040039353, 0.8498777, 7.1191883, -5.5173335, 70.80121, 0
397, 1840248592, 0.3640717, -0.36040267, -0.05919247, 0.8567724, -18.52416, 15.728671, -6.9823112, 0
398, 1840265259, 0.36111695, -0.36105335, -0.056007046, 0.8579622, 3.3777907, 6.164336, -6.8790584, 0
399, 1840281926, 0.35767007, -0.3698853, -0.052501135, 0.8558629, -3.5016294, -0.11648914, 2.0834932, 0
401, 1840315260, 0.34616387, -0.4014672, -0.03650692, 0.8471496, 0.7356919, 0.73529905, -0.90751743, 0
402, 1840331927, 0.3371799, -0.41644475, -0.024776956, 0.8439612, 2.57066, -0.8988608, -1.6392565, 0
403, 1840348594, 0.32886735, -0.42544764, -0.013986028, 0.84299815, 1.2900666, -2.868784, -0.22110653, 0
406, 1840398595, 0.31452832, -0.44027808, 0.0020041484, 0.8409661, -0.6235415, 3.247116, 0.58353996, 0
408, 1840431929, 0.2907498, -0.4807961, 0.030344937, 0.82666785, -0.9594507, 3.0753138, 0.04100895, 0
409, 1840448596, 0.2731292, -0.51199603, 0.054820906, 0.8125615, -2.1432157, 3.0873523, 0.56194496, 0
412, 1840498597, 0.17989597, -0.644384, 0.15796338, 0.72626114, -6.851854, 7.436017, 8.081602, 0
413, 1840515264, 0.12521684, -0.6995325, 0.16943388, 0.68283826, -13.03093, 26.623547, 24.645786, 0
414, 1840531931, 0.06456688, -0.7390202, 0.17559147, 0.64718515, -10.27354, 29.751982, 25.19643, 0
416, 1840565265, 0.0476489, -0.75217795, 0.15954313, 0.63757724, -4.8763885, 29.223198, 14.85932, 0
417, 1840581932, 0.048917256, -0.75358546, 0.1677915, 0.6336899, 5.6415052, -12.004813, -3.7818017, 0
418, 1840598599, 0.03113315, -0.76156396, 0.17802645, 0.6223811, 1.2072889, 10.9312105, 3.8737402, 0
421, 1840648600, 0.022309566, -0.796631, 0.20934562, 0.5666187, -5.31009, 14.027943, -8.227276, 0
422, 1840665267, 0.020342829, -0.81242096, 0.21404669, 0.5419808, -10.660023, 14.603346, -9.995452, 0
424, 1840698601, 0.0019720923, -0.8322735, 0.20748271, 0.51407075, -13.404672, 10.456374, -14.835543, 0
425, 1840715268, -0.012800596, -0.8329456, 0.20302331, 0.51460683, -11.909547, 9.048068, -15.88757, 0
428, 1840765269, -0.03530457, -0.8004972, 0.22067957, 0.5561109, -5.6498575, 8.031289, -15.276295, 0
429, 1840781936, -0.032267567, -0.78277886, 0.23062536, 0.57708645, -3.5475736, 8.114052, -14.844732, 0
430, 1840798603, -0.022696735, -0.76411456, 0.23939772, 0.59858435, -1.3588405, 9.290542, -14.539875, 0
432, 1840831937, 0.01757834, -0.7260345, 0.24505976, 0.64227057, -2.449247, 9.100488, -12.1712675, 0
433, 1840848604, 0.042017713, -0.7071281, 0.23471735, 0.6656674, -1.1276065, 5.402065, -12.293261, 0
436, 1840898605, 0.11781418, -0.6580038, 0.17564331, 0.7227042, -2.85724, 9.281998, -4.75945, 0
437, 1840915272, 0.14721212, -0.6408735, 0.14759503, 0.7388006, -4.546276, 8.29719, -1.8432894, 0
439, 1840948606, 0.20107011, -0.59661525, 0.09064786, 0.77162486, -5.944348, 6.515279, 7.5673847, 0
440, 1840965273, 0.22337966, -0.5684011, 0.06224209, 0.7893976, -3.4569883, 5.3779016, 10.625311, 0
441, 1840981940, 0.24354655, -0.5382424, 0.03481321, 0.8060826, 0.2767885, 4.7130337, 13.150726, 0
444, 1841031941, 0.31848, -0.4451106, -0.043149255, 0.83581454, 4.628839, 1.1060275, 16.959667, 0
445, 1841048608, 0.34907603, -0.4123766, -0.07221149, 0.8383782, 2.3233325, -2.7067287, 12.706005, 0
447, 1841081942, 0.3945, -0.35237598, -0.13362536, 0.8380609, -0.19654131, -8.600957, 15.592873, 0
448, 1841098609, 0.41004843, -0.31939498, -0.16456363, 0.8383119, 0.5888508, -11.179735, 14.254198, 0
451, 1841148610, 0.44026178, -0.21345928, -0.25416088, 0.8342706, 4.727705, -13.613888, 4.963646, 0
452, 1841165277, 0.45012102, -0.18201467, -0.27766025, 0.8289554, 6.0187025, -13.879911, 1.7156897, 0
453, 1841181944, 0.46211624, -0.15474534, -0.29412457, 0.8221885, 5.6027, -14.78696, -2.6456409, 0
455, 1841215278, 0.48333758, -0.110613175, -0.31147856, 0.8106364, 4.443789, -18.294592, -8.552584, 0
456, 1841231945, 0.48978084, -0.09478887, -0.31498817, 0.8074112, 4.4043574, -17.430105, -12.1757345, 0
457, 1841248612, 0.49297535, -0.084401526, -0.31562135, 0.80637175, 4.3423023, -16.699356, -13.909859, 0
460, 1841298613, 0.48714876, -0.0704725, -0.2964349, 0.81844175, 5.296961, -17.275589, -13.889527, 0
461, 1841315280, 0.48382288, -0.07244237, -0.28886828, 0.8229358, 5.163102, -16.16029, -14.368125, 0
463, 1841348614, 0.47329465, -0.08821431, -0.26862928, 0.83429563, 3.430522, -17.757158, -12.540577, 0
466, 1841398615, 0.43438745, -0.13168953, -0.22446524, 0.8623116, 7.0057316, -16.236067, -7.277757, 0
467, 1841415282, 0.4191571, -0.15150425, -0.20059085, 0.8724206, 9.196393, -15.70708, -3.6819768, 0
468, 1841431949, 0.40491766, -0.17507368, -0.17265663, 0.8806709, 10.570116, -13.5866995, -3.3471756, 0
470, 1841465283, 0.3836451, -0.23865327, -0.11124717, 0.88514745, 14.877014, -16.30215, 2.055748, 0
471, 1841481950, 0.37395537, -0.27959743, -0.081497334, 0.8805348, 15.19414, -17.892675, -0.09138298, 0
472, 1841498617, 0.3607034, -0.32762185, -0.052039906, 0.87169355, 15.537373, -20.776384, 3.5649967, 0
474, 1841531951, 0.3688904, -0.30524734, -0.07168841, 0.8749888, 11.916768, 37.43164, 11.848076, 1024
475, 1841548618, 0.36216, -0.3084274, -0.066472515, 0.87709457, -0.3746387, 6.5731854, -0.94544315, 0
476, 1841565285, 0.35268915, -0.31865883, -0.059760448, 0.8777791, 1.2946013, 2.1371858, -0.08635044, 0
478, 1841598619, 0.33513954, -0.34592548, -0.044723555, 0.8752243, -0.07817989, -1.2652588, 0.5006809, 0
480, 1841631953, 0.3169859, -0.3932646, -0.016941661, 0.8628884, -1.649781, 3.9192684, 0.99729633, 0
482, 1841665287, 0.2753078, -0.492745, 0.044642508, 0.82426673, -5.473354, 9.318732, 5.0190907, 0
483, 1841681954, 0.23666367, -0.55559886, 0.095001385, 0.79137576, -5.916494, 13.465318, 6.1362305, 0
484, 1841698621, 0.18825583, -0.6192763, 0.15083638, 0.74719846, -6.6381354, 11.087551, 11.792021, 0
486, 1841731955, 0.1043441, -0.69708496, 0.22942281, 0.67123073, 11.989066, 64.74555, 28.073265, 0
487, 1841748622, 0.13364281, -0.7154185, 0.23733106, 0.64342093, -9.962963, 50.568924, 19.560993, 0
490, 1841798623, 0.12528783, -0.77559805, 0.22876129, 0.57482135, -20.014706, 22.334612, -9.186439, 0
491, 1841815290, 0.11343665, -0.77820694, 0.23236284, 0.57230616, -16.001932, 19.215467, -15.714428, 0
493, 1841848624, 0.09837805, -0.7586019, 0.23795328, 0.5985182, -7.718133, 17.321487, -15.941046, 0
495, 1841881958, 0.11847896, -0.7184615, 0.24660042, 0.6395034, -0.20843321, 8.588854, -16.132236, 0
497, 1841915292, 0.15663461, -0.68234724, 0.23732169, 0.673459, 1.4682512, 8.394095, -13.396909, 0
498, 1841931959, 0.18553837, -0.668363, 0.22253236, 0.68508863, 3.1812751, 5.1622896, -13.464152, 0
499, 1841948626, 0.2169356, -0.65791726, 0.20204727, 0.6922871, 1.1304497, 3.581011, -10.402816, 0
501, 1841981960, 0.28298607, -0.6321714, 0.15726033, 0.7039518, 3.1462176, 0.35874668, -7.3778505, 0
502, 1841998627, 0.31663683, -0.61791605, 0.13804145, 0.7063046, 5.8027725, 1.1244841, -4.7871823, 0
503, 1842015294, 0.35203972, -0.6028192, 0.11590314, 0.70657223, 4.0459723, 0.39734635, 0.7529068, 0
506, 1842065295, 0.44379264, -0.5378159, 0.054865837, 0.7146974, 9.651279, -9.568438, 4.6468525, 0
507, 1842081962, 0.47070166, -0.51807606, 0.036826573, 0.7132192, 8.3625345, -10.310193, 3.0602837, 0
510, 1842131963, 0.5296662, -0.4662514, -0.01472448, 0.7084117, -2.6256797, -12.589422, 4.7182636, 0
511, 1842148630, 0.5390675, -0.44637617, -0.028310971, 0.71369016, 0.5364566, -13.343347, 4.515333, 0
513, 1842181964, 0.5540396, -0.42102578, -0.05546423, 0.7160319, 2.3648882, -15.357888, 6.4661083, 0
514, 1842198631, 0.5535034, -0.4135059, -0.068173245, 0.71972203, -16.478043, -37.91055, 2.9503717, 0
516, 1842231965, 0.54701495, -0.4141826, -0.08215465, 0.72282684, -0.75745666, -0.31830078, -13.661494, 0
517, 1842248632, 0.5339363, -0.41306227, -0.04804957, 0.73619527, 8.365342, -1.015062, -21.218145, 0
518, 1842265299, 0.52684253, -0.4229936, -0.0074764704, 0.7371961, -15.119775, 7.2124214, 45.50141, 0
520, 1842298633, 0.52990514, -0.41997817, -0.012265176, 0.73666066, -1.7248847, -8.226881, 2.2578764, 0
522, 1842331967, 0.51659423, -0.41433477, -0.009017012, 0.7492506, 1.7831397, -1.9908804, 1.4883728, 0
525, 1842381968, 0.47885287, -0.4053303, 0.013515288, 0.77860475, -2.8321407, 0.59643394, 0.7216158, 0
526, 1842398635, 0.4593805, -0.4036171, 0.02033734, 0.79098046, -2.3912292, 0.76833296, 3.1038408, 0
528, 1842431969, 0.40820643, -0.3981587, 0.020722259, 0.82122374, -1.9608027, 2.7810872, 0.018065453, 0
529, 1842448636, 0.37908125, -0.3952652, 0.009970747, 0.8366386, -1.6648262, 1.0738635, -1.4007502, 0
530, 1842465303, 0.34982798, -0.3914101, -0.006976, 0.8510995, 0.31364745, 2.283096, -2.907991, 0
532, 1842498637, 0.30055395, -0.36239743, -0.05061951, 0.8807802, -9.328099, 5.7590384, -4.0009656, 0
533, 1842515304, 0.28224435, -0.34210068, -0.069534406, 0.893572, -8.937659, 5.9175553, -8.76659, 0
534, 1842531971, 0.27650768, -0.32448208, -0.083599046, 0.9007035, 3.005398, -0.4870833, -0.3920889, 0
536, 1842565305, 0.30021355, -0.29225045, -0.10475282, 0.9019363, 0.7087511, 13.142722, -8.202911, 0
540, 1842631973, 0.3015216, -0.28270996, -0.1117157, 0.9037035, 1.1159357, -6.4352646, 4.2304573, 0
541, 1842648640, 0.30244112, -0.2796014, -0.111955896, 0.90433353, 0.98185545, -1.1519096, 1.1765223, 0
542, 1842665307, 0.3031975, -0.27907875, -0.112809844, 0.90413535, 1.643378, 1.7017244, -1.5026836, 0
544, 1842698641, 0.31304294, -0.2840589, -0.11764689, 0.8985958, 0.47624314, -2.6840892, 0.5725479, 0
545, 1842715308, 0.32096776, -0.285047, -0.12202708, 0.89489555, -0.9565088, -5.349262, 3.0030556, 0
547, 1842748642, 0.34441388, -0.28406453, -0.13240042, 0.8849618, 5.125273, 6.1498957, -1.3528538, 0
548, 1842765309, 0.36475077, -0.2819667, -0.13319887, 0.87733126, 3.0440598, 1.5623081, -1.3646755, 0
549, 1842781976, 0.3781649, -0.27855211, -0.12943977, 0.87329614, -10.262799, -5.403102, 1.7734423, 0
551, 1842815310, 0.3763325, -0.27166668, -0.11519574, 0.8782378, -5.3895802, 4.538891, -7.058487, 0
552, 1842831977, 0.37312016, -0.26942447, -0.11059338, 0.88088685, -6.6716714, 0.37048468, 1.3298693, 0
555, 1842881978, 0.36245212, -0.26112497, -0.10963505, 0.88793194, 3.1389656, 4.0305977, 0.18881893, 0
556, 1842898645, 0.36093152, -0.25907248, -0.11170173, 0.8888945, 0.88635886, 0.98741186, 2.943159, 0
557, 1842915312, 0.3602331, -0.25779802, -0.11397768, 0.8892593, -2.5393524, 2.3795722, 0.17838764, 0
559, 1842948646, 0.35518876, -0.26434818, -0.11753078, 0.88890284, -0.60018045, 4.1553297, -3.5710878, 0
560, 1842965313, 0.3522894, -0.2687619, -0.11855132, 0.8885975, 0.8388298, 4.361343, -4.9842577, 0
561, 1842981980, 0.3516686, -0.27215782, -0.119077794, 0.88773906, 3.2570736, 6.220837, -0.7367735, 0
563, 1843015314, 0.35194457, -0.28337514, -0.11507812, 0.884642, -0.12637897, 0.91026056, 5.648528, 0
564, 1843031981, 0.35119355, -0.28844032, -0.11073315, 0.8838575, 0.41035077, -2.246595, 2.2259521, 0
567, 1843081982, 0.34996575, -0.29580104, -0.10184564, 0.88298017, -0.41228384, 5.68465, 0.977149, 0
571, 1843148650, 0.35644597, -0.28595918, -0.09702663, 0.884172, 1.6820079, -1.4790963, 1.4979334, 0
572, 1843165317, 0.35785955, -0.28458944, -0.095011815, 0.88426167, 0.64701796, -3.2243123, 3.2349386, 0
574, 1843198651, 0.35805205, -0.28479013, -0.09061996, 0.88458, 0.44317004, -5.4438324, -0.5949373, 0
575, 1843215318, 0.357946, -0.2852573, -0.08906886, 0.8846301, 0.12626745, -4.6783175, -0.4581337, 0
576, 1843231985, 0.35780662, -0.28421816, -0.087436646, 0.8851835, 1.2831788, -5.248603, 3.9122925, 0
578, 1843265319, 0.3553337, -0.28357965, -0.08385332, 0.88672996, 2.1353533, -5.0351467, 0.65415287, 0
579, 1843281986, 0.354254, -0.28209916, -0.08109773, 0.88788956, 0.5265524, -2.1103675, -0.897666, 0
580, 1843298653, 0.35288808, -0.28049377, -0.07878366, 0.88914955, -1.7648529, 0.16669898, -3.8083658, 0
582, 1843331987, 0.3506417, -0.27606902, -0.07558718, 0.8916971, -0.37117198, 1.2196403, 0.643487, 0
584, 1843365321, 0.34819397, -0.27388877, -0.07136632, 0.89367414, 1.1998893, -0.21850169, 2.5925608, 0
587, 1843415322, 0.34645087, -0.270202, -0.066145934, 0.8958728, -0.03579046, 1.7229005, -2.6104174, 0
588, 1843431989, 0.34729764, -0.26857516, -0.064770624, 0.8961346, 1.6279567, -0.890738, 2.427328, 0
590, 1843465323, 0.34953445, -0.2671923, -0.06327186, 0.89578533, 2.133093, -0.37527725, -0.022860527, 0
591, 1843481990, 0.35195625, -0.26604944, -0.06365022, 0.8951501, 0.30769396, 1.0781487, 0.36065292, 0
592, 1843498657, 0.3543761, -0.26609132, -0.06395673, 0.89416057, -0.23902118, 3.2831523, -1.9426775, 0
594, 1843531991, 0.3599963, -0.26808617, -0.06450362, 0.89127576, 0.6773071, 2.2960544, -0.3344345, 0
595, 1843548658, 0.36287013, -0.26948106, -0.06570507, 0.8896004, 1.5423889, 0.84568137, 0.43770885, 0
597, 1843581992, 0.36862937, -0.27045336, -0.069364026, 0.88665485, 0.25493696, 0.99286187, -0.43517685, 0
599, 1843615326, 0.37322614, -0.27139178, -0.072309256, 0.88420624, -0.9742183, 2.1408806, -2.0874925, 0
601, 1843648660, 0.37574717, -0.27146873, -0.07276977, 0.8830764, 0.69255185, 0.37817818, -0.042290688, 0
603, 1843681994, 0.37708256, -0.26994216, -0.07385361, 0.88288504, -0.3465196, 0.330682, -0.20099545, 0
605, 1843715328, 0.37841055, -0.26893157, -0.07510478, 0.8825198, -0.48491257, -0.15668683, -1.3399172, 0
606, 1843731995, 0.37923306, -0.26901397, -0.076207355, 0.88204694, 0.49800548, 0.35781989, 0.14520168, 0
607, 1843748662, 0.3802868, -0.26897874, -0.0772732, 0.8815111, -0.0470763, 1.018485, -0.8244209, 0
609, 1843781996, 0.38256976, -0.26957625, -0.07927677, 0.88016194, 0.60022503, 0.9533574, -0.45997334, 0
610, 1843798663, 0.38360924, -0.2703804, -0.07997734, 0.8793991, 0.6755286, 0.46552077, 0.13696957, 0
611, 1843815330, 0.3848886, -0.27027714, -0.08074723, 0.8788013, 0.6460784, 1.4807199, -0.20236015, 0
614, 1843865331, 0.387311, -0.27125093, -0.08128603, 0.877386, 0.12198946, 0.3027663, 0.8516121, 0
615, 1843881998, 0.38780352, -0.27173108, -0.0818629, 0.8769663, 0.25068837, -0.25183338, 1.1815224, 0
617, 1843915332, 0.3878536, -0.27356562, -0.08392168, 0.8761786, -0.80003065, 0.3487789, -0.6629009, 0
619, 1843948666, 0.38874736, -0.27666605, -0.08993419, 0.8742104, -0.40528548, 1.1431794, -0.5474043, 0
621, 1843982000, 0.3893718, -0.2770964, -0.09384773, 0.87338454, 0.07714444, 1.2051971, 0.021194458, 0
622, 1843998667, 0.38953596, -0.2778391, -0.095518716, 0.8728941, 0.37454197, -0.014589696, 0.80645084, 0
623, 1844015334, 0.38959408, -0.27844238, -0.09641023, 0.8725778, -1.08329, 1.203165, 0.7410536, 0
625, 1844048668, 0.38638273, -0.28342953, -0.09484077, 0.8725721, -1.6675204, 2.8721526, -0.6192827, 0
626, 1844065335, 0.38444683, -0.28651005, -0.09459707, 0.8724475, -2.9223437, 4.861038, -1.8008032, 0
629, 1844115336, 0.378906, -0.28939384, -0.09252459, 0.8741403, -3.637138, 5.281446, -0.18962288, 0
630, 1844132003, 0.3764812, -0.29197884, -0.09172755, 0.8744125, -3.4229927, 4.7332897, -1.1073637, 0
632, 1844165337, 0.37183934, -0.2971489, -0.08911726, 0.87492675, -2.7389948, 5.8226285, -1.7501278, 0
633, 1844182004, 0.37000948, -0.29958412, -0.088861264, 0.8748982, -2.8951442, 5.712993, -1.2757034, 0
634, 1844198671, 0.36866936, -0.30138046, -0.08987457, 0.8747432, -2.9079618, 3.8794, 1.9656124, 0
636, 1844232005, 0.3658986, -0.30599907, -0.09208817, 0.8740728, -2.7797894, 3.9820125, -0.7255411, 0
637, 1844248672, 0.36480027, -0.30830887, -0.093091495, 0.8736138, -1.2619462, 1.0848567, -2.7733345, 0
638, 1844265339, 0.36558938, -0.30551025, -0.09423958, 0.8741439, -2.4915867, 3.3572044, -1.773942, 0
640, 1844298673, 0.36811218, -0.29747257, -0.09892188, 0.87533915, -0.48261508, -2.4672647, 3.3096838, 0
641, 1844315340, 0.37030157, -0.29401293, -0.10305262, 0.87510806, -1.8248208, -0.25427124, -1.209979, 0
644, 1844365341, 0.37176353, -0.2931584, -0.1081378, 0.8741605, 1.8320645, -3.0503256, -1.9712114, 0
645, 1844382008, 0.37191966, -0.29409942, -0.10932073, 0.8736308, 3.3964748, -6.396038, 2.142375, 0
646, 1844398675, 0.3715435, -0.29488152, -0.109876566, 0.8734576, 3.3211155, -6.624104, 2.1136923, 0
649, 1844448676, 0.3698966, -0.294894, -0.10711175, 0.87449515, 1.8596604, -4.3978076, -1.8086796, 0
651, 1844482010, 0.3672914, -0.293887, -0.103346914, 0.87638336, 0.5754853, -2.9020963, 1.1615963, 0
652, 1844498677, 0.36540538, -0.29426685, -0.100942634, 0.8773239, -0.11887109, -3.4979591, 0.3272934, 0
653, 1844515344, 0.36400044, -0.29365635, -0.098602846, 0.878378, 1.3087562, -3.5468957, 2.294859, 0
655, 1844548678, 0.3604688, -0.29064578, -0.09198629, 0.8815477, -0.035123274, -1.2650845, -1.3231668, 0
656, 1844565345, 0.358844, -0.28769127, -0.08837913, 0.8835464, -1.6569804, 1.2913816, -1.9709244, 0
659, 1844615346, 0.35375917, -0.2776225, -0.07924207, 0.88966376, 0.18852282, -0.30346924, 0.21000195, 0
660, 1844632013, 0.35229206, -0.27456856, -0.076662965, 0.89141786, 0.2749228, 0.01571095, 0.41523552, 0
661, 1844648680, 0.35096222, -0.27221262, -0.07465637, 0.8928341, -0.029917376, 0.8619851, -0.14944935, 0
663, 1844682014, 0.35032707, -0.26826516, -0.0722029, 0.8944788, -1.5385617, 3.055702, -2.2782903, 0
665, 1844715348, 0.35184094, -0.26654768, -0.07134316, 0.894467, 1.8237453, 0.83026814, 0.89388275, 0
667, 1844748682, 0.35578775, -0.26708376, -0.0722509, 0.8926711, 1.3210808, 0.2878582, -1.3155365, 0
668, 1844765349, 0.35786358, -0.26852655, -0.07291712, 0.89135355, 2.2937207, 0.16816975, -2.0137587, 0
669, 1844782016, 0.36105213, -0.2688643, -0.07356584, 0.8899112, 2.1804457, 1.1391702, -0.47174358, 0
671, 1844815350, 0.36614114, -0.27279317, -0.073928274, 0.8866002, 2.2869124, -2.435302, 0.102576256, 0
673, 1844848684, 0.37152857, -0.272393, -0.07442629, 0.8844376, 0.6580338, 2.1972253, 1.6844473, 0
675, 1844882018, 0.37508392, -0.27447203, -0.07513026, 0.88223195, -1.1760868, 0.06493174, -2.034505, 0
676, 1844898685, 0.3764491, -0.2753268, -0.075416714, 0.8813594, -0.43288302, -0.6658167, -1.0542316, 0
678, 1844932019, 0.37928337, -0.27484256, -0.07592957, 0.88025063, 0.7460308, 0.20099078, 1.6866617, 0
679, 1844948686, 0.37993172, -0.27479902, -0.07619951, 0.8799611, -1.2174559, 2.7933648, -1.1260805, 0
682, 1844998687, 0.38047153, -0.27388006, -0.07602406, 0.8800296, -0.58723986, 1.4324335, 0.13112736, 0
683, 1845015354, 0.3804172, -0.27357003, -0.07571094, 0.88017666, -0.1365848, 0.3869328, -0.059678078, 0
684, 1845032021, 0.38033, -0.27388316, -0.07600469, 0.8800915, -0.01628331, 1.1045942, -0.76536465, 0
686, 1845065355, 0.3814156, -0.273194, -0.07702921, 0.8797468, -0.5838282, 2.34588, -0.5965738, 0
688, 1845098689, 0.38296956, -0.2733563, -0.079397514, 0.8788103, 0.21007589, 1.005534, -0.25687122, 0
690, 1845132023, 0.38482004, -0.27292848, -0.080182835, 0.87806326, -0.15068997, 1.2593617, -0.7738886, 0
691, 1845148690, 0.3852356, -0.2740719, -0.080501825, 0.8774953, -0.083486475, 0.68466854, -0.34929657, 0
692, 1845165357, 0.3862294, -0.2736473, -0.08135902, 0.87711203, -0.5651457, 2.7943666, 0.08822727, 0
694, 1845198691, 0.38741386, -0.27587, -0.08332305, 0.8757078, -0.50412345, -0.31820276, -1.6882792, 0
695, 1845215358, 0.38781947, -0.2759816, -0.08358173, 0.87546843, 1.0535383, -0.7318426, 1.8181019, 0
698, 1845265359, 0.38908404, -0.2766779, -0.084164195, 0.8746314, -1.008041, 0.7514668, -0.50208664, 0
699, 1845282026, 0.38900128, -0.27796778, -0.0850091, 0.87417734, -1.0589138, 0.97056234, -0.6391287, 0
700, 1845298693, 0.38920814, -0.27906665, -0.0861703, 0.87362117, -0.8767038, 0.9233028, 0.70257664, 0
703, 1845348694, 0.3891351, -0.28273544, -0.08868198, 0.8722219, -2.839504, 4.055288, -0.6506729, 0
704, 1845365361, 0.3891653, -0.28287637, -0.08901304, 0.8721288, -0.88426965, 2.0403593, 2.8052578, 0
706, 1845398695, 0.38681012, -0.2905306, -0.08890525, 0.8706701, -3.6187208, 3.7385652, -0.044612885, 0
707, 1845415362, 0.38475463, -0.2954374, -0.08838558, 0.8699824, -1.7032795, 4.801011, -2.7032251, 0
709, 1845448696, 0.38213354, -0.30094114, -0.08883719, 0.8692048, -2.7682545, 3.3994033, -1.631072, 0
710, 1845465363, 0.3810488, -0.3009448, -0.08845967, 0.86971825, -2.6764603, 3.277494, 2.5740805, 0
711, 1845482030, 0.37980857, -0.30205077, -0.08742362, 0.8699819, -3.3811028, 4.278732, 3.21702, 0
713, 1845515364, 0.37622797, -0.30759954, -0.087595455, 0.8695762, -1.5521845, 3.091966, -5.148015, 0
714, 1845532031, 0.37863228, -0.3032471, -0.091750644, 0.86963296, -1.2298962, 3.0245242, -5.7081532, 0
715, 1845548698, 0.38201132, -0.29990852, -0.09716277, 0.8687244, 1.0231295, 1.5051584, -3.3584223, 0
718, 1845598699, 0.38568437, -0.29910976, -0.10768754, 0.8661323, 1.0992392, -7.6162825, 3.5516033, 0
719, 1845615366, 0.38566577, -0.2981357, -0.10936815, 0.8662658, 0.9232651, -2.7381887, -0.5415211, 0
721, 1845648700, 0.38427252, -0.29622608, -0.11139731, 0.8672808, 1.4475354, -7.809647, 0.7394476, 0
722, 1845665367, 0.38280427, -0.29444683, -0.110765986, 0.8686159, 3.1823754, -10.0514965, 3.1599503, 0
723, 1845682034, 0.3809595, -0.29342553, -0.10976627, 0.8698985, 1.986542, -8.666548, 0.3737421, 0
725, 1845715368, 0.37783143, -0.29315218, -0.108741276, 0.87148213, 0.35101217, -4.83285, -1.1520357, 0
727, 1845748702, 0.37546223, -0.294628, -0.10691206, 0.8722346, 3.7253144, -2.578423, -0.095915794, 0
729, 1845782036, 0.37565818, -0.2963967, -0.10407538, 0.8718938, 2.0201259, 0.21512145, -1.2443018, 0
730, 1845798703, 0.37627342, -0.2965381, -0.10282229, 0.87172914, 0.82628816, 0.82116807, -1.2760735, 0
733, 1845848704, 0.38013652, -0.29786044, -0.10395797, 0.86946476, -0.022685504, 0.6318405, 1.256444, 0
734, 1845865371, 0.38132104, -0.29861525, -0.10655695, 0.8683717, -1.2566495, 1.1118482, 1.5630856, 0
736, 1845898705, 0.38433418, -0.30019394, -0.120451465, 0.86467516, -2.501743, -0.49981084, 0.93121624, 0
737, 1845915372, 0.38637003, -0.29916242, -0.13297544, 0.86228657, -2.0801806, -1.6501229, 2.8165102, 0
738, 1845932039, 0.38753414, -0.29597378, -0.14791648, 0.86042905, -4.6842923, -0.6391261, 2.0124998, 0
740, 1845965373, 0.3834345, -0.28330246, -0.17558795, 0.8613288, -3.1997335, -2.0301664, 2.0590143, 0
741, 1845982040, 0.37651455, -0.27574822, -0.18824136, 0.864156, -4.0391974, -1.2444265, -1.7350683, 0
744, 1846032041, 0.31038943, -0.24483773, -0.2092268, 0.8943923, -2.03935, -4.518285, -4.976663, 0
745, 1846048708, 0.2898538, -0.23795477, -0.21680623, 0.9013091, 19.701096, 13.462437, 0.7231455, 0
748, 1846098709, 0.26789644, -0.2292169, -0.21705198, 0.91026384, -2.5559115, 1.5761393, -1.7103453, 0
749, 1846115376, 0.26212722, -0.22927992, -0.21785393, 0.9117349, -1.1340151, 0.9129758, -2.8679657, 0
750, 1846132043, 0.25815868, -0.22981656, -0.21783905, 0.9127351, -1.6474345, 0.95371836, 0.0040626526, 0
752, 1846165377, 0.25061327, -0.23881836, -0.2181253, 0.9124586, 0.5152986, 2.970446, -0.5074005, 0
753, 1846182044, 0.24773958, -0.24557583, -0.21871728, 0.9113074, -0.1541684, 2.311396, -0.08882713, 0
754, 1846198711, 0.24488428, -0.2515876, -0.21994226, 0.9101436, 1.5405829, -1.5631332, 1.565445, 0
756, 1846232045, 0.24310482, -0.26514274, -0.2288006, 0.9045719, -0.6719272, 2.6063976, 1.5583134, 0
757, 1846248712, 0.24183023, -0.2706704, -0.23093714, 0.9027316, -4.0841203, -1.3748077, -0.7577429, 0
760, 1846298713, 0.23487663, -0.2944977, -0.24240527, 0.8940607, -4.385395, -7.6278653, 1.9266806, 0
763, 1846348714, 0.21539098, -0.3360488, -0.2700378, 0.8762181, -3.3015354, -1.5593841, -2.0914955, 0
764, 1846365381, 0.21145786, -0.3678099, -0.2885443, 0.8583381, -3.899555, -3.4245024, -0.38314915, 0
765, 1846382048, 0.20823526, -0.40532634, -0.30469546, 0.836367, -3.7795997, 2.517993, 1.3555031, 0
767, 1846415382, 0.21773666, -0.48607016, -0.30899546, 0.78793967, -6.0893006, 4.978187, 2.7312498, 0
768, 1846432049, 0.24740157, -0.514659, -0.26547143, 0.7768167, -4.721427, 10.230565, 14.543459, 0
769, 1846448716, 0.26897374, -0.5278081, -0.22996539, 0.77213234, -23.678526, -10.929536, -4.13777, 0
771, 1846482050, 0.27463645, -0.5133168, -0.19626963, 0.78902435, -7.1372337, 5.22765, 3.8937387, 0
772, 1846498717, 0.27256826, -0.4925294, -0.18368356, 0.80584264, -0.6330513, 6.074054, 5.252471, 0
773, 1846515384, 0.27436763, -0.46693856, -0.1704169, 0.8231947, 6.053009, 7.84674, 2.7366362, 0
777, 1846582052, 0.33546194, -0.36665377, -0.13997152, 0.85641056, 2.9056764, -1.4584042, -4.2245994, 0
779, 1846615386, 0.36958084, -0.3307625, -0.14165686, 0.85670316, -0.034116153, -3.2829206, -4.2566304, 0
780, 1846632053, 0.3810248, -0.31514415, -0.14380816, 0.8572188, 0.9240782, -5.1820483, -0.60140705, 0
781, 1846648720, 0.3895229, -0.29770762, -0.14804308, 0.85890967, 2.7947457, -7.422391, 0.487813, 0
783, 1846682054, 0.3952865, -0.26796487, -0.15119609, 0.8654963, 7.119476, -10.469431, -6.910033, 0
784, 1846698721, 0.39393163, -0.25900373, -0.15068132, 0.86892515, 9.609329, -13.378813, -4.4058127, 0
785, 1846715388, 0.3922113, -0.25382066, -0.1496724, 0.8714035, 11.030425, -15.7390995, -6.9179735, 0
787, 1846748722, 0.38027224, -0.26295495, -0.1303867, 0.87706774, 13.922724, -24.096916, -10.671778, 0
788, 1846765389, 0.36774945, -0.27941018, -0.11204638, 0.8798504, 17.162619, -26.394287, -8.786885, 0
790, 1846798723, 0.34050438, -0.32090905, -0.048572905, 0.88244855, 27.778166, -96.513824, 36.110657, 0
792, 1846832057, 0.32591674, -0.37020496, -0.018135479, 0.8697116, 2.336987, 16.654074, -5.2526164, 0
794, 1846865391, 0.30278116, -0.42398313, 0.008200254, 0.8535193, 4.682944, -1.3094444, 0.2960472, 0
795, 1846882058, 0.2907366, -0.4507895, 0.015814148, 0.8438078, -2.587969, 0.33547038, 1.3306484, 0
796, 1846898725, 0.2762755, -0.48754847, 0.027273512, 0.8277832, -4.4254894, 3.8049347, 0.39557934, 0
798, 1846932059, 0.22468692, -0.5918072, 0.08751972, 0.7691691, -6.2930384, 7.316531, 4.681383, 0
799, 1846948726, 0.17294759, -0.66509795, 0.13414674, 0.71396023, -11.060011, 22.7409, 17.522295, 0
800, 1846965393, 0.09617065, -0.7377486, 0.17430447, 0.6450556, -12.516194, 49.51386, 35.82214, 0
802, 1846998727, -0.0027721692, -0.80845374, 0.23005973, 0.5417273, 25.181694, 81.758575, 23.336689, 1024
803, 1847015394, 0.0031512287, -0.8268954, 0.2472159, 0.5050932, 0.57452536, 3.5015342, -6.2887707, 0
807, 1847082062, -0.13205084, -0.84542644, 0.2788232, 0.43597588, -29.29948, 22.734625, -17.729134, 0
808, 1847098729, -0.14843564, -0.82307214, 0.30316153, 0.45674172, -11.111954, 19.93466, -19.490913, 0
810, 1847132063, -0.13102746, -0.7864472, 0.35592085, 0.48749742, -0.8293144, 10.148642, -20.226707, 0
811, 1847148730, -0.10743254, -0.7733216, 0.37218943, 0.50190395, -9.148385E-4, 6.8053627, -18.926525, 0
812, 1847165397, -0.07893352, -0.76179916, 0.38039085, 0.5183965, -0.49389735, 4.517008, -17.240524, 0
814, 1847198731, -0.029655904, -0.733362, 0.36130485, 0.5751173, -7.752148, 3.7920313, -9.898986, 0
815, 1847215398, -0.00881736, -0.7101936, 0.33863357, 0.6171511, -4.8567433, 4.291539, -7.163041, 0
817, 1847248732, 0.040520128, -0.64784855, 0.27999675, 0.7072856, -0.6868389, 0.5535065, -3.3956833, 0
818, 1847265399, 0.061562974, -0.6164214, 0.23934281, 0.74762994, -0.42978758, -2.4687412, -3.7454405, 0
819, 1847282066, 0.080636136, -0.58439344, 0.1963589, 0.7832151, -1.2411789, 2.7859304, 3.1704922, 0
823, 1847348734, 0.17370838, -0.47114915, 0.04151713, 0.8637829, 7.3106194, -5.032924, 11.07988, 0
825, 1847382068, 0.23476334, -0.43089065, -0.0054020043, 0.8713156, 2.9059954, -8.954994, 10.433611, 0
826, 1847398735, 0.2593223, -0.40748832, -0.02316978, 0.87531096, 3.690104, -7.822677, 7.1584034, 0
827, 1847415402, 0.28162384, -0.38284644, -0.039016135, 0.87897384, 4.473921, -5.684991, 5.6219873, 0
829, 1847448736, 0.32628298, -0.33753026, -0.06553875, 0.8805216, 5.361373, -2.7850947, 0.02338028, 0
830, 1847465403, 0.3491277, -0.31905872, -0.075633936, 0.87783355, 5.1304173, -2.1323426, -1.6285286, 0
831, 1847482070, 0.3711439, -0.30331308, -0.08257067, 0.8737482, 4.016842, -2.2127619, -1.3003798, 0
833, 1847515404, 0.4146998, -0.2730919, -0.10687671, 0.8614075, 2.5646405, -4.0204277, 4.620658, 0
834, 1847532071, 0.43691382, -0.25812873, -0.122956015, 0.85285306, 1.6489336, -4.25537, -0.10000038, 0
837, 1847582072, 0.47987238, -0.21951033, -0.15722579, 0.8347565, -0.51228833, -6.559782, -0.6750126, 0
840, 1847632073, 0.48397297, -0.17196342, -0.1930838, 0.8360132, 2.8815567, -7.1792345, -2.6237793, 0
841, 1847648740, 0.4815615, -0.15908413, -0.20522864, 0.83706194, 3.7992125, -7.878535, -3.798409, 0
842, 1847665407, 0.47798193, -0.14922887, -0.21535401, 0.83838373, 4.1942077, -7.3244815, -5.700237, 0
844, 1847698741, 0.4692386, -0.13873382, -0.22303288, 0.84310454, 5.668675, -9.989769, -1.1971712, 0
845, 1847715408, 0.46707937, -0.13207799, -0.22417538, 0.84506696, 5.52034, -8.419052, -3.5573645, 0
846, 1847732075, 0.46562132, -0.12843515, -0.2224217, 0.84689456, 6.099697, -6.6330905, -6.263708, 0
848, 1847765409, 0.46844494, -0.12936305, -0.2111228, 0.84808755, 6.30358, -7.871377, -4.361722, 0
849, 1847782076, 0.47274956, -0.13147846, -0.20575416, 0.84669185, 4.43283, -9.2525, -3.7547908, 0
852, 1847832077, 0.46978825, -0.1379468, -0.19114514, 0.8507254, 1.9711221, -13.473789, -6.018999, 0
853, 1847848744, 0.4604689, -0.14198819, -0.18836313, 0.8557615, 4.1929107, -16.540411, -6.7371445, 0
856, 1847898745, 0.4297757, -0.17434642, -0.15890567, 0.8715768, 14.0892935, -23.493757, -8.69581, 0
857, 1847915412, 0.4222332, -0.19920945, -0.14013672, 0.8731535, 14.402274, -26.132805, -9.505723, 0
858, 1847932079, 0.41228038, -0.23206532, -0.11625163, 0.8733021, 15.039895, -27.559721, -11.537458, 0
860, 1847965413, 0.39497715, -0.31747535, -0.0594652, 0.86003906, 16.48125, -24.050333, 27.411045, 0
861, 1847982080, 0.40143913, -0.30028987, -0.05869431, 0.86326593, 2.4178658, 25.602047, -18.451925, 0
862, 1847998747, 0.38672227, -0.31050426, -0.048811194, 0.86697805, 8.135507, 4.848964, 5.0951557, 0
864, 1848032081, 0.3596297, -0.36049238, -0.027584268, 0.86020434, -3.232013, -4.1121864, 2.754733, 0
866, 1848065415, 0.32485828, -0.4748132, 0.020783594, 0.8176724, -2.9519377, 6.322275, 2.2617836, 0
868, 1848098749, 0.23494117, -0.61967224, 0.120886, 0.7390508, -9.695507, 19.566675, 17.251297, 0
869, 1848115416, 0.16655333, -0.6919009, 0.15632172, 0.68490666, -19.430094, 39.137276, 40.00976, 0
871, 1848148750, 0.107514456, -0.7548103, 0.17761452, 0.6222184, -4.726852, 59.364876, 48.284172, 0
872, 1848165417, 0.11094934, -0.761196, 0.2086888, 0.60392076, -0.85493636, -22.39431, -0.030130386, 0
873, 1848182084, 0.057068404, -0.7760773, 0.22293362, 0.5871528, -6.5674796, 12.725459, 16.264034, 0
875, 1848215418, -0.01763791, -0.7877708, 0.2709955, 0.5528725, -2.2269924, 28.615404, -3.6094851, 0
876, 1848232085, -0.049783394, -0.7974902, 0.29792508, 0.5222761, -6.9693108, 29.644054, -10.060954, 0
877, 1848248752, -0.082163386, -0.80772525, 0.31740382, 0.4899844, -10.429818, 28.170954, -17.774307, 0
879, 1848282086, -0.14494677, -0.81793743, 0.33436722, 0.4451605, -11.123212, 16.18041, -24.583721, 0
881, 1848315420, -0.1855051, -0.81063896, 0.34900066, 0.4320318, -8.11686, 10.494988, -25.196335, 0
883, 1848348754, -0.200819, -0.79447913, 0.37268183, 0.435412, -3.799679, 5.3154473, -22.59153, 0
885, 1848382088, -0.18888329, -0.7784271, 0.39275995, 0.45179048, -3.8311827, 8.097679, -22.326843, 0
887, 1848415422, -0.15244044, -0.7679732, 0.38951123, 0.48503652, -1.5236894, 2.3445442, -17.999825, 0
888, 1848432089, -0.1293193, -0.7651084, 0.37796423, 0.5050043, -1.5716614, 2.7714365, -16.84716, 0
889, 1848448756, -0.10244024, -0.7628417, 0.3611439, 0.52645427, -2.9161313, 3.2897043, -15.579531, 0
891, 1848482090, -0.037932824, -0.7544921, 0.30949742, 0.57750744, -5.227666, 6.353463, -12.304619, 0
892, 1848498757, -0.0010348689, -0.74634355, 0.27853173, 0.6044757, -6.0406737, 3.9402635, -10.223168, 0
893, 1848515424, 0.033921942, -0.73543197, 0.24567434, 0.6305821, -7.8020873, 6.6200414, -7.164427, 0
896, 1848565425, 0.13321725, -0.6615082, 0.14586595, 0.7234526, -11.946043, 8.38261, 7.746851, 0
898, 1848598759, 0.16969481, -0.5805291, 0.07778217, 0.7925529, 0.31881887, 6.9564953, 13.513815, 0
899, 1848615426, 0.18644753, -0.5419745, 0.04145898, 0.8184025, 3.8831067, 9.040299, 19.157984, 0
902, 1848665427, 0.2605283, -0.44179812, -0.0858074, 0.854153, 2.801647, -8.584625, 20.059351, 0
903, 1848682094, 0.28067315, -0.41109902, -0.12666288, 0.8580077, 3.7384675, -12.934793, 17.934732, 0
904, 1848698761, 0.29755652, -0.37814903, -0.1608533, 0.8617368, 5.7378078, -12.999773, 16.280506, 0
906, 1848732095, 0.33274648, -0.31689954, -0.21472205, 0.86182904, 6.014576, -11.293879, 7.6039658, 0
907, 1848748762, 0.35300124, -0.28976512, -0.23216566, 0.85879326, 5.904875, -10.325731, 6.0939627, 0
908, 1848765429, 0.37451702, -0.2627694, -0.24450456, 0.8549312, 4.9073653, -11.053249, 6.9732685, 0
911, 1848815430, 0.44622323, -0.19229276, -0.2613792, 0.83402014, 4.450912, -11.150424, -1.5551376, 0
912, 1848832097, 0.46799374, -0.17388646, -0.25999072, 0.82652926, 2.206099, -13.500544, -1.4341602, 0
914, 1848865431, 0.50223243, -0.14166307, -0.26310584, 0.8114616, 0.4577321, -14.307707, -4.92005, 0
915, 1848882098, 0.5110426, -0.12923795, -0.2656193, 0.80720496, 0.04483192, -14.145915, -7.267659, 0
918, 1848932099, 0.502513, -0.105067834, -0.25733662, 0.81866956, 2.4493754, -12.75043, -8.31573, 0
919, 1848948766, 0.4945878, -0.099953085, -0.25266123, 0.82556343, 3.4394474, -12.754146, -6.954706, 0
921, 1848982100, 0.48499602, -0.09830358, -0.24415, 0.8339704, 6.2624903, -9.252986, -7.0687823, 0
922, 1848998767, 0.4847941, -0.09984815, -0.2373366, 0.83586895, 5.768578, -9.02579, -6.9473596, 0
923, 1849015434, 0.48699212, -0.10325877, -0.22852568, 0.8366318, 4.4496655, -8.326078, -7.983956, 0
926, 1849065435, 0.48862737, -0.1219219, -0.20648572, 0.83889365, 1.1455588, -14.9850235, -6.1980677, 0
927, 1849082102, 0.4802893, -0.13074529, -0.20264229, 0.8433057, 2.3745599, -16.637112, -8.534788, 0
929, 1849115436, 0.4511369, -0.1558288, -0.18776394, 0.858451, 11.359467, -22.243694, -6.198613, 0
930, 1849132103, 0.43526036, -0.17571656, -0.17558873, 0.8653562, 17.171347, -21.98361, -8.105771, 0
931, 1849148770, 0.42091542, -0.20259295, -0.15859374, 0.8698476, 18.732985, -23.258638, -9.872597, 0
934, 1849198771, 0.39288077, -0.30722448, -0.07196646, 0.86375874, 9.897557, 31.250856, -20.58902, 0
935, 1849215438, 0.38101515, -0.31584173, -0.06589408, 0.8664468, 3.870709, -3.1073146, 5.7058144, 0
937, 1849248772, 0.3596698, -0.3559438, -0.05528009, 0.8607476, -2.0610983, 3.4505115, 2.5059032, 0
938, 1849265439, 0.34458405, -0.40554532, -0.034123987, 0.84594965, -1.9968985, 6.522474, -0.33609104, 0
941, 1849315440, 0.2298496, -0.6292888, 0.12434366, 0.73191804, -9.733749, 22.389183, 16.779171, 0
942, 1849332107, 0.1669371, -0.69844776, 0.18332747, 0.6713376, -11.666846, 40.271004, 28.993553, 0
943, 1849348774, 0.12225978, -0.7428501, 0.23778494, 0.61374694, 18.566986, 64.01425, 39.806957, 0
945, 1849382108, 0.16635135, -0.7890292, 0.2625082, 0.52995306, -11.3523445, -9.389655, -15.146507, 0
946, 1849398775, 0.12153645, -0.8177235, 0.25723284, 0.50038886, -27.078089, 32.814335, -1.5651436, 0
947, 1849415442, 0.091204405, -0.82835853, 0.25277135, 0.49153975, -22.87242, 40.01942, -13.814045, 0
949, 1849448776, 0.039708905, -0.82558894, 0.24901459, 0.50479513, -16.998741, 19.769299, -24.076767, 0
950, 1849465443, 0.021405576, -0.8133279, 0.24624997, 0.52668893, -10.058079, 14.676053, -23.383728, 0
952, 1849498777, 0.021695139, -0.78307873, 0.24896614, 0.5695027, -2.474542, 11.963442, -20.987658, 0
953, 1849515444, 0.04058849, -0.76878506, 0.2458999, 0.5889447, -3.1609986, 12.090397, -18.442657, 0
956, 1849565445, 0.13217638, -0.7280603, 0.19508526, 0.6437389, -4.5040374, 6.061942, -9.745119, 0
957, 1849582112, 0.16228318, -0.7096654, 0.16990975, 0.6642066, -5.012817, 4.2801847, -6.653455, 0
958, 1849598779, 0.18917562, -0.6857407, 0.1440807, 0.68790525, -2.3376334, 6.409611, -2.3864584, 0
960, 1849632113, 0.25667134, -0.63284117, 0.08706103, 0.725295, 9.290374, 2.9686615, 1.4741106, 0
961, 1849648780, 0.2968762, -0.61092126, 0.0574418, 0.7316698, 10.05934, 0.44893897, 3.8789043, 0
964, 1849698781, 0.3932963, -0.54598814, -0.031848427, 0.73905426, 5.1540995, -17.729832, 6.3312054, 0
965, 1849715448, 0.4094836, -0.5238059, -0.046509065, 0.745512, 4.879147, -21.3475, 4.7662535, 0
966, 1849732115, 0.4128083, -0.50351834, -0.056002945, 0.7569167, 2.643215, -23.12949, 3.2501993, 0
968, 1849765449, 0.40089166, -0.47386765, -0.07769, 0.78019243, 0.926406, -14.378435, 4.1580725, 0
970, 1849798783, 0.40462792, -0.4504305, -0.091841295, 0.7905406, -7.793732, -25.305582, 4.6825695, 0
972, 1849832117, 0.42175028, -0.4356856, -0.10145139, 0.7886778, -0.582766, -4.4938235, 1.0910263, 0
973, 1849848784, 0.42990333, -0.42964515, -0.09155141, 0.7888009, 2.6199152, 0.10944603, -8.270342, 0
974, 1849865451, 0.43423894, -0.42385995, -0.08707502, 0.7900618, -4.2285576, 4.5587134, 15.212826, 0
976, 1849898785, 0.43250382, -0.38955954, -0.09480004, 0.80758727, 6.6579943, -1.6088471, 6.9362316, 0
977, 1849915452, 0.41723716, -0.36941966, -0.09770629, 0.82455826, -3.471082, -0.14652929, 0.3867073, 0
980, 1849965453, 0.3683591, -0.3135046, -0.10977269, 0.86831844, -2.1218653, -1.1798863, -5.1818995, 0
981, 1849982120, 0.37323076, -0.30842963, -0.1082723, 0.868244, 1.0205574, 0.5364442, 0.34570026, 0
983, 1850015454, 0.3798347, -0.30207095, -0.106545374, 0.8678292, -3.0662484, -1.4454209, 0.44860268, 0
985, 1850048788, 0.38899004, -0.30167657, -0.116385266, 0.86263144, 4.591, -1.9438772, 4.78504, 0
987, 1850082122, 0.41060564, -0.30023795, -0.1300241, 0.85109025, 3.2902427, 1.1128161, 0.9210539, 0
988, 1850098789, 0.42172214, -0.29800302, -0.13486247, 0.8456698, -1.6596726, -0.5686846, -1.4960785, 0
989, 1850115456, 0.43184394, -0.29702106, -0.13943702, 0.84014714, 0.34814453, 0.69604737, -4.56775, 0
991, 1850148790, 0.44235498, -0.30221656, -0.13724047, 0.8331584, -10.977364, -3.7658195, -5.0943727, 0
992, 1850165457, 0.4387105, -0.3069122, -0.13339864, 0.83399236, -2.694323, -1.1616243, -5.3743157, 0
993, 1850182124, 0.43612027, -0.30867088, -0.1275043, 0.8356223, 1.5149735, -2.449228, 10.001467, 0
996, 1850232125, 0.428136, -0.3026789, -0.11264493, 0.844036, -1.6814003, -2.37771, 0.6146698, 0
997, 1850248792, 0.42442566, -0.2993607, -0.10770801, 0.8477298, -4.7212934, -3.7315214, 0.31191254, 0
1000, 1850298793, 0.41200742, -0.2881467, -0.10051956, 0.8585556, -2.5109916, -0.8508062, 0.42061996, 0
1002, 1850332127, 0.4046669, -0.2826778, -0.09740796, 0.86420506, 0.09504676, 0.8682397, 0.29912853, 0
1003, 1850348794, 0.4012793, -0.27913186, -0.09601621, 0.867088, -0.47595352, 1.5574104, 1.3655014, 0
1004, 1850365461, 0.3972644, -0.27650654, -0.094339244, 0.8699574, -0.16499226, 2.2990637, -0.8808899, 0
1006, 1850398795, 0.39223558, -0.27052292, -0.09183975, 0.8743766, -0.044803757, 1.8341005, -0.7070427, 0
1007, 1850415462, 0.3903916, -0.26770008, -0.09130411, 0.8761251, -0.85021454, 0.8364891, -2.3354583, 0
1008, 1850432129, 0.38909513, -0.2650257, -0.091220796, 0.8775226, 0.6842588, 1.8879634, 0.27910328, 0
1010, 1850465463, 0.3900555, -0.26249728, -0.08909673, 0.87807405, -0.29538634, 2.069866, -2.4860153, 0
1012, 1850498797, 0.3906049, -0.26289377, -0.09105888, 0.8775097, -2.6484294, 0.58508587, 2.2578087, 0
1015, 1850548798, 0.3837065, -0.27420148, -0.092421226, 0.8769503, 1.3334723, 3.1149523, 2.7236538, 0
1016, 1850565465, 0.38192433, -0.2783613, -0.091174364, 0.87654823, -0.64860195, 7.3335886, -5.661649, 0
1018, 1850598799, 0.3805757, -0.28635842, -0.092013195, 0.8744684, 0.31101605, 1.1283237, -5.48517, 0
1019, 1850615466, 0.37998548, -0.29089016, -0.09249241, 0.8731779, 1.5519278, -5.672493, 2.0407095, 0
1020, 1850632133, 0.38379398, -0.28897792, -0.09850943, 0.87148744, -0.024479195, 4.4299455, 5.2437963, 0
1022, 1850665467, 0.38604167, -0.29129082, -0.099458136, 0.86961496, 2.1635225, -6.210891, -3.0389147, 0
1023, 1850682134, 0.3869835, -0.29086772, -0.09920034, 0.86936736, 1.0193964, -3.5855126, -0.34843254, 0
1024, 1850698801, 0.38791633, -0.28914732, -0.09782487, 0.86968136, 0.31913257, -2.0936224, 5.289484, 0
1026, 1850732135, 0.38818336, -0.2852976, -0.089689426, 0.8717084, 4.0380545, -5.2958965, 0.117456436, 0
1027, 1850748802, 0.38917264, -0.27968076, -0.08341114, 0.8737085, 5.485069, -2.419007, 1.3853064, 0
1030, 1850798803, 0.3947894, -0.26675904, -0.063089624, 0.8769271, 1.6946126, -5.0534787, -0.5078201, 0
1031, 1850815470, 0.39741778, -0.26462838, -0.05891625, 0.8766758, 1.7090706, -0.37450597, -2.797288, 0
1033, 1850848804, 0.40435067, -0.26490113, -0.054232806, 0.87372035, 3.3679862, -0.6945675, -0.16216373, 0
1034, 1850865471, 0.40819666, -0.26653716, -0.05316329, 0.87149745, 4.35713, -2.3511205, -0.19327259, 0
1035, 1850882138, 0.41173995, -0.26828825, -0.052479304, 0.86933196, 3.7560928, -1.6985744, -1.8717623, 0
1037, 1850915472, 0.41993284, -0.27221787, -0.05262579, 0.8641672, 2.1229134, 2.3536885, -2.8260226, 0
1038, 1850932139, 0.4238492, -0.27597415, -0.053039588, 0.8610327, 2.598687, -2.5104134, 0.122428894, 0
1039, 1850948806, 0.4285882, -0.276338, -0.053652763, 0.8585286, 1.1908958, 3.6007512, 1.7337799, 0
1042, 1850998807, 0.4398519, -0.28153607, -0.055394366, 0.85099936, 0.31991827, 0.9973152, 1.4744024, 0
1045, 1851048808, 0.44796613, -0.28577796, -0.05752766, 0.8451914, -0.8084269, 0.3852408, -0.8808613, 0
1046, 1851065475, 0.44968262, -0.2872328, -0.059017647, 0.84368247, -1.0122817, -1.9804041, 1.9696321, 0
1047, 1851082142, 0.45083514, -0.288036, -0.06075095, 0.84267, -2.8315065, 0.69905764, 0.7926321, 0
1049, 1851115476, 0.45008084, -0.2920585, -0.06491905, 0.8413769, -2.1348238, -0.24440818, -1.0696278, 0
1050, 1851132143, 0.44921005, -0.29339972, -0.06793685, 0.8411373, -2.8163013, -0.438883, 0.44689274, 0
1051, 1851148810, 0.44784388, -0.29427937, -0.070186615, 0.8413738, -3.2788496, 2.0873926, -2.4544587, 0
1053, 1851182144, 0.44463974, -0.29542884, -0.07557033, 0.8422035, -0.9033818, -1.9942981, 1.6383381, 0
1054, 1851198811, 0.4430569, -0.29584825, -0.078331836, 0.84263825, -1.6533204, -0.46062532, 0.36602688, 0
1055, 1851215478, 0.44099462, -0.29699317, -0.08055194, 0.84310794, -1.4680887, -1.6601808, -0.07610226, 0
1060, 1851298813, 0.43401185, -0.30133873, -0.09272958, 0.8439374, 0.922251, -2.3311534, 2.8887062, 0
1061, 1851315480, 0.43275744, -0.30156755, -0.0941774, 0.84433943, -1.2059802, 1.5348198, -1.6079931, 0
1062, 1851332147, 0.43122002, -0.30184796, -0.09530221, 0.8448996, -1.4413326, -0.99693125, 0.2997284, 0
1064, 1851365481, 0.42805925, -0.29994613, -0.09617809, 0.847082, -1.440837, 0.18008216, 0.033244133, 0
1065, 1851382148, 0.42576778, -0.2998769, -0.09571635, 0.84831274, -2.1553483, -2.059078, 0.5761242, 0
1066, 1851398815, 0.4239487, -0.2975317, -0.09579824, 0.8500387, -1.6608863, -0.1376224, 2.4495888, 0
1068, 1851432149, 0.419398, -0.29618937, -0.0958609, 0.8527534, -1.5813901, 0.99151665, -1.2560854, 0
1069, 1851448816, 0.41720936, -0.2955891, -0.09576773, 0.8540449, -2.5069232, 1.1808909, -2.839818, 0
1070, 1851465483, 0.41568846, -0.29443103, -0.09581799, 0.85518014, -0.98943216, 0.26103854, 1.0407486, 0
1072, 1851498817, 0.41342703, -0.29236287, -0.096252985, 0.85693526, -0.018029114, 0.5028229, 0.560379, 0
1076, 1851565485, 0.4077978, -0.2911281, -0.09274806, 0.86043227, -1.6596792, 1.9428253, 0.56932926, 0
1077, 1851582152, 0.40677255, -0.28946754, -0.092263736, 0.8615293, -1.5806438, 1.4802271, 1.8294659, 0
1078, 1851598819, 0.40486297, -0.28936803, -0.09170039, 0.86252165, -3.5964625, 1.8493296, 0.23651505, 0
1080, 1851632153, 0.40055197, -0.2894108, -0.09003107, 0.8646934, -2.085873, 4.677555, -1.0560017, 0
1081, 1851648820, 0.39883024, -0.289701, -0.09043166, 0.8653499, -1.9079777, 5.186459, -3.280231, 0
1083, 1851682154, 0.39684492, -0.2867173, -0.08988762, 0.86731076, -2.4624496, 0.911991, 3.2455502, 0
1084, 1851698821, 0.39510718, -0.2860046, -0.08831859, 0.8684998, -3.548618, 2.9990675, -1.6966267, 0
1085, 1851715488, 0.39395964, -0.28497142, -0.08726417, 0.8694669, -2.663993, 1.7546933, 1.7210436, 0
1087, 1851748822, 0.39029104, -0.2871419, -0.08533558, 0.8705981, -2.5517836, 1.0444926, -2.5987797, 0
1089, 1851782156, 0.388444, -0.2873927, -0.086149186, 0.8712608, -1.0283656, 1.9730458, 0.7358618, 0
1092, 1851832157, 0.3907835, -0.28706, -0.09404449, 0.86950606, 2.0653691, -2.3007011, -1.5902557, 0
1093, 1851848824, 0.39251575, -0.28753027, -0.09781097, 0.8681538, 1.4613714, -2.744859, 1.070631, 0
1095, 1851882158, 0.3951293, -0.2911148, -0.105527505, 0.86486393, -0.26515853, -2.9153376, -1.5913477, 0
1096, 1851898825, 0.39561236, -0.2929515, -0.105854265, 0.86398244, 2.832594, -5.014982, -0.24389935, 0
1097, 1851915492, 0.39619994, -0.2933383, -0.10432819, 0.86376745, 4.6221905, -6.1174865, 3.3690958, 0
1099, 1851948826, 0.39664018, -0.29050383, -0.099453315, 0.8650974, 3.9896955, -6.6068673, 1.5490952, 0
1100, 1851965493, 0.39667875, -0.28758493, -0.09591001, 0.866454, 0.99846166, -4.5881944, -1.9108782, 0
1101, 1851982160, 0.39628845, -0.2859131, -0.09201499, 0.8676077, 0.42036805, -5.4564967, -3.557742, 0
1104, 1852032161, 0.39712504, -0.2808244, -0.08434382, 0.8696643, -0.23365782, 3.3911626, -1.0676088, 0
1105, 1852048828, 0.39609143, -0.28476065, -0.08257992, 0.8690247, 6.006533, -9.956819, -8.2171755, 0
1107, 1852082162, 0.39957848, -0.28356418, -0.08110438, 0.86795795, 0.76532567, 1.2889721, 3.136901, 0
1108, 1852098829, 0.4000274, -0.2862315, -0.079756394, 0.8670001, 1.5474764, -5.733264, 1.9707584, 0
1110, 1852132163, 0.40302122, -0.2831656, -0.07899119, 0.8666903, -1.5641325, 5.4647236, -2.8414154, 0
1111, 1852148830, 0.40373364, -0.28501433, -0.077768385, 0.86586297, 0.7043281, -2.0225475, -7.787193, 0
1112, 1852165497, 0.40466738, -0.28554437, -0.07695463, 0.8653251, 2.120862, -4.7617817, -3.4056425, 0
1114, 1852198831, 0.40750685, -0.2835146, -0.07671389, 0.86468095, -0.865294, 2.7101078, 2.6014748, 0
1115, 1852215498, 0.4082793, -0.28280625, -0.07678184, 0.8645424, -0.4070062, 2.247303, -0.76226234, 0
1116, 1852232165, 0.4084863, -0.2831574, -0.076649174, 0.8643415, -0.7314522, 3.6195028, -5.3267603, 0
1119, 1852282166, 0.4119821, -0.28403774, -0.07624625, 0.86242694, 0.27791694, 0.31121027, -0.005879402, 0
1122, 1852332167, 0.4161596, -0.28699046, -0.078607135, 0.8592258, -0.6964341, 0.4597615, -0.45237637, 0
1123, 1852348834, 0.4181025, -0.28795946, -0.07975568, 0.85785145, 2.176602, -2.9007168, 5.038475, 0
1124, 1852365501, 0.41938484, -0.28989652, -0.08132325, 0.8564248, 1.9867673, -2.437048, 4.907442, 0
1126, 1852398835, 0.42114228, -0.2953802, -0.0830023, 0.85352266, -1.686113, 3.2875762, -6.154566, 0
1127, 1852415502, 0.42276317, -0.29549152, -0.08402456, 0.85258234, 0.55562633, 4.4502296, -1.1815004, 0
1128, 1852432169, 0.42386854, -0.29607868, -0.084544495, 0.8517779, 0.8577416, 1.5988895, -0.32779884, 0
1130, 1852465503, 0.42522243, -0.29595074, -0.08667274, 0.85093325, -2.9640355, 1.6055602, -1.1256399, 0
1131, 1852482170, 0.42513156, -0.29726964, -0.08748809, 0.85043544, -3.4503171, -0.21240783, -2.8894138, 0
1134, 1852532171, 0.4246236, -0.29747722, -0.09026834, 0.85032606, -0.18594724, 1.0076857, 1.2927351, 0
1135, 1852548838, 0.42360687, -0.29709062, -0.09117691, 0.8508711, -1.2105925, 0.061713267, -0.0033874512, 0
1138, 1852598839, 0.41924617, -0.29529345, -0.091639504, 0.8536026, -1.6653136, -1.1884278, -0.6262064, 0
1139, 1852615506, 0.4174971, -0.29446965, -0.091474675, 0.8547611, -1.1675842, -0.71542466, 1.0112858, 0
1141, 1852648840, 0.41410357, -0.29034677, -0.09165613, 0.8577975, -1.5275759, 2.1040146, 0.06849766, 0
1142, 1852665507, 0.41204706, -0.2891824, -0.091634534, 0.8591823, -1.4650204, -0.2688025, 0.14220142, 0
1143, 1852682174, 0.40983054, -0.28841665, -0.090743735, 0.8605932, -1.6271598, -0.6912891, -1.9285069, 0
1145, 1852715508, 0.40640283, -0.28726578, -0.089279845, 0.8627542, 0.35460192, 0.046585463, 1.5849133, 0
1146, 1852732175, 0.40601927, -0.28404325, -0.089336835, 0.8639951, -1.7616518, 5.516797, 0.57299423, 0
1149, 1852782176, 0.40276268, -0.28147736, -0.08653131, 0.86664045, -0.1542193, -1.9053272, 1.8685312, 0
1150, 1852798843, 0.40239978, -0.28083825, -0.08512755, 0.8671552, -0.2666489, 2.095945, 0.4222002, 0
1151, 1852815510, 0.40087616, -0.28170016, -0.08294437, 0.86779267, -0.9218716, 4.677454, -3.9398165, 0
1154, 1852865511, 0.39964968, -0.2798673, -0.07868187, 0.869347, -2.4841237, 3.1126337, 1.6908627, 0
1155, 1852882178, 0.3996104, -0.28041548, -0.07828745, 0.869224, -1.7645695, 2.5952344, 1.5986452, 0
1157, 1852915512, 0.39753282, -0.28484103, -0.07834295, 0.86873245, -3.7825933, 7.366109, -6.3232718, 0
1158, 1852932179, 0.39824423, -0.28550324, -0.07943504, 0.8680899, -0.04215273, 2.007279, 1.8115339, 0
1159, 1852948846, 0.39986902, -0.28476024, -0.080740064, 0.86746633, -0.8980685, 2.9442096, 5.3217688, 0
1161, 1852982180, 0.3976602, -0.28940153, -0.077492096, 0.8672419, -1.7052077, 4.465994, -2.8974466, 0
1163, 1853015514, 0.3959315, -0.2929704, -0.07440453, 0.86710495, -2.0746164, 1.4186215, -3.318869, 0
1165, 1853048848, 0.40066943, -0.28703, -0.08083989, 0.86633897, -0.11957583, 2.4142947, 3.1619158, 0
1166, 1853065515, 0.40172678, -0.2871095, -0.08344654, 0.8655756, 1.713379, -6.7828636, 0.91131496, 0
1168, 1853098849, 0.40653965, -0.2872562, -0.094158255, 0.8621741, 0.06720089, -3.5660508, -2.280692, 0
1170, 1853132183, 0.4114477, -0.29322636, -0.107765146, 0.85622215, 4.656087, -5.9499545, 3.438096, 0
1172, 1853165517, 0.414902, -0.29797307, -0.112139255, 0.852346, 6.998808, -6.5389476, 1.7594576, 0
1173, 1853182184, 0.41695797, -0.29747763, -0.1107506, 0.85169715, 5.9982285, -7.3829875, -1.6515083, 0
1174, 1853198851, 0.419259, -0.2962576, -0.10843509, 0.85129064, 1.1283207, -8.245068, -0.043367386, 0
1176, 1853232185, 0.4218661, -0.29679036, -0.10815907, 0.84985095, -1.077028, -8.568452, 0.295372, 0
1178, 1853265519, 0.42240584, -0.30058914, -0.110031605, 0.8480053, 2.638253, -2.9861112, -2.2134728, 0
1180, 1853298853, 0.42267412, -0.30014578, -0.105907, 0.8485538, 2.0063474, -1.7653146, 0.20433617, 0
1181, 1853315520, 0.42173013, -0.2995954, -0.10021963, 0.84990764, 1.5486908, -5.323572, -0.32707405, 0
1182, 1853332187, 0.42094478, -0.29828003, -0.09588939, 0.85125816, 0.08897671, -2.07127, 0.77511597, 0
1184, 1853365521, 0.41996083, -0.29719663, -0.092443265, 0.8525033, -0.7292146, -1.6539019, -0.49259377, 0
1185, 1853382188, 0.4198478, -0.29752547, -0.09266507, 0.85242033, -0.98128647, 0.5661295, 0.19832039, 0
1186, 1853398855, 0.4200638, -0.29867494, -0.094598845, 0.85169905, -0.55926037, 1.6168206, -0.89677334, 0
1188, 1853432189, 0.4207437, -0.3018364, -0.10363935, 0.8491932, -1.0888914, 1.6416769, 1.7875948, 0
1189, 1853448856, 0.42069188, -0.30227733, -0.10998166, 0.8482636, -1.0010651, 1.552358, 2.2948437, 0
1191, 1853482190, 0.41787896, -0.3020238, -0.12971076, 0.846956, -3.4375176, 0.20267059, 1.8143997, 0
1193, 1853515524, 0.41054052, -0.29399016, -0.1507229, 0.8498878, -3.7926822, 1.2578576, 0.7607708, 0
1195, 1853548858, 0.4014035, -0.28100482, -0.17175584, 0.8546413, -4.8108754, 0.41639313, 0.7088156, 0
1196, 1853565525, 0.39318034, -0.273411, -0.18079302, 0.85905176, -4.176242, -0.75845295, -4.252229, 0
1197, 1853582192, 0.37980422, -0.26581106, -0.1882111, 0.8658351, -5.328151, -5.5681643, -2.8809323, 0
1200, 1853632193, 0.32021317, -0.24912468, -0.20514543, 0.8906832, -7.3075504, -5.5568166, -2.492745, 0
1201, 1853648860, 0.30008674, -0.24447986, -0.21135868, 0.8974997, 5.155119, 4.102077, -2.670649, 0
1203, 1853682194, 0.27759457, -0.24583207, -0.2199624, 0.9022887, 3.1345947, 2.9554658, -0.8672018, 0
1204, 1853698861, 0.2712586, -0.24852638, -0.22122616, 0.9031683, 1.5458351, 3.2248712, -2.8906374, 0
1205, 1853715528, 0.26584843, -0.25308153, -0.22187473, 0.9033529, 1.0854033, 1.2232636, -1.2328758, 0
1208, 1853765529, 0.2604504, -0.26576558, -0.22095692, 0.9015059, 5.710172, -1.4910523, 2.0891218, 0
1209, 1853782196, 0.2601418, -0.27326682, -0.21887872, 0.8998578, 0.39176244, -6.489132, 2.2571106, 0
1211, 1853815530, 0.24938492, -0.29121503, -0.22204812, 0.8964911, -2.1320565, -0.50182724, -4.2390924, 0
1212, 1853832197, 0.24337372, -0.30899265, -0.2298187, 0.89021164, -0.8661587, -1.0301315, -1.6827221, 0
1213, 1853848864, 0.24082884, -0.33220372, -0.23952423, 0.8799267, -2.3197517, -0.6189625, -4.3012223, 0
1216, 1853898865, 0.23826593, -0.41670674, -0.26578265, 0.83602935, 4.8145757, 12.19295, 10.275328, 0
1217, 1853915532, 0.25020713, -0.4382187, -0.24751024, 0.8271034, -7.1646743, 2.853532, 4.3589735, 0
1219, 1853948866, 0.26342002, -0.468832, -0.16891882, 0.82599854, -20.557028, -5.4236097, 10.446074, 0
1220, 1853965533, 0.26164657, -0.46934074, -0.15093277, 0.82974696, -8.869564, 10.778841, 2.0249844, 0
1223, 1854015534, 0.26574412, -0.43674204, -0.09859404, 0.85376585, -3.5862048, 11.985646, -0.3049326, 0
1224, 1854032201, 0.2736597, -0.41752455, -0.09144368, 0.86163926, -2.273889, 9.629922, -1.9031248, 0
1226, 1854065535, 0.29955125, -0.37548178, -0.09469834, 0.8719605, 0.44342542, 5.904454, -0.068805695, 0
1227, 1854082202, 0.315812, -0.35310575, -0.10354203, 0.87456197, 0.22300807, 3.567057, -1.1367512, 0
1228, 1854098869, 0.33199912, -0.33075255, -0.11506377, 0.8758654, 0.7924919, 1.9135106, 0.6170111, 0
1230, 1854132203, 0.36339414, -0.28318483, -0.14045282, 0.87637, 1.6771868, -0.7658464, 0.31009102, 0
1232, 1854165537, 0.39282262, -0.23524578, -0.16624145, 0.8733351, 5.745746, -5.4964294, 2.1272507, 0
1234, 1854198871, 0.4229892, -0.1902992, -0.19002588, 0.86530745, 11.135972, -12.717875, -6.36039, 0
1235, 1854215538, 0.43688744, -0.1746572, -0.19756083, 0.8599968, 12.690256, -17.03781, -10.347881, 0
1238, 1854265539, 0.46260205, -0.16695848, -0.19780532, 0.84793746, 12.161395, -26.20604, -17.371315, 0
1239, 1854282206, 0.46093696, -0.17900309, -0.18927212, 0.8483345, 13.694693, -28.939379, -14.426447, 0
1240, 1854298873, 0.4526991, -0.19531213, -0.17353122, 0.85252804, 13.549015, -28.153854, -12.379711, 0
1242, 1854332207, 0.41959518, -0.24597836, -0.12344243, 0.8649839, 14.140881, -21.417526, -19.604168, 0
1243, 1854348874, 0.3994777, -0.28565526, -0.08449534, 0.8669945, 16.064932, -20.315987, -25.45648, 0
1244, 1854365541, 0.4002034, -0.29469976, -0.0452911, 0.8665671, 37.74835, -23.126265, 12.564207, 0
1246, 1854398875, 0.37760177, -0.3173619, -0.02941114, 0.86938703, -0.085442126, -6.6369524, 4.9979277, 0
1249, 1854448876, 0.333505, -0.44672623, 0.022899037, 0.82987124, -3.012403, 8.355465, 1.960329, 0
1250, 1854465543, 0.30400154, -0.5174895, 0.061889775, 0.7974698, -4.002406, 12.061784, 4.7406206, 0
1253, 1854515544, 0.10230083, -0.73111254, 0.19798675, 0.644834, 7.602874, 42.499344, 50.44918, 0
1254, 1854532211, 0.08116814, -0.77074265, 0.20984384, 0.59609866, 6.3425593, 73.97446, 80.16145, 0
1255, 1854548878, 0.09792241, -0.7945153, 0.22508787, 0.555421, 5.8416023, -7.809364, 9.07807, 0
1257, 1854582212, -0.006080902, -0.8549156, 0.25117993, 0.453863, -28.28673, 60.362316, 7.0404663, 0
1258, 1854598879, -0.04429304, -0.8678501, 0.26110476, 0.42035607, -26.008705, 38.26806, -11.077853, 0
1259, 1854615546, -0.08611463, -0.8743865, 0.2747775, 0.39055115, -25.129333, 29.682098, -19.623554, 0
1261, 1854648880, -0.15343177, -0.86297125, 0.3195937, 0.35999984, -15.061359, 17.675137, -24.496763, 0
1262, 1854665547, -0.17692722, -0.84868366, 0.34919468, 0.35566324, -8.179135, 11.371162, -23.0724, 0
1263, 1854682214, -0.19421186, -0.83181626, 0.3824656, 0.352256, -3.5086486, 8.402318, -22.504353, 0
1265, 1854715548, -0.2031887, -0.80108887, 0.44549918, 0.34424147, 0.8645349, 6.3923182, -25.308979, 0
1267, 1854748882, -0.18744689, -0.78498507, 0.47716823, 0.34781194, 2.6371253, -2.290102, -21.343075, 0
1269, 1854782216, -0.16001545, -0.7831908, 0.48022586, 0.36109728, 1.1489707, -5.2527914, -19.34478, 0
1270, 1854798883, -0.14267246, -0.78519696, 0.47191712, 0.3747065, -0.63431835, -4.5228195, -19.770866, 0
1272, 1854832217, -0.09684668, -0.7888507, 0.44075584, 0.41721737, -2.6542788, -5.6207604, -17.998577, 0
1273, 1854848884, -0.07167849, -0.7876376, 0.42007166, 0.445005, -5.6631994, -0.4370044, -17.81266, 0
1274, 1854865551, -0.042409785, -0.78144735, 0.39693338, 0.47956845, -7.1449747, 3.0891511, -16.187275, 0
1276, 1854898885, 0.020542562, -0.7500908, 0.3442996, 0.5642695, -8.691628, 8.597848, -10.363979, 0
1278, 1854932219, 0.08407961, -0.69069666, 0.28306538, 0.6601085, -7.21798, 8.614932, -3.5606408, 0
1280, 1854965553, 0.13291581, -0.6106108, 0.21326587, 0.7510035, -3.7518804, 11.5770645, 6.3330975, 0
1282, 1854998887, 0.17292543, -0.5337819, 0.1307548, 0.8173599, 4.2638073, 9.639705, 13.684666, 0
1284, 1855032221, 0.22853884, -0.4685569, 0.04125929, 0.85236293, 2.822933, 4.1814795, 23.84494, 0
1285, 1855048888, 0.26001573, -0.43174186, -0.005113939, 0.86369264, -0.55167097, -2.6220477, 22.612309, 0
1286, 1855065555, 0.28589997, -0.39109075, -0.052791208, 0.87322557, -3.486539, -8.898908, 19.53544, 0
1288, 1855098889, 0.313268, -0.30303046, -0.14302856, 0.8885825, 3.6138368, -13.076148, 15.427612, 0
1289, 1855115556, 0.32224655, -0.2644441, -0.17951593, 0.89106727, 9.436848, -11.463502, 11.629147, 0
1290, 1855132223, 0.33552426, -0.23390052, -0.20837313, 0.88842285, 11.369493, -11.3765955, 11.220053, 0
1292, 1855165557, 0.38442308, -0.18817405, -0.2522904, 0.8678475, 8.5404, -13.822263, 6.390724, 0
1294, 1855198891, 0.44368225, -0.15657945, -0.27480036, 0.838519, 1.4409826, -16.83466, -2.8442411, 0
1297, 1855248892, 0.487083, -0.12845004, -0.2700185, 0.8205737, 3.5194395, -20.027082, -0.8215952, 0
1298, 1855265559, 0.49166024, -0.115588434, -0.2690319, 0.82008046, 2.2917264, -14.9066, -7.5899224, 0
1300, 1855298893, 0.49324945, -0.1027855, -0.26214176, 0.82305676, 5.0576434, -13.286984, -10.819261, 0
1301, 1855315560, 0.49202576, -0.10065946, -0.25499192, 0.82629156, 6.7304363, -12.922054, -11.293946, 0
1303, 1855348894, 0.49150145, -0.10327015, -0.23627587, 0.8318268, 5.1804075, -15.043704, -11.633509, 0
1304, 1855365561, 0.4922635, -0.109386556, -0.22881633, 0.83267933, 4.458638, -15.758751, -12.083166, 0
1305, 1855382228, 0.48897704, -0.11811515, -0.21923524, 0.83599436, 4.054055, -19.329733, -11.122291, 0
1307, 1855415562, 0.46220782, -0.14269729, -0.20054771, 0.8519286, 9.312726, -25.394228, -11.076984, 0
1308, 1855432229, 0.43733966, -0.16199204, -0.1829231, 0.8654664, 13.767188, -27.889952, -8.171186, 0
1312, 1855498897, 0.36103946, -0.28492516, -0.08618821, 0.8837648, 20.144882, 6.338722, 33.81001, 0
1313, 1855515564, 0.3501167, -0.30099112, -0.07514274, 0.88384193, -0.06282033, -11.877506, 16.191456, 0
1315, 1855548898, 0.328426, -0.33809018, -0.070158675, 0.8791529, -3.2604964, -1.3651996, 2.6726542, 0
1316, 1855565565, 0.3181378, -0.37974766, -0.059776664, 0.8666067, -2.9467833, 5.3965797, 0.5405474, 0
1317, 1855582232, 0.30188066, -0.4452735, -0.033107612, 0.84232074, -2.8464713, 9.476699, 1.1854, 0
1319, 1855615566, 0.22404058, -0.6039734, 0.074246846, 0.7612552, -9.723831, 16.574978, 13.05204, 0
1320, 1855632233, 0.15415306, -0.6816564, 0.12741007, 0.7038102, -18.258955, 40.157726, 43.659798, 0
1321, 1855648900, 0.08841838, -0.73139465, 0.15099496, 0.6591245, -4.586913, 57.537594, 75.10971, 0
1323, 1855682234, 0.06850159, -0.7557503, 0.20375606, 0.61857355, 2.2590775, -28.36389, 16.521029, 0
1324, 1855698901, 0.016971182, -0.7691649, 0.22570944, 0.59762275, 1.5802661, 40.891705, 29.282486, 0
1328, 1855765569, -0.12679155, -0.82051307, 0.33917773, 0.44231352, -22.231384, 29.186583, -24.78928, 0
1330, 1855798903, -0.19032481, -0.8150033, 0.36883858, 0.40435714, -14.230652, 12.416378, -28.773592, 0
1331, 1855815570, -0.21612646, -0.8017437, 0.38895768, 0.39900973, -8.786332, 9.296917, -27.953323, 0
1332, 1855832237, -0.23475349, -0.7857186, 0.41252553, 0.3966867, -4.6518993, 7.857848, -27.269526, 0
1334, 1855865571, -0.25016642, -0.7569167, 0.45729846, 0.394173, -0.5986008, 7.221397, -26.767462, 0
1335, 1855882238, -0.24756812, -0.7477833, 0.47071373, 0.39744073, -0.13524903, 4.8419943, -25.762535, 0
1336, 1855898905, -0.23947833, -0.7430264, 0.47628, 0.404623, 1.1658889, 1.9200186, -23.78356, 0
1338, 1855932239, -0.21057488, -0.7450694, 0.46817014, 0.42584863, 0.34291574, -1.2461655, -19.2541, 0
1339, 1855948906, -0.19234343, -0.74953634, 0.45458007, 0.44108593, -0.9986056, 0.2992577, -18.413551, 0
1342, 1855998907, -0.11197157, -0.76030326, 0.38713408, 0.50943995, -5.555707, 3.2086573, -15.025132, 0
1343, 1856015574, -0.077510655, -0.7581765, 0.35842848, 0.5391566, -6.651913, 5.0819592, -13.542067, 0
1344, 1856032241, -0.039760157, -0.751183, 0.3286389, 0.5710868, -6.7276244, 5.080954, -11.793133, 0
1346, 1856065575, 0.03649715, -0.7198906, 0.2652152, 0.6403803, -8.174217, 11.093138, -5.8750906, 0
1347, 1856082242, 0.07490407, -0.6945518, 0.23159014, 0.67701817, -9.449077, 11.334507, -2.086162, 0
1348, 1856098909, 0.10980765, -0.66283804, 0.1957104, 0.714343, -8.713983, 12.501913, 2.899744, 0
1350, 1856132243, 0.16866452, -0.5857816, 0.120411485, 0.7835265, -0.23986785, 13.333165, 12.819942, 0
1351, 1856148910, 0.19728574, -0.54901564, 0.08063113, 0.8081827, 2.755506, 14.272034, 20.415712, 0
1353, 1856182244, 0.26022342, -0.47501814, -0.009969807, 0.8405607, 3.350728, 2.2524989, 30.03418, 0
1354, 1856198911, 0.28970748, -0.43493053, -0.057288617, 0.85066056, 4.1640797, -3.4395368, 30.016846, 0
1358, 1856265579, 0.36674377, -0.2692537, -0.22891131, 0.86058205, 7.3873277, -19.358315, 10.674549, 0
1359, 1856282246, 0.37877694, -0.2364535, -0.25585443, 0.8574128, 8.332107, -16.944107, 5.078971, 0
1361, 1856315580, 0.4149459, -0.18954143, -0.28893346, 0.8416721, 8.2590275, -15.734783, 0.9595251, 0
1362, 1856332247, 0.43957046, -0.17194857, -0.29434317, 0.8310078, 6.297691, -16.829952, -1.0477495, 0
1363, 1856348914, 0.46523798, -0.1569269, -0.2953251, 0.8195797, 3.5953875, -17.03116, -4.328276, 0
1365, 1856382248, 0.5046194, -0.13354819, -0.28517523, 0.80386543, -1.7067422, -15.407998, -9.3583145, 0
1366, 1856398915, 0.51280594, -0.12393369, -0.2763072, 0.8033215, -2.9727283, -15.184043, -9.421324, 0
1367, 1856415582, 0.5135783, -0.115170166, -0.26967597, 0.80637985, -1.2865266, -16.481617, -6.4103537, 0
1369, 1856448916, 0.504877, -0.0958003, -0.26590034, 0.8156096, 2.8784554, -11.217188, -10.357442, 0
1371, 1856482250, 0.4946505, -0.08683728, -0.25810248, 0.82532644, 5.980349, -11.018953, -10.6648, 0
1374, 1856532251, 0.49014845, -0.09040302, -0.24144629, 0.8326379, 5.6424203, -17.41291, -12.304565, 0
1375, 1856548918, 0.48491618, -0.09735056, -0.23507571, 0.83673114, 5.6002254, -22.251564, -12.772421, 0
1377, 1856582252, 0.45744276, -0.12655234, -0.21902852, 0.85250086, 12.983642, -31.568373, -9.2274065, 0
1378, 1856598919, 0.43529522, -0.14817883, -0.20224018, 0.8646736, 17.453766, -29.196655, -10.411692, 0
1379, 1856615586, 0.40832537, -0.17749569, -0.1785393, 0.8774336, 20.460043, -28.18217, -7.198304, 0
1381, 1856648920, 0.38090277, -0.29341835, -0.10155301, 0.8709226, 22.628935, -66.88902, 122.08176, 0
1382, 1856665587, 0.37095496, -0.29946598, -0.0816164, 0.87524396, 2.5853827, 17.35969, -10.809134, 0
1384, 1856698921, 0.35059917, -0.32908782, -0.0756556, 0.8735321, -3.9484038, -1.7740856, 3.730586, 0
1386, 1856732255, 0.3225704, -0.42716253, -0.042653628, 0.84360033, -3.7645674, 7.9848366, 1.7025108, 0
1388, 1856765589, 0.24814273, -0.5899115, 0.06179937, 0.7659054, -10.218057, 15.57007, 12.378916, 0
1390, 1856798923, 0.13187528, -0.7147104, 0.17689005, 0.663708, 2.5701103, 62.985706, 48.767178, 0
1392, 1856832257, 0.15341568, -0.7683496, 0.23073418, 0.5769443, 1.4190245, -1.2287183, -8.082849, 0
1393, 1856848924, 0.11850254, -0.80408174, 0.23492959, 0.53312105, -19.827036, 45.273903, 4.1798925, 0
1394, 1856865591, 0.10126137, -0.82564825, 0.23807086, 0.50137216, -24.688677, 42.912643, -20.984196, 0
1396, 1856898925, 0.04956571, -0.83627665, 0.23061562, 0.4949762, -28.029715, 26.062159, -36.41173, 0
1397, 1856915592, 0.027839446, -0.8222258, 0.22345382, 0.5227223, -17.576683, 19.187214, -32.534645, 0
1398, 1856932259, 0.019129535, -0.80024236, 0.22169288, 0.5568651, -8.619366, 15.412549, -28.333235, 0
1401, 1856982260, 0.07135753, -0.7283608, 0.2182135, 0.64558655, -3.48379, 10.8674755, -18.138975, 0
1402, 1856998927, 0.10076643, -0.706887, 0.20016576, 0.6708882, -3.8067796, 13.25714, -12.345154, 0
1404, 1857032261, 0.16821761, -0.6618427, 0.14143397, 0.7167036, -5.7729917, 6.654134, -4.936633, 0
1406, 1857065595, 0.22776142, -0.60354686, 0.070383884, 0.7608564, 0.015071535, 2.360947, 3.2809896, 0
1408, 1857098929, 0.28821668, -0.54254603, 0.013718121, 0.7889152, 7.274419, -1.8029025, 8.939491, 0
1409, 1857115596, 0.3200221, -0.52078885, -0.020020727, 0.7911792, 10.291183, -6.0639286, 10.97208, 0
1411, 1857148930, 0.38470864, -0.48891413, -0.075251035, 0.7792946, 6.9395123, -11.892159, 13.712402, 0
1412, 1857165597, 0.4012163, -0.4728179, -0.07936663, 0.78049356, -9.665589, -57.899384, 10.972099, 0
1413, 1857182264, 0.39980316, -0.45328927, -0.08565993, 0.7920539, 0.5675119, -22.15029, 20.574678, 0
1416, 1857232265, 0.4182346, -0.4484631, -0.09482232, 0.78420013, 11.612688, -6.857664, 3.406331, 0
1417, 1857248932, 0.42416546, -0.45421886, -0.09730678, 0.7773678, 3.6173408, -8.744158, 0.7417593, 0
1419, 1857282266, 0.4188673, -0.4686545, -0.11144054, 0.76973677, 0.6165471, -5.3250513, -4.1892414, 0
1420, 1857298933, 0.40918663, -0.47181892, -0.11611741, 0.77231497, 0.8406494, -3.767428, -1.899941, 0
1421, 1857315600, 0.3977201, -0.47064042, -0.11845849, 0.7786427, 1.1912065, -4.4692097, -3.0736184, 0
1423, 1857348934, 0.38139883, -0.47218674, -0.12286356, 0.7851622, 2.2662725, -4.678806, -5.57512, 0
1424, 1857365601, 0.377028, -0.46916318, -0.1317367, 0.7876431, -10.78772, -9.434156, 5.4086742, 0
1425, 1857382268, 0.38194302, -0.4632403, -0.13447268, 0.78831816, 4.029095, 1.4622207, 1.2616644, 0
1427, 1857415602, 0.4004323, -0.45002183, -0.1395545, 0.78591305, 1.4440278, -1.0335467, -3.1818042, 0
1428, 1857432269, 0.40559086, -0.44400436, -0.1359168, 0.78732675, 0.98905843, -0.5255229, -0.5689907, 0
1431, 1857482270, 0.39531842, -0.4074742, -0.13717687, 0.8117088, 1.3695575, -1.1661868, -2.5615282, 0
1432, 1857498937, 0.380691, -0.39637715, -0.14794683, 0.8222358, 2.3777163, 0.40337506, 0.045928, 0
1434, 1857532271, 0.34439006, -0.37544018, -0.1633413, 0.8448432, 3.3340826, 2.2090786, -1.6447525, 0
1436, 1857565605, 0.3364051, -0.33940858, -0.14880367, 0.8657318, -11.110803, 0.54838264, 2.9499855, 0
1438, 1857598939, 0.34718177, -0.30638412, -0.14435229, 0.8745036, -6.994531, -4.102633, -0.8901615, 0
1439, 1857615606, 0.34805998, -0.29895997, -0.14437549, 0.8767174, -4.7644067, -3.2499332, 3.0183296, 0
1440, 1857632273, 0.3475005, -0.29384577, -0.14374752, 0.8787691, 0.62418866, -0.4278057, 1.6368132, 0
1442, 1857665607, 0.34542593, -0.28941223, -0.14474496, 0.88089216, -2.4057953, -1.8272264, -2.1498427, 0
1443, 1857682274, 0.34481904, -0.28801233, -0.14577931, 0.881418, -0.51871544, -1.5415834, -1.4093351, 0
1446, 1857732275, 0.34553438, -0.2835551, -0.1522035, 0.881497, 0.9034349, 2.1510682, -3.5026011, 0
1447, 1857748942, 0.34619033, -0.28421244, -0.15185542, 0.8810878, -0.4336768, -3.0821896, -1.0405741, 0
1448, 1857765609, 0.34772307, -0.28278437, -0.15267044, 0.8808029, -0.05976418, -0.35375687, -1.1628857, 0
1450, 1857798943, 0.35182583, -0.28079835, -0.15179577, 0.8799599, 1.1918341, -2.2117233, 3.9670353, 0
1452, 1857832277, 0.35341185, -0.28096238, -0.14893101, 0.87976134, -5.0414076, -4.505212, -0.4518938, 0
1454, 1857865611, 0.3509877, -0.28122625, -0.14262293, 0.88169086, -0.64922494, -2.7461033, 1.176753, 0
1455, 1857882278, 0.3501439, -0.2794562, -0.14218795, 0.8826589, -1.3276637, -0.17030759, 1.6761827, 0
1456, 1857898945, 0.34940988, -0.278682, -0.1428951, 0.8830802, -0.31547195, 0.46845573, -0.27515793, 0
1458, 1857932279, 0.34746787, -0.2759007, -0.143119, 0.88468206, -2.8141124, -0.8506504, -0.052106857, 0
1460, 1857965613, 0.34617227, -0.27243856, -0.14443499, 0.8860479, -1.2111794, 1.1422157, -1.3214035, 0
1462, 1857998947, 0.3465153, -0.2677094, -0.14334527, 0.8875312, 1.3133355, 1.961325, 3.634757, 0
1463, 1858015614, 0.34758708, -0.26552305, -0.14169939, 0.888033, 0.22831027, 3.3063207, -2.8487515, 0
1465, 1858048948, 0.35271126, -0.2634038, -0.13790932, 0.88724, -2.73674, 2.684408, -0.7305794, 0
1466, 1858065615, 0.35491955, -0.26424697, -0.1347361, 0.88659585, -3.5869668, 2.6038022, -2.4150171, 0
1469, 1858115616, 0.3542032, -0.26905447, -0.124661274, 0.8869104, -3.1126356, 3.7277653, -0.9791746, 0
1470, 1858132283, 0.35373047, -0.27452594, -0.12020379, 0.88603705, -1.6452525, 4.0487885, -4.2087574, 0
1471, 1858148950, 0.35497656, -0.2828165, -0.116759956, 0.88338786, -2.5555358, -4.6908116, 1.0245466, 0
1473, 1858182284, 0.35328782, -0.28108138, -0.11726757, 0.88455063, -3.8874552, 5.849111, 1.5197048, 0
1475, 1858215618, 0.3508328, -0.28707173, -0.12192474, 0.8829729, 0.86465144, -5.211084, -5.6518188, 0
1477, 1858248952, 0.35271335, -0.27818927, -0.12343478, 0.88485485, 2.652711, 1.4472548, 3.8530684, 0
1478, 1858265619, 0.35169825, -0.27748972, -0.12144089, 0.8857541, 2.1354418, -5.9450293, 0.86329174, 0
1479, 1858282286, 0.35034585, -0.2754187, -0.11793393, 0.88740885, 0.58277637, -4.4380198, -1.1050749, 0
1481, 1858315620, 0.3484299, -0.26889658, -0.10954785, 0.8912301, 3.073543, -3.75283, 2.897294, 0
1482, 1858332287, 0.34831628, -0.2663959, -0.1049735, 0.89257497, 3.4066544, -5.2103915, 0.039377213, 0
1485, 1858382288, 0.35083896, -0.2629842, -0.09574308, 0.893636, 2.3924646, -4.847339, -2.4575891, 0
1486, 1858398955, 0.35334536, -0.26581523, -0.09529203, 0.8918572, 2.1780522, -5.0136285, -1.633132, 0
1487, 1858415622, 0.3569632, -0.26798642, -0.096148126, 0.8896723, 2.3065748, -0.65093374, 2.5273685, 0
1490, 1858465623, 0.36774567, -0.27928573, -0.099481314, 0.8814002, 2.8852918, -0.95854706, -2.6689563, 0
1492, 1858498957, 0.37514257, -0.2830536, -0.10162069, 0.87682533, 0.02634525, 0.69194955, 2.5525303, 0
1493, 1858515624, 0.3776002, -0.28671202, -0.10234999, 0.8744938, 1.4707152, -2.1183455, -1.7844038, 0
1494, 1858532291, 0.3802427, -0.28781694, -0.10302976, 0.8729044, 1.3216537, -2.178093, 1.2973251, 0
1496, 1858565625, 0.38350734, -0.29082614, -0.104747, 0.87027055, -0.6571814, -2.681265, -2.170278, 0
1497, 1858582292, 0.38407364, -0.29136387, -0.10503401, 0.8698062, -0.5376207, -2.7914405, 1.7673044, 0
1498, 1858598959, 0.38436285, -0.29093158, -0.10567679, 0.8697453, -1.6802444, 0.008454378, 0.3571272, 0
1501, 1858648960, 0.3818907, -0.29110202, -0.10826077, 0.87045926, -1.2208273, -2.1618433, 2.5321531, 0
1502, 1858665627, 0.38052556, -0.29125705, -0.10962762, 0.870834, -2.271916, -0.17225574, 0.3587017, 0
1505, 1858715628, 0.37464407, -0.2918499, -0.114418335, 0.8725678, -1.0697249, -0.7136136, -0.3586197, 0
1506, 1858732295, 0.37180123, -0.29293358, -0.11549215, 0.8732787, -1.4917251, -1.3419483, -1.7031012, 0
1508, 1858765629, 0.3678055, -0.2901456, -0.119147465, 0.87540793, -2.3774304, 0.63329047, 0.1873436, 0
1509, 1858782296, 0.36534873, -0.2905103, -0.120346315, 0.87615156, -1.7568163, -0.8144708, -0.1330204, 0
1510, 1858798963, 0.3630648, -0.29000223, -0.12148419, 0.8771116, -1.5453868, -0.14935091, -1.0047693, 0
1512, 1858832297, 0.35938185, -0.28871828, -0.12361108, 0.8787532, -1.619483, 1.0110964, -0.8308439, 0
1513, 1858848964, 0.35759813, -0.287709, -0.124762826, 0.87964875, -0.46797097, 0.20385756, 0.42543125, 0
1516, 1858898965, 0.35236093, -0.28548157, -0.12608127, 0.8822958, 0.6147669, -1.9505773, 1.1004877, 0
1517, 1858915632, 0.35121918, -0.28369632, -0.12616293, 0.8833148, -0.41334742, 0.25890702, 1.6885319, 0
1520, 1858965633, 0.34681562, -0.28364152, -0.123803705, 0.8854036, -0.0066738734, -1.1149524, 1.9847231, 0
1521, 1858982300, 0.3463541, -0.28170994, -0.12320122, 0.88628465, -0.5059146, 2.162862, 1.0151787, 0
1523, 1859015634, 0.34421474, -0.2811305, -0.123091444, 0.88731664, -2.063166, 0.34007528, -1.5735884, 0
1524, 1859032301, 0.34309664, -0.28154898, -0.1225151, 0.8876967, -1.2681757, -0.34853303, -1.0236769, 0
1525, 1859048968, 0.34269285, -0.28153577, -0.12241418, 0.88787067, -0.47889304, 0.3559045, -0.11860275, 0
1527, 1859082302, 0.34160504, -0.27993226, -0.12165552, 0.8889006, -0.862512, 1.0940014, 0.63325787, 0
1528, 1859098969, 0.3403537, -0.27985176, -0.12194312, 0.88936645, -1.2760546, -0.4199121, -0.3899908, 0
1529, 1859115636, 0.3391475, -0.28008842, -0.12208432, 0.8897333, -2.379705, -0.4211402, -1.3583088, 0
1532, 1859165637, 0.334318, -0.28116253, -0.119942725, 0.89151186, -3.4529846, 3.9183369, -3.0920377, 0
1535, 1859215638, 0.32800022, -0.2759244, -0.11310518, 0.89637566, -3.2898579, 2.81543, -0.2785902, 0
1536, 1859232305, 0.32518983, -0.27520847, -0.109932944, 0.898013, -3.8724742, 3.064293, -3.1879816, 0
1537, 1859248972, 0.32340273, -0.2727468, -0.10797255, 0.8996457, -2.3437393, 1.1254162, 2.0898867, 0
1539, 1859282306, 0.31941167, -0.27001426, -0.10344226, 0.90242386, -2.0435724, 2.2647846, 1.4764957, 0
1540, 1859298973, 0.31799224, -0.2695941, -0.101871006, 0.9032292, -2.4040878, 2.959525, -1.4400549, 0
1541, 1859315640, 0.31637937, -0.27124372, -0.100354925, 0.90347123, -2.1947038, 1.685643, -2.5883799, 0
1543, 1859348974, 0.31693465, -0.27279618, -0.101262026, 0.90270776, -0.08505777, 3.571366, -0.9466648, 0
1544, 1859365641, 0.31676504, -0.27798942, -0.101878464, 0.9011121, 1.9342583, -0.65771407, -2.5499454, 0
1546, 1859398975, 0.3254504, -0.27654085, -0.11039005, 0.8974529, 2.4454107, 3.2222779, -1.0443878, 0
1550, 1859465643, 0.3378238, -0.2823045, -0.1229649, 0.8894151, 1.0079281, -2.2157748, 3.0149393, 0
1551, 1859482310, 0.33916777, -0.28399408, -0.12424806, 0.8881866, 0.8415922, -1.6117086, -2.2788978, 0
1552, 1859498977, 0.33997405, -0.2852519, -0.1230698, 0.88763916, 3.7996452, -7.0144567, -3.43955, 0
1554, 1859532311, 0.34108457, -0.27982327, -0.11775716, 0.88965946, 2.4128056, -0.36142996, 3.9144936, 0
1555, 1859548978, 0.34108, -0.27756336, -0.114385396, 0.8908084, 2.008972, -4.879751, -1.1207695, 0
1556, 1859565645, 0.34171015, -0.27553874, -0.11088605, 0.8916373, 1.3520058, -5.963642, -3.8005948, 0
1558, 1859598979, 0.34424645, -0.27313778, -0.10508858, 0.89210236, 2.376884, -3.165665, 2.27003, 0
1559, 1859615646, 0.34612703, -0.27328694, -0.10434694, 0.89141595, 2.6321247, -1.0326215, 0.85569954, 0
1560, 1859632313, 0.3482986, -0.2760759, -0.10537843, 0.8895876, 2.1319067, -0.6754542, -3.5927625, 0
1562, 1859665647, 0.35393333, -0.2815535, -0.107416764, 0.88539314, 3.9255378, -3.2476249, 4.1045504, 0
1566, 1859732315, 0.36255115, -0.28897643, -0.106712684, 0.8795807, -0.10319425, 1.0427934, -1.1246929, 0
1567, 1859748982, 0.36409086, -0.28856564, -0.106789, 0.87907016, -1.4173214, 0.7825966, 1.6297998, 0
1568, 1859765649, 0.36485353, -0.2872797, -0.1064111, 0.87922084, -1.560164, -1.6571718, 2.180028, 0
1570, 1859798983, 0.36313957, -0.28628367, -0.10487847, 0.88043875, -1.3405753, -1.4309822, -4.2039614, 0
1571, 1859815650, 0.36171925, -0.28720465, -0.104770206, 0.8807362, -1.2473457, -2.356832, -3.5220704, 0
1573, 1859848984, 0.36058614, -0.28114152, -0.10565583, 0.8830485, 0.4704382, 0.8515288, 2.9135904, 0
1574, 1859865651, 0.3594304, -0.28088334, -0.10627328, 0.8835274, -0.2263968, -0.6189704, 1.1490526, 0
1575, 1859882318, 0.35845643, -0.28021616, -0.10690792, 0.8840583, -3.122671, 1.8340251, -2.1977892, 0
1577, 1859915652, 0.35703918, -0.27948838, -0.1080353, 0.8847249, 0.22397976, 1.1472409, -0.01477623, 0
1579, 1859948986, 0.35607436, -0.279348, -0.10911367, 0.88502556, 0.998312, -1.4608685, 1.580123, 0
1581, 1859982320, 0.35458654, -0.279929, -0.1096725, 0.88537043, 0.52842295, -3.1408246, 1.0824442, 0
1582, 1859998987, 0.35408416, -0.27934355, -0.109688655, 0.8857543, -1.9488484, 0.86835724, -0.6911783, 0
1583, 1860015654, 0.35329574, -0.27989447, -0.1094556, 0.88592386, -1.377865, 0.97521675, -2.299467, 0
1585, 1860048988, 0.3526327, -0.27753943, -0.10881215, 0.8870077, 1.6570281, -0.4209947, 2.1684656, 0
1586, 1860065655, 0.35234362, -0.27609235, -0.108603835, 0.8875994, 2.2023282, -1.4555101, 3.020732, 0
1587, 1860082322, 0.35219416, -0.2754874, -0.10864001, 0.8878423, 0.5648815, -2.4692101, 2.652317, 0
1589, 1860115656, 0.35152158, -0.27637854, -0.10816246, 0.88789004, -0.652556, -0.26592827, -1.4523621, 0
1590, 1860132323, 0.35170645, -0.2768661, -0.10762626, 0.8877302, 0.5906493, 0.9509258, -0.8362036, 0
1591, 1860148990, 0.35229766, -0.27779168, -0.107149914, 0.8872641, 0.8598238, 1.1604881, -0.6947279, 0
1595, 1860215658, 0.35468343, -0.27767858, -0.10648219, 0.88642895, -1.2324082, 1.0162835, -2.5064025, 0
1597, 1860248992, 0.3552792, -0.27625585, -0.106122725, 0.8866781, -1.1017787, 1.6464972, 0.74696827, 0
1598, 1860265659, 0.35500056, -0.2759417, -0.106168255, 0.8868819, -0.6608199, -0.33597338, 1.8722839, 0
1600, 1860298993, 0.35355043, -0.27483854, -0.10549982, 0.8878829, -2.208447, 1.8165292, -1.633914, 0
1601, 1860315660, 0.3528386, -0.27447888, -0.104786284, 0.8883618, -1.2940996, 1.4800203, -2.1072583, 0
1602, 1860332327, 0.35242173, -0.27325907, -0.1042444, 0.88896686, 0.39493343, 0.06421136, 1.4114075, 0
1604, 1860365661, 0.35187563, -0.27072385, -0.10324912, 0.89007425, 0.82724917, -0.21570666, 2.0672379, 0
1605, 1860382328, 0.3517504, -0.27031115, -0.10284227, 0.8902964, -0.7804415, 0.6662687, -0.7487726, 0
1606, 1860398995, 0.35182032, -0.27090818, -0.1023427, 0.89014477, -1.6807492, 0.057769828, -1.4316387, 0
1609, 1860448996, 0.35447633, -0.27148423, -0.102428705, 0.88890487, 1.0230345, 0.9541948, 1.082716, 0
1612, 1860498997, 0.356413, -0.27344593, -0.10175067, 0.88760597, 1.605632, -6.2731986, -0.2847376, 0
1613, 1860515664, 0.3565044, -0.27467802, -0.10059018, 0.88732105, 0.38561323, -3.2208579, -2.4024506, 0
1614, 1860532331, 0.35759366, -0.27425534, -0.10086202, 0.8869827, 0.64330995, 3.3954086, 1.4812584, 0
1616, 1860565665, 0.3583753, -0.27528033, -0.100555114, 0.88638425, -0.65525323, -0.0986228, -2.2036004, 0
1617, 1860582332, 0.35893193, -0.27546978, -0.100599006, 0.8860951, 3.022392, -7.166587, 2.1523676, 0
1618, 1860598999, 0.3598547, -0.27596283, -0.100178085, 0.8856151, -0.07021296, -1.6517314, -1.3679056, 0
1620, 1860632333, 0.3608428, -0.27662647, -0.10012576, 0.8850117, 2.615183, -7.30506, -0.27432632, 0
1621, 1860649000, 0.36159828, -0.27693617, -0.1003291, 0.88458335, -2.9759119, 10.1994505, -2.6342473, 0
1624, 1860699001, 0.36339387, -0.27708125, -0.09982908, 0.88385826, -1.2513514, 6.094602, 3.6790876, 0
1625, 1860715668, 0.36368236, -0.27676314, -0.099396095, 0.883888, 6.518591, -16.444988, 0.100432396, 0
1628, 1860765669, 0.36585158, -0.27554613, -0.098757654, 0.88344467, 2.8885074, -9.408713, -0.43793488, 0
1629, 1860782336, 0.36626995, -0.27594587, -0.09879676, 0.88314205, -4.3697577, 9.610583, -2.8827782, 0
1631, 1860815670, 0.36680347, -0.27505717, -0.098717615, 0.88320667, -2.915559, 7.401678, -4.6936774, 0
1632, 1860832337, 0.36703455, -0.27568585, -0.099236935, 0.8828564, 3.3896885, -5.892629, 1.9318933, 0
1633, 1860849004, 0.36680457, -0.27677992, -0.098140664, 0.8827322, 1.1954772, -7.754336, -3.0999908, 0
1635, 1860882338, 0.36741486, -0.27628946, -0.09841136, 0.882602, 6.6102176, -13.990534, 3.9537659, 0
1636, 1860899005, 0.36756134, -0.27707848, -0.097747184, 0.88236743, -2.315324, 1.9178985, -4.296945, 0
1639, 1860949006, 0.36772576, -0.2769317, -0.09733766, 0.88239014, 1.7392529, -3.4013522, -1.1377773, 0
1640, 1860965673, 0.36777657, -0.27735412, -0.097269304, 0.8822439, -0.58041775, -1.0201142, -0.8727312, 0
1641, 1860982340, 0.36787647, -0.2771768, -0.09718267, 0.8822675, 1.2917843, -2.9178429, 0.16955185, 0
1644, 1861032341, 0.36914864, -0.27818364, -0.0970168, 0.8814372, 3.6975062, -9.327498, 2.2372122, 0
1645, 1861049008, 0.36953944, -0.27875873, -0.09669058, 0.8811275, 1.1981364, -3.116326, -0.85531616, 0
1647, 1861082342, 0.37114227, -0.2789037, -0.09738508, 0.880331, 2.8641918, -7.2397423, 1.7639904, 0
1648, 1861099009, 0.37153465, -0.27994272, -0.09697021, 0.8798814, 0.6131177, -2.7508829, -3.8590016, 0
1649, 1861115676, 0.37220487, -0.280514, -0.097219706, 0.87938863, -0.573479, 2.744539, -1.2827368, 0
1651, 1861149010, 0.37425625, -0.27992794, -0.09777928, 0.87864226, 2.87297, -7.8437033, -0.067370415, 0
1654, 1861199011, 0.3758909, -0.2811348, -0.09795763, 0.8775385, 2.981725, -4.5964584, 0.92321587, 0
1655, 1861215678, 0.37634146, -0.28255042, -0.09814498, 0.8768696, 1.4807326, -5.62979, -0.25010204, 0
1656, 1861232345, 0.37660292, -0.28284246, -0.098372675, 0.8766377, -0.9266519, 0.32968965, -1.976347, 0
1658, 1861265679, 0.3775622, -0.2830553, -0.09925557, 0.8760566, 1.6489992, -3.7629952, -0.03658104, 0
1659, 1861282346, 0.37793764, -0.28381935, -0.09949992, 0.87561977, -0.2559766, -2.7359293, -1.3805933, 0
1660, 1861299013, 0.37773192, -0.2847861, -0.09958556, 0.8753849, 0.84339964, -4.2874374, 0.33211517, 0
1662, 1861332347, 0.3773904, -0.28619143, -0.099600464, 0.8750721, 1.4739515, -5.6934876, -1.3305645, 0
1663, 1861349014, 0.37703723, -0.28691685, -0.09960043, 0.8749868, -1.6314756, 0.7701208, -1.5224037, 0
1664, 1861365681, 0.37672153, -0.28590077, -0.09976088, 0.87543696, 1.6203413, -3.3038483, 2.9068823, 0
1666, 1861399015, 0.3752029, -0.2870022, -0.09969732, 0.8757361, -0.15684782, -4.7924094, -1.4187689, 0
1668, 1861432349, 0.37382582, -0.28670567, -0.099675365, 0.8764243, 0.29478005, 0.54546064, -1.154295, 0
1670, 1861465683, 0.3731596, -0.28675392, -0.10057622, 0.87658936, 2.436769, -7.4041777, 1.5883999, 0
1671, 1861482350, 0.3723777, -0.28712067, -0.10083714, 0.87677175, -0.67582077, -1.6209549, -2.027021, 0
1674, 1861532351, 0.3715096, -0.28740203, -0.10122314, 0.8770033, 2.08091, -4.8292093, 1.2693415, 0
1675, 1861549018, 0.3710386, -0.28765148, -0.101216175, 0.87712187, 1.3889772, -4.0574393, -0.44519138, 0
1677, 1861582352, 0.37089548, -0.28679517, -0.10124096, 0.87746, -0.35593367, 0.64073753, -0.6130552, 0
1678, 1861599019, 0.37118167, -0.28602296, -0.10155424, 0.87755466, 1.283256, -2.0798144, 1.6282034, 0
1679, 1861615686, 0.3710357, -0.2859623, -0.10163078, 0.8776273, 1.9977894, -6.0976834, 1.344121, 0
1681, 1861649020, 0.3702422, -0.28658158, -0.101359755, 0.8777917, -0.17710991, -0.7714305, -2.0716562, 0
1683, 1861682354, 0.37016612, -0.28539026, -0.10157819, 0.8781866, 0.7288445, -1.5004587, 1.0360212, 0
1685, 1861715688, 0.36968395, -0.2849061, -0.102167696, 0.87847865, 1.3084574, -5.7528934, 0.31612682, 0
1686, 1861732355, 0.3690827, -0.28539547, -0.10200098, 0.87859184, 0.46583965, -4.9112535, -1.9388309, 0
1687, 1861749022, 0.368489, -0.2853152, -0.1017575, 0.87889534, -0.89792645, -0.3840808, -2.6840467, 0
1690, 1861799023, 0.36784187, -0.28249034, -0.10266133, 0.87997323, 1.4811935, -5.2461414, 2.252514, 0
1691, 1861815690, 0.36718145, -0.28191882, -0.10260037, 0.88043916, 0.67806655, -5.8136787, -0.76956844, 0
1693, 1861849024, 0.36516687, -0.28216797, -0.10194337, 0.88127327, -0.15049784, -0.4081521, -2.369759, 0
1694, 1861865691, 0.36473098, -0.2813496, -0.101695776, 0.8817437, 0.6601698, -0.69465756, -0.30990124, 0
1695, 1861882358, 0.36421978, -0.28031287, -0.101613134, 0.88229465, 1.4083959, -1.6509607, 1.8345938, 0
1698, 1861932359, 0.36268282, -0.27545378, -0.10099851, 0.88452595, -0.33621836, -2.6140263, 0.010878563, 0
1699, 1861949026, 0.36200225, -0.27475935, -0.1006229, 0.8850634, 1.0597078, -4.982231, -0.42674446, 0
1701, 1861982360, 0.3605945, -0.27365127, -0.09981589, 0.8860721, 1.131891, -1.3775494, -1.7720022, 0
1702, 1861999027, 0.36010525, -0.2730128, -0.0993544, 0.88651985, 1.692358, -2.215253, -0.2194643, 0
1703, 1862015694, 0.3598361, -0.27150068, -0.09895115, 0.88713837, 1.1501033, -2.2318995, 0.3094206, 0
1706, 1862065695, 0.35926086, -0.26807415, -0.09788042, 0.88853127, 1.2050142, -3.294572, 0.87824535, 0
1708, 1862099029, 0.35873756, -0.26740223, -0.096650854, 0.88907963, 2.1032622, -4.1823673, 0.26886368, 0
1709, 1862115696, 0.35865688, -0.2668303, -0.096098885, 0.88934374, 1.1846318, -2.480832, -0.7345638, 0
1710, 1862132363, 0.3584596, -0.2666477, -0.09536898, 0.8895567, 1.3023937, -2.0216331, -0.74445915, 0
1713, 1862182364, 0.35849896, -0.26454422, -0.092655905, 0.8904551, 1.1811916, -2.9360359, 0.6353884, 0
1714, 1862199031, 0.35849547, -0.26375708, -0.091538735, 0.8908054, 0.42364964, -1.2646271, -0.33238697, 0
1716, 1862232365, 0.35832366, -0.26254627, -0.08913479, 0.89147574, 0.17054544, -1.5590022, -0.08609676, 0
1717, 1862249032, 0.3581273, -0.2618333, -0.087879546, 0.891889, 0.973052, -2.6103992, 0.1498127, 0
1718, 1862265699, 0.35779545, -0.2614609, -0.08631648, 0.8922838, 1.3222328, -3.1960316, -0.520628, 0
1720, 1862299033, 0.35757187, -0.260704, -0.08371565, 0.8928426, 1.3488094, -3.8061829, 0.54730797, 0
1722, 1862332367, 0.3568971, -0.26063347, -0.08237341, 0.89325786, 0.7022966, -2.7035372, -0.6218147, 0
1724, 1862365701, 0.35588032, -0.25980452, -0.080300644, 0.8940935, 0.5156959, -2.2471251, 0.18233776, 0
1725, 1862382368, 0.3550567, -0.2596091, -0.07894936, 0.8945979, 0.6580427, -1.9663861, 0.17942142, 0
1728, 1862432369, 0.35087264, -0.26494732, -0.07688835, 0.8948631, 1.3298302, -2.8626583, -0.32536602, 0
1729, 1862449036, 0.3497981, -0.26771894, -0.07721548, 0.89443076, 0.47731516, -3.4093513, 0.7456045, 0
1730, 1862465703, 0.34853768, -0.27001172, -0.07703531, 0.89424896, 0.14259511, -4.019513, -0.30508804, 0
1732, 1862499037, 0.3468588, -0.2738207, -0.07591, 0.8938396, 1.0904946, -0.9339489, -1.2491589, 0
1733, 1862515704, 0.34600252, -0.27518913, -0.0751773, 0.89381325, 1.090882, -2.1735475, -0.67036057, 0
1735, 1862549038, 0.34367764, -0.2777333, -0.073287666, 0.8940801, 0.14142121, -3.4627776, 0.730134, 0
1736, 1862565705, 0.3420288, -0.28116685, -0.07261403, 0.89369416, -0.0076481383, -1.836007, 0.5599232, 0
1737, 1862582372, 0.34041688, -0.28716868, -0.07181611, 0.8924649, -0.46892393, -0.54223347, -0.036025047, 0
1739, 1862615706, 0.33648634, -0.30737257, -0.069732785, 0.8873763, -1.0045259, -0.66385335, -0.21497536, 0
1740, 1862632373, 0.33417064, -0.32135397, -0.06947827, 0.88330895, -1.4844977, -0.84322286, 0.1802311, 0
1743, 1862682374, 0.3295292, -0.37849006, -0.069162145, 0.8621907, -2.642839, 0.9087895, 2.2370462, 0
1744, 1862699041, 0.33085814, -0.40111396, -0.07175261, 0.85117126, -3.7921588, 0.13792582, 1.9799595, 0
1745, 1862715708, 0.334369, -0.42238614, -0.07752173, 0.8389148, -3.1389422, -0.19939892, 1.9495506, 0
1747, 1862749042, 0.33332837, -0.4462284, -0.076819256, 0.8269653, -15.458944, -4.350131, 4.322239, 0
1748, 1862765709, 0.32103094, -0.44037727, -0.07044262, 0.83549106, -11.320366, -3.3055673, -1.5603523, 0
1749, 1862782376, 0.30300263, -0.42928186, -0.06025438, 0.848691, -6.453397, -2.1085672, -2.9437785, 0
1752, 1862832377, 0.23976508, -0.39864272, -0.0131063415, 0.8851132, 1.5681078, 3.6066816, -8.050566, 0
1753, 1862849044, 0.2232416, -0.39648923, 4.198812E-4, 0.8904828, 2.7897124, 6.257258, -6.553995, 0
1755, 1862882378, 0.21466188, -0.3963455, 0.009472467, 0.8926037, 4.0061564, 9.1917925, -4.3295, 0
1757, 1862915712, 0.23387548, -0.39503652, 0.0041605365, 0.8883871, 3.205313, 7.540106, 2.3468847, 0
1759, 1862949046, 0.27048695, -0.3839994, -0.023412472, 0.88251543, 5.703426, 2.5729098, -2.5329013, 0
1760, 1862965713, 0.28874886, -0.38218302, -0.036662754, 0.87705, 6.3029184, 0.4281775, -0.1200037, 0
1762, 1862999047, 0.32063523, -0.3815729, -0.06358957, 0.864611, 5.6838903, -4.0791864, 1.6762962, 0
1763, 1863015714, 0.33208868, -0.38375288, -0.077770054, 0.85813934, 5.890605, -5.5939155, 1.8255768, 0
1764, 1863032381, 0.34116963, -0.38581708, -0.08916695, 0.8525247, 5.3298645, -6.871052, 1.574172, 0
1766, 1863065715, 0.34582865, -0.3921119, -0.09668661, 0.84693754, 2.6310515, -9.085615, -6.007573, 0
1768, 1863099049, 0.341637, -0.36410734, -0.085294135, 0.86222696, -9.245304, -6.826901, -4.508666, 0
1770, 1863132383, 0.33772197, -0.3366764, -0.08947855, 0.87440664, -0.28413877, -0.22833268, 0.39922142, 0
1772, 1863165717, 0.33981916, -0.32319084, -0.08958144, 0.8786617, -1.6592784, -0.5099817, 0.5309162, 0
1774, 1863199051, 0.34439492, -0.318434, -0.09092815, 0.8784785, 0.04258978, 0.3620324, 0.09129238, 0
1775, 1863215718, 0.34574726, -0.31666264, -0.091842964, 0.8784924, 0.010921961, 0.16439545, -0.0024166107, 0
1776, 1863232385, 0.34685096, -0.31503415, -0.09263801, 0.87855947, -0.100363575, 0.2905568, -0.004599571, 0
1778, 1863265719, 0.34906015, -0.31247616, -0.093872495, 0.87846696, -0.6328093, -0.25119326, -0.055542946, 0
1779, 1863282386, 0.35015246, -0.31185392, -0.09486328, 0.87814695, -0.2579016, 0.45749754, -0.1378746, 0
1780, 1863299053, 0.3507816, -0.31150475, -0.09535726, 0.87796605, -0.08906558, 0.34908062, -0.056954384, 0
1782, 1863332387, 0.35172075, -0.31119865, -0.09627139, 0.8775992, -0.30997485, 0.09263137, -0.0916996, 0
1785, 1863382388, 0.35284323, -0.31120655, -0.097389154, 0.87702215, -0.26955152, 0.16261764, -0.10767555, 0
1787, 1863415722, 0.35331088, -0.31140727, -0.09785575, 0.87671065, -0.19616157, 0.13820231, -0.1116724, 0
1789, 1863449056, 0.35373646, -0.311578, -0.09819756, 0.8764403, -0.21501622, -0.030165756, -0.06034279, 0
1790, 1863465723, 0.35403016, -0.31151685, -0.0984539, 0.8763146, -0.192051, 7.543562E-4, -0.0980978, 0
1791, 1863482390, 0.35431752, -0.3113596, -0.09869226, 0.8762275, -0.25461283, 0.1413991, -0.1841507, 0
1793, 1863515724, 0.3548698, -0.31099856, -0.099036634, 0.87609315, -0.24102785, 0.02385889, -0.12211704, 0
1794, 1863532391, 0.35519877, -0.31069958, -0.09913301, 0.8760552, -0.2190398, 0.09542561, -0.15875053, 0
1795, 1863549058, 0.35553688, -0.31038418, -0.099246554, 0.8760171, -0.27619395, -0.01807348, 0.00784874, 0
1797, 1863582392, 0.35634935, -0.30950752, -0.09950008, 0.8759683, -0.20006785, 0.08801951, -0.088578224, 0
1798, 1863599059, 0.356767, -0.30896923, -0.099594936, 0.8759776, -0.15394932, 0.051766943, -0.05179882, 0
1802, 1863665727, 0.3589449, -0.30592114, -0.1011042, 0.8759848, -0.30056414, 0.0380352, -0.112748146, 0
1803, 1863682394, 0.35948965, -0.30509824, -0.10171216, 0.8759781, -0.28594193, 0.18340668, -0.15729332, 0
1805, 1863715728, 0.36041936, -0.30347136, -0.10344678, 0.87595797, -0.26560575, 0.17273338, -0.19889545, 0
1806, 1863732395, 0.36084673, -0.30282274, -0.10436642, 0.8758974, -0.43796998, 0.22840074, -0.29239082, 0
1807, 1863749062, 0.36116284, -0.3022844, -0.10525284, 0.875847, -0.24128129, 0.20563103, -0.22033119, 0
1809, 1863782396, 0.3616426, -0.30125025, -0.106497884, 0.8758548, -0.12993646, 0.39171764, -0.3014555, 0
1810, 1863799063, 0.3618242, -0.30081984, -0.10673867, 0.8758985, -0.23327404, 0.33532944, -0.2759323, 0
1811, 1863815730, 0.36196738, -0.30062774, -0.106746525, 0.87590426, -0.445462, 0.31631067, -0.2690096, 0
1813, 1863849064, 0.36205658, -0.30063635, -0.10643722, 0.875902, -0.26025292, 0.18292132, -0.17889977, 0
1814, 1863865731, 0.36198726, -0.30061653, -0.10621209, 0.87596476, -0.24122664, 0.187811, -0.18402767, 0
1817, 1863915732, 0.36184305, -0.30034524, -0.106392354, 0.8760957, -0.2845421, 0.20434515, -0.22359848, 0
1818, 1863932399, 0.36189556, -0.30031353, -0.1064455, 0.87607825, -0.26766482, 0.22950065, -0.20244217, 0
1820, 1863965733, 0.36193657, -0.30016372, -0.106668904, 0.87608564, -0.24810946, 0.24437174, -0.21663189, 0
1821, 1863982400, 0.36187422, -0.30010563, -0.10655386, 0.87614506, -0.25170314, 0.3814012, -0.3431244, 0
1822, 1863999067, 0.3617903, -0.30014434, -0.10619862, 0.8762097, -0.26528397, 0.25612527, -0.21458626, 0
1824, 1864032401, 0.36160278, -0.30033538, -0.10537948, 0.87632066, -0.29681242, 0.2080842, -0.18033123, 0
1825, 1864049068, 0.3614609, -0.30050796, -0.10493637, 0.8763732, -0.24140075, 0.23130429, -0.2053709, 0
1826, 1864065735, 0.36127648, -0.3007073, -0.10449418, 0.8764337, -0.32456613, 0.13737407, -0.16082859, 0
1828, 1864099069, 0.36096397, -0.30125782, -0.10349881, 0.8764915, -0.30541, 0.23324147, -0.17041874, 0
1832, 1864165737, 0.36065018, -0.30200225, -0.10226471, 0.87650925, -0.2835145, 0.16718759, -0.10159302, 0
1833, 1864182404, 0.36058223, -0.30224982, -0.10207752, 0.8764737, -0.25421777, 0.26205373, -0.1567545, 0
1834, 1864199071, 0.360527, -0.3024525, -0.10192719, 0.87644404, -0.2430481, 0.098505065, -0.060606003, 0
1836, 1864232405, 0.36047536, -0.30268574, -0.10165672, 0.8764161, -0.25834352, 0.18547821, -0.11933994, 0
1837, 1864249072, 0.36051375, -0.30274546, -0.10152807, 0.8763945, -0.27886954, 0.13598919, -0.068045616, 0
1838, 1864265739, 0.3605703, -0.30272982, -0.10148347, 0.8763818, -0.22680779, 0.18313232, -0.1464653, 0
1840, 1864299073, 0.3606784, -0.30260935, -0.10130534, 0.87639964, -0.3231266, 0.17453937, -0.13066864, 0
