sep=,
DeviceTag:,Xsens_DOT_1,,,,,,,,,,,,,,,,,
FirmwareVersion:,3.0.0,,,,,,,,,,,,,,,,,
AppVersion:,2023.6.1,,,,,,,,,,,,,,,,,
SyncStatus:,Synced,,,,,,,,,,,,,,,,,
OutputRate:,60Hz,,,,,,,,,,,,,,,,,
FilterProfile:,General,,,,,,,,,,,,,,,,,
Measurement Mode:,Sensor fusion Mode - Extended (Quaternion),,,,,,,,,,,,,,,,,
StartTime:,2025-05-05 11:37:20.645 +0200,,,,,,,,,,,,,,,,,
 2025,,,,,,,,,,,,,,,,,,,

PacketCounter,SampleTimeFine,Quat_W,Quat_X,Quat_Y,Quat_Z,FreeAcc_X,FreeAcc_Y,FreeAcc_Z,Status
1, 1833665127, 0.90645945, 0.17056595, 0.105497286, -0.37171316, -0.07337975, -0.00947857, 0.3550911, 0
2, 1833681794, 0.90647864, 0.17064393, 0.10538337, -0.37166286, -0.010871, -0.021630159, 0.40446186, 0
3, 1833698461, 0.9064941, 0.17068921, 0.10528334, -0.3716327, 0.07817668, -0.05956717, 0.4077158, 0
4, 1833715128, 0.9065169, 0.17069253, 0.10519255, -0.3716014, -0.036941327, -0.053864934, 0.36049843, 0
5, 1833731795, 0.9065442, 0.17069457, 0.10514726, -0.37154657, -0.06256351, -0.05732979, 0.3695259, 0
6, 1833748462, 0.9065732, 0.17062756, 0.10513787, -0.37150925, -0.038337503, -0.014074862, 0.33863163, 0
7, 1833765129, 0.90659004, 0.17047867, 0.10515315, -0.37153214, -0.056275085, 0.0031431508, 0.3492117, 0
8, 1833781796, 0.9065949, 0.17030352, 0.1052105, -0.37158453, -0.10417727, 0.024333982, 0.31279278, 0
9, 1833798463, 0.90659785, 0.17015168, 0.10526659, -0.371631, -0.088547274, 0.015400487, 0.349617, 0
10, 1833815130, 0.90659773, 0.16999586, 0.10531983, -0.3716875, 0.029022822, 0.059630435, 0.40740013, 0
11, 1833831797, 0.90659153, 0.16978163, 0.10539988, -0.371778, 0.0148555655, 0.08879825, 0.37983608, 0
12, 1833848464, 0.9065728, 0.16962875, 0.10549655, -0.37186587, -0.11158918, 0.11731223, 0.35051537, 0
13, 1833865131, 0.9065603, 0.16956212, 0.10558066, -0.3719028, -0.091156855, 0.08707295, 0.39782047, 0
14, 1833881798, 0.90655506, 0.16946073, 0.10567458, -0.37193513, 0.012369766, 0.11467385, 0.3916502, 0
15, 1833898465, 0.90654963, 0.16928281, 0.10576765, -0.3720028, 0.02764967, 0.14477398, 0.40621948, 0
16, 1833915132, 0.9065478, 0.16902518, 0.10588005, -0.37209275, -0.067221634, 0.14373538, 0.33600616, 0
17, 1833931799, 0.9065387, 0.16882922, 0.10600689, -0.37216732, -0.07706001, 0.12550914, 0.32923985, 0
18, 1833948466, 0.90653193, 0.168688, 0.106105, -0.37221995, -0.02154799, 0.14419934, 0.3529129, 0
19, 1833965133, 0.9065199, 0.16854173, 0.10622176, -0.37228227, -0.0066709677, 0.14110498, 0.36056614, 0
20, 1833981800, 0.90650237, 0.16841371, 0.1063376, -0.37234992, 0.002600238, 0.12903711, 0.3897133, 0
21, 1833998467, 0.90650225, 0.16828656, 0.10644027, -0.37237856, 0.012665362, 0.13796058, 0.36285973, 0
22, 1834015134, 0.90649235, 0.1681884, 0.10653143, -0.37242073, 0.002312465, 0.13275997, 0.31989956, 0
23, 1834031801, 0.90648067, 0.1680898, 0.10662475, -0.372467, -0.01916132, 0.09274156, 0.37656212, 0
24, 1834048468, 0.906467, 0.16800775, 0.10672256, -0.37250918, -0.053372435, 0.123858854, 0.41782093, 0
25, 1834065135, 0.906461, 0.1679359, 0.10680168, -0.37253353, 0.021805141, 0.115144484, 0.39595795, 0
26, 1834081802, 0.9064541, 0.1678542, 0.10687671, -0.37256542, 0.08482764, 0.10016778, 0.39846802, 0
27, 1834098469, 0.9064543, 0.16776858, 0.10694163, -0.37258506, 0.06113247, 0.12494739, 0.34637356, 0
28, 1834115136, 0.90645695, 0.16771418, 0.10695755, -0.37259844, -0.04082453, 0.0701938, 0.36827564, 0
29, 1834131803, 0.9064717, 0.1676577, 0.10694173, -0.37259254, -0.06166499, 0.058028072, 0.3440714, 0
30, 1834148470, 0.90647554, 0.1676079, 0.10693784, -0.37260652, -0.051159322, 0.07334104, 0.32278538, 0
31, 1834165137, 0.9064721, 0.16758065, 0.10693497, -0.37262827, 0.045272436, -0.010525448, 0.42694378, 0
32, 1834181804, 0.906464, 0.16754489, 0.106925875, -0.37266657, 0.07224978, 0.0075339233, 0.32595158, 0
33, 1834198471, 0.90645766, 0.16751607, 0.10695643, -0.37268636, 1.0426254E-4, 0.008076393, 0.3354435, 0
34, 1834215138, 0.9064585, 0.16748405, 0.10696414, -0.3726964, -0.026259085, 0.006472293, 0.3466425, 0
35, 1834231805, 0.90645814, 0.1674698, 0.10697839, -0.3726994, -0.027293613, -7.664678E-4, 0.38171005, 0
36, 1834248472, 0.90645844, 0.16746274, 0.10698821, -0.37269923, 0.0062908838, -0.02261525, 0.38336945, 0
37, 1834265139, 0.90645194, 0.16745785, 0.10701237, -0.37271032, 0.038376726, 0.016570775, 0.3521061, 0
38, 1834281806, 0.90644145, 0.16746853, 0.10696946, -0.37274328, -0.0719971, -0.036512684, 0.20574665, 0
39, 1834298473, 0.9064019, 0.16760999, 0.10695412, -0.37278047, 0.026396545, -0.09279448, 0.49612904, 0
40, 1834315140, 0.9063196, 0.16781117, 0.106977016, -0.37288347, 0.12313787, -0.086245, 0.50010204, 0
41, 1834331807, 0.90622044, 0.16797566, 0.10707583, -0.37302193, 0.094397455, -0.17536101, 0.22433472, 0
42, 1834348474, 0.9061191, 0.16811006, 0.10732508, -0.3731359, -0.15870593, 0.2791151, -0.006975174, 0
43, 1834365141, 0.9059577, 0.16826852, 0.107815705, -0.37331516, -0.2518847, 0.45233548, 0.0889349, 0
44, 1834381808, 0.90571976, 0.16859451, 0.10850043, -0.37354684, -0.37873802, 0.9448463, -0.3378563, 0
45, 1834398475, 0.9054092, 0.16940622, 0.10961938, -0.37360552, -0.15896375, 1.0716774, 0.18505573, 0
46, 1834415142, 0.9051571, 0.1700779, 0.11062789, -0.37361395, 0.04126161, 1.0853964, 0.9386511, 0
47, 1834431809, 0.90490687, 0.17069685, 0.111597836, -0.3736495, -0.009554173, 1.199891, 0.9807272, 0
49, 1834465143, 0.90445924, 0.17218828, 0.113248065, -0.37355253, 0.051589586, 1.2948893, 0.45918941, 0
50, 1834481810, 0.90431, 0.17297101, 0.11380491, -0.37338263, 0.309988, 1.2923602, 0.36726475, 0
51, 1834498477, 0.90425265, 0.17370808, 0.11406611, -0.3730999, 0.14430968, 1.0654963, 0.4525423, 0
53, 1834531811, 0.9043942, 0.17460768, 0.11333895, -0.37255785, -0.43927202, 0.6133744, 0.4259262, 0
54, 1834548478, 0.9045431, 0.17460698, 0.11268841, -0.37239447, -0.17824756, 0.59233844, 0.019311905, 0
55, 1834565145, 0.9047077, 0.17454895, 0.11202842, -0.37222037, 0.21510082, 0.4729529, 0.22012997, 0
57, 1834598479, 0.9050554, 0.17437245, 0.11068288, -0.37186033, 0.046683356, 0.22700542, 0.5306902, 0
58, 1834615146, 0.90520173, 0.1743877, 0.11016704, -0.3716502, -0.16338328, -0.0042658565, 0.6106167, 0
60, 1834648480, 0.9057287, 0.17410965, 0.1085999, -0.37095752, 7.456392E-4, -0.5511889, 0.53088284, 0
61, 1834665147, 0.90602076, 0.1737462, 0.10770862, -0.3706744, 0.045323063, -0.36471274, 0.009482384, 0
64, 1834715148, 0.9066415, 0.17275763, 0.10606365, -0.37009272, -0.13255726, -0.6873133, 0.24359703, 0
65, 1834731815, 0.90673566, 0.17256214, 0.10590778, -0.36999723, 0.08746621, -0.6765828, 0.22066784, 0
66, 1834748482, 0.9068287, 0.17232706, 0.10589138, -0.36988384, 0.1466064, -0.68503636, 0.3588047, 0
68, 1834781816, 0.9069989, 0.17193161, 0.105877936, -0.36965412, 0.08349583, -0.97018784, 0.7536669, 0
69, 1834798483, 0.90711427, 0.17156358, 0.10567181, -0.369601, -0.12701894, -0.74069244, 0.36326218, 0
70, 1834815150, 0.9072046, 0.17115946, 0.10563157, -0.36957815, -0.16397302, -0.5909673, 0.19380856, 0
72, 1834848484, 0.90725315, 0.17037195, 0.10610666, -0.3696869, -0.017070355, -0.51216924, 0.22131538, 0
73, 1834865151, 0.9072247, 0.16981323, 0.10654852, -0.36988688, -4.2847433E-4, -0.39677852, 0.26406384, 0
74, 1834881818, 0.90710336, 0.16936503, 0.107291915, -0.37017465, -0.14349788, -0.15344717, 0.27440453, 0
76, 1834915152, 0.90702254, 0.16835077, 0.10843693, -0.37050164, 0.10041007, -0.20305656, 0.35973835, 0
78, 1834948486, 0.9069451, 0.16734716, 0.10940403, -0.37086108, 0.06974476, -0.115535885, 0.2916708, 0
80, 1834981820, 0.90688586, 0.16657194, 0.1103175, -0.37108436, 0.025371961, -0.018496033, 0.35268974, 0
81, 1834998487, 0.9068471, 0.16597176, 0.11082851, -0.37129554, -0.028714662, 0.18003039, 0.25143528, 0
82, 1835015154, 0.9067712, 0.16551241, 0.1113886, -0.37151867, -0.026004167, 0.020867951, 0.454484, 0
84, 1835048488, 0.90683967, 0.16464187, 0.111944824, -0.3715714, 0.17617548, 0.01330514, 0.46496582, 0
85, 1835065155, 0.9068732, 0.16422842, 0.1121539, -0.37160885, 0.18297374, 0.0054373997, 0.33490467, 0
86, 1835081822, 0.9068591, 0.1639479, 0.11234574, -0.37170935, -0.06774096, -0.01595617, 0.324955, 0
88, 1835115156, 0.90685534, 0.16369817, 0.11280523, -0.37168947, 0.10659936, -0.022185951, 0.3795824, 0
89, 1835131823, 0.9068637, 0.1635029, 0.11291, -0.3717235, 0.227232, -1.2265274E-5, 0.4343443, 0
91, 1835165157, 0.90690553, 0.16316114, 0.11291103, -0.37177143, -0.08727678, -0.05346737, 0.39453793, 0
93, 1835198491, 0.90697443, 0.16290373, 0.112878636, -0.37172586, 0.16030383, -0.0020730826, 0.41342258, 0
95, 1835231825, 0.90699136, 0.16259098, 0.1127698, -0.37185442, -0.10953956, -0.03650679, 0.28231907, 0
96, 1835248492, 0.9069885, 0.16251038, 0.11278325, -0.37189254, -0.16623788, 0.03393994, 0.31872272, 0
97, 1835265159, 0.9069646, 0.16245879, 0.11281402, -0.37196413, -0.004401417, 0.007911241, 0.3972597, 0
99, 1835298493, 0.90690446, 0.16237926, 0.11284378, -0.37213638, -0.051805608, 0.13660936, 0.29385757, 0
100, 1835315160, 0.90687263, 0.16239274, 0.112921566, -0.37218428, -0.05360925, 0.11915086, 0.37363815, 0
101, 1835331827, 0.90683997, 0.16238506, 0.1130162, -0.37223837, -0.050863277, 0.16347054, 0.41200542, 0
103, 1835365161, 0.9067493, 0.16239747, 0.11320481, -0.37239683, -0.11900366, 0.19173759, 0.35914707, 0
104, 1835381828, 0.9067227, 0.16242091, 0.11327182, -0.37243068, -0.04972504, 0.20314498, 0.40297318, 0
105, 1835398495, 0.9067253, 0.16240153, 0.11329748, -0.37242496, 0.07118382, 0.22902027, 0.42237282, 0
109, 1835465163, 0.9067712, 0.16225013, 0.11312224, -0.37243265, 0.068650104, 0.1699166, 0.33931828, 0
111, 1835498497, 0.90676206, 0.16222326, 0.11306316, -0.37248442, -0.024254397, 0.123053044, 0.4757061, 0
112, 1835515164, 0.9067815, 0.16228615, 0.11298577, -0.3724335, -0.052126016, 0.06641499, 0.43849182, 0
114, 1835548498, 0.9068279, 0.16242565, 0.11276932, -0.372325, 0.08775052, -0.03115765, 0.3546667, 0
115, 1835565165, 0.90685266, 0.162489, 0.11267109, -0.37226686, -0.09378425, -0.029798916, 0.31844425, 0
116, 1835581832, 0.90689003, 0.16256674, 0.112535805, -0.37218264, -0.04561352, -0.061501853, 0.32007408, 0
118, 1835615166, 0.906924, 0.16276707, 0.11219889, -0.37211436, 0.16553615, -0.11028378, 0.44542503, 0
119, 1835631833, 0.90688765, 0.1628664, 0.11207114, -0.37219784, 0.06277764, -0.18327592, 0.4103012, 0
120, 1835648500, 0.9068221, 0.16297458, 0.112043485, -0.37231863, -0.2846595, -0.082962394, 0.12607765, 0
122, 1835681834, 0.90652055, 0.16324241, 0.11278939, -0.37271038, -0.17340404, 0.49114373, -0.047703743, 0
123, 1835698501, 0.9061872, 0.16354702, 0.113922805, -0.37304267, -0.095418684, 0.63404244, 0.3725767, 0
124, 1835715168, 0.9058858, 0.16380802, 0.11501007, -0.37332618, -0.10612261, 0.69415903, 0.5883665, 0
126, 1835748502, 0.9053931, 0.16435727, 0.1168506, -0.37370816, -0.20551357, 0.9587394, 0.5701752, 0
127, 1835765169, 0.9052189, 0.16462481, 0.11760802, -0.37377492, -0.073396064, 0.96155864, 0.43733883, 0
128, 1835781836, 0.90511644, 0.1649667, 0.118140906, -0.37370417, 0.03954816, 0.94317806, 0.35432148, 0
130, 1835815170, 0.90507007, 0.16566786, 0.11850898, -0.37339008, -0.18319803, 0.78332466, 0.3731165, 0
131, 1835831837, 0.90515256, 0.16592267, 0.118276455, -0.37315008, -0.20948339, 0.6710537, 0.3971796, 0
132, 1835848504, 0.90527284, 0.16612555, 0.117881775, -0.37289298, -0.10133541, 0.5722858, 0.3126955, 0
134, 1835881838, 0.90549076, 0.16673347, 0.11710326, -0.37233764, 0.1255156, 0.34534416, 0.46120358, 0
136, 1835915172, 0.9057468, 0.16755971, 0.11617585, -0.37163365, 0.078274235, 0.15361224, 0.399477, 0
138, 1835948506, 0.90599954, 0.16837208, 0.1150812, -0.3709903, -0.015610927, -0.0011328754, 0.36701584, 0
139, 1835965173, 0.90612245, 0.16863687, 0.114648074, -0.37070423, -0.1816064, 0.008434038, 0.34497166, 0
141, 1835998507, 0.90638566, 0.16907853, 0.11395345, -0.3700729, 0.03531013, -0.20988011, 0.3419447, 0
142, 1836015174, 0.90646076, 0.16924618, 0.11384792, -0.36984494, -0.020297881, -0.16282307, 0.32944775, 0
143, 1836031841, 0.9065365, 0.16943966, 0.11376044, -0.3695975, -0.07792265, -0.24795228, 0.35243893, 0
145, 1836065175, 0.9066993, 0.16966781, 0.11363821, -0.36913058, -0.08987445, -0.28660205, 0.3935032, 0
146, 1836081842, 0.90675545, 0.16967185, 0.11359227, -0.36900505, -0.12700766, -0.25232032, 0.36755085, 0
147, 1836098509, 0.90684044, 0.16967571, 0.11347362, -0.36883098, -0.2284736, -0.34653577, 0.39929485, 0
149, 1836131843, 0.9071054, 0.16930954, 0.1130832, -0.3684671, 0.17128748, -0.37155476, 0.31453323, 0
151, 1836165177, 0.9074209, 0.16858986, 0.11258454, -0.368173, -0.083828084, -0.55662, 0.45452595, 0
153, 1836198511, 0.90772647, 0.1676721, 0.11231913, -0.3679198, 0.13864827, -0.51338184, 0.3569069, 0
154, 1836215178, 0.90784764, 0.16712305, 0.112311505, -0.3678734, 0.12803112, -0.5733114, 0.42091656, 0
155, 1836231845, 0.9079581, 0.1664733, 0.11236545, -0.36787876, -0.071542695, -0.5967524, 0.38816738, 0
157, 1836265179, 0.90810156, 0.16520438, 0.11279017, -0.36796665, 0.06264129, -0.49187618, 0.37467766, 0
158, 1836281846, 0.9081604, 0.1646091, 0.11299455, -0.36802563, 0.20357393, -0.49203372, 0.39534473, 0
159, 1836298513, 0.9082003, 0.16405231, 0.1132254, -0.36810455, 0.13697734, -0.45849925, 0.29582596, 0
161, 1836331847, 0.9082016, 0.16311096, 0.11380875, -0.36833987, -0.017851198, -0.41728926, 0.32277584, 0
162, 1836348514, 0.9081578, 0.1627846, 0.11415608, -0.36848453, -0.0347794, -0.26224476, 0.2771845, 0
163, 1836365181, 0.90811586, 0.16242452, 0.11447148, -0.3686489, 0.05117318, -0.25099644, 0.35919762, 0
166, 1836415182, 0.9079063, 0.16140814, 0.11547075, -0.3692994, -0.0042920075, -0.03644228, 0.39415932, 0
168, 1836448516, 0.90779316, 0.16086431, 0.116063625, -0.3696287, 0.057847835, 0.07740869, 0.38972855, 0
169, 1836465183, 0.9077241, 0.16065733, 0.11632076, -0.3698072, -0.06201859, 0.1325293, 0.36611748, 0
170, 1836481850, 0.9076699, 0.16042656, 0.116535574, -0.36997265, -0.10040347, 0.15051188, 0.44052887, 0
172, 1836515184, 0.9075967, 0.15953481, 0.11702396, -0.37038386, -0.104642734, 0.19886364, 0.45573807, 0
173, 1836531851, 0.9075679, 0.15912376, 0.11724477, -0.37056106, -0.07151073, 0.20730233, 0.39127064, 0
174, 1836548518, 0.90753794, 0.15873963, 0.117437325, -0.3707385, 0.008728069, 0.20505263, 0.28346157, 0
176, 1836581852, 0.90748096, 0.1580335, 0.11785793, -0.37104592, -0.09348307, 0.094283424, 0.37999058, 0
177, 1836598519, 0.90747607, 0.1577844, 0.117944494, -0.37113658, -0.12151558, 0.039336253, 0.36565685, 0
178, 1836615186, 0.90746737, 0.15759823, 0.11799353, -0.37122118, -0.07409957, 0.06867821, 0.2965727, 0
181, 1836665187, 0.90747976, 0.15709844, 0.11812456, -0.371361, 0.05483812, -0.07764404, 0.37658024, 0
182, 1836681854, 0.9074847, 0.15688984, 0.11819561, -0.37141445, -0.040529605, -0.026014253, 0.30017567, 0
184, 1836715188, 0.9074583, 0.1564707, 0.11847015, -0.37156844, -0.031973418, -0.018111171, 0.37265205, 0
185, 1836731855, 0.9074429, 0.15628146, 0.11856204, -0.37165618, 0.039965793, 0.04797186, 0.37160492, 0
186, 1836748522, 0.90740883, 0.15614328, 0.118712366, -0.37174943, 0.031924915, 0.13605002, 0.385293, 0
188, 1836781856, 0.9073467, 0.15624681, 0.11873584, -0.37184998, 0.14913489, 0.009004555, 0.5454998, 0
189, 1836798523, 0.9073033, 0.1564656, 0.11859426, -0.37190926, 0.10157692, 0.10686409, 0.26001644, 0
190, 1836815190, 0.9072598, 0.15664832, 0.11847213, -0.37197754, -0.06133419, 0.031028291, 0.27428627, 0
192, 1836848524, 0.9072031, 0.15681645, 0.118273094, -0.37210828, -0.059112024, 0.10144482, 0.38180065, 0
193, 1836865191, 0.9071856, 0.1569483, 0.11807945, -0.37215686, 0.05157137, 0.1174082, 0.34324455, 0
194, 1836881858, 0.9071616, 0.1571206, 0.11788481, -0.37220436, 0.055717643, 0.1674243, 0.30413914, 0
196, 1836915192, 0.9071349, 0.15774183, 0.11749338, -0.37213048, 0.01668513, 0.09843829, 0.34488106, 0
197, 1836931859, 0.90710825, 0.15821649, 0.11723675, -0.37207484, -0.06246494, 0.12686294, 0.2833767, 0
199, 1836965193, 0.9070705, 0.15892315, 0.11681959, -0.37199664, -0.11527267, 0.06507585, 0.47560978, 0
200, 1836981860, 0.9070766, 0.15926172, 0.11657454, -0.37191385, -0.008721364, 0.08702139, 0.42162228, 0
201, 1836998527, 0.9070784, 0.1595405, 0.11634099, -0.37186328, 0.054510646, 0.104395576, 0.3586712, 0
203, 1837031861, 0.9070741, 0.16014786, 0.115826525, -0.37177336, -0.088992916, -0.1262512, 0.3405056, 0
204, 1837048528, 0.90708554, 0.16060469, 0.11544344, -0.3716674, -0.02822611, -0.13495594, 0.64608, 0
205, 1837065195, 0.907032, 0.16103101, 0.11514807, -0.37170547, 0.07030947, -0.135394, 0.41365433, 0
208, 1837115196, 0.90672547, 0.16119146, 0.115379974, -0.37231135, -0.15871722, 0.43526646, 0.10732746, 0
209, 1837131863, 0.9065523, 0.16103093, 0.11595054, -0.37262484, -0.030789915, 0.70246065, 0.3269968, 0
211, 1837165197, 0.9061742, 0.16097744, 0.117397904, -0.37311435, -0.4873206, 0.7600026, 0.63870907, 0
212, 1837181864, 0.90602314, 0.16110556, 0.118067704, -0.3732145, -0.33919623, 0.93336684, 0.6641159, 0
213, 1837198531, 0.905873, 0.161426, 0.11866757, -0.37325004, -0.0149844205, 1.0133613, 0.587368, 0
215, 1837231865, 0.90576243, 0.16222328, 0.1192586, -0.37298438, 0.09558342, 0.77054685, 0.36591244, 0
216, 1837248532, 0.9058167, 0.16253102, 0.11927102, -0.3727143, -0.32457277, 0.60161877, 0.28435612, 0
217, 1837265199, 0.90588427, 0.16275422, 0.119098276, -0.372508, -0.38767195, 0.3399354, 0.37550163, 0
219, 1837298533, 0.90615976, 0.16270132, 0.11820735, -0.3721448, 0.10248717, -0.0050907033, 0.22620678, 0
220, 1837315200, 0.90634227, 0.16255544, 0.1177146, -0.37191996, 0.23404801, -0.092831105, 0.3589983, 0
223, 1837365201, 0.9067014, 0.16294391, 0.11586903, -0.3714541, -0.027701302, -0.39787236, 0.40056038, 0
224, 1837381868, 0.90678746, 0.16284734, 0.115500376, -0.37140113, 0.007254672, -0.38506007, 0.3140669, 0
226, 1837415202, 0.9068862, 0.16251515, 0.11512475, -0.3714221, 0.02534458, -0.39427018, 0.25989056, 0
227, 1837431869, 0.90689707, 0.16235809, 0.11511208, -0.37146822, -0.014077963, -0.45089167, 0.35287762, 0
228, 1837448536, 0.906914, 0.16224901, 0.11514164, -0.3714655, -0.034392387, -0.40536785, 0.27455425, 0
230, 1837481870, 0.9069307, 0.1621847, 0.11503239, -0.37148666, 0.07089138, -0.32701424, 0.2658739, 0
231, 1837498537, 0.9069129, 0.16213591, 0.11501504, -0.37155646, -0.16147794, -0.37543106, 0.34496307, 0
232, 1837515204, 0.9069119, 0.16208594, 0.11502102, -0.3715788, -0.2088618, -0.31930432, 0.3307352, 0
234, 1837548538, 0.90690637, 0.16177261, 0.11518425, -0.37167862, 0.018237764, -0.31194976, 0.44388676, 0
235, 1837565205, 0.90689754, 0.1615394, 0.115284964, -0.3717702, -0.09693902, -0.27026147, 0.33987904, 0
238, 1837615206, 0.9069171, 0.16037564, 0.11593185, -0.37202534, -0.20128526, -0.26132104, 0.41397476, 0
239, 1837631873, 0.90689254, 0.15988751, 0.116233245, -0.37220114, -0.03578297, -0.13951129, 0.37571144, 0
240, 1837648540, 0.90688825, 0.1592901, 0.116567165, -0.372363, -0.08366269, -0.12044398, 0.29384995, 0
242, 1837681874, 0.9068738, 0.15804377, 0.1172781, -0.3727059, -0.026732372, -0.15652698, 0.32470226, 0
243, 1837698541, 0.9068502, 0.15746659, 0.11767106, -0.37288383, -0.026197953, -0.048095405, 0.23144531, 0
244, 1837715208, 0.90681314, 0.15691246, 0.11811167, -0.37306833, -0.03382824, -0.081681415, 0.42136478, 0
246, 1837748542, 0.9067604, 0.1558655, 0.118799254, -0.373417, 0.036011066, 0.027178422, 0.41754913, 0
247, 1837765209, 0.9067043, 0.15533705, 0.11919184, -0.37364793, 0.08314246, 0.14787321, 0.39497662, 0
249, 1837798543, 0.90659, 0.15427719, 0.12003876, -0.3740934, -0.01842072, 0.13288416, 0.44792843, 0
250, 1837815210, 0.9065452, 0.15379336, 0.12039417, -0.3742869, -0.004151418, 0.2322237, 0.44359303, 0
253, 1837865211, 0.90639246, 0.15266287, 0.12128165, -0.37483248, -0.0034673566, 0.33454666, 0.34814358, 0
254, 1837881878, 0.9063549, 0.15241686, 0.12148464, -0.37495765, -0.037831243, 0.4365921, 0.31212997, 0
255, 1837898545, 0.90632784, 0.15223686, 0.12161608, -0.37505376, -0.02048675, 0.45048395, 0.38172817, 0
257, 1837931879, 0.90629953, 0.15185507, 0.12173687, -0.37523744, -0.068912506, 0.5024799, 0.3866024, 0
258, 1837948546, 0.90627986, 0.1517136, 0.12182985, -0.37531194, -0.10305713, 0.4499134, 0.45368576, 0
259, 1837965213, 0.9062599, 0.1516046, 0.12189135, -0.3753841, -0.054528557, 0.42504302, 0.47205734, 0
261, 1837998547, 0.90625787, 0.15141787, 0.121836856, -0.3754823, -0.038848564, 0.3710359, 0.28280544, 0
262, 1838015214, 0.9062544, 0.1512434, 0.12181507, -0.37556827, -0.08101607, 0.3200582, 0.30405617, 0
263, 1838031881, 0.9062533, 0.15104872, 0.12178427, -0.37565914, -0.12804443, 0.23823717, 0.43583775, 0
265, 1838065215, 0.9062766, 0.15048248, 0.12175867, -0.37583828, -0.17983115, 0.2502012, 0.42896175, 0
266, 1838081882, 0.90629137, 0.1501634, 0.121736765, -0.37593752, -0.03997507, 0.20512508, 0.37387657, 0
267, 1838098549, 0.9062884, 0.14983806, 0.12177782, -0.37606123, 0.005409237, 0.13600548, 0.3124733, 0
269, 1838131883, 0.9063469, 0.14920075, 0.12167859, -0.37620535, -0.16472368, -0.080916554, 0.3418646, 0
270, 1838148550, 0.9063946, 0.14881712, 0.121582404, -0.37627363, -0.16672368, -0.09039152, 0.33888912, 0
271, 1838165217, 0.90642285, 0.14841498, 0.121537566, -0.3763788, -0.0042860843, -0.14448193, 0.36683655, 0
273, 1838198551, 0.90648, 0.14755152, 0.121353425, -0.37664026, -0.014043929, -0.14278984, 0.290102, 0
274, 1838215218, 0.90650916, 0.14705527, 0.121309, -0.37677816, -0.039918073, -0.07897839, 0.3029747, 0
276, 1838248552, 0.9065453, 0.1460034, 0.12112446, -0.37715983, -0.03475727, -0.17672437, 0.38888073, 0
277, 1838265219, 0.9065649, 0.14550836, 0.12097604, -0.37735167, 0.023754174, -0.13286577, 0.4043703, 0
281, 1838331887, 0.9066503, 0.14373994, 0.12016952, -0.3780811, 0.1485266, 0.24664208, 0.28839302, 0
282, 1838348554, 0.9066479, 0.14328855, 0.11978361, -0.3783803, 0.3029518, -0.079460785, 0.47987175, 0
284, 1838381888, 0.90672016, 0.14271048, 0.11857907, -0.37880507, 0.02993129, 0.1581775, -0.026522636, 0
285, 1838398555, 0.90672934, 0.14266343, 0.11797166, -0.37899008, 0.49530017, -0.4409422, 0.42649746, 0
286, 1838415222, 0.9067612, 0.14254132, 0.11725478, -0.37918216, 0.2853647, -0.10992317, 0.24292755, 0
288, 1838448556, 0.90683734, 0.14275867, 0.11579, -0.3793687, -0.25064096, -0.2186808, 0.6357174, 0
289, 1838465223, 0.9068272, 0.14274421, 0.11515467, -0.379592, -0.25501844, -0.22368023, 0.54720306, 0
290, 1838481890, 0.9067436, 0.14262064, 0.114610404, -0.38000253, -0.22624496, -0.4946924, 0.5408802, 0
292, 1838515224, 0.9065132, 0.1424522, 0.11386022, -0.38083988, 0.11404782, -0.5336415, 0.5386257, 0
293, 1838531891, 0.9063516, 0.14233536, 0.11371062, -0.3813126, -0.15129592, -0.38114658, 0.4059477, 0
296, 1838581892, 0.9052639, 0.14177561, 0.11513824, -0.3836692, -0.46323004, 0.5822805, 0.033366203, 0
297, 1838598559, 0.9050211, 0.14165637, 0.11511886, -0.3842916, 0.16888832, 0.4358844, 0.660696, 0
298, 1838615226, 0.9048687, 0.14144193, 0.114969485, -0.38477358, 0.23945099, 1.4467475, 0.8887148, 0
300, 1838648560, 0.9035319, 0.14295825, 0.11793856, -0.38645238, -0.23076025, 1.3749878, 0.990798, 0
301, 1838665227, 0.9024483, 0.14413986, 0.12050147, -0.38775283, -0.60621494, 2.2542236, -0.0742178, 0
302, 1838681894, 0.9013952, 0.14525077, 0.1228065, -0.38906202, -1.3572575, 3.2188687, -1.659338, 0
304, 1838715228, 0.9009961, 0.1447859, 0.12321542, -0.39002946, 0.42472312, 3.1097593, 0.86405087, 0
305, 1838731895, 0.90094745, 0.14450897, 0.123052344, -0.39029577, 1.0187949, 3.1929243, 2.225647, 0
307, 1838765229, 0.89895344, 0.14657769, 0.12820046, -0.39245912, -2.0733366, 3.682882, 0.66217804, 0
308, 1838781896, 0.8970022, 0.14808637, 0.13243786, -0.39494267, -1.2285109, 3.669609, -0.33244896, 0
311, 1838831897, 0.8909806, 0.14940058, 0.13961607, -0.40546542, 0.88767195, 2.919691, 0.06962395, 0
312, 1838848564, 0.89040077, 0.14996499, 0.13972586, -0.4064917, 0.6450213, 3.4307923, 0.24958992, 0
313, 1838865231, 0.8907416, 0.1511954, 0.1393081, -0.40543106, 0.23289469, 3.291184, 0.48620796, 0
315, 1838898565, 0.8916766, 0.15474299, 0.13877213, -0.4022085, -0.42413428, 4.4226336, -0.12070179, 0
316, 1838915232, 0.89167196, 0.156757, 0.13834612, -0.4015851, -0.8514669, 3.938308, 0.15781307, 0
317, 1838931899, 0.89126074, 0.15842625, 0.13746984, -0.40214342, -0.5624124, 3.7859294, 0.48836994, 0
319, 1838965233, 0.8901681, 0.16103178, 0.13506806, -0.40433666, -0.52283067, 3.791229, 0.48654175, 0
320, 1838981900, 0.89026684, 0.1614572, 0.13384421, -0.40435666, -0.9798619, 4.7024083, -0.3418579, 0
321, 1838998567, 0.8904262, 0.16185585, 0.13255894, -0.40426967, -0.8259522, 4.1908784, 0.31224632, 0
323, 1839031901, 0.89098644, 0.16127509, 0.12868674, -0.40451807, -0.35912418, 5.3820267, 0.027112007, 0
325, 1839065235, 0.8909805, 0.16126744, 0.1260012, -0.40537903, -0.517641, 5.124116, 0.7280092, 0
327, 1839098569, 0.8911803, 0.16378047, 0.12371014, -0.40463716, 0.75354934, 5.6114707, -0.27149773, 0
328, 1839115236, 0.891024, 0.16558161, 0.12340182, -0.40434298, 0.22649395, 6.3054075, 0.22236061, 0
330, 1839148570, 0.89087045, 0.16819462, 0.123151004, -0.40367803, -0.20001996, 5.402315, 2.2549706, 0
331, 1839165237, 0.8906576, 0.16950999, 0.122878216, -0.40368086, -0.07459577, 4.6505823, 1.8655758, 0
332, 1839181904, 0.89005274, 0.17133112, 0.1228122, -0.40426603, 0.5882302, 4.134421, -1.1415558, 0
334, 1839215238, 0.8907343, 0.17301156, 0.11634334, -0.40396225, 0.52511126, 5.260953, -2.2845569, 0
335, 1839231905, 0.8909465, 0.17142507, 0.1137751, -0.4049009, 0.77750903, 4.581539, -2.9247265, 0
336, 1839248572, 0.8910036, 0.16850418, 0.110987484, -0.4067708, 1.1349458, 0.86490464, 1.4037132, 0
338, 1839281906, 0.8916459, 0.16356663, 0.10367676, -0.40930027, 0.85516644, 0.5831841, 1.0009193, 0
339, 1839298573, 0.8914007, 0.16308396, 0.101353996, -0.41060668, 2.2662134, -3.4226544, 1.9339504, 0
340, 1839315240, 0.8909612, 0.16330908, 0.09887493, -0.41207275, 2.2197442, -5.1850314, 1.8854475, 0
342, 1839348574, 0.8896072, 0.16629252, 0.09477694, -0.41475907, -0.63476884, -4.242516, 0.5645466, 0
343, 1839365241, 0.88882023, 0.16855533, 0.09324211, -0.41587916, 1.110294, -3.3649848, 0.22702026, 0
344, 1839381908, 0.88796324, 0.17017426, 0.09229154, -0.4172604, 1.4019996, -3.1516492, 1.0979929, 0
346, 1839415242, 0.8864913, 0.17236865, 0.091304064, -0.41969955, -2.0593903, -3.261271, 1.0318928, 0
347, 1839431909, 0.8858874, 0.17349693, 0.091259986, -0.42051876, -0.988402, -2.5064623, 0.40256023, 0
348, 1839448576, 0.8854205, 0.17370039, 0.09103405, -0.42146575, -0.030903796, -1.701255, 0.4349308, 0
350, 1839481910, 0.88474965, 0.17424652, 0.09038699, -0.4227864, -0.5252248, -0.14568548, 0.08415222, 0
352, 1839515244, 0.88460207, 0.17461094, 0.08962436, -0.4231071, -1.2908914, -0.25249717, 0.81524754, 0
354, 1839548578, 0.884693, 0.17442092, 0.08854678, -0.4232222, -0.15834731, -0.5750337, 0.40160656, 0
355, 1839565245, 0.88488746, 0.17351176, 0.08857826, -0.4231828, 0.025755398, -0.027650215, -0.1307764, 0
357, 1839598579, 0.8851193, 0.1711012, 0.08882642, -0.4236273, -0.040150303, 0.8787343, 0.2012825, 0
358, 1839615246, 0.88501954, 0.17018814, 0.08912983, -0.42413944, 0.5977708, 0.46733454, -0.001036644, 0
359, 1839631913, 0.8849603, 0.16862653, 0.08936178, -0.42483735, 0.85610324, 0.31086656, -0.43692398, 0
361, 1839665247, 0.8845724, 0.166039, 0.09030533, -0.42646202, 0.71679085, 0.26795834, 0.6017399, 0
362, 1839681914, 0.8842921, 0.1645335, 0.09062688, -0.42755705, -0.035391822, 0.22710523, -0.050912857, 0
363, 1839698581, 0.8839898, 0.1630045, 0.09138249, -0.42860556, -0.18119, 1.2285877, -0.70570374, 0
365, 1839731915, 0.8836494, 0.16158842, 0.09136389, -0.42984584, 0.31454498, 1.2991308, 0.28366184, 0
367, 1839765249, 0.8833642, 0.16188608, 0.09062323, -0.43047655, -0.26505998, 1.3787818, 0.12672329, 0
369, 1839798583, 0.8835734, 0.16194165, 0.08906117, -0.4303522, -0.84825695, 1.9570308, 0.26686764, 0
370, 1839815250, 0.88368833, 0.16165867, 0.088259324, -0.43038768, -0.625072, 2.7535892, -0.024899483, 0
371, 1839831917, 0.883805, 0.1603466, 0.08797175, -0.43069768, -0.4241316, 2.4235463, 0.45347023, 0
373, 1839865251, 0.88399255, 0.15786253, 0.08845793, -0.43113086, -0.8881352, 1.7256063, 1.2661028, 0
374, 1839881918, 0.8839903, 0.15691637, 0.089396454, -0.4312872, 0.22239015, 2.601902, -0.47297, 0
375, 1839898585, 0.88395274, 0.15573978, 0.09051938, -0.43155625, -0.7829787, 1.7132922, 0.6736679, 0
377, 1839931919, 0.8843726, 0.1547857, 0.09129071, -0.43087655, -0.57245135, 1.6999347, 1.3958616, 0
378, 1839948586, 0.88463384, 0.15451987, 0.09133792, -0.43042535, 0.044742376, 1.9162235, 1.4305725, 0
379, 1839965253, 0.8847196, 0.15498914, 0.09187257, -0.42996618, -0.053365283, 2.2671351, 0.7057438, 0
382, 1840015254, 0.88528764, 0.15810978, 0.09280875, -0.4274525, -0.9484662, 2.0137234, 0.09231377, 0
383, 1840031921, 0.885856, 0.1595312, 0.09175711, -0.42597154, -1.2434762, 0.7430187, 1.5677395, 0
385, 1840065255, 0.88629884, 0.16550198, 0.09143084, -0.4228309, 0.23700777, 1.952417, 0.8408632, 0
386, 1840081922, 0.88615656, 0.16870412, 0.09202849, -0.42173243, -0.41396433, 3.6392233, -0.9380064, 0
388, 1840115256, 0.88694924, 0.17214873, 0.09179358, -0.4187144, -1.2668055, 2.793238, 1.7667398, 0
389, 1840131923, 0.88724804, 0.17343058, 0.09235262, -0.4174273, -1.2960671, 2.7596598, 1.3386393, 0
390, 1840148590, 0.8870428, 0.17539676, 0.09416002, -0.41663763, 0.1167644, 2.5710113, 0.48091602, 0
392, 1840181924, 0.88684934, 0.17682613, 0.09728198, -0.41572696, -0.09804876, 4.7113724, -1.9364195, 0
393, 1840198591, 0.88762796, 0.17566249, 0.096725374, -0.4146874, 0.102632105, 5.026982, -0.92368317, 0
394, 1840215258, 0.8883325, 0.17420669, 0.096197665, -0.41391465, -0.32503298, 4.25514, 1.503334, 0
397, 1840265259, 0.8875898, 0.1738684, 0.100112, -0.41472107, 0.9561395, 3.3678377, 1.0516233, 0
398, 1840281926, 0.886702, 0.17488004, 0.10334553, -0.41540122, 0.6576397, 2.6188986, -0.7127161, 0
400, 1840315260, 0.8859395, 0.1759249, 0.107233055, -0.41560176, 0.23777464, 4.9787793, -2.6500168, 0
401, 1840331927, 0.8856294, 0.17742999, 0.10699562, -0.41568372, 1.5224496, 4.146177, -2.8018231, 0
402, 1840348594, 0.886022, 0.17998847, 0.103840835, -0.41454598, 2.8434274, 3.6529467, -0.5277567, 0
404, 1840381928, 0.8865526, 0.18598776, 0.09845944, -0.412069, 0.19361117, -1.0590318, 4.2960396, 0
405, 1840398595, 0.88634497, 0.18908767, 0.097083405, -0.41143054, -0.7940406, -0.49459204, 0.9039993, 0
406, 1840415262, 0.8858235, 0.19217503, 0.096163504, -0.411339, -1.2879461, -2.2864435, -1.476469, 0
408, 1840448596, 0.886379, 0.19475572, 0.091183, -0.41006082, 1.5902629, -1.2509239, -1.3977585, 0
409, 1840465263, 0.88679737, 0.19499606, 0.08796501, -0.4097451, 1.4275825, -0.75796026, -0.9480877, 0
411, 1840498597, 0.88633776, 0.1969992, 0.08497776, -0.4104113, 0.7127639, -4.7537036, 1.0640993, 0
412, 1840515264, 0.8858027, 0.19685976, 0.08473343, -0.41168183, 0.8466738, -7.062688, 1.8832369, 0
413, 1840531931, 0.88543797, 0.19498143, 0.08364825, -0.41357794, 0.99299765, -3.1695735, 2.4359694, 0
415, 1840565265, 0.88361, 0.19136178, 0.08348494, -0.41917315, 2.2899725, -3.5670917, 1.4267483, 0
416, 1840581932, 0.88251597, 0.1892078, 0.08373881, -0.42239302, 1.8824887, -2.8823335, 0.5380478, 0
417, 1840598599, 0.8815789, 0.18648359, 0.08384422, -0.42552873, 0.49345145, -2.6920419, 1.2220545, 0
419, 1840631933, 0.8796381, 0.18313111, 0.084732205, -0.43079254, -0.17257145, -2.286755, -0.25477695, 0
420, 1840648600, 0.8789046, 0.18174785, 0.08489935, -0.43283746, 0.952525, -0.43048912, 0.31539822, 0
421, 1840665267, 0.87824416, 0.1803957, 0.08488686, -0.4347424, -0.28548616, -0.498662, 0.61506844, 0
424, 1840715268, 0.87726283, 0.17803022, 0.08611316, -0.4374492, -0.7875317, -0.12634401, 1.2851048, 0
425, 1840731935, 0.87724686, 0.17680117, 0.08606779, -0.43798816, -1.4467713, 0.6795308, 0.42012024, 0
427, 1840765269, 0.87764347, 0.1756988, 0.08677115, -0.4374981, -1.2967488, 0.18232083, 0.51680374, 0
428, 1840781936, 0.8782039, 0.17490841, 0.08685961, -0.43667173, -1.2340015, 0.61467534, -0.297163, 0
429, 1840798603, 0.8786373, 0.17468211, 0.08702704, -0.43585682, -1.2229207, 0.36263892, -0.05637455, 0
431, 1840831937, 0.8801595, 0.17316006, 0.08658253, -0.43347475, -0.37578017, 1.2205391, 0.18854618, 0
432, 1840848604, 0.8808719, 0.17226209, 0.08668755, -0.43236274, -0.99734396, 1.4047279, 0.11590099, 0
433, 1840865271, 0.8814739, 0.17104007, 0.08699452, -0.43155888, -0.86769843, 0.22008614, 0.46317387, 0
435, 1840898605, 0.8826302, 0.16822632, 0.08727941, -0.43024227, -0.27429622, 1.2195204, 0.4780264, 0
436, 1840915272, 0.8832527, 0.16688146, 0.08761404, -0.4294191, -0.75974387, 1.461693, -0.054427147, 0
439, 1840965273, 0.8850742, 0.16370924, 0.08831805, -0.4267376, -0.6319715, 1.4657848, -0.20597267, 0
440, 1840981940, 0.8856826, 0.16315491, 0.08861237, -0.425625, -0.9232778, 0.8517848, 0.030163765, 0
442, 1841015274, 0.88703424, 0.16260976, 0.08868127, -0.42299622, -0.94264925, 2.016553, -0.5673094, 0
443, 1841031941, 0.8875978, 0.16239966, 0.08917483, -0.42178932, -1.5900186, 0.57155603, 1.0054617, 0
444, 1841048608, 0.88830376, 0.16215649, 0.08924445, -0.4203798, -1.8373146, 1.6016375, 1.3701239, 0
446, 1841081942, 0.88940793, 0.16280039, 0.08966164, -0.41769883, 0.49664882, 3.1720598, -1.056633, 0
447, 1841098609, 0.8899089, 0.16301131, 0.089837104, -0.41651013, 0.16896597, 2.1709929, -0.15869236, 0
448, 1841115276, 0.89046085, 0.16332504, 0.08960889, -0.41525507, -0.50124973, 1.0321755, 1.3185511, 0
450, 1841148610, 0.8910562, 0.16512783, 0.08993498, -0.4131893, 0.5747066, 2.1593008, 0.4263115, 0
451, 1841165277, 0.89103866, 0.16623975, 0.090362914, -0.41268748, 0.21905264, 2.0080202, 0.53100777, 0
454, 1841215278, 0.89084613, 0.16967724, 0.09145822, -0.41146094, -0.32902315, 2.7001903, 0.5709152, 0
455, 1841231945, 0.89071596, 0.17068855, 0.091566786, -0.4113005, 0.16818859, 2.320637, 0.19030857, 0
456, 1841248612, 0.890691, 0.17167656, 0.09124834, -0.41101384, 0.46749938, 2.5635872, 1.2731895, 0
458, 1841281946, 0.8900145, 0.17551519, 0.09245558, -0.41058776, 0.045710187, 1.4002424, -0.8121729, 0
459, 1841298613, 0.8896669, 0.17727712, 0.09255748, -0.41056117, -0.3219104, 0.6721553, 1.958787, 0
460, 1841315280, 0.88981616, 0.17876509, 0.09124842, -0.40988526, -1.1657021, 3.9553757, 0.7443552, 0
462, 1841348614, 0.8891393, 0.18571363, 0.090392925, -0.40845197, 0.71499795, 1.1758808, 1.9242401, 0
463, 1841365281, 0.88909745, 0.18827215, 0.08939914, -0.4075894, -0.34914657, 3.0400932, -0.54438496, 0
465, 1841398615, 0.88911366, 0.19356127, 0.0877988, -0.40541852, -1.2424983, 3.9569256, 0.22606754, 0
466, 1841415282, 0.88906384, 0.1964438, 0.087408684, -0.4042239, -0.4567961, 2.8424747, -1.5264845, 0
469, 1841465283, 0.88980556, 0.19951642, 0.08622282, -0.40133134, -0.31921303, 2.5918686, 0.6452303, 0
470, 1841481950, 0.88996583, 0.19916865, 0.08742962, -0.40088737, -0.2228956, 3.2357497, 0.601738, 0
471, 1841498617, 0.8896661, 0.19900721, 0.08967304, -0.4011374, 0.35356855, 3.5510964, -0.7221594, 0
473, 1841531951, 0.8886417, 0.19898449, 0.09190308, -0.40291065, 0.4487035, 3.4802272, 1.3304119, 0
474, 1841548618, 0.88786507, 0.19964433, 0.09290082, -0.40406594, 0.5614158, 2.8072467, 0.52960396, 0
475, 1841565285, 0.88750917, 0.1993565, 0.09383794, -0.4047724, 0.9035226, 4.1486654, -3.6022983, 0
477, 1841598619, 0.8880422, 0.19566084, 0.09010768, -0.40625158, 0.92403924, 2.1628916, 1.4340467, 0
478, 1841615286, 0.88757, 0.19744036, 0.0876422, -0.4069613, 2.1110833, -1.3839427, 0.29018784, 0
479, 1841631953, 0.88723814, 0.20052385, 0.0842778, -0.40688807, 4.5028224, -6.362152, 1.3696375, 0
481, 1841665287, 0.88706404, 0.2048647, 0.07858229, -0.40624455, -0.24608475, -7.9676995, -0.74537086, 0
482, 1841681954, 0.88736653, 0.20594075, 0.076048456, -0.40552133, -0.11981412, -6.1151085, 1.1451588, 0
483, 1841698621, 0.8874489, 0.20670916, 0.074217886, -0.40528938, -0.5074998, -7.002735, 2.149188, 0
485, 1841731955, 0.8870206, 0.2049423, 0.074109405, -0.40714017, 1.72725, -7.577698, 2.4530706, 0
486, 1841748622, 0.8868147, 0.20222187, 0.075062715, -0.40877086, 0.88408446, -6.463438, 1.937727, 0
487, 1841765289, 0.8865957, 0.20093957, 0.076230206, -0.40966102, 1.7826898, -2.9165914, -0.7628813, 0
489, 1841798623, 0.8856802, 0.20076175, 0.07433879, -0.41206908, 3.0480747, -3.3513484, 2.211893, 0
490, 1841815290, 0.88487625, 0.20332919, 0.06848489, -0.41354924, 4.3016205, -2.3984525, 3.3533936, 0
491, 1841831957, 0.8830166, 0.20693405, 0.06112346, -0.4168762, 4.7520456, -4.5953865, 0.27839565, 0
493, 1841865291, 0.8766724, 0.20651211, 0.04440002, -0.43230644, 5.1225586, -2.210798, 3.1932707, 0
496, 1841915292, 0.8534863, 0.19457051, 0.023820937, -0.48290563, 1.6252382, -0.2713025, -4.3533406, 0
497, 1841931959, 0.84246266, 0.18707393, 0.022721346, -0.50478286, -3.6739447, 2.0565753, -3.451789, 0
498, 1841948626, 0.8329438, 0.18176356, 0.023619428, -0.5221789, -5.4092684, 4.805112, -1.77139, 0
500, 1841981960, 0.8249074, 0.17658778, 0.022721846, -0.53655386, -3.0407574, 5.228191, -0.9558296, 0
501, 1841998627, 0.823401, 0.1755442, 0.022252422, -0.53922355, 0.65388393, 3.8529663, -1.3765936, 0
502, 1842015294, 0.82114124, 0.17515214, 0.02246049, -0.54277647, -0.20505123, 4.398346, -1.9055762, 0
504, 1842048628, 0.8193834, 0.17742759, 0.028945856, -0.5443845, -3.2333121, 3.940422, 0.49026203, 0
505, 1842065295, 0.81942475, 0.18052182, 0.033101704, -0.54306626, -1.1947919, 3.5045545, 1.1366405, 0
506, 1842081962, 0.81979537, 0.18424334, 0.037889294, -0.54094034, -2.5893028, 4.469148, -0.4143448, 0
508, 1842115296, 0.8223904, 0.19188727, 0.044156805, -0.5338216, -2.0727355, 1.9916193, 0.71769047, 0
510, 1842148630, 0.8249446, 0.19337073, 0.048161153, -0.528977, -1.3507208, 1.185017, 0.389616, 0
512, 1842181964, 0.82677436, 0.19126451, 0.049129352, -0.5267926, 3.701502, -0.35536748, 0.17957592, 0
513, 1842198631, 0.8265157, 0.1905626, 0.051424414, -0.5272335, 6.3949065, 1.420603, 2.208191, 0
514, 1842215298, 0.8277898, 0.19412233, 0.051366944, -0.52393156, -3.0314476, -6.1247797, 2.1123066, 0
516, 1842248632, 0.82628685, 0.21624194, 0.046861105, -0.51803046, 6.1724634, -5.1626935, 0.186162, 0
517, 1842265299, 0.82470316, 0.22269586, 0.047999203, -0.5177158, -5.4248896, 1.9079616, -5.817589, 0
519, 1842298633, 0.8232261, 0.23030281, 0.052225996, -0.5163272, -1.2824061, -1.6005937, 0.36915398, 0
520, 1842315300, 0.8226236, 0.24069145, 0.054529097, -0.51229537, -0.16993925, -0.63895035, -0.8164177, 0
521, 1842331967, 0.82098985, 0.25751227, 0.059721097, -0.506121, 3.0693116, -3.0577877, 0.58500195, 0
523, 1842365301, 0.81829953, 0.30225483, 0.070971146, -0.4837901, 1.5979809, 2.7749147, -0.31936932, 0
525, 1842398635, 0.8205239, 0.35740858, 0.08808611, -0.43738136, -2.0940232, 2.6564982, 3.9098387, 0
527, 1842431969, 0.82305217, 0.40709013, 0.11267988, -0.37977365, 0.41710132, 6.1900787, 5.1219463, 0
528, 1842448636, 0.82295513, 0.427602, 0.12716769, -0.35184032, 3.4760723, 4.738526, 4.6107454, 0
529, 1842465303, 0.82904774, 0.43372524, 0.14179268, -0.323294, 0.28932947, 3.3572214, 4.9330177, 0
531, 1842498637, 0.8472627, 0.42464483, 0.17490706, -0.26700595, 8.171642, -5.132688, -3.3459558, 0
532, 1842515304, 0.85343206, 0.40368664, 0.19009043, -0.2694781, 28.351973, -9.588345, 8.730173, 0
533, 1842531971, 0.85829073, 0.3795554, 0.18498509, -0.291748, 8.860683, -7.8748827, 0.70547485, 0
535, 1842565305, 0.85599893, 0.33020496, 0.18218382, -0.35369712, -2.9705586, -4.6315494, -12.200991, 0
536, 1842581972, 0.8480674, 0.31579515, 0.1914165, -0.3801011, -10.388146, 0.9578782, -2.1985579, 0
537, 1842598639, 0.8433968, 0.29587445, 0.20962892, -0.39655745, -9.679151, 4.3770113, -4.3321257, 0
540, 1842648640, 0.8382361, 0.22121729, 0.2578296, -0.42662483, -3.945102, 7.6518617, 2.2115622, 0
541, 1842665307, 0.83760196, 0.20045124, 0.25836146, -0.43766814, -5.615941, 7.139341, 2.8376656, 0
543, 1842698641, 0.8373902, 0.17077272, 0.24474481, -0.45801327, -5.4880657, 3.928541, -0.3511114, 0
544, 1842715308, 0.8381114, 0.16718194, 0.2303419, -0.4654287, -5.3482995, 3.0661435, 3.0262318, 0
546, 1842748642, 0.8449329, 0.16483098, 0.19549434, -0.4698544, -4.1916394, 1.2770976, 0.5411539, 0
547, 1842765309, 0.84970605, 0.16110599, 0.18028031, -0.4686206, -3.356962, 0.6013826, -1.0147047, 0
548, 1842781976, 0.8542917, 0.15622939, 0.16822171, -0.4664132, -3.5273926, 1.3008783, -2.4962387, 0
550, 1842815310, 0.8644819, 0.14864226, 0.14690644, -0.4572274, -7.6217785, 1.5749174, 2.2611752, 0
551, 1842831977, 0.87188685, 0.1462983, 0.1322289, -0.44831616, -6.6633816, 1.5896188, -0.76846504, 0
552, 1842848644, 0.8792013, 0.15029177, 0.1144959, -0.4374586, -2.1492643, -0.011617701, -4.197782, 0
554, 1842881978, 0.8886061, 0.18281144, 0.07222287, -0.41449347, -0.9396211, -5.471852, -2.4482746, 0
555, 1842898645, 0.8914909, 0.20236884, 0.051079303, -0.40217373, -2.1034412, -11.325131, 0.7193117, 0
556, 1842915312, 0.8941734, 0.21801004, 0.02933105, -0.39003468, -0.17141521, -18.386936, -0.08329296, 0
558, 1842948646, 0.89332414, 0.24264354, 0.0041924566, -0.37833902, 1.2037882, -30.30297, -17.865673, 0
559, 1842965313, 0.88643754, 0.257461, 0.011744387, -0.38453418, 1.1265906, -35.500538, -13.860027, 0
560, 1842981980, 0.87473404, 0.27489394, 0.030525222, -0.3979998, -0.68134385, -37.27355, -11.679966, 0
562, 1843015314, 0.8356744, 0.2990532, 0.116548106, -0.44575092, -9.646343, -32.02781, 16.12976, 0
563, 1843031981, 0.82646453, 0.25520125, 0.14684102, -0.4799253, 45.818897, -30.611706, 35.528263, 0
564, 1843048648, 0.81845224, 0.24611343, 0.17023303, -0.49055743, 5.8578076, 4.1297994, 11.82135, 0
567, 1843098649, 0.8004907, 0.26368606, 0.22423159, -0.48935294, -1.7381744, 3.154405, 1.5681076, 0
568, 1843115316, 0.7873121, 0.2726259, 0.25503922, -0.49074608, 0.37503886, 4.0807996, 1.9681396, 0
570, 1843148650, 0.7438055, 0.2948716, 0.35806084, -0.48130903, -1.7858698, 9.471661, 3.7556076, 0
571, 1843165317, 0.7065337, 0.29644653, 0.438391, -0.4698987, 0.41048512, 13.557087, 9.050833, 0
573, 1843198651, 0.58183604, 0.34265396, 0.5748441, -0.4622457, -2.1925209, 23.362608, 15.314011, 0
574, 1843215318, 0.48665208, 0.38540632, 0.624684, -0.47377557, -13.946248, 34.433292, 29.425632, 0
575, 1843231985, 0.42872182, 0.40312374, 0.67788565, -0.440706, -52.386417, 69.279755, 21.930023, 0
577, 1843265319, 0.45650178, 0.43397817, 0.6769102, -0.38095102, 8.51387, -12.344521, -1.9356923, 0
578, 1843281986, 0.41881523, 0.4635554, 0.67411315, -0.39413646, 4.395561, 1.9347537, -2.2754188, 0
579, 1843298653, 0.37423056, 0.487728, 0.6750053, -0.4080472, 5.6222835, 23.085623, -3.0177903, 0
582, 1843348654, 0.30475584, 0.49314344, 0.68898106, -0.43508697, 13.510645, 16.12388, -15.797743, 0
583, 1843365321, 0.29240942, 0.48429602, 0.6873416, -0.45560682, 11.265331, 15.479219, -17.873665, 0
585, 1843398655, 0.29303834, 0.4515286, 0.675616, -0.50384057, 7.496373, 15.119165, -15.637561, 0
586, 1843415322, 0.31058675, 0.42729294, 0.6658655, -0.5269172, 4.80143, 16.774908, -14.463259, 0
587, 1843431989, 0.33787644, 0.4002108, 0.654911, -0.54481566, 1.643511, 11.775048, -14.592987, 0
589, 1843465323, 0.3954899, 0.35040367, 0.6330737, -0.56576043, 1.2794094, 6.6035056, -13.103053, 0
590, 1843481990, 0.42713702, 0.3348031, 0.612672, -0.5745919, 1.3579948, 11.146734, -10.853575, 0
591, 1843498657, 0.4634717, 0.3239249, 0.5851433, -0.5813224, 1.9435561, 10.005933, -8.405951, 0
593, 1843531991, 0.5341959, 0.31111425, 0.51349795, -0.5951677, 2.8929245, 4.2660737, -2.1265674, 0
594, 1843548658, 0.5646496, 0.30341852, 0.47647554, -0.60178125, 1.3998362, 6.406122, 3.4675207, 0
597, 1843598659, 0.6457259, 0.27098387, 0.36690652, -0.6124112, -7.072023, 2.0404534, 6.9580517, 0
598, 1843615326, 0.67317915, 0.26584515, 0.3309755, -0.60553575, -6.1895556, 1.0867218, 9.198193, 0
599, 1843631993, 0.7018976, 0.26440912, 0.2938571, -0.5925686, -4.8450475, -1.9868677, 9.866846, 0
601, 1843665327, 0.75803804, 0.25401405, 0.2260667, -0.55660653, -1.2713197, -6.8489857, 9.906504, 0
602, 1843681994, 0.78268373, 0.24480617, 0.19416082, -0.53836787, 0.18749966, -7.231887, 7.3175526, 0
604, 1843715328, 0.82103264, 0.2244935, 0.13450824, -0.50742245, 0.8981325, -7.196028, 5.998639, 0
605, 1843731995, 0.8348845, 0.21340446, 0.10819152, -0.49576503, 1.154328, -7.199089, 3.7357874, 0
606, 1843748662, 0.84514827, 0.20215829, 0.08627365, -0.48731408, 0.8640687, -6.7084503, 3.1243114, 0
608, 1843781996, 0.8596287, 0.18223381, 0.045794528, -0.47517794, -0.50779253, -7.9382315, 6.74, 0
609, 1843798663, 0.86579347, 0.17567709, 0.02452344, -0.46797413, -1.2614197, -7.655416, 2.2448483, 0
612, 1843848664, 0.88027555, 0.17022628, -0.014150865, -0.44271845, 0.15425701, -8.464339, -0.9145222, 0
613, 1843865331, 0.88470775, 0.17048344, -0.02021353, -0.43345204, 0.12205618, -8.777612, -0.30350876, 0
614, 1843881998, 0.8894445, 0.16896376, -0.024278868, -0.4240427, 0.49462748, -9.679411, 0.41559982, 0
616, 1843915332, 0.89804006, 0.16732776, -0.030104171, -0.40580916, 1.5026026, -9.293612, -2.2882886, 0
617, 1843931999, 0.9014567, 0.1683219, -0.032157928, -0.39758164, 1.9185387, -8.592042, -3.5790606, 0
618, 1843948666, 0.9040463, 0.17052251, -0.032430228, -0.39068198, 2.1515236, -7.921133, -4.920568, 0
620, 1843982000, 0.90636885, 0.17852041, -0.028003208, -0.38197336, 1.2328756, -9.332591, -4.2327633, 0
622, 1844015334, 0.90637183, 0.18443182, -0.020348385, -0.37963516, -0.13979685, -12.483264, -3.0861263, 0
624, 1844048668, 0.9055382, 0.18899104, -0.013181791, -0.37969872, -1.1249588, -14.630678, -8.533452, 0
625, 1844065335, 0.90402186, 0.19504483, -0.005508356, -0.38043833, -0.57259876, -16.862926, -10.500853, 0
627, 1844098669, 0.8950989, 0.21988663, 0.013696112, -0.38771376, -1.3028988, -23.228672, -8.440573, 0
628, 1844115336, 0.88617516, 0.23631424, 0.026718125, -0.39773992, -2.9673543, -26.385698, -8.63035, 0
629, 1844132003, 0.87357605, 0.25544378, 0.04636528, -0.4117348, -6.476845, -30.537073, -7.315446, 0
631, 1844165337, 0.83805025, 0.30554855, 0.11403042, -0.4374594, -8.422119, -35.212875, -1.4401445, 0
632, 1844182004, 0.8169275, 0.33074257, 0.16554362, -0.44260153, -7.6060424, -26.108875, 16.078697, 0
633, 1844198671, 0.81700313, 0.29286906, 0.22083339, -0.4450035, 43.50852, -2.9216003, 38.879208, 0
635, 1844232005, 0.8088715, 0.28342736, 0.24484262, -0.4533318, 3.9231343, 1.6018518, 2.642353, 0
636, 1844248672, 0.8001585, 0.28521493, 0.26758382, -0.45481837, 0.30557528, 3.2695944, 1.4442959, 0
637, 1844265339, 0.78626657, 0.29114452, 0.29899985, -0.45572028, 2.25559, 2.5891163, 0.7420168, 0
640, 1844315340, 0.7082985, 0.32370487, 0.453635, -0.43336546, 2.128647, 5.442266, 4.6176596, 0
641, 1844332007, 0.6669849, 0.33499646, 0.5203856, -0.4149327, 3.3940794, 10.857809, 7.7836075, 0
643, 1844365341, 0.5498986, 0.38199022, 0.6452507, -0.367979, -3.1359422, 31.682064, 17.944885, 0
644, 1844382008, 0.47004807, 0.41704547, 0.689852, -0.35957456, -7.7349396, 49.835773, 31.353016, 0
645, 1844398675, 0.4196517, 0.42702168, 0.7246257, -0.34135687, -32.78601, 69.24238, 24.775768, 0
647, 1844432009, 0.41490322, 0.4447096, 0.70547014, -0.3639539, 7.1604576, -15.798447, 0.94612026, 0
648, 1844448676, 0.36451912, 0.4610038, 0.70098674, -0.40408027, -9.122517, 16.892895, 1.3099279, 0
649, 1844465343, 0.33209616, 0.46449652, 0.7046318, -0.4213205, -9.038949, 31.345535, -5.962885, 0
651, 1844498677, 0.29169017, 0.46646824, 0.7174365, -0.42740032, 5.5357537, 17.641829, -11.859201, 0
652, 1844515344, 0.26829273, 0.47051418, 0.71601754, -0.4404725, 8.487897, 16.318401, -15.058926, 0
655, 1844565345, 0.25280285, 0.45277023, 0.6992401, -0.49215338, 7.4474554, 17.868845, -17.999771, 0
656, 1844582012, 0.2773166, 0.43514636, 0.69078577, -0.50657696, 5.4272966, 14.69728, -16.250198, 0
658, 1844615346, 0.3484365, 0.3946815, 0.6650474, -0.52970976, 3.5641394, 6.936783, -12.853094, 0
659, 1844632013, 0.3862884, 0.37439555, 0.64590836, -0.54173183, 4.6966276, 8.186033, -10.339228, 0
660, 1844648680, 0.42689925, 0.35331815, 0.6186083, -0.55705374, 5.348123, 8.247119, -7.526149, 0
662, 1844682014, 0.49876797, 0.30809453, 0.55562973, -0.58961487, 1.9772904, 2.52752, -4.9470935, 0
663, 1844698681, 0.5287008, 0.28932843, 0.5234855, -0.60231996, 0.5024886, 6.5693994, -2.706304, 0
664, 1844715348, 0.55858135, 0.27549845, 0.49101037, -0.6091455, 0.32611078, 7.9402175, -0.87071323, 0
666, 1844748682, 0.61422276, 0.255047, 0.420682, -0.6170653, -4.8795137, 4.3683796, 9.539185, 0
667, 1844765349, 0.64185774, 0.24317645, 0.3881913, -0.6150228, -8.814447, 3.7829754, 9.298149, 0
670, 1844815350, 0.72912323, 0.23937212, 0.29242522, -0.5706398, 0.28210196, -4.6802244, 9.406717, 0
671, 1844832017, 0.7526192, 0.23665036, 0.26001918, -0.5567881, 0.4608931, -5.6742005, 8.591028, 0
672, 1844848684, 0.772817, 0.2289371, 0.22928387, -0.5457403, -0.39972654, -5.2374773, 6.6608677, 0
674, 1844882018, 0.8064157, 0.21268523, 0.1692648, -0.52523327, -2.7959733, -4.0446167, 5.7171936, 0
675, 1844898685, 0.8212675, 0.2051129, 0.14063437, -0.5135486, -1.0534233, -4.964687, 5.202134, 0
676, 1844915352, 0.8343298, 0.20033577, 0.11115629, -0.5014635, 0.6164443, -5.7411966, 4.875946, 0
678, 1844948686, 0.85443115, 0.19070612, 0.05618639, -0.480087, 0.86073273, -7.7532954, 5.101556, 0
679, 1844965353, 0.8620931, 0.18181889, 0.033171516, -0.47190994, -0.068291254, -8.256738, 3.3303719, 0
681, 1844998687, 0.87357116, 0.16401555, -0.0021291897, -0.45829007, -0.6221323, -8.757258, 1.8080721, 0
682, 1845015354, 0.87794733, 0.15903614, -0.017401557, -0.4513038, 0.23534283, -8.8752575, 0.5121746, 0
685, 1845065355, 0.8870481, 0.15122367, -0.050769944, -0.43331444, 1.0630001, -10.040016, -1.6070061, 0
686, 1845082022, 0.8893286, 0.14834547, -0.05709749, -0.42882422, 1.050986, -9.835752, -2.4711156, 0
687, 1845098689, 0.89157224, 0.14589122, -0.060079873, -0.42457905, 1.845156, -9.486869, -3.5744672, 0
689, 1845132023, 0.8964858, 0.14677244, -0.06152458, -0.413579, 1.1164199, -9.349322, -2.6762652, 0
690, 1845148690, 0.89934367, 0.14713675, -0.059475552, -0.40750006, 0.7169855, -9.308613, -2.1066413, 0
691, 1845165357, 0.90221626, 0.14767516, -0.05613081, -0.4013837, 1.6339568, -8.217167, -3.3672657, 0
693, 1845198691, 0.9069839, 0.15094936, -0.047078747, -0.3904355, 1.5078974, -7.9288564, -3.1211357, 0
694, 1845215358, 0.9084211, 0.153994, -0.0422624, -0.386436, 1.7666783, -7.6992354, -4.238619, 0
695, 1845232025, 0.90895927, 0.15920575, -0.03757715, -0.3835316, 1.7140491, -7.459594, -4.5063677, 0
697, 1845265359, 0.9089305, 0.17001882, -0.027213678, -0.37981611, -0.3409122, -9.358256, -3.0457587, 0
698, 1845282026, 0.9087496, 0.17389134, -0.02192222, -0.37883675, -0.024241153, -10.650145, -4.7687435, 0
699, 1845298693, 0.907949, 0.17967209, -0.016725734, -0.37832373, 0.2119594, -12.849882, -6.1194315, 0
701, 1845332027, 0.90224874, 0.20125073, -0.00452403, -0.38142747, 1.217769, -18.492924, -10.653362, 0
702, 1845348694, 0.89465857, 0.21876703, 0.0068010166, -0.3895419, 1.9888065, -24.546164, -7.7028475, 0
703, 1845365361, 0.8835738, 0.23712076, 0.019619495, -0.40342063, -0.49207672, -28.921124, -5.207075, 0
705, 1845398695, 0.8530893, 0.262776, 0.07104957, -0.44519842, -5.317311, -31.455927, 0.65963364, 0
706, 1845415362, 0.83369315, 0.27912256, 0.10857142, -0.46402645, -3.3136673, -29.677433, 0.014723778, 0
707, 1845432029, 0.8085972, 0.30102924, 0.15382974, -0.48161238, 2.287103, -28.476881, 0.47003937, 0
709, 1845465363, 0.7879813, 0.28029716, 0.21584633, -0.5039754, 2.8139038, -0.5888771, -3.7714372, 0
712, 1845515364, 0.74668175, 0.2899942, 0.31971186, -0.50617796, 3.5713766, 4.098413, 2.7608557, 0
713, 1845532031, 0.72212243, 0.30596575, 0.37054107, -0.4976803, 2.9762676, 5.2149425, 1.6538372, 0
714, 1845548698, 0.6884084, 0.3224217, 0.43290842, -0.4845518, 2.4188457, 7.189416, 6.27372, 0
716, 1845582032, 0.59151983, 0.36612833, 0.56042415, -0.4494899, 0.80141735, 24.981127, 13.434256, 0
717, 1845598699, 0.5212924, 0.39138317, 0.62248635, -0.4331815, -1.014325, 19.179092, 15.150385, 0
718, 1845615366, 0.4373418, 0.4219178, 0.671013, -0.42487764, -10.291925, 50.98152, 24.754711, 0
720, 1845648700, 0.42669547, 0.40789562, 0.732872, -0.33839723, -14.691316, 19.01133, 1.8985386, 0
721, 1845665367, 0.39927602, 0.42565513, 0.7400371, -0.33437008, 3.344096, -3.3556056, -1.413497, 0
722, 1845682034, 0.35345644, 0.4494815, 0.7444509, -0.3448039, -5.5542326, 38.34649, -2.107952, 0
724, 1845715368, 0.31294307, 0.4770003, 0.7351767, -0.36621672, 15.567663, 28.675789, -11.845468, 0
726, 1845748702, 0.3021641, 0.47845888, 0.7035793, -0.4298978, 8.518964, 22.737791, -15.015958, 0
728, 1845782036, 0.33510664, 0.44192803, 0.68719614, -0.46928322, 1.4678241, 15.279644, -15.856473, 0
729, 1845798703, 0.36376274, 0.41810796, 0.68196905, -0.47732854, 1.2002628, 14.626449, -15.183159, 0
730, 1845815370, 0.40065578, 0.39434314, 0.6724873, -0.48144674, 1.0761689, 13.817001, -14.323241, 0
732, 1845848704, 0.49028426, 0.35462734, 0.63207906, -0.48414752, 0.56903803, 11.674539, -8.465559, 0
733, 1845865371, 0.53662246, 0.33928472, 0.59886026, -0.48821157, 1.6512051, 6.879258, -4.714662, 0
735, 1845898705, 0.62009597, 0.31581467, 0.51347715, -0.50214076, -1.2927945, 5.184966, 1.6243687, 0
736, 1845915372, 0.6609659, 0.30138078, 0.4683085, -0.5030336, -3.484083, 3.638655, 8.109644, 0
737, 1845932039, 0.7025894, 0.28299612, 0.42401376, -0.49654388, -9.40117, -2.2757158, 10.338137, 0
739, 1845965373, 0.78056395, 0.25454473, 0.34936395, -0.45159018, -8.239995, -11.143908, 6.358429, 0
741, 1845998707, 0.84060687, 0.24992065, 0.2861694, -0.38612005, -2.2652655, -14.678826, 6.953226, 0
743, 1846032041, 0.8712307, 0.2094967, 0.2680933, -0.35391527, 25.74881, -15.663937, 15.846848, 0
744, 1846048708, 0.88348454, 0.21109946, 0.24157047, -0.3414639, -14.061795, -9.974535, -3.8127508, 0
745, 1846065375, 0.89487505, 0.20253788, 0.23877996, -0.31815565, -6.4323244, -11.174068, -8.354354, 0
747, 1846098709, 0.9128887, 0.20183349, 0.22714391, -0.27269948, -7.4449267, -3.3969243, -2.3436737, 0
748, 1846115376, 0.9216821, 0.20403913, 0.21866113, -0.247224, -3.52225, -1.9395466, 0.6952114, 0
749, 1846132043, 0.9294097, 0.20686255, 0.20906769, -0.22306514, -2.6954205, -2.6667054, -1.9824495, 0
751, 1846165377, 0.9394926, 0.20779249, 0.1971542, -0.18806359, -3.9954636, -3.2831945, -2.7687154, 0
752, 1846182044, 0.94196004, 0.21187106, 0.19576155, -0.17193407, -5.903383, -5.5267506, -3.0838165, 0
753, 1846198711, 0.9430995, 0.22077838, 0.19722536, -0.15160573, -6.812313, -8.038673, -2.405242, 0
756, 1846248712, 0.9349524, 0.23124522, 0.24012266, -0.12162426, 28.979168, -19.209528, 10.85321, 0
757, 1846265379, 0.9350719, 0.20423779, 0.25170118, -0.14365166, 9.3324795, -9.637443, -4.9248714, 0
759, 1846298713, 0.9325699, 0.17667949, 0.25356045, -0.18672583, -7.576267, -0.061292842, -7.970236, 0
760, 1846315380, 0.93194425, 0.1742971, 0.24982643, -0.19684753, -0.12084317, 1.7815989, -3.7784247, 0
762, 1846348714, 0.930498, 0.17210907, 0.2507352, -0.20431757, 2.5109453, -2.1159399, 1.2249317, 0
763, 1846365381, 0.92976886, 0.17619097, 0.25111797, -0.20368648, -3.953086, -0.9533658, 2.770918, 0
764, 1846382048, 0.9286096, 0.18442562, 0.25058067, -0.2023429, -3.786495, 3.0814822, 0.5478134, 0
766, 1846415382, 0.92586184, 0.1848883, 0.26115632, -0.20113567, 0.2105663, -0.8017785, -1.4344559, 0
767, 1846432049, 0.92335886, 0.18752792, 0.267628, -0.2016902, -1.4473193, 1.1063048, -0.51364326, 0
768, 1846448716, 0.9224793, 0.18690753, 0.26833457, -0.20532003, -0.9821906, 2.445909, 9.072191, 0
770, 1846482050, 0.9193256, 0.18389058, 0.26278192, -0.22810605, -4.0251694, 2.983547, -3.0292816, 0
771, 1846498717, 0.91584337, 0.18774033, 0.2606821, -0.24102145, -0.64794374, -1.0031873, 1.821763, 0
772, 1846515384, 0.91182095, 0.19261613, 0.25529385, -0.25762108, 2.7743163, -2.7991998, 2.6755009, 0
774, 1846548718, 0.8999711, 0.20253372, 0.23487127, -0.30647945, -3.5416777, 1.2550467, -2.4249492, 0
775, 1846565385, 0.89479345, 0.2052918, 0.22206858, -0.3285539, -1.6511012, 3.1703475, -1.1618099, 0
776, 1846582052, 0.8944632, 0.2032393, 0.20741808, -0.34010178, 1.2599674, 4.5868497, -1.9331589, 0
778, 1846615386, 0.90237266, 0.19416486, 0.17922947, -0.3405322, 2.2983518, -0.12384696, 4.318224, 0
779, 1846632053, 0.9080687, 0.18884163, 0.1629433, -0.33654314, -0.7618037, 2.8436475, 2.959525, 0
780, 1846648720, 0.9133076, 0.1814975, 0.14610785, -0.33412877, -1.234289, 5.404404, -0.7413225, 0
783, 1846698721, 0.9193902, 0.16851908, 0.117794625, -0.335424, 1.1377026, 1.0078986, 5.1812687, 0
784, 1846715388, 0.91899014, 0.1690275, 0.11757909, -0.33633882, 3.0856104, 0.46084565, 3.25385, 0
786, 1846748722, 0.91606605, 0.176322, 0.12215448, -0.33893025, 1.1526562, 7.8091536, -3.5359588, 0
787, 1846765389, 0.91310096, 0.18224892, 0.12713864, -0.34194994, -0.05864776, 6.115395, -8.813388, 0
788, 1846782056, 0.9106332, 0.1851131, 0.1295599, -0.3460584, -1.7157787, -1.0497967, 1.0635595, 0
790, 1846815390, 0.91072917, 0.18689197, 0.124176644, -0.3468225, -0.17491633, 2.9230192, 2.2631674, 0
791, 1846832057, 0.9086503, 0.18958744, 0.12734373, -0.34965235, 1.7612866, 1.4001147, 2.3264399, 0
793, 1846865391, 0.89872324, 0.19889954, 0.13588756, -0.36651298, -0.7684992, -0.7853697, -4.1253557, 0
794, 1846882058, 0.8945081, 0.20353737, 0.13622046, -0.3740771, 3.2562711, -4.6331887, -1.0250216, 0
795, 1846898725, 0.8945129, 0.20303059, 0.124893576, -0.37827092, 1.6143757, -4.7315383, 1.3258419, 0
798, 1846948726, 0.8988731, 0.19249743, 0.098833084, -0.38113803, -0.50106263, -1.4007782, 9.444502, 0
799, 1846965393, 0.89850867, 0.19200191, 0.09798582, -0.38246337, 0.14178902, -7.2808113, 6.77598, 0
801, 1846998727, 0.8997266, 0.18679129, 0.09530366, -0.3828577, -4.7763767, -8.969068, 0.43479824, 0
802, 1847015394, 0.9010639, 0.18484907, 0.093946524, -0.38098648, -3.3808079, -6.247079, 4.5080957, 0
803, 1847032061, 0.90214163, 0.18509126, 0.09363027, -0.37838742, -1.7704849, -8.56111, 1.7095003, 0
805, 1847065395, 0.90437186, 0.18861793, 0.093988106, -0.3711645, -2.3692803, -6.209687, -1.1571951, 0
806, 1847082062, 0.9055651, 0.19053522, 0.09514235, -0.3669581, -2.1328464, -4.6701903, 0.1524334, 0
807, 1847098729, 0.9066299, 0.19343346, 0.09712425, -0.36226323, -1.4085975, -6.094221, 0.049678802, 0
809, 1847132063, 0.9076668, 0.19848579, 0.10254839, -0.35537297, -1.5084674, -1.4784682, -0.350708, 0
810, 1847148730, 0.90804553, 0.20052056, 0.10448803, -0.35268846, -1.5722728, 0.90823305, 0.275424, 0
813, 1847198731, 0.90887356, 0.20941882, 0.107865006, -0.34426695, 0.7733049, 1.8849978, 1.5474796, 0
814, 1847215398, 0.90903777, 0.21358676, 0.10739392, -0.34140855, -0.26631188, 1.355155, 3.1277761, 0
816, 1847248732, 0.9092709, 0.21771795, 0.10655189, -0.33842856, -0.3975026, 2.7593377, -1.4210091, 0
817, 1847265399, 0.90934885, 0.21886489, 0.10559289, -0.33777952, 0.6671845, 0.5047561, -1.0848227, 0
818, 1847282066, 0.9093911, 0.21947087, 0.104518466, -0.3376064, 1.6923801, -1.0622997, 2.4523668, 0
820, 1847315400, 0.9092418, 0.22056814, 0.103082545, -0.33773512, 0.83554775, 1.5765578, 0.058592796, 0
821, 1847332067, 0.9088087, 0.22223203, 0.10259242, -0.33795932, 0.90129435, 1.7656237, -2.113758, 0
822, 1847348734, 0.9082762, 0.22418413, 0.10117708, -0.33852774, 2.3451092, 0.86335266, -0.59396267, 0
824, 1847382068, 0.90677714, 0.22706234, 0.09706333, -0.34181634, 2.7431474, -0.73177, 0.23989582, 0
826, 1847415402, 0.9049295, 0.22617532, 0.097577795, -0.3471136, 1.1518096, 1.327113, -0.6132498, 0
829, 1847465403, 0.90232646, 0.22599807, 0.09338074, -0.35506877, 1.0218923, 0.29355374, -0.48996162, 0
830, 1847482070, 0.90169394, 0.22471294, 0.091795884, -0.35789308, 0.61470354, 0.21328717, 1.5121098, 0
832, 1847515404, 0.9001165, 0.22228697, 0.09035583, -0.36369857, 1.4031804, 0.9574471, -2.1421204, 0
833, 1847532071, 0.89933753, 0.22060658, 0.09016711, -0.36668327, 1.3989942, -0.048472047, 0.017364502, 0
834, 1847548738, 0.89879775, 0.21808274, 0.08907092, -0.36977148, 1.5942881, 2.2455323, -0.40563583, 0
836, 1847582072, 0.89793915, 0.21353388, 0.08718127, -0.37492648, 0.9163346, 0.77352077, 1.6506491, 0
837, 1847598739, 0.8972969, 0.21092783, 0.08692156, -0.37798735, 1.468932, 1.9191906, 0.85756683, 0
838, 1847615406, 0.896211, 0.20939764, 0.0875934, -0.38124493, 2.3072867, 1.0449663, -0.11285496, 0
840, 1847648740, 0.8942307, 0.20494938, 0.08868319, -0.38800055, 1.9293453, 3.220278, -0.6037388, 0
841, 1847665407, 0.89341205, 0.20237988, 0.08811185, -0.39135107, 0.6342389, 2.9702528, 0.46376514, 0
843, 1847698741, 0.89164907, 0.19967605, 0.086003564, -0.3971863, 0.6128694, 1.1730765, 2.1665363, 0
844, 1847715408, 0.8907589, 0.1984872, 0.08560642, -0.39985618, 0.5052111, 1.6273202, 1.600029, 0
845, 1847732075, 0.8894765, 0.19799802, 0.08718737, -0.40260273, -0.20356342, 3.7503726, 0.35138607, 0
847, 1847765409, 0.8878467, 0.19620419, 0.08746778, -0.4069932, -0.29127246, 4.7496467, -0.4558525, 0
848, 1847782076, 0.8873592, 0.19542928, 0.086964294, -0.4085343, -0.20734109, 1.8316903, 1.4969387, 0
849, 1847798743, 0.88670015, 0.19562109, 0.08751505, -0.40975377, -0.4125211, 0.29621553, 2.3332863, 0
851, 1847832077, 0.8845034, 0.19822222, 0.09238466, -0.41217571, -0.27105483, 3.2129948, -0.6344652, 0
852, 1847848744, 0.88394105, 0.19921167, 0.093935534, -0.41255403, -0.64958364, 5.3761096, -0.23619175, 0
853, 1847865411, 0.8836203, 0.199603, 0.095525, -0.4126873, -0.26711822, 5.0771713, 0.69527626, 0
856, 1847915412, 0.88227993, 0.20450696, 0.100478314, -0.4119769, -0.61261636, 4.08616, -0.2581787, 0
857, 1847932079, 0.8826432, 0.20528476, 0.09917764, -0.41112626, -0.9501112, 5.9827147, -2.205842, 0
859, 1847965413, 0.8834516, 0.20813958, 0.097969644, -0.40823394, 0.20252666, 3.1371646, 2.5798063, 0
860, 1847982080, 0.883254, 0.21038724, 0.09889748, -0.40728447, -0.79302084, 1.2555084, -1.4583731, 0
861, 1847998747, 0.8828061, 0.21345079, 0.09922622, -0.4065812, 1.1494595, -1.4356316, -0.14976215, 0
863, 1848032081, 0.8848417, 0.21366492, 0.090054736, -0.40417144, -1.3649172, -0.7905039, -3.181458, 0
864, 1848048748, 0.8858724, 0.21362986, 0.08675597, -0.40265095, -1.0026857, -5.51669, 1.6456585, 0
865, 1848065415, 0.88687074, 0.21387346, 0.08313472, -0.40108442, 1.3179069, -9.062881, 1.5711784, 0
867, 1848098749, 0.888103, 0.21372949, 0.07840569, -0.39938325, 2.051926, -5.0958247, 2.5047293, 0
868, 1848115416, 0.88839024, 0.21358608, 0.07745133, -0.3990075, 0.934822, -3.9218414, 0.65066814, 0
871, 1848165417, 0.8875904, 0.21239506, 0.07710486, -0.40148258, -0.00507732, -3.8917115, 5.1274147, 0
872, 1848182084, 0.8872435, 0.2119894, 0.07679015, -0.40252277, -0.1443655, -3.5204153, 0.41603374, 0
874, 1848215418, 0.88696975, 0.2100658, 0.078356236, -0.4038303, 0.28120065, -5.2357564, -0.9597893, 0
875, 1848232085, 0.88751924, 0.20632857, 0.07699061, -0.40481126, -0.019193057, 0.49547446, 5.678714, 0
876, 1848248752, 0.8871913, 0.2058775, 0.0769725, -0.40576234, 0.6001369, -1.1772927, 0.47023773, 0
878, 1848282086, 0.88632286, 0.20437843, 0.07955764, -0.4079137, 2.5911934, -1.9486568, -1.5896568, 0
879, 1848298753, 0.88583946, 0.20145828, 0.08071027, -0.4101836, 0.32863557, -1.75112, -0.48467255, 0
880, 1848315420, 0.8856634, 0.1976108, 0.080585256, -0.41245383, -1.6253846, -0.51930046, 1.0735416, 0
882, 1848348754, 0.8843937, 0.19128457, 0.08146317, -0.41795167, 1.3702719, -2.7079368, -1.3204517, 0
883, 1848365421, 0.88380796, 0.1872078, 0.08191844, -0.42093694, -0.2367457, -1.7496731, 0.37639236, 0
886, 1848415422, 0.88299054, 0.17517288, 0.08411142, -0.42735133, -0.09996505, -1.5156173, 0.18915844, 0
887, 1848432089, 0.883083, 0.17104386, 0.085536316, -0.42854816, -0.55750704, 0.8810815, -1.1359606, 0
888, 1848448756, 0.8835442, 0.16675451, 0.08601393, -0.42919216, -2.250549, 1.8570452, -1.1402807, 0
890, 1848482090, 0.88498604, 0.16105695, 0.08715939, -0.42816493, -2.7505188, -1.2437184, 2.2346334, 0
891, 1848498757, 0.88582045, 0.15965745, 0.08800134, -0.42678964, -2.293252, -0.5231653, 2.1609945, 0
892, 1848515424, 0.88683325, 0.1584973, 0.08831109, -0.42505077, -1.9286021, 2.3484921, -0.34029007, 0
894, 1848548758, 0.88909495, 0.15809223, 0.0895438, -0.42019117, -2.5612993, 1.6251844, -1.2678165, 0
895, 1848565425, 0.89026594, 0.15838695, 0.09097237, -0.41728395, -2.6816354, -1.0643092, 0.17536354, 0
896, 1848582092, 0.89154625, 0.15791175, 0.09133975, -0.41464198, -1.7827781, -0.272416, 3.2349787, 0
898, 1848615426, 0.8936622, 0.15758625, 0.0912886, -0.41019812, -0.16661717, 3.7377732, -0.610342, 0
901, 1848665427, 0.89596975, 0.15806334, 0.091922656, -0.40480408, -0.64332664, 0.65316355, 0.11347866, 0
902, 1848682094, 0.8966552, 0.15784515, 0.09126662, -0.40351775, -1.3354757, 0.79689837, 1.5205126, 0
903, 1848698761, 0.89698184, 0.15854158, 0.09140791, -0.4024853, -0.16229746, 3.2878551, -1.7701969, 0
905, 1848732095, 0.8979876, 0.1596203, 0.09099845, -0.39990088, -0.16825508, 0.8238574, 0.76632977, 0
906, 1848748762, 0.89837956, 0.16050802, 0.09069944, -0.39873132, -0.41637716, 0.2565535, 2.0777054, 0
907, 1848765429, 0.8984918, 0.16217545, 0.091367126, -0.39764997, -0.8814923, -0.65156734, 0.27229023, 0
909, 1848798763, 0.89871883, 0.16578224, 0.09119473, -0.39568418, -0.14960426, 4.7205515, -1.1088095, 0
910, 1848815430, 0.8989495, 0.16736656, 0.08969633, -0.39483526, -0.76317155, 2.7911828, -0.44153976, 0
911, 1848832097, 0.89909863, 0.16925183, 0.08839408, -0.39398462, -1.5732988, -0.7637502, 2.6081467, 0
913, 1848865431, 0.8990501, 0.17198813, 0.08668131, -0.3932902, 0.9167674, -0.75434595, 1.4119759, 0
914, 1848882098, 0.89852977, 0.17368378, 0.08757853, -0.3935353, 1.0866461, 1.769488, -1.2072506, 0
915, 1848898765, 0.8979921, 0.17515318, 0.088813275, -0.39383453, 0.18742779, 1.6960793, -0.45660305, 0
917, 1848932099, 0.8975053, 0.17772098, 0.08880237, -0.39379603, -0.6437192, 1.4238884, 1.2373571, 0
918, 1848948766, 0.8972758, 0.179136, 0.0882689, -0.3937981, -0.27329576, 0.5897865, 1.2407551, 0
919, 1848965433, 0.89683676, 0.18159479, 0.08786194, -0.39376315, 0.16653447, 2.090502, 1.7851, 0
921, 1848998767, 0.89558536, 0.18578425, 0.08916573, -0.3943631, 0.1483289, 4.1314383, -1.9108744, 0
922, 1849015434, 0.8950797, 0.18786454, 0.08917957, -0.39452267, 0.042636663, 3.0033352, 0.3475132, 0
924, 1849048768, 0.8940675, 0.19188865, 0.08945837, -0.39481783, -0.5323626, 0.32964295, 0.98787594, 0
925, 1849065435, 0.8938731, 0.1935678, 0.089083664, -0.39452282, 0.19742809, 4.451177, 2.0021572, 0
928, 1849115436, 0.8929895, 0.20109433, 0.08648529, -0.39333546, 0.21930532, 2.9484375, -0.11378384, 0
929, 1849132103, 0.8927405, 0.20226215, 0.08525541, -0.39357054, 0.47572353, -0.105794385, 3.3208141, 0
930, 1849148770, 0.8924382, 0.20275946, 0.08266268, -0.3945524, 1.6214408, 2.5772667, 4.925597, 0
932, 1849182104, 0.887025, 0.20506902, 0.080178015, -0.4059145, 8.820752, -1.319604, -0.6309681, 0
933, 1849198771, 0.8769899, 0.20335618, 0.07428334, -0.42904413, 12.269068, -6.185276, 2.4467306, 0
934, 1849215438, 0.86458886, 0.19612065, 0.06301353, -0.4583817, -0.30155545, -3.7511928, -5.488145, 0
936, 1849248772, 0.85368603, 0.19235231, 0.04425078, -0.4820004, -6.0558047, 1.1723092, -6.4537354, 0
937, 1849265439, 0.852648, 0.19665147, 0.04189444, -0.4823135, -5.541232, -5.4454165, -7.405597, 0
938, 1849282106, 0.85239565, 0.19966981, 0.047553416, -0.48099276, -0.010087308, -8.693515, -5.2547083, 0
940, 1849315440, 0.85320556, 0.19517793, 0.058250118, -0.48022336, 1.1572683, -8.611991, 2.4184284, 0
942, 1849348774, 0.85339797, 0.19249281, 0.05925999, -0.48084146, 0.79601365, -7.2881365, 3.7976294, 0
944, 1849382108, 0.8534374, 0.18882671, 0.061105058, -0.4819926, 0.30856794, -6.048503, 2.1649199, 0
945, 1849398775, 0.8535012, 0.18797135, 0.06353728, -0.4818995, 2.4600601, -4.3824406, 0.2972374, 0
946, 1849415442, 0.8533575, 0.1877233, 0.06563142, -0.48196998, 3.3289883, -2.430462, -0.5557728, 0
948, 1849448776, 0.8520877, 0.18871434, 0.06961733, -0.48326856, 0.085574955, -2.202648, -0.89866257, 0
949, 1849465443, 0.8513317, 0.18928073, 0.07179578, -0.4840602, -0.3345874, -2.9534743, -0.15995884, 0
951, 1849498777, 0.84937704, 0.19502357, 0.08072522, -0.48380733, -0.86030114, -1.2758442, 0.76913834, 0
952, 1849515444, 0.85015935, 0.19765551, 0.087358885, -0.48019958, -2.3749714, 3.3834202, 0.1130209, 0
953, 1849532111, 0.85514337, 0.20284215, 0.097376324, -0.46708107, 1.2374814, 2.4754481, -1.1847105, 0
955, 1849565445, 0.866846, 0.21497434, 0.12345753, -0.4326474, 0.32733673, 0.7853593, 3.6947975, 0
957, 1849598779, 0.8720943, 0.22592896, 0.154035, -0.40588486, -3.6761105, 4.278504, -0.6904135, 0
959, 1849632113, 0.87430286, 0.23097834, 0.17969519, -0.38731775, -1.3434628, 2.9347472, -1.4794121, 0
960, 1849648780, 0.8754661, 0.23005798, 0.18597403, -0.38224074, -1.522498, 0.20479207, 1.401782, 0
961, 1849665447, 0.8769796, 0.22819063, 0.18720102, -0.37928012, -1.6588662, 2.370726, -1.7089539, 0
963, 1849698781, 0.8777663, 0.22751206, 0.18873271, -0.3771026, -0.52198994, 4.297035, -0.30521584, 0
964, 1849715448, 0.8773265, 0.22891179, 0.18866378, -0.37731338, 0.8704443, 3.1247783, 1.8304157, 0
965, 1849732115, 0.8758507, 0.23362762, 0.18913946, -0.37761322, 2.5447223, 5.5518327, -2.1697187, 0
967, 1849765449, 0.87230456, 0.2543965, 0.19339305, -0.37017336, 4.768684, 4.159667, 0.95700073, 0
968, 1849782116, 0.87240607, 0.26392838, 0.19504067, -0.36231267, 1.6357062, 3.2566328, 0.61020565, 0
969, 1849798783, 0.87306094, 0.26742008, 0.19834734, -0.35633007, -0.07350838, 3.4621832, -1.5197201, 0
972, 1849848784, 0.8756207, 0.27422854, 0.1929988, -0.34770742, -0.2515502, -0.92394423, 2.1253176, 0
973, 1849865451, 0.87571216, 0.2743409, 0.1874743, -0.35040057, 1.1205482, 1.8022624, -0.9990063, 0
975, 1849898785, 0.87611693, 0.270956, 0.18030022, -0.35574648, -0.102553554, -1.7617638, 3.2865725, 0
976, 1849915452, 0.8773316, 0.26678157, 0.17278709, -0.3596155, -3.1968887, 1.6463481, -0.3455944, 0
978, 1849948786, 0.8806883, 0.26033115, 0.1654231, -0.35960096, 4.531125, 0.5223966, -0.60160446, 0
979, 1849965453, 0.8830832, 0.2627655, 0.1609405, -0.35394683, 6.118762, -3.9833035, -1.3285828, 0
980, 1849982120, 0.8837579, 0.2667879, 0.1595536, -0.34985837, -4.63454, -1.5826035, 0.31092167, 0
982, 1850015454, 0.88117945, 0.2887176, 0.15836583, -0.3393335, -1.2026876, 0.22390905, 0.6436157, 0
983, 1850032121, 0.8783988, 0.30275318, 0.15831487, -0.33429724, 3.4140177, -0.99431616, 1.8337021, 0
984, 1850048788, 0.87494373, 0.31870335, 0.15679027, -0.32921183, 4.753628, -2.9306908, 2.780695, 0
986, 1850082122, 0.8717126, 0.3520463, 0.1433323, -0.30935156, 2.1188264, -1.5764691, 3.5425682, 0
987, 1850098789, 0.8755758, 0.35766086, 0.13603745, -0.2949599, -0.9996134, -2.4474044, 4.023877, 0
988, 1850115456, 0.8849989, 0.3498934, 0.13303348, -0.2769755, 1.4809452, -5.7025104, 1.0407772, 0
990, 1850148790, 0.89718604, 0.3133123, 0.10906089, -0.291651, 10.42784, -7.0163493, -0.9211054, 0
991, 1850165457, 0.89677715, 0.29038376, 0.094655015, -0.3202664, 4.1880965, -6.9596863, -4.836622, 0
992, 1850182124, 0.891955, 0.27052855, 0.084083416, -0.35245222, -1.5441568, -5.1145306, -6.2096424, 0
994, 1850215458, 0.87758565, 0.24085051, 0.0905256, -0.40460026, -6.4645514, -0.5227625, -4.9542713, 0
995, 1850232125, 0.8709023, 0.23468623, 0.10110634, -0.41987032, -5.755198, 0.6108551, -1.993444, 0
996, 1850248792, 0.86628115, 0.23255256, 0.10923046, -0.42849386, -6.608083, 2.0990198, 5.3935213, 0
999, 1850298793, 0.8642373, 0.21616118, 0.12122257, -0.43787605, -4.017678, 6.3651223, 0.5345707, 0
1000, 1850315460, 0.86357945, 0.21337774, 0.12307139, -0.440018, -4.7138605, 7.6386704, -0.21885777, 0
1002, 1850348794, 0.86655843, 0.20896374, 0.118979305, -0.4373973, -7.0619445, 8.161104, 3.8083687, 0
1003, 1850365461, 0.87249637, 0.20397162, 0.1092261, -0.43043825, -6.172706, 7.133353, 1.711565, 0
1004, 1850382128, 0.8790548, 0.20010597, 0.096782856, -0.42180014, -2.976121, 4.7931337, -2.4686599, 0
1006, 1850415462, 0.88987255, 0.20394476, 0.06527059, -0.4029078, -3.28611, -1.1885253, -0.6367645, 0
1007, 1850432129, 0.8947463, 0.20705616, 0.049600035, -0.39263013, -2.1489055, -3.1566782, -3.0832653, 0
1009, 1850465463, 0.90237784, 0.21695001, 0.019589853, -0.37192073, -1.1698688, -11.924661, -2.1284833, 0
1010, 1850482130, 0.9049374, 0.22336091, 0.0059499145, -0.3622496, 0.46694025, -18.989187, -6.4867854, 0
1011, 1850498797, 0.9049436, 0.23246847, -4.427135E-5, -0.35650712, 0.13180405, -26.865395, -10.313359, 0
1014, 1850548798, 0.88090146, 0.26899475, 0.058089565, -0.38515186, 0.98276275, -36.983917, -13.5518, 0
1015, 1850565465, 0.8622714, 0.28711382, 0.10506137, -0.40382892, -5.3705235, -36.170074, 0.60410976, 0
1017, 1850598799, 0.82204854, 0.25288063, 0.19563013, -0.4712519, 21.691374, 24.613771, 8.133848, 0
1018, 1850615466, 0.80761224, 0.2615297, 0.23522249, -0.4733888, 11.550426, -13.09275, 11.609594, 0
1019, 1850632133, 0.7926878, 0.2834214, 0.27790132, -0.46276474, 0.40825805, 6.5365963, -0.61189365, 0
1021, 1850665467, 0.7374359, 0.32900047, 0.39069146, -0.4420054, -1.6379048, 7.097041, 2.2880144, 0
1022, 1850682134, 0.6948899, 0.34405723, 0.46430665, -0.42805833, 4.2442956, 9.31619, 9.862244, 0
1023, 1850698801, 0.6421584, 0.3637643, 0.54185945, -0.40219206, 5.125944, 21.010887, 17.096928, 0
1025, 1850732135, 0.49268788, 0.40296072, 0.6875881, -0.34952217, -28.113, 54.639168, 31.933514, 0
1026, 1850748802, 0.44176105, 0.4084474, 0.7403637, -0.29990268, -54.43848, 73.68342, 42.109577, 1024
1029, 1850798803, 0.33991736, 0.47084653, 0.7321487, -0.35606194, -0.10681595, 42.679432, 2.9217024, 0
1030, 1850815470, 0.3091454, 0.46974158, 0.74359065, -0.36181045, 7.0263925, 39.192944, -8.09899, 0
1032, 1850848804, 0.24721545, 0.46290064, 0.7574668, -0.3884754, 10.722698, 17.978401, -29.220066, 0
1033, 1850865471, 0.23085198, 0.45815963, 0.75596905, -0.4066568, 7.8103743, 25.539585, -33.598106, 0
1034, 1850882138, 0.23913926, 0.45070413, 0.74889374, -0.4229638, 7.137238, 18.05628, -28.220509, 0
1036, 1850915472, 0.29320765, 0.430094, 0.7301996, -0.4426273, 3.5921607, 14.695792, -19.415161, 0
1038, 1850948806, 0.38239026, 0.4042911, 0.69028044, -0.46249455, 4.8583326, 6.8178906, -11.603021, 0
1040, 1850982140, 0.4545309, 0.38107425, 0.6279035, -0.5039673, 7.0597544, 4.456648, -5.3429365, 0
1041, 1850998807, 0.48175865, 0.36525103, 0.5938932, -0.53089845, 7.316939, 1.0735546, -3.2306519, 0
1042, 1851015474, 0.50204796, 0.34469128, 0.56156296, -0.56021845, 7.4713817, 3.2011983, -0.24286556, 0
1046, 1851082142, 0.5709197, 0.26753324, 0.42245686, -0.6512058, -5.676446, 2.9461503, 2.0379295, 0
1048, 1851115476, 0.62083614, 0.26977846, 0.3557379, -0.6444336, -0.31651938, -3.845787, 6.2136765, 0
1049, 1851132143, 0.6431271, 0.27357903, 0.32644713, -0.63642466, 0.8724882, -6.183379, 6.756054, 0
1050, 1851148810, 0.6631939, 0.27313167, 0.3023973, -0.6278461, 0.802475, -5.2902384, 7.7150497, 0
1052, 1851182144, 0.7014731, 0.25881103, 0.26051143, -0.61085844, -0.5141911, -3.4817505, 6.4232426, 0
1053, 1851198811, 0.72051907, 0.24893358, 0.23943007, -0.6013478, -0.7248226, -2.8415434, 5.137151, 0
1054, 1851215478, 0.7392998, 0.23839122, 0.21834078, -0.59075767, -1.3664225, -1.9092164, 4.07209, 0
1056, 1851248812, 0.7741993, 0.2148731, 0.18139938, -0.56709886, -2.5804765, -2.4398868, 2.3444242, 0
1057, 1851265479, 0.78982687, 0.20206825, 0.16772056, -0.5543226, -3.78849, -2.565641, 3.6107092, 0
1059, 1851298813, 0.8194191, 0.18094651, 0.13658339, -0.5265145, -2.4467916, -3.6286395, 3.2912102, 0
1060, 1851315480, 0.83221793, 0.17614257, 0.120143875, -0.51187354, -2.3047287, -3.6195114, 2.935542, 0
1061, 1851332147, 0.8437817, 0.17118087, 0.10632761, -0.4974796, -1.7797809, -4.161078, 3.70012, 0
1063, 1851365481, 0.8611611, 0.16086507, 0.08451763, -0.47480765, 0.18670373, -6.49944, 4.8808765, 0
1064, 1851382148, 0.86751485, 0.15576768, 0.07094767, -0.4671003, -0.10332384, -6.9922004, 4.9547987, 0
1065, 1851398815, 0.872419, 0.15033181, 0.057056967, -0.46161866, 0.5577349, -6.017102, 0.32335567, 0
1067, 1851432149, 0.8774321, 0.14416021, 0.036381625, -0.45614582, -1.0648712, -5.6724124, -0.7045908, 0
1068, 1851448816, 0.8786823, 0.14403124, 0.029207977, -0.4542917, -1.6331521, -5.5548997, -1.4023571, 0
1069, 1851465483, 0.87989473, 0.14482082, 0.023781177, -0.45200473, -2.2853677, -6.201798, -0.28893185, 0
1071, 1851498817, 0.88392866, 0.1466148, 0.012623683, -0.44393325, -1.8508976, -6.962633, -1.176116, 0
1073, 1851532151, 0.8883749, 0.15247992, 0.0061918274, -0.43308556, -1.7804575, -7.089178, -4.214265, 0
1075, 1851565485, 0.89534783, 0.16199875, 0.005804412, -0.41489354, -2.5242276, -10.504994, -2.8265176, 0
1076, 1851582152, 0.90043247, 0.16588189, 0.005065635, -0.40216997, -1.3491219, -12.825964, -3.561285, 0
1077, 1851598819, 0.90535307, 0.16939482, 0.0041985177, -0.38946837, -0.19765927, -14.799232, -5.9326935, 0
1079, 1851632153, 0.90925753, 0.18021521, 0.0018714815, -0.37527555, 2.4882536, -22.582531, -10.386957, 0
1080, 1851648820, 0.90628016, 0.1902051, 0.0016626716, -0.37754154, 1.372505, -25.15998, -12.755285, 0
1081, 1851665487, 0.89954174, 0.20317122, 0.0048526525, -0.3867612, -0.31934878, -28.381216, -14.62541, 0
1083, 1851698821, 0.8746507, 0.23821007, 0.039231822, -0.42043394, -8.283003, -35.790188, -9.541261, 0
1084, 1851715488, 0.8572918, 0.26426873, 0.07275322, -0.43586874, -7.2464576, -35.28126, -10.99855, 0
1085, 1851732155, 0.8350351, 0.29578167, 0.119708456, -0.44828713, -3.9044592, -33.620575, -12.292658, 0
1088, 1851782156, 0.8004551, 0.24694395, 0.2172688, -0.50114524, 4.8520985, 8.758452, 1.6281061, 0
1090, 1851815490, 0.7582599, 0.29179835, 0.33624065, -0.47633988, 1.4273461, 5.789764, 4.88943, 0
1091, 1851832157, 0.7206743, 0.3096426, 0.413652, -0.46228117, -0.30050826, 5.360439, 5.0858765, 0
1092, 1851848824, 0.6754645, 0.32464713, 0.48921227, -0.44618973, 2.7345965, 9.14703, 7.164522, 0
1094, 1851882158, 0.55966693, 0.37024522, 0.62813556, -0.39395338, -1.9465046, 27.117226, 11.888594, 0
1095, 1851898825, 0.4863052, 0.38848323, 0.69416714, -0.3616377, -17.674164, 42.05875, 30.022022, 0
1096, 1851915492, 0.42978805, 0.4016971, 0.7437357, -0.31755447, -36.934414, 73.509865, 41.45791, 0
1098, 1851948826, 0.43414563, 0.40803674, 0.7486868, -0.29078045, 14.385772, -13.095812, 5.7406807, 0
1099, 1851965493, 0.37975228, 0.43291247, 0.74647915, -0.3334751, -6.694722, 15.459758, 6.5086308, 0
1100, 1851982160, 0.33625978, 0.44655788, 0.7466463, -0.36068925, -6.1939034, 33.6296, -3.4584699, 0
1103, 1852032161, 0.25087336, 0.4604839, 0.7378497, -0.42503747, 8.99228, 20.247707, -14.006444, 0
1104, 1852048828, 0.23108421, 0.4543199, 0.7304064, -0.4547109, 6.899477, 17.76781, -16.256996, 0
1106, 1852082162, 0.21975625, 0.4197411, 0.72912455, -0.49392697, 2.9853806, 15.008092, -18.859745, 0
1107, 1852098829, 0.2301019, 0.39832294, 0.7312449, -0.50372076, 2.5668414, 12.897157, -18.88654, 0
1108, 1852115496, 0.24866818, 0.37834764, 0.731425, -0.5099968, 1.8213229, 9.832095, -18.15466, 0
1110, 1852148830, 0.29802924, 0.34772933, 0.72084713, -0.5202926, 2.2556238, 6.3008075, -15.574544, 0
1111, 1852165497, 0.32771274, 0.33821416, 0.70637745, -0.5284964, 2.7494705, 5.8367114, -14.278636, 0
1112, 1852182164, 0.3608474, 0.33252466, 0.6848614, -0.53874236, 3.3249326, 6.240345, -12.531745, 0
1114, 1852215498, 0.43318796, 0.32535857, 0.6288384, -0.5577761, 4.271086, 4.1634903, -9.479491, 0
1115, 1852232165, 0.46747792, 0.32165986, 0.59743017, -0.5666908, 5.3466234, 4.434717, -6.0686603, 0
1118, 1852282166, 0.55937237, 0.3004527, 0.49356437, -0.5943794, 4.170321, 8.176823, 3.952734, 0
1119, 1852298833, 0.58642685, 0.2860851, 0.4569498, -0.6045807, 1.1550788, 4.3705373, 5.215412, 0
1121, 1852332167, 0.6334723, 0.26011014, 0.3833268, -0.6198209, -6.9874735, 2.003787, 6.368128, 0
1122, 1852348834, 0.6575873, 0.25404388, 0.3494915, -0.617218, -8.710533, 2.031987, 8.553616, 0
1123, 1852365501, 0.6852479, 0.2517412, 0.31582648, -0.60611635, -8.198934, 2.1932244, 11.086733, 0
1125, 1852398835, 0.7436709, 0.24966295, 0.24595723, -0.5693761, -1.0564867, -5.2805724, 11.5143795, 0
1126, 1852415502, 0.7674963, 0.24583794, 0.21283463, -0.55251837, -0.6857212, -8.247502, 10.2697315, 0
1127, 1852432169, 0.7868159, 0.23821974, 0.18146232, -0.53972733, -0.009724155, -8.7622175, 8.102463, 0
1129, 1852465503, 0.81543744, 0.22399868, 0.1229616, -0.51945025, -0.31848606, -4.9586787, 7.5787945, 0
1130, 1852482170, 0.82823646, 0.21700364, 0.09568196, -0.50778013, -0.14900893, -5.503729, 8.523544, 0
1131, 1852498837, 0.8405259, 0.20842236, 0.070017755, -0.49521267, 0.92665255, -7.159895, 5.387725, 0
1133, 1852532171, 0.85927427, 0.19035868, 0.027652659, -0.47403413, 1.6033863, -8.059834, 2.8254147, 0
1134, 1852548838, 0.8656452, 0.18268213, 0.009888884, -0.46610075, 1.4239832, -8.467656, 1.9749956, 0
1135, 1852565505, 0.8702738, 0.17720036, -0.0044687167, -0.45963615, 1.009142, -8.139347, -0.4247036, 0
1137, 1852598839, 0.87653685, 0.17004605, -0.027167637, -0.44954562, 0.09637566, -11.548631, 2.7807913, 0
1138, 1852615506, 0.8790971, 0.16408238, -0.039264567, -0.44585353, 0.273759, -10.563806, -0.89746094, 0
1140, 1852648840, 0.88246036, 0.15362483, -0.0522744, -0.4415795, -0.69560343, -9.388571, -4.291449, 0
1141, 1852665507, 0.8837713, 0.15045948, -0.05318822, -0.43993548, -1.1258824, -9.175957, -4.5679116, 0
1142, 1852682174, 0.8848616, 0.14991936, -0.051269725, -0.43815255, -1.3549544, -8.488575, -5.1912684, 0
1145, 1852732175, 0.88889146, 0.15883394, -0.04070273, -0.42784232, -1.2377821, -8.284013, -2.438653, 0
1146, 1852748842, 0.8912086, 0.16108233, -0.03712297, -0.4224731, -1.1046284, -7.3848386, -2.7626262, 0
1148, 1852782176, 0.8953068, 0.16235894, -0.02380364, -0.4141988, 0.084544554, -6.311162, -2.5804496, 0
1149, 1852798843, 0.89693105, 0.16477819, -0.01797415, -0.41000226, 0.08018734, -5.9893475, -2.6831107, 0
1150, 1852815510, 0.8986337, 0.16813368, -0.012728509, -0.405078, -0.6640936, -6.1973615, -2.5447335, 0
1152, 1852848844, 0.90360224, 0.17554191, -0.0072504394, -0.390765, 0.5951968, -9.513798, -3.4803352, 0
1153, 1852865511, 0.90636706, 0.18261029, -0.008910663, -0.3809657, 0.7764038, -12.352117, -5.697328, 0
1154, 1852882178, 0.9082291, 0.19164369, -0.009393893, -0.37197602, 1.0128311, -17.315289, -8.1768875, 0
1156, 1852915512, 0.9051578, 0.21376112, -0.004389785, -0.36747533, 4.615805, -30.118116, -15.737071, 0
1157, 1852932179, 0.8950918, 0.2325971, 0.010885157, -0.38033226, 3.5603466, -36.12396, -14.657866, 0
1160, 1852982180, 0.8294718, 0.27717063, 0.1467951, -0.46224022, -25.360872, -32.384914, 15.391943, 0
1161, 1852998847, 0.8224435, 0.2411761, 0.16899008, -0.48674962, 17.825455, -27.271168, 43.592632, 0
1162, 1853015514, 0.8098085, 0.23820898, 0.19079442, -0.5011249, 9.872784, 13.572409, 2.8307648, 0
1164, 1853048848, 0.77563274, 0.27319354, 0.2909122, -0.48907208, -1.2770902, 5.7680583, 1.8868561, 0
1165, 1853065515, 0.7465321, 0.291772, 0.3565014, -0.480133, -0.47468743, 7.452428, 3.6125584, 0
1167, 1853098849, 0.65583366, 0.32250896, 0.50761795, -0.45635086, 5.3603773, 9.185081, 9.386763, 0
1168, 1853115516, 0.5968696, 0.35229662, 0.5707549, -0.44038007, 2.373335, 28.639122, 12.7962, 0
1169, 1853132183, 0.52118844, 0.37808174, 0.64134765, -0.41731516, -6.140027, 29.122723, 15.5050335, 0
1171, 1853165517, 0.45029712, 0.38817865, 0.74220514, -0.30942428, -32.765846, 91.70797, 26.619102, 0
1172, 1853182184, 0.46038595, 0.39350688, 0.7504232, -0.26480973, 2.1021957, -0.8079591, 6.5908604, 0
1175, 1853232185, 0.34367776, 0.46533793, 0.75181836, -0.31650844, 10.048824, 37.13934, -12.4121275, 0
1176, 1853248852, 0.322895, 0.47582906, 0.7383877, -0.35237926, 9.367791, 27.644608, -15.453794, 0
1177, 1853265519, 0.31198362, 0.47632408, 0.7256515, -0.38635924, 6.1622014, 24.854738, -17.003336, 0
1179, 1853298853, 0.32440162, 0.45022768, 0.7132484, -0.42824942, 5.1260104, 13.780425, -17.07948, 0
1180, 1853315520, 0.3404717, 0.42951083, 0.7115017, -0.43980324, 5.877899, 11.898992, -16.287703, 0
1181, 1853332187, 0.3633196, 0.40825623, 0.70712507, -0.44873366, 5.5005646, 12.070851, -15.673742, 0
1183, 1853365521, 0.43154824, 0.36325562, 0.68939877, -0.45453578, 2.9643133, 8.182911, -13.147545, 0
1184, 1853382188, 0.47008622, 0.34444994, 0.67233425, -0.45651045, 2.6538281, 6.279319, -11.359329, 0
1185, 1853398855, 0.50914955, 0.3315702, 0.64715177, -0.46052623, 1.1692816, 5.9848404, -10.175827, 0
1187, 1853432189, 0.5869388, 0.3149444, 0.5818387, -0.4667318, -0.48366013, 5.7914147, -4.639181, 0
1189, 1853465523, 0.66387236, 0.29473966, 0.5053325, -0.46594343, -7.4106774, 4.648789, 0.965868, 0
1191, 1853498857, 0.73287076, 0.2766794, 0.42321315, -0.45530397, -11.1023245, -6.06968, 6.086282, 0
1192, 1853515524, 0.76289856, 0.26977703, 0.3872407, -0.44194204, -12.499093, -10.164224, 6.7007484, 0
1193, 1853532191, 0.79117996, 0.26714748, 0.3560983, -0.41943106, -13.937803, -11.758546, 7.700039, 0
1195, 1853565525, 0.84755117, 0.26639017, 0.3049788, -0.3431371, -8.410984, -14.773536, 6.2227516, 0
1196, 1853582192, 0.8706763, 0.27179486, 0.28273967, -0.29693553, -0.77308506, -14.588, 5.045948, 0
1198, 1853615526, 0.90198326, 0.27627754, 0.24368194, -0.22533992, 10.875744, -10.822373, 2.8482227, 0
1199, 1853632193, 0.91179657, 0.2673357, 0.22656274, -0.21421927, 14.758864, -8.892132, 5.5990086, 0
1200, 1853648860, 0.9209504, 0.25352752, 0.20580015, -0.21279663, 3.9526725, -8.047221, 4.24557, 0
1202, 1853682194, 0.9336947, 0.22151178, 0.17432152, -0.22095418, 0.30412677, -9.949714, -3.594952, 0
1203, 1853698861, 0.93672574, 0.20774828, 0.1697783, -0.22499526, -1.1842462, -10.2419815, -7.7155123, 0
1204, 1853715528, 0.936804, 0.19566911, 0.1794014, -0.22801092, 0.064513475, -10.481421, -9.211491, 0
1206, 1853748862, 0.932455, 0.17277505, 0.19786194, -0.24817163, 18.783003, -14.707862, 0.7959213, 0
1207, 1853765529, 0.9293407, 0.17456965, 0.19283906, -0.26215726, 0.23320314, -5.4150033, 2.5645018, 0
1208, 1853782196, 0.92869425, 0.1748401, 0.18950857, -0.2666576, -1.9920903, -2.1288803, -0.029718399, 0
1210, 1853815530, 0.92934895, 0.18550006, 0.18572047, -0.2597504, 0.746314, -2.9341457, 0.24103642, 0
1211, 1853832197, 0.9283325, 0.1910757, 0.18411803, -0.26048282, -0.42533633, -0.58910006, -0.58562756, 0
1212, 1853848864, 0.9262469, 0.19658642, 0.18498915, -0.2631763, -4.7017136, -0.808789, -0.8019142, 0
1214, 1853882198, 0.92222726, 0.20736708, 0.1871863, -0.26743054, 0.8917797, 0.59497917, 3.2870226, 0
1216, 1853915532, 0.92141074, 0.20445377, 0.18927586, -0.27099356, 0.71089536, 0.12915473, 2.7944908, 0
1218, 1853948866, 0.9208953, 0.20588961, 0.1893363, -0.2716158, -1.2608254, 2.0375428, 0.54010963, 0
1219, 1853965533, 0.9214986, 0.20751467, 0.1876412, -0.26950112, 0.4509402, 1.843801, 3.8632927, 0
1221, 1853998867, 0.92245746, 0.20866823, 0.18129146, -0.269676, 0.2390072, 3.9979627, 0.5353823, 0
1222, 1854015534, 0.9228077, 0.2105836, 0.17734458, -0.26961365, 0.2843771, 3.3092644, -0.36148834, 0
1223, 1854032201, 0.922702, 0.2110981, 0.17324202, -0.2722277, 1.6482891, 2.1305227, 0.45279408, 0
1225, 1854065535, 0.9208933, 0.21040186, 0.16348207, -0.28464383, -0.64255226, 1.0143691, 0.42975712, 0
1226, 1854082202, 0.9184384, 0.2115263, 0.1604682, -0.29332492, 0.47693017, 5.577519, -3.249444, 0
1227, 1854098869, 0.91502094, 0.21373284, 0.15951726, -0.30277216, 0.5657359, 1.0725898, 1.4391594, 0
1229, 1854132203, 0.90878224, 0.21884097, 0.15846631, -0.3180782, 0.33036423, 0.55181026, 1.6084957, 0
1231, 1854165537, 0.90678763, 0.21805912, 0.1529226, -0.32689923, 1.1557466, 3.1478655, -1.3181686, 0
1233, 1854198871, 0.903707, 0.21708873, 0.14871079, -0.3378357, -1.0398008, -0.6175784, 2.7339354, 0
1234, 1854215538, 0.9041406, 0.21116431, 0.14169604, -0.34339985, -1.3133775, 2.6544993, 3.5718164, 0
1235, 1854232205, 0.90424, 0.20525976, 0.13511044, -0.3493215, 0.7075793, 7.1538815, 0.011045456, 0
1237, 1854265539, 0.90359795, 0.19598621, 0.12695524, -0.35922766, -0.23424828, -0.9017035, 0.13776112, 0
1238, 1854282206, 0.90395343, 0.19228703, 0.1244012, -0.36122048, 2.0791466, 1.2473451, 1.2384357, 0
1239, 1854298873, 0.90336764, 0.18924363, 0.12481089, -0.36414012, 1.5813295, 1.6273763, 0.6097183, 0
1241, 1854332207, 0.89997375, 0.18668793, 0.12866375, -0.37242794, 0.5630622, 3.3401217, 0.11763859, 0
1242, 1854348874, 0.8963009, 0.1870352, 0.12969787, -0.38066146, 2.5584803, 2.0714648, 0.19752407, 0
1243, 1854365541, 0.8896768, 0.1902776, 0.12570085, -0.39563978, 1.9776429, 4.4010024, -1.3769951, 0
1246, 1854415542, 0.8758658, 0.19685319, 0.101313636, -0.42884216, 7.563301, -12.125257, -1.1682787, 0
1248, 1854448876, 0.88047135, 0.19536752, 0.091301866, -0.42228866, -7.358101, -4.232918, -0.37517262, 0
1249, 1854465543, 0.8821449, 0.19849893, 0.08892211, -0.41781977, -2.2131126, -3.9180412, -3.5852852, 0
1250, 1854482210, 0.88237447, 0.20128931, 0.08862469, -0.41605955, 1.4070874, -4.345406, -4.4614034, 0
1252, 1854515544, 0.88230693, 0.19810326, 0.08608741, -0.41825876, -1.1209548, -0.82835394, 7.467787, 0
1253, 1854532211, 0.88227886, 0.19730192, 0.08588261, -0.41873887, 1.7584325, -4.948617, 5.340337, 0
1254, 1854548878, 0.88239515, 0.19523579, 0.08583975, -0.4194704, 1.9294387, -6.3780227, 3.4023123, 0
1256, 1854582212, 0.88342655, 0.18769878, 0.085255265, -0.4208568, -3.0879717, -2.6869268, 1.133523, 0
1257, 1854598879, 0.88426244, 0.18649675, 0.08585184, -0.4195122, -0.5114175, -0.56327146, -3.7687297, 0
1258, 1854615546, 0.8850182, 0.18659143, 0.08636781, -0.41776678, 1.8081589, -4.2162986, -0.66078377, 0
1261, 1854665547, 0.8855996, 0.18698089, 0.08916064, -0.41576925, -1.8860891, -2.5385811, 0.610096, 0
1262, 1854682214, 0.88574123, 0.18645559, 0.089917116, -0.41554016, 1.1086977, 0.20036705, 1.7091589, 0
1264, 1854715548, 0.88537955, 0.18395102, 0.09182727, -0.417007, 0.4355341, -0.82066226, -1.7093277, 0
1265, 1854732215, 0.8853451, 0.18161619, 0.0920949, -0.4180434, 0.22387047, -0.36089033, 0.667326, 0
1266, 1854748882, 0.8853098, 0.17891636, 0.09173445, -0.4193595, 0.36471123, -0.8398924, 2.1559362, 0
1268, 1854782216, 0.8841072, 0.17605571, 0.09274713, -0.42286977, 1.1142427, 0.022569263, -0.32531643, 0
1269, 1854798883, 0.8836153, 0.17458966, 0.09303587, -0.42443964, 0.6282458, 0.70985466, -0.083826065, 0
1270, 1854815550, 0.88339484, 0.17266873, 0.092714444, -0.42575234, 0.3994628, 3.020034, 0.045049667, 0
1272, 1854848884, 0.8829, 0.16979107, 0.09319221, -0.42782673, -0.6328766, -1.0796212, 0.6878586, 0
1273, 1854865551, 0.8829951, 0.16758046, 0.09305988, -0.42853037, -1.1721563, 1.0730537, 1.4919958, 0
1275, 1854898885, 0.88314617, 0.16487452, 0.0936499, -0.42914, -1.0508869, 2.3436446, -0.5005617, 0
1276, 1854915552, 0.88345325, 0.16331759, 0.09372487, -0.42908677, -1.3869628, 2.7125447, -0.07248402, 0
1277, 1854932219, 0.8839659, 0.16236179, 0.09319337, -0.42850888, -2.5610478, 1.6376171, 0.9620838, 0
1279, 1854965553, 0.8855572, 0.16093977, 0.09241933, -0.42591965, -2.7627788, -0.20429388, 2.23213, 0
1280, 1854982220, 0.88651085, 0.16051155, 0.09199463, -0.424186, -2.2768366, 2.031092, -0.7472124, 0
1281, 1854998887, 0.88721657, 0.16189104, 0.09264623, -0.42203888, -1.9302331, -0.2889301, -0.111907005, 0
1283, 1855032221, 0.88959795, 0.1626923, 0.09171635, -0.41688964, -2.8359637, 3.863397, -0.5507164, 0
1284, 1855048888, 0.89061767, 0.16417034, 0.09221831, -0.41401196, -3.0466108, 0.9586117, 0.245965, 0
1285, 1855065555, 0.8918482, 0.16490218, 0.09136745, -0.4112517, -1.512606, 0.1718066, 2.015973, 0
1288, 1855115556, 0.8940114, 0.16960832, 0.09031056, -0.4048243, 0.48173568, 0.47763255, 0.08599377, 0
1289, 1855132223, 0.8943963, 0.17238803, 0.0901676, -0.4028271, 0.47458977, 1.3735873, 0.20109081, 0
1291, 1855165557, 0.8944825, 0.17802955, 0.09022532, -0.40015972, 0.5351421, 0.36043143, 1.3068132, 0
1292, 1855182224, 0.8945209, 0.17982253, 0.09007174, -0.3993059, -0.16991343, 2.9371555, 1.1145525, 0
1293, 1855198891, 0.89434004, 0.18189625, 0.090582415, -0.3986558, 0.72866184, 3.4766278, -2.1920466, 0
1295, 1855232225, 0.8937034, 0.18547755, 0.09018484, -0.39852342, 0.70145464, 1.3646125, 1.4051447, 0
1296, 1855248892, 0.89341867, 0.18663447, 0.08919979, -0.39884362, 0.0643353, 0.8542833, 2.2844172, 0
1297, 1855265559, 0.89279807, 0.18907453, 0.08868286, -0.3991992, 1.2531657, 0.78748804, 3.277979, 0
1299, 1855298893, 0.8904977, 0.19427471, 0.089482315, -0.40165427, 1.8674486, 5.4439545, -1.0705814, 0
1300, 1855315560, 0.88809705, 0.19829702, 0.093368195, -0.40411174, 0.8245879, 2.3935382, -4.7754087, 0
1303, 1855365561, 0.8850984, 0.19711941, 0.092676066, -0.41136104, 0.7410981, 7.150587, 1.7649736, 0
1304, 1855382228, 0.88394135, 0.1965069, 0.093127206, -0.41403157, 1.8910894, 5.194117, -1.1329794, 0
1306, 1855415562, 0.8816894, 0.19392733, 0.09417389, -0.41977283, 3.063422, 1.6570263, 2.1612005, 0
1307, 1855432229, 0.88082886, 0.19227077, 0.09365845, -0.42244837, 1.4085124, 5.3004694, 2.9049482, 0
1308, 1855448896, 0.87973315, 0.19167002, 0.09409184, -0.42490095, 1.7828046, 4.881035, 2.145256, 0
1310, 1855482230, 0.8764783, 0.19421725, 0.097193055, -0.4297452, 2.656617, 1.7116414, -0.93263435, 0
1311, 1855498897, 0.8745949, 0.19653548, 0.09858123, -0.43220514, 0.8671093, -0.10015972, -1.822813, 0
1312, 1855515564, 0.8729737, 0.19995666, 0.09789997, -0.4340642, 0.8186207, -0.07746263, -2.4869032, 0
1314, 1855548898, 0.8730726, 0.20588756, 0.091654785, -0.43245363, -1.1180774, -9.435107, -1.8676238, 0
1315, 1855565565, 0.87441474, 0.20797554, 0.08716591, -0.42966196, -4.964446, -8.722418, 1.6153946, 0
1318, 1855615566, 0.87896156, 0.22086656, 0.07749013, -0.41557416, -0.2189001, -5.5721874, -0.17944813, 0
1319, 1855632233, 0.87992287, 0.22266145, 0.07541232, -0.41295627, 0.7937356, -2.3575406, 5.7026205, 0
1320, 1855648900, 0.8803072, 0.2249582, 0.07536282, -0.41089582, 1.5932356, -4.7625647, 7.6457253, 0
1322, 1855682234, 0.8807595, 0.2255653, 0.07569656, -0.40953046, 1.0619103, -1.8732594, 0.78351974, 0
1323, 1855698901, 0.88073695, 0.22293356, 0.07493888, -0.4111559, 0.40209365, 1.4743015, -1.3449564, 0
1324, 1855715568, 0.88061357, 0.21972741, 0.07452303, -0.41321644, 1.3225907, -0.8407658, -1.614583, 0
1326, 1855748902, 0.880461, 0.21180959, 0.075296916, -0.41751385, 5.643589, -5.0397906, 3.3928738, 0
1327, 1855765569, 0.8799706, 0.20775701, 0.075588524, -0.4205202, 2.6219568, -2.8219116, 2.431857, 0
1329, 1855798903, 0.87881947, 0.20327893, 0.07678137, -0.42487726, -0.015645012, -0.8262189, -1.3269119, 0
1330, 1855815570, 0.8782878, 0.20156485, 0.0775042, -0.42665812, -0.8289859, -2.8475437, -3.7765765, 0
1333, 1855865571, 0.87734014, 0.19025372, 0.07860061, -0.43354553, -0.8046439, 3.2623792, 4.564516, 0
1334, 1855882238, 0.87650824, 0.18845543, 0.08060468, -0.43564057, 0.60936624, 0.27958864, -2.4177027, 0
1335, 1855898905, 0.87603843, 0.18548441, 0.08205882, -0.43758503, 0.9633758, -2.1265209, -3.7931361, 0
1337, 1855932239, 0.87527645, 0.17792378, 0.08356933, -0.44194156, -0.88467354, 0.6956495, 1.9517422, 0
1338, 1855948906, 0.87512994, 0.17470047, 0.08430064, -0.4433766, -0.98815066, 2.9220228, 0.1520567, 0
1339, 1855965573, 0.8752831, 0.17194737, 0.08424287, -0.44416085, -0.9783924, -0.29843277, 0.60882473, 0
1341, 1855998907, 0.87584734, 0.16608714, 0.08490446, -0.4451515, -1.0955342, -0.6410389, 0.03638935, 0
1342, 1856015574, 0.87632984, 0.16338654, 0.08561976, -0.44506437, -3.283222, -1.1402975, 2.0252676, 0
1343, 1856032241, 0.8773637, 0.15885307, 0.08476835, -0.44483143, -1.785392, 2.3997705, 2.1456585, 0
1345, 1856065575, 0.8789865, 0.15451531, 0.08526014, -0.44305843, -1.6289009, 0.27702647, -1.4119844, 0
1346, 1856082242, 0.88002074, 0.15202403, 0.085066214, -0.44190264, -2.1908405, 0.37347382, 2.4993896, 0
1347, 1856098909, 0.8808577, 0.15106386, 0.08569489, -0.4404406, -3.3826869, -2.4908204, 1.5074205, 0
1349, 1856132243, 0.88266873, 0.14990292, 0.0865914, -0.4370229, -0.5362906, 4.234204, -0.6677456, 0
1350, 1856148910, 0.88337696, 0.14994907, 0.08751244, -0.43538928, -1.3645054, 2.2855775, -2.2151284, 0
1351, 1856165577, 0.88414174, 0.15037456, 0.08864643, -0.4334567, -2.0827587, 0.10948312, -0.8460455, 0
1353, 1856198911, 0.8861226, 0.14917798, 0.088373266, -0.42986634, -1.2882458, 1.0647417, 1.5756826, 0
1354, 1856215578, 0.8868244, 0.14942658, 0.08848938, -0.42830592, -0.35045478, 2.1019838, 0.37884903, 0
1356, 1856248912, 0.88796484, 0.15136313, 0.08945873, -0.42504913, -1.150441, 0.66459376, -0.63032436, 0
1357, 1856265579, 0.8882334, 0.15341996, 0.09052244, -0.4235226, -0.570603, 0.6307411, 0.576993, 0
1360, 1856315580, 0.8893801, 0.15779051, 0.090952024, -0.4193984, -1.2307035, 2.1144795, 0.9510336, 0
1361, 1856332247, 0.88973397, 0.15961652, 0.09075827, -0.41799647, 0.5775906, 0.9037676, 1.7195368, 0
1362, 1856348914, 0.8899039, 0.16183655, 0.09061146, -0.4168112, 0.94231445, 1.0602404, 1.5502472, 0
1364, 1856382248, 0.8893461, 0.16936322, 0.092079155, -0.41468427, 0.41244286, 2.0498016, -1.6895819, 0
1365, 1856398915, 0.88940036, 0.17175485, 0.090993635, -0.41382298, -4.2378056E-4, 0.9358346, 3.6092682, 0
1366, 1856415582, 0.889266, 0.1742984, 0.090619326, -0.41312975, -0.13505872, 4.9659576, -0.5398998, 0
1368, 1856448916, 0.8881408, 0.17883562, 0.09102509, -0.41352198, 1.3264195, 3.9673884, -0.52676296, 0
1369, 1856465583, 0.8870611, 0.18127255, 0.092797615, -0.4143833, 1.0761309, 1.4152285, -0.8442631, 0
1370, 1856482250, 0.8864671, 0.18265265, 0.09261256, -0.41508925, 0.64519453, 3.2076395, 0.09962368, 0
1372, 1856515584, 0.8850925, 0.18485431, 0.09202999, -0.4171725, 0.6181376, 4.3362365, -0.79917336, 0
1374, 1856548918, 0.8833115, 0.18668088, 0.09220064, -0.4200856, 1.8095659, 5.089807, -0.34836483, 0
1376, 1856582252, 0.8818774, 0.18713184, 0.091240525, -0.42309722, 1.3400073, 2.665543, 4.5879154, 0
1377, 1856598919, 0.88108504, 0.18741776, 0.091262326, -0.42461377, 1.9145312, 3.6507626, 2.3852968, 0
1378, 1856615586, 0.8798734, 0.18878406, 0.09268213, -0.42621058, 1.7466595, 1.6414465, 1.8223295, 0
1380, 1856648920, 0.87761307, 0.19189134, 0.094977506, -0.42896903, -0.38749602, 1.720443, -3.2964215, 0
1381, 1856665587, 0.8767764, 0.19368394, 0.094753094, -0.42992276, 0.24012232, -0.14453007, -2.546225, 0
1383, 1856698921, 0.87758267, 0.19481722, 0.085820995, -0.42964157, -1.2639966, -4.124008, -3.1927428, 0
1384, 1856715588, 0.87802035, 0.19656932, 0.08371711, -0.42836222, -1.6061635, -12.966522, 2.001546, 0
1385, 1856732255, 0.8798285, 0.19618247, 0.07918848, -0.42568251, -1.1573969, -10.10609, 1.738409, 0
1387, 1856765589, 0.8820828, 0.19769962, 0.07477076, -0.42108926, -0.9654428, -5.9116893, -1.8115797, 0
1389, 1856798923, 0.8828218, 0.1984065, 0.07240348, -0.41961908, -0.18357633, -7.0349054, 4.9372864, 0
1391, 1856832257, 0.882601, 0.19686562, 0.07297111, -0.4207097, 2.1777925, -6.962535, 4.078018, 0
1392, 1856848924, 0.8826467, 0.19456376, 0.07354513, -0.4215837, 2.3010557, -4.7263713, -0.93391323, 0
1393, 1856865591, 0.88263214, 0.19322923, 0.07171488, -0.42254233, 3.8821356, -2.497044, -0.032125473, 0
1395, 1856898925, 0.8775631, 0.1994995, 0.06268413, -0.43152723, 0.70080096, -6.0037184, 0.9661541, 0
1396, 1856915592, 0.87420547, 0.20230216, 0.057833888, -0.437671, 1.6826978, -2.5800433, -0.81234074, 0
1397, 1856932259, 0.87146187, 0.20300469, 0.05584582, -0.44304222, -7.1218596, -0.7301894, -1.1511507, 0
1399, 1856965593, 0.86921716, 0.20125887, 0.0595713, -0.44773823, -7.3972487, 1.5732802, -2.9935827, 0
1400, 1856982260, 0.8703658, 0.19834228, 0.06592105, -0.44591507, -4.731256, -0.3591674, -0.9756708, 0
1401, 1856998927, 0.87164146, 0.19492023, 0.07149993, -0.44406876, -0.067957886, -1.5887492, 1.1655359, 0
1404, 1857048928, 0.87224424, 0.19350214, 0.0782472, -0.44236463, 1.3647677, 2.8865454, -0.22795773, 0
1405, 1857065595, 0.8718568, 0.1955219, 0.07910309, -0.4420879, 1.1093371, 3.4326687, -2.9580708, 0
1407, 1857098929, 0.8695651, 0.20424154, 0.08401569, -0.44175258, -0.74515456, 3.3053713, 0.8018007, 0
1408, 1857115596, 0.8672445, 0.21150874, 0.08880134, -0.44195858, 0.3781798, 0.9689013, 1.2760553, 0
1409, 1857132263, 0.86562526, 0.21885367, 0.09549213, -0.44015834, 3.143671, 4.197123, -0.7529516, 0
1411, 1857165597, 0.8664706, 0.23416129, 0.12060344, -0.42416286, 12.273552, 6.3130302, 0.3713684, 0
1412, 1857182264, 0.866376, 0.24970587, 0.1363502, -0.41050014, -7.9930468, 1.5694197, 5.088686, 0
1414, 1857215598, 0.8773848, 0.2626219, 0.17299628, -0.3624361, 3.9902918, 3.9398615, 0.22698689, 0
1415, 1857232265, 0.88368714, 0.2629292, 0.19331631, -0.33564264, 3.6527834, 7.2256465, -4.520197, 0
1416, 1857248932, 0.89166164, 0.2612372, 0.20872733, -0.30526912, 0.6029899, -3.3828452, 0.1610508, 0
1418, 1857282266, 0.91114414, 0.2516921, 0.21577954, -0.24488497, 3.6985695, -4.4641147, 1.7858868, 0
1419, 1857298933, 0.9178611, 0.24684319, 0.20902592, -0.23015141, -0.52497625, -0.6653958, -2.7416868, 0
1420, 1857315600, 0.9196281, 0.24644755, 0.19983222, -0.23168272, -5.529642, 2.9096851, -2.4067445, 0
1422, 1857348934, 0.91946286, 0.24067639, 0.1837894, -0.25089154, 2.0175872, -1.0318117, 2.0700197, 0
1423, 1857365601, 0.919532, 0.23531516, 0.17814624, -0.2596413, 5.50737, -0.5694373, 0.41534615, 0
1424, 1857382268, 0.91970736, 0.23270118, 0.174174, -0.2640341, 2.0956056, 2.2005832, 0.5650854, 0
1426, 1857415602, 0.9185865, 0.23600851, 0.17047817, -0.26739106, -0.6257367, 2.2568564, 0.3097191, 0
1427, 1857432269, 0.9166291, 0.23843686, 0.17274526, -0.2704813, -2.3565798, 1.1101503, -1.9896216, 0
1428, 1857448936, 0.9150071, 0.24004129, 0.17316373, -0.27425945, -1.8659649, -0.035519842, 3.8407555, 0
1431, 1857498937, 0.9136206, 0.22702181, 0.16368595, -0.29500392, 0.45981947, 3.546824, 0.25039768, 0
1432, 1857515604, 0.91359276, 0.22283138, 0.16104688, -0.29970032, 0.22821087, -1.5165721, -2.4116068, 0
1434, 1857548938, 0.9158535, 0.221445, 0.15970054, -0.2945035, 3.4708147, -1.9353133, 2.1305933, 0
1435, 1857565605, 0.9175942, 0.2235464, 0.15619351, -0.28933293, -0.9282097, 3.7367117, 1.3197012, 0
1437, 1857598939, 0.9180553, 0.23653303, 0.15596081, -0.2774255, -4.200092, -2.5666444, -0.82338333, 0
1438, 1857615606, 0.9185242, 0.24289127, 0.15502523, -0.27082512, 0.45776907, -4.2937293, 4.9426813, 0
1439, 1857632273, 0.9194841, 0.24942045, 0.15121987, -0.26369098, -1.6402879, -1.9863771, 1.7924452, 0
1441, 1857665607, 0.9213, 0.2604504, 0.14520742, -0.249697, -0.90827775, -1.8316758, 0.7329674, 0
1442, 1857682274, 0.9219541, 0.26653385, 0.13997087, -0.24378398, 1.2682904, -2.008462, 1.4365177, 0
1443, 1857698941, 0.9220069, 0.27588725, 0.13025008, -0.2385087, 1.8760549, -2.2413523, 1.2853069, 0
1446, 1857748942, 0.9221388, 0.29110566, 0.09697403, -0.23574471, 9.980263, -1.1667815, -4.721962, 0
1447, 1857765609, 0.91965973, 0.28028172, 0.08473597, -0.26182047, 20.971447, -4.4490495, 7.8855762, 0
1449, 1857798943, 0.9043919, 0.24779153, 0.057881568, -0.34261683, 2.234566, -5.210979, -0.68139744, 0
1450, 1857815610, 0.89390194, 0.22762598, 0.05597376, -0.38217077, -4.7593236, -2.087821, -3.67483, 0
1451, 1857832277, 0.8841746, 0.20640878, 0.065371946, -0.41402802, -5.1930814, -0.31721342, -3.0056028, 0
1453, 1857865611, 0.8701497, 0.18402803, 0.08695562, -0.44885844, -2.2750764, 0.9922014, 3.1509914, 0
1454, 1857882278, 0.8675438, 0.18042311, 0.09023437, -0.45468098, -2.4773443, 3.175046, -0.14482307, 0
1455, 1857898945, 0.86614037, 0.17763676, 0.09413238, -0.45765403, -0.8160808, 3.4257727, -0.8717556, 0
1457, 1857932279, 0.864954, 0.17458804, 0.0985296, -0.4601383, -2.59639, 4.2032576, 0.9951792, 0
1458, 1857948946, 0.86609644, 0.17287455, 0.09864944, -0.45860827, -5.284908, 5.1981354, 1.4037561, 0
1461, 1857998947, 0.8813919, 0.16550264, 0.08104701, -0.43502912, -3.5154862, 2.1752539, -3.1711202, 0
1462, 1858015614, 0.8864707, 0.17068283, 0.070264764, -0.424455, -3.431765, -1.476874, -4.1970453, 0
1464, 1858048948, 0.89116526, 0.19610782, 0.0502859, -0.40607825, -3.200626, -13.273882, -5.275166, 0
1465, 1858065615, 0.8921822, 0.20949505, 0.04119195, -0.39810538, -4.80128, -21.587479, -2.9015517, 0
1466, 1858082282, 0.8916895, 0.21977666, 0.03755033, -0.39400488, -0.6856868, -28.194218, -13.444098, 0
1468, 1858115616, 0.8739187, 0.24554524, 0.066070914, -0.4143308, -2.8776286, -40.25737, -8.715306, 0
1469, 1858132283, 0.8559133, 0.25955576, 0.09567627, -0.43697956, -0.43715274, -37.684082, -10.449161, 0
1470, 1858148950, 0.8319168, 0.27346414, 0.13768521, -0.46285698, 0.88604784, -25.89129, -21.174149, 0
1472, 1858182284, 0.7892629, 0.24867249, 0.21539389, -0.51854956, 25.180822, 29.601503, 10.788795, 0
1473, 1858198951, 0.7743325, 0.25559795, 0.2596603, -0.5174141, 11.454669, -10.945977, 11.304689, 0
1476, 1858248952, 0.6951487, 0.31033874, 0.43825346, -0.4779687, 0.71559817, 10.204253, 8.9586525, 0
1477, 1858265619, 0.6440872, 0.3277088, 0.5164529, -0.45945317, 4.6308665, 20.776045, 17.681454, 0
1478, 1858282286, 0.57733417, 0.35406193, 0.5878956, -0.4424547, -4.970019, 35.212914, 19.840147, 0
1480, 1858315620, 0.41152072, 0.39638615, 0.71838826, -0.39687407, -53.341213, 93.08734, 33.437332, 0
1481, 1858332287, 0.42500684, 0.4124568, 0.71104044, -0.37912014, -20.595907, 24.404764, -1.2327442, 0
1482, 1858348954, 0.37759173, 0.4441433, 0.70832705, -0.39811555, 6.5016794, -6.9544945, 0.6100435, 0
1484, 1858382288, 0.28857684, 0.4843945, 0.6972526, -0.4427035, 12.609692, 36.408184, -9.525222, 0
1485, 1858398955, 0.26185057, 0.48825222, 0.69243056, -0.46221852, 14.994173, 20.720484, -11.856492, 0
1486, 1858415622, 0.2394069, 0.48757184, 0.68887115, -0.48007992, 10.097185, 23.585964, -21.135403, 0
1488, 1858448956, 0.24962786, 0.4715389, 0.681258, -0.50128484, 12.365247, 17.4409, -18.638634, 0
1489, 1858465623, 0.2703986, 0.45831594, 0.6717857, -0.515361, 9.508088, 9.306146, -16.54232, 0
1490, 1858482290, 0.29277244, 0.44249073, 0.6611742, -0.53046864, 7.3066826, 7.7982187, -15.094727, 0
1492, 1858515624, 0.3495067, 0.4045554, 0.6342497, -0.55854213, 5.1753144, 7.7915688, -12.000873, 0
1493, 1858532291, 0.3831929, 0.3850293, 0.6154001, -0.5711921, 5.0371614, 6.449702, -9.759003, 0
1495, 1858565625, 0.44673395, 0.35115862, 0.5631236, -0.60005856, 6.0251346, 2.9709668, -5.0765386, 0
1496, 1858582292, 0.47435945, 0.33585542, 0.52980435, -0.61770016, 5.173981, 2.24129, -3.344314, 0
1497, 1858598959, 0.49921453, 0.32053554, 0.49622458, -0.6339282, 3.4602873, 2.9273005, -0.99913025, 0
1499, 1858632293, 0.54597497, 0.2879938, 0.43088487, -0.6583093, -0.8135094, 3.2013345, 5.00877, 0
1500, 1858648960, 0.5717201, 0.27201188, 0.3992272, -0.66319335, -3.5586026, 3.0658727, 5.0287876, 0
1503, 1858698961, 0.65161, 0.25330937, 0.31273955, -0.6430354, -3.7247148, -3.1183143, 6.900526, 0
1504, 1858715628, 0.67689496, 0.2473943, 0.29124007, -0.6291665, -5.8817396, -2.1862912, 8.23959, 0
1505, 1858732295, 0.70327485, 0.23804082, 0.27235085, -0.61206865, -6.6781826, -1.7013109, 6.958151, 0
1507, 1858765629, 0.7564403, 0.21930748, 0.23720026, -0.5687709, -5.299643, -1.0313843, 4.2439337, 0
1508, 1858782296, 0.78163946, 0.21161743, 0.21993753, -0.54401034, -4.617032, -0.5393059, 4.796687, 0
1509, 1858798963, 0.8051232, 0.20286894, 0.2044546, -0.51853746, -3.526312, -1.103228, 4.3120947, 0
1511, 1858832297, 0.8436364, 0.1823786, 0.17770061, -0.472758, -2.2321508, -2.636054, 7.3540516, 0
1512, 1858848964, 0.8584633, 0.17238696, 0.16077796, -0.45556065, -0.2904421, -4.2658567, 6.6942673, 0
1513, 1858865631, 0.8695144, 0.16529828, 0.1412283, -0.4435512, 0.45518348, -5.0824437, 4.1325607, 0
1515, 1858898965, 0.8802474, 0.15720785, 0.104325004, -0.43546343, 1.8212966, -5.5704803, 0.21871376, 0
1517, 1858932299, 0.87931824, 0.15625812, 0.077307075, -0.4432475, -1.3742185, -6.1567116, 2.122943, 0
1519, 1858965633, 0.8774348, 0.1494081, 0.048775442, -0.45328614, -2.1547592, -6.552157, 2.209447, 0
1520, 1858982300, 0.87770313, 0.14805184, 0.032869298, -0.454642, -1.5594397, -4.3340936, -2.6345015, 0
1522, 1859015634, 0.8804448, 0.14474842, 0.01327857, -0.45138687, -2.4136047, -4.6833186, 0.2861309, 0
1523, 1859032301, 0.88288784, 0.14337751, 0.006118186, -0.4471872, -1.8004969, -4.7976384, -1.1195221, 0
1524, 1859048968, 0.8853805, 0.14411077, -7.835403E-5, -0.4420354, -1.7325307, -5.918263, -1.248908, 0
1526, 1859082302, 0.8914827, 0.14556167, -0.014685288, -0.4288552, -0.061741654, -8.119429, -1.4218283, 0
1527, 1859098969, 0.89486825, 0.14660294, -0.022549774, -0.4210365, 0.6807499, -8.97322, -3.2292767, 0
1528, 1859115636, 0.89808524, 0.1476702, -0.028954335, -0.41335213, 0.52466655, -10.731731, -4.866633, 0
1530, 1859148970, 0.9042455, 0.15110537, -0.03839966, -0.39761117, -0.23410563, -15.841482, -7.965306, 0
1532, 1859182304, 0.9110838, 0.15935618, -0.04581058, -0.3774852, 0.76800644, -18.488739, -11.850256, 0
1534, 1859215638, 0.91445804, 0.17559409, -0.04112927, -0.3623583, 2.526144, -19.882689, -14.253304, 0
1535, 1859232305, 0.9122681, 0.18770376, -0.03297887, -0.362641, 2.6561399, -22.061905, -11.166349, 0
1536, 1859248972, 0.9069477, 0.20363086, -0.024488457, -0.3680255, 1.8734623, -23.619812, -9.270723, 0
1538, 1859282306, 0.8866761, 0.23970956, 0.008267231, -0.39539632, -3.2649722, -24.20406, -8.799065, 0
1539, 1859298973, 0.87156963, 0.26127964, 0.040036716, -0.41298684, -3.8739412, -24.467648, -10.432388, 0
1540, 1859315640, 0.85181653, 0.28702742, 0.08587534, -0.42978045, -2.532465, -24.466368, -13.4347725, 0
1542, 1859348974, 0.8291343, 0.2143604, 0.1437593, -0.49596483, 8.967192, 26.909412, 17.576605, 1024
1543, 1859365641, 0.81385124, 0.22095424, 0.18890749, -0.5031909, 13.345221, 1.2681826, 6.3308144, 0
1545, 1859398975, 0.7660624, 0.26016462, 0.33426684, -0.48351878, -0.5791491, 4.3371253, 4.5713396, 0
1547, 1859432309, 0.6772895, 0.2777739, 0.49907154, -0.46379966, 2.7547355, 6.931419, 5.730798, 0
1549, 1859465643, 0.55175394, 0.3317936, 0.62570345, -0.44049716, 2.323165, 21.291523, 9.043228, 0
1550, 1859482310, 0.47453028, 0.36474758, 0.6765675, -0.4290672, -15.12321, 54.71139, 26.677155, 0
1551, 1859498977, 0.4416585, 0.38394088, 0.71613467, -0.3804474, -57.25639, 84.5276, 36.04133, 0
1553, 1859532311, 0.4621253, 0.40742, 0.7241707, -0.30998048, 22.126398, -24.605421, 4.7138586, 0
1554, 1859548978, 0.41101754, 0.4421941, 0.72143674, -0.3392929, -0.8929325, 30.620703, 10.189993, 0
1555, 1859565645, 0.38282114, 0.45764077, 0.7143918, -0.3656762, 1.2096763, 30.978456, -0.20586395, 0
1557, 1859598979, 0.32166323, 0.4716754, 0.70088756, -0.42763755, 3.4863474, 22.159348, -10.039505, 0
1558, 1859615646, 0.2957729, 0.46692842, 0.700258, -0.4518817, 2.9721906, 22.873411, -17.742939, 0
1559, 1859632313, 0.27925736, 0.45677575, 0.70354116, -0.4674002, 4.509285, 19.141857, -22.591595, 0
1561, 1859665647, 0.27496356, 0.43106216, 0.70483124, -0.49178797, 5.1140723, 16.397089, -21.682476, 0
1562, 1859682314, 0.29060853, 0.41579902, 0.6995698, -0.503311, 4.0525565, 16.401672, -20.241028, 0
1563, 1859698981, 0.3167692, 0.39940146, 0.690138, -0.51371896, 3.4245007, 11.916474, -17.70462, 0
1565, 1859732315, 0.37615418, 0.370458, 0.657097, -0.5381025, 3.8892863, 3.3066885, -13.637891, 0
1566, 1859748982, 0.40434042, 0.3586736, 0.6335697, -0.5536366, 4.6350965, 5.0954885, -10.890713, 0
1567, 1859765649, 0.43325394, 0.34564257, 0.60573494, -0.5709375, 5.186663, 3.9876072, -8.957205, 0
1569, 1859798983, 0.48277348, 0.31829974, 0.5451337, -0.60704714, 4.984053, 3.7454515, -5.5696125, 0
1570, 1859815650, 0.50569916, 0.30467197, 0.51322615, -0.6229802, 3.0648923, 7.1482043, -2.5062962, 0
1572, 1859848984, 0.55446863, 0.2767846, 0.4448678, -0.6466137, -0.9536985, 6.6687613, 1.5616283, 0
1574, 1859882318, 0.60624546, 0.2620788, 0.37397885, -0.65113956, -4.4471292, 6.3406496, 3.7293396, 0
1576, 1859915652, 0.66228116, 0.25925288, 0.31154197, -0.6302184, -3.403063, 1.9145887, 9.687077, 0
1577, 1859932319, 0.68975794, 0.2565408, 0.2810186, -0.6160448, -3.7801726, 0.064316526, 10.95031, 0
1578, 1859948986, 0.71666145, 0.25004044, 0.25165123, -0.6005078, -4.8163133, -0.3478568, 10.761103, 0
1580, 1859982320, 0.76969635, 0.23420717, 0.19503425, -0.5610154, -5.0242314, -0.3170851, 10.202044, 0
1581, 1859998987, 0.79498255, 0.22579625, 0.16808766, -0.5374266, -4.6089544, -1.5176203, 9.882116, 0
1582, 1860015654, 0.8182868, 0.2159456, 0.14435229, -0.51283395, -3.770625, -2.9884813, 9.919294, 0
1584, 1860048988, 0.85665125, 0.19730295, 0.09843062, -0.46646935, 1.3796543, -7.5864515, 5.587905, 0
1585, 1860065655, 0.8691751, 0.19137278, 0.07702999, -0.44948813, 2.6815712, -8.939791, 3.9561615, 0
1586, 1860082322, 0.87700707, 0.18481897, 0.059576664, -0.43956003, 3.8534694, -9.541692, 2.3973074, 0
1589, 1860132323, 0.8764249, 0.18369871, 0.025041644, -0.44448754, 0.97759056, -9.873291, 0.64361286, 0
1590, 1860148990, 0.8735084, 0.18791705, 0.0147147775, -0.44890514, -0.69970655, -8.553279, 0.3394642, 0
1592, 1860182324, 0.8740877, 0.19277264, 0.0041771084, -0.44593, -2.6997297, -4.788737, -1.3033323, 0
1593, 1860198991, 0.87829745, 0.192807, 0.0053615347, -0.4375526, -1.9806024, -5.811081, -1.8665752, 0
1594, 1860215658, 0.8835107, 0.19572583, 0.0069436803, -0.42557484, -0.48486844, -7.593538, -2.6296496, 0
1596, 1860248992, 0.89323384, 0.21157414, 0.0062230676, -0.39672765, 1.4253665, -10.858565, -2.621122, 0
1597, 1860265659, 0.8969234, 0.2178589, 0.0055342317, -0.38483408, 2.644084, -13.067833, -2.4553785, 0
1598, 1860282326, 0.89912874, 0.21903469, 0.0051033124, -0.37898186, 4.4023767, -14.915306, -3.0574198, 0
1600, 1860315660, 0.8958386, 0.21919738, -0.006137669, -0.38658744, 4.438086, -15.305408, -6.5446157, 0
1601, 1860332327, 0.89102507, 0.21942827, -0.012917347, -0.39726654, 1.5511354, -12.469403, -7.640747, 0
1604, 1860382328, 0.8789032, 0.20335412, 9.4575435E-4, -0.43155223, -2.5180907, -6.0889897, -2.5838418, 0
1605, 1860398995, 0.8768805, 0.19969863, 0.011998575, -0.43717158, -3.3061585, -4.871892, 1.4070272, 0
1607, 1860432329, 0.87825394, 0.19556853, 0.031301044, -0.4353221, -0.7200175, -2.1396084, 1.9155025, 0
1608, 1860448996, 0.8804841, 0.19544119, 0.040126327, -0.43011886, 0.34372035, -2.2902427, 2.629963, 0
1609, 1860465663, 0.88278836, 0.19476308, 0.047901075, -0.42487603, 1.8294601, -2.5178704, 3.4469147, 0
1611, 1860498997, 0.88400114, 0.19413452, 0.06322102, -0.42061698, 2.527423, -0.96819085, 1.1926403, 0
1612, 1860515664, 0.8822932, 0.19426754, 0.07197777, -0.4227289, 1.9996624, -0.31264478, 2.4395552, 0
1613, 1860532331, 0.8799293, 0.19446732, 0.07906873, -0.42628258, 1.4909719, 0.454443, 2.7443209, 0
1615, 1860565665, 0.8738683, 0.19893129, 0.088584304, -0.43473607, 0.8442, 0.81045985, 2.2329712, 0
1616, 1860582332, 0.87053, 0.19966045, 0.093842186, -0.43996444, 0.93125653, 0.88607395, 1.489357, 0
1619, 1860632333, 0.8588182, 0.20153649, 0.109444275, -0.45814654, 0.3270513, 0.19643769, 0.2817316, 0
1620, 1860649000, 0.85437965, 0.20271988, 0.11516993, -0.46447593, -0.7752129, 0.17602329, 1.1384792, 0
1621, 1860665667, 0.85015917, 0.20467857, 0.1197873, -0.47015858, 0.29796502, 0.3948973, 0.51326466, 0
1623, 1860699001, 0.84319556, 0.20859855, 0.124875605, -0.47955805, -0.04115924, 0.759628, 0.8711891, 0
1624, 1860715668, 0.84047484, 0.20976278, 0.12636983, -0.4834194, 1.4187045, 0.4535801, -0.4049921, 0
1626, 1860749002, 0.83483076, 0.2097193, 0.13267736, -0.4914613, 0.36227775, 0.47062048, -1.4724588, 0
1627, 1860765669, 0.831856, 0.21250972, 0.13516365, -0.4946189, 0.36055824, -0.059780244, -0.03819084, 0
1628, 1860782336, 0.82941127, 0.21339038, 0.1389511, -0.4972883, -1.4778192, 0.40848312, 1.0773163, 0
1630, 1860815670, 0.8264396, 0.2161547, 0.14479896, -0.49936932, -0.4884775, 0.13931912, 1.9816895, 0
1631, 1860832337, 0.825814, 0.21540365, 0.1473383, -0.49998567, -0.23624156, 0.07077046, 2.2101765, 0
1632, 1860849004, 0.82534814, 0.21539402, 0.14763448, -0.5006716, 0.81602454, -0.33748963, 1.158596, 0
1634, 1860882338, 0.8233471, 0.21571925, 0.14809766, -0.50368005, 1.081092, -0.68132156, -0.38748074, 0
1635, 1860899005, 0.82176006, 0.21653579, 0.14849415, -0.5058005, -0.419697, -0.54720205, 1.355876, 0
1636, 1860915672, 0.82052267, 0.21535301, 0.14973313, -0.5079442, -0.43850023, -0.5416319, 1.0271349, 0
1638, 1860949006, 0.81940234, 0.21548398, 0.14714703, -0.5104469, -0.9025203, -0.34204164, 1.8530512, 0
1639, 1860965673, 0.8198565, 0.2140734, 0.14569937, -0.51072633, -0.42811805, -0.64724684, 1.1351147, 0
1640, 1860982340, 0.82054144, 0.21325198, 0.14365059, -0.5105504, 0.08377512, -0.9936718, 0.33411694, 0
1642, 1861015674, 0.821246, 0.2121012, 0.14046425, -0.5107837, 0.4203684, -1.5465562, -0.3941908, 0
1643, 1861032341, 0.82088983, 0.21260373, 0.13914444, -0.51150787, 0.44290176, -1.7284937, -0.52059174, 0
1646, 1861082342, 0.82071126, 0.21252997, 0.13406396, -0.513179, -0.2117935, -1.9303223, 0.36309433, 0
1647, 1861099009, 0.8215291, 0.21222647, 0.13194714, -0.51254445, -0.45809853, -2.1604962, 1.023366, 0
1648, 1861115676, 0.8228369, 0.21143693, 0.12932208, -0.51144075, 0.24287544, -2.4744911, 0.3481741, 0
1650, 1861149010, 0.8251624, 0.21274747, 0.12223938, -0.508886, 0.45670694, -3.1826074, 0.52868557, 0
1651, 1861165677, 0.8262948, 0.21062486, 0.12117574, -0.50818574, -0.26182374, -3.473343, 0.7048292, 0
1653, 1861199011, 0.82785714, 0.20950791, 0.11844232, -0.5067467, 0.37819386, -3.5080738, -0.43077183, 0
1654, 1861215678, 0.8283995, 0.21005403, 0.11774175, -0.5057969, -0.029194145, -3.3979452, 0.26433563, 0
1655, 1861232345, 0.8289705, 0.21007077, 0.11789009, -0.50481874, 0.5782604, -3.6605422, -0.09551144, 0
1657, 1861265679, 0.82880044, 0.2123247, 0.11694734, -0.5043745, 0.71833175, -3.8943834, 0.8489151, 0
1658, 1861282346, 0.8282038, 0.2121615, 0.116453774, -0.50553596, 0.80635494, -3.7791393, 0.97065735, 0
1661, 1861332347, 0.82459176, 0.21298553, 0.11372998, -0.5116766, -0.012727945, -3.3528304, 0.46328926, 0
1662, 1861349014, 0.8236534, 0.2129923, 0.11326075, -0.51328677, -0.38452476, -3.3683991, 0.3239994, 0
1663, 1861365681, 0.8230883, 0.21317135, 0.11280194, -0.51421916, -0.22114363, -3.3645484, -0.25787258, 0
1665, 1861399015, 0.82318366, 0.21247965, 0.113776304, -0.5141381, -1.1807926, -3.5819771, 0.87407875, 0
1666, 1861415682, 0.82383466, 0.21163845, 0.11457206, -0.51326513, -1.020602, -3.5145342, -0.0027809143, 0
1667, 1861432349, 0.82457536, 0.2115164, 0.115528725, -0.5119099, -0.978898, -3.3675919, -0.12448788, 0
1669, 1861465683, 0.826272, 0.2116456, 0.11775257, -0.508603, -0.36267972, -3.3485577, 0.39094257, 0
1670, 1861482350, 0.8271215, 0.21123746, 0.11896889, -0.5071069, -0.61390203, -3.2444108, 0.53433037, 0
1671, 1861499017, 0.8278005, 0.21063195, 0.120625004, -0.5058579, -0.5801384, -2.9062881, -0.24228573, 0
1673, 1861532351, 0.828664, 0.21277525, 0.12310079, -0.5029423, 0.009981418, -2.1745567, 0.026024818, 0
1675, 1861565685, 0.830603, 0.2141406, 0.12264502, -0.4992625, 0.27779463, -2.4462254, 0.79176617, 0
1677, 1861599019, 0.83251053, 0.21314983, 0.12062434, -0.49699637, 0.5486424, -2.7923942, 0.23201466, 0
1678, 1861615686, 0.83301616, 0.21311483, 0.1187208, -0.49662247, 0.37979847, -3.1289935, 0.75306034, 0
1680, 1861649020, 0.8338547, 0.21219818, 0.11484897, -0.4965181, -0.6856079, -3.461456, 0.4382248, 0
1681, 1861665687, 0.8343042, 0.21213312, 0.11301732, -0.4962109, -0.736175, -3.7118447, 0.56338215, 0
1682, 1861682354, 0.8349831, 0.21222052, 0.11046697, -0.49560565, -0.398767, -3.7691686, 0.7780094, 0
1684, 1861715688, 0.83653486, 0.21146166, 0.10559828, -0.49437279, 0.124216765, -4.1192017, 0.26964855, 0
1685, 1861732355, 0.8369318, 0.21108846, 0.104181275, -0.49416104, -0.04930249, -4.2241263, 0.11180115, 0
1686, 1861749022, 0.8370641, 0.21144895, 0.10295761, -0.49403942, -0.1349255, -4.0645666, -0.23769665, 0
1688, 1861782356, 0.83733064, 0.21415825, 0.100494675, -0.49292693, 0.5503536, -3.8053908, -0.38806725, 0
1690, 1861815690, 0.8385669, 0.21288681, 0.1014739, -0.49117208, -0.4079134, -3.705439, 0.20373821, 0
1692, 1861849024, 0.8398778, 0.2106529, 0.10522562, -0.4891014, -0.5405017, -2.9931602, -0.5283489, 0
1693, 1861865691, 0.8407593, 0.21194007, 0.105967805, -0.48686567, -0.5270638, -2.45437, -0.30350876, 0
1694, 1861882358, 0.8422005, 0.21288352, 0.10673265, -0.48378637, 0.23078898, -2.3887842, 0.0540905, 0
1696, 1861915692, 0.84529424, 0.21201724, 0.1099117, -0.478025, 0.4772546, -2.8258674, 0.2906189, 0
