sep=,
DeviceTag:,Xsens_DOT_3,,,,,,,,,,,,,,,,,
FirmwareVersion:,3.0.0,,,,,,,,,,,,,,,,,
AppVersion:,2023.6.1,,,,,,,,,,,,,,,,,
SyncStatus:,Synced,,,,,,,,,,,,,,,,,
OutputRate:,60Hz,,,,,,,,,,,,,,,,,
FilterProfile:,General,,,,,,,,,,,,,,,,,
Measurement Mode:,Sensor fusion Mode - Extended (Quaternion),,,,,,,,,,,,,,,,,
StartTime:,2025-05-05 11:37:20.644 +0200,,,,,,,,,,,,,,,,,
 2025,,,,,,,,,,,,,,,,,,,

PacketCounter,SampleTimeFine,Quat_W,Quat_X,Quat_Y,Quat_Z,FreeAcc_X,FreeAcc_Y,FreeAcc_Z,Status
1, 1833648460, -0.2239366, 0.72709095, 0.15855922, 0.6293272, -0.08022546, -0.011912123, 0.056132317, 0
2, 1833665127, -0.22409749, 0.7269727, 0.15890306, 0.62931985, -0.068558335, 0.012632617, 0.06675339, 0
3, 1833681794, -0.224233, 0.72686076, 0.15925968, 0.6293109, -0.025066657, 0.005297816, 0.044522285, 0
4, 1833698461, -0.2243795, 0.7267371, 0.15959807, 0.6293156, -0.04898904, -0.04346321, 0.05615425, 0
5, 1833715128, -0.22457531, 0.72664547, 0.15995173, 0.6292618, -0.055582516, -0.088451676, 0.049215317, 0
6, 1833731795, -0.2247841, 0.72652525, 0.16026579, 0.62924606, -0.06518716, -0.05263529, 0.05883217, 0
7, 1833748462, -0.2249423, 0.7264243, 0.1606004, 0.6292209, -0.10785164, -0.023663204, 0.060113907, 0
8, 1833765129, -0.225128, 0.72633195, 0.16098627, 0.62916243, -0.08175464, -0.033332933, 0.02412796, 0
9, 1833781796, -0.22530834, 0.72621644, 0.16135901, 0.62913567, -0.049922206, -0.017558955, 0.03431225, 0
10, 1833798463, -0.2255107, 0.7260974, 0.1617489, 0.6291005, -0.040876713, -0.0560329, 0.0048503876, 0
11, 1833815130, -0.22564945, 0.7259862, 0.16207601, 0.62909484, -0.028054075, -0.045593962, 0.010632515, 0
12, 1833831797, -0.22578843, 0.7258575, 0.16238153, 0.6291147, -0.059681956, -0.051969666, 0.05219364, 0
13, 1833848464, -0.22596033, 0.72570795, 0.16271141, 0.62914, -0.02438057, -0.020565763, 0.077679634, 0
14, 1833865131, -0.22604331, 0.7256047, 0.16299054, 0.6291573, -0.040851854, -0.028535116, 0.07861805, 0
15, 1833881798, -0.22615275, 0.72554713, 0.16330323, 0.62910336, -0.0057412656, -0.060699973, 0.06956768, 0
16, 1833898465, -0.22616783, 0.7255124, 0.16344146, 0.62910205, -0.015729388, -0.05781196, 0.04804802, 0
17, 1833915132, -0.2261667, 0.72546667, 0.16349608, 0.6291409, -0.047229767, -0.039223395, 0.03725815, 0
18, 1833931799, -0.22620071, 0.7253812, 0.16359401, 0.62920195, -0.056744378, -0.0062722205, 0.0567379, 0
19, 1833948466, -0.22613025, 0.7253143, 0.16360685, 0.6293009, -0.040764127, -0.020770388, 0.03642845, 0
20, 1833965133, -0.2260752, 0.7252579, 0.16361393, 0.629384, -0.03828204, -0.07874417, 0.019422531, 0
21, 1833981800, -0.22601219, 0.7252366, 0.1635668, 0.6294434, -0.03294089, -0.072814375, 0.035889626, 0
22, 1833998467, -0.22592705, 0.7252272, 0.16348273, 0.6295065, -0.023024824, -0.057020277, 0.04340267, 0
23, 1834015134, -0.22592375, 0.72518104, 0.1634881, 0.6295594, -0.064333595, -0.006868777, 0.04948616, 0
24, 1834031801, -0.22585127, 0.7251093, 0.16346413, 0.6296744, -0.056479767, 0.02198764, 0.06307602, 0
25, 1834048468, -0.22571619, 0.72508633, 0.16338901, 0.62976885, -3.2498784E-4, -0.019325601, 0.043185234, 0
26, 1834065135, -0.22561172, 0.725083, 0.1632663, 0.62984186, -0.047077693, -0.06157077, 0.033738136, 0
27, 1834081802, -0.22553864, 0.72509915, 0.16305682, 0.6299039, -0.08827753, -0.10172633, 0.058714867, 0
28, 1834098469, -0.22544299, 0.7251192, 0.16283168, 0.62997323, -0.1014729, -0.06148104, 0.04182625, 0
29, 1834115136, -0.2253016, 0.72509134, 0.16263092, 0.6301076, -0.10572051, -0.019281344, 0.025951385, 0
30, 1834131803, -0.22511542, 0.7250427, 0.16246165, 0.6302738, -0.12372479, -0.0098361345, 0.007212639, 0
31, 1834148470, -0.22493774, 0.7249707, 0.16234067, 0.63045114, -0.108860284, -0.04217667, 0.013753891, 0
32, 1834165137, -0.2248092, 0.7249033, 0.16224967, 0.6305979, -0.060628366, -0.06753656, 0.039967537, 0
33, 1834181804, -0.22477007, 0.7248184, 0.16218485, 0.6307261, -0.10551706, -0.07981603, 0.0025587082, 0
34, 1834198471, -0.22491983, 0.7246876, 0.1622755, 0.63079953, -0.11988165, -0.015332541, -0.018296242, 0
35, 1834215138, -0.2250714, 0.72454584, 0.1623818, 0.63088113, -0.13286987, -0.009441188, 0.010422707, 0
36, 1834231805, -0.22518964, 0.7245008, 0.16250594, 0.6308587, -0.1362501, -0.06242169, 0.08361626, 0
37, 1834248472, -0.22533399, 0.7244961, 0.16266602, 0.6307712, -0.13386329, -0.12361675, 0.046865463, 0
38, 1834265139, -0.22594513, 0.72501194, 0.16315787, 0.6298322, -1.2702703, -2.3836336, 5.4549017, 0
39, 1834281806, -0.19426154, 0.75486916, 0.1637309, 0.6046733, 2.5028064, 2.477688, -0.53797245, 0
40, 1834298473, -0.18603474, 0.7610072, 0.16394325, 0.5994867, -7.485847, 3.3979192, -7.3566017, 0
41, 1834315140, -0.18711446, 0.75935394, 0.16209133, 0.60174656, 1.1639858, -5.0367527, -7.0621014, 0
42, 1834331807, -0.19231223, 0.75288117, 0.15884563, 0.6090622, 0.9034889, -4.7981544, 0.32672977, 0
43, 1834348474, -0.1980324, 0.7475852, 0.1588792, 0.613726, -0.64507914, 0.07730279, 3.6068277, 0
44, 1834365141, -0.20025839, 0.7449594, 0.16040094, 0.6157971, -1.1326821, 2.800793, 4.1704063, 0
46, 1834398475, -0.20398763, 0.73927087, 0.16790944, 0.6194164, 0.056741305, 0.48686665, 0.44623375, 0
47, 1834415142, -0.20673248, 0.7360284, 0.1698044, 0.6218467, 0.44048008, 0.13124111, 0.6441746, 0
48, 1834431809, -0.20840842, 0.73306763, 0.1717719, 0.62423956, 0.7954577, -0.029482812, 0.8785696, 0
50, 1834465143, -0.20832987, 0.73125345, 0.17716616, 0.6248854, 0.7835008, 8.2912133E-4, 0.16939831, 0
51, 1834481810, -0.20787753, 0.731041, 0.17844889, 0.6249196, 0.8578499, -0.093843035, -0.7354708, 0
52, 1834498477, -0.20736392, 0.7311131, 0.17806828, 0.62511456, 0.6378298, -0.1186523, -0.6217022, 0
54, 1834531811, -0.20920405, 0.7291409, 0.1716616, 0.62858754, 0.68816185, 0.0026487403, -0.98088837, 0
55, 1834548478, -0.21113798, 0.7262857, 0.16840494, 0.63211733, 0.5743507, -0.5952229, -0.47721767, 0
56, 1834565145, -0.21273355, 0.7233879, 0.16637763, 0.63543326, 0.072007686, 0.034879755, 0.1447115, 0
58, 1834598479, -0.21370375, 0.7205361, 0.16302815, 0.63920486, -0.22001755, 0.14211625, -0.055013657, 0
60, 1834631813, -0.21469012, 0.7198111, 0.15936257, 0.6406141, -0.3354084, -0.1148566, 0.12450886, 0
62, 1834665147, -0.21513432, 0.72069585, 0.15373552, 0.6408455, -0.29556528, -0.13342573, -0.27682018, 0
63, 1834681814, -0.2148491, 0.7212409, 0.15102828, 0.64097166, -0.32148483, -0.07288523, -0.25809002, 0
64, 1834698481, -0.21434073, 0.7217237, 0.14863944, 0.641157, -0.31930473, -0.067039914, -0.1642294, 0
66, 1834731815, -0.21351245, 0.72281843, 0.1448375, 0.64106995, -0.45025697, -0.014683013, 0.13269615, 0
67, 1834748482, -0.21364135, 0.7234706, 0.14313547, 0.64067346, -0.50305974, 0.2270705, 0.096095085, 0
69, 1834781816, -0.21459676, 0.7247948, 0.14005917, 0.63953656, -0.37562075, 0.20572703, 0.15509796, 0
74, 1834865151, -0.21644202, 0.726635, 0.13502085, 0.63790786, -0.1297172, 0.1444267, 0.064496994, 0
75, 1834881818, -0.21663845, 0.72675574, 0.134621, 0.63778806, -0.11914606, 0.17033397, 0.06419945, 0
77, 1834915152, -0.21742657, 0.7267675, 0.13453642, 0.6375245, 0.065111026, 0.08864602, 0.04520893, 0
78, 1834931819, -0.21803352, 0.72673196, 0.13459143, 0.637346, 0.20059222, 0.07828731, 0.050258636, 0
79, 1834948486, -0.21880913, 0.7266698, 0.13466662, 0.6371351, 0.1387967, 0.019864267, -0.0024909973, 0
81, 1834981820, -0.22050194, 0.72585434, 0.13434277, 0.63754934, 0.026372168, -0.24509023, -0.034805298, 0
82, 1834998487, -0.22149591, 0.7252691, 0.13424562, 0.6378912, -0.16934384, -0.12782717, 0.06568527, 0
83, 1835015154, -0.22250171, 0.72460395, 0.13455373, 0.6382319, -0.1897505, -0.03079651, 0.20168018, 0
85, 1835048488, -0.22427653, 0.72335994, 0.1359669, 0.63872254, -0.010229546, 0.057057828, 0.24294758, 0
89, 1835115156, -0.22814198, 0.7208158, 0.13942501, 0.6394836, -0.06455725, 0.078110404, -0.09209728, 0
90, 1835131823, -0.22909841, 0.7201701, 0.14013907, 0.639713, 0.012516935, -0.13990872, -0.17741871, 0
92, 1835165157, -0.23118308, 0.718907, 0.1415288, 0.6400776, 0.056603886, -0.114842445, -0.0037403107, 0
94, 1835198491, -0.23266706, 0.7179475, 0.14255893, 0.64038813, -0.0027463178, -0.10442469, 0.0846529, 0
96, 1835231825, -0.2333883, 0.7174346, 0.14314835, 0.6405689, 0.017237067, -0.19339849, -0.028915405, 0
97, 1835248492, -0.23347014, 0.7173258, 0.1433252, 0.6406215, -0.039880354, -0.11917644, 0.00931263, 0
101, 1835315160, -0.23334193, 0.7170823, 0.14358324, 0.64088297, -0.01577736, 0.027831051, 0.13201714, 0
102, 1835331827, -0.23326007, 0.7171069, 0.14368302, 0.64086294, 0.022131931, 0.09829184, 0.09945679, 0
104, 1835365161, -0.23307712, 0.7172525, 0.14376786, 0.6407475, 0.09134744, 0.0547676, 0.06485176, 0
110, 1835465163, -0.23163632, 0.7178145, 0.1427889, 0.6408596, 0.14840086, 0.009121787, 0.0016613007, 0
117, 1835581832, -0.2145411, 0.732408, 0.1516423, 0.6281384, 1.3245528, -6.985775, 10.096191, 0
118, 1835598499, -0.20839679, 0.7343616, 0.15784521, 0.6263955, -4.0564585, 2.570371, -5.872761, 0
123, 1835681834, -0.21079645, 0.7275935, 0.14244533, 0.63709074, -1.088689, 1.351208, 2.0512943, 0
125, 1835715168, -0.21632124, 0.72674656, 0.14032799, 0.6366752, -0.43377382, 0.6276925, 0.27315712, 0
127, 1835748502, -0.22207977, 0.72526544, 0.14008984, 0.6364338, 0.11445035, -0.3662499, 0.73125076, 0
128, 1835765169, -0.22341616, 0.72506326, 0.1408551, 0.63602746, 0.23201951, -0.24167517, 0.659112, 0
129, 1835781836, -0.22373368, 0.7251917, 0.1416832, 0.63558537, 0.2749605, -0.11081962, 0.1929388, 0
131, 1835815170, -0.22299021, 0.7259797, 0.14263049, 0.6347348, 0.22733843, -0.17924398, -0.45041084, 0
132, 1835831837, -0.22277236, 0.72609955, 0.14257693, 0.6346862, 0.2242108, -0.21158072, -0.4215784, 0
133, 1835848504, -0.22248465, 0.72623104, 0.14276838, 0.6345934, 0.3068349, -0.29026085, -0.154315, 0
135, 1835881838, -0.22188847, 0.7269361, 0.14323732, 0.6338888, 0.24966392, -0.33742455, -0.18616962, 0
136, 1835898505, -0.2216901, 0.72716343, 0.1433902, 0.6336629, 0.16965918, -0.08033056, -0.02381134, 0
137, 1835915172, -0.22155994, 0.7274354, 0.14361233, 0.63334596, 0.08773325, 0.138399, 0.19883728, 0
140, 1835965173, -0.22265065, 0.7277109, 0.14512414, 0.63230157, -0.19495174, 0.14869456, 0.036355972, 0
141, 1835981840, -0.22397333, 0.726835, 0.14526714, 0.6328089, -0.16833366, 0.047726944, 0.19324112, 0
143, 1836015174, -0.22744313, 0.7240601, 0.14601427, 0.6345779, 0.0064177555, 0.16583398, 0.12589645, 0
144, 1836031841, -0.22963414, 0.72233945, 0.14647922, 0.6356416, -0.019902656, -0.016770288, 0.14350796, 0
146, 1836065175, -0.23370226, 0.71936435, 0.1477426, 0.6372386, 0.07900119, -0.14363624, 0.20098495, 0
147, 1836081842, -0.23549867, 0.71818185, 0.1480847, 0.6378314, 0.025246724, -0.3101677, 0.061003685, 0
148, 1836098509, -0.23711853, 0.71730757, 0.14820005, 0.6381882, 0.21172452, -0.2388902, -0.18896294, 0
150, 1836131843, -0.2394576, 0.7162132, 0.14835064, 0.6385088, 0.06970326, -0.24701032, -0.20193195, 0
151, 1836148510, -0.24028137, 0.7158035, 0.14891905, 0.6385264, 0.11736915, -0.21780242, -0.22210598, 0
152, 1836165177, -0.24109893, 0.71543777, 0.14952548, 0.63848656, 0.1065246, -0.16334774, -0.10021305, 0
155, 1836215178, -0.24392457, 0.7139786, 0.15125723, 0.6386386, -0.12218014, 0.121794, 0.29723454, 0
156, 1836231845, -0.24490838, 0.7135027, 0.15189996, 0.6386415, -0.07487053, 0.06965356, 0.3147936, 0
158, 1836265179, -0.24671154, 0.71256614, 0.15351853, 0.6386062, -0.06250944, 0.0011392889, 0.13599682, 0
159, 1836281846, -0.24753216, 0.71195024, 0.1544248, 0.6387569, -0.074657045, -0.1300955, 0.09817982, 0
160, 1836298513, -0.24834742, 0.711362, 0.1553803, 0.6388642, 0.010758838, -0.23125757, 0.055478096, 0
162, 1836331847, -0.24990264, 0.71050435, 0.15716106, 0.63877636, -1.2474817E-4, -0.19450432, -0.046741486, 0
163, 1836348514, -0.25050858, 0.7101868, 0.1580635, 0.63866967, 0.008982957, -0.27316827, -0.027171135, 0
164, 1836365181, -0.25112656, 0.7097555, 0.15892017, 0.6386938, -0.017166493, -0.28966922, -0.038968086, 0
166, 1836398515, -0.25238162, 0.70865935, 0.16093445, 0.6389118, -0.027313227, -0.11904378, 0.017425537, 0
167, 1836415182, -0.25311032, 0.70809746, 0.16189808, 0.63900304, 0.058448527, -0.06437877, 0.017959595, 0
168, 1836431849, -0.25397858, 0.70757616, 0.1625845, 0.6390616, 0.09431174, -0.056493346, 0.015213013, 0
170, 1836465183, -0.25533226, 0.7066792, 0.1633792, 0.63931197, 0.19764529, -0.051654737, 0.1775589, 0
171, 1836481850, -0.25554192, 0.7064264, 0.16349828, 0.63947713, 0.20696987, -0.0070025492, 0.17840481, 0
173, 1836515184, -0.25510663, 0.7060885, 0.16322292, 0.64009434, 0.26620084, -0.08597985, 0.08359146, 0
174, 1836531851, -0.25459516, 0.7059931, 0.16284558, 0.640499, 0.2624885, -0.09461728, 0.009923935, 0
175, 1836548518, -0.2539945, 0.70586175, 0.16230409, 0.6410198, 0.26710075, -0.046756662, -0.046045303, 0
177, 1836581852, -0.25263914, 0.7055539, 0.16109766, 0.6421973, 0.06787784, 0.013413012, -0.12880325, 0
178, 1836598519, -0.25202316, 0.7053244, 0.16050276, 0.64284, -0.023636468, 0.010520084, -0.11919403, 0
179, 1836615186, -0.2515411, 0.705141, 0.15997471, 0.6433614, -0.08815616, -0.06132346, -0.016260147, 0
182, 1836665187, -0.25089276, 0.7049411, 0.15904522, 0.6440639, -0.17749731, -0.020582749, -5.5503845E-4, 0
183, 1836681854, -0.25092277, 0.7049127, 0.15901041, 0.6440917, -0.15740472, -0.0053517944, 0.039608955, 0
185, 1836715188, -0.25125226, 0.70474225, 0.15940043, 0.6440535, -0.18071176, 0.12370258, 0.07896805, 0
186, 1836731855, -0.25150666, 0.70463127, 0.15987964, 0.64395684, -0.16780347, 0.11212483, 0.11023998, 0
187, 1836748522, -0.25186294, 0.7044943, 0.1603378, 0.6438534, -0.066025116, 0.100189015, 0.13198566, 0
189, 1836781856, -0.25239697, 0.70415837, 0.1607167, 0.64391744, 0.010149723, -0.14018129, 0.095674515, 0
190, 1836798523, -0.25245315, 0.7040036, 0.16058177, 0.6440982, -0.024566254, -0.19608378, 0.021719933, 0
191, 1836815190, -0.25235367, 0.70396096, 0.16039303, 0.6442308, -0.06817443, -0.11192007, -0.05650425, 0
193, 1836848524, -0.25176546, 0.7041516, 0.15994254, 0.64436466, -0.106999956, -0.018604996, -0.13895798, 0
194, 1836865191, -0.2514813, 0.7043243, 0.15968981, 0.6443495, -0.053702507, -0.06446672, -0.10578346, 0
197, 1836915192, -0.25097716, 0.7054603, 0.15890995, 0.6434955, 0.107547395, 0.021047767, -0.047963142, 0
198, 1836931859, -0.25096852, 0.7057473, 0.15854694, 0.6432737, 0.022585621, -0.047298696, -0.09496975, 0
200, 1836965193, -0.2507911, 0.70558995, 0.15809517, 0.6436266, -0.18537687, 0.11904825, 0.13526917, 0
201, 1836981860, -0.25086623, 0.70552003, 0.15802826, 0.64369047, -0.09086612, 0.06949979, 0.30937672, 0
202, 1836998527, -0.2509683, 0.70563865, 0.15811849, 0.6434985, -0.09905469, -0.019303361, 0.31495857, 0
204, 1837031861, -0.21969824, 0.736014, 0.18356282, 0.61345196, -8.59588, 5.8440747, -8.677653, 0
205, 1837048528, -0.21517475, 0.73794824, 0.18371397, 0.61268586, -1.9404595, 5.523611, -12.350767, 0
206, 1837065195, -0.2163077, 0.7356313, 0.17859697, 0.61657387, -0.17157805, -4.812506, -3.446002, 0
208, 1837098529, -0.22741592, 0.72580034, 0.17038198, 0.6264731, -0.80832213, 1.1754006, 3.4807758, 0
209, 1837115196, -0.23157343, 0.7226219, 0.16966306, 0.6288151, -0.82894707, 1.719792, 2.407094, 0
212, 1837165197, -0.2433619, 0.71230197, 0.16414776, 0.6375414, -0.053238496, 0.094402485, 0.6864815, 0
213, 1837181864, -0.24409994, 0.7114377, 0.16234924, 0.6386838, 0.29686517, -0.23430964, -0.45329094, 0
214, 1837198531, -0.24446774, 0.71037024, 0.16133676, 0.63998663, 0.3279355, -0.94097066, -0.13245487, 0
216, 1837231865, -0.24388883, 0.7089729, 0.16178852, 0.6416406, 0.36493364, -0.31393299, 0.05071926, 0
217, 1837248532, -0.24321885, 0.7087161, 0.16158429, 0.6422298, 0.40680858, -0.048161343, -0.27695942, 0
218, 1837265199, -0.2426049, 0.70860213, 0.16117446, 0.64269066, 0.435782, -0.06273819, -0.5523367, 0
220, 1837298533, -0.2418942, 0.7081494, 0.15932724, 0.64391696, 0.06637875, -0.24883015, -0.21564198, 0
221, 1837315200, -0.24169809, 0.70783114, 0.15841585, 0.6445651, -0.1089636, -0.2339975, -0.007627487, 0
224, 1837365201, -0.24226795, 0.7075753, 0.15673825, 0.64504206, -0.5323367, 0.23439234, 0.16286659, 0
225, 1837381868, -0.24303935, 0.7077548, 0.15581253, 0.64477926, -0.49507293, 0.20002052, 0.2379427, 0
229, 1837448536, -0.2450375, 0.70780355, 0.15190859, 0.644901, -0.15641326, -0.3843142, -0.04254341, 0
231, 1837481870, -0.24489562, 0.70735, 0.15020518, 0.6458508, -0.1931115, -0.18891941, -0.09909916, 0
232, 1837498537, -0.244609, 0.7071975, 0.14955133, 0.64627814, -0.18571012, -0.21934421, 0.03708458, 0
235, 1837548538, -0.2442774, 0.70670074, 0.14938381, 0.6469852, -0.36670896, 0.0038012848, 0.059653282, 0
236, 1837565205, -0.24455091, 0.7062866, 0.14991783, 0.6472105, -0.30282024, 0.01658902, -0.0049562454, 0
237, 1837581872, -0.24501735, 0.7057811, 0.15064842, 0.64741606, -0.25412676, -0.11046234, 0.06641865, 0
239, 1837615206, -0.24631715, 0.70458454, 0.15249157, 0.64779437, -0.34924325, -0.18821925, 0.04587841, 0
240, 1837631873, -0.24701968, 0.70396477, 0.15354742, 0.6479512, -0.36866546, -0.2868582, 0.055358887, 0
241, 1837648540, -0.24776757, 0.70328677, 0.1547198, 0.6481231, -0.35097808, -0.35138744, -0.02422142, 0
243, 1837681874, -0.24943231, 0.7019082, 0.15733682, 0.6483488, -0.19394231, -0.31483498, -0.046052933, 0
244, 1837698541, -0.2501242, 0.70129013, 0.15892312, 0.6483643, -0.1555382, -0.33617926, 0.011294365, 0
245, 1837715208, -0.25085515, 0.7006806, 0.1604566, 0.6483632, -0.16899726, -0.14759856, 0.031791687, 0
247, 1837748542, -0.2523473, 0.69974476, 0.16297764, 0.648166, -0.08109346, -0.35786772, 0.28289032, 0
248, 1837765209, -0.25287622, 0.6994889, 0.16417691, 0.64793324, -0.14227359, -0.3491458, 0.27401733, 0
249, 1837781876, -0.25315544, 0.6992778, 0.16526648, 0.647775, -0.13140905, -0.3155926, 0.12302017, 0
251, 1837815210, -0.25324062, 0.6989154, 0.1672432, 0.64762557, -0.050998475, -0.2782439, 0.059758186, 0
252, 1837831877, -0.25307378, 0.6988646, 0.16835934, 0.6474563, -0.04269743, -0.15358704, 0.1861496, 0
253, 1837848544, -0.25292766, 0.6989503, 0.16913228, 0.64721936, -0.06183852, -0.14769691, -0.010904312, 0
255, 1837881878, -0.2527186, 0.69890296, 0.16995084, 0.6471377, -0.083654195, -0.31730548, -0.078253746, 0
258, 1837931879, -0.2524716, 0.69836986, 0.17054226, 0.6476539, -0.24522157, -0.20100789, 0.083480835, 0
259, 1837948546, -0.2525666, 0.69809943, 0.17059413, 0.6478947, -0.1899717, -0.20384985, 0.1531353, 0
260, 1837965213, -0.25273374, 0.6978564, 0.17056094, 0.6481, -0.15473966, -0.17387564, 0.09164715, 0
262, 1837998547, -0.25317773, 0.69718355, 0.17022124, 0.64874, -0.21342403, 0.013667929, -0.009991646, 0
263, 1838015214, -0.2534329, 0.69660103, 0.17001182, 0.64932066, -0.25049105, -0.10041029, 0.031381607, 0
264, 1838031881, -0.25367683, 0.69600093, 0.16994987, 0.6498851, -0.1518568, -0.18351029, 0.12715816, 0
266, 1838065215, -0.25393295, 0.69482905, 0.1703049, 0.6509451, -0.10956781, -0.51030487, 0.04006195, 0
268, 1838098549, -0.25412297, 0.693467, 0.17094576, 0.6521541, -0.14376463, -0.41929734, -0.21751976, 0
270, 1838131883, -0.25409707, 0.6920787, 0.17182368, 0.6534074, -0.04837611, -0.38800764, -0.11959171, 0
271, 1838148550, -0.25418672, 0.6914524, 0.17200512, 0.6539876, 0.043453824, -0.34301594, 0.11459446, 0
274, 1838198551, -0.25436088, 0.6913112, 0.17165007, 0.65416235, 0.20012555, -0.44255176, 0.06785774, 0
275, 1838215218, -0.25427037, 0.69149125, 0.17142549, 0.654066, 0.09043124, -0.37047586, 0.06854153, 0
278, 1838265219, -0.2533832, 0.69178766, 0.17145841, 0.6540882, 0.16599835, 0.010188391, 0.3137064, 0
281, 1838315220, -0.2528342, 0.6917619, 0.16992234, 0.6547286, 0.3375075, -0.31423977, -0.11543751, 0
282, 1838331887, -0.25311807, 0.6912349, 0.16815469, 0.6556312, 0.06022333, -0.46309057, 0.098418236, 0
283, 1838348554, -0.2531663, 0.6898055, 0.16645032, 0.65755016, -0.091966584, -0.5061093, 0.18517685, 0
285, 1838381888, -0.2524541, 0.68677926, 0.16341765, 0.661739, 0.12824391, -0.13323306, 0.054606438, 0
286, 1838398555, -0.25287026, 0.68512833, 0.16072561, 0.66394717, -0.13437583, -0.24241254, -0.13656044, 0
287, 1838415222, -0.25362012, 0.6825598, 0.15746245, 0.6670811, -0.44902158, -0.37958536, -0.31273365, 0
289, 1838448556, -0.2546387, 0.67467713, 0.15173662, 0.67597985, -0.5841433, -0.28114757, -0.16374207, 0
293, 1838515224, -0.2503884, 0.6557981, 0.14559057, 0.6971662, -1.024416, -1.0197605, -0.7752838, 0
294, 1838531891, -0.2504747, 0.6505607, 0.14506125, 0.7021346, -0.98667973, -0.7377472, -0.7060318, 0
295, 1838548558, -0.24981196, 0.6454952, 0.14334607, 0.7073786, -0.64480853, -1.1649452, -0.851346, 0
297, 1838581892, -0.25331202, 0.6353222, 0.14261664, 0.71544516, -0.9364224, -0.62053746, -1.1777611, 0
298, 1838598559, -0.2532429, 0.63019633, 0.14067233, 0.7203712, 0.12247533, -2.3794308, -1.3795166, 0
301, 1838648560, -0.25041887, 0.61618954, 0.12511842, 0.7361717, 0.32905856, -0.39785162, -1.7974663, 0
303, 1838681894, -0.24429661, 0.6066443, 0.11564134, 0.7476174, -1.1340315, 0.71310884, -1.1844635, 0
305, 1838715228, -0.24209353, 0.597088, 0.103995115, 0.7576705, 0.042876672, -0.7947487, 0.002459526, 0
306, 1838731895, -0.24169351, 0.59175384, 0.09900611, 0.7626348, -0.39905834, 0.7803885, 1.1845999, 0
307, 1838748562, -0.24130544, 0.5848838, 0.099844754, 0.7679299, -2.4049532, 3.086856, 3.30161, 0
310, 1838798563, -0.2260771, 0.56228495, 0.080673724, 0.79133993, -2.7496037, -3.202069, 1.267951, 0
312, 1838831897, -0.22471851, 0.5466683, 0.070399925, 0.8035558, -2.8962986, -1.3012247, 0.25361156, 0
313, 1838848564, -0.22429807, 0.539765, 0.06491643, 0.8087846, -2.6084855, -1.1961977, -0.79529476, 0
314, 1838865231, -0.22374345, 0.53335935, 0.05801393, 0.8136975, -2.5555599, -0.7126233, -1.631341, 0
316, 1838898565, -0.22114132, 0.5220974, 0.04456812, 0.82251275, -2.1314511, -0.14004478, -2.0942044, 0
321, 1838981900, -0.21959803, 0.4959889, 0.035219893, 0.8393652, -1.8996568, 0.57016176, -2.765059, 0
322, 1838998567, -0.21922389, 0.49176785, 0.03441631, 0.8419758, -1.7024759, -0.26250368, -3.6333923, 0
326, 1839065235, -0.22482476, 0.47144246, 0.042691812, 0.85169, -2.0243702, -0.13679977, -2.9142847, 0
328, 1839098569, -0.227664, 0.46583232, 0.043085374, 0.85399973, -2.4744475, -0.91665924, -2.9720163, 0
332, 1839165237, -0.22947875, 0.45766184, 0.04650976, 0.8577439, -5.3014417, -0.73672503, 0.5876236, 0
335, 1839215238, -0.23245154, 0.45301363, 0.042015575, 0.8596408, -10.546764, -5.4273725, 5.001361, 0
336, 1839231905, -0.23278841, 0.451205, 0.038132615, 0.86068124, -11.2023735, -5.3931575, 7.3049774, 0
337, 1839248572, -0.2331525, 0.44853434, 0.034294795, 0.862139, -10.2045145, -4.542791, 9.906147, 0
339, 1839281906, -0.23284529, 0.44579104, 0.019411046, 0.864106, -8.750925, -2.0877867, 10.469561, 0
340, 1839298573, -0.23261791, 0.44484958, 0.013012743, 0.8647724, -8.672946, 1.2573308, 8.679401, 0
341, 1839315240, -0.23175852, 0.44311413, 0.009911938, 0.8659344, -6.6306906, 2.5742342, 7.597212, 0
343, 1839348574, -0.22529942, 0.4412244, 0.0016755816, 0.8686547, 0.35110325, -1.6963193, 2.0013676, 0
344, 1839365241, -0.22240472, 0.43958962, 8.463487E-4, 0.8702293, 1.9229926, -1.1670146, 2.206419, 0
347, 1839415242, -0.2111, 0.436543, 0.0040206295, 0.8745589, 1.1812618, -1.1164833, 1.9719496, 0
349, 1839448576, -0.20179316, 0.43728766, 0.010524933, 0.87632805, 0.5061584, 0.3845271, 0.640151, 0
353, 1839515244, -0.1842743, 0.4447394, 0.03583316, 0.87576747, 0.42878032, 0.6807867, -1.3296719, 0
355, 1839548578, -0.17842124, 0.45090774, 0.052080456, 0.8730054, -0.015730577, 0.86962336, -2.182465, 0
356, 1839565245, -0.17669001, 0.45418346, 0.06102246, 0.871078, -0.22108415, 1.0775833, -2.1505923, 0
357, 1839581912, -0.17532127, 0.4577305, 0.07127742, 0.86871594, -0.021725263, 0.702118, -2.6541376, 0
359, 1839615246, -0.17388627, 0.46591997, 0.09300507, 0.8625745, -0.112277806, 0.060635127, -3.3138762, 0
360, 1839631913, -0.1737571, 0.4705152, 0.10495907, 0.8587258, -0.17439355, -0.060091764, -3.2539907, 0
362, 1839665247, -0.17197534, 0.48078388, 0.12650667, 0.850453, 0.19431387, -0.98135775, -3.0759249, 0
363, 1839681914, -0.17063075, 0.48574626, 0.13499437, 0.84659004, 0.53330827, -0.7570051, -2.729618, 0
364, 1839698581, -0.16815725, 0.49240398, 0.142379, 0.84201676, 1.7757747, -1.2927731, -2.4493213, 0
367, 1839748582, -0.15696982, 0.51789206, 0.15600714, 0.82632494, -0.03882179, -1.8502276, -3.1825209, 0
368, 1839765249, -0.1536864, 0.52323896, 0.1590441, 0.82298785, 0.15207286, -1.5497696, -2.7179246, 0
370, 1839798583, -0.1467798, 0.5311254, 0.15915468, 0.8191666, 2.4561493, -0.4311993, -0.99538136, 0
371, 1839815250, -0.14093746, 0.53886324, 0.15495792, 0.8159376, 1.814184, -0.5483325, -1.1765938, 0
372, 1839831917, -0.13501444, 0.54579276, 0.151799, 0.81292146, 0.107504085, -0.33879608, -1.5571012, 0
375, 1839881918, -0.123632684, 0.5535483, 0.14984117, 0.8098455, 1.754607, 0.52632797, 1.4174099, 0
376, 1839898585, -0.12122694, 0.5597872, 0.15146929, 0.8056066, 1.8648463, 1.031491, 0.8620386, 0
378, 1839931919, -0.118350685, 0.57426, 0.15696299, 0.7947225, -0.49483863, -0.7560709, 0.8018751, 0
379, 1839948586, -0.11780006, 0.5778505, 0.1566876, 0.79225224, 0.11961801, -1.6114088, 1.201436, 0
380, 1839965253, -0.11661254, 0.5795454, 0.1528772, 0.7919343, 1.5113333, -0.84478664, 0.7153168, 0
384, 1840031921, -0.1151077, 0.58907074, 0.14286977, 0.78697956, 0.1004314, -0.53264904, 0.8153877, 0
386, 1840065255, -0.11612958, 0.58873445, 0.13038827, 0.78924495, 1.0064911, -0.8261002, -1.0484695, 0
387, 1840081922, -0.11904936, 0.5856885, 0.12693807, 0.79163474, -0.008501036, 0.044264756, -1.3995266, 0
388, 1840098589, -0.12347499, 0.5808012, 0.12517035, 0.79483265, 0.3252986, 0.45877728, -1.2659092, 0
390, 1840131923, -0.1312738, 0.5692703, 0.11463141, 0.80346805, 0.93514806, -0.6909139, -2.6044712, 0
391, 1840148590, -0.13463056, 0.5616212, 0.10866322, 0.8091053, 1.3840318, -0.26118255, -3.7872672, 0
393, 1840181924, -0.14425963, 0.5430958, 0.10567955, 0.82040876, 1.5561033, -0.5781404, -4.375906, 0
394, 1840198591, -0.15031426, 0.5329601, 0.10228273, 0.8263777, 0.36716768, -2.072684, -4.4385204, 0
395, 1840215258, -0.15607515, 0.52055925, 0.094432645, 0.83411264, -0.8231971, -1.4373033, -4.0147743, 0
397, 1840248592, -0.16658653, 0.48992565, 0.09824158, 0.85004294, 0.756121, 1.1721803, -3.2980943, 0
399, 1840281926, -0.17535262, 0.46284956, 0.10587212, 0.86244744, -1.1506552, -1.5502858, -3.4684277, 0
401, 1840315260, -0.18183771, 0.44708472, 0.09377718, 0.8707806, -3.3800085, -3.1511512, -3.3073726, 0
402, 1840331927, -0.18288913, 0.44155505, 0.08780542, 0.8739987, -5.3850913, -4.34707, -0.76268196, 0
403, 1840348594, -0.18324356, 0.43608275, 0.08575334, 0.8768709, -7.4201202, -3.933604, 2.9322882, 0
405, 1840381928, -0.1876733, 0.42324322, 0.086134836, 0.882172, -11.345189, 0.3721058, 9.5202465, 0
406, 1840398595, -0.18959253, 0.41687703, 0.082155526, 0.8851675, -10.994948, -0.8954787, 11.461094, 0
407, 1840415262, -0.19092076, 0.41087782, 0.07620232, 0.88821435, -12.0285425, -1.6247844, 11.805454, 0
409, 1840448596, -0.19072834, 0.40195483, 0.059461854, 0.89360046, -11.811284, -3.1333072, 8.718176, 0
410, 1840465263, -0.18972176, 0.39845723, 0.052126788, 0.89583635, -11.0669365, -1.282036, 7.082052, 0
411, 1840481930, -0.1888403, 0.3953578, 0.046118915, 0.8977234, -8.871977, 0.8195572, 4.775139, 0
413, 1840515264, -0.18861511, 0.39217407, 0.034036137, 0.8997044, -0.8814046, 0.8484885, 0.26038456, 0
414, 1840531931, -0.18972576, 0.39267823, 0.025776204, 0.8995255, 1.407473, 0.113466606, 0.09850502, 0
416, 1840565265, -0.18582626, 0.3935055, 0.025428794, 0.89998794, 3.5782278, -0.46228945, 2.8644152, 0
418, 1840598599, -0.17496347, 0.39615387, 0.03190662, 0.90079665, 1.6600126, -2.4199615, 2.9445972, 0
420, 1840631933, -0.16226631, 0.40304172, 0.036230206, 0.899954, 0.8754879, -0.84639037, -1.0396652, 0
421, 1840648600, -0.15671325, 0.40753305, 0.04008541, 0.8987511, 0.27489546, 0.6110091, -1.366478, 0
428, 1840765269, -0.13950682, 0.44923678, 0.053327657, 0.88084227, 0.41583508, 0.8633978, -2.8725982, 0
429, 1840781936, -0.13916117, 0.45381752, 0.05841618, 0.8782219, 0.79130304, 0.5479248, -2.6688094, 0
430, 1840798603, -0.1384381, 0.4584876, 0.06467833, 0.87546766, 0.64401424, 0.43175215, -3.0961347, 0
434, 1840865271, -0.13485965, 0.47668567, 0.090751216, 0.8639158, 1.018812, -0.1753409, -2.718266, 0
436, 1840898605, -0.13151543, 0.48859853, 0.10200049, 0.85648924, 1.4356347, -0.5712681, -2.0211477, 0
437, 1840915272, -0.1296157, 0.4957413, 0.10790515, 0.8519388, 1.652304, -0.5092037, -1.8163242, 0
438, 1840931939, -0.12835833, 0.5030306, 0.11488247, 0.8469292, 1.65763, -0.24881074, -1.5670414, 0
441, 1840981940, -0.12116812, 0.53057283, 0.12935081, 0.8289038, 1.1203537, -0.57014173, -1.923181, 0
442, 1840998607, -0.1201449, 0.53849494, 0.13462447, 0.82308394, 1.1230165, -0.4584029, -0.7353487, 0
444, 1841031941, -0.118236974, 0.55324835, 0.14669837, 0.81143004, 0.27210957, -0.06288361, 0.069125175, 0
445, 1841048608, -0.11758211, 0.558639, 0.15082614, 0.80706334, 0.30795622, 0.12163262, 0.86909294, 0
448, 1841098609, -0.11674153, 0.57350206, 0.16055368, 0.79479057, 0.19211182, 0.09586108, 0.23256302, 0
449, 1841115276, -0.11710343, 0.57758206, 0.1633583, 0.7912034, 0.6015349, 0.049062043, 0.39031696, 0
453, 1841181944, -0.118156455, 0.590606, 0.16906577, 0.7801558, 1.5634707, -0.38497195, -0.255682, 0
455, 1841215278, -0.11931369, 0.5984168, 0.16844386, 0.7741388, 0.7643772, -0.14846773, 0.5927572, 0
456, 1841231945, -0.11863074, 0.60269, 0.16510172, 0.77164483, 0.50027823, -0.09602717, -0.44670773, 0
457, 1841248612, -0.11821836, 0.6049001, 0.16189395, 0.77065766, -0.011895786, 0.06523192, 0.4334526, 0
459, 1841281946, -0.11756096, 0.6064807, 0.15521133, 0.77089083, -0.84085834, -0.13870144, -0.70724964, 0
460, 1841298613, -0.11909124, 0.6048372, 0.15464365, 0.77206033, -0.11426467, -0.0153385205, -1.3595095, 0
461, 1841315280, -0.12049322, 0.6031686, 0.15124534, 0.77381945, -0.02656357, -1.2212057, -0.87306976, 0
463, 1841348614, -0.1240903, 0.5968803, 0.1402782, 0.78016675, -1.427182, -0.49547306, -2.2647715, 0
464, 1841365281, -0.12663202, 0.59074783, 0.1369524, 0.785002, -0.055640005, -0.76136243, -2.0136948, 0
465, 1841381948, -0.12880091, 0.5841181, 0.13257217, 0.7903441, -0.19293298, -1.4190191, -2.199421, 0
471, 1841481950, -0.15024924, 0.52536154, 0.10445949, 0.83097, -1.593364, -1.1425824, -5.617641, 0
472, 1841498617, -0.15166962, 0.5138445, 0.0981669, 0.83864534, -0.90825266, -1.9601234, -6.0824933, 0
474, 1841531951, -0.16177307, 0.48211247, 0.11047084, 0.8539297, 1.701924, 5.7530704, 0.12139416, 0
476, 1841565285, -0.17333762, 0.46235523, 0.106121995, 0.86308897, -5.8057156, -3.6014292, 2.7592669, 0
478, 1841598619, -0.17314453, 0.4511315, 0.08564642, 0.8713029, -10.83169, -3.9931774, 6.838749, 0
479, 1841615286, -0.17149673, 0.44246474, 0.08633735, 0.8759923, -9.928441, -2.306909, 10.228178, 0
480, 1841631953, -0.17239441, 0.43415293, 0.08861981, 0.87973887, -9.100858, -1.3437337, 10.757977, 0
482, 1841665287, -0.17683901, 0.42495164, 0.07398397, 0.8846882, -10.097388, 0.82923555, 8.887354, 0
483, 1841681954, -0.17663376, 0.42287636, 0.059469312, 0.88681585, -8.353253, 3.9498343, 7.971403, 0
484, 1841698621, -0.1750376, 0.42031574, 0.048271917, 0.88902706, -2.772868, 2.4118326, 6.2037125, 0
487, 1841748622, -0.1727044, 0.41147217, 0.043956153, 0.89383125, 3.9990013, -0.10000914, 4.83055, 0
488, 1841765289, -0.17140265, 0.41017842, 0.04771346, 0.89448357, 3.0228736, -2.006662, 3.4740286, 0
490, 1841798623, -0.16627096, 0.4150898, 0.0515425, 0.89297295, 1.438505, -0.6921727, 0.44190502, 0
491, 1841815290, -0.16104308, 0.41939202, 0.050838523, 0.8919605, 1.093512, -0.6580692, 0.28291988, 0
492, 1841831957, -0.15455692, 0.42397127, 0.049937353, 0.89099354, 0.49204287, -0.3543195, -0.4551792, 0
494, 1841865291, -0.13897929, 0.43318638, 0.053416118, 0.8889229, -0.88963586, 1.6220418, -1.2491407, 0
495, 1841881958, -0.13133237, 0.43805102, 0.05586718, 0.8875497, -1.0660801, 2.2937696, -2.5818853, 0
497, 1841915292, -0.122325495, 0.44767934, 0.07046199, 0.88298213, -0.071346745, 2.362397, -5.5307956, 0
498, 1841931959, -0.12157677, 0.45203003, 0.082580976, 0.87981313, -0.08361269, 1.1273557, -6.611449, 0
499, 1841948626, -0.11961897, 0.45691636, 0.08994807, 0.87683, 0.29733217, -1.0827386, -6.3805466, 0
501, 1841981960, -0.113524504, 0.4664969, 0.09922825, 0.8715786, 1.7376021, -3.0775023, -5.1555285, 0
502, 1841998627, -0.11161391, 0.47104147, 0.10800421, 0.8683318, 2.4395373, -3.04628, -4.3115973, 0
503, 1842015294, -0.10839232, 0.47751918, 0.11469438, 0.8643348, 2.2416086, -1.0651169, -3.2006435, 0
505, 1842048628, -0.09799019, 0.49066615, 0.11507627, 0.85814023, 1.1664395, 0.29680935, -2.2801542, 0
506, 1842065295, -0.09264673, 0.49538442, 0.113733046, 0.8562, -0.33009475, 0.5899633, -1.8881426, 0
507, 1842081962, -0.08928926, 0.49817032, 0.113129035, 0.85501945, -0.0037379118, 0.55435914, -1.2416162, 0
509, 1842115296, -0.094016165, 0.49999765, 0.11903055, 0.8526415, 0.39789608, 3.9939494, 0.48663425, 0
510, 1842131963, -0.09565355, 0.5030705, 0.11843172, 0.8507333, -0.2999338, 2.1868024, 0.5088358, 0
511, 1842148630, -0.09830272, 0.50643206, 0.11759433, 0.84855026, -1.9673092, 0.13424236, 0.56371117, 0
515, 1842215298, -0.11424377, 0.511717, 0.114140935, 0.8438414, 0.010267953, -1.6117351, 1.541913, 0
518, 1842265299, -0.12352811, 0.5132136, 0.121337496, 0.8406144, -3.055542, -1.5200746, 0.065247536, 0
521, 1842315300, -0.12611224, 0.517138, 0.13221857, 0.8361727, 0.4611145, -2.9988594, 0.9160948, 0
524, 1842365301, -0.13171898, 0.51685876, 0.13683063, 0.8347378, 1.1664672, -1.3009044, 2.3170128, 0
525, 1842381968, -0.13376583, 0.5168923, 0.1359356, 0.8345378, 0.036989175, -0.77895683, 2.0484085, 0
526, 1842398635, -0.13669628, 0.5154613, 0.13526241, 0.8350572, 0.46427438, -0.46780902, 2.2293901, 0
528, 1842431969, -0.13820916, 0.51253486, 0.119543985, 0.8389983, 2.8108408, -1.5807468, 1.9598045, 0
529, 1842448636, -0.1375119, 0.5127968, 0.10652672, 0.84070486, 3.394497, -1.2241547, -0.33594608, 0
530, 1842465303, -0.13688223, 0.51337177, 0.095968656, 0.84172755, 3.5205355, -0.6839632, -3.4926186, 0
532, 1842498637, -0.13250013, 0.51473606, 0.071303315, 0.84404325, 2.0288467, 1.3507273, -7.6014485, 0
534, 1842531971, -0.13914663, 0.5142766, 0.06479853, 0.84377825, 0.95979404, 3.9327176, -6.5500546, 0
536, 1842565305, -0.14511296, 0.515474, 0.0549885, 0.8427383, 0.42423177, 3.1021714, -2.3203087, 0
537, 1842581972, -0.15201034, 0.51064295, 0.069489405, 0.84339225, 1.0158155, 0.0612815, 1.4711771, 0
538, 1842598639, -0.158487, 0.506607, 0.083794095, 0.8433342, -1.3301351, -3.5721023, 7.6249466, 0
540, 1842631973, -0.1646267, 0.5105854, 0.09211674, 0.83887887, -0.8844574, -3.0078661, 3.2059202, 0
541, 1842648640, -0.16760802, 0.5137756, 0.0951921, 0.83599246, -2.1576848, -2.7619362, 3.3524122, 0
544, 1842698641, -0.17327373, 0.51705056, 0.10389809, 0.8317709, -1.2980919, 0.11518176, 1.7335873, 0
546, 1842731975, -0.17800274, 0.5091544, 0.12006217, 0.83346534, -0.24959211, 1.545189, -0.018807411, 0
548, 1842765309, -0.18211603, 0.5013615, 0.12970862, 0.835852, 1.6962459, 2.1105845, -1.6999407, 0
549, 1842781976, -0.18538667, 0.49639645, 0.13570298, 0.8371438, 2.28329, 2.5735996, -0.69830227, 0
552, 1842831977, -0.19832665, 0.48549932, 0.1590235, 0.8364635, 0.795583, -0.49550566, -2.3920655, 0
553, 1842848644, -0.20099357, 0.48433003, 0.15833914, 0.83663476, 0.4810276, -0.885035, -3.2653875, 0
555, 1842881978, -0.20476834, 0.47420853, 0.16688469, 0.8398503, 1.2358708, 0.14959334, -3.0347228, 0
556, 1842898645, -0.20647107, 0.46571922, 0.1743486, 0.8426629, 2.0848427, 0.26030105, -3.4610276, 0
557, 1842915312, -0.2091647, 0.4554142, 0.18477492, 0.84540474, 1.9897285, -0.02436741, -3.4208698, 0
559, 1842948646, -0.21377392, 0.44198966, 0.18468446, 0.8513754, 0.38973284, -0.7167639, -7.9337034, 0
560, 1842965313, -0.21349457, 0.43891943, 0.17690317, 0.85467994, -0.6439515, -0.6139507, -9.764111, 0
561, 1842981980, -0.2118476, 0.43582606, 0.17015131, 0.8580369, -0.8723629, 0.20135525, -10.625054, 0
563, 1843015314, -0.21075624, 0.42635337, 0.17685986, 0.8617005, -2.937067, 1.467219, -10.36443, 0
564, 1843031981, -0.20855698, 0.4247864, 0.17714441, 0.8629502, -0.041538157, -0.35866424, -6.5081005, 0
567, 1843081982, -0.18972498, 0.43103215, 0.15677437, 0.86812454, -9.504427, -7.7162485, 9.954514, 0
568, 1843098649, -0.18362258, 0.42858034, 0.15346608, 0.87123626, -8.60656, -5.111469, 13.0372925, 0
569, 1843115316, -0.17644872, 0.42586553, 0.14907616, 0.8748047, -8.845209, -3.4807203, 14.137321, 0
571, 1843148650, -0.16251169, 0.41527432, 0.15507236, 0.8815284, -8.045635, -3.6229942, 12.389259, 0
573, 1843181984, -0.14739943, 0.40723214, 0.15832564, 0.8873393, -2.0486379, -4.27575, 6.7486706, 0
575, 1843215318, -0.1390517, 0.40136287, 0.15638681, 0.89169407, 2.1012886, -0.34176764, 4.4716873, 0
576, 1843231985, -0.13912983, 0.39789236, 0.15392718, 0.89366305, 2.9996552, 2.4493346, 4.6631174, 0
577, 1843248652, -0.14045426, 0.39393127, 0.15189494, 0.89555645, 1.4461778, 3.2380517, 5.525344, 0
580, 1843298653, -0.14924812, 0.3911749, 0.14275223, 0.89684546, 0.50703084, 1.609758, 1.4363537, 0
582, 1843331987, -0.15648654, 0.3953718, 0.13890578, 0.89437175, 1.041701, 0.20803694, -0.029819489, 0
583, 1843348654, -0.15863843, 0.39843482, 0.13933347, 0.8925651, 0.92349017, -0.9218596, 0.45584297, 0
584, 1843365321, -0.15979832, 0.4027476, 0.13763551, 0.89068407, 1.0863398, -1.0273274, 0.82164, 0
586, 1843398655, -0.1593867, 0.41178045, 0.1354912, 0.88694835, 1.1350442, -1.7003894, -0.1932354, 0
587, 1843415322, -0.15748131, 0.41602346, 0.13475092, 0.8854203, 1.2989564, -1.1091242, -0.7770748, 0
588, 1843431989, -0.15641013, 0.42008358, 0.13535112, 0.88359964, 1.7792791, -0.4032577, -1.2952213, 0
590, 1843465323, -0.15578982, 0.4303835, 0.13841294, 0.8782619, 0.8594108, 0.39144343, -1.868938, 0
591, 1843481990, -0.15245077, 0.43787482, 0.13694787, 0.87536985, 0.77288514, -0.29475877, -2.1788578, 0
592, 1843498657, -0.14954534, 0.44574192, 0.13655634, 0.8719549, 0.9674604, -0.22582917, -1.8059711, 0
594, 1843531991, -0.1425975, 0.46217245, 0.13620572, 0.8645885, 0.79040307, -0.13932669, -2.615715, 0
596, 1843565325, -0.14075546, 0.47836128, 0.1407825, 0.85530186, 0.41774872, 0.50113404, -3.3570142, 0
598, 1843598659, -0.14016475, 0.4955675, 0.14198555, 0.8453458, -0.49662873, 0.8398944, -3.139954, 0
599, 1843615326, -0.13910508, 0.50281054, 0.14275876, 0.8411028, 0.39370692, 1.190474, -2.9875188, 0
600, 1843631993, -0.13925982, 0.5110888, 0.14174616, 0.8362451, 0.80803585, 0.6566673, -3.2192802, 0
602, 1843665327, -0.14262721, 0.52806956, 0.14170638, 0.82505894, -1.7533054, 1.1788551, -1.9360342, 0
603, 1843681994, -0.14644785, 0.5330806, 0.14303651, 0.82092714, -2.060056, 1.8652384, -0.863431, 0
605, 1843715328, -0.15088305, 0.53976786, 0.14688854, 0.8150531, -0.43501884, 1.3836235, -0.4348545, 0
606, 1843731995, -0.15291806, 0.54370135, 0.14875747, 0.81171346, -0.7398724, 1.1354338, -0.47307873, 0
607, 1843748662, -0.15521753, 0.5467252, 0.1512109, 0.8087873, -0.76568043, 1.276295, -0.18125057, 0
609, 1843781996, -0.1597479, 0.5515547, 0.15691699, 0.80352217, 0.17173639, 0.06785138, 0.45574188, 0
611, 1843815330, -0.16402254, 0.5567667, 0.1578162, 0.79887694, 0.6852754, -0.5257373, 0.5647955, 0
613, 1843848664, -0.1660127, 0.5627906, 0.15185356, 0.7953929, 0.88391244, -0.59495974, -0.06965923, 0
614, 1843865331, -0.16815665, 0.5645443, 0.15236072, 0.7936007, 0.13240144, 0.09880748, 0.5496645, 0
615, 1843881998, -0.17031163, 0.56597173, 0.1540315, 0.7917999, -0.105979644, 0.8075098, 0.9746399, 0
617, 1843915332, -0.17190883, 0.57057685, 0.1517733, 0.788579, 0.67245954, -0.2899966, -0.09455109, 0
618, 1843931999, -0.17283615, 0.5729988, 0.14911044, 0.78712696, -0.30124334, -0.42665392, -0.48806572, 0
619, 1843948666, -0.17446594, 0.57396924, 0.14823145, 0.78622574, -0.28171444, 0.07035707, -0.70193386, 0
621, 1843982000, -0.17826903, 0.57246923, 0.15132773, 0.7858766, 0.09677286, 0.64303, -0.08180809, 0
622, 1843998667, -0.1792384, 0.57079697, 0.15212826, 0.78671736, 0.48006576, -0.037830908, -0.30531502, 0
623, 1844015334, -0.1805741, 0.5671185, 0.15398203, 0.788709, 0.41764367, -0.02601361, -0.72636986, 0
626, 1844065335, -0.18274508, 0.5489757, 0.1554974, 0.8006578, 1.3878742, -0.24497822, -3.544621, 0
627, 1844082002, -0.18030211, 0.54210806, 0.15022355, 0.8068739, 1.3850912, 0.2963881, -4.330121, 0
629, 1844115336, -0.17622972, 0.52328444, 0.13996562, 0.8219057, 0.6033841, 0.9774389, -5.184786, 0
630, 1844132003, -0.17404298, 0.51309144, 0.13075574, 0.83027214, 0.69725657, 0.86005616, -6.1876926, 0
631, 1844148670, -0.17262304, 0.50349945, 0.121319905, 0.8378388, 0.63893294, 0.9832228, -8.087379, 0
633, 1844182004, -0.17668344, 0.48005944, 0.11445284, 0.8516038, -2.1323528, 3.0247297, -9.310051, 0
634, 1844198671, -0.17989272, 0.46787205, 0.11647614, 0.8574208, -1.388784, 2.12321, -7.20453, 0
636, 1844232005, -0.17770422, 0.45110655, 0.11106583, 0.86752, -2.5283277, -0.68431145, -0.88253117, 0
637, 1844248672, -0.17234817, 0.4442464, 0.10766332, 0.87255514, -6.5711493, -3.8393247, 5.0429564, 0
638, 1844265339, -0.16787696, 0.43755803, 0.10707609, 0.87686807, -8.960631, -4.065105, 8.392775, 0
641, 1844315340, -0.15952633, 0.41189682, 0.12675561, 0.88816005, -9.138876, -2.224232, 10.687387, 0
642, 1844332007, -0.1579085, 0.40392193, 0.13977489, 0.890156, -7.2072916, -3.7668254, 7.677166, 0
645, 1844382008, -0.16033338, 0.38832963, 0.15931527, 0.89337265, 3.919486, -3.726017, 4.3846226, 0
646, 1844398675, -0.16170175, 0.38541284, 0.15979336, 0.8943032, 4.4607263, -2.195939, 6.4869957, 0
648, 1844432009, -0.16170721, 0.3810106, 0.15638864, 0.896787, -0.3877539, -1.07179, 8.150757, 0
649, 1844448676, -0.16336808, 0.37920395, 0.15636677, 0.89725554, -0.20323303, 0.8571474, 4.300168, 0
650, 1844465343, -0.16559401, 0.37888116, 0.15385678, 0.8974177, 0.11378106, 1.083958, 1.8368464, 0
653, 1844515344, -0.16892031, 0.3841211, 0.14588633, 0.89589995, 0.62378484, -0.47511056, 0.35545826, 0
654, 1844532011, -0.16934718, 0.3868294, 0.14544806, 0.89472467, 0.09398496, -1.343347, 0.9232836, 0
656, 1844565345, -0.17079362, 0.39251328, 0.14800346, 0.8915496, 0.80622095, -0.015962709, 0.07649231, 0
657, 1844582012, -0.1718283, 0.39574307, 0.14988309, 0.88960665, 0.5830989, 0.0062675825, 0.15397835, 0
659, 1844615346, -0.17536674, 0.4046623, 0.15448563, 0.88409936, 0.33166727, 0.69731146, 0.043574333, 0
660, 1844632013, -0.17606178, 0.41035855, 0.1546065, 0.88131016, 0.4282523, 0.068061985, -0.037643433, 0
661, 1844648680, -0.1763694, 0.41662842, 0.15462284, 0.878299, 0.49823737, -0.1777249, -0.4017105, 0
664, 1844698681, -0.17996149, 0.43709245, 0.15953185, 0.86666965, 0.47782153, -0.6234723, -2.2368574, 0
665, 1844715348, -0.17988482, 0.44578648, 0.16026069, 0.8621108, 0.60014415, -0.12485059, -2.3373485, 0
667, 1844748682, -0.1820232, 0.46242246, 0.16660096, 0.8516337, 0.6370435, -0.004963608, -2.522162, 0
668, 1844765349, -0.18132922, 0.4722858, 0.16849945, 0.84597653, 0.2514108, -0.6763825, -3.2048202, 0
671, 1844815350, -0.17933044, 0.4975493, 0.17746036, 0.8299373, 0.70029175, 0.721809, -3.386557, 0
673, 1844848684, -0.18154101, 0.5131283, 0.18016997, 0.81931895, -0.5581239, 1.0893655, -2.2299242, 0
675, 1844882018, -0.18549952, 0.5250038, 0.18574232, 0.80960685, -0.603315, 0.054093823, -1.339777, 0
676, 1844898685, -0.18660551, 0.53063035, 0.18329765, 0.80623484, -0.05108108, 0.13045506, -1.7993269, 0
677, 1844915352, -0.18761826, 0.53521585, 0.18131956, 0.80341107, -0.3067005, 0.51848197, -1.7363319, 0
679, 1844948686, -0.1939096, 0.53955597, 0.19020529, 0.79693377, -0.5690016, 2.2816663, -0.4776106, 0
680, 1844965353, -0.19718395, 0.542063, 0.19439362, 0.79341036, 0.12567575, 1.8008488, -0.27799416, 0
681, 1844982020, -0.20028149, 0.54464877, 0.19606875, 0.7904459, -0.15769073, 1.3932376, 0.13943577, 0
683, 1845015354, -0.20378807, 0.55142504, 0.19348074, 0.78547347, 0.56254107, 0.826493, 0.7339783, 0
684, 1845032021, -0.20477091, 0.5559391, 0.19127655, 0.7825704, 1.1578429, -0.3782522, 0.73035336, 0
686, 1845065355, -0.20535366, 0.56490856, 0.18790421, 0.7767901, 1.1919012, -0.8440752, 0.13422585, 0
688, 1845098689, -0.20652992, 0.57070625, 0.1846618, 0.7730088, 0.47178277, -0.07835291, 0.13149738, 0
690, 1845132023, -0.20760596, 0.5720287, 0.18424657, 0.7718411, -0.367429, 0.68963575, 1.0309706, 0
691, 1845148690, -0.20722291, 0.57297623, 0.1831878, 0.7714933, 0.76812255, -0.6858728, 0.617754, 0
692, 1845165357, -0.20649484, 0.57431513, 0.18106422, 0.77119416, 0.5389731, -1.2973225, 0.25552464, 0
694, 1845198691, -0.2066364, 0.5730276, 0.18199748, 0.77189386, -0.102996, -0.5498764, -0.021823883, 0
695, 1845215358, -0.20519398, 0.5716406, 0.17986962, 0.77380353, 1.6437184, -0.5024017, -0.6951237, 0
696, 1845232025, -0.2048041, 0.56873417, 0.1789062, 0.77626795, 0.049838807, 0.7042675, -1.02738, 0
698, 1845265359, -0.20364437, 0.55922675, 0.1803129, 0.78312474, 0.719301, -0.13490589, -0.7961168, 0
699, 1845282026, -0.20232743, 0.55439633, 0.18003444, 0.78695536, 0.68266046, -0.35285103, -1.2704773, 0
700, 1845298693, -0.2006746, 0.5486352, 0.17848502, 0.79175436, 1.241199, 0.2951055, -2.0225382, 0
703, 1845348694, -0.18781544, 0.52947706, 0.16477585, 0.8106979, 0.29095152, -0.5427692, -2.82485, 0
704, 1845365361, -0.1833862, 0.52045816, 0.15893883, 0.818678, 0.187055, 0.20351475, -3.3858318, 0
706, 1845398695, -0.17674449, 0.50170845, 0.14375898, 0.8344976, -0.088396214, 1.3635505, -6.762885, 0
707, 1845415362, -0.17627344, 0.49162886, 0.14145496, 0.840965, -1.1074567, 3.3475392, -7.7146397, 0
708, 1845432029, -0.17622346, 0.48114693, 0.14595917, 0.8462514, -2.6071148, 2.4024076, -8.953408, 0
710, 1845465363, -0.1807047, 0.4579064, 0.16706206, 0.8542601, -2.1058843, 2.7461188, -4.7069216, 0
711, 1845482030, -0.1799139, 0.45041597, 0.16818403, 0.8581803, -1.1922755, -0.53973854, -1.7668781, 0
712, 1845498697, -0.17664436, 0.4453342, 0.16139609, 0.8628025, -4.33761, -2.5070772, 2.7173948, 0
714, 1845532031, -0.16990541, 0.43230546, 0.15808237, 0.87135327, -7.037371, -4.6955967, 6.6416607, 0
715, 1845548698, -0.16843168, 0.42137504, 0.17091365, 0.8745656, -6.765763, -2.4552934, 7.093626, 0
718, 1845598699, -0.16666484, 0.39623865, 0.19703017, 0.8811353, 0.7052269, -0.8119389, 3.3764763, 0
719, 1845615366, -0.16932747, 0.3919002, 0.19779758, 0.8823952, 2.5916166, -1.0446723, 5.772748, 0
721, 1845648700, -0.17824443, 0.38314182, 0.19903556, 0.8842052, 1.2393616, -1.9212838, 9.110418, 0
722, 1845665367, -0.18091919, 0.3798507, 0.20069298, 0.8847072, 0.74301463, -1.4185191, 9.09709, 0
725, 1845715368, -0.18861514, 0.38005164, 0.20207042, 0.8826977, 0.27503723, -1.2179362, 2.886201, 0
726, 1845732035, -0.18891148, 0.38280696, 0.20199487, 0.8814602, 0.6924794, -1.953409, 2.522541, 0
727, 1845748702, -0.1887067, 0.3860975, 0.20267797, 0.8799107, 0.8938216, -2.0270767, 2.1087942, 0
729, 1845782036, -0.18813698, 0.39507225, 0.2023891, 0.87610716, 1.050681, -1.2711055, 2.06713, 0
730, 1845798703, -0.18785343, 0.4004241, 0.20153254, 0.8739332, 0.76530635, -0.8543611, 1.8669615, 0
731, 1845815370, -0.18780157, 0.40583295, 0.20056538, 0.87166876, 0.47899553, -0.6952285, 1.5571613, 0
733, 1845848704, -0.1907461, 0.41434136, 0.20307902, 0.8664288, 0.3864229, 0.4422568, 1.0948086, 0
737, 1845915372, -0.21221806, 0.42580602, 0.21523717, 0.8528355, -0.09941588, 1.1945717, -0.64221287, 0
738, 1845932039, -0.21887115, 0.43026483, 0.21586691, 0.8487472, -0.1909293, 0.619413, -1.5152559, 0
740, 1845965373, -0.23217475, 0.4377684, 0.2155146, 0.84143317, -0.12076578, -1.2794915, -3.5470767, 0
741, 1845982040, -0.24005571, 0.43995473, 0.21737306, 0.8375946, -0.8509469, -2.126418, -4.6529016, 0
742, 1845998707, -0.24797656, 0.44152635, 0.2170153, 0.8345474, -1.3317822, -1.2914637, -5.260487, 0
745, 1846048708, -0.2632338, 0.44757122, 0.20851527, 0.8288015, -0.0976879, 0.67102146, -3.891271, 0
746, 1846065375, -0.26838166, 0.44822323, 0.20844719, 0.8268128, 1.7262967, 0.8212727, -3.417996, 0
748, 1846098709, -0.28088993, 0.4498627, 0.20980519, 0.82140666, -0.838304, 1.1802058, -1.7645969, 0
750, 1846132043, -0.28767738, 0.45530695, 0.2034264, 0.8176538, 0.21313363, 0.84724915, -0.8254051, 0
752, 1846165377, -0.29159713, 0.46085766, 0.20736024, 0.81214875, 1.5441281, -0.34305653, -0.5944605, 0
753, 1846182044, -0.2921089, 0.46561992, 0.20700945, 0.8093333, 1.3015276, -1.525812, -0.9539156, 0
754, 1846198711, -0.2914721, 0.47201276, 0.20360836, 0.80671835, 0.8676488, -1.13721, -1.1103182, 0
756, 1846232045, -0.28708807, 0.48306274, 0.19973911, 0.80270666, 0.12667666, -0.8692956, -0.9786806, 0
758, 1846265379, -0.28161514, 0.49259597, 0.19686995, 0.7995543, -1.125954, -2.819425, -0.23142529, 0
760, 1846298713, -0.27892593, 0.49934, 0.18983372, 0.79801357, 0.009541418, -3.664594, 1.2624683, 0
761, 1846315380, -0.27706876, 0.5025283, 0.18554601, 0.7976675, -1.4835418, -1.3939064, 1.7343111, 0
762, 1846332047, -0.27412552, 0.5054715, 0.18211785, 0.7976149, -0.19156435, -0.593654, 1.4202595, 0
764, 1846365381, -0.26753408, 0.51289093, 0.17546673, 0.7966069, 0.3588057, 1.2129762, 1.233964, 0
766, 1846398715, -0.25812483, 0.5211063, 0.16925722, 0.7957226, 2.0133646, 0.68611133, 2.8232088, 0
768, 1846432049, -0.24446441, 0.5277569, 0.17398739, 0.7946327, 1.9300847, -0.43041354, 1.7357464, 0
769, 1846448716, -0.23684768, 0.52989364, 0.17702359, 0.7948468, 2.3542063, -0.04434745, 0.75291824, 0
771, 1846482050, -0.22582328, 0.53097713, 0.18254802, 0.7960817, 0.10162162, 1.464376, 0.21848011, 0
772, 1846498717, -0.22296676, 0.52867424, 0.19279647, 0.79600346, 0.09176204, 2.2635157, -0.8700571, 0
773, 1846515384, -0.2200366, 0.52747816, 0.2014384, 0.79547215, 0.18360628, 2.2353325, -1.300808, 0
775, 1846548718, -0.21485329, 0.52991897, 0.20429419, 0.79453784, 0.33193767, -0.011232811, -4.0346704, 0
776, 1846565385, -0.21213385, 0.53203666, 0.19984105, 0.7949857, 0.53900504, -1.1499304, -3.6667728, 0
777, 1846582052, -0.20920937, 0.5339731, 0.19382131, 0.79595226, 1.6602563, -1.6452048, -2.5929542, 0
779, 1846615386, -0.20290296, 0.5362888, 0.18040437, 0.79917556, 3.0513344, -1.8781604, -1.5466146, 0
781, 1846648720, -0.19319662, 0.5380622, 0.15395308, 0.80589396, 1.984743, -0.181863, -2.4243355, 0
783, 1846682054, -0.17987841, 0.5342078, 0.12967414, 0.8157531, 3.0615072, 0.3146212, -2.827711, 0
785, 1846715388, -0.16674918, 0.525923, 0.10130064, 0.827853, 2.1356704, -0.7684666, -4.341468, 0
788, 1846765389, -0.1643189, 0.4981939, 0.10888579, 0.84436303, -0.71103525, -1.6695119, -7.8335032, 0
789, 1846782056, -0.1638705, 0.49051735, 0.10699378, 0.84917265, -1.4006063, -1.7644083, -8.754305, 0
791, 1846815390, -0.15586731, 0.47911245, 0.080125056, 0.86008096, -3.0164747, -6.225363, -3.3101459, 0
792, 1846832057, -0.15174268, 0.4701795, 0.07512218, 0.8661782, -4.17963, -1.2242537, -0.772624, 0
794, 1846865391, -0.15038334, 0.45423502, 0.06511205, 0.87568176, -12.724372, 2.2495205, 3.1890697, 0
795, 1846882058, -0.15613982, 0.4434402, 0.065716684, 0.8801508, -11.760867, 2.0797894, 2.656968, 0
796, 1846898725, -0.16561915, 0.43325987, 0.06317934, 0.88366693, -10.022686, 0.6888375, 5.2491016, 0
799, 1846948726, -0.18636465, 0.4172324, 0.0073427744, 0.8894572, 0.44457382, 2.223685, 5.5042677, 0
800, 1846965393, -0.18695304, 0.40708, -7.432122E-4, 0.8940564, 4.807716, 4.0685844, 10.965525, 0
802, 1846998727, -0.19233593, 0.38064492, -0.0020479579, 0.904497, 0.72598207, 4.8239183, 20.355396, 0
803, 1847015394, -0.19255197, 0.36883262, -0.0069772974, 0.90930766, 1.1534, 1.6430265, 13.93141, 0
804, 1847032061, -0.19293813, 0.35988146, -0.010781255, 0.91276866, 3.3790495, -0.29641417, 3.1139135, 0
806, 1847065395, -0.2030343, 0.3505623, -0.004845999, 0.91425514, -2.014328, 3.2298367, 1.5702696, 0
807, 1847082062, -0.20914802, 0.35087144, -0.0015478749, 0.9127686, -1.1251988, 2.6470842, 1.2231112, 0
808, 1847098729, -0.21549022, 0.35325843, 0.00450869, 0.91035974, -0.8740381, 2.070264, 0.9601202, 0
810, 1847132063, -0.22893777, 0.36020815, 0.020056672, 0.90412277, -0.184853, 1.2286315, 1.5541124, 0
811, 1847148730, -0.23631245, 0.36524928, 0.027663568, 0.89999276, -0.22914556, 1.9333477, 0.8931036, 0
812, 1847165397, -0.24290529, 0.36958736, 0.03806158, 0.89607817, 0.21681641, 2.563138, 1.5408726, 0
814, 1847198731, -0.25409815, 0.37954473, 0.06054815, 0.8875341, 0.113614604, 0.3609867, 1.2630539, 0
818, 1847265399, -0.26046395, 0.40478784, 0.09994701, 0.87081504, -0.6761717, -1.313607, 0.19507504, 0
819, 1847282066, -0.25780103, 0.41195023, 0.10677178, 0.8674318, 0.13634339, -1.2740388, -0.05690384, 0
822, 1847332067, -0.24220678, 0.43835706, 0.12992188, 0.85574645, -0.67269284, -0.9269484, -2.1473145, 0
826, 1847398735, -0.21698643, 0.47428533, 0.1611507, 0.8378565, -0.63722694, -1.9377663, -3.534505, 0
827, 1847415402, -0.21044117, 0.48078388, 0.16829978, 0.8344094, -0.019932901, -1.9982098, -3.100793, 0
829, 1847448736, -0.20037086, 0.4891899, 0.18478012, 0.8284948, -0.13939874, -0.17987071, -3.2003798, 0
830, 1847465403, -0.19689906, 0.4917957, 0.19417101, 0.82563186, 0.31154504, 0.48599088, -3.0020027, 0
834, 1847532071, -0.1872927, 0.5051833, 0.2164009, 0.8141772, 0.97928435, -0.76868516, -3.003818, 0
835, 1847548738, -0.18715297, 0.50804025, 0.22109723, 0.8111643, 1.680259, -0.57203513, -1.4789009, 0
837, 1847582072, -0.1862886, 0.515707, 0.2231135, 0.8059565, 1.3721839, 0.71966296, -0.99223614, 0
838, 1847598739, -0.18504415, 0.5206231, 0.22157727, 0.8035026, 1.1496211, 0.4290537, 0.016633034, 0
839, 1847615406, -0.18277417, 0.5257879, 0.21925604, 0.801293, 1.6329526, 0.3705654, 0.04262352, 0
841, 1847648740, -0.1776258, 0.5380265, 0.22019938, 0.7940349, 1.1459157, 0.5584242, 0.5194473, 0
842, 1847665407, -0.1755513, 0.5440325, 0.22137737, 0.7900666, 0.94567716, 0.4445244, 0.048444748, 0
843, 1847682074, -0.17303722, 0.55000484, 0.22039542, 0.78675395, 1.7421784, -0.6503381, 0.9731884, 0
845, 1847715408, -0.16480565, 0.55952483, 0.20786598, 0.7852168, 1.8424021, -0.28488475, -0.23438644, 0
846, 1847732075, -0.15871611, 0.56126624, 0.19946083, 0.78740543, 2.1441927, 0.06848364, -0.1995573, 0
849, 1847782076, -0.14777774, 0.56463426, 0.18219227, 0.7913019, 1.2413199, 2.5920672, -0.61017513, 0
850, 1847798743, -0.14360364, 0.56595105, 0.17123787, 0.79357284, 2.561229, 1.0749837, -1.2075548, 0
852, 1847832077, -0.13420033, 0.5648612, 0.15020783, 0.8002265, 1.9807537, 0.039418157, -3.8243113, 0
853, 1847848744, -0.13319226, 0.5610003, 0.14265145, 0.8044822, 0.76715136, 0.8201275, -3.1074953, 0
854, 1847865411, -0.13209441, 0.5541644, 0.13657059, 0.81043434, 0.6595911, -0.40354788, -3.245216, 0
856, 1847898745, -0.130283, 0.5348338, 0.12369413, 0.82564014, 1.0823952, -1.3835814, -5.43302, 0
857, 1847915412, -0.13000543, 0.525011, 0.11807977, 0.8327796, -0.010689535, -3.317604, -6.262649, 0
858, 1847932079, -0.12824295, 0.51551276, 0.10587117, 0.8405916, -1.6923796, -5.0367866, -6.076972, 0
860, 1847965413, -0.12129273, 0.4990997, 0.06802592, 0.8553145, -4.724139, -4.8860984, -4.1758747, 0
861, 1847982080, -0.12565829, 0.4864582, 0.071364835, 0.8616716, -2.2134788, 6.2503147, 3.4217405, 0
865, 1848048748, -0.14926124, 0.4423754, 0.06479783, 0.8819461, -11.585004, 1.4005345, 11.297909, 0
866, 1848065415, -0.15335572, 0.43152073, 0.055310152, 0.88725173, -9.028389, 1.7377771, 9.261557, 0
868, 1848098749, -0.15902919, 0.41406536, 0.026305195, 0.8958629, -1.1783415, 2.5029151, 2.4015894, 0
869, 1848115416, -0.16235158, 0.40966636, 0.0064797923, 0.89765036, 1.4873774, 2.2134783, 0.12552547, 0
870, 1848132083, -0.1640008, 0.40382025, 2.331566E-4, 0.9000198, 6.1525993, 3.2405002, 0.4579544, 0
872, 1848165417, -0.1636839, 0.38968453, 0.010412631, 0.9062274, 3.8791144, -1.9351931, 7.2496376, 0
873, 1848182084, -0.16216764, 0.3833584, 0.0119392965, 0.9091745, 0.8660531, -3.567941, 7.66959, 0
875, 1848215418, -0.15690702, 0.37624076, 0.013729247, 0.9130374, 0.14425084, 0.31328905, -1.1959524, 0
876, 1848232085, -0.15479329, 0.37427768, 0.013694182, 0.91420484, 0.9648537, 1.8454572, -1.2931919, 0
877, 1848248752, -0.15237325, 0.37457493, 0.00959203, 0.91454184, 1.7583569, 1.53579, -1.989923, 0
881, 1848315420, -0.15788405, 0.3866164, 0.011918288, 0.9085489, -0.09700308, 1.3035963, -0.05396366, 0
883, 1848348754, -0.15949114, 0.3970628, 0.014313103, 0.9037155, 0.70911187, 0.71098435, -1.0633554, 0
884, 1848365421, -0.16016203, 0.4025955, 0.01894095, 0.90105987, 0.46821448, 0.42681652, -1.483202, 0
885, 1848382088, -0.16086932, 0.4082312, 0.024780894, 0.89825207, 1.1073941, 0.110500194, -1.1319647, 0
887, 1848415422, -0.15947117, 0.42154852, 0.03700269, 0.8919077, 0.8405872, 0.43483093, -1.7447519, 0
888, 1848432089, -0.15799347, 0.42820147, 0.04552261, 0.88860124, 0.92937315, 0.16499682, -1.967628, 0
889, 1848448756, -0.15636432, 0.435141, 0.05656201, 0.88487625, 0.8813789, -0.22176103, -2.1089158, 0
891, 1848482090, -0.15340286, 0.4494886, 0.075757556, 0.87675035, 1.2905152, -0.72108084, -1.475563, 0
892, 1848498757, -0.15268075, 0.45691654, 0.083226815, 0.87234855, 1.8112209, -0.24044569, -1.571147, 0
893, 1848515424, -0.1534825, 0.4635696, 0.094075784, 0.86758214, 1.2777368, -0.25046718, -1.0072374, 0
895, 1848548758, -0.15622962, 0.4771931, 0.11861952, 0.85662776, 0.8767805, 0.7057174, -1.3226166, 0
896, 1848565425, -0.15811278, 0.48562545, 0.1307527, 0.8497498, 0.84780526, 1.0361665, -1.5661469, 0
897, 1848582092, -0.15952902, 0.49394614, 0.14114942, 0.842999, 0.9626712, 0.6939945, -1.0611572, 0
899, 1848615426, -0.16049275, 0.51215225, 0.15373135, 0.82964545, 0.48525703, -1.2384424, -1.2671623, 0
900, 1848632093, -0.16198425, 0.5188371, 0.1608476, 0.82383245, -0.09144228, -0.88467467, -1.1736698, 0
901, 1848648760, -0.16340907, 0.5239008, 0.16693713, 0.81912154, 1.2919724, -1.126905, 0.045541763, 0
903, 1848682094, -0.1617096, 0.5390476, 0.17111817, 0.8087021, 1.1517642, -1.5674341, -0.6568041, 0
904, 1848698761, -0.15948321, 0.5468358, 0.17138454, 0.80384415, 0.89570403, -2.0835748, -0.52057266, 0
906, 1848732095, -0.15653332, 0.5580344, 0.17342073, 0.7962556, 0.6712337, -1.054703, -0.043995857, 0
908, 1848765429, -0.15173632, 0.56603765, 0.1731125, 0.7915884, 1.1747117, -1.1236311, 0.8005848, 0
910, 1848798763, -0.14545402, 0.57430303, 0.17297009, 0.7868313, 0.27496785, 0.2601829, -0.07711983, 0
911, 1848815430, -0.14386585, 0.5776985, 0.17604236, 0.7839507, 0.8721585, 0.2815576, -0.30489254, 0
912, 1848832097, -0.14241996, 0.5816857, 0.17804797, 0.78080714, 1.2917427, -0.77792746, -0.22020245, 0
914, 1848865431, -0.13561058, 0.5928774, 0.17134377, 0.77508086, 1.9957337, -1.5806053, 0.34095955, 0
915, 1848882098, -0.13249354, 0.59894776, 0.16636865, 0.7720306, 0.47578198, -0.37800568, -0.9501724, 0
916, 1848898765, -0.13114867, 0.60238886, 0.16452539, 0.7699752, 0.24094686, 1.0751599, -1.3259058, 0
918, 1848932099, -0.13128804, 0.6048426, 0.16385342, 0.7681689, 0.9452185, 1.2355775, -0.67344284, 0
919, 1848948766, -0.13060129, 0.60597026, 0.1601695, 0.7681743, 1.1771147, 0.2104531, -0.57980156, 0
920, 1848965433, -0.12879795, 0.6070934, 0.15404116, 0.7688451, 1.2245009, -0.81498134, -0.86849594, 0
924, 1849032101, -0.12935413, 0.5955751, 0.1380296, 0.78071016, 1.0994333, 0.3677446, -1.725318, 0
926, 1849065435, -0.1308405, 0.5831721, 0.12803939, 0.79145414, 1.4620315, -0.6006172, -2.5718393, 0
927, 1849082102, -0.13466953, 0.57340926, 0.1270849, 0.7980715, 0.14440072, -0.84373707, -2.6752982, 0
929, 1849115436, -0.14426878, 0.5494031, 0.12374192, 0.81365424, -0.07157801, -2.113217, -3.920055, 0
930, 1849132103, -0.14711882, 0.53651345, 0.11792591, 0.82256037, -0.69667715, -0.73699117, -4.160901, 0
931, 1849148770, -0.14740369, 0.52426267, 0.108627066, 0.8316391, -1.1702311, -1.8953203, -5.5452647, 0
933, 1849182104, -0.15161675, 0.49941915, 0.10030734, 0.84707403, -1.7051159, 3.0916357, -0.12096596, 0
934, 1849198771, -0.15322916, 0.48997876, 0.09930661, 0.85239804, -7.6983166, -4.0726967, 3.3496428, 0
935, 1849215438, -0.15395318, 0.48260936, 0.09226558, 0.8572493, -8.4574175, -6.440912, 4.8174314, 0
937, 1849248772, -0.15575008, 0.46386313, 0.08762313, 0.86769676, -9.804896, 0.23048991, 9.869181, 0
939, 1849282106, -0.15520538, 0.45434004, 0.06756399, 0.87459934, -8.678797, 0.8138434, 5.984152, 0
941, 1849315440, -0.15717447, 0.449072, 0.041783184, 0.8785713, -2.4954555, 7.476653, 4.9571314, 0
942, 1849332107, -0.15829745, 0.4454201, 0.03324659, 0.8805908, 1.9779993, 4.3281784, 6.4484367, 0
945, 1849382108, -0.16883886, 0.43319258, 0.040977374, 0.8843988, 3.1724331, -0.11659827, 8.10026, 0
946, 1849398775, -0.1711396, 0.43137634, 0.046524152, 0.8845698, 2.4151347, -2.1860335, 3.4264164, 0
947, 1849415442, -0.17477505, 0.43056434, 0.0544049, 0.8838047, 1.6436809, 0.23130473, 0.4108429, 0
949, 1849448776, -0.18282999, 0.4314077, 0.07367552, 0.88036084, -0.61257, 1.9937925, -0.5643015, 0
950, 1849465443, -0.18590233, 0.43419152, 0.08046451, 0.87775064, -0.6165638, 1.6585903, -1.302412, 0
953, 1849515444, -0.19483884, 0.44477674, 0.10551234, 0.86780244, 0.7984253, 0.24805792, -1.875639, 0
954, 1849532111, -0.19980243, 0.44617033, 0.11834886, 0.8642959, 1.1798344, 0.37535784, -1.9723263, 0
957, 1849582112, -0.2101886, 0.4523882, 0.15183443, 0.8532963, 2.3357148, -0.6007331, -1.3024645, 0
958, 1849598779, -0.21446142, 0.45488596, 0.16486649, 0.8484732, 1.9529712, -0.29946935, -1.3324652, 0
960, 1849632113, -0.22011429, 0.46134162, 0.19192599, 0.8377833, 1.0679059, -0.14511405, -3.0574741, 0
961, 1849648780, -0.22172777, 0.46358007, 0.20161216, 0.8338379, 1.2340648, -0.56700987, -3.6372714, 0
962, 1849665447, -0.2218985, 0.4681399, 0.20673186, 0.82998234, 1.9432552, -1.6789728, -3.9537363, 0
964, 1849698781, -0.22130701, 0.4781447, 0.20898859, 0.8238492, 1.2679981, -1.9892658, -3.6877923, 0
965, 1849715448, -0.21971041, 0.48233464, 0.20986056, 0.82160926, 0.8047522, -2.2621791, -3.3763237, 0
966, 1849732115, -0.218066, 0.4849559, 0.21216542, 0.81991065, 0.9838163, -2.349411, -2.0041518, 0
968, 1849765449, -0.21847318, 0.48678932, 0.2157354, 0.81778157, 0.83786535, 0.49680197, 0.11694813, 0
970, 1849798783, -0.22044411, 0.49340364, 0.2070623, 0.81552756, 0.5792111, 0.88125557, -0.56130314, 0
972, 1849832117, -0.21599817, 0.50448096, 0.18246636, 0.81581414, 1.2124593, -0.58248854, 0.711359, 0
973, 1849848784, -0.2111705, 0.5094325, 0.1680734, 0.8170922, 1.5895776, -1.4717011, 0.3468275, 0
974, 1849865451, -0.20719507, 0.5112826, 0.15951802, 0.81866795, 1.8275918, -2.2430968, -0.13648415, 0
976, 1849898785, -0.1999608, 0.5121148, 0.15256709, 0.82126725, 0.7794731, -0.121520974, -0.28990078, 0
977, 1849915452, -0.19477855, 0.5121809, 0.15025204, 0.82289666, 0.48794517, -0.53766555, 0.014353752, 0
978, 1849932119, -0.18901403, 0.5128049, 0.14594361, 0.824626, -0.47989103, -1.4676563, -1.1927719, 0
980, 1849965453, -0.18381277, 0.5129441, 0.14016972, 0.82671404, 0.43398088, 2.1664631, -0.16479969, 0
981, 1849982120, -0.18278225, 0.5142711, 0.13725889, 0.8266067, 0.05617699, 1.924981, 1.0996857, 0
984, 1850032121, -0.17246129, 0.5205017, 0.10737217, 0.82934254, 0.05252472, -2.225779, 1.4553728, 0
987, 1850082122, -0.15314496, 0.5165631, 0.09414453, 0.83716714, -0.7846013, -0.71045953, 0.28781033, 0
988, 1850098789, -0.14752364, 0.513183, 0.09312479, 0.84036326, -1.4714172, 1.065888, -0.53562355, 0
989, 1850115456, -0.14313327, 0.50963396, 0.09203318, 0.8433971, -1.4364064, 1.6700032, -1.2239676, 0
991, 1850148790, -0.14003417, 0.5038933, 0.09107557, 0.847461, 0.27201146, 0.9300679, -0.7274847, 0
992, 1850165457, -0.13967952, 0.50414485, 0.08623625, 0.8478758, 0.88459134, 0.3111363, -1.0056143, 0
993, 1850182124, -0.14155309, 0.50455487, 0.084889956, 0.847457, -0.6061909, 0.8522086, -1.2172937, 0
995, 1850215458, -0.14571017, 0.5061209, 0.07985127, 0.8463076, -0.6100751, 0.2685796, -0.81754684, 0
996, 1850232125, -0.14824884, 0.5052831, 0.08156817, 0.8462036, -0.18306972, 0.9319357, -0.29058266, 0
997, 1850248792, -0.15032187, 0.50408775, 0.08645622, 0.84606564, 0.37303087, 1.2209603, -0.14892769, 0
999, 1850282126, -0.15610796, 0.5008355, 0.09839265, 0.8456453, 0.92017365, 1.5766561, 1.4967947, 0
1001, 1850315460, -0.16414785, 0.49792662, 0.10251066, 0.8453512, 2.0026798, -0.15263928, 0.07225323, 0
1003, 1850348794, -0.17175213, 0.4936611, 0.10533394, 0.84599483, 1.770894, 0.3614497, -1.1824379, 0
1004, 1850365461, -0.17582977, 0.4902649, 0.1091005, 0.84665465, 1.1545075, 0.56027544, -1.7918892, 0
1005, 1850382128, -0.17971921, 0.48648646, 0.11303912, 0.8475003, 1.0687548, 0.91081536, -2.7000718, 0
1007, 1850415462, -0.1863034, 0.47754955, 0.1197425, 0.8502363, 1.2773687, -0.45465472, -3.6184483, 0
1008, 1850432129, -0.18901597, 0.4727674, 0.1206651, 0.85217744, 2.283189, -0.08030064, -3.3339095, 0
1010, 1850465463, -0.19402122, 0.4601944, 0.12927696, 0.8566603, 0.3191429, 0.6763965, -3.7290459, 0
1011, 1850482130, -0.1958117, 0.4532607, 0.13353543, 0.8592925, 0.41017315, 0.42077783, -3.3791232, 0
1012, 1850498797, -0.1970604, 0.44705027, 0.13519049, 0.8619973, 0.29032907, 0.7881268, -4.962133, 0
1014, 1850532131, -0.19915363, 0.43710795, 0.13176559, 0.86713034, -0.7557818, 1.1121405, -8.724611, 0
1016, 1850565465, -0.19901949, 0.43005657, 0.13699348, 0.86987257, -5.5437813, 0.90508854, -7.799861, 0
1018, 1850598799, -0.20280075, 0.42198995, 0.15800713, 0.8693865, -4.4639187, -2.4511857, 5.4091854, 0
1020, 1850632133, -0.20052671, 0.41988575, 0.15253966, 0.87190574, -6.842012, -9.724505, 11.763613, 0
1022, 1850665467, -0.19309145, 0.4001885, 0.17457928, 0.87868625, -7.06568, -3.5533967, 11.792276, 0
1024, 1850698801, -0.18460613, 0.38159123, 0.17753775, 0.8881395, -0.049887825, -3.7251768, 8.959597, 0
1026, 1850732135, -0.19069439, 0.35473615, 0.19540443, 0.8942135, 4.848988, 4.597396, 6.7807674, 0
1027, 1850748802, -0.18971336, 0.34871548, 0.19179688, 0.89756495, 9.72158, 0.83677006, 10.431847, 0
1028, 1850765469, -0.18633637, 0.34558055, 0.18099637, 0.90171826, 4.5067267, -4.0617247, 14.103035, 0
1030, 1850798803, -0.18730257, 0.33644682, 0.17256355, 0.9066122, 0.43541312, 4.8184495, 0.43128395, 0
1031, 1850815470, -0.18534356, 0.33693683, 0.16631387, 0.9079998, 0.4075733, 3.1654897, -2.0821943, 0
1034, 1850865471, -0.17353684, 0.3511574, 0.1556339, 0.9068376, 0.5852825, -1.8098855, -1.3107615, 0
1035, 1850882138, -0.16983555, 0.3574381, 0.15471125, 0.90524083, 0.65528196, -1.3251934, -1.4959173, 0
1036, 1850898805, -0.16626583, 0.36392483, 0.15478142, 0.90330493, -0.011908156, -0.7417909, -0.9271593, 0
1038, 1850932139, -0.15855889, 0.37926778, 0.1527672, 0.8987102, 0.4841086, -0.31481516, -1.6960058, 0
1039, 1850948806, -0.15312669, 0.38747498, 0.14931867, 0.8967285, 1.1925243, -0.5415087, -0.44972515, 0
1041, 1850982140, -0.14374313, 0.40557054, 0.14332488, 0.8912413, 1.1690722, -0.15738568, -1.0619192, 0
1042, 1850998807, -0.1382923, 0.41623938, 0.13771158, 0.8880642, 1.1371171, 0.37798446, -1.7765646, 0
1043, 1851015474, -0.13215417, 0.42687994, 0.13284618, 0.8846826, 0.607217, -0.22189014, -1.8310304, 0
1045, 1851048808, -0.119875, 0.45025128, 0.12427305, 0.87604946, 0.8040625, -0.11336411, -3.2857542, 0
1046, 1851065475, -0.11409241, 0.46203417, 0.12273003, 0.87088895, 0.4248902, 0.18990313, -3.3263187, 0
1049, 1851115476, -0.10441866, 0.49425048, 0.12861425, 0.85339, -0.49394667, 1.7642394, -2.2067542, 0
1050, 1851132143, -0.1047063, 0.50406593, 0.12628585, 0.8479439, -1.6315904, 1.3360137, -1.2835789, 0
1051, 1851148810, -0.10701467, 0.51434964, 0.13097928, 0.84073746, -1.5783578, 2.1355643, -1.9194889, 0
1053, 1851182144, -0.111636505, 0.5321366, 0.13913605, 0.8276545, -1.7423635, 1.3539463, -0.51828766, 0
1054, 1851198811, -0.11644355, 0.53849673, 0.14671178, 0.8215476, -0.6580619, 2.066928, -0.62814045, 0
1057, 1851248812, -0.12914671, 0.5515053, 0.15338385, 0.80971545, -0.11434058, 0.2019306, 0.6944647, 0
1059, 1851282146, -0.14035857, 0.5633753, 0.15443526, 0.79941225, 0.30230233, 0.112586185, -0.89172935, 0
1061, 1851315480, -0.14694948, 0.56924146, 0.1542132, 0.7940976, 1.1327657, -0.9985345, 0.3799076, 0
1062, 1851332147, -0.14876533, 0.57250184, 0.15430826, 0.7913927, 1.8547605, -1.0719355, 0.11712742, 0
1065, 1851382148, -0.15347987, 0.57831246, 0.15169229, 0.7867596, 1.5392289, 0.796037, 0.054691315, 0
1066, 1851398815, -0.15408587, 0.5797342, 0.15112388, 0.7857036, 2.0124278, 1.4549291, 0.32171345, 0
1068, 1851432149, -0.15927643, 0.58387643, 0.15312071, 0.7812018, 1.3831407, 0.4500087, 0.56222343, 0
1069, 1851448816, -0.16107455, 0.58358204, 0.14201108, 0.78314924, 0.83612055, -2.0316107, 1.9823647, 0
1070, 1851465483, -0.16350389, 0.58595306, 0.14076354, 0.7810978, 1.8853465, 1.2005991, -2.6714396, 0
1072, 1851498817, -0.1712152, 0.5839296, 0.14156479, 0.78081614, 1.1137376, 0.48814586, 0.20277596, 0
1073, 1851515484, -0.17536834, 0.58116525, 0.14358737, 0.781587, 2.0201237, 0.2635031, -1.1448574, 0
1074, 1851532151, -0.17874648, 0.5783459, 0.14448285, 0.7827472, 1.8796128, -0.5373817, -1.7308826, 0
1076, 1851565485, -0.18122625, 0.5680217, 0.14191507, 0.7901715, 1.7313033, -0.37226334, -1.8469348, 0
1077, 1851582152, -0.18238713, 0.56044436, 0.14275116, 0.7951489, 1.4226936, 0.054357067, -1.5594854, 0
1080, 1851632153, -0.18632539, 0.53154266, 0.13794413, 0.81468976, 0.54078525, 0.9413795, -4.2126193, 0
1081, 1851648820, -0.18788268, 0.5219934, 0.13331494, 0.82125086, -0.31675413, 1.3629888, -4.6966324, 0
1082, 1851665487, -0.18809529, 0.5131716, 0.12722929, 0.82770187, -0.7481615, 0.08832001, -5.292301, 0
1084, 1851698821, -0.1894619, 0.4926979, 0.12299557, 0.84037346, -1.5936426, 1.5461634, -6.8302884, 0
1086, 1851732155, -0.19209725, 0.47230625, 0.12887634, 0.85054034, -4.565041, 2.8938549, -7.224727, 0
1088, 1851765489, -0.1924032, 0.45174816, 0.1493006, 0.8582637, -1.0356193, -0.66427696, 2.7973547, 0
1090, 1851798823, -0.1857996, 0.4448582, 0.1326908, 0.8660112, -5.803266, -7.780402, 9.458757, 0
1092, 1851832157, -0.18360929, 0.42089072, 0.16076548, 0.873668, -7.9929833, -2.0243096, 10.186916, 0
1093, 1851848824, -0.18266548, 0.4115942, 0.17010176, 0.8765225, -6.6316624, -1.0354294, 7.4218063, 0
1095, 1851882158, -0.18087102, 0.39721826, 0.17874552, 0.88179153, -0.6200941, -1.2186729, 2.551363, 0
1097, 1851915492, -0.18220122, 0.3823237, 0.19164653, 0.88538444, 6.990883, 0.08608504, 5.8214617, 0
1099, 1851948826, -0.18578492, 0.37349954, 0.18813589, 0.88915116, 1.6157683, -2.015447, 10.249577, 0
1100, 1851965493, -0.189764, 0.36856908, 0.1880171, 0.8903926, -0.18276848, 0.6769953, 6.2849903, 0
1101, 1851982160, -0.19308531, 0.36606348, 0.18542567, 0.89125496, 0.64923394, 1.4033834, 1.9437599, 0
1103, 1852015494, -0.19590573, 0.36680987, 0.17781737, 0.89188296, 1.1392736, -0.7152328, -0.14533806, 0
1104, 1852032161, -0.19600911, 0.36759162, 0.17796454, 0.89150894, 1.8450967, -0.43281433, 0.1347456, 0
1105, 1852048828, -0.1948927, 0.37296098, 0.17397764, 0.89030975, -0.05718188, -2.1829588, -1.591775, 0
1107, 1852082162, -0.1904304, 0.38498467, 0.16546056, 0.8877772, 0.08497175, -0.7284333, 0.23405743, 0
1108, 1852098829, -0.18826361, 0.3899307, 0.1667778, 0.8858322, 0.83932483, -0.019588144, -1.0488625, 0
1109, 1852115496, -0.18725418, 0.3957496, 0.1648766, 0.8838194, 0.7836372, 0.7950406, -0.4594307, 0
1112, 1852165497, -0.18255517, 0.4214742, 0.15586048, 0.874496, -0.25095576, -0.351373, -2.4343452, 0
1113, 1852182164, -0.1807994, 0.43087462, 0.15182556, 0.87098235, -0.58153296, -0.029617758, -1.5124931, 0
1115, 1852215498, -0.18232186, 0.44504362, 0.15517431, 0.86291283, 0.7386884, 0.6801051, -2.316442, 0
1116, 1852232165, -0.18174481, 0.45447955, 0.1519529, 0.8586795, 0.5143518, -1.1399639, -2.8768992, 0
1118, 1852265499, -0.18050674, 0.4707367, 0.14726372, 0.85096437, -0.080648884, 0.22846626, -2.6024265, 0
1119, 1852282166, -0.18094236, 0.47582993, 0.14842147, 0.8478323, 0.22964785, 1.480547, -2.4344969, 0
1120, 1852298833, -0.18117884, 0.48205838, 0.15023379, 0.843935, 0.76300055, 0.51489073, -2.0650969, 0
1122, 1852332167, -0.18121466, 0.49849913, 0.14594492, 0.83508235, 1.0189073, 0.64388716, -2.94064, 0
1123, 1852348834, -0.18206571, 0.50569063, 0.14365813, 0.83095974, 0.76274145, 1.0116146, -1.5233183, 0
1124, 1852365501, -0.18490157, 0.51094705, 0.1509601, 0.8258077, 0.5306238, 2.5824437, 0.77383804, 0
1126, 1852398835, -0.18544412, 0.5279858, 0.15250832, 0.81460756, 2.224255, -1.1254716, -1.1087246, 0
1127, 1852415502, -0.18175665, 0.539661, 0.14603078, 0.808955, 0.8733177, -2.2879643, -1.5865746, 0
1128, 1852432169, -0.18166873, 0.5475883, 0.14618002, 0.80360293, -0.6299894, -1.3568068, -1.2019157, 0
1130, 1852465503, -0.18239588, 0.5522779, 0.15399371, 0.7987551, -0.4123901, 2.1480064, 0.19484806, 0
1131, 1852482170, -0.1824784, 0.55460984, 0.15768136, 0.7963974, 0.6063388, 1.3641013, 0.20025158, 0
1132, 1852498837, -0.18172087, 0.55922985, 0.15618263, 0.79363036, 1.059744, 0.042823408, -0.7034111, 0
1134, 1852532171, -0.1822585, 0.56571245, 0.15495962, 0.7891397, 0.562712, 1.7218374, -0.57612133, 0
1136, 1852565505, -0.1863223, 0.5679137, 0.1633233, 0.7849116, 0.66484064, 0.05790595, 0.30781174, 0
1138, 1852598839, -0.18675527, 0.57047427, 0.16250743, 0.7831192, 1.145927, 0.39517382, 0.81283855, 0
1140, 1852632173, -0.18780647, 0.57360446, 0.16241726, 0.780596, 1.018103, 0.94515985, 0.66659164, 0
1143, 1852682174, -0.18952714, 0.57564664, 0.16505806, 0.77811885, 0.7564373, -0.4583397, 0.23216534, 0
1144, 1852698841, -0.1900051, 0.5779507, 0.1644967, 0.7764113, 0.7397929, -0.5301275, -0.42641163, 0
1146, 1852732175, -0.1902449, 0.57981896, 0.16114572, 0.7756622, 0.1695203, 0.37320232, -0.52057934, 0
1147, 1852748842, -0.19244838, 0.5775819, 0.16552788, 0.77586466, -0.434913, 1.0154622, 1.0551214, 0
1149, 1852782176, -0.19528785, 0.5726488, 0.1712207, 0.77757454, 1.0014315, -0.007885872, -0.31103897, 0
1150, 1852798843, -0.19680819, 0.5692679, 0.1734527, 0.77917737, 0.8374606, -0.3616392, -0.8215227, 0
1151, 1852815510, -0.19919792, 0.56430537, 0.17758125, 0.78124726, 0.82829994, -1.1312746, -1.7755461, 0
1153, 1852848844, -0.19613811, 0.5553943, 0.17305118, 0.78938156, 1.6219864, -0.007026018, -3.1477227, 0
1154, 1852865511, -0.19513571, 0.54737383, 0.17326038, 0.795165, 0.49392888, 1.5525197, -2.9342694, 0
1157, 1852915512, -0.18669812, 0.5239995, 0.15216507, 0.8169557, 0.4949495, 0.43440977, -5.6778464, 0
1158, 1852932179, -0.18390557, 0.51532257, 0.14271536, 0.8247765, -0.67090654, 1.3646152, -6.2504854, 0
1159, 1852948846, -0.18191928, 0.50413305, 0.13918181, 0.83269817, -1.118289, 2.3613858, -7.0838723, 0
1161, 1852982180, -0.18225181, 0.47788113, 0.14786506, 0.84649426, -3.6784124, 3.339642, -8.819396, 0
1162, 1852998847, -0.18260133, 0.46566284, 0.15589333, 0.8517716, -2.2093804, 1.729276, -1.9527369, 0
1163, 1853015514, -0.17712575, 0.46203312, 0.14488384, 0.8568332, -2.1214485, -3.1192336, 6.0354385, 0
1165, 1853048848, -0.17519028, 0.4454436, 0.14184088, 0.8664712, -8.0563, -5.0878153, 9.388269, 0
1166, 1853065515, -0.17634329, 0.43263108, 0.15320554, 0.8707838, -8.127429, -1.3169612, 9.86055, 0
1167, 1853082182, -0.17712462, 0.42182252, 0.16416602, 0.87392503, -9.008157, -0.14631727, 8.010714, 0
1169, 1853115516, -0.1801658, 0.40582448, 0.177534, 0.87825453, -0.61239606, -2.014342, 3.2358475, 0
1171, 1853148850, -0.18664524, 0.38925126, 0.19149935, 0.88146335, 3.770245, 0.124514654, 6.2106724, 0
1173, 1853182184, -0.19455162, 0.37866116, 0.1957372, 0.8834337, 3.3623154, -0.76256883, 8.647615, 0
1174, 1853198851, -0.1959417, 0.37751794, 0.19213031, 0.88440704, 1.2881403, -1.9182541, 7.3015366, 0
1176, 1853232185, -0.19789943, 0.3764226, 0.19282918, 0.88428587, 1.8905005, -0.62623477, 0.70527744, 0
1177, 1853248852, -0.19631477, 0.37995335, 0.19044876, 0.88364476, 0.85681146, -1.9727523, -0.20727444, 0
1178, 1853265519, -0.1942147, 0.38456857, 0.18762876, 0.882715, 0.62671244, -2.8188508, -0.043047905, 0
1180, 1853298853, -0.19380692, 0.3928889, 0.18945263, 0.8787419, 0.52779466, -0.75192535, -0.5520401, 0
1181, 1853315520, -0.19454443, 0.3985183, 0.18958604, 0.8760111, 0.24253762, -0.5428915, -0.84288025, 0
1182, 1853332187, -0.1949287, 0.40570188, 0.18675347, 0.8732323, -0.085852765, -0.16156003, -0.63167953, 0
1184, 1853365521, -0.19589432, 0.42095092, 0.18146448, 0.8668905, 0.0064304397, 0.3070811, -0.8524723, 0
1186, 1853398855, -0.1980147, 0.43515226, 0.17827143, 0.8600319, -0.07383932, 0.34701782, -0.653986, 0
1188, 1853432189, -0.20343512, 0.4465701, 0.17868982, 0.85279655, 0.4040823, 0.61915374, -0.58882236, 0
1189, 1853448856, -0.20852521, 0.45148325, 0.17954062, 0.8487921, 0.6647036, 1.4803736, -0.68691826, 0
1190, 1853465523, -0.21504608, 0.45679504, 0.18149403, 0.8438934, 0.6936274, 1.8415489, -0.40011787, 0
1192, 1853498857, -0.22851726, 0.4702691, 0.18407278, 0.8323141, 0.58378774, 0.7670321, -1.4401531, 0
1193, 1853515524, -0.23524076, 0.47676477, 0.18431982, 0.82667184, -1.4478713, 1.0429658, -1.8849506, 0
1194, 1853532191, -0.24177732, 0.4819485, 0.18404995, 0.82182586, -1.8200542, 0.650662, -2.922449, 0
1196, 1853565525, -0.2514517, 0.4875725, 0.1840126, 0.81558996, 0.07044555, -1.1492385, -2.643383, 0
1197, 1853582192, -0.25588334, 0.48884845, 0.18473178, 0.813282, 0.591825, -0.744506, -3.1032023, 0
1199, 1853615526, -0.26519826, 0.48806575, 0.19201411, 0.8090705, -0.51462615, 0.4610313, -2.120839, 0
1200, 1853632193, -0.27002364, 0.48691535, 0.19669525, 0.8070405, 0.14620385, -0.5665897, -2.3251162, 0
1201, 1853648860, -0.27642357, 0.485113, 0.20242417, 0.8045387, -0.6924029, -0.042476177, -1.6659651, 0
1203, 1853682194, -0.28616422, 0.48318985, 0.2138507, 0.7993174, 1.331341, 0.19016945, -0.69819164, 0
1204, 1853698861, -0.2880172, 0.48460865, 0.2182895, 0.7965883, 1.3075757, -0.68997115, -0.7240486, 0
1205, 1853715528, -0.28832528, 0.48798484, 0.21972176, 0.7940179, 0.62447774, -1.9031085, -1.4487534, 0
1207, 1853748862, -0.28462443, 0.4966164, 0.21700957, 0.7907405, 0.6686721, -2.7563148, -0.61299515, 0
1209, 1853782196, -0.28294212, 0.5004746, 0.22288758, 0.7872692, -0.2553252, -1.7590326, 2.0367937, 0
1211, 1853815530, -0.2764113, 0.50832367, 0.21702892, 0.7861966, -1.0783458, -2.2194664, 0.21341038, 0
1212, 1853832197, -0.26982677, 0.51406765, 0.20986147, 0.7866949, -0.70538676, -1.5851885, 0.3046379, 0
1215, 1853882198, -0.25042665, 0.5295579, 0.19564253, 0.7864997, 0.684573, 1.974965, 0.34949493, 0
1216, 1853898865, -0.24573502, 0.53324157, 0.19384108, 0.7859366, 1.2998807, 2.1403902, 0.7935457, 0
1217, 1853915532, -0.24274234, 0.53585035, 0.19541074, 0.7847024, 1.4155523, 2.4556274, 0.5955076, 0
1219, 1853948866, -0.23964454, 0.5389285, 0.20023416, 0.78232694, 2.7094252, 1.4152976, 1.9315224, 0
1220, 1853965533, -0.23631315, 0.54183507, 0.19901025, 0.7816447, 3.97608, 0.4481134, 0.7124586, 0
1221, 1853982200, -0.23303989, 0.54458404, 0.19668862, 0.78130466, 3.2127588, 0.80911976, 1.7450838, 0
1223, 1854015534, -0.2274904, 0.5454739, 0.19904539, 0.7817225, 1.9315636, 1.4253144, 0.12056637, 0
1224, 1854032201, -0.22449432, 0.5444141, 0.20300296, 0.7823095, 2.015727, 1.6091744, -0.7377815, 0
1225, 1854048868, -0.2203027, 0.54452026, 0.20633748, 0.78255486, 2.2815497, 1.4063565, -1.6824865, 0
1227, 1854082202, -0.20896526, 0.5499713, 0.20572439, 0.7820137, 1.8567859, 0.6257836, -1.2548027, 0
1230, 1854132203, -0.1922811, 0.5567082, 0.19696337, 0.78378063, 1.0399995, -0.59948575, -2.3315082, 0
1231, 1854148870, -0.18908137, 0.5570236, 0.19456694, 0.78493273, 0.934546, -0.13198565, -2.0017095, 0
1232, 1854165537, -0.18678525, 0.5555669, 0.19219354, 0.7870967, -0.066784635, 0.07788208, -2.0524, 0
1234, 1854198871, -0.18330047, 0.5488282, 0.18863462, 0.7934785, 0.87513036, 0.3145903, -3.58117, 0
1235, 1854215538, -0.18158133, 0.5443978, 0.1856715, 0.797614, 1.7006785, 0.0192814, -2.4350882, 0
1236, 1854232205, -0.17847429, 0.5413845, 0.17698133, 0.8023279, 1.9621782, -1.8114051, -2.3243809, 0
1238, 1854265539, -0.17330027, 0.53219205, 0.1594053, 0.8132228, 0.44779766, -2.8007038, -4.485373, 0
1239, 1854282206, -0.17221923, 0.52447623, 0.15440859, 0.8194058, -0.83834517, -1.6925128, -5.2418084, 0
1240, 1854298873, -0.17103826, 0.51530695, 0.15066187, 0.8261406, -1.1305776, -1.3023671, -6.3466005, 0
1242, 1854332207, -0.16740426, 0.49831757, 0.13840437, 0.83934623, -0.9572603, -2.1389122, -6.2889495, 0
1244, 1854365541, -0.16127503, 0.48650044, 0.11662747, 0.85071045, 0.9471909, 0.18384376, 4.8820524, 0
1246, 1854398875, -0.1564323, 0.46670717, 0.10145227, 0.8645367, -10.659556, -4.6640983, 9.626322, 0
1247, 1854415542, -0.15927005, 0.45213515, 0.09676729, 0.8722646, -12.960495, 4.086227, 12.897041, 0
1250, 1854465543, -0.17985506, 0.4134675, 0.0629316, 0.8903589, -8.555551, 0.55682987, 4.16481, 0
1251, 1854482210, -0.18322432, 0.4071093, 0.044683095, 0.89369833, -3.6919382, 2.3086438, 0.09146023, 0
1253, 1854515544, -0.18832591, 0.397138, 0.019185323, 0.8980253, 8.561549, 6.808544, 2.863761, 0
1254, 1854532211, -0.19104268, 0.38838387, 0.025459277, 0.9011189, 9.12103, 2.4925425, 10.148743, 0
1255, 1854548878, -0.19529723, 0.38034305, 0.030790588, 0.9034672, 4.2842426, -2.0221155, 12.075117, 0
1257, 1854582212, -0.20049086, 0.3700972, 0.032010436, 0.90653694, 3.2959073, -0.4964724, 2.4553194, 0
1258, 1854598879, -0.20433488, 0.36753187, 0.033908002, 0.90665334, 1.9294403, 1.7467445, -0.64103985, 0
1261, 1854648880, -0.2192193, 0.36804426, 0.04885728, 0.902276, -0.7178267, 1.915728, -0.047080994, 0
1262, 1854665547, -0.2212689, 0.37176195, 0.051046215, 0.90012777, 0.15395518, 1.0508113, -1.0907946, 0
1263, 1854682214, -0.22253768, 0.37533116, 0.05360148, 0.89818317, 0.35234025, 0.7896764, -0.9945421, 0
1265, 1854715548, -0.2215235, 0.38467917, 0.061130248, 0.8939883, 0.33667985, 0.31507272, -2.7282667, 0
1266, 1854732215, -0.22003365, 0.38883305, 0.07047057, 0.8918691, 0.5772158, -0.4714666, -2.3495812, 0
1267, 1854748882, -0.21786095, 0.393989, 0.07998151, 0.88933384, 1.384968, -0.6454029, -2.1742516, 0
1269, 1854782216, -0.2124931, 0.40736735, 0.09360776, 0.8832546, 1.0028117, -0.018946942, -2.6418633, 0
1271, 1854815550, -0.20602708, 0.42366582, 0.10551112, 0.8757454, 1.3384513, -0.4998114, -2.3677578, 0
1273, 1854848884, -0.19694042, 0.44172606, 0.11356528, 0.86786985, 1.0639461, -0.48136723, -2.7097273, 0
1274, 1854865551, -0.19256651, 0.45068797, 0.11793998, 0.8636501, 1.2895792, -0.50906885, -1.9257865, 0
1275, 1854882218, -0.18601961, 0.46100116, 0.11993451, 0.8593563, 1.2663422, -0.7964304, -1.4339752, 0
1277, 1854915552, -0.17579293, 0.482421, 0.13187404, 0.84792614, 1.0935853, -0.35609835, -1.5357494, 0
1278, 1854932219, -0.17142881, 0.49306965, 0.13662677, 0.8419206, 0.08705606, -0.28332534, -1.4013872, 0
1279, 1854948886, -0.1666628, 0.5024398, 0.13951342, 0.83684903, 0.023351885, -0.47144258, -0.82565594, 0
1281, 1854982220, -0.16137236, 0.5173785, 0.14603975, 0.82761914, 1.2893759, -0.16802302, -0.38651657, 0
1282, 1854998887, -0.15881318, 0.52552474, 0.14767018, 0.82267743, 0.5711501, 0.24284191, -1.352087, 0
1285, 1855048888, -0.16085088, 0.5418743, 0.16010475, 0.8092393, 1.2857956, 0.72446024, -0.06448555, 0
1286, 1855065555, -0.16195388, 0.5471953, 0.16420114, 0.80460477, 1.721259, 0.73938423, 0.5470438, 0
1288, 1855098889, -0.16216841, 0.56144613, 0.1708193, 0.79328614, 1.3066659, -0.15331385, 1.0166092, 0
1290, 1855132223, -0.16441217, 0.57169807, 0.17730005, 0.7840264, 0.119558364, 0.21194471, 0.27301311, 0
1292, 1855165557, -0.16965184, 0.5766863, 0.18278997, 0.77797276, 1.6852903, -1.1771777, 0.37800312, 0
1293, 1855182224, -0.17070204, 0.57906103, 0.18161581, 0.77625227, 2.680026, -1.1226518, 0.53493595, 0
1294, 1855198891, -0.16950393, 0.58296525, 0.17801291, 0.77442497, 3.2666728, -0.15277974, -0.24142265, 0
1296, 1855232225, -0.16857855, 0.59058285, 0.17990649, 0.76839423, 1.2092514, -0.088355064, -1.1643362, 0
1297, 1855248892, -0.1680768, 0.59190917, 0.18077289, 0.76727927, 2.235598, -1.2134475, -0.13659859, 0
1298, 1855265559, -0.16394699, 0.59387934, 0.17646208, 0.767654, 2.7809434, -2.119186, 0.32526588, 0
1300, 1855298893, -0.15459116, 0.59338725, 0.16623497, 0.7722445, 1.5141178, 0.30951712, -0.9066706, 0
1301, 1855315560, -0.15094839, 0.5912844, 0.1641095, 0.77502763, 0.2623672, 1.1119211, -2.0610075, 0
1302, 1855332227, -0.14945287, 0.58745533, 0.16575478, 0.7778741, -0.46388683, 1.5999938, -3.7353992, 0
1307, 1855415562, -0.14810662, 0.548887, 0.1463913, 0.80954313, -0.91279346, -1.6665099, -4.7765036, 0
1308, 1855432229, -0.15174378, 0.5335973, 0.14751357, 0.81883454, 0.25924107, -0.8234205, -4.2488923, 0
1309, 1855448896, -0.14963901, 0.522396, 0.13668737, 0.8282693, -0.4154477, -3.0461879, -5.671293, 0
1311, 1855482230, -0.14435199, 0.49964687, 0.10714508, 0.8473712, -2.5482419, -2.1588142, -2.7148876, 0
1312, 1855498897, -0.14344242, 0.4880333, 0.10185548, 0.8549128, -4.141778, 1.3292403, 6.111349, 0
1313, 1855515564, -0.14558938, 0.47517505, 0.10112581, 0.861852, -11.755822, -2.502138, 7.0675373, 0
1315, 1855548898, -0.15468559, 0.44609055, 0.09056176, 0.87685627, -11.711318, -2.3363528, 9.5302925, 0
1317, 1855582232, -0.165613, 0.41450998, 0.07527134, 0.89167863, -10.721342, -0.21722129, 6.645899, 0
1319, 1855615566, -0.17224705, 0.3945042, 0.03874969, 0.90177524, -4.0981746, 4.710916, 0.4105568, 0
1320, 1855632233, -0.17415872, 0.39082995, 0.016082462, 0.9036951, 2.9378183, 3.5085657, -1.3081713, 0
1323, 1855682234, -0.18995678, 0.37176445, 0.022342805, 0.9084113, 2.3029234, 0.47043276, 12.804867, 0
1324, 1855698901, -0.19131164, 0.36651176, 0.024328258, 0.91020876, 1.8666402, -1.7599514, 10.856131, 0
1325, 1855715568, -0.19083348, 0.36319855, 0.025125938, 0.9116144, 2.1577194, -1.5577772, 5.173375, 0
1327, 1855748902, -0.18825816, 0.36178765, 0.027763497, 0.91263396, 2.856707, 0.31746283, -1.5699091, 0
1328, 1855765569, -0.1876717, 0.3635337, 0.027992014, 0.91205347, 1.5036354, 1.3473874, -1.0318823, 0
1329, 1855782236, -0.18822446, 0.36561134, 0.032383032, 0.9109631, -0.6779905, 1.6319313, 0.3847971, 0
1331, 1855815570, -0.19187532, 0.37185, 0.04416468, 0.90717345, -2.313855, 2.5649981, -0.32293606, 0
1332, 1855832237, -0.19399515, 0.37638897, 0.05022952, 0.9045313, -1.2414608, 1.8512403, -1.8074408, 0
1334, 1855865571, -0.1961794, 0.38602346, 0.06163469, 0.89927936, 2.830333, 0.70941335, -1.2480965, 0
1335, 1855882238, -0.19526014, 0.3933999, 0.06480022, 0.89605445, 2.0167263, 0.23379272, -3.312234, 0
1338, 1855932239, -0.19641227, 0.41104406, 0.10705211, 0.8837463, 1.2147846, -0.66794443, -2.0311441, 0
1339, 1855948906, -0.19449857, 0.42040008, 0.112108864, 0.8791293, 1.5915157, -0.9642962, -2.2115493, 0
1340, 1855965573, -0.19375521, 0.4297672, 0.11701829, 0.8741101, 1.4620584, -0.46642587, -3.8730483, 0
1342, 1855998907, -0.19425987, 0.4445919, 0.13761833, 0.86351895, 1.527548, -0.7101642, -2.7456899, 0
1343, 1856015574, -0.19460946, 0.45216435, 0.14778323, 0.8578096, 1.5027512, -0.6640089, -2.5460534, 0
1344, 1856032241, -0.1933967, 0.4589474, 0.15353464, 0.8534603, 2.5131965, -0.7914217, -0.61764145, 0
1347, 1856082242, -0.18907122, 0.48375878, 0.17610596, 0.8361932, 1.2449938, -0.519289, -0.16606808, 0
1348, 1856098909, -0.18596344, 0.4927248, 0.17914923, 0.8309923, 1.7877213, -0.73372227, 0.4273548, 0
1350, 1856132243, -0.18021129, 0.5125698, 0.18211025, 0.81953317, 0.69033754, -0.31677675, -0.004796982, 0
1351, 1856148910, -0.17923045, 0.5212658, 0.18596327, 0.81337494, -0.03170805, 0.059710145, -0.73730946, 0
1352, 1856165577, -0.17817898, 0.5295727, 0.18943201, 0.8074175, -0.38552687, 0.0050739674, -1.595809, 0
1354, 1856198911, -0.17644185, 0.5429992, 0.18714926, 0.7993734, 0.44854486, 0.041524347, -0.09677982, 0
1355, 1856215578, -0.17377555, 0.548743, 0.18219867, 0.79717594, 1.4306463, -1.1382779, 1.0127668, 0
1356, 1856232245, -0.17181414, 0.55458075, 0.17904425, 0.7942708, 2.1769052, -1.1860799, 1.395525, 0
1358, 1856265579, -0.16833976, 0.56796896, 0.17940198, 0.7854239, 1.1445941, -0.026875366, -1.1505928, 0
1359, 1856282246, -0.16741088, 0.57291496, 0.18217848, 0.7813808, 0.5882567, 0.020009495, -1.0397291, 0
1360, 1856298913, -0.16637123, 0.57693624, 0.18472266, 0.7780395, 0.7578844, 0.18687907, -0.6969824, 0
1362, 1856332247, -0.16367662, 0.58387893, 0.18536659, 0.773264, 1.076401, -0.8724959, 0.37508488, 0
1363, 1856348914, -0.1619043, 0.5863857, 0.18246028, 0.772431, 1.5407909, -0.7431632, 0.7235193, 0
1366, 1856398915, -0.15706156, 0.5935604, 0.17485365, 0.7697056, 1.2169108, 0.52038777, -0.9832363, 0
1367, 1856415582, -0.15378346, 0.5972271, 0.17041221, 0.76852643, 1.7075622, -0.7740335, -0.41672516, 0
1369, 1856448916, -0.14448994, 0.600869, 0.15773778, 0.7701953, 0.61890846, -0.9696675, -1.6813488, 0
1370, 1856465583, -0.14196707, 0.5991211, 0.15384251, 0.7728094, 1.0927125, 0.62792546, -2.0806012, 0
1371, 1856482250, -0.14134534, 0.5969079, 0.15260908, 0.7748778, 1.1960694, 0.7590879, -2.1920233, 0
1373, 1856515584, -0.14064634, 0.59172934, 0.14551389, 0.7803226, 1.01447, 0.356879, -2.4026327, 0
1374, 1856532251, -0.14206639, 0.5874721, 0.14144021, 0.7840224, 0.81792223, -0.21149673, -2.3287983, 0
1375, 1856548918, -0.14622128, 0.5802169, 0.1395862, 0.78897774, 0.35049146, -0.80090344, -1.844264, 0
1377, 1856582252, -0.15429108, 0.55531126, 0.13394369, 0.80615485, 1.1929194, -1.83969, -5.1102777, 0
1378, 1856598919, -0.15476651, 0.5443153, 0.12759782, 0.81454873, -0.34471223, -2.5585828, -5.5123105, 0
1382, 1856665587, -0.15330088, 0.5000935, 0.11038873, 0.8451168, -9.712993, -4.129564, 6.8690243, 0
1383, 1856682254, -0.15525526, 0.48972395, 0.10609214, 0.8513597, -12.149302, -4.7523828, 9.287426, 0
1385, 1856715588, -0.16363132, 0.46166566, 0.10883707, 0.86501265, -10.639539, 2.3061893, 11.570833, 0
1386, 1856732255, -0.16680631, 0.45138758, 0.10257282, 0.8705782, -9.242373, 1.023763, 9.672491, 0
1388, 1856765589, -0.17022945, 0.4417903, 0.066916, 0.87827575, -5.4759707, 4.5419035, 2.2024336, 0
1390, 1856798923, -0.16754691, 0.43128675, 0.045162722, 0.8853717, 8.428741, 2.1288207, 3.9605074, 0
1393, 1856848924, -0.16384162, 0.4194167, 0.042121865, 0.8918934, 2.325394, -2.376533, 5.907135, 0
1394, 1856865591, -0.16044876, 0.4189422, 0.04108633, 0.89278114, 1.8321801, 0.0787953, 1.6230478, 0
1397, 1856915592, -0.15583704, 0.42076397, 0.04962848, 0.8923072, -0.99962324, 5.445322, -0.68448925, 0
1398, 1856932259, -0.15614194, 0.42256045, 0.054422956, 0.8911247, -1.246789, 6.0799966, -0.94562244, 0
1401, 1856982260, -0.1716723, 0.4246014, 0.10334089, 0.88293016, -0.18152885, 3.2276812, -4.7602987, 0
1404, 1857032261, -0.2038172, 0.42844105, 0.15462326, 0.86659735, 0.1473855, -0.43104896, -3.5813217, 0
1405, 1857048928, -0.21312161, 0.42996392, 0.16818222, 0.8610619, 0.17921947, -0.9033882, -3.7903686, 0
1406, 1857065595, -0.2213552, 0.43059272, 0.18189712, 0.8558668, 0.5494288, -0.8924885, -3.4751668, 0
1408, 1857098929, -0.23298559, 0.42939383, 0.21188235, 0.846432, 2.891802, -0.6606088, -1.7850809, 0
1409, 1857115596, -0.23570977, 0.4319693, 0.2245244, 0.84109145, 2.276218, -2.005708, -1.934792, 0
1410, 1857132263, -0.23937222, 0.43264186, 0.2400041, 0.8354177, 2.1671648, -2.0701005, -1.0885649, 0
1412, 1857165597, -0.25008667, 0.43729368, 0.26253563, 0.82298774, 3.3019133, -2.5351992, -0.08014107, 0
1413, 1857182264, -0.25562358, 0.44109964, 0.26588416, 0.8181661, 3.9192598, -1.7394373, 0.67432976, 0
1414, 1857198931, -0.26042053, 0.44746503, 0.26197088, 0.81445074, 2.1700594, -1.6052008, 1.3119459, 0
1417, 1857248932, -0.27124047, 0.45908314, 0.25905216, 0.80533594, -0.8433233, -0.5626207, -1.6608229, 0
1419, 1857282266, -0.27336937, 0.46236843, 0.2616857, 0.8018778, -0.49951872, -0.6560498, -1.3406067, 0
1420, 1857298933, -0.27156243, 0.46593717, 0.25821263, 0.801552, 0.3551419, -0.88316745, -1.3570213, 0
1421, 1857315600, -0.26672703, 0.47154033, 0.25034016, 0.8023957, 1.1914465, -1.597171, -1.1331844, 0
1423, 1857348934, -0.25256228, 0.483998, 0.22817725, 0.80616134, 1.3853475, -1.6796836, -0.74263096, 0
1424, 1857365601, -0.24553588, 0.48922154, 0.2176836, 0.8080786, 0.8072236, -1.5458368, -0.33919048, 0
1425, 1857382268, -0.23835212, 0.49327675, 0.20970145, 0.80987316, 0.7612703, -0.25516552, -0.24103832, 0
1427, 1857415602, -0.22148106, 0.50127995, 0.19261213, 0.81398267, 0.84786826, 0.6038507, 0.20583248, 0
1428, 1857432269, -0.21466412, 0.50551575, 0.18543434, 0.81485575, 0.28840858, 1.4232485, -0.011061668, 0
1429, 1857448936, -0.20920542, 0.50952154, 0.18028216, 0.8149367, -0.19937363, 1.3390334, 0.06315136, 0
1431, 1857482270, -0.20050372, 0.51755255, 0.16895942, 0.81448936, -0.41926402, 1.1858318, 0.5657854, 0
1432, 1857498937, -0.19696209, 0.52078784, 0.16256735, 0.8145922, 0.27538124, 0.59455705, 0.33150196, 0
1433, 1857515604, -0.19503199, 0.5233991, 0.15706304, 0.81446296, 0.18992585, 0.30923134, 0.31153488, 0
1435, 1857548938, -0.19817418, 0.5246527, 0.15400353, 0.8134815, 0.31957775, 1.9162617, -0.16251278, 0
1436, 1857565605, -0.20034179, 0.5249326, 0.15045282, 0.81343466, 1.0407377, 1.2877258, 0.74899864, 0
1439, 1857615606, -0.20777547, 0.52433985, 0.14235908, 0.8134086, 0.81932473, 1.6967528, 1.1368608, 0
1440, 1857632273, -0.21188195, 0.52114916, 0.14736816, 0.81350774, 1.2715198, 1.6969801, 1.8526878, 0
1442, 1857665607, -0.21307617, 0.52218556, 0.14071128, 0.81370986, 0.07078779, -1.3072374, -0.37352657, 0
1443, 1857682274, -0.21191001, 0.5238676, 0.13609083, 0.8137192, -1.1718479, -1.464956, -0.83422565, 0
1446, 1857732275, -0.20730044, 0.52464163, 0.13098463, 0.8152445, -0.66960907, -1.7793832, -0.81093884, 0
1447, 1857748942, -0.20389853, 0.5248696, 0.12673302, 0.8166263, -0.028230878, -1.935695, -1.3492746, 0
1448, 1857765609, -0.1998452, 0.5238417, 0.12445624, 0.81863606, 0.54041696, -1.0013803, -1.1712751, 0
1452, 1857832277, -0.18329293, 0.5199794, 0.120513506, 0.8255327, 1.3580247, -0.68843406, 1.1934395, 0
1454, 1857865611, -0.17591542, 0.5240991, 0.1125999, 0.82564986, 0.36088488, 0.5085608, -0.75522804, 0
1455, 1857882278, -0.17326827, 0.5252638, 0.11256584, 0.8254742, -0.1371065, 0.8080704, 0.0709753, 0
1456, 1857898945, -0.17283398, 0.5252275, 0.11604619, 0.8251064, -0.48269427, 1.6810373, 0.5016241, 0
1458, 1857932279, -0.1734026, 0.5238349, 0.12048313, 0.8252364, 1.0774823, 1.4596952, 0.6020088, 0
1459, 1857948946, -0.17414305, 0.5240189, 0.120818295, 0.8249146, 1.1800694, 0.8896304, -0.82489777, 0
1460, 1857965613, -0.17430001, 0.5246262, 0.11936012, 0.8247076, 1.4851996, -0.57939065, -1.769208, 0
1463, 1858015614, -0.1760996, 0.512799, 0.122162476, 0.8313274, 1.3669723, 1.0029094, -3.370337, 0
1464, 1858032281, -0.17695329, 0.5054464, 0.12554604, 0.83513623, 1.5328503, 0.45490077, -4.115601, 0
1466, 1858065615, -0.17654045, 0.49095845, 0.12388258, 0.84406704, 1.3487374, 1.06991, -6.0957174, 0
1467, 1858082282, -0.17716104, 0.48262724, 0.12480855, 0.8485933, 1.2227446, 1.8479873, -6.614766, 0
1468, 1858098949, -0.17724079, 0.4751104, 0.12523228, 0.8527457, -0.022524064, 1.3620565, -7.381462, 0
1470, 1858132283, -0.18258, 0.45986453, 0.13032027, 0.85919046, -2.1177504, 3.3867948, -8.555062, 0
1471, 1858148950, -0.18638685, 0.45269445, 0.13943903, 0.860748, -4.920992, 1.758492, -8.017417, 0
1473, 1858182284, -0.19449995, 0.4382008, 0.16208988, 0.86248446, -3.900854, -1.1641281, 2.8626719, 0
1474, 1858198951, -0.19414422, 0.4383957, 0.15386371, 0.8639711, -6.2834067, -7.482157, 7.2545967, 0
1475, 1858215618, -0.19257501, 0.43689078, 0.14753626, 0.8661853, -8.097841, -9.0365715, 10.259806, 0
1478, 1858265619, -0.19249573, 0.40889034, 0.17971252, 0.873762, -0.85924584, -0.87875146, 8.032185, 0
1479, 1858282286, -0.19092052, 0.40409184, 0.17843986, 0.8765962, 2.2738044, -0.94455963, 6.063964, 0
1481, 1858315620, -0.19122054, 0.3915989, 0.17647251, 0.8825786, 9.451572, -0.111406736, 10.199911, 0
1482, 1858332287, -0.18786214, 0.39019397, 0.16669996, 0.8858161, 4.9967756, -2.952264, 12.687927, 0
1483, 1858348954, -0.186457, 0.38900107, 0.15979321, 0.887908, 1.7659894, -1.9505556, 10.150494, 0
1485, 1858382288, -0.18406361, 0.3907032, 0.14597498, 0.8900369, 0.9289209, 2.7028852, 1.529542, 0
1486, 1858398955, -0.17810321, 0.39584345, 0.1366345, 0.89046115, 0.43548012, -1.1123098, 0.7398052, 0
1487, 1858415622, -0.17116508, 0.40085587, 0.12890053, 0.8907324, 1.1141301, -2.566842, 0.5686388, 0
1489, 1858448956, -0.15967605, 0.41042662, 0.11945406, 0.88982415, 0.5046824, -1.326241, -0.32804203, 0
1490, 1858465623, -0.15423208, 0.41604203, 0.11515498, 0.8887427, -0.39222404, -1.2487948, -0.33144188, 0
1493, 1858515624, -0.14090472, 0.43266276, 0.10900401, 0.8837813, 0.39960873, -0.30078885, -1.1103945, 0
1494, 1858532291, -0.13651367, 0.44017664, 0.10359864, 0.8814072, 0.1645855, -0.42044595, -1.2933044, 0
1495, 1858548958, -0.13269722, 0.4473381, 0.10106611, 0.8786743, -0.17414571, -0.55857754, -1.1393452, 0
1497, 1858582292, -0.1226891, 0.46162784, 0.096926846, 0.8731867, -0.70115703, -0.14383444, -1.3776846, 0
1498, 1858598959, -0.12108503, 0.4688419, 0.09711675, 0.86953825, -0.562138, -0.2677638, -1.6128178, 0
1500, 1858632293, -0.11970982, 0.48703662, 0.09862016, 0.8595008, -1.001318, -0.067278124, -2.6234255, 0
1501, 1858648960, -0.119527355, 0.49474338, 0.098875865, 0.85508406, -0.8414573, 0.7373, -2.556377, 0
1502, 1858665627, -0.12124637, 0.50064003, 0.10405649, 0.85078424, 0.0681966, 1.2972528, -1.781887, 0
1504, 1858698961, -0.12789364, 0.5118223, 0.11280661, 0.84199667, -0.53111416, 1.4495891, -1.3467484, 0
1505, 1858715628, -0.1320532, 0.5170778, 0.11789069, 0.83743495, -0.5474553, 1.4208848, -1.1038113, 0
1506, 1858732295, -0.1367673, 0.52185905, 0.1224308, 0.83304936, -0.39761353, 0.9748617, -1.1606264, 0
1508, 1858765629, -0.14713855, 0.528824, 0.12907685, 0.8258555, 0.6197661, 1.4118313, -0.20407104, 0
1509, 1858782296, -0.15308678, 0.5304606, 0.13458434, 0.82284015, 0.4936837, 1.2126383, 0.23442173, 0
1510, 1858798963, -0.15793902, 0.5328914, 0.13686411, 0.81997144, 1.0887092, 0.75323516, -0.4675579, 0
1512, 1858832297, -0.16908093, 0.5383076, 0.14240268, 0.81324095, 1.2538517, 0.6177939, -1.1347418, 0
1513, 1858848964, -0.17584439, 0.54050964, 0.14474015, 0.8099267, 2.024866, 0.12902218, -0.5307026, 0
1514, 1858865631, -0.18233201, 0.5437302, 0.1471887, 0.8058851, 1.9831582, 0.10137514, -1.1982746, 0
1516, 1858898965, -0.19105577, 0.55161095, 0.1461763, 0.7986605, 1.8055559, 0.22367053, -0.64982224, 0
1517, 1858915632, -0.19505799, 0.5547632, 0.14588541, 0.7955566, 1.7596521, 0.13122547, -0.43303394, 0
1521, 1858982300, -0.20284851, 0.56979513, 0.14046113, 0.7838747, 0.5841986, 0.61603695, -0.9408369, 0
1523, 1859015634, -0.2093319, 0.569417, 0.15091285, 0.78049487, 0.24859999, 0.72068554, 0.540287, 0
1524, 1859032301, -0.20974195, 0.5693928, 0.1533924, 0.77991897, 0.6841662, -0.65890265, -0.6562519, 0
1525, 1859048968, -0.20945336, 0.5691074, 0.15402722, 0.78007984, 0.96705776, -1.0601159, -0.96860313, 0
1527, 1859082302, -0.21061733, 0.56763613, 0.15719447, 0.7802063, 0.111102566, -0.15788424, 0.25879383, 0
1528, 1859098969, -0.21190679, 0.56531173, 0.1612898, 0.78070897, -0.15100378, 0.37952986, -0.1085453, 0
1529, 1859115636, -0.21258517, 0.5630228, 0.16299754, 0.78182316, -0.16746485, 0.7487822, -0.89758205, 0
1531, 1859148970, -0.21495919, 0.5560736, 0.16369958, 0.78598976, 0.07478066, 0.5414358, -1.5106258, 0
1532, 1859165637, -0.21577574, 0.5512495, 0.16304107, 0.7892942, 0.7525813, -0.46300894, -2.144905, 0
1533, 1859182304, -0.21582177, 0.5457731, 0.16129673, 0.7934347, 1.0924538, -0.107677475, -2.6710935, 0
1536, 1859232305, -0.21668388, 0.523518, 0.15855607, 0.8086036, 0.23604108, 0.41660863, -4.0032797, 0
1537, 1859248972, -0.21699724, 0.515068, 0.15539843, 0.81453735, -0.24880365, 0.9442981, -4.500912, 0
1539, 1859282306, -0.22088975, 0.49355915, 0.15884626, 0.82606155, -1.3773519, 2.261165, -5.7411394, 0
1540, 1859298973, -0.22437322, 0.48147762, 0.1659491, 0.8308428, -1.8015633, 2.4938338, -6.798985, 0
1541, 1859315640, -0.22669464, 0.47009528, 0.17368856, 0.83513767, -2.9591448, 2.4384375, -7.297328, 0
1543, 1859348974, -0.22721854, 0.45143214, 0.18434027, 0.8429723, 0.41427884, -2.2299218, 4.4853907, 0
1544, 1859365641, -0.22551703, 0.44863418, 0.17701766, 0.84648496, -3.9926066, -6.769304, 5.5602493, 0
1545, 1859382308, -0.22582573, 0.4394704, 0.18580425, 0.84932196, -8.79413, -4.038558, 8.558954, 0
1547, 1859415642, -0.23259866, 0.41332027, 0.21788616, 0.8529903, -7.97925, -1.3758401, 8.465263, 0
1548, 1859432309, -0.23387292, 0.40727904, 0.22252531, 0.8543492, -3.9370935, -1.7995101, 5.58928, 0
1551, 1859482310, -0.23400483, 0.39309317, 0.23611957, 0.8573038, 4.52795, -3.3237243, 3.1107664, 0
1552, 1859498977, -0.23057693, 0.3899424, 0.23858574, 0.858987, 7.990235, -2.7235322, 5.9736433, 0
1554, 1859532311, -0.22317052, 0.38519853, 0.23233011, 0.8647789, 4.105444, -1.4043481, 10.945873, 0
1555, 1859548978, -0.22263189, 0.38202694, 0.22905092, 0.86719596, 0.4620386, 2.281943, 8.291517, 0
1556, 1859565645, -0.22280629, 0.38268656, 0.22316879, 0.8683931, -0.80613273, 4.078276, 2.4650269, 0
1558, 1859598979, -0.2182286, 0.38920242, 0.20545627, 0.8710271, 1.1736902, 0.85314035, -1.0686417, 0
1559, 1859615646, -0.21470547, 0.39316034, 0.19812343, 0.87182367, 1.3142854, -1.0046345, -1.0876274, 0
1560, 1859632313, -0.21100885, 0.39810234, 0.19071302, 0.8721359, 0.6763583, -2.2707846, -1.0256147, 0
1562, 1859665647, -0.20177922, 0.4104366, 0.17431796, 0.87203366, 0.39406875, -0.5568831, -1.6282234, 0
1563, 1859682314, -0.1977753, 0.41591063, 0.17142197, 0.8709308, 0.37092477, 0.38909343, -0.96135426, 0
1566, 1859732315, -0.18269815, 0.44122878, 0.15237343, 0.8652882, -0.2961301, -0.48371583, -1.8172102, 0
1567, 1859748982, -0.17886484, 0.44865647, 0.1496056, 0.862749, -0.07306056, 0.63428575, -1.6229525, 0
1568, 1859765649, -0.17667186, 0.45561433, 0.14903383, 0.85964775, 0.41059297, 1.7310299, -1.813786, 0
1570, 1859798983, -0.17167477, 0.47279292, 0.14586374, 0.8518926, 0.34088066, 0.56365466, -3.0931249, 0
1571, 1859815650, -0.16717587, 0.48384902, 0.13795634, 0.84788746, 0.08400918, -0.7253778, -4.620105, 0
1572, 1859832317, -0.1652806, 0.49175814, 0.1331061, 0.8444771, -0.26370886, -0.21927802, -3.5407128, 0
1574, 1859865651, -0.17280617, 0.49751726, 0.14523159, 0.83757097, 1.3439304, 2.288233, -1.1378479, 0
1575, 1859882318, -0.17640433, 0.5037596, 0.14534542, 0.8330578, 0.88436186, 1.9016389, -1.4495201, 0
1577, 1859915652, -0.1744722, 0.5206133, 0.13488421, 0.82482135, -0.11357211, 0.87811255, -1.2226372, 0
1578, 1859932319, -0.17378394, 0.5266731, 0.13460886, 0.82115626, 0.034053877, 0.31837597, -1.4903908, 0
1579, 1859948986, -0.1746072, 0.5318929, 0.13732232, 0.8171582, 0.59419465, 0.90089387, -1.5828972, 0
1582, 1859998987, -0.1760541, 0.5433859, 0.13912873, 0.8089391, 0.52347094, 0.2607487, 0.1972723, 0
1583, 1860015654, -0.17637543, 0.54718083, 0.14024732, 0.80611306, -0.16723086, -0.41804942, 0.06189823, 0
1585, 1860048988, -0.17567725, 0.5539963, 0.13946779, 0.80173373, 0.92398155, -0.3640445, -0.9619837, 0
1586, 1860065655, -0.17928497, 0.55586743, 0.14401193, 0.7988313, 0.8692858, 1.6797669, 0.029213905, 0
1587, 1860082322, -0.18405604, 0.55790144, 0.1500341, 0.79521185, 0.58397925, 3.0768094, 1.090003, 0
1589, 1860115656, -0.1868372, 0.56344587, 0.1558653, 0.7895121, 0.29206264, -0.005117888, -0.36875248, 0
1590, 1860132323, -0.1850536, 0.5659486, 0.15080832, 0.78912425, 1.0250468, -1.8212794, -0.4710331, 0
1591, 1860148990, -0.18538713, 0.5679048, 0.14707005, 0.7883456, 0.68416446, -1.2527176, -1.413907, 0
1594, 1860198991, -0.19036177, 0.5677834, 0.16602771, 0.78346807, -0.9548823, 0.94674116, -1.3075132, 0
1595, 1860215658, -0.19099905, 0.5679236, 0.17142309, 0.7820479, -1.1339657, 0.74515224, -1.3269701, 0
1597, 1860248992, -0.19058046, 0.5674345, 0.18065391, 0.7804256, -0.62941206, 0.61734116, -0.11229992, 0
1598, 1860265659, -0.19175845, 0.5655927, 0.18871152, 0.77956676, -0.5623517, 0.5337321, 0.69217014, 0
1599, 1860282326, -0.19286008, 0.56382066, 0.19518712, 0.7789841, 0.043947954, -0.051906638, 0.7067299, 0
1601, 1860315660, -0.19261469, 0.5652235, 0.19928932, 0.7769868, 0.32878527, -0.55904645, 0.69646263, 0
1602, 1860332327, -0.19247957, 0.5672964, 0.19976436, 0.77538586, 0.52638406, -0.30740032, 0.22559929, 0
1603, 1860348994, -0.19321093, 0.5684551, 0.20226987, 0.77370405, -0.67685175, 0.8770119, 0.4038248, 0
1605, 1860382328, -0.1935898, 0.5687551, 0.20771103, 0.77194524, -0.631242, 0.40302113, 1.6448965, 0
1606, 1860398995, -0.1924917, 0.5685368, 0.20792502, 0.77232295, 0.17305455, -0.49674162, 1.4286861, 0
1609, 1860448996, -0.18912762, 0.56873333, 0.20361315, 0.77415615, 0.44746447, 0.45831153, 0.67404175, 0
1610, 1860465663, -0.18830502, 0.5678385, 0.20460117, 0.77475274, 0.5727737, 0.91046274, 1.3652573, 0
1612, 1860498997, -0.18521464, 0.56740177, 0.20328943, 0.7761617, 0.43865323, -0.24326742, 0.6818676, 0
1613, 1860515664, -0.18418223, 0.56729764, 0.20106573, 0.7770621, 0.15333538, -0.284399, 0.16443825, 0
1614, 1860532331, -0.1827965, 0.56712025, 0.19737902, 0.77846277, 0.6950255, 0.08154898, 0.11984539, 0
1616, 1860565665, -0.18254787, 0.5632761, 0.19875437, 0.7809585, 0.37154153, 1.0958681, 0.68011284, 0
1617, 1860582332, -0.18068181, 0.5629351, 0.1954259, 0.78247666, 2.0451252, 0.61385715, -0.14446926, 0
1618, 1860598999, -0.17944054, 0.5631841, 0.19340701, 0.78308445, 1.3374302, 0.60458624, -0.41766357, 0
1620, 1860632333, -0.17912789, 0.56301767, 0.19318289, 0.7833309, 0.5439903, 1.4888401, -0.6214485, 0
1622, 1860665667, -0.17630625, 0.5643022, 0.18750647, 0.7844254, 2.5643153, 0.6709772, -0.5791311, 0
1625, 1860715668, -0.17239255, 0.566222, 0.18267077, 0.78505254, 0.6051338, 1.908773, -0.8807001, 0
1626, 1860732335, -0.17293821, 0.5658034, 0.1854707, 0.78457767, 1.0789549, 1.0153555, -0.8997946, 0
1628, 1860765669, -0.1706866, 0.56709164, 0.18339206, 0.7846292, -0.6845574, 2.3346968, -0.34277058, 0
1629, 1860782336, -0.17100158, 0.5665275, 0.18552813, 0.784466, 2.8052938, 1.1358994, -0.46525002, 0
1631, 1860815670, -0.17021467, 0.56577694, 0.18511042, 0.7852772, 1.3623794, 1.5007997, 0.069078445, 0
1632, 1860832337, -0.16895255, 0.56654114, 0.18243909, 0.78562385, 2.6886704, 0.47908488, -0.10374546, 0
1633, 1860849004, -0.16901782, 0.56630844, 0.18279573, 0.78569466, 1.240761, 0.10250299, 0.6096535, 0
1635, 1860882338, -0.16633268, 0.56861776, 0.17689566, 0.7859503, 1.8148211, 1.7118834, 0.017004967, 0
1636, 1860899005, -0.16811448, 0.56706977, 0.18111108, 0.7857295, 0.6798651, 1.6759409, 0.5909891, 0
1637, 1860915672, -0.16676494, 0.56763226, 0.17805776, 0.7863086, 3.207554, 0.74393636, -0.37923813, 0
1640, 1860965673, -0.16592658, 0.569215, 0.17827694, 0.7852915, 2.9710252, 0.5000389, -0.13584614, 0
1641, 1860982340, -0.1644262, 0.5710794, 0.17473511, 0.78504944, 2.7768161, 0.95767266, 0.38284302, 0
1643, 1861015674, -0.16381325, 0.57291406, 0.17360368, 0.7840913, 2.5327244, 0.7483404, 0.14741707, 0
1644, 1861032341, -0.16307122, 0.57329744, 0.17277247, 0.7841492, 2.5022857, 1.6403135, 0.26625824, 0
1645, 1861049008, -0.16333005, 0.5731435, 0.17375386, 0.7839911, 1.9994421, 1.2739065, -0.14500523, 0
1647, 1861082342, -0.1611921, 0.57353425, 0.16932803, 0.7851153, 2.2602768, 1.3646691, 0.14633751, 0
1648, 1861099009, -0.16167709, 0.57331455, 0.17063071, 0.78489417, 1.7548746, 0.87117505, -0.15583229, 0
1649, 1861115676, -0.1612784, 0.57401353, 0.16954571, 0.78470045, 3.2110193, 0.18407921, -0.63839245, 0
1651, 1861149010, -0.16123587, 0.5751816, 0.17032, 0.7836855, 1.3639677, 2.8552854, -0.15198135, 0
1652, 1861165677, -0.16238093, 0.5753785, 0.17242116, 0.7828447, 2.5004096, 0.9540534, -0.63046074, 0
1653, 1861182344, -0.1602906, 0.57737255, 0.16717355, 0.7829454, 3.670579, 0.087891884, -0.169281, 0
1655, 1861215678, -0.16100469, 0.57993364, 0.16818774, 0.7806855, 2.2624078, 1.264355, -0.23260212, 0
1656, 1861232345, -0.1601642, 0.5814646, 0.16691583, 0.7799925, 3.3138437, 0.46862593, -0.38404465, 0
1657, 1861249012, -0.15826319, 0.58376366, 0.1636049, 0.7793643, 3.13413, 1.1388263, -0.29453087, 0
1659, 1861282346, -0.15684192, 0.58721215, 0.16260286, 0.77726805, 2.2503588, 0.81556153, 0.13925266, 0
1660, 1861299013, -0.15513049, 0.5885929, 0.16032843, 0.77703947, 2.7153773, 0.528678, 0.0936203, 0
1662, 1861332347, -0.15328306, 0.5906282, 0.1593108, 0.77607054, 2.3772924, 1.3181727, 0.08277893, 0
1663, 1861349014, -0.15288639, 0.5912634, 0.15926836, 0.7756738, 2.3325145, 1.03401, -0.05737114, 0
1664, 1861365681, -0.15143432, 0.5917839, 0.15690613, 0.77604306, 3.2905195, 1.7156099, 0.20614529, 0
1667, 1861415682, -0.15502445, 0.5928518, 0.16419557, 0.7730049, 3.533063, 0.99593306, 0.21093369, 0
1668, 1861432349, -0.15477642, 0.5953287, 0.16331613, 0.7713355, 3.196096, 1.3538144, 0.339962, 0
1670, 1861465683, -0.15671603, 0.59899044, 0.16552895, 0.7676284, 3.199652, 1.7399591, -0.11135101, 0
1671, 1861482350, -0.1582732, 0.6001344, 0.16689038, 0.7661191, 3.1829379, 1.7351713, -0.15762615, 0
1672, 1861499017, -0.15901953, 0.60177165, 0.16593486, 0.7648869, 3.6832752, 0.7679549, -0.20005417, 0
1674, 1861532351, -0.15958744, 0.60642457, 0.1640321, 0.7614967, 3.5338094, 1.1263434, -0.4567747, 0
1675, 1861549018, -0.16045684, 0.607254, 0.16585252, 0.76025766, 2.784434, 1.5688635, -0.6474495, 0
1676, 1861565685, -0.16185349, 0.6076783, 0.16713607, 0.7593411, 3.1855378, 1.4334209, -0.3898096, 0
1678, 1861599019, -0.16197683, 0.6122593, 0.16598424, 0.75587946, 3.0459735, 1.406398, -0.043890953, 0
1679, 1861615686, -0.16195406, 0.6134536, 0.16827694, 0.7544077, 2.6422532, 1.5745697, 0.15968704, 0
1682, 1861665687, -0.1626741, 0.6148943, 0.17200637, 0.752236, 2.9366927, 0.42470887, 0.5605669, 0
1683, 1861682354, -0.16219273, 0.6174314, 0.17117256, 0.75044966, 2.7099032, 1.1070646, 0.35896397, 0
1684, 1861699021, -0.1622666, 0.61847454, 0.17170021, 0.7494534, 2.2412505, 1.6610782, 0.19715118, 0
1686, 1861732355, -0.16315326, 0.6176483, 0.17282656, 0.74968344, 1.9335719, 0.6279546, 0.7366619, 0
1687, 1861749022, -0.16355827, 0.6180842, 0.17248774, 0.7493139, 2.1455069, 0.35673445, 0.50670433, 0
1689, 1861782356, -0.16342463, 0.620831, 0.17261235, 0.7470401, 2.4290452, 2.1341922, -0.42481136, 0
1690, 1861799023, -0.16438454, 0.62034494, 0.17578404, 0.74649364, 2.349727, 2.812852, -0.39286995, 0
1691, 1861815690, -0.1664019, 0.6181982, 0.17956638, 0.7469271, 2.0230134, 2.29134, 0.077106476, 0
1693, 1861849024, -0.17055556, 0.6144966, 0.18375006, 0.7480264, 2.9983883, -0.22199266, -0.082886696, 0
1694, 1861865691, -0.17163214, 0.61518437, 0.18433727, 0.7470698, 2.8638723, 0.52112436, -0.60278416, 0
1697, 1861915692, -0.1783878, 0.61233395, 0.19381115, 0.7454293, 2.0662844, 2.4860911, 0.16204548, 0
1698, 1861932359, -0.18111478, 0.6094976, 0.19822669, 0.745935, 2.3859336, 1.2557465, 0.39612007, 0
1699, 1861949026, -0.18404967, 0.60694575, 0.20309228, 0.74598855, 2.5908558, 0.60484356, 0.14710426, 0
1701, 1861982360, -0.19045675, 0.6030882, 0.20801984, 0.74615085, 2.3309293, 0.21039845, -0.2366457, 0
1702, 1861999027, -0.19281948, 0.60342, 0.20607443, 0.7458155, 2.6080801, 0.9426268, 0.07256603, 0
1703, 1862015694, -0.19363853, 0.6045165, 0.20331633, 0.7454724, 1.0549941, 1.1545485, -0.03704834, 0
1705, 1862049028, -0.19646925, 0.6028757, 0.20490983, 0.7456241, 1.8825892, 1.13966, 0.18173885, 0
1706, 1862065695, -0.19710837, 0.60177326, 0.20563067, 0.74614745, 2.2537167, 0.45382538, -0.11173248, 0
1707, 1862082362, -0.19788541, 0.600317, 0.20637427, 0.7469091, 2.0714893, 0.1847999, -0.35002518, 0
1709, 1862115696, -0.19940625, 0.598107, 0.20652294, 0.7482354, 2.2104692, 0.14232121, -0.114709854, 0
1712, 1862165697, -0.19750091, 0.5979609, 0.20403486, 0.7495389, 1.5300307, 1.0641387, -0.039525986, 0
1713, 1862182364, -0.1961417, 0.5976616, 0.20444942, 0.75002134, 1.7908194, 1.1801542, -0.14148521, 0
1714, 1862199031, -0.19474098, 0.59716964, 0.2047838, 0.7506867, 1.8976967, 0.98542255, -0.3903389, 0
1717, 1862249032, -0.18968739, 0.595378, 0.20296402, 0.7538912, 1.638997, 1.1134847, -0.9225302, 0
1718, 1862265699, -0.1876873, 0.5934815, 0.20329373, 0.7557961, 1.382609, 1.1610698, -1.0184774, 0
1720, 1862299033, -0.18696044, 0.5891523, 0.20961806, 0.7576334, 1.234592, 1.5132074, -1.3024101, 0
1721, 1862315700, -0.18815665, 0.5867155, 0.21666932, 0.75724435, 0.7083768, 1.4971234, -1.5521202, 0
1722, 1862332367, -0.18919568, 0.5843671, 0.22437665, 0.7565568, 0.78677857, 1.6293226, -1.4914474, 0
1724, 1862365701, -0.19311817, 0.5807333, 0.24592453, 0.7516502, 0.657418, 2.3544617, -1.4901743, 0
1726, 1862399035, -0.19825274, 0.57904005, 0.26268682, 0.74592674, 0.80416834, 0.5925446, -0.22278118, 0
1728, 1862432369, -0.20622265, 0.5741624, 0.28218797, 0.7403934, 4.2050924, -1.3915154, 2.0802135, 0
1729, 1862449036, -0.20415762, 0.57638323, 0.28456745, 0.73832655, 3.2246206, -1.1506164, 2.076809, 0
1730, 1862465703, -0.20190457, 0.57887703, 0.2889836, 0.73527366, 2.0606093, 0.017620979, 1.2546968, 0
1732, 1862499037, -0.19659834, 0.58022135, 0.29412585, 0.73361087, 0.9295694, 1.0506932, 0.011126518, 0
1733, 1862515704, -0.19497417, 0.5791493, 0.29789093, 0.7333722, 1.0754169, 1.3458136, -0.123277664, 0
1734, 1862532371, -0.19313303, 0.5784295, 0.30070606, 0.73327863, 2.2433856, 0.22596127, 0.60134125, 0
1736, 1862565705, -0.18948507, 0.5767523, 0.30131653, 0.73529804, 2.823912, -0.9884286, 2.1532907, 0
1737, 1862582372, -0.1879569, 0.5752228, 0.3018516, 0.7366677, 2.2411497, 0.16006958, 2.2967196, 0
1738, 1862599039, -0.18699588, 0.5732874, 0.30436158, 0.73738766, 0.6568264, 1.8240483, 0.64428806, 0
1741, 1862649040, -0.18759143, 0.5622733, 0.3149694, 0.7412524, 1.2443912, 0.97519845, -0.4150753, 0
1743, 1862682374, -0.19457348, 0.5488743, 0.32338643, 0.7458567, 1.0717393, 0.3072734, -0.40519524, 0
1744, 1862699041, -0.20065631, 0.5418284, 0.32842773, 0.74719286, 1.0322832, 0.058212776, -0.15314484, 0
1745, 1862715708, -0.2066015, 0.53667635, 0.33340874, 0.74708486, 0.7937851, -0.4072796, -0.12930298, 0
1748, 1862765709, -0.21984258, 0.5280612, 0.34681934, 0.74333006, 0.9084207, -1.547124, 0.23452282, 0
1749, 1862782376, -0.22316962, 0.526817, 0.35084268, 0.74133074, 0.51810676, -1.4024535, 0.12996483, 0
1751, 1862815710, -0.22765735, 0.5240792, 0.35653752, 0.7391865, 0.6070347, -1.5272352, -0.38804245, 0
1752, 1862832377, -0.22821629, 0.52520335, 0.35846353, 0.7372825, 0.3507636, -1.7113402, 0.28814888, 0
1753, 1862849044, -0.22764486, 0.52703875, 0.35975546, 0.735518, 0.66967887, -1.9026299, -0.05412197, 0
1755, 1862882378, -0.22347058, 0.5320489, 0.35975698, 0.73318654, 0.54036003, -1.7180972, -0.7623844, 0
1757, 1862915712, -0.21717688, 0.5390557, 0.35820225, 0.7307168, -0.0020962022, -1.9582312, -0.5498829, 0
1759, 1862949046, -0.20894772, 0.55094427, 0.3525187, 0.72700375, 0.5399556, -2.1915607, -0.8456392, 0
1760, 1862965713, -0.20482743, 0.5568078, 0.34903184, 0.72538984, -0.11953741, -2.312908, -0.59346104, 0
1761, 1862982380, -0.2016333, 0.56211966, 0.346341, 0.7234749, 0.30235285, -2.307845, -0.7978058, 0
1763, 1863015714, -0.19751191, 0.57351685, 0.34156448, 0.71791637, 0.18832558, -1.7297566, -0.6047993, 0
1764, 1863032381, -0.1959909, 0.5795167, 0.33848524, 0.7149675, 0.102125935, -1.7892475, -0.26604939, 0
1766, 1863065715, -0.19574994, 0.59068805, 0.33081406, 0.70946056, 0.67800957, -1.8039705, -0.721406, 0
1767, 1863082382, -0.19358489, 0.59785056, 0.3231422, 0.7075885, 1.6773549, -1.483111, -0.71405125, 0
1768, 1863099049, -0.19114867, 0.6076133, 0.31581205, 0.70323104, 1.7944931, -0.562412, 0.74881744, 0
1770, 1863132383, -0.1794217, 0.641386, 0.29301834, 0.6859844, -0.2796938, -1.0332825, -0.04379368, 0
1772, 1863165717, -0.17744558, 0.65766364, 0.2764727, 0.6779063, 0.4136729, 0.20404844, 0.5553007, 0
1774, 1863199051, -0.17552938, 0.6665877, 0.26103586, 0.6758055, 1.000962, 0.09781737, 1.096487, 0
1775, 1863215718, -0.17458814, 0.67060244, 0.2525443, 0.6753038, 0.6817015, 0.037948154, 0.6535969, 0
1776, 1863232385, -0.17374077, 0.6740568, 0.24517141, 0.6748001, 0.46848533, 0.46087003, 0.28090477, 0
1778, 1863265719, -0.17324471, 0.67838454, 0.23168139, 0.67535686, 0.29173088, 1.0467756, 0.1687727, 0
1779, 1863282386, -0.17357814, 0.67958283, 0.22579125, 0.67606133, -0.06640285, 1.0393844, 0.24885654, 0
1780, 1863299053, -0.17442514, 0.6802765, 0.22034134, 0.6769432, -0.24715833, 1.4359815, 0.5593672, 0
1782, 1863332387, -0.17698494, 0.68260205, 0.20743892, 0.6780137, -0.5677478, 1.3229414, 0.24609661, 0
1783, 1863349054, -0.1787036, 0.6831436, 0.20150459, 0.6788067, -0.7462657, 1.3593428, -0.16913033, 0
1784, 1863365721, -0.18045875, 0.68323076, 0.19630411, 0.6797777, -0.6513997, 1.426756, -0.3881197, 0
1787, 1863415722, -0.18629941, 0.68315977, 0.18706737, 0.6808772, -0.9873791, 1.1343825, -0.21210384, 0
1788, 1863432389, -0.1883078, 0.68292195, 0.1860471, 0.6808428, -1.0544791, 1.16069, -0.13370705, 0
1790, 1863465723, -0.19181363, 0.68342364, 0.18572977, 0.67944604, -1.0958387, 1.2056385, -0.4360714, 0
1791, 1863482390, -0.19321924, 0.6841491, 0.18638657, 0.6781366, -1.0129844, 1.1105886, -0.4580431, 0
1792, 1863499057, -0.19432, 0.6849082, 0.18752344, 0.6767409, -0.8627744, 1.1295654, -0.48757744, 0
1794, 1863532391, -0.19477414, 0.68637955, 0.19085526, 0.6741833, -0.5089992, 0.8992974, -0.38947773, 0
1795, 1863549058, -0.19410136, 0.68758667, 0.19295934, 0.67254645, -0.3008367, 0.7472145, -0.050351143, 0
1798, 1863599059, -0.18955165, 0.6917203, 0.19701448, 0.6684168, -0.3852142, 0.12148633, -0.081848145, 0
1799, 1863615726, -0.18727322, 0.6927453, 0.19771582, 0.6677902, -0.466181, 0.07355342, -0.18828583, 0
1801, 1863649060, -0.18180351, 0.69454694, 0.19860351, 0.6671666, -0.4431049, 0.17034827, -0.19301319, 0
1802, 1863665727, -0.17903435, 0.695387, 0.19917135, 0.6668711, -0.3780518, 0.37825906, -0.24872303, 0
1803, 1863682394, -0.17624798, 0.69625056, 0.19983117, 0.66651475, -0.29828185, 0.42984426, -0.31693172, 0
1805, 1863715728, -0.17143147, 0.69719315, 0.20138894, 0.6663169, -0.10411879, 0.41350433, 0.04564762, 0
1806, 1863732395, -0.16964677, 0.69757664, 0.20230673, 0.6660942, -5.545636E-4, 0.4598299, 0.27366352, 0
1807, 1863749062, -0.1683558, 0.6979481, 0.20292592, 0.66584426, -0.025484668, 0.49217725, 0.42704868, 0
1809, 1863782396, -0.16673857, 0.69781625, 0.20446429, 0.6659187, 0.04382681, 0.493818, 0.5889034, 0
1810, 1863799063, -0.16651802, 0.69750756, 0.2054571, 0.6659918, 0.017899364, 0.43723917, 0.6112137, 0
1811, 1863815730, -0.16657734, 0.6971601, 0.2066635, 0.66596735, 0.00578879, 0.11026587, 0.6219015, 0
1813, 1863849064, -0.16742037, 0.69651437, 0.20923582, 0.66562855, 0.17347759, -0.12966043, 0.38135338, 0
1815, 1863882398, -0.16862655, 0.6965207, 0.21095644, 0.66477394, -0.0134730255, -0.2234758, -0.07391834, 0
1817, 1863915732, -0.1695738, 0.6962088, 0.21207926, 0.664502, 0.002727375, -0.19332004, -0.14375019, 0
1818, 1863932399, -0.16970755, 0.69654053, 0.21243222, 0.66400754, -0.040149897, -0.25671396, -0.06915951, 0
1819, 1863949066, -0.16953191, 0.6970417, 0.21263403, 0.66346145, -0.060434524, -0.37478137, -0.13721561, 0
1821, 1863982400, -0.16860573, 0.6981205, 0.21279427, 0.6625113, -0.0076022483, -0.20734291, -0.034573555, 0
1822, 1863999067, -0.16787994, 0.69901216, 0.21296984, 0.6616984, -0.20106591, -0.16028818, 0.05603695, 0
1824, 1864032401, -0.16621548, 0.7011662, 0.21326178, 0.6597427, -0.36256036, -0.28757858, 0.13419819, 0
1825, 1864049068, -0.1655249, 0.7021625, 0.21348292, 0.6587847, -0.29486796, -0.20453113, 0.03866291, 0
1826, 1864065735, -0.16491707, 0.7030539, 0.21388993, 0.6578536, -0.27308214, -0.12800883, -0.041012764, 0
1828, 1864099069, -0.16424099, 0.7036664, 0.21498868, 0.6570092, -0.41926298, -0.18982022, 0.060518265, 0
1830, 1864132403, -0.16370946, 0.7039864, 0.21639459, 0.65633714, -0.11398138, -0.3803468, -0.17464352, 0
1832, 1864165737, -0.16429123, 0.7031722, 0.21902394, 0.6561923, -0.16656387, 0.087306954, 0.33455563, 0
1833, 1864182404, -0.16481934, 0.7026444, 0.22012785, 0.65625596, 0.057496473, 0.089605615, 0.28920746, 0
1834, 1864199071, -0.16540314, 0.70207465, 0.22116557, 0.6563699, -0.0017161884, -0.06918458, 0.22330952, 0
