sep=,
DeviceTag:,Xsens_DOT_5,,,,,,,,,,,,,,,,,
FirmwareVersion:,3.0.0,,,,,,,,,,,,,,,,,
AppVersion:,2023.6.1,,,,,,,,,,,,,,,,,
SyncStatus:,Synced,,,,,,,,,,,,,,,,,
OutputRate:,60Hz,,,,,,,,,,,,,,,,,
FilterProfile:,General,,,,,,,,,,,,,,,,,
Measurement Mode:,Sensor fusion Mode - Extended (Quaternion),,,,,,,,,,,,,,,,,
StartTime:,2025-05-05 11:42:28.605 +0200,,,,,,,,,,,,,,,,,
 2025,,,,,,,,,,,,,,,,,,,

PacketCounter,SampleTimeFine,Quat_W,Quat_X,Quat_Y,Quat_Z,FreeAcc_X,FreeAcc_Y,FreeAcc_Z,Status
1, 2141637953, -0.6917502, -0.013460871, -0.36738184, 0.62155515, -0.055355217, 0.16222708, -0.13553524, 0
2, 2141654620, -0.6917775, -0.013475375, -0.36732823, 0.62155634, -0.035201054, 0.17916569, -0.13234997, 0
3, 2141671287, -0.69184625, -0.013478473, -0.36724383, 0.62152946, -0.026633134, 0.14267784, -0.12413025, 0
4, 2141687954, -0.69195664, -0.013478741, -0.36712483, 0.62147695, -0.0027570324, 0.1642635, -0.1053648, 0
5, 2141704621, -0.6920701, -0.013455186, -0.367003, 0.6214228, 0.007232656, 0.15194708, -0.102807045, 0
6, 2141721288, -0.69215363, -0.013414124, -0.36690924, 0.6213863, 0.004844196, 0.1666341, -0.12592506, 0
7, 2141737955, -0.6922185, -0.013354907, -0.36682114, 0.6213672, -0.031853277, 0.13749808, -0.1253519, 0
8, 2141754622, -0.69222254, -0.013335656, -0.36678207, 0.6213863, -0.002862307, 0.1253422, -0.10817814, 0
9, 2141771289, -0.69224656, -0.0132919345, -0.36679485, 0.6213529, 0.027034115, 0.12516607, -0.09115696, 0
10, 2141787956, -0.6921987, -0.013259752, -0.36690432, 0.6213422, 0.02927595, 0.12114387, -0.099702835, 0
11, 2141804623, -0.6921216, -0.0132368505, -0.36705863, 0.6213374, -0.0019776425, 0.15710436, -0.12504578, 0
12, 2141821290, -0.69202703, -0.013210861, -0.3672226, 0.6213464, 0.019478036, 0.15562294, -0.09029579, 0
13, 2141837957, -0.69193286, -0.013151081, -0.36737275, 0.6213638, -0.004967352, 0.16876328, -0.12014961, 0
14, 2141854624, -0.6918485, -0.013090264, -0.36746317, 0.62140554, -0.038822412, 0.17687508, -0.1288147, 0
15, 2141871291, -0.691766, -0.013024753, -0.36747226, 0.6214934, -0.018870976, 0.1798, -0.13453674, 0
16, 2141887958, -0.691678, -0.012963954, -0.3674555, 0.6216026, -0.040284634, 0.13282603, -0.12979603, 0
17, 2141904625, -0.6916207, -0.012891429, -0.36742267, 0.6216873, 0.0052094166, 0.17604004, -0.12333393, 0
18, 2141921292, -0.6915248, -0.012815908, -0.3673527, 0.6218369, 0.021593811, 0.17102928, -0.102007866, 0
19, 2141937959, -0.69137824, -0.012755878, -0.36728936, 0.6220384, -0.0143513195, 0.12157382, -0.13611889, 0
20, 2141954626, -0.69126767, -0.012697142, -0.36729944, 0.6221565, -0.054666128, 0.118061125, -0.124240875, 0
21, 2141971293, -0.6911627, -0.012677601, -0.36730933, 0.6222678, -0.043443095, 0.13285764, -0.14962292, 0
22, 2141987960, -0.69110096, -0.012707552, -0.3672727, 0.6223573, -0.041402645, 0.1265721, -0.12905788, 0
23, 2142004627, -0.69105697, -0.012730433, -0.36720455, 0.6224459, -0.029418776, 0.1542612, -0.13471317, 0
24, 2142021294, -0.6910513, -0.01275738, -0.3671355, 0.6224923, -0.057394996, 0.1317752, -0.12796402, 0
25, 2142037961, -0.69106597, -0.012784796, -0.3670572, 0.62252164, -0.005440529, 0.16467507, -0.13100529, 0
26, 2142054628, -0.69102395, -0.0127628185, -0.3669497, 0.6226322, 0.023418346, 0.19956088, -0.109093666, 0
27, 2142071295, -0.69099677, -0.012692779, -0.36673716, 0.62278897, -0.038454063, 0.1713922, -0.14992905, 0
28, 2142087962, -0.6909853, -0.012647582, -0.36647645, 0.622956, -0.0814061, 0.13096903, -0.12933254, 0
29, 2142104629, -0.6910444, -0.0126170665, -0.36616716, 0.6230731, -0.06129463, 0.11040593, -0.11272144, 0
30, 2142121296, -0.691139, -0.01255995, -0.3658527, 0.6231541, 0.02533497, 0.16576791, -0.10792446, 0
31, 2142137963, -0.6911853, -0.012492983, -0.36558086, 0.62326354, 0.011972918, 0.111151285, -0.11818218, 0
32, 2142154630, -0.69119984, -0.012437528, -0.36537158, 0.6233711, 0.0018649921, 0.13218987, -0.10401726, 0
33, 2142171297, -0.6911852, -0.012401644, -0.36518624, 0.6234967, -0.014635628, 0.12662569, -0.11561108, 0
34, 2142187964, -0.6912063, -0.012369046, -0.36499614, 0.6235852, -0.04913463, 0.13958552, -0.12528515, 0
35, 2142204631, -0.69125867, -0.012357987, -0.364793, 0.62364626, -0.03984744, 0.117955655, -0.11810112, 0
36, 2142221298, -0.6913388, -0.012375744, -0.36460802, 0.62366515, -0.036463905, 0.06160781, -0.13386822, 0
37, 2142237965, -0.6914153, -0.012421718, -0.36451867, 0.6236316, 0.04330854, 0.0785593, -0.11264801, 0
38, 2142254632, -0.6914438, -0.012468556, -0.36453593, 0.6235891, 0.01981286, 0.094566934, -0.11525917, 0
39, 2142271299, -0.69142383, -0.01257661, -0.3646687, 0.6235314, -0.010178333, 0.111386396, -0.11787701, 0
40, 2142287966, -0.69140303, -0.012678118, -0.36485055, 0.6234461, 0.015486989, 0.1446363, -0.098059654, 0
41, 2142304633, -0.69136834, -0.012757974, -0.36500776, 0.62339085, -0.05451928, 0.16843657, -0.12138367, 0
42, 2142321300, -0.69139755, -0.012814082, -0.3650859, 0.62331146, -0.044166382, 0.13686496, -0.1124897, 0
44, 2142354634, -0.6915398, -0.012922695, -0.3651702, 0.6231022, -0.034152333, 0.100074224, -0.11502266, 0
47, 2142404635, -0.69172317, -0.013181515, -0.3655946, 0.6226442, -0.03852827, 0.1266921, -0.11040211, 0
48, 2142421302, -0.6917842, -0.013301017, -0.36569136, 0.62251693, -0.008122237, 0.1584766, -0.10457897, 0
50, 2142454636, -0.6918558, -0.013272878, -0.36578065, 0.62238556, -0.017608574, 0.14174053, -0.12132263, 0
51, 2142471303, -0.691853, -0.013286354, -0.365817, 0.622367, -0.036260284, 0.08518393, -0.13784122, 0
52, 2142487970, -0.6919192, -0.013343032, -0.36590275, 0.62224185, -0.045351896, 0.08318818, -0.12869453, 0
54, 2142521304, -0.69198096, -0.013441816, -0.3662063, 0.62199223, 0.008940518, 0.17236662, -0.11455536, 0
55, 2142537971, -0.69193375, -0.013444943, -0.36636412, 0.6219518, -0.008749191, 0.17010437, -0.108633995, 0
56, 2142554638, -0.69194716, -0.013420733, -0.3664484, 0.6218878, -0.059369735, 0.14373021, -0.12110615, 0
59, 2142604639, -0.6920643, -0.013395635, -0.3661084, 0.6219582, -0.07225078, 0.097117886, -0.13950825, 0
60, 2142621306, -0.6922099, -0.013376914, -0.3659639, 0.62188166, -0.03265055, 0.10755048, -0.12267113, 0
63, 2142671307, -0.69243836, -0.013312198, -0.36574203, 0.6217591, 0.018460158, 0.15603901, -0.09250164, 0
64, 2142687974, -0.6924296, -0.013273073, -0.36568606, 0.6218027, -0.056705013, 0.14347437, -0.12408543, 0
66, 2142721308, -0.69257027, -0.01320596, -0.3655264, 0.62174124, -0.0129975015, 0.10886118, -0.1283102, 0
67, 2142737975, -0.69259435, -0.013205776, -0.36555365, 0.62169844, 0.042655658, 0.1087105, -0.088344574, 0
68, 2142754642, -0.6925275, -0.013221109, -0.36572787, 0.6216703, 0.033475984, 0.098117225, -0.10691357, 0
70, 2142787976, -0.6922859, -0.013318632, -0.36630675, 0.6215964, 0.013896471, 0.16386238, -0.12706375, 0
71, 2142804643, -0.69209856, -0.013343198, -0.36657727, 0.6216451, -0.055045653, 0.13207924, -0.14735413, 0
74, 2142854644, -0.6917034, -0.0138008725, -0.36746883, 0.6215486, 0.011546455, 0.118943736, -0.14062214, 0
75, 2142871311, -0.6914743, -0.014006808, -0.36785015, 0.6215732, 0.022906948, 0.16022094, -0.13737774, 0
77, 2142904645, -0.6910655, -0.014380578, -0.3686024, 0.6215736, -0.016034372, 0.12262725, -0.11834335, 0
79, 2142937979, -0.69064057, -0.014876211, -0.36947212, 0.621518, -0.043913145, 0.078392476, -0.124456406, 0
81, 2142971313, -0.69020396, -0.015465656, -0.37060598, 0.6213134, 0.01136161, 0.124601066, -0.09540367, 0
82, 2142987980, -0.68989944, -0.015794443, -0.37129247, 0.6212336, 0.011594064, 0.13292806, -0.11125469, 0
83, 2143004647, -0.6895571, -0.01606068, -0.3719568, 0.62120944, 0.021207804, 0.15910655, -0.127779, 0
85, 2143037981, -0.6890548, -0.016204722, -0.37287313, 0.6212136, -0.120023996, 0.17896706, -0.12062359, 0
86, 2143054648, -0.68906164, -0.016147077, -0.37295517, 0.6211583, -0.15881221, 0.18971287, -0.14946556, 0
89, 2143104649, -0.6895046, -0.015848748, -0.37244365, 0.62098134, -0.03693842, 0.084933095, -0.15163898, 0
90, 2143121316, -0.6898066, -0.015735677, -0.37216544, 0.62081563, -0.076432936, 0.11809389, -0.085941315, 0
91, 2143137983, -0.6902651, -0.015680598, -0.3716445, 0.62061936, -0.19538653, 0.07169783, -0.14379787, 0
93, 2143171317, -0.6917249, -0.015903775, -0.36986727, 0.62004995, -0.16802676, 0.08102388, -0.15783215, 0
95, 2143204651, -0.6936177, -0.016245535, -0.3677057, 0.6192116, 0.055025313, 0.15254389, -0.07896042, 0
97, 2143237985, -0.69489527, -0.016344545, -0.3659426, 0.6188208, 0.110873155, 0.122277245, -0.10050678, 0
98, 2143254652, -0.6952261, -0.01624399, -0.3655, 0.61871356, 0.1285537, 0.1159327, -0.049780846, 0
99, 2143271319, -0.6953763, -0.016133813, -0.3653294, 0.6186483, 0.07522082, 0.079646744, -0.073197365, 0
101, 2143304653, -0.6953006, -0.016115032, -0.36556947, 0.61859226, 0.013660441, 0.056552604, -0.09564972, 0
103, 2143337987, -0.6950806, -0.016475912, -0.36627626, 0.6184117, -0.09839934, 0.053223968, -0.15701866, 0
105, 2143371321, -0.69538313, -0.017331557, -0.36658797, 0.61786336, -0.059323244, 0.16551028, -0.12781811, 0
106, 2143387988, -0.6955966, -0.017641198, -0.3666199, 0.6175953, 0.075412154, 0.16131064, -0.11851883, 0
108, 2143421322, -0.69562256, -0.018065112, -0.36685973, 0.61741126, 0.03171023, 0.14659944, -0.085858345, 0
109, 2143437989, -0.69551873, -0.018189393, -0.36702907, 0.617424, 0.0069890264, 0.16771649, -0.079442024, 0
110, 2143454656, -0.695405, -0.018176647, -0.3671961, 0.61745316, -0.012930895, 0.1694619, -0.1189518, 0
112, 2143487990, -0.695271, -0.018147856, -0.36748916, 0.6174304, -0.07201006, 0.062507324, -0.13173866, 0
113, 2143504657, -0.6952624, -0.018252121, -0.3677183, 0.61730075, -0.09561169, 0.06458544, -0.12170696, 0
114, 2143521324, -0.695316, -0.018401166, -0.367996, 0.61707026, 0.02769996, 0.11579198, -0.089152336, 0
116, 2143554658, -0.69533545, -0.01853, -0.36852774, 0.61672723, -0.049532484, 0.1391346, -0.1301794, 0
118, 2143587992, -0.6956627, -0.018642375, -0.368244, 0.6165242, -0.032266553, 0.2232967, -0.15467453, 0
120, 2143621326, -0.69609755, -0.01827392, -0.3671512, 0.61669606, -0.052961618, 0.13801445, -0.109669685, 0
121, 2143637993, -0.6963196, -0.018040955, -0.36661413, 0.61677176, 0.01987522, 0.05677936, -0.06267452, 0
122, 2143654660, -0.69644946, -0.017814284, -0.36628723, 0.61682594, 0.08944474, 0.07014197, -0.08997917, 0
125, 2143704661, -0.6960812, -0.017638348, -0.36655065, 0.6170901, -0.0071868356, 0.022588499, -0.069978714, 0
126, 2143721328, -0.6958713, -0.017778045, -0.36699277, 0.61706036, -0.062454436, 0.029157544, -0.11900234, 0
128, 2143754662, -0.6954429, -0.018221257, -0.36810112, 0.6168701, -0.008010928, 0.09406436, -0.12392807, 0
129, 2143771329, -0.69524425, -0.018450115, -0.3686833, 0.6167395, -0.07940879, 0.11940897, -0.15590286, 0
131, 2143804663, -0.69529444, -0.019017445, -0.36904368, 0.61645013, -0.063993104, 0.25097367, -0.14272213, 0
133, 2143837997, -0.69574624, -0.019011049, -0.36824694, 0.61641705, -0.078286305, 0.17737024, -0.17256355, 0
135, 2143871331, -0.69618905, -0.018719466, -0.36715254, 0.6165788, 0.078220814, 0.120113656, -0.07040596, 0
136, 2143887998, -0.6962327, -0.018520338, -0.36688644, 0.6166939, 0.08000982, 0.061386466, -0.07347107, 0
137, 2143904665, -0.69615036, -0.018366579, -0.36685506, 0.61680996, 0.055844266, 0.05674983, -0.06362629, 0
139, 2143937999, -0.6958055, -0.018284459, -0.36735362, 0.616905, -0.12785433, 0.019902544, -0.14190674, 0
141, 2143971333, -0.6957833, -0.018588161, -0.3676821, 0.61672497, -0.086213864, 0.15614174, -0.16099453, 0
143, 2144004667, -0.6959745, -0.01879119, -0.36747757, 0.61662495, -0.0987393, 0.12161689, -0.15917778, 0
144, 2144021334, -0.6961467, -0.018907487, -0.36722663, 0.6165766, -0.07108919, 0.08909556, -0.12199116, 0
145, 2144038001, -0.6963529, -0.01896036, -0.3670103, 0.61647105, 0.034071643, 0.11278126, -0.08684254, 0
148, 2144088002, -0.696338, -0.019095575, -0.36690637, 0.6165455, -0.058405053, 0.0452419, -0.11287212, 0
149, 2144104669, -0.696347, -0.019192073, -0.3669482, 0.61650723, -0.05064312, 0.07690505, -0.13337803, 0
151, 2144138003, -0.69637716, -0.01955739, -0.36711437, 0.61636287, -0.041984227, 0.06431144, -0.11539173, 0
152, 2144154670, -0.696466, -0.019757416, -0.3671983, 0.61620605, -0.05199783, 0.11428427, -0.10455036, 0
153, 2144171337, -0.69652617, -0.019928135, -0.36725995, 0.61609596, 0.008144588, 0.119531155, -0.10846424, 0
155, 2144204671, -0.69650567, -0.020083297, -0.36750463, 0.61596805, -0.0051249284, 0.13397792, -0.11375904, 0
158, 2144254672, -0.69704264, -0.020625003, -0.36683598, 0.61574143, -0.052731846, 0.20257789, -0.11276436, 0
159, 2144271339, -0.697351, -0.020676875, -0.3662718, 0.6157263, -0.059409074, 0.16125083, -0.11400223, 0
160, 2144288006, -0.6976489, -0.020610563, -0.36568955, 0.61573696, 0.013970901, 0.12841238, -0.10298729, 0
163, 2144338007, -0.69812423, -0.01983079, -0.36461362, 0.6158621, 0.022342356, 0.0847629, -0.09003544, 0
164, 2144354674, -0.698072, -0.01953453, -0.36459738, 0.61594045, 0.01568681, 0.064600885, -0.09262848, 0
166, 2144388008, -0.6980211, -0.019434702, -0.36465636, 0.6159664, -0.12758388, 0.03218475, -0.15798569, 0
167, 2144404675, -0.698177, -0.019686408, -0.3644735, 0.61588985, -0.12791178, 0.110649586, -0.1210022, 0
168, 2144421342, -0.6984244, -0.019946827, -0.36416566, 0.6157829, -0.082287416, 0.1347214, -0.13915062, 0
170, 2144454676, -0.6989036, -0.020387903, -0.3634927, 0.61562246, -0.06091086, 0.04722851, -0.13650322, 0
171, 2144471343, -0.6991474, -0.020611312, -0.36325216, 0.61548, -0.0040887226, 0.072456114, -0.094994545, 0
174, 2144521344, -0.6991013, -0.020738091, -0.36338815, 0.6154479, 0.04391292, 0.17033307, -0.11185646, 0
175, 2144538011, -0.6988665, -0.020542972, -0.3634527, 0.61568314, -0.0024673594, 0.18857229, -0.123773575, 0
178, 2144588012, -0.69906676, -0.020160144, -0.36213988, 0.61624163, -0.1615858, 0.035852764, -0.1327467, 0
179, 2144604679, -0.6993908, -0.020194152, -0.36161447, 0.61618143, 0.01858935, 0.005170972, -0.03461933, 0
180, 2144621346, -0.69955075, -0.020327844, -0.3615267, 0.61604697, 0.08915954, -0.055416238, -0.07173157, 0
182, 2144654680, -0.6992938, -0.020801075, -0.3626225, 0.6156789, 0.16734348, 0.100813255, -0.0751791, 0
183, 2144671347, -0.6988261, -0.02086059, -0.36354327, 0.61566484, 0.10990043, 0.17796387, -0.109684944, 0
184, 2144688014, -0.6983129, -0.020785872, -0.36443368, 0.6157233, -0.04818336, 0.16479523, -0.15343094, 0
186, 2144721348, -0.69767976, -0.020739848, -0.36538923, 0.6158763, -0.26355484, 0.14324331, -0.21432686, 0
187, 2144738015, -0.6977466, -0.020815969, -0.36520043, 0.6159097, -0.20763952, 0.18406379, -0.16962719, 0
189, 2144771349, -0.6983042, -0.020460706, -0.36367846, 0.61619025, -0.007957731, 0.2655832, -0.13610077, 0
190, 2144788016, -0.69856936, -0.020159496, -0.36264667, 0.61650765, -0.10587138, -0.016355002, -0.14332008, 0
193, 2144838017, -0.69913405, -0.019990996, -0.36148202, 0.616557, 0.16482717, -0.0025598381, -0.023324013, 0
194, 2144854684, -0.6989768, -0.020073041, -0.3619661, 0.6164486, 0.088344164, -0.035727065, -0.048998833, 0
195, 2144871351, -0.69865054, -0.020143585, -0.36274126, 0.6163606, 0.074082024, 0.088526525, -0.0877285, 0
197, 2144904685, -0.69807035, -0.020176781, -0.36400366, 0.61627275, -0.18669769, 0.18332793, -0.2001009, 0
198, 2144921352, -0.6980125, -0.020142237, -0.36393204, 0.6163816, -0.17536134, 0.25023752, -0.21237946, 0
199, 2144938019, -0.69815207, -0.019969875, -0.3633781, 0.616556, -0.12714155, 0.19765349, -0.1623087, 0
201, 2144971353, -0.69861466, -0.019703826, -0.36202207, 0.61683804, 0.035440214, -0.021095293, -0.08320999, 0
203, 2145004687, -0.6985612, -0.019835578, -0.36185098, 0.6169949, 0.09963492, 3.291787E-4, -0.068938255, 0
205, 2145038021, -0.6978612, -0.019976515, -0.3630214, 0.61709493, 0.20255817, 0.19062501, -0.065862656, 0
207, 2145071355, -0.696816, -0.019689644, -0.3642161, 0.61758095, -0.19144757, 0.23197457, -0.20805264, 0
209, 2145104689, -0.69641805, -0.019112129, -0.36373973, 0.61832845, -0.18605286, 0.059598304, -0.16859913, 0
210, 2145121356, -0.6965211, -0.018879447, -0.3633567, 0.6184445, -0.15528317, -0.048892062, -0.101426125, 0
212, 2145154690, -0.6966167, -0.018822722, -0.3631565, 0.6184561, 0.09872299, 0.028754495, -0.06327057, 0
213, 2145171357, -0.6963847, -0.018834447, -0.36349005, 0.61852133, 0.11316662, 0.060217686, -0.037817955, 0
214, 2145188024, -0.6960514, -0.018792517, -0.36407948, 0.6185509, 0.06800695, 0.04735611, -0.06650829, 0
216, 2145221358, -0.69516194, -0.018680187, -0.36545846, 0.6187415, -0.17170534, 0.13980316, -0.20732498, 0
217, 2145238025, -0.6949451, -0.018576328, -0.3655814, 0.61891544, -0.24681798, 0.20380278, -0.22825432, 0
220, 2145288026, -0.6957335, -0.017845536, -0.3632198, 0.61944145, -0.024302118, -0.03380466, -0.111777306, 0
222, 2145321360, -0.6961137, -0.017820671, -0.3623529, 0.61952263, 0.120375805, -0.012600431, -0.06179142, 0
224, 2145354694, -0.69571155, -0.017883461, -0.3630388, 0.61957115, 0.09884525, -0.013225206, -0.042056084, 0
225, 2145371361, -0.6953005, -0.017990438, -0.3639429, 0.61949885, -0.048496053, -0.0075272038, -0.12327385, 0
226, 2145388028, -0.69486046, -0.01823108, -0.3649523, 0.61939174, -0.03090916, 0.07096372, -0.12662983, 0
228, 2145421362, -0.6939993, -0.018567191, -0.3666938, 0.61931884, -0.09033947, 0.1482042, -0.2028265, 0
229, 2145438029, -0.69372797, -0.018510183, -0.36709732, 0.6193854, -0.038023576, 0.25905383, -0.14546967, 0
230, 2145454696, -0.69343394, -0.018288217, -0.3672002, 0.6196601, -0.08191616, 0.21492794, -0.12958908, 0
232, 2145488030, -0.69302917, -0.017583258, -0.36687, 0.62032884, -0.016934011, 0.07800829, -0.113313675, 0
233, 2145504697, -0.6928388, -0.017196089, -0.3666118, 0.6207046, -0.07223156, 0.084129274, -0.12363243, 0
237, 2145571365, -0.69225013, -0.01593432, -0.36571285, 0.6219243, -0.112525806, -0.0026193762, -0.09167194, 0
239, 2145604699, -0.6921955, -0.01610052, -0.36581844, 0.62191886, 0.03792389, 0.020874321, -0.079657555, 0
240, 2145621366, -0.6920013, -0.016294692, -0.36619312, 0.62190926, 0.09207929, 0.093471594, -0.112532616, 0
241, 2145638033, -0.6916627, -0.01647221, -0.3666253, 0.6220266, 0.011863174, 0.12053693, -0.118439674, 0
243, 2145671367, -0.69085723, -0.01672824, -0.36745173, 0.62242734, -0.05891198, 0.09768555, -0.16482925, 0
244, 2145688034, -0.69044733, -0.016755719, -0.3677913, 0.6226806, 0.023325812, 0.08983322, -0.20246887, 0
245, 2145704701, -0.68994707, -0.016729904, -0.36813873, 0.6230304, 0.0058643096, 0.082769446, -0.15091324, 0
247, 2145738035, -0.68890846, -0.016694348, -0.3691419, 0.6235871, -0.053051695, 0.01357404, -0.09646225, 0
248, 2145754702, -0.68840104, -0.016830614, -0.36980024, 0.6237536, -0.14846043, -0.036253188, -0.11822605, 0
249, 2145771369, -0.6879661, -0.017189302, -0.37056997, 0.6237667, -0.18105577, -0.021504084, -0.11368656, 0
253, 2145838037, -0.68610793, -0.01921554, -0.37386256, 0.6237895, -0.118468575, 0.09834746, -0.11244297, 0
255, 2145871371, -0.6855756, -0.0198861, -0.37497255, 0.6236872, 0.016413897, 0.10371789, -0.1174469, 0
256, 2145888038, -0.68533456, -0.02005266, -0.37552205, 0.6236165, -0.032444246, 0.110310934, -0.05663109, 0
257, 2145904705, -0.6851846, -0.020250618, -0.37604186, 0.6234618, -0.10464005, 0.04558516, -0.055073738, 0
259, 2145938039, -0.68487346, -0.020719485, -0.37720153, 0.6230874, 0.011096077, 0.12353849, -0.088095665, 0
260, 2145954706, -0.68470865, -0.02095785, -0.37777257, 0.6229144, -0.083983876, 0.032442823, -0.09162235, 0
261, 2145971373, -0.6845706, -0.021297941, -0.37845019, 0.6226435, -0.11367913, -0.090983704, -0.16313744, 0
263, 2146004707, -0.68403983, -0.02230781, -0.3806187, 0.6218691, 0.13746516, 0.050052345, -0.029572487, 0
264, 2146021374, -0.6834792, -0.02290545, -0.38198906, 0.6216234, 0.07816092, 0.13125248, -0.09558678, 0
267, 2146071375, -0.6808267, -0.0238521, -0.3863989, 0.6217731, -0.11389885, 0.114664994, -0.066615105, 0
268, 2146088042, -0.67984146, -0.024143519, -0.38781387, 0.6219591, -0.15100312, 0.083094575, -0.16089058, 0
270, 2146121376, -0.6782018, -0.025101412, -0.39042628, 0.62207663, -0.083747625, -0.028665341, -0.18316364, 0
271, 2146138043, -0.677577, -0.025461676, -0.39156786, 0.6220253, -0.13479216, 0.095971465, -0.14717484, 0
272, 2146154710, -0.677058, -0.025884748, -0.39262724, 0.6219054, -0.26480675, -0.011391729, -0.17363739, 0
274, 2146188044, -0.6762433, -0.027192293, -0.39490297, 0.62129474, 0.10701264, 0.0481745, 0.045654297, 0
275, 2146204711, -0.6757387, -0.027672773, -0.39659944, 0.6207418, 0.2082772, -0.22471443, 0.24891186, 0
276, 2146221378, -0.67535233, -0.02681027, -0.39940965, 0.6193968, 1.1399939, -0.14839707, 1.4157238, 0
278, 2146254712, -0.67455894, -0.01183892, -0.40777847, 0.6152616, 1.0269301, 1.4498899, 0.58897305, 0
279, 2146271379, -0.6743483, -0.0011277925, -0.41041526, 0.6138503, -0.25102583, 1.3517437, 0.8298578, 0
283, 2146338047, -0.7199516, 0.012925664, -0.3862036, 0.5764975, 2.3275821, 4.9655004, -1.1953163, 0
284, 2146354714, -0.74106646, 0.009773789, -0.3738665, 0.5576279, -0.058565088, 3.7488682, -1.2408743, 0
286, 2146388048, -0.77696335, 0.0034094043, -0.3660474, 0.5121771, -5.057388, 1.5624614, -5.5155773, 0
287, 2146404715, -0.78950924, -0.009281097, -0.3689292, 0.49038768, -6.4320893, 0.26930997, -7.733766, 0
288, 2146421382, -0.79701257, -0.028447252, -0.3775822, 0.4705245, -5.7195754, 0.21417099, -6.5234914, 0
290, 2146454716, -0.80157804, 0.0030053183, -0.39259383, 0.4509254, -1.7579992, -21.116468, -0.118925095, 0
291, 2146471383, -0.804476, 0.007890914, -0.39256752, 0.44569796, -2.4337082, -4.3626313, -2.4986506, 0
293, 2146504717, -0.8079016, 0.015777199, -0.38717616, 0.44400525, 1.6225823, -1.7856382, -0.2752657, 0
294, 2146521384, -0.80667746, 0.018229607, -0.38713315, 0.4461694, 1.3102223, 0.70525736, 0.35894203, 0
297, 2146571385, -0.7986224, 0.023203667, -0.39331537, 0.45493588, -0.83942926, -0.11265475, -0.008594513, 0
299, 2146604719, -0.7970408, 0.024667718, -0.39547643, 0.4557585, -1.3164732, -0.5109039, -0.17418289, 0
301, 2146638053, -0.79940236, 0.024803469, -0.3933921, 0.4534128, -0.26000836, 0.115495354, -0.084625244, 0
302, 2146654720, -0.80080855, 0.025054013, -0.39177054, 0.4523206, 0.13212231, 0.17391537, -0.16979027, 0
303, 2146671387, -0.8017993, 0.02545932, -0.3905175, 0.45162565, 0.36916316, 0.19322671, -0.11120033, 0
305, 2146704721, -0.80208904, 0.026217114, -0.3897908, 0.4516955, 0.20982324, 0.15436813, -0.016817093, 0
306, 2146721388, -0.80175644, 0.026529707, -0.38996643, 0.45211607, -0.05225867, 0.042209096, -0.08170509, 0
307, 2146738055, -0.8014295, 0.026737163, -0.39027897, 0.45241362, -0.1967951, -0.06456735, -0.11194992, 0
309, 2146771389, -0.8012773, 0.02698243, -0.39046746, 0.45250618, -0.2879066, 0.044568837, -0.11280918, 0
311, 2146804723, -0.8017267, 0.027126364, -0.38987622, 0.4522112, -0.14994076, 0.08450325, -0.09901047, 0
313, 2146838057, -0.8022446, 0.027298542, -0.3887385, 0.45226148, -0.08072819, 0.1306715, -0.11609745, 0
315, 2146871391, -0.8027302, 0.027749466, -0.38713032, 0.4527517, -0.107964806, 0.10964193, -0.12913513, 0
317, 2146904725, -0.80320585, 0.028389733, -0.38533726, 0.4533977, -0.06390325, 0.006157695, -0.09635067, 0
318, 2146921392, -0.8033708, 0.028658457, -0.38462454, 0.45369384, -0.05352733, 0.030686967, -0.11028671, 0
320, 2146954726, -0.8034304, 0.029069569, -0.38370404, 0.4543412, -0.05240954, 0.047192283, -0.102231026, 0
321, 2146971393, -0.8033531, 0.0292385, -0.38347983, 0.45465583, -0.099666215, 0.010849284, -0.091483116, 0
322, 2146988060, -0.8033153, 0.02937686, -0.3833041, 0.454862, -0.16511796, -0.05458356, -0.15032959, 0
324, 2147021394, -0.8034045, 0.02950374, -0.38299108, 0.45495987, -0.104584396, 0.0012121107, -0.111629486, 0
326, 2147054728, -0.80335075, 0.02952834, -0.38290665, 0.4551239, -0.04626383, 0.11597026, -0.07608223, 0
328, 2147088062, -0.80304617, 0.029622752, -0.38291204, 0.45565075, -0.16138709, 0.011920791, -0.1491785, 0
329, 2147104729, -0.80295163, 0.029675493, -0.38288167, 0.4558393, -0.1697353, 0.017818384, -0.15488338, 0
332, 2147154730, -0.80307454, 0.029865332, -0.3825359, 0.45590055, -0.11554927, 0.0044309907, -0.10651493, 0
333, 2147171397, -0.8031493, 0.029875085, -0.38248664, 0.45580953, -0.09855893, -0.030708766, -0.09884071, 0
334, 2147188064, -0.8031861, 0.02977398, -0.38259357, 0.45566168, -0.0701786, 0.006674544, -0.077773094, 0
336, 2147221398, -0.80306304, 0.029471489, -0.3831586, 0.4554235, -0.030879209, 0.084229715, -0.06023407, 0
337, 2147238065, -0.802879, 0.02936649, -0.38353145, 0.45544115, -0.05669585, 0.12076423, -0.08947277, 0
338, 2147254732, -0.802658, 0.02930957, -0.38385084, 0.45556527, -0.12621911, 0.15195645, -0.07637501, 0
341, 2147304733, -0.8023289, 0.029502738, -0.38381907, 0.45615867, -0.21926978, 0.049986094, -0.14875889, 0
342, 2147321400, -0.80244195, 0.029613484, -0.3834289, 0.45628083, -0.22068574, 0.050128452, -0.13681316, 0
344, 2147354734, -0.8029722, 0.02973663, -0.3822536, 0.45632586, -0.14146805, 0.07230158, -0.08637047, 0
345, 2147371401, -0.8033203, 0.029785926, -0.38153386, 0.4563127, -0.10558998, 0.017637903, -0.09640694, 0
346, 2147388068, -0.8036971, 0.029818665, -0.38076317, 0.4562905, -0.11937939, -0.024644602, -0.12837315, 0
348, 2147421402, -0.8044259, 0.02974391, -0.37929448, 0.4562343, -0.081203595, 0.07090061, -0.105181694, 0
349, 2147438069, -0.80474573, 0.029698994, -0.3785949, 0.45625445, -0.0745561, 0.040684395, -0.10892582, 0
351, 2147471403, -0.80534685, 0.029636543, -0.37724233, 0.4563184, -0.11634587, 0.015962142, -0.13161087, 0
352, 2147488070, -0.8056652, 0.029612236, -0.37652877, 0.45634714, -0.14656349, 0.092478395, -0.116874695, 0
353, 2147504737, -0.80599594, 0.029610816, -0.3757853, 0.45637602, -0.097791836, 0.04880785, -0.12388229, 0
356, 2147554738, -0.8066467, 0.029766701, -0.37404206, 0.45664823, -0.058556817, 0.049782537, -0.10609245, 0
357, 2147571405, -0.8066874, 0.029808886, -0.37373146, 0.45682788, -0.04562235, 0.030960994, -0.11676502, 0
359, 2147604739, -0.8066104, 0.02986889, -0.37349737, 0.45715103, -0.11871287, -0.018434454, -0.12568378, 0
361, 2147638073, -0.8066233, 0.029762767, -0.3734463, 0.45717704, -0.12165296, 0.023434851, -0.11508942, 0
363, 2147671407, -0.806716, 0.029699698, -0.37326404, 0.45716608, -0.099203095, 0.058819696, -0.13491726, 0
364, 2147688074, -0.8067539, 0.029719379, -0.37318015, 0.45716646, -0.0946041, 0.00880076, -0.12357712, 0
365, 2147704741, -0.80678964, 0.029706541, -0.37312144, 0.45715204, -0.13596271, 0.013010948, -0.123558044, 0
367, 2147738075, -0.8069176, 0.029624773, -0.37300646, 0.45702565, -0.12047393, 0.050479878, -0.123521805, 0
368, 2147754742, -0.80699635, 0.02958655, -0.37296292, 0.45692456, -0.1043535, 0.0063997977, -0.10203934, 0
371, 2147804743, -0.8072336, 0.0292354, -0.37307134, 0.45643944, -0.08914367, -0.016060265, -0.11792469, 0
372, 2147821410, -0.8072602, 0.029118419, -0.37322676, 0.4562728, -0.06771236, 0.037625324, -0.09348869, 0
374, 2147854744, -0.8071894, 0.028856268, -0.37368426, 0.45604008, -0.11044669, 0.07251924, -0.10770416, 0
375, 2147871411, -0.8071307, 0.028781485, -0.37389416, 0.4559766, -0.086762145, 0.100627184, -0.12225914, 0
378, 2147921412, -0.80704, 0.028919987, -0.37379766, 0.4562077, -0.15139493, 0.03542934, -0.11385536, 0
379, 2147938079, -0.8071102, 0.02902624, -0.37354615, 0.45628268, -0.12850207, 0.022566168, -0.12533283, 0
380, 2147954746, -0.8072273, 0.029126503, -0.3732561, 0.4563064, -0.14491932, 0.014033659, -0.09323788, 0
382, 2147988080, -0.80751514, 0.029274564, -0.3726878, 0.45625222, -0.074451946, -0.009829283, -0.11406326, 0
383, 2148004747, -0.8075967, 0.029349852, -0.37253335, 0.45622903, -0.018719433, 0.048530854, -0.112421036, 0
386, 2148054748, -0.8075919, 0.02956243, -0.37225997, 0.4564469, -0.1041738, 0.018044494, -0.09871578, 0
387, 2148071415, -0.8075716, 0.029685091, -0.37227145, 0.4564654, -0.048064448, 0.05458102, -0.09962368, 0
388, 2148088082, -0.8074692, 0.029888533, -0.37242967, 0.45650446, -0.049111385, 0.07703313, -0.10035801, 0
390, 2148121416, -0.8070306, 0.030431598, -0.3730487, 0.45673847, 0.002329005, 0.14239825, -0.06555176, 0
391, 2148138083, -0.8065571, 0.030835178, -0.373658, 0.45704976, 0.061469194, 0.16709799, -0.07197571, 0
394, 2148188084, -0.8027497, 0.03309415, -0.37890834, 0.45926684, 0.18935145, 0.22978668, -0.051589966, 0
395, 2148204751, -0.8007531, 0.03380561, -0.38149002, 0.46056145, -0.036131985, 0.032695923, -0.09476948, 0
396, 2148221418, -0.7985504, 0.034388155, -0.38422272, 0.46206892, -0.14425616, 0.113148384, -0.06950283, 0
398, 2148254752, -0.79377633, 0.034671523, -0.3892671, 0.46603432, -0.36057064, -0.016426854, -0.117590904, 0
401, 2148304753, -0.78547984, 0.03211809, -0.3959327, 0.474581, -0.4799505, 0.11385283, -0.17418289, 0
402, 2148321420, -0.78222364, 0.030194342, -0.3975563, 0.47871, -0.6444332, 0.2264178, -0.16505241, 0
403, 2148338087, -0.7786691, 0.027682928, -0.3988239, 0.48357794, -0.38708287, 0.22947507, -0.14842415, 0
405, 2148371421, -0.77038413, 0.020961577, -0.4004591, 0.49568257, 0.17644873, 0.06664211, -0.20545578, 0
406, 2148388088, -0.76615506, 0.017919412, -0.40103468, 0.5018529, 0.192657, -0.18388067, -0.24868202, 0
407, 2148404755, -0.76218736, 0.015185357, -0.40159044, 0.50750846, -0.2274783, -0.09897324, -0.2304039, 0
410, 2148454756, -0.75123775, 0.004545549, -0.40188676, 0.5235535, 0.4801141, -0.36862215, -0.041778564, 0
411, 2148471423, -0.7489221, 0.002642922, -0.4021797, 0.52664983, 0.34936953, -0.3555335, -0.0055179596, 0
413, 2148504757, -0.7466853, 3.7370808E-4, -0.40238294, 0.52966857, -0.20041043, -0.15553577, -0.15352154, 0
415, 2148538091, -0.74712515, -6.8049505E-4, -0.40153876, 0.5296887, -0.3241166, -0.14356712, -0.18144417, 0
417, 2148571425, -0.74889284, -6.793905E-4, -0.4005249, 0.5279572, -0.010393576, -0.040471643, -0.053980827, 0
418, 2148588092, -0.7498637, -4.4016354E-4, -0.4001122, 0.5268912, -0.08647269, 0.054599382, -0.0866127, 0
419, 2148604759, -0.7507413, -2.2825599E-4, -0.39971507, 0.52594215, -0.048751306, 0.051414657, -0.07307243, 0
421, 2148638093, -0.752041, -7.76723E-7, -0.39915577, 0.52450854, 0.0034599805, 0.07376942, -0.0693655, 0
422, 2148654760, -0.7525762, 8.925237E-5, -0.39889196, 0.5239409, -0.13064377, 0.075359024, -0.07695389, 0
423, 2148671427, -0.7531722, 1.1679903E-4, -0.39844903, 0.52342135, -0.24812286, 0.062119152, -0.15745449, 0
425, 2148704761, -0.7544338, 3.4830347E-4, -0.39756268, 0.52227724, -0.046651177, 0.015773294, -0.12624168, 0
426, 2148721428, -0.7550114, 5.247276E-4, -0.39725778, 0.52167404, -0.048532486, 0.0696945, -0.053106308, 0
427, 2148738095, -0.7554827, 6.66203E-4, -0.39696947, 0.5212107, -0.06473226, 0.08321167, -0.10647011, 0
430, 2148788096, -0.7560963, 0.0010733157, -0.3966775, 0.52054226, -0.064371064, -0.017039118, -0.10452175, 0
432, 2148821430, -0.7562467, 0.0011574663, -0.3968965, 0.5201564, -0.10779404, 4.898985E-4, -0.120241165, 0
433, 2148838097, -0.7563277, 0.001158366, -0.39701822, 0.5199457, -0.097993664, 0.020891812, -0.12066269, 0
434, 2148854764, -0.7563979, 0.0011415519, -0.39717436, 0.51972425, -0.10871648, -4.6499076E-4, -0.10807514, 0
436, 2148888098, -0.7564072, 9.943694E-4, -0.3976482, 0.5193488, -0.063991986, 0.03251812, -0.101548195, 0
437, 2148904765, -0.7563742, 9.092875E-4, -0.39789322, 0.519209, -0.1054552, 0.05153742, -0.10791302, 0
440, 2148954766, -0.756213, 7.1023405E-4, -0.39812, 0.5192704, -0.18035573, 0.006908534, -0.16528893, 0
441, 2148971433, -0.7562887, 6.293878E-4, -0.39798126, 0.5192665, -0.178516, -0.005494423, -0.15778542, 0
442, 2148988100, -0.7564014, 5.7678856E-4, -0.39782956, 0.5192187, -0.08763876, 0.012498174, -0.10216999, 0
445, 2149038101, -0.75672996, 4.8053823E-4, -0.39736816, 0.51909345, -0.116338044, 0.05438608, -0.1201334, 0
446, 2149054768, -0.75688094, 4.9579144E-4, -0.39713588, 0.5190512, -0.11280766, 0.024353078, -0.12970829, 0
448, 2149088102, -0.75717354, 4.937947E-4, -0.39682406, 0.51886266, -0.07161668, -0.012871245, -0.09525204, 0
449, 2149104769, -0.7572854, 4.2799115E-4, -0.39677933, 0.5187337, -0.063472316, 8.6157257E-4, -0.09945583, 0
450, 2149121436, -0.75731057, 3.278479E-4, -0.3967776, 0.5186983, -0.05519697, 0.053609427, -0.10123825, 0
452, 2149154770, -0.7573005, 2.739709E-4, -0.39688158, 0.51863366, -0.10134882, 0.021025598, -0.10104084, 0
453, 2149171437, -0.757308, 2.384428E-4, -0.396872, 0.51862997, -0.15857351, 0.009715438, -0.12883091, 0
456, 2149221438, -0.757829, 1.3857894E-4, -0.39623725, 0.51835424, -0.13956127, 0.015781831, -0.10400581, 0
457, 2149238105, -0.7581136, 9.768456E-5, -0.39587075, 0.5182178, -0.127644, 0.0076219873, -0.12794685, 0
460, 2149288106, -0.7588274, -3.536977E-5, -0.39487454, 0.51793325, -0.098489866, 0.038039237, -0.08884525, 0
461, 2149304773, -0.7590164, -4.4647604E-5, -0.39456117, 0.5178953, -0.07963923, 0.033005696, -0.10858154, 0
463, 2149338107, -0.7594004, 1.8052757E-5, -0.39387673, 0.517853, -0.08599639, -0.02342712, -0.1266203, 0
464, 2149354774, -0.7596032, 8.044951E-5, -0.3935752, 0.517785, -0.09371161, -0.006543104, -0.114393234, 0
465, 2149371441, -0.759773, 1.2749992E-4, -0.3932912, 0.5177518, -0.0907143, 0.013666015, -0.09472656, 0
467, 2149404775, -0.7599834, 2.3656897E-4, -0.3928591, 0.51777095, -0.052890543, 0.006179379, -0.108662605, 0
468, 2149421442, -0.76003397, 3.0140765E-4, -0.3927103, 0.51780957, -0.07895774, 9.5202547E-4, -0.093642235, 0
469, 2149438109, -0.7600885, 3.6829896E-4, -0.3925687, 0.51783675, -0.10725605, 0.009416587, -0.1311121, 0
472, 2149488110, -0.76003766, 5.3682737E-4, -0.39260328, 0.517885, -0.08465374, -0.0017131569, -0.07880306, 0
475, 2149538111, -0.7597911, 5.9433095E-4, -0.3928947, 0.51802576, -0.1141018, -0.04553223, -0.11571503, 0
476, 2149554778, -0.7597583, 6.098524E-4, -0.39298555, 0.518005, -0.12734292, 0.017530555, -0.11674404, 0
477, 2149571445, -0.75974345, 6.73458E-4, -0.39302304, 0.5179981, -0.036595777, 0.0905537, -0.20824051, 0
479, 2149604779, -0.75959754, 0.0013380498, -0.392557, 0.518564, -0.17391565, 0.22788176, -0.11637306, 0
480, 2149621446, -0.75954914, 0.0018187333, -0.39199615, 0.51905745, -0.18808325, 0.106733516, -0.11745262, 0
482, 2149654780, -0.760012, 0.003012618, -0.390516, 0.51949, -0.16048476, -0.08877952, -0.11972618, 0
483, 2149671447, -0.7603276, 0.0033797957, -0.38998932, 0.5194217, -0.08593045, -0.19412698, -0.12915707, 0
484, 2149688114, -0.76052445, 0.0035535675, -0.38976115, 0.5193033, -0.033938877, -0.081912406, -0.082909584, 0
486, 2149721448, -0.76056707, 0.003420066, -0.39006796, 0.51901174, -0.06747655, -0.10919682, -0.10468769, 0
490, 2149788116, -0.76045036, 0.0023884214, -0.39178252, 0.51789546, -0.1603122, 0.04690196, -0.11015129, 0
491, 2149804783, -0.76053315, 0.0021810774, -0.39189702, 0.5176883, -0.16233009, 0.04997621, -0.112342834, 0
492, 2149821450, -0.76067895, 0.002056295, -0.39192593, 0.51745284, -0.12737578, -0.05173851, -0.12235546, 0
494, 2149854784, -0.76117057, 0.0017942414, -0.39190176, 0.5167484, -0.14846535, 0.025208127, -0.1049099, 0
495, 2149871451, -0.76144886, 0.0016055517, -0.39177683, 0.5164339, -0.080144145, 0.050016038, -0.095765114, 0
496, 2149888118, -0.7616866, 0.0013996456, -0.39162868, 0.5161962, -0.0616147, -0.013372277, -0.087265015, 0
498, 2149921452, -0.76218486, 8.96154E-4, -0.39133188, 0.5156866, -0.12083803, -0.03386402, -0.10055351, 0
499, 2149938119, -0.7624655, 5.4684095E-4, -0.39118344, 0.5153849, -0.13643119, -0.032409016, -0.13061714, 0
500, 2149954786, -0.7628118, 1.7211586E-4, -0.39099047, 0.51501894, -0.12073253, -0.013369287, -0.11170101, 0
502, 2149988120, -0.763482, -4.7365203E-4, -0.39052016, 0.5143821, -0.068589196, 0.06552368, -0.09879589, 0
504, 2150021454, -0.7641072, -8.950662E-4, -0.38990122, 0.5139225, -0.046391007, 0.033046097, -0.10942268, 0
506, 2150054788, -0.7645275, -0.0010662172, -0.38942915, 0.5136551, -0.057885163, 0.0050410554, -0.1186676, 0
507, 2150071455, -0.7646519, -0.0011206567, -0.38927457, 0.5135869, -0.06453534, 5.635181E-4, -0.117630005, 0
508, 2150088122, -0.76471466, -0.0011688899, -0.38919613, 0.51355267, -0.048708837, -0.013360948, -0.0905447, 0
510, 2150121456, -0.7646859, -0.0013076905, -0.38920856, 0.5135856, -0.0649475, -0.014052274, -0.09385586, 0
511, 2150138123, -0.76466477, -0.0014003385, -0.38924155, 0.5135919, -0.12773363, -0.02489247, -0.11139679, 0
513, 2150171457, -0.76475966, -0.0015914179, -0.3892003, 0.5134814, -0.12911315, -0.03351923, -0.11847401, 0
514, 2150188124, -0.76484185, -0.0017002337, -0.38916564, 0.5133848, -0.090738885, -9.92649E-4, -0.11841488, 0
515, 2150204791, -0.76490796, -0.0017632712, -0.38918343, 0.51327264, -0.058351856, 0.0098402, -0.104040146, 0
519, 2150271459, -0.76454926, -0.0017765313, -0.38969028, 0.51342237, -0.07001856, -0.014624355, -0.115823746, 0
521, 2150304793, -0.7642241, -0.0017727893, -0.39015248, 0.5135556, -0.10925514, -0.0175494, -0.107806206, 0
522, 2150321460, -0.764093, -0.0017582849, -0.3903465, 0.51360345, -0.113523126, 0.03399305, -0.11238003, 0
523, 2150338127, -0.7639697, -0.0017045867, -0.39048594, 0.5136808, -0.10662842, 0.006641939, -0.10976696, 0
525, 2150371461, -0.7638219, -0.0015423577, -0.39053047, 0.5138672, -0.14267436, -0.008340274, -0.122366905, 0
526, 2150388128, -0.76381046, -0.0014749542, -0.3904606, 0.5139376, -0.12697771, -0.017921282, -0.12267971, 0
527, 2150404795, -0.7638052, -0.0013704821, -0.39038342, 0.5140044, -0.07322441, 0.0038637568, -0.13009453, 0
529, 2150438129, -0.76364046, -0.0011054315, -0.3904368, 0.51420903, -0.09635465, -0.029776033, -0.09775925, 0
530, 2150454796, -0.7635195, -0.0010367241, -0.3905379, 0.51431215, -0.0981546, -0.032134626, -0.09909439, 0
531, 2150471463, -0.7633951, -0.0010051914, -0.390645, 0.5144157, -0.10558394, 0.015916707, -0.12050724, 0
536, 2150554798, -0.7629604, -8.1553496E-4, -0.39099926, 0.5147914, -0.07881693, 0.0126392245, -0.11404514, 0
537, 2150571465, -0.7628613, -7.7240914E-4, -0.39102024, 0.5149224, -0.106540136, 0.040191945, -0.10950279, 0
538, 2150588132, -0.7627973, -7.1130693E-4, -0.3909521, 0.51506895, -0.13672534, 0.008600583, -0.11835289, 0
540, 2150621466, -0.76280177, -5.178973E-4, -0.39068666, 0.51526415, -0.13705881, -0.0094014015, -0.117497444, 0
541, 2150638133, -0.76284397, -4.0299818E-4, -0.39051765, 0.5153298, -0.089870535, -0.006525754, -0.10261917, 0
542, 2150654800, -0.7628585, -2.6933663E-4, -0.3903945, 0.5154016, -0.058149576, -0.0111361975, -0.090703964, 0
544, 2150688134, -0.76278865, -1.8950552E-5, -0.39021647, 0.5156398, -0.07393898, -0.026708722, -0.11976147, 0
545, 2150704801, -0.7627189, 8.700043E-5, -0.39018902, 0.5157637, -0.09995231, -0.042193163, -0.121759415, 0
546, 2150721468, -0.7626671, 1.6997941E-4, -0.39014506, 0.5158734, -0.11612504, -0.019812929, -0.10029888, 0
549, 2150771469, -0.76265717, 3.791824E-4, -0.38991812, 0.5160596, -0.09117831, -0.005489087, -0.11868191, 0
552, 2150821470, -0.7626779, 6.524883E-4, -0.38947424, 0.516364, -0.10164766, -0.05708115, -0.11817932, 0
553, 2150838137, -0.762693, 7.356368E-4, -0.3893349, 0.5164465, -0.09061483, -0.024323378, -0.11284256, 0
554, 2150854804, -0.7626859, 7.857457E-4, -0.38923728, 0.51653045, -0.08672415, -0.0142437965, -0.099570274, 0
556, 2150888138, -0.76268864, 8.904189E-4, -0.38909563, 0.51663315, -0.08469554, 0.011007007, -0.08929539, 0
557, 2150904805, -0.7626532, 9.3960203E-4, -0.38901305, 0.5167474, -0.053377576, -0.031047836, -0.09742069, 0
558, 2150921472, -0.762617, 9.866711E-4, -0.3889428, 0.51685363, -0.110452056, -0.016344637, -0.11503601, 0
560, 2150954806, -0.76257116, 0.0010901596, -0.38880578, 0.5170241, -0.08117588, -0.009090481, -0.11216736, 0
561, 2150971473, -0.7625432, 0.0011545569, -0.38872138, 0.5171286, -0.08318079, -0.02676307, -0.10984421, 0
564, 2151021474, -0.7625288, 0.0013363641, -0.3884303, 0.5173682, -0.08673644, -0.008751119, -0.109526634, 0
565, 2151038141, -0.76252913, 0.0014002845, -0.38834858, 0.5174289, -0.0821048, -0.04459718, -0.11433792, 0
568, 2151088142, -0.76243645, 0.0015125163, -0.38830507, 0.5175977, -0.07801206, -0.018526653, -0.09903908, 0
569, 2151104809, -0.76239794, 0.0015490521, -0.3882897, 0.517666, -0.112937964, -0.032371897, -0.119589806, 0
571, 2151138143, -0.7623443, 0.0016867165, -0.38817033, 0.517834, -0.07991147, 0.0646546, -0.1529665, 0
572, 2151154810, -0.7622954, 0.0018699542, -0.38803047, 0.51801014, -0.03315971, 0.016139857, -0.041187286, 0
573, 2151171477, -0.7622223, 0.0021387283, -0.3877911, 0.5182957, -0.15497695, 0.067202464, -0.13089561, 0
575, 2151204811, -0.7622573, 0.002614176, -0.3872596, 0.5186395, -0.16865438, -0.07092639, -0.12889671, 0
576, 2151221478, -0.76241755, 0.0028040987, -0.3869126, 0.5186617, -0.15596622, -0.08017552, -0.14035892, 0
579, 2151271479, -0.7627292, 0.0029692482, -0.38622454, 0.51871544, -0.0893046, -0.04825487, -0.097914696, 0
580, 2151288146, -0.7627731, 0.0029481426, -0.38611692, 0.51873124, -0.077637896, -0.080200255, -0.117123604, 0
581, 2151304813, -0.7628016, 0.00288805, -0.38618055, 0.5186423, -0.08475589, -0.14993854, -0.13265228, 0
583, 2151338147, -0.7628175, 0.0025321338, -0.38669515, 0.5182373, -0.058789495, -0.045165557, -0.08851433, 0
584, 2151354814, -0.7627576, 0.0022610873, -0.38708115, 0.5180385, -0.058872197, -0.051688585, -0.07803249, 0
585, 2151371481, -0.76268804, 0.001954006, -0.38748902, 0.5178369, -0.121275, -0.044256877, -0.1209898, 0
587, 2151404815, -0.76276195, 0.0013661217, -0.388119, 0.51725805, -0.16642126, -0.020510513, -0.12461662, 0
588, 2151421482, -0.7629148, 0.0011179429, -0.38825625, 0.51693016, -0.16026527, 0.02750394, -0.13347435, 0
589, 2151438149, -0.7631492, 9.145234E-4, -0.38822383, 0.5166086, -0.13408788, 0.0075135278, -0.12390232, 0
591, 2151471483, -0.7637163, 5.8366917E-4, -0.38780338, 0.5160866, -0.119062, -0.029746348, -0.084337234, 0
594, 2151521484, -0.76451117, 4.503317E-5, -0.38734764, 0.5152517, -0.036294702, -0.030566094, -0.093774796, 0
595, 2151538151, -0.76464015, -1.5813671E-4, -0.3874244, 0.51500255, -0.054518387, -0.02345049, -0.08557987, 0
598, 2151588152, -0.7647209, -9.486098E-4, -0.38807493, 0.51439166, -0.10704438, -0.030289903, -0.09963226, 0
599, 2151604819, -0.76475847, -0.001252085, -0.38831803, 0.51415163, -0.13187979, -0.018973485, -0.12154198, 0
600, 2151621486, -0.764835, -0.001528794, -0.38848558, 0.51391035, -0.12783243, -0.01107828, -0.11358833, 0
602, 2151654820, -0.7650056, -0.0019957237, -0.3886448, 0.5135343, -0.113498986, -0.022832869, -0.13641548, 0
603, 2151671487, -0.7651076, -0.0021852478, -0.38866907, 0.5133632, -0.1035587, -0.03791491, -0.09771061, 0
604, 2151688154, -0.7651934, -0.0023877993, -0.38868764, 0.5132205, -0.0932429, -0.021566682, -0.109950066, 0
606, 2151721488, -0.76541007, -0.0026978478, -0.3887423, 0.5128541, -0.06508809, -0.024524791, -0.09162426, 0
608, 2151754822, -0.76551795, -0.002968846, -0.38897675, 0.51251394, -0.10554483, -0.03683869, -0.11877251, 0
610, 2151788156, -0.76552397, -0.0032526199, -0.38932177, 0.512241, -0.07437796, -0.040569905, -0.11091232, 0
611, 2151804823, -0.7654979, -0.0033774283, -0.38955233, 0.512104, -0.09224983, -0.039337944, -0.11829853, 0
614, 2151854824, -0.765508, -0.0036397483, -0.39011106, 0.5116616, -0.10737383, -0.07478666, -0.1195879, 0
615, 2151871491, -0.7655544, -0.0037516598, -0.39027235, 0.5114682, -0.11253542, -0.05751687, -0.10248947, 0
617, 2151904825, -0.76561964, -0.004064705, -0.3906136, 0.5111077, -0.102279976, -0.033322304, -0.117785454, 0
618, 2151921492, -0.76565886, -0.004225554, -0.39078528, 0.5109163, -0.09184818, -0.038655784, -0.1016655, 0
619, 2151938159, -0.76568377, -0.0043801405, -0.39094833, 0.5107529, -0.091944516, -0.02061513, -0.11565018, 0
621, 2151971493, -0.7657388, -0.004664365, -0.39127076, 0.5104208, -0.08864613, -0.029957637, -0.10106468, 0
623, 2152004827, -0.765841, -0.004905686, -0.39153278, 0.51006407, -0.094532795, -0.022825437, -0.11036873, 0
625, 2152038161, -0.76589394, -0.005106779, -0.39167935, 0.5098701, -0.104374066, -6.7880884E-4, -0.14504528, 0
626, 2152054828, -0.7659335, -0.0051388554, -0.39171326, 0.5097842, -0.08583702, -0.025720138, -0.12748623, 0
627, 2152071495, -0.7659509, -0.0051579587, -0.39178023, 0.5097063, -0.0731312, -0.034865648, -0.096764565, 0
630, 2152121496, -0.76586425, -0.0052571204, -0.39202777, 0.50964534, -0.10547934, -0.043002218, -0.115582466, 0
631, 2152138163, -0.76582974, -0.0052701123, -0.39215285, 0.5096008, -0.08867429, -0.06395551, -0.104177475, 0
633, 2152171497, -0.7657502, -0.005365975, -0.39244366, 0.5094954, -0.086864956, -0.047087487, -0.097123146, 0
634, 2152188164, -0.76569045, -0.0054399557, -0.3926032, 0.50946176, -0.07859274, -0.03959806, -0.12226486, 0
635, 2152204831, -0.7656215, -0.0054997317, -0.39278734, 0.5094225, -0.076501556, -0.027638858, -0.09017944, 0
638, 2152254832, -0.76532906, -0.005628852, -0.39328945, 0.50947326, -0.11621735, -0.030805351, -0.13118744, 0
639, 2152271499, -0.76527214, -0.0055954605, -0.3933658, 0.50950015, -0.112174, -0.012235686, -0.1131382, 0
641, 2152304833, -0.7652175, -0.0054623093, -0.3933829, 0.5095705, -0.12539166, -0.010127693, -0.0947485, 0
642, 2152321500, -0.765184, -0.0054027867, -0.39336297, 0.50963676, -0.105570085, -0.022023486, -0.10294056, 0
644, 2152354834, -0.765113, -0.005257882, -0.39335483, 0.5097512, -0.08999839, -0.050443716, -0.11502838, 0
646, 2152388168, -0.76503634, -0.0051081534, -0.3933887, 0.50984156, -0.09826971, -0.05430475, -0.111439705, 0
648, 2152421502, -0.76490587, -0.004975641, -0.39349967, 0.50995296, -0.087531246, -0.03980651, -0.11006832, 0
649, 2152438169, -0.7648187, -0.0049299076, -0.3935771, 0.5100244, -0.110194795, -0.053769324, -0.09510136, 0
650, 2152454836, -0.76474226, -0.004890846, -0.39362615, 0.5101015, -0.11630832, -0.033215255, -0.11000919, 0
653, 2152504837, -0.7646551, -0.00474672, -0.39356944, 0.51027715, -0.09217361, -0.048523795, -0.108314514, 0
654, 2152521504, -0.7646363, -0.004676286, -0.39353025, 0.5103364, -0.08363721, -0.052113596, -0.107055664, 0
656, 2152554838, -0.7645812, -0.0045576002, -0.39344773, 0.51048374, -0.09323463, -0.044301007, -0.124010086, 0
657, 2152571505, -0.7645489, -0.0045114234, -0.39341903, 0.51055443, -0.09912196, -0.050007895, -0.08176708, 0
658, 2152588172, -0.764508, -0.0044764876, -0.39336535, 0.5106574, -0.1142301, -0.018289827, -0.10105896, 0
660, 2152621506, -0.76448524, -0.0043274593, -0.39316183, 0.5108496, -0.10785372, -0.047024317, -0.095853806, 0
661, 2152638173, -0.76449543, -0.0042439625, -0.39303488, 0.5109326, -0.107886575, -0.025945509, -0.12095165, 0
662, 2152654840, -0.76450276, -0.004168406, -0.39290616, 0.51102126, -0.10223639, -0.04518686, -0.11376953, 0
664, 2152688174, -0.7645196, -0.0039993897, -0.39262065, 0.5112168, -0.11009801, -0.030916857, -0.11559677, 0
665, 2152704841, -0.7645435, -0.0038958993, -0.39245564, 0.5113088, -0.08972995, -0.042792786, -0.09507847, 0
668, 2152754842, -0.7645642, -0.0032433625, -0.39175466, 0.51181954, -0.1670243, -0.061792307, 0.07462597, 0
669, 2152771509, -0.7645552, -0.0030328892, -0.39139923, 0.51210606, -0.20882569, -0.084917895, -0.15831852, 0
670, 2152788176, -0.7646672, -0.0027267933, -0.3909841, 0.5122578, 0.002217025, 0.1255013, -0.042303085, 0
672, 2152821510, -0.76489943, -0.0023030024, -0.390246, 0.5124758, -0.20242697, -0.12631729, -0.13857555, 0
673, 2152838177, -0.7650412, -0.0022689085, -0.39002636, 0.5124317, -0.020370524, -0.19391327, -0.1395216, 0
676, 2152888178, -0.76507354, -0.0026436932, -0.3902049, 0.51224554, -0.12084764, -0.08841718, -0.07754612, 0
677, 2152904845, -0.7651519, -0.0028573368, -0.39033714, 0.51202655, -0.16413316, -0.1078082, -0.12637997, 0
679, 2152938179, -0.7654612, -0.0033090115, -0.39054883, 0.51139975, -0.070847794, -0.03131045, -0.119215965, 0
680, 2152954846, -0.76556265, -0.0035499297, -0.39065298, 0.5111667, -0.07690589, -0.016756486, -0.102217674, 0
683, 2153004847, -0.76555413, -0.0044388697, -0.3913824, 0.5106142, -0.1072784, -0.10544949, -0.085941315, 0
684, 2153021514, -0.76555353, -0.004797805, -0.3917322, 0.51034355, -0.11563353, -0.061642874, -0.085282326, 0
685, 2153038181, -0.76555204, -0.005147094, -0.39213493, 0.51003325, -0.05581521, -0.050897993, -0.108590126, 0
687, 2153071515, -0.76526994, -0.005878726, -0.39308545, 0.50971663, -0.07099934, -0.009801057, -0.07672596, 0
688, 2153088182, -0.7650736, -0.006202791, -0.3935879, 0.50961965, -0.09850484, -0.040133443, -0.09314728, 0
689, 2153104849, -0.76490074, -0.0065266453, -0.39402896, 0.5095346, -0.12977743, -0.002551526, -0.10241413, 0
692, 2153154850, -0.76421463, -0.007237317, -0.39530015, 0.50956976, -0.0139545845, 0.0240838, -0.03947544, 0
693, 2153171517, -0.7637312, -0.0074966177, -0.39599395, 0.5097522, -0.02920465, -0.06744734, -0.024346352, 0
695, 2153204851, -0.7625483, -0.008163717, -0.3986313, 0.5094571, 0.12539747, -0.028659096, 0.45265675, 0
698, 2153254852, -0.7625277, 0.006599215, -0.40401828, 0.5052497, -0.7898315, 1.4905338, 0.79985905, 0
699, 2153271519, -0.7631009, 0.01569357, -0.40353867, 0.5045661, -0.23482673, 3.8555436, 0.90833664, 0
700, 2153288186, -0.76563585, 0.023715612, -0.40099004, 0.50244045, -0.62516576, 6.252043, 0.18218708, 0
702, 2153321520, -0.77757996, 0.02524318, -0.38458124, 0.49681914, -0.42477474, 4.2644773, -1.4163189, 0
703, 2153338187, -0.7844583, 0.023313226, -0.37737033, 0.49160275, -1.2338275, 3.2957876, -0.8144827, 0
704, 2153354854, -0.79127896, 0.019921271, -0.37118235, 0.48549396, -1.8516256, 2.5194867, -1.6395464, 0
706, 2153388188, -0.8011792, 0.01112032, -0.36652994, 0.47290996, -2.5813723, 1.4138083, -1.9870801, 0
708, 2153421522, -0.8045867, 4.2898208E-4, -0.37409025, 0.46119046, -0.6812598, 1.4230781, -8.411642, 0
710, 2153454856, -0.8049306, 0.0050697904, -0.38309133, 0.45310247, 7.2665243, -14.07047, 10.799789, 0
712, 2153488190, -0.80495954, 0.02615258, -0.3652619, 0.46684015, -1.876002, 3.0388618, 3.0257454, 0
714, 2153521524, -0.80362463, 0.040951833, -0.34029478, 0.48652825, 0.48202804, -1.0089155, 0.4933672, 0
715, 2153538191, -0.80445266, 0.04811706, -0.32915843, 0.49213356, -3.2382581, -1.7976083, 0.8845835, 0
718, 2153588192, -0.8030144, 0.06298107, -0.31616914, 0.50123686, 0.40920886, -0.23142806, 0.4587021, 0
719, 2153604859, -0.8011321, 0.06849539, -0.3166316, 0.5032295, 0.69472945, -0.06986255, 0.38528347, 0
720, 2153621526, -0.79937845, 0.07422397, -0.3168723, 0.50505114, -0.88145846, 0.18878412, -0.014583588, 0
722, 2153654860, -0.7957715, 0.08257026, -0.3143602, 0.5109869, -2.3364234, -0.5094132, -0.37011623, 0
723, 2153671527, -0.7940848, 0.08496612, -0.31208465, 0.51460016, 1.5115238, -0.20068178, -0.5465765, 0
727, 2153738195, -0.7903408, 0.09038413, -0.30582437, 0.5231285, -0.3549008, -0.32204407, -0.8559017, 0
729, 2153771529, -0.78953683, 0.08823252, -0.30302835, 0.5263272, -0.24721114, -0.412092, -0.6025963, 0
730, 2153788196, -0.7891934, 0.08648378, -0.3020855, 0.5276728, 0.29485628, -0.26792955, -0.58297825, 0
731, 2153804863, -0.7887715, 0.08436487, -0.30160436, 0.52892023, -0.17618766, -0.45463043, -0.8022146, 0
733, 2153838197, -0.78783786, 0.07909919, -0.30276474, 0.53046054, 0.74066496, -0.4839265, -1.2544785, 0
734, 2153854864, -0.7875375, 0.07621231, -0.3043345, 0.53043085, 0.25359166, -0.23712227, -0.9831724, 0
735, 2153871531, -0.78708297, 0.072700225, -0.30694163, 0.53009623, -0.1066197, -0.6093363, -1.227169, 0
737, 2153904865, -0.78785855, 0.061477855, -0.30928797, 0.5289993, 0.4089031, 0.0061106486, -0.103915215, 0
738, 2153921532, -0.7888106, 0.05452022, -0.3094088, 0.528272, 0.41538072, -0.42406997, -0.34305096, 0
739, 2153938199, -0.7895359, 0.04671964, -0.30942267, 0.5279277, -0.5638063, -0.6989672, -0.35248184, 0
742, 2153988200, -0.7889523, 0.02453876, -0.314503, 0.527295, 0.21662429, -0.80262107, 0.45142365, 0
743, 2154004867, -0.78748673, 0.018339802, -0.3191863, 0.52692366, -1.2271593, 0.36673826, 0.67323875, 0
745, 2154038201, -0.7802671, -0.0037125703, -0.33553135, 0.5278142, -0.4396187, -2.7568905, -0.015842438, 0
746, 2154054868, -0.7762462, -0.020003678, -0.34813118, 0.5252108, 0.33510584, -1.6984754, 0.5604601, 0
747, 2154071535, -0.7721649, -0.041597035, -0.36398146, 0.5191806, -0.40908033, -2.3784785, -0.44816017, 0
749, 2154104869, -0.75855803, -0.10051791, -0.4061308, 0.49954343, 0.24232693, -0.9530083, 0.2780018, 0
750, 2154121536, -0.7481445, -0.13374685, -0.43064776, 0.48675883, 0.24055895, -0.3002334, 0.3057289, 0
751, 2154138203, -0.7374619, -0.16509454, -0.45322704, 0.4727357, -0.68861705, 0.78974533, -1.4220533, 0
753, 2154171537, -0.7232246, -0.20507085, -0.4809792, 0.451166, -0.42911538, 4.5598426, -0.452569, 0
757, 2154238205, -0.7294291, -0.20449571, -0.47767094, 0.44491005, 0.012077522, -1.4477302, 0.7867031, 0
758, 2154254872, -0.7319562, -0.20380661, -0.47740254, 0.44135028, -0.35391667, -2.7365139, 0.65223217, 0
760, 2154288206, -0.725079, -0.22490603, -0.49518305, 0.4224589, -0.27027634, -5.637745, 1.1670132, 0
761, 2154304873, -0.71345204, -0.25204352, -0.51643056, 0.40094835, -0.34439054, -7.480881, 1.5738297, 0
762, 2154321540, -0.6939553, -0.2916991, -0.5457165, 0.36814553, -0.34083715, -10.94121, 6.2029667, 0
764, 2154354874, -0.6419258, -0.35848743, -0.62375206, 0.26523823, -0.41795492, -26.050528, 17.1955, 0
765, 2154371541, -0.6210207, -0.38046864, -0.6533978, 0.20651428, -3.3857455, -27.665455, 21.33988, 0
766, 2154388208, -0.61982626, -0.3902604, -0.6547392, 0.18662521, -18.603327, -22.881815, 6.6580486, 0
768, 2154421542, -0.61872536, -0.39787453, -0.65276784, 0.18102193, -2.5960584, 2.3789353, -3.737485, 0
769, 2154438209, -0.6195703, -0.4020708, -0.65296245, 0.16766536, -12.018117, -8.861905, -1.4805317, 0
773, 2154504877, -0.5556352, -0.46461177, -0.6603187, 0.19845572, -5.3963065, -14.549228, -8.278635, 0
774, 2154521544, -0.5379828, -0.47096327, -0.6663812, 0.2114334, -1.3293033, -12.40614, -10.638188, 0
776, 2154554878, -0.5217632, -0.46513516, -0.6779454, 0.22760127, 0.25710025, -13.212652, -12.1072645, 0
777, 2154571545, -0.52471143, -0.45655453, -0.6774532, 0.23935911, 0.29065132, -14.891091, -11.390424, 0
779, 2154604879, -0.554165, -0.4254902, -0.66152215, 0.272484, 3.1310356, -8.185196, -10.726694, 0
780, 2154621546, -0.5783397, -0.40678653, -0.645848, 0.28797308, 2.6959593, -6.1338696, -9.125709, 0
781, 2154638213, -0.60575503, -0.38727385, -0.62570596, 0.3026085, 0.20830983, -5.884633, -7.11493, 0
783, 2154671547, -0.6558945, -0.34415102, -0.5806144, 0.33800834, -3.7417061, -4.4475474, -5.913978, 0
784, 2154688214, -0.67290765, -0.3166403, -0.56405467, 0.35885453, -5.384516, -4.979643, -3.4660177, 0
787, 2154738215, -0.68723124, -0.21629457, -0.53706527, 0.43873778, 1.7617282, -0.74887455, 4.233529, 0
789, 2154771549, -0.68972224, -0.15787855, -0.5062725, 0.49299654, 2.3746731, 1.9924848, 9.166363, 0
791, 2154804883, -0.6919374, -0.1077055, -0.46285543, 0.543495, 3.3898153, 6.1774507, 6.997011, 0
792, 2154821550, -0.69358385, -0.082984895, -0.43977037, 0.564497, 2.8752537, 7.3726707, 6.5757046, 0
793, 2154838217, -0.695571, -0.061443843, -0.41567338, 0.58277047, 1.8091187, 9.90829, 4.3950872, 0
795, 2154871551, -0.69702816, -0.029429222, -0.3763851, 0.6096064, 3.0566409, 12.889624, 0.60994434, 0
796, 2154888218, -0.69877476, -0.020272003, -0.3604178, 0.6175773, 4.2439218, 14.133266, 1.2101479, 0
797, 2154904885, -0.7017348, -0.013305863, -0.3470195, 0.6220681, 4.9239435, 15.04126, 0.8386574, 0
799, 2154938219, -0.7065261, -0.004519034, -0.3282792, 0.6269236, 1.7358421, 16.587603, 0.60890007, 0
801, 2154971553, -0.70544326, -0.0051729474, -0.31320468, 0.63578755, 3.9916227, 17.239492, -2.7131906, 0
803, 2155004887, -0.7032164, -0.012818797, -0.30225846, 0.6433988, 5.72856, 15.481375, -0.8396158, 0
806, 2155054888, -0.71590096, -0.04238805, -0.2727585, 0.6413203, 3.943773, 11.482615, -3.530334, 0
807, 2155071555, -0.7205554, -0.053517476, -0.26836562, 0.637115, 0.28152573, 10.70494, -2.3416967, 0
808, 2155088222, -0.72113645, -0.06327351, -0.26826304, 0.6356048, -1.9065812, 10.360753, -3.676783, 0
810, 2155121556, -0.70643216, -0.09949045, -0.29131934, 0.6373289, 0.10123664, 14.204569, -5.979393, 0
811, 2155138223, -0.69270885, -0.12456696, -0.31316555, 0.6376243, 7.362493, 15.457197, -2.0927057, 0
814, 2155188224, -0.67288935, -0.11736773, -0.37192658, 0.628582, -3.2587404, -3.0222187, 2.3817453, 0
816, 2155221558, -0.6623789, -0.1518274, -0.40426937, 0.6121838, -2.4740033, 1.2979952, -0.8212614, 0
818, 2155254892, -0.6583977, -0.17549852, -0.42959234, 0.59259015, 2.3455715, 1.9226022, -0.024908066, 0
819, 2155271559, -0.6553042, -0.18038806, -0.44114888, 0.58602417, 1.0060354, 0.336349, 0.19703102, 0
820, 2155288226, -0.6527163, -0.18736425, -0.4532822, 0.5774003, -1.9253356, -1.8252258, 0.28912735, 0
822, 2155321560, -0.6476141, -0.22098193, -0.4833365, 0.54602987, -0.73362476, -1.9955375, -0.05036831, 0
823, 2155338227, -0.6408679, -0.24754432, -0.5019438, 0.5254165, 0.9294384, -2.6598065, 0.38329697, 0
824, 2155354894, -0.628442, -0.2791048, -0.52416253, 0.5024092, 1.0670124, -4.0150814, 1.1577435, 0
826, 2155388228, -0.58006024, -0.35915396, -0.5868322, 0.43608078, -1.9342088, -11.888279, 6.730673, 0
827, 2155404895, -0.5439208, -0.4033503, -0.6305263, 0.37933525, -5.7421308, -19.08065, 17.585, 0
828, 2155421562, -0.509447, -0.4423045, -0.6676632, 0.31473225, -8.145488, -35.32797, 22.79483, 0
831, 2155471563, -0.48632172, -0.4992066, -0.6473, 0.30868506, 0.62728316, 4.4122615, -4.471912, 0
832, 2155488230, -0.4985446, -0.5043095, -0.6421628, 0.2911224, 1.6719503, -2.617245, -3.0132198, 0
834, 2155521564, -0.5161978, -0.5004036, -0.64861095, 0.24987961, -9.699001, -14.619151, -5.562982, 0
837, 2155571565, -0.530079, -0.497534, -0.65069044, 0.2192669, -2.7896965, -13.802907, -10.108491, 0
838, 2155588232, -0.53939915, -0.49493498, -0.64721936, 0.21259071, -3.0424283, -12.563754, -11.159716, 0
839, 2155604899, -0.54982173, -0.49308738, -0.6407393, 0.20979494, -2.9359186, -10.383755, -12.430406, 0
841, 2155638233, -0.56963503, -0.48625317, -0.62556416, 0.21850231, -4.735432, -9.620164, -13.236212, 0
842, 2155654900, -0.57759625, -0.47974178, -0.61799896, 0.23303989, -3.2022188, -8.087035, -13.31114, 0
843, 2155671567, -0.58481914, -0.46924436, -0.6118969, 0.25175133, -2.6073568, -7.35794, -12.733204, 0
846, 2155721568, -0.6065566, -0.4122406, -0.59760505, 0.3240601, -0.22866136, -8.28374, -8.45037, 0
847, 2155738235, -0.61444163, -0.3859336, -0.59178877, 0.35114512, 0.70565164, -6.948608, -7.9850645, 0
849, 2155771569, -0.6313545, -0.32589263, -0.57712793, 0.40262714, 2.150466, -9.451076, -1.9708557, 0
850, 2155788236, -0.6421691, -0.29202825, -0.5646239, 0.4284137, 2.8067446, -7.96768, -0.27046108, 0
853, 2155838237, -0.68408114, -0.17856315, -0.5042253, 0.4958882, -0.29745552, -1.8626361, 8.809555, 0
854, 2155854904, -0.69388723, -0.13748574, -0.48048487, 0.51841354, -0.2846634, 1.070286, 9.6290455, 0
855, 2155871571, -0.7000933, -0.09362692, -0.4572124, 0.5404259, 1.8939584, 2.872129, 12.608072, 0
857, 2155904905, -0.70542204, -0.0076151267, -0.41082245, 0.57753503, 4.926301, 10.639365, 11.017225, 0
858, 2155921572, -0.70707375, 0.028119609, -0.38791817, 0.5905723, 5.0716405, 13.457516, 8.151096, 0
861, 2155971573, -0.7074209, 0.09836519, -0.33437663, 0.6148757, 4.5042715, 13.767374, 2.8828144, 0
862, 2155988240, -0.7038682, 0.11487883, -0.322914, 0.6221728, 5.7855124, 13.163132, 1.4641628, 0
864, 2156021574, -0.6996375, 0.13440362, -0.30042332, 0.63418376, 5.6071405, 12.401625, -1.7206526, 0
865, 2156038241, -0.6999928, 0.13748042, -0.28905955, 0.6383994, 4.138209, 12.797019, -1.7569008, 0
866, 2156054908, -0.69994205, 0.1376118, -0.27845937, 0.6431209, 3.3669302, 11.604, -3.5104403, 0
869, 2156104909, -0.6961106, 0.13615063, -0.2576294, 0.6561404, 5.713736, 11.273102, -4.6411552, 0
870, 2156121576, -0.6982235, 0.13305666, -0.25279322, 0.6564112, 5.388433, 11.388706, -5.080982, 0
873, 2156171577, -0.7137196, 0.11679406, -0.24527732, 0.64560264, 2.0707192, 13.325377, -4.0950546, 0
876, 2156221578, -0.7233899, 0.07586105, -0.26395366, 0.63346696, -3.424902, 19.389889, -6.1781454, 0
877, 2156238245, -0.71871233, 0.049067777, -0.28274348, 0.6333254, -2.107428, 21.607388, -7.7343273, 0
880, 2156288246, -0.692322, -0.029397909, -0.3461034, 0.63248587, 39.896294, 8.650717, 47.07818, 0
881, 2156304913, -0.6854449, -0.038947716, -0.35796952, 0.6328556, -13.087567, -3.529924, 1.6400919, 0
882, 2156321580, -0.68253183, -0.054247238, -0.3747936, 0.62508976, -4.502115, -0.93633324, 0.60382557, 0
884, 2156354914, -0.67659736, -0.091498196, -0.41734746, 0.5997209, 0.7458119, 1.0832971, -0.62835884, 0
885, 2156371581, -0.6721954, -0.11357817, -0.43723828, 0.58658004, 0.32728556, 2.057143, -1.2929573, 0
888, 2156421582, -0.6493803, -0.17406243, -0.49685016, 0.54876924, 0.042881854, -3.0491166, 0.7602711, 0
891, 2156471583, -0.5859233, -0.31187922, -0.59073246, 0.45875964, -2.6061723, -14.556888, 7.8950424, 0
892, 2156488250, -0.5419863, -0.38409323, -0.6350291, 0.39428598, -4.0673823, -26.825352, 21.468735, 0
893, 2156504917, -0.49371675, -0.45310813, -0.6681428, 0.32329878, -13.207121, -38.1862, 22.77082, 0
895, 2156538251, -0.45274317, -0.5075982, -0.68241334, 0.2677307, -20.770792, -60.90468, 19.0543, 0
896, 2156554918, -0.4587604, -0.5176369, -0.6744695, 0.2582287, 12.7529125, -25.657202, -8.162807, 0
897, 2156571585, -0.48575327, -0.5240258, -0.66420454, 0.21971102, -0.13530938, -37.951813, -3.1849833, 0
899, 2156604919, -0.52964264, -0.5458368, -0.6162518, 0.20438834, -18.416628, -23.099916, -16.120703, 0
900, 2156621586, -0.54036444, -0.5534684, -0.5958006, 0.21610364, -11.356732, -16.720652, -17.457308, 0
901, 2156638253, -0.5512613, -0.54993397, -0.58234847, 0.23356757, -11.127337, -12.529729, -17.134968, 0
903, 2156671587, -0.5646468, -0.52471304, -0.56691235, 0.2906211, -5.9849734, -3.968409, -14.856625, 0
905, 2156704921, -0.5796203, -0.4695673, -0.56647545, 0.3502176, -2.9524786, -2.5573342, -8.970975, 0
907, 2156738255, -0.6023429, -0.3985186, -0.5497352, 0.41971076, -5.2286053, 4.473598, -2.226078, 0
908, 2156754922, -0.60936105, -0.36014307, -0.539493, 0.45598614, -7.9873695, 9.417482, -2.143723, 0
909, 2156771589, -0.60569394, -0.317623, -0.5362832, 0.49462196, -9.616949, 10.147003, 3.0300808, 0
911, 2156804923, -0.56668544, -0.23023461, -0.5409253, 0.5772862, 5.767735, 11.378358, 6.804491, 0
912, 2156821590, -0.54744637, -0.19135158, -0.5393859, 0.6105325, 11.525019, 10.514735, 4.498412, 0
913, 2156838257, -0.5394422, -0.16305093, -0.52844256, 0.6349527, 15.2238, 10.593293, -0.5875988, 0
915, 2156871591, -0.58893555, -0.15975195, -0.47743636, 0.63220936, 21.966578, 27.174223, 28.128498, 0
918, 2156921592, -0.6337323, -0.1420881, -0.4360835, 0.6229169, 11.193947, 18.514297, -7.2721424, 0
920, 2156954926, -0.63975555, -0.121010646, -0.45690814, 0.60605645, 0.24262722, 0.17006695, -6.4676404, 0
922, 2156988260, -0.6533775, -0.10584515, -0.46380562, 0.58887935, -8.098451, -4.005283, -0.9676161, 0
923, 2157004927, -0.6601827, -0.096666954, -0.45769215, 0.5876497, 0.6979903, -9.608315, 7.3856544, 0
924, 2157021594, -0.66450065, -0.08685674, -0.44776556, 0.5919466, -13.20895, -0.28156844, -1.231698, 0
926, 2157054928, -0.65708005, -0.06871629, -0.43895358, 0.60896915, -0.36494035, 1.035508, 2.4766169, 0
927, 2157071595, -0.6523776, -0.06194393, -0.43693626, 0.61616015, 0.67779946, -1.3316994, 2.0767212, 0
928, 2157088262, -0.64657766, -0.05853193, -0.43586352, 0.62332517, -2.874478, -3.966456, 1.6214619, 0
930, 2157121596, -0.6235459, -0.05982452, -0.43768686, 0.645013, -2.6923919, 1.5530145, 2.1228285, 0
931, 2157138263, -0.6117129, -0.060324017, -0.4388739, 0.65540683, 6.0481057, 3.9813719, 1.3237371, 0
935, 2157204931, -0.5742168, -0.08348446, -0.4522189, 0.6773504, 1.2200226, -1.8541118, -4.716298, 0
936, 2157221598, -0.5720848, -0.10025305, -0.45016006, 0.6782509, 5.733494, -0.5393707, 6.8118706, 0
938, 2157254932, -0.57641375, -0.12870345, -0.44387186, 0.6739142, 4.5003376, -1.3929656, -9.52937, 0
939, 2157271599, -0.5865031, -0.1549785, -0.434222, 0.6659183, -3.0379312, -0.30711982, 6.9818363, 0
941, 2157304933, -0.58635455, -0.17398132, -0.42849094, 0.6650672, 0.99835324, -0.7240548, 6.9436035, 0
942, 2157321600, -0.58644605, -0.17792991, -0.42932197, 0.66340387, -1.4661251, 1.0682446, 2.9434776, 0
943, 2157338267, -0.58786005, -0.17970255, -0.4297192, 0.6614143, 1.1458778, 1.2087246, 1.9571152, 0
945, 2157371601, -0.5906651, -0.17589824, -0.4296356, 0.65999067, 0.58663803, -0.97506934, -1.6417084, 0
947, 2157404935, -0.5901984, -0.17231043, -0.4317849, 0.6599521, 3.2584887, -1.2585422, -0.068240166, 0
950, 2157454936, -0.5907578, -0.16696069, -0.4324128, 0.66041553, -1.8554952, 0.38068995, 1.9658108, 0
953, 2157504937, -0.59666044, -0.1672592, -0.4293291, 0.6570369, 2.1679337, -2.601449, 0.31752205, 0
954, 2157521604, -0.59890866, -0.16684473, -0.4273991, 0.6563545, -0.23371275, -1.7739162, -3.687377, 0
955, 2157538271, -0.6016998, -0.17027962, -0.4248195, 0.654592, -1.782923, -2.7583199, -2.0960326, 0
957, 2157571605, -0.6125489, -0.1762487, -0.415286, 0.6490438, -1.7119302, -0.9298188, 1.0527782, 0
958, 2157588272, -0.6182612, -0.17803659, -0.41152304, 0.64552677, 0.40169814, -1.7925395, -0.28985023, 0
959, 2157604939, -0.6237564, -0.17935492, -0.40864426, 0.641693, 0.7745953, -2.4800582, 0.044373512, 0
961, 2157638273, -0.6275214, -0.17622356, -0.40422457, 0.64168894, 0.016418591, -7.715137, -1.5445185, 0
962, 2157654940, -0.62778467, -0.17474636, -0.40411875, 0.641902, -0.97601646, -4.19004, -1.940126, 0
965, 2157704941, -0.629076, -0.17089616, -0.40462628, 0.6413544, 0.99678576, -2.357243, -1.1271858, 0
966, 2157721608, -0.62771875, -0.16705684, -0.40960473, 0.640535, 2.8672364, -0.5103983, -0.47011566, 0
969, 2157771609, -0.6231826, -0.16039589, -0.4270581, 0.6352463, -4.1774597, -3.4940195, -1.9980354, 0
970, 2157788276, -0.6222478, -0.15661569, -0.43070167, 0.6346457, -1.9180546, -0.68044794, -5.6699653, 0
972, 2157821610, -0.62076217, -0.14519642, -0.43638238, 0.63493514, 4.1526084, 4.2934113, 4.7686977, 0
973, 2157838277, -0.6212292, -0.14035521, -0.43733618, 0.63491094, 0.9698388, 1.6442611, 4.594474, 0
976, 2157888278, -0.6240653, -0.1400919, -0.43867278, 0.63125515, 0.9871868, 4.971809, 0.35479832, 0
977, 2157904945, -0.625246, -0.13985115, -0.43652204, 0.63163096, -0.61167854, 4.3101254, 0.8393297, 0
980, 2157954946, -0.6281868, -0.1460609, -0.42653635, 0.6341249, -0.7693617, 3.542681, -1.2722578, 0
981, 2157971613, -0.6286339, -0.14727096, -0.4230727, 0.63572025, -1.0521555, 0.3896141, -1.4413509, 0
982, 2157988280, -0.6283951, -0.14955883, -0.4201749, 0.63734215, -0.44804624, 0.32704577, -4.296625, 0
984, 2158021614, -0.6255239, -0.15075046, -0.41707772, 0.6419035, -2.3486557, 1.9383086, 2.8842983, 0
985, 2158038281, -0.6243832, -0.15316416, -0.41535702, 0.64355636, -2.034938, 3.9300113, 2.170683, 0
986, 2158054948, -0.6235738, -0.1556874, -0.4130484, 0.64521956, -0.9948962, 0.75003195, -0.72831726, 0
988, 2158088282, -0.6218432, -0.15965755, -0.40778828, 0.6492529, -1.6469854, -0.7545171, -0.9372778, 0
989, 2158104949, -0.61999446, -0.16149119, -0.40601495, 0.6516742, -1.903285, -0.13791135, -1.4991112, 0
990, 2158121616, -0.6181254, -0.16267845, -0.40439036, 0.6541599, -0.91476053, 1.3927999, 1.7337046, 0
992, 2158154950, -0.6145067, -0.16640379, -0.4021069, 0.65802836, -1.1427107, 1.8937886, -0.17724323, 0
994, 2158188284, -0.6101579, -0.16804123, -0.40005127, 0.6628941, -1.8363683, -1.4040471, -0.6372757, 0
996, 2158221618, -0.60519034, -0.16937326, -0.39890254, 0.667783, -1.8807838, -0.7408485, -1.2691765, 0
997, 2158238285, -0.6029842, -0.17007825, -0.39819854, 0.67001605, -0.9092402, 1.019487, 0.657794, 0
1000, 2158288286, -0.59626275, -0.17064993, -0.39773434, 0.67613363, -0.09390606, -0.23836897, -0.49012375, 0
1001, 2158304953, -0.59411335, -0.17072909, -0.39795363, 0.6778745, -0.3556281, -0.3463297, -0.07987118, 0
1003, 2158338287, -0.5895313, -0.17045294, -0.3995572, 0.68099403, -1.3839725, 0.38019207, 0.29129982, 0
1004, 2158354954, -0.5876758, -0.1702827, -0.40037227, 0.68216056, -0.7782645, -0.011356023, 0.8043537, 0
1005, 2158371621, -0.5862573, -0.1697724, -0.40063953, 0.6833505, -0.5532761, -1.1977706, 0.27046776, 0
1007, 2158404955, -0.58273464, -0.1700581, -0.40242723, 0.6852393, -0.16881353, -0.25949988, -1.5316219, 0
1009, 2158438289, -0.5798532, -0.17013685, -0.40342087, 0.68707746, -0.8895022, 0.4857558, 0.6993046, 0
1011, 2158471623, -0.57766885, -0.16843686, -0.4036921, 0.68917376, -1.2224303, -2.772085, 0.62572, 0
1012, 2158488290, -0.5764276, -0.16967674, -0.4046457, 0.6893495, -0.85357857, -1.4598963, -2.65176, 0
1013, 2158504957, -0.57494104, -0.17042334, -0.40642992, 0.68935734, 0.48338878, 0.1452975, 1.0203152, 0
1016, 2158554958, -0.5714121, -0.16741812, -0.40902272, 0.6914909, -0.42316055, -1.105099, 1.3524237, 0
1017, 2158571625, -0.5708733, -0.16693999, -0.40971094, 0.69164413, 0.14249621, 0.38145056, 3.1913433, 0
1019, 2158604959, -0.56935453, -0.16841738, -0.41405976, 0.68994594, -1.214065, -2.6191826, -2.3444896, 0
1020, 2158621626, -0.5683926, -0.16757438, -0.41688716, 0.6892414, -1.3827517, -4.1187334, -3.722612, 0
1022, 2158654960, -0.56807005, -0.16617845, -0.4205684, 0.68760705, 0.06802952, -1.5724405, 7.023409, 0
1024, 2158688294, -0.5705652, -0.1742689, -0.42190987, 0.682699, -2.8213565, -6.68417, -3.340859, 0
1026, 2158721628, -0.5747013, -0.17671724, -0.41795483, 0.68103105, -1.143587, -6.444795, -1.1480179, 0
1027, 2158738295, -0.57592475, -0.17499946, -0.41744232, 0.68075526, -0.378312, -5.6954303, 0.57720375, 0
1028, 2158754962, -0.57752526, -0.17696898, -0.4167957, 0.6792849, 0.6243877, -4.058026, -0.03596306, 0
1030, 2158788296, -0.5810202, -0.17630753, -0.41393474, 0.6782249, -2.086156, -9.047423, -3.383966, 0
1032, 2158821630, -0.58574325, -0.1761128, -0.4090745, 0.677161, 1.6457218, -3.94476, 0.8483629, 0
1034, 2158854964, -0.59040666, -0.16415857, -0.4064617, 0.6776878, 3.7451189, 0.08501628, -1.843091, 0
1035, 2158871631, -0.59167916, -0.1559167, -0.40735787, 0.6779862, 5.2764306, 0.493278, -2.426108, 0
1036, 2158888298, -0.592511, -0.1488575, -0.4090564, 0.6778238, 4.2227283, 4.719191, 4.92128, 0
1039, 2158938299, -0.5970815, -0.14138742, -0.40991914, 0.6748849, 1.2559524, 7.303918, 1.3727407, 0
1040, 2158954966, -0.59891963, -0.14167388, -0.40805155, 0.67432773, -0.17137867, 9.202909, 0.6697664, 0
1042, 2158988300, -0.60188663, -0.14423512, -0.4023902, 0.674545, 0.96155316, 6.470886, 2.527627, 0
1043, 2159004967, -0.60287213, -0.14680654, -0.40080273, 0.674055, 1.4649609, 5.5547986, 0.57724094, 0
1044, 2159021634, -0.6037557, -0.15016887, -0.39955184, 0.67326576, 0.823763, 4.6061497, -1.0643435, 0
1046, 2159054968, -0.60302955, -0.15334646, -0.39794412, 0.67415196, -1.1367714, 1.207624, 1.6581612, 0
1049, 2159104969, -0.6018858, -0.15983407, -0.3904784, 0.6780215, -1.5235263, 2.9601984, -0.4959736, 0
1050, 2159121636, -0.6011676, -0.16140077, -0.3876187, 0.679926, -1.5958863, 0.5030125, -0.42516232, 0
1051, 2159138303, -0.60031986, -0.16216658, -0.38469467, 0.6821497, -1.4543539, -1.7270648, 1.439352, 0
1054, 2159188304, -0.5960078, -0.1674712, -0.37910444, 0.68775576, -0.87538964, 0.1222256, 0.033836365, 0
1055, 2159204971, -0.5941284, -0.16882582, -0.37824386, 0.68952227, -1.1745474, 0.5697441, 1.8257818, 0
1057, 2159238305, -0.590295, -0.17209479, -0.37698156, 0.6926905, -1.6437392, -0.08716435, -1.8304968, 0
1058, 2159254972, -0.5881564, -0.17364141, -0.37649632, 0.69438547, -1.0880891, 0.7634317, 0.29089832, 0
1059, 2159271639, -0.5858752, -0.17434718, -0.37575597, 0.6965349, -1.7542169, -0.31430247, 0.29699898, 0
1061, 2159304973, -0.58072644, -0.17542851, -0.37521085, 0.70085543, -1.3499311, 0.6431407, 1.0248346, 0
1062, 2159321640, -0.5779867, -0.17649893, -0.37549347, 0.7026977, -1.1266223, 1.3990538, -0.3501215, 0
1063, 2159338307, -0.57487404, -0.17646065, -0.3763007, 0.7048257, 0.3036515, 2.6074936, 3.9674807, 0
1065, 2159371641, -0.5689118, -0.17797253, -0.37854487, 0.70807403, -0.89247036, 0.35002962, -2.857687, 0
1066, 2159388308, -0.56517553, -0.17622918, -0.38032967, 0.7105414, -2.2180016, -1.0424097, 0.04548073, 0
1069, 2159438309, -0.5552351, -0.17602523, -0.3865314, 0.71506816, -0.33126554, 2.2094762, -0.2825384, 0
1070, 2159454976, -0.5521306, -0.17473577, -0.3889472, 0.7164771, -1.2424189, 0.085524105, 0.74401665, 0
1071, 2159471643, -0.54880494, -0.17321321, -0.39135563, 0.71808857, -2.353979, -2.525857, -1.0568695, 0
1073, 2159504977, -0.543978, -0.17286143, -0.3956981, 0.7194651, 0.39116913, 0.73425525, -0.09220886, 0
1074, 2159521644, -0.54174286, -0.17238638, -0.39762828, 0.7202008, 0.73751676, 1.6532332, 1.3943043, 0
1075, 2159538311, -0.5395872, -0.17164847, -0.39952308, 0.7209464, -0.37367588, -1.1556801, -0.28693962, 0
1078, 2159588312, -0.53535336, -0.16953418, -0.405208, 0.72143, 0.7354031, 0.077120796, -0.055698395, 0
1080, 2159621646, -0.5336963, -0.16725306, -0.40859807, 0.72127825, 0.5747198, -0.84876937, -0.15602493, 0
1081, 2159638313, -0.5336665, -0.16724028, -0.4099709, 0.72052383, -0.44542074, -1.3449525, -0.97542477, 0
1084, 2159688314, -0.534528, -0.16570365, -0.4138713, 0.7180061, 1.8597664, 0.53698754, 0.85278416, 0
1085, 2159704981, -0.53542686, -0.16581893, -0.41576058, 0.71621597, 0.63438463, -1.5691658, -0.61644936, 0
1086, 2159721648, -0.53624326, -0.1652456, -0.41697183, 0.7150326, -0.1356822, -3.009842, 1.5953932, 0
1088, 2159754982, -0.53787196, -0.1629681, -0.41843942, 0.7134729, -1.4196662, -4.799804, -1.2393732, 0
1089, 2159771649, -0.5386381, -0.16330509, -0.42037877, 0.7116754, -0.11242411, -2.9130712, -1.5432053, 0
1090, 2159788316, -0.5401151, -0.16466022, -0.42107746, 0.7098284, 0.22751428, -1.1202883, 2.0087404, 0
1092, 2159821650, -0.5427579, -0.16403444, -0.4226141, 0.70703876, -3.0852847, -5.204978, -3.442996, 0
1094, 2159854984, -0.5479197, -0.16424936, -0.41991323, 0.7046127, -1.7975972, -6.291124, -1.1023331, 0
1096, 2159888318, -0.5551723, -0.1682503, -0.41388452, 0.70155174, 1.6737639, -2.560292, 3.424986, 0
1098, 2159921652, -0.5612655, -0.17019932, -0.41096961, 0.69793767, -3.2981632, -6.8751493, -4.8970942, 0
1100, 2159954986, -0.5666306, -0.16829976, -0.40749848, 0.6960961, 0.03420687, -5.1221905, -4.018935, 0
1101, 2159971653, -0.5677578, -0.16416451, -0.40837714, 0.69565004, 2.9797952, -0.8495078, 4.982027, 0
1103, 2160004987, -0.5689862, -0.15355182, -0.41191074, 0.69498646, 1.9169888, 1.7651889, -3.5605788, 0
1104, 2160021654, -0.56886977, -0.15012947, -0.41437748, 0.6943627, 1.9962295, 3.0685954, -5.6046247, 0
1105, 2160038321, -0.56726366, -0.14536364, -0.41820136, 0.69439805, 2.6749887, 2.9272916, -3.508635, 0
1107, 2160071655, -0.5640609, -0.13845915, -0.42347926, 0.6952191, 0.48096076, 6.612252, 2.8331146, 0
1108, 2160088322, -0.5631818, -0.1381185, -0.42448726, 0.6953849, 1.3787826, 11.156952, 2.8380556, 0
1111, 2160138323, -0.5633949, -0.14027375, -0.41908252, 0.69805396, 1.1572464, 4.876227, 1.5493774, 0
1113, 2160171657, -0.5627747, -0.14509964, -0.41526735, 0.6998456, 1.7618709, 4.421873, -3.247744, 0
1115, 2160204991, -0.5610291, -0.1476721, -0.4131263, 0.7019731, -2.0310218, 1.1307999, -0.33024597, 0
1116, 2160221658, -0.56105053, -0.15068007, -0.4111047, 0.70250314, 0.4223428, 3.935194, -0.0406847, 0
1117, 2160238325, -0.5612375, -0.15157577, -0.40822452, 0.7038396, -0.50640416, 2.1051617, 3.0716543, 0
1119, 2160271659, -0.5625807, -0.15533665, -0.40135354, 0.7058957, -0.082208626, 0.40624127, -1.1248474, 0
1120, 2160288326, -0.5628112, -0.15646511, -0.39845824, 0.7071021, -1.2662437, -2.4248376, -1.6858482, 0
1121, 2160304993, -0.56219494, -0.15704174, -0.39684376, 0.7083712, 0.14053892, 0.11982116, 2.9761295, 0
1123, 2160338327, -0.56008416, -0.15951966, -0.39625615, 0.70981705, 0.11415466, 0.20573932, -0.742363, 0
1124, 2160354994, -0.5581188, -0.1597355, -0.3973973, 0.71067816, -1.2234949, -0.8602617, 0.36271858, 0
1128, 2160421662, -0.5479168, -0.16150148, -0.4045518, 0.7141725, 0.61721563, 2.5847623, -0.5754957, 0
1130, 2160454996, -0.5445389, -0.16106598, -0.40692624, 0.71550405, -0.93120927, -0.698262, 0.6048441, 0
1131, 2160471663, -0.54326755, -0.16041972, -0.40757746, 0.71624476, -2.2916806, -1.189659, -2.0931735, 0
1132, 2160488330, -0.5442729, -0.15729755, -0.4049816, 0.717645, 1.8610519, -2.3577251, 0.76546955, 0
1134, 2160521664, -0.5451064, -0.15322185, -0.4007297, 0.72027624, -1.9676813, 3.4552157, 4.662015, 0
1135, 2160538331, -0.5437951, -0.15597424, -0.39995614, 0.7211062, 0.5656646, 3.0856059, 0.45388317, 0
1136, 2160554998, -0.54217035, -0.16207741, -0.4009202, 0.72044784, 0.095958136, 2.503856, -1.1675406, 0
1138, 2160588332, -0.54290867, -0.16497102, -0.39711246, 0.7213434, -0.89011985, 0.86465955, -4.384103, 0
1139, 2160604999, -0.54389566, -0.16292107, -0.39288652, 0.7233769, -0.2647254, 2.5722394, -0.3558159, 0
1140, 2160621666, -0.54419076, -0.1626039, -0.39060253, 0.7244625, 3.0008464, 6.3632107, 4.6480618, 0
1143, 2160671667, -0.5401803, -0.16454603, -0.3990747, 0.72240514, -1.573457, -1.8100102, -6.747119, 0
1144, 2160688334, -0.53554595, -0.16507559, -0.40695307, 0.7213389, -0.6066511, 0.2721302, -5.0131536, 0
1146, 2160721668, -0.52104, -0.16626705, -0.42627272, 0.72053045, -2.0827224, 3.956456, 6.3372765, 0
1147, 2160738335, -0.51129466, -0.16962957, -0.43726692, 0.7201397, 0.49156153, 0.95763254, 5.8182573, 0
1148, 2160755002, -0.50124556, -0.1784131, -0.44820318, 0.71835625, 0.24129565, -12.590598, 1.3850203, 0
1150, 2160788336, -0.47156972, -0.1996111, -0.5010903, 0.6976287, -0.18555687, 0.62563646, 10.796982, 0
1151, 2160805003, -0.4476446, -0.19292136, -0.5418236, 0.68470645, 13.641997, -5.6173944, 10.587799, 0
1152, 2160821670, -0.44228756, -0.19035333, -0.5751505, 0.6613237, 17.659473, -0.17730992, -4.7714744, 0
1154, 2160855004, -0.54654807, -0.22233416, -0.55042976, 0.59066045, 21.580486, -18.87768, 27.31707, 0
1158, 2160921672, -0.66817963, -0.2966665, -0.3772585, 0.5685075, -36.147144, -14.309862, -42.355682, 0
1159, 2160938339, -0.6426195, -0.30147135, -0.37234277, 0.5979266, -23.409576, -11.43697, -37.21663, 0
1161, 2160971673, -0.5869714, -0.28691256, -0.34983224, 0.67138904, -10.529933, -2.248309, 15.045641, 0
1162, 2160988340, -0.563641, -0.2631484, -0.32736868, 0.7112605, -3.1522605, 19.094118, 17.395706, 0
1163, 2161005007, -0.54147255, -0.242323, -0.31697783, 0.7400083, 11.719773, 31.072474, -0.82890797, 0
1165, 2161038341, -0.5271888, -0.21650681, -0.33545467, 0.75011134, 27.929731, 32.10238, -5.576687, 0
1166, 2161055008, -0.53095186, -0.21810076, -0.35513663, 0.73783475, 34.83024, 68.71167, 12.327393, 0
1167, 2161071675, -0.519871, -0.2524151, -0.3669507, 0.7289499, 84.98075, 86.134926, -4.157823, 1024
1169, 2161105009, -0.5055255, -0.3125048, -0.4106357, 0.6914935, 1.069558, 7.486141, 3.132164, 0
1170, 2161121676, -0.49964234, -0.32913908, -0.42688316, 0.67808264, 6.625424, -0.59419143, -1.056263, 0
1174, 2161188344, -0.45064518, -0.3916855, -0.52238625, 0.60878086, -2.2557318, -7.036304, 3.0412655, 0
1175, 2161205011, -0.42467764, -0.4361555, -0.56498533, 0.55696386, -4.426201, -13.98718, 11.702038, 0
1177, 2161238345, -0.37378722, -0.5571795, -0.6108932, 0.42029002, -27.985836, -34.467205, 42.49531, 0
1178, 2161255012, -0.40157726, -0.57238704, -0.6113816, 0.37056887, -8.002676, -9.505765, 14.163456, 0
1179, 2161271679, -0.4349936, -0.5819296, -0.5994259, 0.33589754, -32.140278, -20.68301, 20.037031, 0
1181, 2161305013, -0.4508124, -0.6341275, -0.5737572, 0.25583866, -30.154856, -43.461926, 8.15386, 0
1182, 2161321680, -0.45001656, -0.66016823, -0.55358994, 0.23494983, -18.369917, -44.284565, -2.7774773, 0
1184, 2161355014, -0.47040597, -0.6853106, -0.51600915, 0.20688692, -11.037591, -22.032257, -16.105228, 0
1185, 2161371681, -0.47728038, -0.6903927, -0.50403136, 0.20374967, -9.667381, -11.197867, -19.03389, 0
1188, 2161421682, -0.45962784, -0.684747, -0.5100924, 0.24427336, -2.0168154, -6.856446, -17.775078, 0
1190, 2161455016, -0.45749247, -0.6579895, -0.5202826, 0.29505348, 3.5071566, -6.238946, -14.849926, 0
1192, 2161488350, -0.480826, -0.6078757, -0.52504593, 0.35159662, 2.3881013, -7.2655015, -12.751306, 0
1193, 2161505017, -0.49535733, -0.5777197, -0.52275604, 0.38417077, 4.160068, -5.1334867, -12.379375, 0
1194, 2161521684, -0.51087004, -0.5459661, -0.5167566, 0.41700798, 3.3856115, -6.0536847, -10.039189, 0
1196, 2161555018, -0.54695094, -0.47404376, -0.4927295, 0.48305798, 1.9637824, -6.4470544, -6.5774508, 0
1197, 2161571685, -0.5657736, -0.4311134, -0.47824746, 0.515093, 0.47886533, -7.884879, -3.107595, 0
1198, 2161588352, -0.5829907, -0.3823176, -0.46202904, 0.5481645, -0.5971448, -8.310504, 0.30432796, 0
1200, 2161621686, -0.6082179, -0.27149105, -0.4257462, 0.6124573, 2.1156394, -5.714035, 8.024876, 0
1202, 2161655020, -0.62383467, -0.1623868, -0.3755873, 0.6658792, 1.5735201, 6.931163, 13.645004, 0
1204, 2161688354, -0.61923957, -0.06562287, -0.32054943, 0.7137816, 4.9293375, 17.060652, 21.504911, 0
1206, 2161721688, -0.59317374, 0.025747634, -0.27833438, 0.75499135, 13.326881, 29.785988, 0.79772377, 0
1208, 2161755022, -0.58145964, 0.06296277, -0.258262, 0.76892203, 23.415628, 36.987823, -10.945213, 0
1209, 2161771689, -0.5829219, 0.06857632, -0.25921053, 0.7670132, 23.940334, 34.08553, -18.886936, 0
1211, 2161805023, -0.6090346, 0.03824062, -0.27250683, 0.74387807, 19.556269, 39.90487, -17.27414, 0
1212, 2161821690, -0.6155826, -0.0082308, -0.295107, 0.73068637, 11.4742775, 56.688156, -11.203072, 0
1213, 2161838357, -0.61166227, -0.057060137, -0.32404485, 0.7194502, 31.966784, 39.492752, 30.989048, 0
1215, 2161871691, -0.6126977, -0.088688724, -0.33709276, 0.7092985, -1.0160644, -2.2122421, 1.4254436, 0
1217, 2161905025, -0.6231014, -0.11111185, -0.34463322, 0.69327253, 1.1137928, -0.036303084, 0.06221199, 0
1219, 2161938359, -0.62459606, -0.13974336, -0.3598371, 0.67887324, -2.7150946, -1.7346494, 0.5742035, 0
1220, 2161955026, -0.62379307, -0.1664164, -0.37597686, 0.66470224, -2.8977778, -3.3063922, 1.3676977, 0
1221, 2161971693, -0.6184649, -0.20830369, -0.4008634, 0.64297706, -2.1648078, -5.1574707, 0.97692585, 0
1223, 2162005027, -0.59125596, -0.3399416, -0.46796542, 0.56201816, -5.3954926, -11.4414625, 10.421099, 0
1224, 2162021694, -0.5709671, -0.41247627, -0.5081784, 0.4955952, -4.13004, -14.918059, 16.768822, 0
1225, 2162038361, -0.55699855, -0.45630288, -0.55500174, 0.41654944, -14.108282, -24.998014, 27.226479, 0
1227, 2162071695, -0.5405239, -0.49382222, -0.5956419, 0.3304305, -39.34345, -34.937202, 44.407307, 0
1228, 2162088362, -0.53115565, -0.5063526, -0.5866487, 0.34252617, 4.914247, 4.51112, 0.26861382, 0
1229, 2162105029, -0.53810114, -0.5201227, -0.5862331, 0.31024286, 6.4958715, 1.1616898, 4.059182, 0
1232, 2162155030, -0.5307948, -0.5740307, -0.57712775, 0.23594365, -14.815673, -12.46596, -8.806328, 0
1233, 2162171697, -0.51067656, -0.5954594, -0.5804878, 0.2183383, -12.197005, -16.824034, -11.303826, 0
1236, 2162221698, -0.4843712, -0.60735244, -0.6050891, 0.17428355, -3.3844512, -14.289244, -17.371613, 0
1238, 2162255032, -0.49417347, -0.5998903, -0.6053791, 0.17158233, -0.8726667, -8.140759, -17.645145, 0
1239, 2162271699, -0.4999858, -0.6007354, -0.59798765, 0.17760062, -0.839984, -5.9422555, -17.009653, 0
1240, 2162288366, -0.5069543, -0.60187656, -0.5873723, 0.1890397, -4.1845703, -9.876758, -15.432383, 0
1242, 2162321700, -0.5254371, -0.59356457, -0.5618712, 0.23642701, -3.857434, -6.4994903, -14.399689, 0
1243, 2162338367, -0.53653955, -0.5822913, -0.5498898, 0.2658632, -3.1048634, -5.488315, -12.851733, 0
1244, 2162355034, -0.5489692, -0.56607246, -0.53900075, 0.2960964, -1.4706674, -3.538803, -11.878735, 0
1247, 2162405035, -0.5887557, -0.49296585, -0.515327, 0.38051203, -4.325169, -5.94064, -5.455241, 0
1248, 2162421702, -0.5983796, -0.46542218, -0.50520337, 0.41242427, -5.053458, -5.9505577, -1.642355, 0
1250, 2162455036, -0.61180043, -0.4024708, -0.48706797, 0.4759016, -4.853894, -4.148217, 3.766861, 0
1252, 2162488370, -0.62034297, -0.3299778, -0.46744925, 0.5364518, -4.1908793, -0.923898, 9.098215, 0
1254, 2162521704, -0.6205777, -0.2562375, -0.44400302, 0.5933694, -3.1772466, 2.0575438, 10.003084, 0
1255, 2162538371, -0.6165857, -0.21873245, -0.43269125, 0.6202875, -0.54765147, 1.8403232, 11.018091, 0
1256, 2162555038, -0.61275446, -0.17861755, -0.42072192, 0.6446869, 3.902453, 2.0164602, 11.134518, 0
1258, 2162588372, -0.6101668, -0.09790888, -0.38728702, 0.6841924, 2.0524123, 7.5951204, 9.462502, 0
1259, 2162605039, -0.60534364, -0.062152624, -0.36737064, 0.70337397, -0.014013592, 8.88803, 7.035862, 0
1262, 2162655040, -0.55868536, 0.028091904, -0.32736126, 0.7615223, 7.8750205, 10.964522, 2.8493385, 0
1263, 2162671707, -0.54139405, 0.051787987, -0.3177589, 0.7766851, 10.294928, 12.504783, 2.1151428, 0
1265, 2162705041, -0.5171515, 0.090931244, -0.29668996, 0.7976597, 12.696571, 14.911874, -0.14322948, 0
1266, 2162721708, -0.5079265, 0.1061604, -0.28596622, 0.8055831, 11.6112, 15.510699, -4.124266, 0
1269, 2162771709, -0.48372647, 0.122254595, -0.26821604, 0.8240891, 15.537258, 13.230453, -8.699427, 0
1270, 2162788376, -0.48356336, 0.12012947, -0.26343933, 0.8260359, 16.747108, 13.539866, -8.290624, 0
1271, 2162805043, -0.48871553, 0.11431766, -0.25797763, 0.82555217, 15.4685755, 13.238824, -10.370322, 0
1273, 2162838377, -0.51059055, 0.08579257, -0.24934258, 0.8183919, 13.332784, 14.415816, -9.026967, 0
1274, 2162855044, -0.52428764, 0.06309725, -0.24815908, 0.8121321, 11.232209, 16.768063, -8.524076, 0
1277, 2162905045, -0.5466344, -0.041959286, -0.26422584, 0.7934829, 10.844936, 28.012808, -13.409116, 0
1278, 2162921712, -0.5437543, -0.090885825, -0.2854315, 0.7839642, 12.898291, 26.839848, -19.578558, 0
1279, 2162938379, -0.54631406, -0.07945566, -0.28725502, 0.78275955, 29.379595, 2.1440783, 19.576067, 1024
1281, 2162971713, -0.5397946, -0.08260245, -0.28753614, 0.7868428, -6.3348384, -2.0892663, -0.0020837784, 0
1282, 2162988380, -0.54609585, -0.09510131, -0.29278874, 0.77910835, -1.12476, -2.4172454, 0.6982689, 0
1285, 2163038381, -0.55289173, -0.16324046, -0.32647765, 0.7490498, -1.7813905, -1.1408257, 0.77779865, 0
1286, 2163055048, -0.55033296, -0.2012612, -0.34650618, 0.7325035, -2.3839629, -1.9445212, 1.5490294, 0
1287, 2163071715, -0.5455307, -0.25029576, -0.3703643, 0.70892775, -2.9803834, -2.5694282, 1.1837225, 0
1289, 2163105049, -0.5299079, -0.38284686, -0.42129356, 0.6285997, -7.39972, -9.363579, 5.487031, 0
1292, 2163155050, -0.49214917, -0.5763981, -0.50015116, 0.41881195, -60.58454, -38.349358, 38.707943, 0
1293, 2163171717, -0.45023274, -0.6011275, -0.50425625, 0.4262182, -77.83474, -24.166023, 31.935337, 0
1294, 2163188384, -0.40511826, -0.6075466, -0.5205008, 0.44254425, 5.3598843, -8.657274, -9.446099, 0
1296, 2163221718, -0.4007195, -0.60826135, -0.5599294, 0.39486882, -23.717224, -36.748337, -4.5422616, 0
1297, 2163238385, -0.410171, -0.60741436, -0.5573253, 0.39012322, -14.53269, -25.42302, -16.077873, 0
1298, 2163255052, -0.42398733, -0.60326266, -0.54952693, 0.39284763, -17.370155, -23.009277, -16.317453, 0
1300, 2163288386, -0.4477259, -0.5788106, -0.5236523, 0.43624312, -14.799643, -7.2300835, -16.881733, 0
1301, 2163305053, -0.45182684, -0.562525, -0.50900775, 0.46939257, -10.61012, -4.975552, -15.079878, 0
1302, 2163321720, -0.4534576, -0.5404776, -0.4975418, 0.5046904, -8.542661, -1.8334993, -13.875141, 0
1304, 2163355054, -0.44741496, -0.48209283, -0.48351467, 0.5775984, -7.7440643, -0.8163414, -6.6023426, 0
1306, 2163388388, -0.42573667, -0.4073736, -0.47677392, 0.65228975, -1.0032917, 6.1041846, -0.36720562, 0
1308, 2163421722, -0.3889369, -0.3261934, -0.4678458, 0.7234959, 9.309074, 12.651051, 2.8200102, 0
1309, 2163438389, -0.3697921, -0.29276517, -0.45598483, 0.75473183, 12.094798, 15.154518, 3.151082, 0
1310, 2163455056, -0.34998417, -0.26395237, -0.444115, 0.78141046, 12.651047, 14.72406, 2.959855, 0
1312, 2163488390, -0.31845403, -0.21806046, -0.41955367, 0.8215907, 12.861819, 12.207861, 0.56932163, 0
1314, 2163521724, -0.29425907, -0.18205269, -0.40777633, 0.84497756, 9.485191, 12.026673, -0.061166763, 0
1316, 2163555058, -0.25031465, -0.18144432, -0.39372766, 0.8656785, 22.331049, 6.8895764, -9.973668, 0
1317, 2163571725, -0.22897796, -0.19319175, -0.38874218, 0.8712781, 28.060102, -5.7790313, 5.474514, 0
1319, 2163605059, -0.26109323, -0.21676818, -0.32910797, 0.8812094, 9.235254, 27.71187, -6.6354256, 0
1321, 2163638393, -0.27154338, -0.2185102, -0.3163424, 0.8822954, 1.3846788, -0.5188587, 0.7910919, 0
1323, 2163671727, -0.27834368, -0.2188213, -0.3194646, 0.87896794, 3.664798, 1.7456691, 0.45992374, 0
1324, 2163688394, -0.28253686, -0.21686639, -0.3217554, 0.8772774, 3.9033659, 0.45319253, 1.9024763, 0
1325, 2163705061, -0.2851041, -0.21189153, -0.32908437, 0.87494075, -0.078455895, -1.2695552, 1.7670488, 0
1327, 2163738395, -0.2871666, -0.20173499, -0.33341306, 0.8750282, 0.49060145, 3.4229307, 5.0332813, 0
1328, 2163755062, -0.29826042, -0.19179326, -0.32464498, 0.87684774, -1.2515025, -7.903377, -6.101572, 0
1331, 2163805063, -0.31857538, -0.16914731, -0.3157312, 0.87761796, -0.4570526, -3.563645, 0.6308794, 0
1332, 2163821730, -0.32837018, -0.16160193, -0.31426135, 0.8759556, -1.5572984, -3.6054485, -2.2934813, 0
1333, 2163838397, -0.33708796, -0.15492643, -0.31529748, 0.87347406, -0.7690437, -0.122312576, 2.469901, 0
1336, 2163888398, -0.3657481, -0.124836355, -0.32050326, 0.864825, -2.171414, -0.6813459, 1.4417238, 0
1337, 2163905065, -0.3779419, -0.11353253, -0.3188335, 0.86175156, -3.9964747, -0.6869707, -1.0189342, 0
1339, 2163938399, -0.39616352, -0.091030136, -0.31431207, 0.8578906, 1.6062957, -3.1211576, -0.8426628, 0
1340, 2163955066, -0.4005718, -0.08135362, -0.31398052, 0.85693645, 0.29703018, -3.727012, -0.4108143, 0
1341, 2163971733, -0.40340942, -0.07557906, -0.3144298, 0.8559689, -2.5486922, -1.5209477, 0.196064, 0
1343, 2164005067, -0.40954748, -0.0740709, -0.3170399, 0.8522148, -2.8097239, -2.9119866, 1.1341705, 0
1344, 2164021734, -0.41686946, -0.07343863, -0.31826416, 0.84825397, -3.4878848, -6.2640824, -1.3604155, 0
1347, 2164071735, -0.4668303, -0.06846455, -0.31406572, 0.82385975, -1.6988966, 3.1074352, -1.6610231, 0
1348, 2164088402, -0.46693936, -0.0696528, -0.31164324, 0.8246179, 3.85804, -2.5832067, -2.0852065, 0
1351, 2164138403, -0.46359584, -0.05700554, -0.29854098, 0.8322877, -1.6481403, 0.9088078, -0.65167236, 0
1352, 2164155070, -0.4621217, -0.053528592, -0.29514235, 0.8345475, 0.5301299, 1.408575, 2.7529478, 0
1354, 2164188404, -0.46148092, -0.050199624, -0.29118857, 0.8364956, 4.075909, 2.4078934, 0.33278275, 0
1355, 2164205071, -0.4603015, -0.048686918, -0.2901234, 0.8376043, 3.252912, 3.7557008, 0.8684397, 0
1356, 2164221738, -0.45866448, -0.046480987, -0.2890019, 0.8390139, 1.3226999, 2.2788188, -0.647542, 0
1358, 2164255072, -0.4572918, -0.04215684, -0.2881895, 0.8402701, 3.2928371, 6.648554, 0.58210754, 0
1359, 2164271739, -0.45716333, -0.04125633, -0.28740463, 0.84065366, 5.9064856, 6.617656, 1.2674265, 0
1360, 2164288406, -0.45714888, -0.039317872, -0.28667918, 0.8410019, 6.104478, 3.6212468, 0.5667248, 0
1363, 2164338407, -0.4569953, -0.03741947, -0.28610831, 0.8413663, -0.013185979, 5.17234, -3.4132366, 0
1366, 2164388408, -0.45741242, -0.04385162, -0.28323534, 0.84180087, 1.4858828, 2.5623317, -0.74208736, 0
1367, 2164405075, -0.4581776, -0.0468117, -0.28107753, 0.8419487, 0.49624437, 2.50733, -2.1963353, 0
1368, 2164421742, -0.45888364, -0.04943308, -0.27800596, 0.8424341, 0.40670732, 1.9804658, 0.32905102, 0
1370, 2164455076, -0.4600778, -0.054196615, -0.2722231, 0.84337765, 0.64518356, 1.907272, -0.07730198, 0
1371, 2164471743, -0.4603484, -0.056607798, -0.26927832, 0.8440168, -0.20935687, 1.4397008, -0.7430754, 0
1373, 2164505077, -0.45842642, -0.061384127, -0.2669398, 0.84547055, 1.9748161, 6.202086, 5.3114443, 0
1374, 2164521744, -0.45734027, -0.059170693, -0.2613265, 0.84796673, -2.927231, -9.23974, 5.3661213, 0
1375, 2164538411, -0.45705533, -0.0627973, -0.26207644, 0.84762794, -2.507366, 3.9573371, -4.122935, 0
1377, 2164571745, -0.45327196, -0.06407948, -0.26154003, 0.84972656, -1.7560121, 0.27473587, -0.035250664, 0
1378, 2164588412, -0.4511125, -0.06365688, -0.26073897, 0.85115254, -0.17053726, -1.436628, 2.0516443, 0
1381, 2164638413, -0.44647366, -0.06542555, -0.2601517, 0.85364056, -0.6452421, -0.622119, 0.89764977, 0
1382, 2164655080, -0.44483504, -0.0648587, -0.25981325, 0.8546418, -1.0678633, -2.6232574, 0.14303112, 0
1383, 2164671747, -0.44348723, -0.06460259, -0.26040357, 0.85518163, 0.18115468, -0.8721712, -0.32658577, 0
1385, 2164705081, -0.44106537, -0.063392706, -0.26087716, 0.85637957, -0.10758595, -0.35697153, 1.3465691, 0
1386, 2164721748, -0.44027972, -0.062647626, -0.26127127, 0.8567184, -2.1664784, -2.451599, -0.8970804, 0
1387, 2164738415, -0.4395413, -0.062111247, -0.2620206, 0.85690784, -0.91299796, -0.94251806, -0.6970911, 0
1389, 2164771749, -0.43884054, -0.061582386, -0.26238024, 0.85719514, -0.2177367, 0.188792, -0.7943058, 0
1390, 2164788416, -0.43878466, -0.06131827, -0.26157463, 0.85748875, -0.20428078, -0.6285429, 1.4307356, 0
1393, 2164838417, -0.44016522, -0.06414614, -0.25954646, 0.85719055, -4.3833776, -2.3029687, -1.5696945, 0
1395, 2164871751, -0.4419073, -0.06736344, -0.26028702, 0.85582185, 0.26933914, 2.0386186, -3.0912905, 0
1397, 2164905085, -0.4382812, -0.066477045, -0.263233, 0.85685414, -2.352597, -4.646478, 3.9392605, 0
1398, 2164921752, -0.43900412, -0.069499254, -0.2675166, 0.85491544, -4.8226414, -0.9019992, -0.5638838, 0
1400, 2164955086, -0.44131267, -0.07858022, -0.27399877, 0.8508779, -6.2899814, -0.37302557, -2.5671659, 0
1401, 2164971753, -0.4415073, -0.080408886, -0.27533436, 0.85017455, -2.0005612, -2.0408454, 1.3151236, 0
1402, 2164988420, -0.44019866, -0.08189265, -0.27674416, 0.8502539, -2.8579297, -4.7866015, 2.3415995, 0
1404, 2165021754, -0.4431713, -0.087266654, -0.28427795, 0.8456773, -4.26959, -3.2399268, 0.46530342, 0
1405, 2165038421, -0.4478098, -0.09038725, -0.28695363, 0.8419943, -6.094262, -0.43846437, -2.354578, 0
1406, 2165055088, -0.45096, -0.09219514, -0.28719056, 0.8400339, -2.8446844, -0.6853222, -2.8705597E-4, 0
1410, 2165121756, -0.4398415, -0.07487085, -0.26837146, 0.85376287, -0.5673184, 0.23176324, -0.59736633, 0
1412, 2165155090, -0.43467253, -0.07112922, -0.26661795, 0.8572722, 0.010768128, 1.1480213, -0.7292118, 0
1413, 2165171757, -0.43174607, -0.06937316, -0.26828697, 0.8583735, 2.9633582, 2.5213728, -3.151165, 0
1414, 2165188424, -0.4278965, -0.06701101, -0.27022856, 0.85987824, 4.23043, 2.5187774, 1.8067827, 0
1416, 2165221758, -0.42113525, -0.06387263, -0.27609023, 0.86159134, 4.986436, 6.383025, 15.004049, 0
1417, 2165238425, -0.41781157, -0.061150424, -0.28058067, 0.8619564, -4.6988354, -0.23361711, -4.0223093, 0
1418, 2165255092, -0.41585407, -0.061467264, -0.28451008, 0.8615925, 8.910951, 8.956881, -5.239539, 0
1420, 2165288426, -0.40923783, -0.05600864, -0.28624946, 0.8645511, 3.3244429, 0.7944055, 4.1137505, 0
1421, 2165305093, -0.40541357, -0.052861772, -0.2886236, 0.86576104, 3.5718627, 2.8441694, 2.8339539, 0
1422, 2165321760, -0.4020743, -0.051164508, -0.29092866, 0.86664814, 4.8893147, 3.6563852, -1.722105, 0
1427, 2165405095, -0.39741528, -0.049751136, -0.2900301, 0.869177, 4.1413875, 0.83288604, -2.78155, 0
1428, 2165421762, -0.3989568, -0.05031876, -0.2875632, 0.86925787, 2.2341008, 1.123423, -2.2395644, 0
1429, 2165438429, -0.4016303, -0.05167977, -0.2848325, 0.8688458, 3.2367094, 1.463416, 0.008312225, 0
1431, 2165471763, -0.40940577, -0.05177041, -0.27874124, 0.8671854, 1.1501088, 0.15720521, 0.8806181, 0
1432, 2165488430, -0.413068, -0.05163836, -0.2761174, 0.8662954, 0.7105582, 0.8399036, -2.0973272, 0
1433, 2165505097, -0.41539633, -0.05163259, -0.27366942, 0.86595917, 0.21104601, 1.443216, -2.721045, 0
1435, 2165538431, -0.4183148, -0.05186271, -0.2686352, 0.8661168, 2.1239467, 3.8084533, 0.4125414, 0
1436, 2165555098, -0.4199062, -0.053405758, -0.26561797, 0.8661835, 1.5931135, 4.261686, 4.4886036, 0
1437, 2165571765, -0.4205668, -0.055278976, -0.26345697, 0.8664054, -1.2475085, 0.54081064, -0.66186047, 0
1440, 2165621766, -0.4193192, -0.0591164, -0.2586628, 0.8681995, -1.2022295, 2.0088317, 0.7072849, 0
1443, 2165671767, -0.41534057, -0.06272165, -0.25712234, 0.8703139, 0.9607275, -0.9031374, -0.8924751, 0
1444, 2165688434, -0.41396588, -0.06364206, -0.25708723, 0.8709123, -1.1277153, -0.389454, -1.7465029, 0
1445, 2165705101, -0.41207233, -0.06437144, -0.25730637, 0.87169164, -0.82580423, 0.6297554, 0.409976, 0
1447, 2165738435, -0.4085312, -0.06583111, -0.25937635, 0.8726355, 0.90450454, 0.48873186, 0.69923687, 0
1448, 2165755102, -0.40681705, -0.06578822, -0.26029566, 0.87316567, -1.7032956, -1.320061, -1.0007057, 0
1451, 2165805103, -0.40208226, -0.06760771, -0.26227117, 0.8746273, -0.8872081, -0.42260864, 0.17068577, 0
1452, 2165821770, -0.40098694, -0.06772488, -0.26257578, 0.8750296, -1.4972829, -0.7418583, 1.0981016, 0
1455, 2165871771, -0.3982533, -0.069617085, -0.26524892, 0.8753233, -2.335408, -2.2889307, -0.09312248, 0
1456, 2165888438, -0.39805928, -0.07080583, -0.26657033, 0.8749148, -1.8775963, -1.716512, 0.93377113, 0
1458, 2165921772, -0.39692837, -0.07236798, -0.2700818, 0.87422353, -4.3382196, -3.9668887, 0.88195324, 0
1459, 2165938439, -0.396323, -0.07349123, -0.2728456, 0.873546, -3.7299967, -3.8655963, 1.2375135, 0
1460, 2165955106, -0.39625195, -0.07514087, -0.27577683, 0.87251693, -3.7711594, -4.412782, 1.1740332, 0
1462, 2165988440, -0.39866158, -0.08325778, -0.2818591, 0.8687304, -6.705915, -4.576364, -0.6892681, 0
1463, 2166005107, -0.39962918, -0.08660608, -0.283984, 0.86726534, -5.107627, -3.422073, 1.9465599, 0
1464, 2166021774, -0.39988005, -0.08782967, -0.28592622, 0.8663882, -7.696271, -5.094211, -0.9780178, 0
1466, 2166055108, -0.40087527, -0.09055967, -0.28870168, 0.86472505, -4.0947037, -5.2817464, 1.0788517, 0
1467, 2166071775, -0.4034036, -0.09302358, -0.29212418, 0.8621345, -3.074507, -5.1353507, -0.71392727, 0
1470, 2166121776, -0.40035763, -0.08593266, -0.2982014, 0.8622096, -1.4589331, -1.954353, -6.5065136, 0
1471, 2166138443, -0.3986426, -0.07788269, -0.29510692, 0.8648297, 0.6857004, 0.18518125, -2.1758518, 0
1474, 2166188444, -0.3954125, -0.052443653, -0.29437566, 0.8684708, 0.523759, 5.2647967, 0.03411007, 0
1475, 2166205111, -0.39307442, -0.04744884, -0.2971074, 0.8688893, 4.232385, 3.6950908, 3.175414, 0
1476, 2166221778, -0.38931873, -0.04345455, -0.30383137, 0.8684637, 4.6413574, 6.3852983, 0.4608097, 0
1478, 2166255112, -0.3786983, -0.029178217, -0.31964353, 0.86808085, 5.103455, 4.195896, 0.76635075, 0
1479, 2166271779, -0.3739869, -0.021480493, -0.3258163, 0.86805314, 6.39763, 6.8530254, 5.9501944, 0
1481, 2166305113, -0.36481082, -0.007410772, -0.33329952, 0.86935025, 10.210921, 4.147911, -0.95697117, 0
1482, 2166321780, -0.36456048, -8.039437E-4, -0.3317918, 0.87006295, 6.4004445, -0.0039382703, -1.5532999, 0
1485, 2166371781, -0.3753967, 0.01895291, -0.32149807, 0.869113, 6.3850965, 1.0165634, -1.5135479, 0
1486, 2166388448, -0.3831564, 0.02478131, -0.3167195, 0.8673327, 5.038912, 0.6025623, -0.9767933, 0
1487, 2166405115, -0.39090404, 0.030315928, -0.31251383, 0.8652227, 1.5001265, 1.5446552, 2.3117485, 0
1490, 2166455116, -0.41813362, 0.049051, -0.3049398, 0.8542657, 3.7832716, -2.3897326, -0.6793022, 0
1491, 2166471783, -0.43160155, 0.05591795, -0.3036013, 0.8475964, 1.6426021, -1.6554435, -1.0833683, 0
1493, 2166505117, -0.4664093, 0.068896614, -0.3032821, 0.8280917, 1.822992, 0.57031876, -2.372898, 0
1494, 2166521784, -0.48520887, 0.07416493, -0.3038438, 0.8165482, -0.97601557, 0.62147665, -2.5738225, 0
1495, 2166538451, -0.50262123, 0.07925988, -0.30579785, 0.80472213, -2.1550035, 2.2473538, -2.423728, 0
1497, 2166571785, -0.5315688, 0.08542199, -0.3139249, 0.7820415, -5.8295803, 3.2212176, -2.1730766, 0
1499, 2166605119, -0.54100806, 0.08065187, -0.32492977, 0.77150905, -2.8591876, -1.3212737, -2.4405327, 0
1501, 2166638453, -0.53980887, 0.07292139, -0.3413413, 0.7660124, -1.0182039, 3.0557234, -1.0005255, 0
1502, 2166655120, -0.5361306, 0.07129753, -0.35194847, 0.7639457, 3.164191, 0.89765984, 0.7544546, 0
1503, 2166671787, -0.53151226, 0.06856671, -0.36640677, 0.76061785, 1.264436, -2.9287915, -2.7461991, 0
1506, 2166721788, -0.5093477, 0.043974254, -0.45577466, 0.7286293, 6.0771456, -5.1746135, -4.131226, 0
1508, 2166755122, -0.46022812, 0.014333319, -0.5638659, 0.6855947, -3.2262235, -0.3016419, 3.5763054, 0
1509, 2166771789, -0.43137258, -0.021812104, -0.59126884, 0.6810603, -18.197472, -5.421029, 31.771164, 0
1510, 2166788456, -0.397226, -0.08747071, -0.57229894, 0.7120635, -4.575113, -16.673136, -10.718404, 0
1512, 2166821790, -0.3866006, -0.16175872, -0.5080942, 0.7524723, -5.7649035, -32.403748, -3.643632, 0
1514, 2166855124, -0.44493413, -0.18001264, -0.40184474, 0.77983975, -7.769792, -6.3139267, 6.5747204, 0
1516, 2166888458, -0.51275855, -0.15486644, -0.28976154, 0.79317945, -4.9986205, 20.993942, 4.0679436, 0
1517, 2166905125, -0.5179725, -0.12286696, -0.27638075, 0.80013883, -3.145535, 32.092094, -5.431807, 0
1518, 2166921792, -0.5006949, -0.09608308, -0.27689263, 0.81449574, 2.0633, 34.916286, -11.891291, 0
1520, 2166955126, -0.45515096, -0.0879403, -0.28349897, 0.8394835, 28.147964, 21.024609, -16.659248, 0
1522, 2166988460, -0.46112853, -0.11375769, -0.27800018, 0.8349467, 24.192665, 19.990599, -16.039034, 0
1524, 2167021794, -0.46673623, -0.13756943, -0.27762777, 0.82834464, 74.16394, 50.70521, 46.0656, 0
1525, 2167038461, -0.4523537, -0.13753293, -0.28323513, 0.83440936, -21.588339, -21.009022, -4.1246514, 0
1526, 2167055128, -0.4487741, -0.15339902, -0.286973, 0.8322964, -2.7057018, 5.7072496, 1.7194815, 0
1529, 2167105129, -0.46400338, -0.19147268, -0.30759466, 0.80834675, 1.1432847, -2.2034538, -0.054201126, 0
1530, 2167121796, -0.46304753, -0.21122119, -0.3189195, 0.7995393, -1.8780863, 1.3891674, 0.30020714, 0
1532, 2167155130, -0.46716237, -0.26581132, -0.34091508, 0.77128506, -3.160365, -1.2496268, 0.13890934, 0
1533, 2167171797, -0.4682495, -0.31062073, -0.35311615, 0.74804175, -3.9451694, -2.6970785, 0.30699158, 0
1535, 2167205131, -0.46400923, -0.43947282, -0.3747227, 0.6716713, -6.804044, -5.4923882, 6.9803276, 0
1536, 2167221798, -0.45798042, -0.50917995, -0.38902444, 0.6161573, -2.809312, -6.27854, 8.012053, 0
1537, 2167238465, -0.4554308, -0.563751, -0.41680592, 0.5486715, -20.295687, -16.710922, 23.324665, 0
1539, 2167271799, -0.45483184, -0.62795603, -0.454509, 0.4384301, -40.558037, 2.684117, 24.91986, 0
1540, 2167288466, -0.4275903, -0.64871454, -0.44304422, 0.44726712, -30.195402, -9.633894, 17.830004, 0
1541, 2167305133, -0.41330263, -0.66904855, -0.43133858, 0.4421565, 7.5430374, -2.921136, -0.37668324, 0
1544, 2167355134, -0.4202921, -0.7014446, -0.43736452, 0.37422243, -19.389685, -7.1316495, -6.8506308, 0
1545, 2167371801, -0.41569176, -0.71118724, -0.43847188, 0.3593824, -16.864367, -8.819995, -9.089162, 0
1547, 2167405135, -0.411517, -0.72181493, -0.44131234, 0.3389399, -12.264095, -10.213028, -12.993959, 0
1548, 2167421802, -0.4152305, -0.7210005, -0.44250578, 0.3345605, -10.53619, -9.568554, -13.954456, 0
1549, 2167438469, -0.42298537, -0.7162933, -0.44213936, 0.3354402, -7.6371365, -8.0287, -14.7093525, 0
1552, 2167488470, -0.44883484, -0.6916076, -0.43143305, 0.36618567, -7.181742, -4.35364, -14.34826, 0
1553, 2167505137, -0.45264885, -0.6804979, -0.42623222, 0.3877598, -5.3387218, -4.669899, -13.797787, 0
1555, 2167538471, -0.46133712, -0.64212537, -0.4250545, 0.44064957, -5.8130126, -7.469524, -10.867456, 0
1556, 2167555138, -0.46547893, -0.6143403, -0.4282509, 0.47171673, -3.570143, -7.785752, -10.203484, 0
1559, 2167605139, -0.49020204, -0.5040494, -0.43341392, 0.5637274, -1.9144752, -10.734296, -2.087346, 0
1560, 2167621806, -0.5037675, -0.45961034, -0.42844886, 0.59279704, -1.8844798, -9.798648, 1.2792168, 0
1562, 2167655140, -0.5273296, -0.36263454, -0.4150055, 0.64667636, 0.7904533, -1.8747283, 6.9365196, 0
1563, 2167671807, -0.53205085, -0.3165093, -0.4086276, 0.67064697, 3.3816116, 1.5696801, 10.290464, 0
1564, 2167688474, -0.5304685, -0.2720683, -0.40346757, 0.69411534, 5.7282624, 4.455939, 12.559664, 0
1566, 2167721808, -0.5090936, -0.19869459, -0.38616303, 0.74311686, 9.662145, 10.899978, 9.185419, 0
1568, 2167755142, -0.47110265, -0.1533555, -0.36435685, 0.7885357, 16.217865, 10.795096, 4.3835897, 0
1570, 2167788476, -0.4357547, -0.12435507, -0.34362856, 0.82254064, 17.252386, 10.733761, 1.5777655, 0
1571, 2167805143, -0.42489058, -0.11413569, -0.3299606, 0.83520484, 18.573057, 10.16153, -1.3492451, 0
1574, 2167855144, -0.41733482, -0.10098104, -0.3043004, 0.8503152, 20.01382, 14.543115, -8.388546, 0
1575, 2167871811, -0.41830635, -0.106506966, -0.3011365, 0.85028994, 22.770872, 16.484081, -5.1411223, 0
1576, 2167888478, -0.4216663, -0.1189122, -0.29640335, 0.84864753, 24.542595, 15.465737, -11.521029, 0
1578, 2167921812, -0.43946317, -0.17318629, -0.29451, 0.8307482, 26.42429, 14.764301, -16.56226, 0
1579, 2167938479, -0.44271556, -0.17787398, -0.29977, 0.82613677, 58.876194, 35.103832, 44.518734, 0
1580, 2167955146, -0.42825294, -0.1717402, -0.31224334, 0.830427, -8.421648, -3.743153, -3.8430166, 0
1582, 2167988480, -0.42645618, -0.1825719, -0.31610876, 0.82757354, -0.47542748, 0.4782016, -0.5688381, 0
1584, 2168021814, -0.43754023, -0.20475514, -0.32236674, 0.81407225, 1.2059265, -2.9122877, 0.5933857, 0
1586, 2168055148, -0.4396094, -0.24606635, -0.34016216, 0.79403055, -2.5435429, -0.29303584, 0.96279526, 0
1589, 2168105149, -0.43999422, -0.3847733, -0.37635434, 0.71882695, -5.2977343, -5.0056844, 2.6572828, 0
1590, 2168121816, -0.4375121, -0.4581844, -0.39022923, 0.66811043, -9.423965, -9.022372, 10.313005, 0
1591, 2168138483, -0.43455806, -0.531586, -0.41407967, 0.59758985, -11.329128, -12.496387, 19.929266, 0
1593, 2168171817, -0.44771096, -0.61474514, -0.47017863, 0.4478565, -36.600185, -20.976791, 30.021053, 0
1594, 2168188484, -0.44459438, -0.638976, -0.47521502, 0.41014183, -37.64204, -4.9144936, 33.871155, 0
1595, 2168205151, -0.42524981, -0.6594754, -0.45189926, 0.42431375, -13.1305895, 0.19758068, 5.000023, 0
1597, 2168238485, -0.42190439, -0.70387584, -0.42706773, 0.37969536, -20.249609, -4.4621577, 1.4132032, 0
1598, 2168255152, -0.41934714, -0.7186352, -0.42518747, 0.3562684, -30.245123, -5.7328053, -2.7293844, 0
1601, 2168305153, -0.3856297, -0.7464549, -0.43601695, 0.32246596, -14.4368105, -10.5590105, -12.420315, 0
1603, 2168338487, -0.37546787, -0.74786663, -0.44920075, 0.31295103, -10.554088, -8.424385, -14.725086, 0
1605, 2168371821, -0.37812504, -0.7389287, -0.45365053, 0.32435653, -4.997989, -7.4797826, -15.366826, 0
1606, 2168388488, -0.3869131, -0.72857344, -0.4534482, 0.33743727, -5.492733, -6.844505, -14.523424, 0
1607, 2168405155, -0.3976103, -0.71483994, -0.45027468, 0.3579982, -6.093072, -5.7140017, -13.55375, 0
1609, 2168438489, -0.4240586, -0.67465764, -0.43834484, 0.41577083, -3.0199451, -7.598516, -10.072968, 0
1610, 2168455156, -0.44302008, -0.6452855, -0.43263608, 0.4473992, -0.08246656, -4.3112855, -9.785005, 0
1611, 2168471823, -0.46308166, -0.6133369, -0.42727497, 0.4762451, -0.107321866, -2.788204, -8.357154, 0
1613, 2168505157, -0.49425778, -0.5432908, -0.42451584, 0.5294627, -1.967657, -1.8948002, -5.4957767, 0
1614, 2168521824, -0.5007387, -0.5075812, -0.42787638, 0.55546725, -2.5437438, -1.7978177, -2.668652, 0
1616, 2168555158, -0.4903045, -0.4384294, -0.43593103, 0.61428446, -3.1764672, -2.0284986, 6.290474, 0
1618, 2168588492, -0.45991018, -0.36601686, -0.43985373, 0.67900157, 4.9599853, -1.0045801, 7.8254623, 0
1620, 2168621826, -0.43118817, -0.30201507, -0.4240011, 0.7369441, 7.1487823, 1.566107, 8.226574, 0
1621, 2168638493, -0.4197042, -0.27454507, -0.4110334, 0.7612654, 6.979689, 3.174505, 6.9058495, 0
1622, 2168655160, -0.40906966, -0.25052288, -0.39693964, 0.78252125, 6.801029, 4.211818, 6.2148876, 0
1624, 2168688494, -0.3909527, -0.2119753, -0.3673569, 0.8168668, 7.0571394, 4.846963, 5.3205023, 0
1625, 2168705161, -0.38416433, -0.19314396, -0.35428995, 0.83041656, 6.822601, 4.614135, 5.693342, 0
1626, 2168721828, -0.3781771, -0.17283899, -0.3422619, 0.8425946, 6.234749, 5.893425, 3.7757483, 0
1628, 2168755162, -0.36660972, -0.1383993, -0.3205422, 0.862378, 5.399451, 6.451838, -0.903409, 0
1630, 2168788496, -0.35599157, -0.11751243, -0.29848275, 0.87770665, 7.096531, 6.657143, 0.9079275, 0
1633, 2168838497, -0.34429267, -0.07957579, -0.27615997, 0.89379305, 7.6680374, 6.450428, -0.5413084, 0
1634, 2168855164, -0.3402626, -0.066416174, -0.27237505, 0.89756435, 8.296031, 7.2034273, -1.7286358, 0
1636, 2168888498, -0.33094636, -0.047881708, -0.2666988, 0.9039101, 9.983339, 5.738153, -4.2796926, 0
1637, 2168905165, -0.32779863, -0.04301836, -0.26340103, 0.90626556, 11.705205, 5.6086545, -4.178278, 0
1638, 2168921832, -0.32704097, -0.03953159, -0.25990915, 0.9077052, 13.245042, 5.2334647, -4.495983, 0
1640, 2168955166, -0.33258268, -0.04073291, -0.25504935, 0.9070167, 13.091244, 5.449479, -6.9355073, 0
1641, 2168971833, -0.33935943, -0.045601424, -0.25358585, 0.90468216, 14.479397, 5.633534, -6.589131, 0
1643, 2169005167, -0.36235774, -0.060223848, -0.2574668, 0.89374536, 16.236761, 9.56683, -8.326086, 0
1644, 2169021834, -0.3761429, -0.076416336, -0.26081046, 0.88580745, 17.350416, 14.247612, -11.569544, 0
1648, 2169088502, -0.39489836, -0.14033772, -0.2868503, 0.8614393, -25.296041, 14.397515, -11.093494, 0
1649, 2169105169, -0.39544457, -0.14588627, -0.2862054, 0.8604808, 1.4726422, -5.421624, 4.063979, 0
1651, 2169138503, -0.39583948, -0.16005786, -0.29436338, 0.8550104, -1.7318727, -0.62434715, -0.045682907, 0
1652, 2169155170, -0.39859006, -0.1694828, -0.3013043, 0.8494805, 0.089554936, -0.42270043, -0.35512924, 0
1653, 2169171837, -0.40083247, -0.17766824, -0.3075469, 0.8445012, 2.625587, 1.038148, 0.5750494, 0
1656, 2169221838, -0.397076, -0.2374409, -0.34119186, 0.81825453, -5.5436215, -3.238699, 1.997057, 0
1657, 2169238505, -0.39327016, -0.29151267, -0.36226538, 0.7931726, -6.927943, -3.7912807, 1.5476456, 0
1659, 2169271839, -0.39896017, -0.46246713, -0.3857508, 0.6914848, -15.075997, -9.910009, 13.975061, 0
1660, 2169288506, -0.4003597, -0.54558176, -0.40686592, 0.61360633, -27.97451, -18.085577, 32.898167, 0
1663, 2169338507, -0.35900235, -0.6738838, -0.4052615, 0.50275326, -36.197014, -15.219598, 5.052478, 0
1665, 2169371841, -0.3597053, -0.70209455, -0.41007844, 0.45772353, -41.375973, -22.980991, -7.9025908, 0
1667, 2169405175, -0.36873555, -0.6951512, -0.40014923, 0.46976516, -24.442154, -11.753293, -21.151295, 0
1668, 2169421842, -0.3763285, -0.6778976, -0.39798063, 0.49035007, -20.95446, -7.548038, -18.75121, 0
1670, 2169455176, -0.38411623, -0.62758744, -0.38946462, 0.553991, -8.962932, 0.48814672, -15.4086485, 0
1671, 2169471843, -0.38551474, -0.59553576, -0.38960317, 0.5873029, -10.006048, 4.546462, -10.593873, 0
1672, 2169488510, -0.37642726, -0.56297606, -0.3891884, 0.62441397, -11.634858, 10.536335, -6.0240307, 0
1674, 2169521844, -0.3421348, -0.48496076, -0.4134712, 0.690506, 4.2321672, 3.5867677, 0.75193214, 0
1675, 2169538511, -0.32720447, -0.442995, -0.4259171, 0.71783507, 9.5120945, 6.1205735, 3.0129442, 0
1678, 2169588512, -0.31320718, -0.33884284, -0.43857044, 0.7711956, 21.346502, 7.5531135, 0.30796242, 0
1679, 2169605179, -0.3149106, -0.31094354, -0.4456809, 0.77814776, 21.11087, 5.427312, -0.07688999, 0
1682, 2169655180, -0.3494006, -0.25183067, -0.4517024, 0.7813229, 48.708965, -17.464598, -5.176086, 0
1683, 2169671847, -0.3909092, -0.24377505, -0.42659757, 0.7783177, 8.076955, 9.9303875, 4.005906, 0
1684, 2169688514, -0.41179132, -0.23516801, -0.41267005, 0.7777064, 5.970531, 11.417996, 3.7022095, 0
1686, 2169721848, -0.4203027, -0.20632431, -0.42466074, 0.7748801, 4.329456, -0.7668746, 1.3798294, 0
1687, 2169738515, -0.4206821, -0.18928966, -0.43172, 0.77512187, -3.5147767, -2.845327, -1.4202213, 0
1688, 2169755182, -0.4187398, -0.17498541, -0.4350051, 0.7776939, -5.580844, -0.85049915, -1.0216541, 0
1690, 2169788516, -0.4107862, -0.15410908, -0.43487528, 0.7863768, 1.6178467, 1.3734432, 3.8643732, 0
1692, 2169821850, -0.405012, -0.12647983, -0.42861325, 0.7976583, 2.7657573, 1.4993149, 2.0528612, 0
1694, 2169855184, -0.4019308, -0.08967268, -0.4254483, 0.80585635, 1.2030153, 0.7928907, -1.8647127, 0
1695, 2169871851, -0.3995691, -0.07241076, -0.42355543, 0.80975443, 0.4773651, 0.6569012, -0.7626772, 0
1697, 2169905185, -0.4125955, -0.04245091, -0.39074296, 0.82175595, -2.3736463, 3.893163, 1.7188673, 0
1698, 2169921852, -0.4242867, -0.034925982, -0.3691954, 0.82610863, -3.02037, 0.5463528, -1.5610657, 0
1699, 2169938519, -0.42884403, -0.032959443, -0.35771757, 0.82888144, -2.1218047, 2.2940874, -5.204616, 0
1701, 2169971853, -0.42404515, -0.028594283, -0.34994, 0.83481133, -0.90244395, -0.49070588, -0.8015013, 0
1702, 2169988520, -0.42191672, -0.02896405, -0.34527066, 0.8378158, 6.4333496, -7.917423, -2.215065, 0
1703, 2170005187, -0.4201175, -0.029048143, -0.344582, 0.83899975, -1.1840706, 0.6729264, -3.85075, 0
1705, 2170038521, -0.41510403, -0.033095792, -0.34656104, 0.8405288, 2.035059, 0.9228927, 3.3204784, 0
1707, 2170071855, -0.4137084, -0.03557385, -0.34480757, 0.8418359, 0.049094956, 0.9255319, 1.3088846, 0
1709, 2170105189, -0.40737277, -0.03779051, -0.34330496, 0.8454354, 0.87665075, 1.1911764, 1.3124208, 0
1711, 2170138523, -0.3988961, -0.041278087, -0.3384912, 0.85123545, -1.6498955, -0.7798482, -1.4593124, 0
1713, 2170171857, -0.37441, -0.054105647, -0.33366862, 0.86345524, -3.1119108, 1.5593115, -0.8858204, 0
1714, 2170188524, -0.35482535, -0.062064685, -0.33162293, 0.8719365, -3.024702, 0.65270543, -1.8374271, 0
1715, 2170205191, -0.33564904, -0.07214054, -0.32799068, 0.88008964, -0.55926585, -4.561682, -2.6753683, 0
1717, 2170238525, -0.33047217, -0.08650573, -0.31652987, 0.88493705, -2.8070545, -9.601041, -1.4710417, 0
1718, 2170255192, -0.334737, -0.09419921, -0.31138423, 0.88437396, -0.90488833, -4.114259, 0.32733727, 0
1719, 2170271859, -0.3395005, -0.1009467, -0.3071537, 0.8832926, -4.506512, -4.4210277, 0.6287546, 0
1722, 2170321860, -0.3481625, -0.11113581, -0.30275878, 0.8802094, -1.7339982, 0.13924606, 2.4084196, 0
1724, 2170355194, -0.3488004, -0.10129072, -0.2967578, 0.8831836, 2.0866017, 2.8545697, -1.6742363, 0
1725, 2170371861, -0.347338, -0.09364359, -0.29135588, 0.8863965, 0.5773297, 0.80272824, 4.770383, 0
1728, 2170421862, -0.35017845, -0.08944511, -0.29200563, 0.8854982, 6.400115, -1.7341117, -2.7707038, 0
1729, 2170438529, -0.35112762, -0.087786555, -0.2923681, 0.88516885, 4.961843, 0.054340415, 1.4192543, 0
1730, 2170455196, -0.3524949, -0.08670878, -0.29345185, 0.8843728, 3.3733737, 1.2560289, 0.43604565, 0
1732, 2170488530, -0.3574312, -0.08571086, -0.2935103, 0.8824671, 4.810562, 2.4607985, -0.17861843, 0
1733, 2170505197, -0.36075133, -0.08554336, -0.29129776, 0.88186526, 4.158749, 2.2905602, 0.29974365, 0
1734, 2170521864, -0.364185, -0.08524675, -0.28851786, 0.88139653, 2.6998038, 1.1493341, -0.48962688, 0
1737, 2170571865, -0.37508172, -0.08542685, -0.2761635, 0.88076645, 0.67755485, 1.8123735, -0.8418026, 0
1738, 2170588532, -0.37752634, -0.08541162, -0.27200052, 0.8810189, 1.6552098, 1.2850808, -0.98803806, 0
1740, 2170621866, -0.38044113, -0.08594418, -0.2642148, 0.8820821, 1.5236715, 1.6663983, -0.7581129, 0
1741, 2170638533, -0.3807477, -0.08633446, -0.26139838, 0.8827505, 1.6039585, 2.3103893, 0.6685972, 0
1744, 2170688534, -0.37860566, -0.0868621, -0.2587326, 0.884404, 0.20729475, 0.6174026, 0.917819, 0
1745, 2170705201, -0.37715408, -0.08700953, -0.25850502, 0.885076, -0.77090716, 0.48076093, -0.05483055, 0
1748, 2170755202, -0.37006414, -0.08739504, -0.26039872, 0.88747245, -0.58985245, 0.82186764, -0.8086424, 0
1749, 2170771869, -0.3672345, -0.087978415, -0.2613854, 0.88829976, 0.85121715, 1.8550568, -0.26052952, 0
1752, 2170821870, -0.35840958, -0.08967438, -0.2621555, 0.89150184, -0.3374232, 0.65391445, 0.24237919, 0
1753, 2170838537, -0.355831, -0.09016306, -0.26242614, 0.8924055, -0.3954679, -0.3018405, -0.5118942, 0
1755, 2170871871, -0.35131654, -0.09129236, -0.2627002, 0.89399725, -0.13308106, -0.1613443, 0.12323475, 0
1756, 2170888538, -0.34927526, -0.09163103, -0.2631279, 0.89463645, -0.51977366, -0.43388295, -0.37119484, 0
1757, 2170905205, -0.34751403, -0.092068754, -0.26369438, 0.8951105, 0.1331802, -0.25731364, -0.7450352, 0
1759, 2170938539, -0.34431475, -0.09154209, -0.26331142, 0.89651245, -1.1171389, -0.40747592, 0.33253288, 0
1761, 2170971873, -0.34274137, -0.09185597, -0.26219186, 0.89741087, 0.093089625, -0.3634015, -0.38266468, 0
1763, 2171005207, -0.34142494, -0.09138381, -0.2610577, 0.8982911, 1.8990465, -0.44715017, 1.0334435, 0
1764, 2171021874, -0.341237, -0.09131186, -0.26106417, 0.89836794, 0.295443, -0.7860278, -0.99265575, 0
1767, 2171071875, -0.34107718, -0.090382725, -0.2627021, 0.89804506, -1.8728327, -1.7452307, -1.0647974, 0
1768, 2171088542, -0.34113687, -0.089422934, -0.26341528, 0.8979096, -0.8437189, -0.79664373, 0.57958126, 0
1769, 2171105209, -0.34139735, -0.08920761, -0.2635773, 0.8977846, -0.2085244, 0.44347733, 1.237709, 0
1771, 2171138543, -0.34310886, -0.09262658, -0.26128736, 0.897455, -2.2189913, -0.95979613, -1.0800648, 0
1772, 2171155210, -0.34438547, -0.09549266, -0.25990018, 0.8970683, -3.7720606, -2.113624, -1.3866463, 0
1773, 2171171877, -0.34565148, -0.09812568, -0.2586743, 0.8966515, -3.9864666, -2.3347569, -0.79697704, 0
1775, 2171205211, -0.34655592, -0.10166464, -0.2589964, 0.89581484, -4.215268, -2.3153777, 0.5973482, 0
1776, 2171221878, -0.34682706, -0.103975765, -0.2606014, 0.89497876, -4.146561, -3.2716188, 1.9591923, 0
1778, 2171255212, -0.34984538, -0.113153905, -0.26565635, 0.8911966, -4.753452, -0.7382624, -0.053803444, 0
1779, 2171271879, -0.35203445, -0.11731993, -0.26747745, 0.88924897, -3.6893537, -1.1728042, 0.1474495, 0
1782, 2171321880, -0.36078766, -0.13063055, -0.26805562, 0.8836935, -4.0205936, -2.0523555, 2.1514692, 0
1783, 2171338547, -0.36160243, -0.13914303, -0.26950416, 0.88161814, -4.5429473, -2.4656734, 0.6292038, 0
1784, 2171355214, -0.3618953, -0.14925857, -0.27199003, 0.8790765, -3.7902737, -1.960256, 3.45329, 0
1786, 2171388548, -0.3588926, -0.16645811, -0.2808599, 0.8744173, -5.9065833, -3.3156395, -3.6496706, 0
1787, 2171405215, -0.3558093, -0.17218523, -0.28301704, 0.87387264, -5.276389, -2.9064932, -3.0953903, 0
1788, 2171421882, -0.35195953, -0.1709998, -0.2827558, 0.8757469, -1.8566877, -2.6559637, -0.80505276, 0
1791, 2171471883, -0.34375566, -0.12687796, -0.26591393, 0.89164114, -0.8360585, 3.5664723, 0.73706627, 0
1792, 2171488550, -0.3362385, -0.10497903, -0.2543034, 0.9006959, -3.1690724, 0.766117, -7.301267, 0
1794, 2171521884, -0.33170995, -0.10234426, -0.25111842, 0.9035673, 8.021558, 0.12803096, 9.564579, 0
1796, 2171555218, -0.32485104, -0.10354291, -0.2571755, 0.9042188, 5.800669, 4.312203, -6.5488844, 0
1798, 2171588552, -0.3162161, -0.101517305, -0.2625972, 0.90594953, 6.4938574, 7.635839, 5.8074303, 0
1799, 2171605219, -0.3127858, -0.10246888, -0.26652887, 0.9058851, 10.046332, 5.7433934, 0.98241234, 0
1800, 2171621886, -0.30995286, -0.103254154, -0.269486, 0.90589494, 8.710097, 2.0669932, -2.3918252, 0
1802, 2171655220, -0.30509466, -0.10372399, -0.27231187, 0.906645, 1.970643, 1.0963346, -0.9957104, 0
1803, 2171671887, -0.30341476, -0.104447834, -0.2730241, 0.9069114, 6.204845, 1.8993313, 0.32941723, 0
1805, 2171705221, -0.3041182, -0.1063029, -0.26892328, 0.90768516, 6.16048, 0.7266003, 0.49921417, 0
1807, 2171738555, -0.30736583, -0.10829258, -0.26261142, 0.9082041, 2.6015608, -1.591596, -2.2158222, 0
1809, 2171771889, -0.3115145, -0.10807688, -0.25894204, 0.90786964, 2.8351095, 0.0376426, 0.8267355, 0
1811, 2171805223, -0.31509253, -0.10764906, -0.2585259, 0.9068036, 1.7990336, -0.53023565, -0.13136292, 0
1813, 2171838557, -0.31817615, -0.10657873, -0.25883, 0.9057661, 0.56248105, 0.64548844, 0.69170666, 0
