sep=,
DeviceTag:,Xsens_DOT_3,,,,,,,,,,,,,,,,,
FirmwareVersion:,3.0.0,,,,,,,,,,,,,,,,,
AppVersion:,2023.6.1,,,,,,,,,,,,,,,,,
SyncStatus:,Synced,,,,,,,,,,,,,,,,,
OutputRate:,60Hz,,,,,,,,,,,,,,,,,
FilterProfile:,General,,,,,,,,,,,,,,,,,
Measurement Mode:,Sensor fusion Mode - Extended (Quaternion),,,,,,,,,,,,,,,,,
StartTime:,2025-05-05 11:42:28.606 +0200,,,,,,,,,,,,,,,,,
 2025,,,,,,,,,,,,,,,,,,,

PacketCounter,SampleTimeFine,Quat_W,Quat_X,Quat_Y,Quat_Z,FreeAcc_X,FreeAcc_Y,FreeAcc_Z,Status
1, 2141604619, -0.6289584, -0.14980276, 0.7374039, -0.19547088, -0.12371665, -0.007955049, -0.011432648, 0
2, 2141621286, -0.6288826, -0.14993435, 0.7374386, -0.19548324, -0.062143754, 0.037979655, -0.005004883, 0
3, 2141637953, -0.62878543, -0.1501073, 0.73746437, -0.19556604, -0.05437087, 0.034735423, -0.019042969, 0
4, 2141654620, -0.6287431, -0.15023933, 0.73744863, -0.19566002, -0.026024954, 0.041143037, -0.0024900436, 0
5, 2141671287, -0.62875646, -0.15042138, 0.73735696, -0.19582239, -0.027489858, 0.016378637, 0.014636993, 0
6, 2141687954, -0.62876546, -0.1506372, 0.7372576, -0.19600199, -0.05361137, -0.03389881, 0.032360077, 0
7, 2141704621, -0.6287519, -0.1510309, 0.73710155, -0.19632888, -0.06769671, 0.009985385, 0.051623344, 0
8, 2141721288, -0.62877566, -0.15145448, 0.7368955, -0.19669957, -0.06521795, 0.067614906, 0.08650684, 0
9, 2141737955, -0.6286161, -0.15210971, 0.73675996, -0.19721131, -0.13651456, -0.044819824, 0.061325073, 0
10, 2141754622, -0.6282476, -0.15290788, 0.7367654, -0.19774729, -0.18795204, -0.114586376, 0.042407036, 0
11, 2141771289, -0.6278591, -0.15371224, 0.73679084, -0.19826156, -0.1649311, -0.0792159, 0.030104637, 0
12, 2141787956, -0.6275781, -0.1545687, 0.7366892, -0.19886266, -0.10881549, 0.014421224, 0.044976234, 0
13, 2141804623, -0.6274192, -0.15531375, 0.7365402, -0.19933519, -0.13518243, 0.08895028, 0.060134888, 0
14, 2141821290, -0.6272823, -0.15598164, 0.7364217, -0.1996815, -0.13793655, 0.14759342, 0.067492485, 0
15, 2141837957, -0.6271643, -0.15669471, 0.73625857, -0.20009531, -0.092840366, 0.23359312, 0.035975456, 0
16, 2141854624, -0.6272023, -0.15711382, 0.7360595, -0.20037955, -0.06057067, 0.2692604, 0.03713417, 0
17, 2141871291, -0.6273846, -0.1572659, 0.7358233, -0.2005573, -0.06624924, 0.25895232, 0.048770905, 0
18, 2141887958, -0.62752384, -0.15734355, 0.73564893, -0.20069958, -0.076585375, 0.17465542, 0.067243576, 0
19, 2141904625, -0.62768376, -0.15725711, 0.73552215, -0.20073268, -0.007021436, 0.17553987, 0.07205868, 0
20, 2141921292, -0.62788874, -0.15703022, 0.7354078, -0.20068824, 0.021481384, 0.17957886, 0.058009148, 0
21, 2141937959, -0.6281042, -0.15688162, 0.7352393, -0.20074789, 0.015739782, 0.13690352, 0.031985283, 0
22, 2141954626, -0.6283813, -0.15658987, 0.73510563, -0.2005975, 0.016327174, 0.07159662, 0.051650047, 0
23, 2141971293, -0.62868285, -0.15623495, 0.73500276, -0.2003065, 0.02229944, 0.08469806, 0.04079628, 0
24, 2141987960, -0.62906545, -0.1559381, 0.734797, -0.20009151, 0.065552324, 0.122799024, 0.038666725, 0
25, 2142004627, -0.62939525, -0.15587537, 0.7345363, -0.20005997, 0.07201677, 0.08084022, 0.040171623, 0
26, 2142021294, -0.6297343, -0.15584391, 0.73427063, -0.19999263, 0.09223933, 0.042573743, 0.019628525, 0
27, 2142037961, -0.63010216, -0.15627684, 0.73382, -0.20015085, 0.032014653, -0.03630247, 0.00667572, 0
28, 2142054628, -0.63064533, -0.15731558, 0.73300165, -0.20062418, 0.18649921, 0.09265098, -0.054156303, 0
29, 2142071295, -0.63151616, -0.15782079, 0.7320151, -0.20108947, 0.23142084, 0.2660602, -0.085422516, 0
30, 2142087962, -0.63242537, -0.15767981, 0.7312509, -0.20112331, 0.13715783, 0.22588918, 0.006688118, 0
31, 2142104629, -0.6331061, -0.15745145, 0.7307888, -0.20083994, 0.019695673, 0.1719497, 0.10236454, 0
32, 2142121296, -0.6335482, -0.1572127, 0.73055375, -0.20048743, 0.03398604, 0.15854043, 0.07170105, 0
33, 2142137963, -0.6339289, -0.15679125, 0.7304193, -0.20010354, 0.050706595, 0.1191599, 0.04425621, 0
34, 2142154630, -0.634306, -0.15619051, 0.7303191, -0.19974343, 0.081868775, 0.0889167, 0.100688934, 0
35, 2142171297, -0.63466877, -0.1556399, 0.7301701, -0.1995661, 0.08180351, 0.09050425, 0.12555122, 0
36, 2142187964, -0.63515526, -0.1548216, 0.73000574, -0.19925535, 0.093062304, 0.07551095, 0.049886703, 0
37, 2142204631, -0.635697, -0.15402767, 0.72976726, -0.1990161, 0.16732672, -0.0037106504, 0.018392563, 0
38, 2142221298, -0.6361874, -0.15334186, 0.72955024, -0.19877473, 0.16478045, -0.07102661, 0.02385521, 0
39, 2142237965, -0.6365944, -0.15275757, 0.72939086, -0.19850588, 0.14899775, -0.07078773, 0.038908005, 0
41, 2142271299, -0.6370941, -0.1520304, 0.72924227, -0.19800699, -0.0651728, -0.01472291, 0.07779503, 0
42, 2142287966, -0.6371868, -0.151764, 0.7293161, -0.19764051, -0.123604454, 0.074527934, 0.013147354, 0
43, 2142304633, -0.6372424, -0.15148786, 0.7294259, -0.19726788, -0.05143927, 0.0027222203, -0.06331062, 0
45, 2142337967, -0.6369529, -0.15131979, 0.729847, -0.19677314, -0.17202586, -0.05286361, -0.09196472, 0
46, 2142354634, -0.63663036, -0.15134574, 0.7301495, -0.19667482, -0.14595976, -0.050061483, -0.044719696, 0
47, 2142371301, -0.6362616, -0.1516273, 0.7303824, -0.19678731, -0.13649891, -0.09981837, 0.03909588, 0
49, 2142404635, -0.63558614, -0.15268081, 0.7307103, -0.19693716, -0.16226639, -0.047141116, 0.05623722, 0
50, 2142421302, -0.6351576, -0.15351778, 0.73087597, -0.19705507, -0.2713255, -0.06275439, 0.010379791, 0
54, 2142487970, -0.6336903, -0.15692052, 0.7311342, -0.19813743, -0.14211088, -0.08389833, 0.12548828, 0
55, 2142504637, -0.6333437, -0.15781727, 0.73114514, -0.19849229, -0.20047368, -0.066825174, 0.10451317, 0
57, 2142537971, -0.6323899, -0.15965936, 0.73139936, -0.1991231, -0.22031404, 0.044242714, -0.036654472, 0
58, 2142554638, -0.6319687, -0.16060275, 0.73148805, -0.19937548, -0.27211183, 0.0753199, -0.05110264, 0
59, 2142571305, -0.6316248, -0.16136263, 0.73157275, -0.19954064, -0.27871796, 0.07887677, -0.080186844, 0
61, 2142604639, -0.63126373, -0.16242746, 0.7315656, -0.19984564, -0.12733309, -0.04537503, 0.06594372, 0
63, 2142637973, -0.63094693, -0.1640388, 0.73125434, -0.20066746, -0.022097385, -0.07247799, 0.13908577, 0
65, 2142671307, -0.6310071, -0.16559677, 0.73048997, -0.20197845, 0.024548428, 0.07195407, 0.10973835, 0
66, 2142687974, -0.6312222, -0.166266, 0.7299478, -0.20271541, 0.07089697, 0.105966434, 0.09408665, 0
68, 2142721308, -0.63165236, -0.16752659, 0.7289026, -0.20409387, 0.040486243, 0.13597003, 0.14709091, 0
70, 2142754642, -0.632292, -0.16826992, 0.72794116, -0.2049315, 0.031289577, 0.20879056, 0.1661005, 0
72, 2142787976, -0.6334373, -0.16835126, 0.7269223, -0.2049442, -0.011079984, 0.25936058, -0.0272789, 0
73, 2142804643, -0.6341981, -0.1680451, 0.7263675, -0.20481, -0.0023482272, 0.36022192, -0.10734463, 0
74, 2142821310, -0.6351075, -0.16751176, 0.72577125, -0.20454183, -0.016759448, 0.3307648, -0.03429222, 0
76, 2142854644, -0.63685477, -0.16572759, 0.72504604, -0.2031299, -0.1477434, 0.25736824, 0.03699112, 0
78, 2142887978, -0.6381879, -0.16278073, 0.72521967, -0.20069414, -0.1817214, 0.29844818, -0.028686523, 0
81, 2142937979, -0.6393876, -0.15783857, 0.72658026, -0.19584343, -0.009820123, 0.037435837, -0.020198822, 0
82, 2142954646, -0.6398968, -0.1562757, 0.72690344, -0.19422789, 0.12496207, 0.13282979, 0.08388901, 0
84, 2142987980, -0.64099145, -0.1535002, 0.72726196, -0.19146974, 0.22662202, 0.074842304, 0.18306065, 0
88, 2143054648, -0.6415805, -0.1511374, 0.7276537, -0.18988213, 0.23560098, 0.21534552, -0.026804924, 0
89, 2143071315, -0.6419144, -0.15126947, 0.72721076, -0.19034466, 0.2061688, 0.06665307, 0.055784225, 0
95, 2143171317, -0.6432479, -0.15725344, 0.7234515, -0.19525498, -0.17056541, -0.039675448, 0.030984879, 0
104, 2143321320, -0.6448499, -0.16427362, 0.7199806, -0.19701216, -0.26317847, 0.11686107, 0.18889236, 0
105, 2143337987, -0.64490175, -0.16465616, 0.71995246, -0.19662595, -0.30521232, 0.06816016, 0.07969284, 0
107, 2143371321, -0.6447046, -0.1651925, 0.7202614, -0.19568855, -0.32781035, 0.023439078, -0.16573524, 0
108, 2143387988, -0.6447388, -0.16517895, 0.72039795, -0.19508404, -0.22588621, 0.07743735, -0.18836784, 0
109, 2143404655, -0.6449069, -0.16501243, 0.72045296, -0.19446489, -0.08422817, -0.03126091, -0.0477314, 0
111, 2143437989, -0.6455364, -0.16497341, 0.7203004, -0.19296874, 0.016383499, -0.17879461, 0.04149437, 0
112, 2143454656, -0.6461365, -0.16535975, 0.71982473, -0.19240351, -0.011307521, -0.13949622, -0.017932892, 0
115, 2143504657, -0.6479169, -0.16689728, 0.71787786, -0.19236316, 0.19801639, -0.14872496, 0.3248825, 0
116, 2143521324, -0.6482833, -0.16794872, 0.7171512, -0.19292238, 0.17042103, -0.21658792, 0.27341557, 0
118, 2143554658, -0.64870393, -0.17035119, 0.7156512, -0.19496216, 0.0975196, 0.042329665, -0.06615162, 0
119, 2143571325, -0.64893776, -0.17158009, 0.7148172, -0.19616196, -0.10588345, 0.114251666, -0.22706604, 0
120, 2143587992, -0.64883953, -0.17289215, 0.71433926, -0.1970739, -0.26085526, 0.22643572, -0.451787, 0
122, 2143621326, -0.6489158, -0.17458254, 0.71346354, -0.19849965, -0.15615867, 0.16235104, -0.044275284, 0
123, 2143637993, -0.6489539, -0.17525402, 0.71312237, -0.19900827, -0.26182577, 0.11331107, 0.18940544, 0
124, 2143654660, -0.6488102, -0.17578936, 0.7130914, -0.19911653, -0.277186, 0.29494306, 0.25662422, 0
126, 2143687994, -0.648751, -0.17625669, 0.71318245, -0.19856858, 0.00986318, -0.031194754, 0.18868828, 0
127, 2143704661, -0.64875823, -0.17624503, 0.713326, -0.19803995, -0.089716315, 0.050004374, 0.12337971, 0
130, 2143754662, -0.64835733, -0.17665792, 0.7140301, -0.19644095, 0.06926116, -0.095522754, -0.021072388, 0
131, 2143771329, -0.6486206, -0.17667595, 0.71378684, -0.19643876, 0.07854961, -0.17167293, -0.08215046, 0
132, 2143787996, -0.6490601, -0.17680375, 0.7132662, -0.19676338, 0.08049998, -0.020062244, -0.032744408, 0
134, 2143821330, -0.6494102, -0.17709605, 0.71271455, -0.19734366, 0.09817449, 0.41251048, -0.30848885, 0
135, 2143837997, -0.6495284, -0.17706306, 0.7125479, -0.19758615, 0.02354128, 0.35647032, -0.17708492, 0
136, 2143854664, -0.64959085, -0.17692707, 0.71247315, -0.19777183, 0.014394681, 0.19790687, -0.029455185, 0
138, 2143887998, -0.6497679, -0.17652015, 0.712445, -0.19765535, 0.03250996, 0.093473285, 0.39198303, 0
139, 2143904665, -0.6498132, -0.17634793, 0.7125162, -0.19740298, 0.13363482, -0.03918467, 0.36780643, 0
140, 2143921332, -0.6500378, -0.17608675, 0.7124439, -0.1971575, 0.1055683, -0.06291057, 0.25489998, 0
142, 2143954666, -0.65066224, -0.17571366, 0.7120346, -0.19690931, -0.108912945, 0.09685129, -0.035414696, 0
144, 2143988000, -0.6512935, -0.17515698, 0.7116441, -0.19672984, -0.0553579, 0.36889932, -0.17440224, 0
146, 2144021334, -0.6521103, -0.17418739, 0.7111312, -0.19673955, -0.07288758, 0.22699092, 0.005227089, 0
147, 2144038001, -0.65246546, -0.1736838, 0.71098256, -0.19654429, -0.13672763, 0.19068137, 0.033981323, 0
149, 2144071335, -0.6533482, -0.17256768, 0.71062016, -0.19590439, -0.0017156855, 0.14023001, 0.08847427, 0
150, 2144088002, -0.65372, -0.1720622, 0.71048886, -0.19558503, -0.05178661, 0.07401218, 0.12763786, 0
151, 2144104669, -0.6539359, -0.17175178, 0.71043307, -0.19533844, -0.12996563, 0.053988382, 0.04642868, 0
153, 2144138003, -0.65443367, -0.17138246, 0.71013355, -0.1950848, -0.059905495, -0.084989294, -0.011621475, 0
154, 2144154670, -0.6548074, -0.17137933, 0.7097773, -0.19513021, -0.06535787, -0.0851158, -0.038179398, 0
155, 2144171337, -0.6552926, -0.17150709, 0.70925194, -0.19529904, 0.0046879607, -0.005848831, -0.042377472, 0
157, 2144204671, -0.6562992, -0.17215309, 0.7080312, -0.19577965, 0.11963754, 0.09530922, 0.024849892, 0
158, 2144221338, -0.656684, -0.17256945, 0.70750475, -0.19602579, 0.09737029, 0.024478301, 0.045618057, 0
159, 2144238005, -0.6569422, -0.17323835, 0.7070393, -0.19624965, 0.15033482, -0.013350094, -0.036442757, 0
161, 2144271339, -0.6569903, -0.17498009, 0.70635116, -0.19701946, 0.035073653, -0.08255228, -0.18986034, 0
162, 2144288006, -0.65687406, -0.17594069, 0.70606065, -0.19759256, -0.04232486, -0.09257856, -0.14802933, 0
163, 2144304673, -0.65663004, -0.1769463, 0.70583194, -0.19832091, -0.07335299, -0.08516931, 0.0010957718, 0
165, 2144338007, -0.6559864, -0.17891109, 0.705419, -0.20014946, -0.10821737, -0.051182624, 0.12792492, 0
166, 2144354674, -0.65576965, -0.17971717, 0.70517236, -0.2010046, -0.0672631, -0.01747877, 0.19304848, 0
167, 2144371341, -0.65565974, -0.18036875, 0.70494056, -0.2015916, -0.11947572, 6.753444E-4, 0.18649006, 0
169, 2144404675, -0.6555486, -0.18118002, 0.7047615, -0.20185186, -0.39405915, 0.22799127, -0.023221016, 0
172, 2144454676, -0.6557409, -0.18076813, 0.7048113, -0.20142171, -0.19652332, 0.24566667, 0.070658684, 0
173, 2144471343, -0.65583736, -0.18051027, 0.70488393, -0.20108484, -0.21233866, 0.15349573, 0.13025665, 0
174, 2144488010, -0.65605986, -0.18017244, 0.70486176, -0.20073979, -0.14438803, 0.090010345, 0.19910526, 0
176, 2144521344, -0.6559775, -0.17928314, 0.70540833, -0.19988298, -0.22708559, 0.06995436, -0.10452652, 0
177, 2144538011, -0.6558349, -0.17879306, 0.7057862, -0.19945528, -0.2836594, 0.16401175, -0.283679, 0
178, 2144554678, -0.65573794, -0.17819427, 0.70615786, -0.19899443, -0.34054613, 0.108444855, -0.27421665, 0
180, 2144588012, -0.6552273, -0.1772551, 0.7070419, -0.19837475, -0.20234174, -0.22886911, 0.16686153, 0
181, 2144604679, -0.6548888, -0.17691171, 0.70749897, -0.1981701, -0.09508062, -0.010329763, 0.51567554, 0
182, 2144621346, -0.6546662, -0.17666656, 0.7078027, -0.19803935, 0.12319811, 0.061224, 0.64993477, 0
184, 2144654680, -0.65465283, -0.1763564, 0.7080237, -0.19756949, 0.051195644, 0.20914264, 0.14564896, 0
186, 2144688014, -0.65467656, -0.17515732, 0.7084453, -0.19704531, -0.07125325, 0.4938318, -0.22353363, 0
188, 2144721348, -0.6543953, -0.17352629, 0.7093433, -0.19619012, -0.15592532, 0.2497442, -0.28875923, 0
189, 2144738015, -0.65409714, -0.17295909, 0.7099094, -0.1956373, -0.0525394, -0.121140055, -0.31509304, 0
190, 2144754682, -0.65379703, -0.17243908, 0.7104753, -0.19504419, -0.09776144, -0.06465598, -0.48056412, 0
192, 2144788016, -0.6534509, -0.171314, 0.7112253, -0.19446078, 0.013211404, 0.12303824, 0.008043289, 0
193, 2144804683, -0.6536588, -0.17096329, 0.7110658, -0.19465429, 0.24785307, -0.10289888, 0.5391226, 0
194, 2144821350, -0.6538472, -0.17091301, 0.7108299, -0.19492733, 0.37288085, -0.123314224, 0.8255663, 0
196, 2144854684, -0.65358305, -0.17134269, 0.7106838, -0.19596572, 0.17934094, 0.10263496, 0.42488003, 0
197, 2144871351, -0.65318424, -0.17150769, 0.7109077, -0.19633873, -0.050936814, 0.40336058, -0.030842781, 0
198, 2144888018, -0.65276647, -0.17169566, 0.71114796, -0.19669306, -0.23821966, 0.19617319, -0.2550745, 0
201, 2144938019, -0.65080464, -0.17131141, 0.7130749, -0.19655238, -0.37548164, 0.30897933, -0.56883144, 0
203, 2144971353, -0.6509586, -0.17021841, 0.71327895, -0.19625188, 0.26507562, 0.15463425, 0.6275482, 0
204, 2144988020, -0.6514139, -0.16954695, 0.7130866, -0.19602112, 0.34444687, 0.23317955, 0.86589813, 0
205, 2145004687, -0.6513872, -0.1688366, 0.7133817, -0.19564882, 0.3168542, 0.33193344, 0.62069607, 0
207, 2145038021, -0.6504733, -0.16794279, 0.7145686, -0.19512671, -0.1313, 0.07880491, -0.25506592, 0
208, 2145054688, -0.6501283, -0.16742522, 0.71498376, -0.19520071, -0.29225078, -0.07859017, -0.060321808, 0
209, 2145071355, -0.6496384, -0.16693583, 0.7155859, -0.19504441, -0.2735137, -0.37428674, -0.63097477, 0
211, 2145104689, -0.64967513, -0.16649587, 0.71570575, -0.19485846, 0.038798273, -0.08341431, -0.18072319, 0
212, 2145121356, -0.6502237, -0.16633458, 0.7151886, -0.19506486, 0.13120925, 0.04412537, 0.5546055, 0
213, 2145138023, -0.6509258, -0.16591924, 0.7146535, -0.19503912, 0.2596278, 0.47387072, 1.011385, 0
216, 2145188024, -0.6514251, -0.16455059, 0.71464336, -0.19456711, 0.16613539, 0.20880178, -0.3685789, 0
217, 2145204691, -0.65148026, -0.16412789, 0.71466726, -0.19465168, -0.28186995, 0.07246234, -0.055086136, 0
219, 2145238025, -0.6506621, -0.16392747, 0.71537614, -0.194953, -0.34418043, -0.62373525, -0.88062763, 0
220, 2145254692, -0.65022916, -0.16384871, 0.71575993, -0.19505465, -0.33524126, -0.27009645, -0.7397728, 0
221, 2145271359, -0.65018433, -0.16378722, 0.71580094, -0.19510524, -0.16781218, 0.14728872, -0.23426056, 0
223, 2145304693, -0.6518047, -0.16265455, 0.71462476, -0.19495794, 0.31212646, 0.28308928, 0.9357681, 0
224, 2145321360, -0.65220517, -0.16213097, 0.71453935, -0.19436692, 0.3146602, 0.30042478, 0.7554245, 0
226, 2145354694, -0.6524908, -0.16120385, 0.7148185, -0.19314991, 0.23905292, 0.2611367, 0.10525513, 0
227, 2145371361, -0.65241957, -0.16089363, 0.71488905, -0.19338721, -0.005802396, 0.18681195, -0.44652462, 0
228, 2145388028, -0.6524379, -0.1605966, 0.71475, -0.19408497, -0.14538713, -0.20106962, -0.34534168, 0
230, 2145421362, -0.6526026, -0.16086352, 0.71417075, -0.19543816, -0.39828622, -0.11045323, -0.30301666, 0
231, 2145438029, -0.6526921, -0.16088188, 0.71393025, -0.19600195, -0.31235623, -0.020014578, -0.46907425, 0
232, 2145454696, -0.6527251, -0.16120729, 0.7137155, -0.19640651, -0.29616138, 0.13017489, -0.2780323, 0
234, 2145488030, -0.65302724, -0.16193388, 0.71319723, -0.1966863, -7.112182E-4, 0.2658, 0.111465454, 0
235, 2145504697, -0.6531925, -0.16215369, 0.7129559, -0.19683212, 0.06443565, 0.15354301, 0.17344952, 0
236, 2145521364, -0.6531117, -0.1625422, 0.7128224, -0.19726267, 0.05518937, -0.0012226717, 0.34008884, 0
238, 2145554698, -0.65286916, -0.16278133, 0.7128655, -0.19771175, 0.07518887, -0.16011372, 0.25761986, 0
239, 2145571365, -0.6529981, -0.16234313, 0.71284264, -0.197729, 0.14416273, -0.08416129, 0.21559715, 0
240, 2145588032, -0.6534648, -0.16152336, 0.71266365, -0.19750309, 0.13441756, -0.094982944, 0.2501974, 0
243, 2145638033, -0.65555257, -0.15890437, 0.71174616, -0.19601154, 0.19788228, 0.015993526, -0.23935032, 0
244, 2145654700, -0.6567556, -0.15805589, 0.71106887, -0.1951269, 0.23579633, -0.05791232, -0.2616186, 0
246, 2145688034, -0.66002506, -0.15627572, 0.7091139, -0.19262762, 0.19801925, 5.905975E-4, -0.23682976, 0
247, 2145704701, -0.6616285, -0.15536085, 0.70818484, -0.19128023, 0.089378364, -0.09614695, -0.035749435, 0
248, 2145721368, -0.6630107, -0.15436378, 0.70751715, -0.18976575, 0.022832742, -0.10922603, 0.18123913, 0
250, 2145754702, -0.6656778, -0.1523633, 0.70622253, -0.18684572, -0.10343554, -0.28817934, 0.24764156, 0
251, 2145771369, -0.6668376, -0.15130822, 0.7056846, -0.18559617, -0.3536355, -0.43255764, 0.27274704, 0
252, 2145788036, -0.6676652, -0.15019238, 0.7054749, -0.18431935, -0.47385865, -0.5238215, 0.015556335, 0
254, 2145821370, -0.66850555, -0.14877316, 0.70557386, -0.18203136, -0.3565577, -0.6529465, -0.34590912, 0
255, 2145838037, -0.66857004, -0.14892396, 0.7056932, -0.18120652, -0.4070734, -0.79148394, -0.34949875, 0
258, 2145888038, -0.6697494, -0.1524462, 0.70408064, -0.18019232, 0.061309155, -0.33771992, 0.19920254, 0
259, 2145904705, -0.6709528, -0.15443902, 0.7025051, -0.18016809, 0.25006315, -0.52562624, 0.37217808, 0
261, 2145938039, -0.6750444, -0.16015089, 0.69695437, -0.18145092, -0.03575939, -1.1270856, -0.11601639, 0
262, 2145954706, -0.6770369, -0.16330442, 0.6938001, -0.18329619, 0.0036832725, -0.93563604, -0.019413948, 0
263, 2145971373, -0.67838067, -0.16602373, 0.6914018, -0.18493879, 0.094194174, -0.37287733, 0.18998623, 0
265, 2146004707, -0.67817384, -0.172394, 0.68915576, -0.18822287, 0.8046636, 0.19219878, 0.47166252, 0
266, 2146021374, -0.67816365, -0.1758679, 0.6879739, -0.18936616, 0.7108959, 0.19671911, 0.108068466, 0
267, 2146038041, -0.67837244, -0.17891571, 0.6867383, -0.19024579, 0.5328585, 0.23477751, -0.13406754, 0
269, 2146071375, -0.67946565, -0.18309507, 0.68416053, -0.19165164, 0.27405325, 0.86893207, 0.2625723, 0
270, 2146088042, -0.68004465, -0.18427467, 0.68305683, -0.19240178, 0.13267192, 0.7624836, 0.35623646, 0
273, 2146138043, -0.68116677, -0.1842056, 0.6814601, -0.19415292, -0.6578532, 0.75609326, -0.44123363, 0
274, 2146154710, -0.6824981, -0.18360141, 0.6799792, -0.19523904, -0.45441437, 0.19221175, -0.015864372, 0
275, 2146171377, -0.68398446, -0.18323694, 0.6782606, -0.19635448, -0.69257146, -0.49732405, 0.29948044, 0
277, 2146204711, -0.68777895, -0.18481708, 0.6733348, -0.1985598, -0.18960693, -0.58788407, -0.07421684, 0
278, 2146221378, -0.6914754, -0.18605989, 0.66880953, -0.19985095, -0.2333198, -0.5969192, 0.30322647, 0
280, 2146254712, -0.6987655, -0.18927795, 0.65940547, -0.20270243, -0.3694763, 0.59626126, -0.25854492, 0
281, 2146271379, -0.7017465, -0.1900523, 0.6554208, -0.2045937, -0.21834622, 1.2745934, -0.6239424, 0
282, 2146288046, -0.70454144, -0.18980959, 0.65168417, -0.20713376, 0.01593692, 1.5890285, -0.18118095, 0
284, 2146321380, -0.7074707, -0.18859181, 0.64798963, -0.20983507, -0.0327071, 2.0067582, 0.29563618, 0
285, 2146338047, -0.70765644, -0.1875229, 0.64787465, -0.21052068, 0.14093475, 1.8847922, 0.21005821, 0
288, 2146388048, -0.7068967, -0.18230124, 0.65025175, -0.210331, 0.7084252, 0.9714987, 0.19906616, 0
289, 2146404715, -0.70531666, -0.1807983, 0.65261877, -0.20959999, 0.3032521, 1.0942912, 0.08105564, 0
290, 2146421382, -0.70292205, -0.17914699, 0.6557799, -0.20919597, 0.7007073, 1.343126, -0.36235142, 0
292, 2146454716, -0.696628, -0.17499328, 0.66337305, -0.20982364, 0.88940144, 0.8279978, -0.13573742, 0
293, 2146471383, -0.6930818, -0.17319039, 0.6674838, -0.21002628, 0.5865789, 0.22954853, 0.25486755, 0
294, 2146488050, -0.69047976, -0.17224666, 0.6706108, -0.20941164, 0.37426215, -0.09610895, 0.2081995, 0
296, 2146521384, -0.68756306, -0.17122021, 0.6739399, -0.20916235, -0.089659095, -0.36996207, -0.027581215, 0
297, 2146538051, -0.6874109, -0.17100453, 0.67414004, -0.2091931, -0.3137353, -0.5580912, 0.25018978, 0
298, 2146554718, -0.6871878, -0.17128128, 0.67431647, -0.20913099, -0.61353725, -0.30753064, 0.29697037, 0
300, 2146588052, -0.6873998, -0.17335445, 0.67329514, -0.21001509, -0.53764296, -0.44219726, -0.21768475, 0
301, 2146604719, -0.6877353, -0.17481308, 0.6722479, -0.21106076, -0.72821414, -0.27929738, -0.41290855, 0
302, 2146621386, -0.687974, -0.17651756, 0.67111593, -0.21246114, -0.7117515, -0.09846567, -0.498641, 0
304, 2146654720, -0.6873805, -0.18017693, 0.66967064, -0.21584398, -0.5755499, 0.13281162, -0.46189213, 0
305, 2146671387, -0.68663865, -0.18180124, 0.6694134, -0.21763398, -0.26386732, 0.0011441628, -0.212677, 0
307, 2146704721, -0.68540096, -0.18484409, 0.6688459, -0.2206952, -0.06556529, -0.38775072, 0.27275562, 0
308, 2146721388, -0.68495667, -0.18650869, 0.6684696, -0.22181177, -0.10101534, -0.42360187, 0.26104355, 0
309, 2146738055, -0.68451744, -0.188284, 0.6681383, -0.22266415, -0.022302123, -0.20135567, 0.21194649, 0
311, 2146771389, -0.683513, -0.19128966, 0.6678481, -0.22405432, -0.1967732, 0.08129557, 0.14900494, 0
312, 2146788056, -0.6827526, -0.19250417, 0.6680841, -0.22462818, -0.29141346, 0.14647691, 0.096419334, 0
315, 2146838057, -0.68015, -0.19430184, 0.66967523, -0.2262323, -0.16034104, 0.04806087, -0.077819824, 0
316, 2146854724, -0.6795195, -0.19424723, 0.67027134, -0.2264083, -0.090265706, 0.06197098, -0.124471664, 0
317, 2146871391, -0.67917603, -0.19392641, 0.67071325, -0.22640502, -0.06472891, 0.1393668, -0.102586746, 0
319, 2146904725, -0.67845285, -0.19340163, 0.6716832, -0.22614709, 0.030046847, 0.013432123, 0.104641914, 0
320, 2146921392, -0.67788243, -0.19323468, 0.6723878, -0.2259061, 0.02800081, 0.04429457, 0.122115135, 0
321, 2146938059, -0.6772661, -0.19298531, 0.67319137, -0.22557393, 0.1968103, 0.2767534, 0.11124706, 0
323, 2146971393, -0.67679244, -0.1921944, 0.6740295, -0.22516829, 0.17298427, 0.2830053, 0.08381939, 0
324, 2146988060, -0.67674416, -0.19178584, 0.6742716, -0.22493699, 0.17554753, 0.15511386, 0.03756523, 0
325, 2147004727, -0.67666996, -0.19141199, 0.674566, -0.22459579, 0.18082869, 0.12034184, 0.027515411, 0
327, 2147038061, -0.67666405, -0.19088008, 0.6750214, -0.2236959, 0.06932746, 0.09394685, -0.013747215, 0
329, 2147071395, -0.67609715, -0.19082086, 0.6760297, -0.22241163, -0.09959469, -0.002206967, -0.13743019, 0
331, 2147104729, -0.6745665, -0.19165929, 0.6777587, -0.22107226, -0.200969, -0.22262432, -0.22420788, 0
332, 2147121396, -0.6735664, -0.19260848, 0.6786129, -0.22067638, -0.24506095, -0.2901063, -0.15323639, 0
333, 2147138063, -0.6725703, -0.19367419, 0.6793576, -0.2204901, -0.2584668, -0.2114665, 0.015914917, 0
335, 2147171397, -0.67109245, -0.19550395, 0.6801732, -0.22086373, -0.04166997, -0.013597188, 0.27199078, 0
336, 2147188064, -0.6708266, -0.19606963, 0.6801599, -0.22120997, 0.050104003, -0.04135403, 0.2860489, 0
338, 2147221398, -0.6707669, -0.19679566, 0.6799352, -0.22143695, 0.15251139, 0.21121249, 0.129632, 0
339, 2147238065, -0.67082465, -0.19703484, 0.6798222, -0.22139661, 0.16553771, 0.21709825, 0.091070175, 0
340, 2147254732, -0.6708845, -0.19719991, 0.6797496, -0.22129108, 0.1081074, 0.15997794, 0.031201363, 0
342, 2147288066, -0.67101014, -0.197302, 0.6797455, -0.22083144, -0.037682496, 0.057660867, -0.13393974, 0
344, 2147321400, -0.671004, -0.19717273, 0.6799376, -0.22037318, -0.022776864, -0.092213064, -0.1648817, 0
346, 2147354734, -0.67073345, -0.19702828, 0.6802719, -0.22029449, 0.2092953, 0.029519357, 0.028179169, 0
347, 2147371401, -0.67061895, -0.19700618, 0.6803788, -0.2203328, 0.2044558, 0.056717753, 0.0945282, 0
348, 2147388068, -0.6705417, -0.19699955, 0.68042684, -0.22042517, 0.22227335, 0.2091308, 0.12012005, 0
350, 2147421402, -0.67057353, -0.19734128, 0.6802319, -0.2206246, 0.13776578, 0.08209318, 0.025885582, 0
351, 2147438069, -0.6706072, -0.19771975, 0.68005073, -0.2207418, 0.10764027, 0.118920065, -0.037711143, 0
352, 2147454736, -0.6705478, -0.19823772, 0.67990655, -0.22090209, 0.12967461, 0.1734826, 0.024971008, 0
354, 2147488070, -0.67054075, -0.19954938, 0.6793961, -0.22131269, 0.09077845, 0.112429366, -0.028564453, 0
355, 2147504737, -0.6705345, -0.20030615, 0.6791536, -0.22139186, -0.030644074, 0.24524288, 0.00472641, 0
356, 2147521404, -0.6706144, -0.20099294, 0.678834, -0.22150758, -0.009293669, 0.35848817, 0.08513737, 0
359, 2147571405, -0.6708358, -0.20167585, 0.67847675, -0.22131114, -0.039007034, 0.09826278, 0.027040482, 0
361, 2147604739, -0.67087555, -0.20163184, 0.67872775, -0.22045928, -0.0711247, 0.22479069, 0.032110214, 0
362, 2147621406, -0.6707397, -0.20165971, 0.6790233, -0.21993616, -0.02722343, 0.22782385, 0.072865486, 0
363, 2147638073, -0.6704738, -0.20194173, 0.67939085, -0.21935287, -0.07259745, 0.09687286, 0.028541565, 0
365, 2147671407, -0.6697421, -0.20224153, 0.6801123, -0.21907574, 0.018167133, 0.15656054, -0.033742905, 0
366, 2147688074, -0.66940606, -0.20217049, 0.68041277, -0.21923597, -0.03698782, 0.15987144, 0.012655258, 0
367, 2147704741, -0.6690439, -0.20209834, 0.68071777, -0.21946104, -0.012522537, 0.16179958, 0.038178444, 0
369, 2147738075, -0.6684367, -0.202141, 0.6811478, -0.21993634, 0.012063441, 0.049547344, -0.056930542, 0
370, 2147754742, -0.66809237, -0.20228302, 0.681333, -0.22027832, 0.07363769, 0.28350908, 0.061922073, 0
371, 2147771409, -0.6679351, -0.20242019, 0.6812819, -0.220787, 0.32223147, 0.017027106, 0.10531807, 0
373, 2147804743, -0.6677868, -0.20310459, 0.6809824, -0.22152926, 0.18999942, 0.20862353, -0.0021648407, 0
374, 2147821410, -0.66780615, -0.20357268, 0.6806643, -0.22201815, 0.27600586, 0.11196513, -0.0248003, 0
375, 2147838077, -0.6679718, -0.20416543, 0.68018526, -0.22244403, 0.20777497, 0.13475864, -0.0030899048, 0
377, 2147871411, -0.66834843, -0.20577265, 0.67917866, -0.22290686, 0.07272441, 0.16875362, 0.027219772, 0
378, 2147888078, -0.6684798, -0.20649669, 0.6787635, -0.22310792, 0.05061013, 0.29235741, -0.041038513, 0
379, 2147904745, -0.66855186, -0.20706362, 0.6784792, -0.22323136, -0.09472121, 0.3718023, -0.09666443, 0
381, 2147938079, -0.66862124, -0.20781599, 0.6781347, -0.22337094, -0.14690702, 0.16715953, -0.051867485, 0
382, 2147954746, -0.6686769, -0.20821296, 0.6779212, -0.22348265, -0.13491689, 0.1361831, 0.045217514, 0
383, 2147971413, -0.6687522, -0.20878792, 0.6776362, -0.22358567, -0.13264689, 0.037980884, 0.08298969, 0
386, 2148021414, -0.6686958, -0.21097736, 0.6767659, -0.2243332, -0.19284207, 0.0019509328, -0.0057754517, 0
387, 2148038081, -0.6686239, -0.2118532, 0.6764271, -0.22474337, -0.19664894, 0.010086805, 0.05135727, 0
389, 2148071415, -0.6681738, -0.21400504, 0.67592156, -0.2255628, -0.07805162, -0.042937733, 0.10851097, 0
390, 2148088082, -0.6678506, -0.21524961, 0.67570424, -0.22598663, -0.11013556, 0.08418492, 0.14199352, 0
392, 2148121416, -0.66707146, -0.21789229, 0.67529577, -0.22697452, -0.024713827, -0.01645536, 0.06932163, 0
393, 2148138083, -0.6667376, -0.21899621, 0.67507106, -0.22756076, 9.83457E-4, -0.025062507, 0.024382591, 0
394, 2148154750, -0.6664907, -0.21991616, 0.67481124, -0.22816633, 0.018433347, 0.01068663, 0.08533192, 0
396, 2148188084, -0.6665038, -0.22144157, 0.67399186, -0.2290725, 0.05449246, -0.09289109, 0.12358475, 0
397, 2148204751, -0.6664882, -0.22219563, 0.67368436, -0.2292925, -7.1702956E-4, -0.013393008, 0.08724499, 0
398, 2148221418, -0.6662863, -0.22301696, 0.67355996, -0.2294474, -0.066566184, -0.07660113, 0.020964622, 0
401, 2148271419, -0.6663564, -0.22526173, 0.67247015, -0.2302463, 0.039068278, 0.010275673, 0.07309818, 0
402, 2148288086, -0.66663194, -0.22587582, 0.6719622, -0.23032981, -0.12542474, 0.18004426, -0.05935955, 0
404, 2148321420, -0.66721034, -0.22734484, 0.6707007, -0.23088613, -0.108792245, 0.14368084, -0.2771864, 0
405, 2148338087, -0.66749567, -0.2280622, 0.6700325, -0.23129362, -0.034408033, 0.121660784, -0.30832386, 0
406, 2148354754, -0.6678383, -0.22868773, 0.66935027, -0.231662, -0.045627486, 0.1962161, -0.33596802, 0
408, 2148388088, -0.6679388, -0.22916529, 0.6689174, -0.23214982, -0.078743614, 0.6021942, -0.060260773, 0
409, 2148404755, -0.6674849, -0.22910084, 0.66935307, -0.23226346, 0.10689373, 0.5402556, 0.23094559, 0
410, 2148421422, -0.6668469, -0.22895971, 0.6700332, -0.23227409, 0.10695989, 0.32711992, 0.37142467, 0
412, 2148454756, -0.66544634, -0.2280596, 0.6718498, -0.2319293, 0.23163587, 0.5923738, 0.31797123, 0
413, 2148471423, -0.6649841, -0.2274298, 0.6726769, -0.23147511, 0.12124371, 0.5773752, 0.2353487, 0
416, 2148521424, -0.6647651, -0.22552791, 0.6742233, -0.22945732, 0.032339197, 0.43462643, 1.7356873E-4, 0
417, 2148538091, -0.66488624, -0.22480927, 0.6745223, -0.22893187, 0.015852433, 0.3155726, 0.06769085, 0
419, 2148571425, -0.66482335, -0.22373493, 0.6752622, -0.22798392, 0.061151356, -0.009631844, -0.047780037, 0
420, 2148588092, -0.66494596, -0.22342798, 0.6753682, -0.22761294, 0.0065422244, -0.042100005, -0.10040188, 0
421, 2148604759, -0.6650839, -0.22333547, 0.6753362, -0.2273953, -0.038145617, -0.0067622727, -0.11620331, 0
423, 2148638093, -0.66531134, -0.2235788, 0.6750231, -0.22742069, 0.01777241, -0.00396512, 0.0067806244, 0
424, 2148654760, -0.6655039, -0.22388314, 0.67467284, -0.22759718, -0.015694633, -0.03435327, 0.025206566, 0
425, 2148671427, -0.66567343, -0.22428368, 0.6742883, -0.22784667, -0.12044264, 0.119730525, -0.03200817, 0
427, 2148704761, -0.6658205, -0.22517636, 0.6735705, -0.2286579, -0.13504602, 0.08508874, -0.06770897, 0
428, 2148721428, -0.6658604, -0.22564387, 0.6732384, -0.22905916, -0.1271972, 0.033432733, 0.07739258, 0
431, 2148771429, -0.66489977, -0.22712575, 0.67338496, -0.22995192, -0.059623867, 0.0640948, 0.02864933, 0
432, 2148788096, -0.664597, -0.22753473, 0.6734935, -0.23010527, -0.050503645, -0.0015522975, 0.034524918, 0
433, 2148804763, -0.66434354, -0.22789042, 0.6736292, -0.23008765, -0.11732419, 0.037038, 0.02116394, 0
435, 2148838097, -0.6638468, -0.22840458, 0.6740142, -0.22988412, -0.090170935, 0.1556561, 0.08046436, 0
436, 2148854764, -0.6635453, -0.22864413, 0.67429245, -0.22970036, -0.08240252, 0.032353614, 0.07687092, 0
437, 2148871431, -0.6632816, -0.22892153, 0.67451936, -0.22951904, 0.020421932, 0.05362981, 0.07785797, 0
439, 2148904765, -0.66261345, -0.22909753, 0.67530334, -0.22896746, 0.07395016, 0.27891344, -0.011684418, 0
440, 2148921432, -0.662206, -0.22904733, 0.6758229, -0.2286635, 0.05678481, 0.20843913, 0.016324043, 0
442, 2148954766, -0.6617887, -0.22864294, 0.6765841, -0.22802424, -0.049725376, 0.055520393, -0.13197231, 0
443, 2148971433, -0.6616743, -0.2283983, 0.67689914, -0.22766653, -0.11211544, -0.01545905, -0.11170101, 0
444, 2148988100, -0.6615808, -0.22816765, 0.6771938, -0.22729297, -0.018238904, 0.010902084, -0.022582054, 0
446, 2149021434, -0.6615702, -0.227758, 0.6775692, -0.22661462, -0.06376959, -0.013056286, 0.06204796, 0
447, 2149038101, -0.6616243, -0.22751155, 0.6776899, -0.22634305, -0.09786381, 0.07155655, 0.0073251724, 0
448, 2149054768, -0.661635, -0.22721955, 0.67784464, -0.22614232, -0.0432131, 0.10435216, -0.03013134, 0
450, 2149088102, -0.6618588, -0.22669522, 0.6779135, -0.22580667, 0.011623121, -0.0696425, 0.066464424, 0
451, 2149104769, -0.6619535, -0.22653276, 0.6779631, -0.22554314, -0.061307367, 0.0113507705, 0.10667229, 0
452, 2149121436, -0.6619182, -0.22643143, 0.6781213, -0.22527236, -0.038218927, 0.10452829, 0.09387398, 0
454, 2149154770, -0.6618564, -0.22625367, 0.6783705, -0.22488248, -0.07692735, 0.06543543, -0.0058641434, 0
455, 2149171437, -0.66184807, -0.22619936, 0.67845094, -0.22471844, -0.11409621, 0.030480796, -0.06573868, 0
459, 2149238105, -0.661956, -0.2260111, 0.6784714, -0.22452798, -0.07760683, 0.051780913, 0.011828423, 0
460, 2149254772, -0.6619252, -0.22596192, 0.6785158, -0.22453374, -0.017999312, 0.107793495, -0.010251045, 0
462, 2149288106, -0.66196835, -0.22605881, 0.6785091, -0.22432962, 0.021311067, 0.17007414, 0.0076704025, 0
463, 2149304773, -0.6619529, -0.22609939, 0.678563, -0.22417119, 0.007902524, 0.18670338, 0.023638725, 0
464, 2149321440, -0.6618013, -0.22602198, 0.67878664, -0.2240204, -0.002017875, 0.22202358, 0.032421112, 0
467, 2149371441, -0.66145307, -0.22563139, 0.6793214, -0.2238213, 0.033078577, 0.14841685, 0.028931618, 0
468, 2149388108, -0.6615025, -0.22545382, 0.6793576, -0.22374406, -0.031102723, 0.17064275, 0.056196213, 0
470, 2149421442, -0.66163325, -0.22508669, 0.6793944, -0.22361472, -0.03744557, 0.19233257, 0.06908512, 0
471, 2149438109, -0.66161186, -0.22493526, 0.679489, -0.22354314, -0.075525925, 0.17088169, 0.049850464, 0
473, 2149471443, -0.6612582, -0.2247556, 0.67994446, -0.22338575, -0.014024991, 0.12785265, 0.035907745, 0
475, 2149504777, -0.6611564, -0.22469005, 0.68012613, -0.22319964, -0.04334587, 0.17662542, 0.030388832, 0
477, 2149538111, -0.6608712, -0.2248093, 0.6804416, -0.22296211, -0.06640305, 0.13817658, 0.029204369, 0
478, 2149554778, -0.66090024, -0.22465572, 0.68046296, -0.2229661, -0.18584342, 0.25670642, 0.6603527, 0
479, 2149571445, -0.6445629, -0.2554467, 0.6852453, -0.22299677, -12.400315, -10.25584, 3.860876, 1024
481, 2149604779, -0.632348, -0.25246066, 0.69532734, -0.23004934, -2.235143, -6.1999407, 9.427809, 0
482, 2149621446, -0.62723345, -0.2482406, 0.70265955, -0.22633514, 5.0893445, 2.2590878, -0.32785606, 0
483, 2149638113, -0.6283456, -0.24600717, 0.7024556, -0.22632158, -0.4927598, 0.45476013, -0.47510815, 0
485, 2149671447, -0.62717545, -0.24613008, 0.7048656, -0.22189751, 0.101555794, -1.2797261, -0.017404556, 0
486, 2149688114, -0.6273328, -0.24663828, 0.7049929, -0.2204796, -0.1339008, -0.19912478, 0.2961731, 0
487, 2149704781, -0.63083863, -0.24632533, 0.70224994, -0.2195779, -0.28420612, 0.30162826, -0.0066928864, 0
490, 2149754782, -0.63903207, -0.24609664, 0.6950167, -0.21915606, -0.19305082, 0.15334363, -0.21761227, 0
491, 2149771449, -0.6418516, -0.24542038, 0.69251347, -0.21959889, -0.09430056, -0.021963278, 0.34891987, 0
493, 2149804783, -0.6496443, -0.24244776, 0.6861104, -0.22008368, -0.25029802, 0.0325574, -0.26827812, 0
494, 2149821450, -0.65311235, -0.24105391, 0.6831178, -0.22065935, -0.23614234, 0.25765312, -0.12100792, 0
496, 2149854784, -0.6560728, -0.23978762, 0.6802417, -0.22213656, -0.15582831, 0.24395959, 0.3020935, 0
497, 2149871451, -0.65686166, -0.23920184, 0.67954177, -0.22257917, -0.14423962, 0.09719372, 0.37823486, 0
498, 2149888118, -0.65747476, -0.23861253, 0.67901266, -0.22301546, 0.09396976, 0.031729005, 0.1383152, 0
500, 2149921452, -0.65823114, -0.2379535, 0.67815053, -0.22410904, 0.12612121, 0.14608103, 0.11395836, 0
501, 2149938119, -0.6584568, -0.23783575, 0.67780286, -0.22462258, 0.09865773, 0.113086045, 0.0499115, 0
502, 2149954786, -0.6588238, -0.2377237, 0.6773324, -0.22508383, 0.05081567, 0.28958005, -0.047696114, 0
505, 2150004787, -0.66073537, -0.23678151, 0.67536634, -0.22637682, -0.024790715, 0.2604487, 0.04331875, 0
506, 2150021454, -0.6611377, -0.23637682, 0.67501163, -0.2266831, 0.1019237, 0.29458863, -0.116957664, 0
508, 2150054788, -0.6621735, -0.2355611, 0.6740426, -0.22739129, -0.014887304, 0.29254225, -0.021861076, 0
509, 2150071455, -0.66243416, -0.23511644, 0.67387164, -0.22759919, 0.040754907, 0.28988948, 0.004842758, 0
510, 2150088122, -0.6625547, -0.23461303, 0.6739087, -0.22765815, 0.1478275, 0.2528115, 0.06174755, 0
512, 2150121456, -0.6628202, -0.23383126, 0.6739504, -0.22756578, 0.09738549, 0.30682427, 0.038825035, 0
513, 2150138123, -0.66298145, -0.23347455, 0.673962, -0.22742793, 0.018827837, 0.30733702, -0.023077011, 0
514, 2150154790, -0.66314346, -0.2331053, 0.6739746, -0.22729716, 0.03929447, 0.28243968, -0.0637722, 0
516, 2150188124, -0.6632724, -0.2325412, 0.67416906, -0.22692233, 0.04288677, 0.29688856, 0.053274155, 0
517, 2150204791, -0.6632894, -0.23224205, 0.6743171, -0.22673805, 0.22499485, 0.33777735, 0.10015106, 0
518, 2150221458, -0.6632321, -0.23200116, 0.6745117, -0.22657388, 0.167666, 0.25968406, 0.025924683, 0
520, 2150254792, -0.6632115, -0.23158579, 0.6747463, -0.2263599, 0.108221844, 0.28666005, -0.011033058, 0
521, 2150271459, -0.663213, -0.23141015, 0.67484283, -0.2262476, 0.07173067, 0.20096932, 0.009684563, 0
522, 2150288126, -0.6632416, -0.23130548, 0.6748959, -0.22611265, 0.06914195, 0.14579761, 0.017054558, 0
524, 2150321460, -0.663146, -0.23134655, 0.675112, -0.22570577, -0.016308846, 0.1881085, 0.005718231, 0
525, 2150338127, -0.6629717, -0.23142497, 0.6753161, -0.22552681, 0.03784119, 0.1286677, -0.033783913, 0
527, 2150371461, -0.66248554, -0.23166923, 0.67577916, -0.22531691, 0.039239936, 0.15267208, -0.069416046, 0
528, 2150388128, -0.6621743, -0.23180999, 0.6760648, -0.22523022, 0.054395005, 0.12536116, -0.012638092, 0
529, 2150404795, -0.66192216, -0.23189464, 0.67630726, -0.22515634, 0.05139457, 0.12875922, 0.024111748, 0
532, 2150454796, -0.6610258, -0.23207198, 0.6772392, -0.2248057, 0.07936408, 0.11751361, 0.07953644, 0
533, 2150471463, -0.6609006, -0.23199308, 0.6774438, -0.22463891, 0.05279957, 0.19109643, 0.041106224, 0
535, 2150504797, -0.66079867, -0.23164833, 0.6777516, -0.22436568, 0.040135775, 0.11182543, -0.03581047, 0
536, 2150521464, -0.6608011, -0.23146251, 0.67786366, -0.22421175, 0.064660065, 0.06386112, 0.012748718, 0
537, 2150538131, -0.6608141, -0.2313224, 0.6779441, -0.2240744, 0.11038858, 0.057292964, 0.0026788712, 0
539, 2150571465, -0.6609768, -0.23106186, 0.6779249, -0.22392166, 0.081281826, 0.16381824, 0.010065079, 0
540, 2150588132, -0.6611184, -0.23090008, 0.67784464, -0.22391358, 0.08434485, 0.20205918, 0.01543808, 0
541, 2150604799, -0.6611661, -0.23074913, 0.67784286, -0.22393407, 0.06787954, 0.15320718, -0.018302917, 0
543, 2150638133, -0.6612039, -0.23057052, 0.67784655, -0.22399506, 0.09592734, 0.105492, 0.009501457, 0
544, 2150654800, -0.6612125, -0.23052135, 0.6778297, -0.22407122, 0.10116375, 0.14046079, 0.046156883, 0
547, 2150704801, -0.661273, -0.23058842, 0.6776166, -0.2244677, 0.0761008, 0.15430395, -0.002465248, 0
548, 2150721468, -0.66132796, -0.23059808, 0.6775155, -0.22460116, 0.034412503, 0.15011287, 0.0016231537, 0
551, 2150771469, -0.6612485, -0.230724, 0.67747307, -0.22483367, 0.08126931, 0.22792365, 0.01907444, 0
552, 2150788136, -0.6611742, -0.23080684, 0.6774837, -0.22493517, 0.112086385, 0.24446349, 0.013379097, 0
554, 2150821470, -0.6609919, -0.23092605, 0.67754835, -0.2251535, 0.07156661, 0.21478668, 0.044760704, 0
555, 2150838137, -0.6609548, -0.23099664, 0.6775066, -0.22531559, 0.195391, 0.21262218, 0.08259106, 0
556, 2150854804, -0.6609429, -0.23103917, 0.6774548, -0.22546251, 0.15489715, 0.18239082, 0.08904266, 0
558, 2150888138, -0.6608183, -0.2311003, 0.6775039, -0.22561765, 0.13648148, 0.29134232, -0.0072422028, 0
559, 2150904805, -0.6608501, -0.2310261, 0.67748994, -0.22564253, 0.06687777, 0.3126316, -0.033147812, 0
560, 2150921472, -0.6609131, -0.23091684, 0.6774666, -0.22564006, 0.11863218, 0.2940684, -0.015735626, 0
563, 2150971473, -0.66056067, -0.23078561, 0.677948, -0.22536032, 0.09517718, 0.20558208, -0.023236275, 0
564, 2150988140, -0.66039705, -0.23076352, 0.6781461, -0.22526604, 0.101252265, 0.23687646, -0.016509056, 0
566, 2151021474, -0.6600275, -0.23070358, 0.6785595, -0.22516601, 0.15492174, 0.22621354, 0.030351639, 0
567, 2151038141, -0.65985864, -0.23071235, 0.67873454, -0.22512454, 0.20111383, 0.216903, 0.056651115, 0
568, 2151054808, -0.6597026, -0.230741, 0.6788858, -0.22509575, 0.13777919, 0.17373706, 0.06959915, 0
570, 2151088142, -0.65925884, -0.23082992, 0.67931765, -0.22500204, 0.1350206, 0.26657853, 0.0324955, 0
571, 2151104809, -0.6590551, -0.23087046, 0.679518, -0.22495282, 0.10918876, 0.25898066, 0.007889748, 0
574, 2151154810, -0.63134193, -0.25058514, 0.69828796, -0.22585726, 12.501083, -1.7235328, -12.450952, 0
575, 2151171477, -0.6393612, -0.24553901, 0.6918412, -0.22866285, -3.5606666, -0.7536942, -0.19436455, 0
576, 2151188144, -0.64303, -0.24094339, 0.69070697, -0.22668396, 2.0647962, 2.6213572, 0.3210039, 0
579, 2151238145, -0.6412679, -0.24396513, 0.69155484, -0.2258569, 0.057717305, -0.93623793, -0.7976923, 0
581, 2151271479, -0.6432469, -0.2426673, 0.6905882, -0.22458202, 0.38034126, 0.40191698, 0.25107098, 0
582, 2151288146, -0.6438136, -0.24163923, 0.6905381, -0.2242204, 0.07229258, 0.2539221, 0.90283394, 0
583, 2151304813, -0.64415294, -0.24069369, 0.6906918, -0.22378838, 0.23719418, 0.11538465, 0.8844662, 0
585, 2151338147, -0.644273, -0.24114177, 0.6903786, -0.22392729, 0.61261636, -0.037403107, 0.007217407, 0
586, 2151354814, -0.6439748, -0.24226424, 0.69012743, -0.22434737, 0.06732702, -0.43271685, 0.055555344, 0
587, 2151371481, -0.64369506, -0.2432651, 0.6898804, -0.22482607, -0.10510965, -0.087741576, -0.124554634, 0
589, 2151404815, -0.64385176, -0.2444392, 0.688937, -0.22599427, -0.26318875, 0.2969735, -0.26101875, 0
590, 2151421482, -0.64436066, -0.24426518, 0.68837124, -0.22645521, -0.14129908, 0.20585242, -0.22584724, 0
591, 2151438149, -0.645133, -0.24386181, 0.687614, -0.22699077, 0.11144892, 0.23400778, -0.13476562, 0
593, 2151471483, -0.6463521, -0.24343997, 0.68627477, -0.22802645, 0.21095823, 0.17071149, 0.14340782, 0
594, 2151488150, -0.64702934, -0.2431516, 0.6856545, -0.22827879, 0.1458212, 0.16562466, 0.09777641, 0
595, 2151504817, -0.64839906, -0.24255008, 0.68449616, -0.22850877, 0.1628511, 0.22013736, -0.011528015, 0
597, 2151538151, -0.65146184, -0.24112849, 0.6819225, -0.22899657, 0.0968799, 0.3785391, 0.17321968, 0
598, 2151554818, -0.6522952, -0.24070778, 0.68119246, -0.22923946, 0.1856655, 0.27683744, 0.18976879, 0
599, 2151571485, -0.65321505, -0.2402085, 0.6804089, -0.22947049, 0.11340019, 0.17542827, 0.086499214, 0
601, 2151604819, -0.6555659, -0.2388669, 0.6784887, -0.22985248, -0.090469554, 0.20128337, 0.024285316, 0
602, 2151621486, -0.6566159, -0.23812178, 0.6776884, -0.22998926, 0.13605994, 0.26409018, -0.07926273, 0
604, 2151654820, -0.65869915, -0.23669626, 0.6761092, -0.23015153, 0.048312772, 0.44839615, -0.06302452, 0
606, 2151688154, -0.6595468, -0.23595272, 0.6755783, -0.23004621, 0.26427993, 0.29509467, 0.1355381, 0
608, 2151721488, -0.6597695, -0.23583227, 0.67549783, -0.22976756, 0.060476348, 0.18295306, 0.022785187, 0
609, 2151738155, -0.66023797, -0.2356471, 0.6750953, -0.22979508, 0.06294373, 0.24478263, 0.005086899, 0
612, 2151788156, -0.66028446, -0.23587248, 0.67501247, -0.22967333, 0.06818888, 0.18286099, -0.08160591, 0
613, 2151804823, -0.660264, -0.23605388, 0.67493767, -0.22976564, 0.048262704, 0.26337326, -0.10766792, 0
614, 2151821490, -0.6604947, -0.23607111, 0.6746453, -0.22994365, 0.005085367, 0.27227968, -0.051584244, 0
616, 2151854824, -0.66128665, -0.23590812, 0.6737956, -0.23032522, 0.084850885, 0.2103619, 0.065603256, 0
617, 2151871491, -0.66172063, -0.23591526, 0.67329955, -0.23052275, 0.11163042, 0.19823934, 0.06327915, 0
620, 2151921492, -0.6633701, -0.2362233, 0.6712625, -0.23140524, 0.032160833, 0.2727904, -0.041703224, 0
621, 2151938159, -0.6638826, -0.23650981, 0.6705219, -0.23178943, -0.006725058, 0.20165138, 0.051517487, 0
624, 2151988160, -0.6643293, -0.23732628, 0.6693657, -0.23301414, 0.06380177, 0.07663891, -0.00641346, 0
625, 2152004827, -0.6648792, -0.23729186, 0.6687535, -0.233238, 0.0971709, 0.24745445, 0.083005905, 0
626, 2152021494, -0.6651911, -0.23734426, 0.66835797, -0.23342906, -0.06676734, 0.225406, 0.08100319, 0
629, 2152071495, -0.6652064, -0.23729292, 0.66827536, -0.23367436, -0.019235525, 0.23247795, 0.059295654, 0
631, 2152104829, -0.6652393, -0.23700999, 0.6683697, -0.23359801, -0.08872883, 0.1834942, 0.035077095, 0
632, 2152121496, -0.6650139, -0.23690091, 0.66867566, -0.23347452, -0.053509448, 0.24689084, 0.05516529, 0
633, 2152138163, -0.6648878, -0.23677164, 0.66886824, -0.23341309, 0.09427016, 0.27415106, 0.06392002, 0
635, 2152171497, -0.6650271, -0.23643355, 0.6689069, -0.23324862, -0.013577071, 0.18927412, -0.03746605, 0
636, 2152188164, -0.66517293, -0.23614399, 0.6689052, -0.23313074, -0.04343527, 0.28364018, -0.07147312, 0
637, 2152204831, -0.6652408, -0.23585235, 0.6689759, -0.23302925, -0.010636535, 0.26067132, 1.3446808E-4, 0
640, 2152254832, -0.6651361, -0.23556615, 0.6693278, -0.2326068, 0.0045592175, 0.22174832, -0.042154312, 0
641, 2152271499, -0.6650128, -0.23559688, 0.6694741, -0.2325075, 0.043549713, 0.24114801, -0.060972214, 0
643, 2152304833, -0.66472894, -0.23566426, 0.6697647, -0.23241383, 0.023349505, 0.15798365, 0.013528824, 0
644, 2152321500, -0.6645287, -0.23570822, 0.66996384, -0.23236805, 0.10159692, 0.14343016, 0.049492836, 0
645, 2152338167, -0.6642885, -0.23585717, 0.6701493, -0.23236807, 0.12791781, 0.13943689, 0.03864479, 0
647, 2152371501, -0.66398436, -0.23613918, 0.6703506, -0.23237105, 0.0568988, 0.18559633, 0.012120247, 0
648, 2152388168, -0.66386265, -0.23625498, 0.67042977, -0.23237236, 0.029106751, 0.15310124, 0.008300781, 0
649, 2152404835, -0.6636952, -0.2363853, 0.6705592, -0.23234499, 0.05365026, 0.16078919, 0.007861137, 0
651, 2152438169, -0.6634064, -0.23653604, 0.6708343, -0.232222, 0.057614934, 0.17030513, 0.021844864, 0
652, 2152454836, -0.66325945, -0.23658356, 0.67099726, -0.23212235, 0.06970788, 0.21528903, 0.0034189224, 0
655, 2152504837, -0.66304106, -0.23658055, 0.6713098, -0.23184547, 0.07227962, 0.21102652, 0.0021238327, 0
656, 2152521504, -0.6629706, -0.2365242, 0.6714354, -0.23174056, 0.11464382, 0.2170616, -1.2302399E-4, 0
657, 2152538171, -0.66282105, -0.2364761, 0.67164415, -0.23161279, 0.07787057, 0.18378778, 0.021147728, 0
659, 2152571505, -0.6626454, -0.2362976, 0.671988, -0.23130003, 0.13082616, 0.16729419, 0.038642883, 0
660, 2152588172, -0.66263777, -0.2362399, 0.6720512, -0.23119724, 0.061115146, 0.152004, 0.016907692, 0
662, 2152621506, -0.6625579, -0.23616946, 0.67220724, -0.23104452, 0.09577262, 0.1747089, -0.0047187805, 0
663, 2152638173, -0.662537, -0.23608617, 0.67228895, -0.23095155, 0.09841409, 0.14967646, -0.0017051697, 0
664, 2152654840, -0.6624924, -0.23609947, 0.6723445, -0.23090409, 0.11546367, 0.14639148, -0.0030612946, 0
666, 2152688174, -0.6623759, -0.23613115, 0.6725004, -0.23075195, 0.10133541, 0.17107503, 0.03592491, 0
667, 2152704841, -0.6621889, -0.23627266, 0.67263365, -0.23075542, 0.084161565, 0.18539149, 0.04224491, 0
668, 2152721508, -0.66189903, -0.23637013, 0.672906, -0.23069336, 0.16100755, 0.24125989, 0.037698746, 0
670, 2152754842, -0.7025228, -0.2503224, 0.6171323, -0.25090072, 2.4805825, -1.4154642, -19.585981, 0
671, 2152771509, -0.6923084, -0.24156137, 0.6344049, -0.24472621, -7.2150645, -6.7140136, 0.55014515, 0
672, 2152788176, -0.68339354, -0.23916249, 0.6474043, -0.23800285, 8.223136, 1.7328292, -1.8025961, 0
675, 2152838177, -0.6985826, -0.24116479, 0.6303332, -0.23770818, -1.6071485, -0.6914043, -2.1206517, 0
676, 2152854844, -0.70015275, -0.24197787, 0.62945247, -0.23457505, -1.2704543, -0.80363387, -2.1185198, 0
678, 2152888178, -0.7049505, -0.2439478, 0.6252887, -0.22924098, -0.73746264, 0.933071, 1.8070259, 0
679, 2152904845, -0.7018046, -0.24576697, 0.6281904, -0.22901759, -1.0440956, 0.075217694, 1.8616667, 0
680, 2152921512, -0.6915043, -0.24760427, 0.6389634, -0.22856715, -1.5584248, -0.13429564, 1.3237696, 0
683, 2152971513, -0.6668078, -0.24799028, 0.664901, -0.22754788, -0.77918315, -0.42422378, -0.017105103, 0
685, 2153004847, -0.66673666, -0.24756396, 0.66509944, -0.22764012, -0.67335916, -0.08816659, 0.16807652, 0
686, 2153021514, -0.66722274, -0.24726044, 0.6647268, -0.22763434, -0.5441387, -0.16244374, 0.239954, 0
687, 2153038181, -0.6678665, -0.24691668, 0.664189, -0.22768907, -0.5372152, -0.21918708, 0.20359993, 0
689, 2153071515, -0.6694651, -0.24601895, 0.6627463, -0.22817019, -0.50602084, -0.18366338, 0.09560585, 0
690, 2153088182, -0.67023236, -0.24545062, 0.6620991, -0.2284085, -0.5107758, -0.028071104, 0.021302223, 0
691, 2153104849, -0.6709586, -0.24490955, 0.6615053, -0.2285781, -0.4959258, 0.10713082, -0.0073156357, 0
693, 2153138183, -0.6729295, -0.24349347, 0.6600115, -0.22861506, -0.5159734, 0.14899072, 0.16282272, 0
694, 2153154850, -0.67396396, -0.24273872, 0.6593092, -0.22839627, -0.52905697, 0.005651078, 0.16112041, 0
695, 2153171517, -0.6751209, -0.24209225, 0.6584293, -0.22820406, -0.21573426, -9.18303E-4, 0.06966972, 0
698, 2153221518, -0.6820026, -0.23888105, 0.652294, -0.22874409, -0.70055264, 0.12718894, -0.18454838, 0
699, 2153238185, -0.6847741, -0.23736426, 0.6497987, -0.22914451, -0.8432527, 0.5959963, -0.42404175, 0
701, 2153271519, -0.69009066, -0.2340085, 0.64487445, -0.23055346, -0.89399105, 0.45271587, -0.68743515, 0
702, 2153288186, -0.69216555, -0.23259455, 0.6427874, -0.23159027, -0.7203127, 0.55726707, -0.6769848, 0
703, 2153304853, -0.6945862, -0.23078904, 0.64045835, -0.23259984, -0.5579804, 0.6955646, -0.23818779, 0
705, 2153338187, -0.6982589, -0.2287534, 0.6360585, -0.23566708, -0.3560119, 0.4579074, 0.3050003, 0
707, 2153371521, -0.7037669, -0.22716781, 0.630165, -0.23664726, -0.61097443, 0.9033445, -0.16728973, 0
711, 2153438189, -0.7184372, -0.20684071, 0.62055683, -0.23659518, -0.79661715, 1.8705746, -1.3935747, 0
713, 2153471523, -0.72392, -0.18676814, 0.61920786, -0.24008803, -0.61728823, 0.9534997, -0.62010956, 0
714, 2153488190, -0.72642404, -0.17236285, 0.62005186, -0.24111807, -0.47274062, 0.37096456, -0.26614285, 0
717, 2153538191, -0.73938495, -0.14211026, 0.61298496, -0.23951419, 0.499956, -3.417376, 0.7412319, 0
718, 2153554858, -0.744861, -0.14405344, 0.6071987, -0.2361002, 1.4613363, -3.4302163, 2.9133186, 0
720, 2153588192, -0.75743425, -0.14279607, 0.59420824, -0.229831, 0.9175091, 0.85508513, 2.9503317, 0
724, 2153654860, -0.78640586, -0.1104469, 0.56639683, -0.22037506, 2.0701444, 0.20371424, -0.46951008, 0
725, 2153671527, -0.7925424, -0.10447095, 0.55886275, -0.22054002, 1.8925307, -0.2262912, -1.1708231, 0
726, 2153688194, -0.7982032, -0.09963194, 0.5513739, -0.22121315, 1.831778, -0.1188933, -0.37369728, 0
728, 2153721528, -0.80790323, -0.09032213, 0.5387992, -0.22098085, 1.3897175, 0.48089075, -0.92025375, 0
730, 2153754862, -0.8155009, -0.08334258, 0.52854085, -0.22059, 1.8784671, 0.3779457, -0.79333115, 0
732, 2153788196, -0.82164377, -0.07931019, 0.5186865, -0.22266302, 2.2897542, 0.31171843, -0.4068432, 0
733, 2153804863, -0.82486105, -0.076423645, 0.51390076, -0.22287379, 1.9479249, 0.7109128, -0.3024683, 0
736, 2153854864, -0.83375734, -0.06684456, 0.5005031, -0.22333944, 1.8408194, 0.95552415, -0.69185066, 0
737, 2153871531, -0.8364594, -0.0643954, 0.49577704, -0.22449273, 2.0195339, 0.8185637, -0.77809525, 0
739, 2153904865, -0.84187996, -0.058904655, 0.4861216, -0.22684215, 1.7143955, 0.5944045, -0.8481703, 0
740, 2153921532, -0.844505, -0.056135423, 0.48146626, -0.227714, 2.0665278, 0.5010036, -1.1569405, 0
741, 2153938199, -0.8469675, -0.05404157, 0.47685778, -0.22876889, 1.9958198, 0.3011887, -1.4823895, 0
744, 2153988200, -0.8529815, -0.047825065, 0.46580428, -0.23057428, 1.7629709, 0.240895, -2.5282369, 0
745, 2154004867, -0.8550334, -0.045958363, 0.4625199, -0.22996554, 1.778023, 0.07504325, -2.743978, 0
747, 2154038201, -0.8593687, -0.04753258, 0.45466128, -0.22915554, 0.8284821, -0.23528133, -2.5785952, 0
748, 2154054868, -0.8610111, -0.049809277, 0.45095623, -0.22982703, 0.5535345, 0.90926707, -2.742744, 0
749, 2154071535, -0.86234325, -0.05110818, 0.4473979, -0.23149583, 1.054638, 1.1986821, -2.8647318, 0
751, 2154104869, -0.8643054, -0.052937657, 0.44074744, -0.23647095, 1.6512791, 0.39556178, -3.6511216, 0
752, 2154121536, -0.8648583, -0.050622858, 0.4393675, -0.2375219, 1.9908466, -0.21488282, -3.7030268, 0
753, 2154138203, -0.8648318, -0.046285145, 0.44040105, -0.23658787, 2.926602, 0.16086861, -3.3881173, 0
755, 2154171537, -0.86505455, -0.04296618, 0.44225085, -0.23292004, 6.4282503, 1.3321981, -0.9783497, 0
757, 2154204871, -0.86516404, -0.04843151, 0.43940565, -0.236794, 7.918372, 0.42519665, 4.724739, 0
759, 2154238205, -0.86506546, -0.04776669, 0.43693584, -0.24180639, 9.606467, 2.054158, 8.064447, 0
761, 2154271539, -0.86728644, -0.042054273, 0.43296435, -0.24205473, 8.978289, 4.601959, 10.218817, 0
763, 2154304873, -0.87082964, -0.03094142, 0.42887264, -0.23826405, 6.820806, 1.3774545, 9.421482, 0
764, 2154321540, -0.872549, -0.02564724, 0.42693424, -0.2360741, 5.474328, -1.3574233, 8.0131645, 0
768, 2154388208, -0.87740403, -0.015226706, 0.422093, -0.22753248, -2.8638437, -0.11283996, 2.347745, 0
770, 2154421542, -0.8786214, -0.020563263, 0.4192002, -0.2277626, -1.6219844, 0.9781451, 3.5122614, 0
771, 2154438209, -0.87878245, -0.023605451, 0.41856313, -0.22801831, -1.0770204, 0.22397615, 2.513441, 0
772, 2154454876, -0.87883306, -0.02759491, 0.4181379, -0.22815536, -1.475946, -0.88637376, 1.1950436, 0
774, 2154488210, -0.87843853, -0.036218725, 0.41933957, -0.22625509, -1.3408021, -0.035479337, -0.3018875, 0
775, 2154504877, -0.87783504, -0.040088803, 0.4208318, -0.22517136, -1.0633106, 0.15359631, -0.798645, 0
776, 2154521544, -0.8771118, -0.04590708, 0.42236036, -0.2240135, -0.5330256, -0.28943005, -1.0798893, 0
778, 2154554878, -0.87538093, -0.06097254, 0.42571658, -0.22081429, -0.36423963, -0.5977707, -0.88365173, 0
779, 2154571545, -0.8741834, -0.06832014, 0.42818597, -0.21862134, -0.6804244, -0.56818813, -1.1093597, 0
782, 2154621546, -0.8688849, -0.09516306, 0.43600744, -0.21420476, 0.13844617, -0.38726395, -2.056426, 0
784, 2154654880, -0.86474264, -0.11042057, 0.44169372, -0.2119842, -0.23460412, 0.036483962, -2.952425, 0
787, 2154704881, -0.8559975, -0.13785122, 0.45182618, -0.2100511, -0.98321563, 0.034391046, -3.0246172, 0
788, 2154721548, -0.8526059, -0.14384845, 0.4574152, -0.20771417, -0.84691113, 0.53975046, -2.9960728, 0
790, 2154754882, -0.84655625, -0.1538491, 0.46837944, -0.20074078, -1.6387205, 1.128372, -2.7050009, 0
791, 2154771549, -0.8431534, -0.15764949, 0.4751221, -0.19621758, -0.85640687, 0.78219116, -2.8248758, 0
792, 2154788216, -0.83963215, -0.16235879, 0.48131877, -0.1923352, -0.81228924, 0.30763105, -2.7372775, 0
794, 2154821550, -0.8364666, -0.15935159, 0.49180812, -0.18181986, -1.4130449, 1.0356045, -1.3396053, 0
795, 2154838217, -0.835127, -0.15673372, 0.49704856, -0.17590712, -2.016766, 0.101864465, -1.0734186, 0
797, 2154871551, -0.83094275, -0.15331149, 0.50878364, -0.16483949, -0.70603967, 0.93489057, -0.88587093, 0
798, 2154888218, -0.83037233, -0.14933364, 0.51270676, -0.15911031, -1.4923922, 0.91909164, -0.32648373, 0
801, 2154938219, -0.8291212, -0.13184543, 0.52446914, -0.14181042, -4.002483, -1.1702542, -0.9279289, 0
802, 2154954886, -0.82584584, -0.12843202, 0.53154516, -0.13764723, -1.8432523, -1.7026247, -1.8654523, 0
803, 2154971553, -0.82279843, -0.12448299, 0.5379037, -0.13479412, -1.024873, -1.2021146, -1.662014, 0
805, 2155004887, -0.8211974, -0.1120137, 0.54482275, -0.12751187, -0.5451528, -1.0240753, -2.4029984, 0
806, 2155021554, -0.82332957, -0.11078566, 0.54262066, -0.12418163, -0.5269528, -0.7336188, -3.1523108, 0
807, 2155038221, -0.82553166, -0.117607296, 0.53779435, -0.12428316, -0.42787534, -0.7496153, -2.980618, 0
809, 2155071555, -0.8325487, -0.12382527, 0.52631426, -0.12052581, -0.34207517, -0.31775156, -2.3248553, 0
810, 2155088222, -0.8375984, -0.12343739, 0.51913726, -0.11701174, -0.79996204, 0.16923301, -3.845344, 0
811, 2155104889, -0.8430566, -0.122311674, 0.5112986, -0.11345641, -0.7840981, 1.0216259, -4.4812493, 0
813, 2155138223, -0.8547181, -0.119089246, 0.49273214, -0.111770466, -0.050059304, 3.0324395, -4.710988, 0
815, 2155171557, -0.86765134, -0.11182068, 0.4705559, -0.1151411, -0.044277247, -1.7090846, -3.4416752, 0
817, 2155204891, -0.8779883, -0.119821474, 0.4475579, -0.12031016, 1.4225757, 2.3403141, -1.1579266, 0
818, 2155221558, -0.8817006, -0.12018903, 0.43909457, -0.12392705, 3.910521, 1.981766, 0.113292694, 0
820, 2155254892, -0.8868465, -0.11508882, 0.42781132, -0.13129446, 8.982101, -0.100165434, 4.2655945, 0
821, 2155271559, -0.88874495, -0.112751655, 0.42309868, -0.13568243, 9.330508, 0.67798144, 6.2680416, 0
824, 2155321560, -0.8934414, -0.10873881, 0.40973386, -0.1485247, 9.687102, 2.9893022, 11.929916, 0
825, 2155338227, -0.89569914, -0.096900396, 0.40697163, -0.15070084, 9.527633, 2.3846598, 11.7876835, 0
826, 2155354894, -0.8985503, -0.07691225, 0.40524784, -0.14989755, 7.867952, 2.3326814, 11.396559, 0
828, 2155388228, -0.9047129, -0.043470338, 0.40034297, -0.13904434, 1.6272458, 0.10248046, 5.753031, 0
830, 2155421562, -0.9091395, -0.020657327, 0.39388588, -0.13377476, -2.9554296, -3.486256, 2.9458532, 0
832, 2155454896, -0.91393125, -0.013610268, 0.38371694, -0.13156357, -4.443985, 0.2838481, 4.726568, 0
833, 2155471563, -0.91554374, -0.014012515, 0.37932095, -0.13304898, -2.790832, 0.21171646, 4.0233545, 0
834, 2155488230, -0.91665673, -0.0143292025, 0.37572217, -0.13554013, -1.3067265, 0.07975984, 2.5798054, 0
836, 2155521564, -0.9158473, -0.018968875, 0.37506694, -0.14209855, -1.4436287, -0.5466463, -1.8331342, 0
837, 2155538231, -0.9144694, -0.023933627, 0.37668374, -0.14589506, -0.8793346, -0.77512467, -1.7471209, 0
838, 2155554898, -0.9123759, -0.028440107, 0.37975278, -0.15017417, -0.40366307, -0.81231886, -2.4385366, 0
840, 2155588232, -0.90724486, -0.035920255, 0.38835835, -0.15747145, -0.37045562, -0.8265996, -1.8458161, 0
841, 2155604899, -0.90431136, -0.038943134, 0.39379174, -0.16011153, -0.17121048, -0.4360134, -2.1193085, 0
842, 2155621566, -0.9016614, -0.044620216, 0.3985623, -0.16176201, -0.018781794, -0.78990287, -1.8463516, 0
846, 2155688234, -0.88896674, -0.07271348, 0.4218317, -0.16282502, -0.67820066, -0.048279665, -2.9500651, 0
848, 2155721568, -0.8821567, -0.086058944, 0.43365857, -0.1622857, -0.75430995, 0.13298523, -2.536419, 0
849, 2155738235, -0.87851655, -0.09161855, 0.4398444, -0.16234167, -0.6566947, 0.17133763, -3.0933414, 0
851, 2155771569, -0.8717455, -0.10143917, 0.45095813, -0.16251051, -1.1990708, 0.4005046, -2.4370403, 0
852, 2155788236, -0.8682681, -0.1043009, 0.45733982, -0.16147846, -1.4516315, 0.2973432, -3.5239882, 0
853, 2155804903, -0.8644501, -0.10529798, 0.4649104, -0.15968597, -1.468518, 0.43480942, -3.3951554, 0
855, 2155838237, -0.8553382, -0.11170673, 0.48059526, -0.15795459, -2.0554569, -0.33116373, -2.4475956, 0
856, 2155854904, -0.8497671, -0.1141413, 0.4904075, -0.15611342, -1.6339101, 0.48735538, -3.0660982, 0
857, 2155871571, -0.8448613, -0.11513751, 0.49932095, -0.15373419, -1.1049479, 0.8830941, -1.8393683, 0
859, 2155904905, -0.84094703, -0.11534846, 0.50867903, -0.14405385, -2.6095428, 1.6596053, -0.3349161, 0
861, 2155938239, -0.8349892, -0.11745157, 0.5195179, -0.13821083, -0.6274603, -1.542232, -0.24758434, 0
863, 2155971573, -0.826097, -0.12416126, 0.53211343, -0.13786286, -1.9597067, -0.4395549, -0.1364193, 0
864, 2155988240, -0.8223476, -0.12335839, 0.53829736, -0.13699022, -2.3363771, 1.0995231, 0.519824, 0
865, 2156004907, -0.82002836, -0.1186191, 0.54315984, -0.13587971, -1.1035134, 1.6014531, 0.31035423, 0
867, 2156038241, -0.8140337, -0.12059929, 0.55136645, -0.13712391, -0.5021232, -1.1859871, 0.2628317, 0
868, 2156054908, -0.81061476, -0.123655416, 0.55524856, -0.13897876, -0.072685964, -1.2144241, -0.21776295, 0
869, 2156071575, -0.80865824, -0.1228444, 0.55817217, -0.1393846, -0.817542, 0.041164324, -0.004876137, 0
871, 2156104909, -0.8081159, -0.10999593, 0.56184846, -0.13848867, -0.31496978, 1.3886328, -1.277194, 0
872, 2156121576, -0.8088799, -0.10811196, 0.56056166, -0.14070803, -0.02712419, 0.5903475, -1.0452251, 0
874, 2156154910, -0.81233937, -0.10718786, 0.55348533, -0.14924027, -0.4622507, 0.52715313, -0.77084446, 0
876, 2156188244, -0.81877, -0.09908226, 0.5432323, -0.1571627, -0.31094295, 0.2154105, -1.8629804, 0
878, 2156221578, -0.82857186, -0.09443286, 0.5270198, -0.16372055, -0.6963475, 0.57717896, -3.739334, 0
880, 2156254912, -0.83970726, -0.094731405, 0.507173, -0.16939974, 0.008879164, 1.623627, -5.904502, 0
882, 2156288246, -0.8513795, -0.09139877, 0.48637474, -0.17390172, -1.4156739, 0.94533986, -5.1325135, 0
883, 2156304913, -0.85566366, -0.09623599, 0.4762085, -0.17834526, -0.6845891, 0.7243531, -3.777801, 0
884, 2156321580, -0.85901415, -0.099294044, 0.46741328, -0.18374737, 0.94213504, 1.9296287, -3.186976, 0
886, 2156354914, -0.86480945, -0.083788484, 0.45982754, -0.18342762, 5.952448, 2.7496772, -1.8170633, 0
887, 2156371581, -0.8677191, -0.07849911, 0.4565537, -0.18017519, 9.216343, 3.1763737, 1.3546143, 0
888, 2156388248, -0.87077147, -0.077397704, 0.45191523, -0.17760155, 9.781868, 3.1358304, 4.624796, 0
890, 2156421582, -0.8756733, -0.08088662, 0.44119456, -0.17889774, 8.559183, 0.29960492, 8.748116, 0
892, 2156454916, -0.87758845, -0.04728724, 0.44289032, -0.17735285, 7.293752, -0.5067378, 8.7927, 0
894, 2156488250, -0.879028, -0.024552068, 0.44337833, -0.17356776, -0.80187863, -7.292355, 6.861891, 0
895, 2156504917, -0.88151646, -0.026280953, 0.43920684, -0.17128444, -3.3992288, -4.89141, 9.536699, 0
896, 2156521584, -0.8843595, -0.026290532, 0.4345132, -0.16857733, -5.889077, -2.088168, 10.546244, 0
898, 2156554918, -0.88626355, -0.0343012, 0.42867926, -0.17203936, -4.1003585, -1.6509039, 4.7231283, 0
899, 2156571585, -0.886178, -0.04306456, 0.42658, -0.17568846, -1.2195766, -3.0158455, 2.041274, 0
902, 2156621586, -0.88433594, -0.05687526, 0.42559463, -0.18326865, 0.0074031963, -1.6611863, -1.024126, 0
905, 2156671587, -0.8779802, -0.086149365, 0.43067467, -0.1903983, -0.58010954, -1.7502687, -0.26299095, 0
906, 2156688254, -0.87541664, -0.09542377, 0.43372634, -0.19085245, -0.7462109, -1.3317767, 0.6537399, 0
907, 2156704921, -0.8724146, -0.104930736, 0.43806717, -0.18969113, -0.2782267, -0.6276688, 1.4550009, 0
909, 2156738255, -0.8676956, -0.12825866, 0.44359788, -0.18406045, 0.12865272, 2.0483513, 3.8226032, 0
910, 2156754922, -0.8651573, -0.14004862, 0.44598505, -0.18163061, -0.07660147, 2.3440099, 3.657074, 0
913, 2156804923, -0.856503, -0.16278495, 0.45490903, -0.18156193, -0.57952684, 0.56443256, -1.0369167, 0
914, 2156821590, -0.8538865, -0.16300964, 0.4595963, -0.18187906, -1.643499, 1.8059974, -3.0361242, 0
918, 2156888258, -0.83948106, -0.15296122, 0.48786658, -0.18402123, 2.1813743, 1.2527196, -8.807327, 0
919, 2156904925, -0.835381, -0.15987632, 0.49211252, -0.18549053, 1.6238043, 0.8897555, -8.2884865, 0
921, 2156938259, -0.83072495, -0.16537042, 0.49900514, -0.18315423, 1.1462911, -0.8780898, -5.220814, 0
922, 2156954926, -0.82985723, -0.16246676, 0.502563, -0.17993039, 0.275842, -0.90354204, -3.6967912, 0
923, 2156971593, -0.83036584, -0.15754187, 0.5046337, -0.17612788, 0.24190003, -0.93150973, -1.6359396, 0
926, 2157021594, -0.83387476, -0.151651, 0.5034274, -0.16798428, -3.6429002, 0.95631737, 4.3556967, 0
928, 2157054928, -0.83359873, -0.14544255, 0.506957, -0.16418718, -0.119528025, -2.4036856, 1.729907, 0
929, 2157071595, -0.83327556, -0.14408539, 0.50788945, -0.16414267, 0.53148115, -1.7497637, 1.5080929, 0
930, 2157088262, -0.83289427, -0.14305088, 0.5081491, -0.1661665, 0.9911034, -1.2375288, 1.7422037, 0
932, 2157121596, -0.83488166, -0.14048915, 0.50564086, -0.16602933, -0.8489648, 1.3923198, 1.2364044, 0
933, 2157138263, -0.8369138, -0.13372266, 0.5059554, -0.16033, -0.57353896, 3.1154397, 0.24119568, 0
934, 2157154930, -0.8391528, -0.12878454, 0.5052022, -0.15495522, -0.6136121, 2.0022676, -0.9008627, 0
936, 2157188264, -0.842324, -0.12638198, 0.503313, -0.1455917, 1.0073005, -2.2702818, -0.72480106, 0
937, 2157204931, -0.84267753, -0.13057281, 0.5027437, -0.1417646, -0.48917553, -3.5659745, -1.264018, 0
938, 2157221598, -0.8422034, -0.13321832, 0.5042597, -0.13664463, -0.6176063, -1.4163176, -1.6660147, 0
941, 2157271599, -0.8393314, -0.13134696, 0.5103242, -0.13357815, 0.109444015, -1.4252092, -0.37247562, 0
942, 2157288266, -0.8383448, -0.12892678, 0.51236063, -0.13433343, -0.044817924, -1.3092066, 0.5722332, 0
944, 2157321600, -0.8368213, -0.12481171, 0.5158001, -0.13455644, -0.7796561, -1.0801353, 0.9174509, 0
945, 2157338267, -0.83579326, -0.12455046, 0.517258, -0.13558728, -0.72890437, -0.4549774, 0.74516773, 0
946, 2157354934, -0.83465403, -0.12470503, 0.51915336, -0.1352191, -1.6733152, 0.1732131, -0.039271355, 0
948, 2157388268, -0.83089066, -0.13264686, 0.52258587, -0.13759574, -1.3837916, 0.7517838, -1.7313223, 0
949, 2157404935, -0.8295346, -0.13442089, 0.5244764, -0.1368615, -1.2122992, 1.5803096, -1.2165127, 0
950, 2157421602, -0.82853216, -0.13587415, 0.52580434, -0.1364021, -0.7118854, 1.5638634, -0.24529266, 0
952, 2157454936, -0.82671523, -0.14478855, 0.5251116, -0.14085092, -0.4367434, -0.6849217, 2.0306616, 0
953, 2157471603, -0.82507735, -0.14642718, 0.526601, -0.14318104, -0.7215548, -0.7975264, 1.1734447, 0
957, 2157538271, -0.82003206, -0.13174775, 0.53618705, -0.15065302, 0.030589089, -0.9014912, -1.9171023, 0
959, 2157571605, -0.82490444, -0.12597837, 0.5295079, -0.15259972, -1.6923114, -1.0981425, -2.165975, 0
960, 2157588272, -0.827971, -0.12432289, 0.5244407, -0.15483144, -3.0666866, -1.8349924, -3.5699716, 0
961, 2157604939, -0.8305536, -0.12204568, 0.52022356, -0.1570227, -2.1575866, -0.6900452, -5.7456913, 0
963, 2157638273, -0.8387881, -0.11499533, 0.5070116, -0.161719, -1.1830763, -0.9841509, -7.370354, 0
964, 2157654940, -0.84263384, -0.11140424, 0.5007053, -0.16387369, -0.4391524, -1.2802874, -9.108618, 0
965, 2157671607, -0.8456232, -0.106540345, 0.4962148, -0.16536157, 1.2373236, -1.4917932, -9.792513, 0
967, 2157704941, -0.8488494, -0.12635934, 0.4824113, -0.17541495, 4.8138037, -1.4545728, -9.441971, 0
968, 2157721608, -0.8509177, -0.13992742, 0.47361666, -0.17902456, 3.0348802, -1.6788764, -6.419937, 0
969, 2157738275, -0.8543264, -0.1431182, 0.46798778, -0.17502566, 1.2695366, 1.1093522, 0.33936977, 0
972, 2157788276, -0.86406606, -0.16553593, 0.44662204, -0.16284828, 8.160685, 1.7202297, 13.501362, 0
975, 2157838277, -0.8705826, -0.19600092, 0.419631, -0.16607913, 3.2866752, 1.3369861, 9.793835, 0
976, 2157854944, -0.87254333, -0.1979272, 0.41328007, -0.16939718, 0.8340127, 1.1226494, 6.8180943, 0
977, 2157871611, -0.87439424, -0.20081556, 0.40621302, -0.17349929, -2.4356854, 1.2230363, 5.1322412, 0
979, 2157904945, -0.87949413, -0.2023165, 0.39346692, -0.17534211, -7.3687053, 1.619834, 8.469765, 0
980, 2157921612, -0.8825567, -0.19902033, 0.38886932, -0.1739779, -4.746338, 1.9761319, 9.425537, 0
981, 2157938279, -0.8850695, -0.19756725, 0.3840306, -0.17361696, -2.914625, -1.4635177, 5.78298, 0
983, 2157971613, -0.8880314, -0.1933005, 0.38075957, -0.17047161, -0.7728242, -1.6018963, 0.77996635, 0
984, 2157988280, -0.8885977, -0.19025849, 0.38225877, -0.16756243, -1.4519657, -0.11596757, -0.25526428, 0
986, 2158021614, -0.88808787, -0.18519771, 0.38868624, -0.16102086, -1.3561537, -0.0020726356, -0.40067005, 0
987, 2158038281, -0.8867031, -0.18575442, 0.3927745, -0.15806454, -0.7895155, -0.34379968, -0.47839355, 0
988, 2158054948, -0.88491714, -0.18574698, 0.39776796, -0.15557455, -0.2338974, -0.30235463, -0.6810026, 0
990, 2158088282, -0.8803159, -0.18508394, 0.41032565, -0.14974545, -0.30446488, -0.47469303, -1.0690241, 0
992, 2158121616, -0.87374365, -0.1862016, 0.42508438, -0.14562719, 0.070126966, -0.20933442, -1.792345, 0
994, 2158154950, -0.8663054, -0.18791924, 0.4406255, -0.14161173, 0.35336548, -0.09789365, -1.4685774, 0
995, 2158171617, -0.86269, -0.18709221, 0.44874024, -0.13927603, 0.29559565, -0.5091562, -1.5461626, 0
996, 2158188284, -0.85920936, -0.18651156, 0.45634016, -0.1368556, -0.22602703, -0.49089816, -1.2155075, 0
998, 2158221618, -0.8496699, -0.18798643, 0.4742703, -0.13339049, -0.13260107, -0.4338728, -2.8014197, 0
999, 2158238285, -0.844861, -0.18855156, 0.4825923, -0.13328992, 0.011547796, -0.21455735, -2.7759037, 0
1002, 2158288286, -0.8320614, -0.19208224, 0.50252587, -0.1350898, -0.81981176, -1.2293003, -2.181983, 0
1004, 2158321620, -0.8239989, -0.19026357, 0.5163272, -0.13503663, -0.29761735, -0.6483239, -1.8477025, 0
1006, 2158354954, -0.81765115, -0.18678334, 0.52786094, -0.13388282, -0.30424225, -1.0081412, -1.1377544, 0
1007, 2158371621, -0.8150545, -0.18406428, 0.53307533, -0.13281694, -0.44585648, -1.3558542, -0.8271799, 0
1009, 2158404955, -0.81016165, -0.17840302, 0.54308873, -0.12987757, -0.20216568, -0.90671057, -0.829751, 0
1010, 2158421622, -0.8076887, -0.17564277, 0.5481609, -0.12771492, -0.7820251, -0.7622177, -1.3506975, 0
1011, 2158438289, -0.80450463, -0.17485304, 0.5532612, -0.12690005, -0.8578709, -0.835361, -1.3598108, 0
1013, 2158471623, -0.7988453, -0.17222233, 0.5623706, -0.12620652, -0.43188202, -0.7746651, -0.95716953, 0
1014, 2158488290, -0.7972311, -0.17024958, 0.56534415, -0.12580498, -0.24390851, -0.375467, -0.044602394, 0
1015, 2158504957, -0.7951682, -0.16625553, 0.5694414, -0.12572303, -1.7065947, -0.26833636, -1.5638733, 0
1018, 2158554958, -0.79199237, -0.15097834, 0.57994145, -0.116723925, -0.09931843, -0.63147014, -1.114542, 0
1019, 2158571625, -0.79281175, -0.14909884, 0.5798242, -0.11413187, -0.76344407, -0.34913284, -0.88485336, 0
1021, 2158604959, -0.79732025, -0.13990635, 0.57716805, -0.10764192, -1.5800915, 1.0150391, -2.535163, 0
1022, 2158621626, -0.8008819, -0.12983268, 0.5754466, -0.102935776, -0.36287037, -0.47017643, -3.0476632, 0
1023, 2158638293, -0.8059165, -0.12170747, 0.5711776, -0.097185045, -0.72366613, -0.98786414, -2.5175924, 0
1025, 2158671627, -0.81847674, -0.11322256, 0.5556661, -0.09227544, -2.2116294, -1.2244762, -4.740379, 0
1026, 2158688294, -0.8253144, -0.10073857, 0.5484215, -0.08913418, -2.1467416, -0.2736003, -6.5081043, 0
1027, 2158704961, -0.8323113, -0.08854633, 0.5400095, -0.08837489, -0.33949953, -2.6347024, -7.077935, 0
1029, 2158738295, -0.8472249, -0.0790348, 0.5175247, -0.09019413, -1.5571767, -2.4145205, -4.8769145, 0
1030, 2158754962, -0.85383475, -0.07463351, 0.507203, -0.09024559, -2.4175045, -0.32551548, -3.478828, 0
1033, 2158804963, -0.8698848, -0.09639688, 0.47437182, -0.09477636, 7.190104, -0.57062435, 5.3007803, 0
1034, 2158821630, -0.87442434, -0.10113686, 0.4646861, -0.09603778, 7.9734635, 0.29536298, 8.127306, 0
1035, 2158838297, -0.8787678, -0.10770927, 0.45430088, -0.09889297, 7.5917373, 0.15165846, 9.326811, 0
1037, 2158871631, -0.8845143, -0.12829214, 0.436822, -0.10181058, 6.8564878, 1.424713, 8.930841, 0
1038, 2158888298, -0.88629794, -0.14132878, 0.4295593, -0.09992032, 4.7097535, 4.3115444, 6.600748, 0
1040, 2158921632, -0.887133, -0.16615254, 0.4163167, -0.109871715, -0.61845183, 0.9335087, 2.9006681, 0
1041, 2158938299, -0.88688236, -0.17620444, 0.41002256, -0.119483806, -4.095666, -3.7684512, 4.8451166, 0
1042, 2158954966, -0.8876952, -0.17417529, 0.4078964, -0.12362768, -6.3578424, 0.16889265, 7.568926, 0
1044, 2158988300, -0.8900343, -0.16903825, 0.4044707, -0.12518483, -0.86734825, 1.6872613, 7.2135525, 0
1045, 2159004967, -0.89070964, -0.17113435, 0.4017773, -0.12620285, -2.6322913, -1.6998583, 1.6218128, 0
1049, 2159071635, -0.89124215, -0.15468022, 0.41163078, -0.111016616, -2.5478778, 1.7563691, 0.81476593, 0
1050, 2159088302, -0.8900277, -0.1524622, 0.41631523, -0.106257945, -1.8447127, 0.69626343, 0.621418, 0
1052, 2159121636, -0.88669044, -0.14797571, 0.42776886, -0.09434031, -0.97667855, -0.2744958, 0.15366745, 0
1053, 2159138303, -0.88493717, -0.14622046, 0.43308854, -0.08912422, -0.88304937, -0.7249889, 0.32964516, 0
1054, 2159154970, -0.8831313, -0.14495502, 0.4381552, -0.08420411, -0.74361205, -1.029283, -0.12994862, 0
1057, 2159204971, -0.8746532, -0.14280333, 0.45833465, -0.06724034, -0.34828615, -0.41793865, -0.8896694, 0
1058, 2159221638, -0.8708569, -0.1430633, 0.46599892, -0.06316124, -0.13741867, -1.1328526, -1.3403406, 0
1060, 2159254972, -0.8626105, -0.1434363, 0.48173827, -0.05710297, 0.2776212, -0.8632999, -1.2657804, 0
1061, 2159271639, -0.8588569, -0.14362592, 0.48855656, -0.055244766, -0.47156763, -1.4398909, -1.5858221, 0
1063, 2159304973, -0.85035175, -0.1481202, 0.50183856, -0.055887975, 0.20374815, -1.1559187, -2.7076373, 0
1065, 2159338307, -0.8432965, -0.15147838, 0.5120205, -0.06118167, -0.02613984, -1.858721, -2.71909, 0
1068, 2159388308, -0.83272964, -0.15366098, 0.52664065, -0.0748484, -0.9072719, 0.017698035, -2.0586238, 0
1069, 2159404975, -0.82964474, -0.15459754, 0.53096753, -0.07658772, -0.61031663, -0.2757255, -1.2911968, 0
1071, 2159438309, -0.8241822, -0.15599483, 0.53842044, -0.080598086, -1.1834433, -1.0611731, -2.1796422, 0
1072, 2159454976, -0.82125515, -0.15460394, 0.5433581, -0.080015905, -1.5706322, -0.8780208, -1.8397589, 0
1073, 2159471643, -0.81757236, -0.15393335, 0.54901934, -0.0803802, -1.2788842, -0.7010467, -1.4076405, 0
1075, 2159504977, -0.8085584, -0.1542958, 0.56175286, -0.08284243, -1.5891999, -0.8947009, -1.1166945, 0
1076, 2159521644, -0.80411774, -0.154899, 0.5679422, -0.08273938, -1.6594936, -0.71833956, -0.6917963, 0
1077, 2159538311, -0.7997645, -0.1538035, 0.5745173, -0.08157271, -1.2435365, -0.52979726, -1.101779, 0
1080, 2159588312, -0.7919446, -0.1443942, 0.58801895, -0.078808226, -0.92991763, -0.34383893, -0.12012863, 0
1081, 2159604979, -0.7897956, -0.13925186, 0.5924875, -0.076115094, -0.9677418, -0.22878926, -0.28660774, 0
1083, 2159638313, -0.786053, -0.13003935, 0.5995044, -0.076211326, -0.30244967, 0.11312577, 0.45381165, 0
1084, 2159654980, -0.78437835, -0.11964823, 0.60376513, -0.076847926, -0.43253645, -0.11528111, -1.2855406, 0
1085, 2159671647, -0.7821974, -0.11700104, 0.60716885, -0.0763357, -0.24314454, -0.60082954, -0.8911114, 0
1087, 2159704981, -0.78202885, -0.10905491, 0.609082, -0.07456611, -0.15805307, -1.5280488, -1.7248802, 0
1088, 2159721648, -0.78392404, -0.10891169, 0.6066921, -0.07435921, -1.4073335, -0.7004604, -1.8017426, 0
1090, 2159754982, -0.7905096, -0.11084096, 0.5973534, -0.07733628, -1.6246687, -1.2359073, -2.2834115, 0
1091, 2159771649, -0.7943997, -0.11084526, 0.59190524, -0.079333514, -1.6262523, -0.876127, -2.52286, 0
1092, 2159788316, -0.79912865, -0.10949867, 0.5855811, -0.08063135, -1.8433543, -0.5205034, -4.1219325, 0
1095, 2159838317, -0.81937, -0.08597069, 0.56085265, -0.081786245, -1.5546211, 0.32243675, -6.2087684, 0
1096, 2159854984, -0.82716775, -0.082330555, 0.54924685, -0.085709795, -0.12965494, -1.5624858, -6.297557, 0
1098, 2159888318, -0.84298855, -0.08836206, 0.52173746, -0.09672459, 0.5695838, -2.413969, -6.4854836, 0
1099, 2159904985, -0.84982693, -0.09457949, 0.50841683, -0.10180575, -0.10551778, -1.8983499, -5.4426594, 0
1100, 2159921652, -0.8567075, -0.09883179, 0.49546948, -0.10391112, 2.5503068, -0.70234823, -0.53216076, 0
1102, 2159954986, -0.86841625, -0.100962564, 0.47476852, -0.1012796, 6.4876027, 2.3230958, 8.148645, 0
1103, 2159971653, -0.87378514, -0.1000671, 0.46520543, -0.10036476, 7.431986, 2.8550065, 10.761375, 0
1104, 2159988320, -0.8784836, -0.107320815, 0.4541156, -0.10262096, 6.7128167, 0.8489038, 11.222361, 0
1106, 2160021654, -0.8835685, -0.13860066, 0.43404984, -0.10816942, 8.607118, -1.2632097, 8.737715, 0
1107, 2160038321, -0.8848214, -0.14963098, 0.42790127, -0.107728645, 4.000531, 3.178121, 5.100318, 0
1110, 2160088322, -0.8872444, -0.17409477, 0.41140693, -0.115047365, -6.601005, -0.12808543, 6.210022, 0
1111, 2160104989, -0.88895756, -0.17162547, 0.4086533, -0.11534606, -6.0158796, 0.4366156, 9.41338, 0
1114, 2160154990, -0.89097357, -0.16596161, 0.40789667, -0.11066313, -3.8256555, -1.3088675, 0.7992306, 0
1115, 2160171657, -0.8906243, -0.15904278, 0.4121785, -0.1077296, -3.0051475, -0.09763694, 0.09404087, 0
1116, 2160188324, -0.8898277, -0.15097633, 0.41806543, -0.10313685, -2.3781192, 1.3551892, -0.11159897, 0
1118, 2160221658, -0.88691854, -0.14193879, 0.4297095, -0.092637785, -2.1825109, 2.23042, 0.17515945, 0
1119, 2160238325, -0.8849659, -0.13922757, 0.43537876, -0.088879205, -1.47116, 1.2086294, 1.9741058E-4, 0
1121, 2160271659, -0.8806661, -0.13757634, 0.44570994, -0.082739666, -0.9505644, -1.1129898, -0.42891693, 0
1123, 2160304993, -0.87705266, -0.13228537, 0.4551967, -0.07796327, -0.16188149, -2.6353912, -0.49947453, 0
1125, 2160338327, -0.87247026, -0.13377368, 0.46345812, -0.078168124, -0.06517414, -2.2748036, -0.86139584, 0
1127, 2160371661, -0.8675542, -0.13272308, 0.4718127, -0.08444197, 0.06080357, -1.7554674, -0.6400509, 0
1129, 2160404995, -0.8614965, -0.13337529, 0.4807634, -0.094363704, 0.524719, -1.1249299, -2.3876028, 0
1131, 2160438329, -0.8535956, -0.13273329, 0.4931224, -0.10290684, 0.5976875, -0.24441192, -3.3040223, 0
1133, 2160471663, -0.84470296, -0.1335562, 0.5067699, -0.10875136, 1.9395764, -0.12768449, -4.6738963, 0
1134, 2160488330, -0.84064484, -0.14028263, 0.5106767, -0.11335506, 1.5600952, -0.06808898, -4.4565096, 0
1135, 2160504997, -0.8374787, -0.14514637, 0.513716, -0.11688018, 0.8329836, -1.1216146, -3.0565772, 0
1137, 2160538331, -0.8334946, -0.1516178, 0.5176473, -0.11976283, -1.1056793, -0.17057882, -2.0296907, 0
1138, 2160554998, -0.83237433, -0.15069203, 0.5197068, -0.11980288, -1.766992, 1.4246365, -1.7116632, 0
1139, 2160571665, -0.8319873, -0.14389542, 0.5226744, -0.1179245, -0.43207783, 1.9411184, -0.6679907, 0
1141, 2160604999, -0.8328855, -0.13896212, 0.5233267, -0.11455776, -0.2922499, 0.33759475, 1.4566603, 0
1142, 2160621666, -0.8336633, -0.14231527, 0.5211512, -0.11470274, -1.546681, -0.94975525, 2.1758986, 0
1144, 2160655000, -0.8354125, -0.1328257, 0.5222255, -0.10829047, -0.94315046, 1.2597852, 2.557026, 0
1145, 2160671667, -0.83606064, -0.12420402, 0.52375865, -0.10609347, 0.8802575, 0.81007195, 3.6713886, 0
1146, 2160688334, -0.8369903, -0.11572576, 0.5244329, -0.1050141, 1.9132749, 0.15295227, 4.9885216, 0
1148, 2160721668, -0.84031063, -0.10543497, 0.52167684, -0.10304406, 0.07621524, -0.16718903, 8.005018, 0
1149, 2160738335, -0.8419261, -0.101246975, 0.520347, -0.10075411, -1.8667887, -2.1669374, 7.986368, 0
1152, 2160788336, -0.8528345, -0.09107264, 0.5048218, -0.09765902, -6.70764, -5.080359, -0.39278698, 0
1154, 2160821670, -0.8548772, -0.08749791, 0.5016439, -0.09942675, -6.92857, -0.36845925, -9.713699, 0
1156, 2160855004, -0.85590124, -0.07458232, 0.5028203, -0.09510753, 0.95621514, 1.8730043, -11.96446, 0
1158, 2160888338, -0.8605065, -0.07669488, 0.49345097, -0.1007759, 0.381026, -2.485519, -6.304372, 0
1160, 2160921672, -0.86373204, -0.07576853, 0.4891223, -0.09480773, -1.8518167, -3.0867746, -4.050031, 0
1161, 2160938339, -0.8641731, -0.07133025, 0.49054903, -0.08649516, -1.9139363, -1.0124238, -4.570337, 0
1162, 2160955006, -0.8634704, -0.063729316, 0.49419793, -0.078287505, -2.5875018, 1.8457319, -4.9318542, 0
1164, 2160988340, -0.8590034, -0.049126226, 0.5053937, -0.06542354, -4.5396886, -1.1265819, -6.731252, 0
1165, 2161005007, -0.85607606, -0.040498644, 0.51188326, -0.058927767, -3.5949295, 1.9722337, -6.8909225, 0
1166, 2161021674, -0.8530928, -0.031621654, 0.5181146, -0.05284802, -5.238272, 5.5784917, -6.1465664, 0
1168, 2161055008, -0.8495865, -0.015883643, 0.525206, -0.045959394, -2.510899, 6.695653, -6.355007, 0
1169, 2161071675, -0.8501123, -0.016246565, 0.524308, -0.04635976, 3.7274983, 1.8959781, -4.75057, 0
1170, 2161088342, -0.851797, -3.875345E-4, 0.5221209, -0.042830847, 7.239857, 1.734977, 2.6742506, 0
1175, 2161171677, -0.86923873, 0.0069714785, 0.49306756, -0.035539553, 8.009866, -3.3403008, 9.338003, 0
1176, 2161188344, -0.8715725, 0.028035188, 0.48761535, -0.04254034, 5.9995704, 2.3758328, 9.210051, 0
1177, 2161205011, -0.8737451, 0.04565211, 0.48178458, -0.048704647, 5.4492126, -0.008290654, 8.234579, 0
1181, 2161271679, -0.8938489, 0.055542137, 0.4410442, -0.058587097, -7.6220107, 6.4289865, 8.918554, 0
1183, 2161305013, -0.89672303, 0.046906024, 0.43403402, -0.072838336, 3.0946138, -2.6054113, 4.965578, 0
1184, 2161321680, -0.8990589, 0.042673573, 0.4290382, -0.07616652, -0.9825963, -5.911908, 1.1865082, 0
1185, 2161338347, -0.90010136, 0.04927919, 0.42623255, -0.075616784, -3.4273374, -2.6273482, 2.236517, 0
1188, 2161388348, -0.8971278, 0.039277032, 0.43277684, -0.079538085, 0.8255558, -2.7411904, 3.567419, 0
1189, 2161405015, -0.8957452, 0.03469169, 0.43580958, -0.08068502, -0.31257796, -2.9990065, 1.8579597, 0
1191, 2161438349, -0.8924312, 0.0287475, 0.44358572, -0.07729771, -2.1499386, -1.0453026, -1.0583534, 0
1193, 2161471683, -0.8883374, 0.02262735, 0.45329073, -0.06982326, -1.918961, 1.7648617, -1.2049322, 0
1195, 2161505017, -0.882941, 0.0044722036, 0.46458006, -0.06755358, 0.26449496, -1.1460305, -2.7882276, 0
1198, 2161555018, -0.87550974, -0.030051408, 0.4780875, -0.06336364, -1.0217519, -1.6725975, -3.85153, 0
1199, 2161571685, -0.8737819, -0.0350429, 0.48135144, -0.059841916, -1.0423067, -0.9085798, -4.7772603, 0
1200, 2161588352, -0.87300664, -0.037778098, 0.4827569, -0.05814865, -2.4366837, 1.1439584, -2.1187792, 0
1202, 2161621686, -0.86727023, -0.043242186, 0.49235094, -0.05971625, -1.3372843, -1.7833947, -5.6620135, 0
1203, 2161638353, -0.86319107, -0.057725154, 0.49735796, -0.06486125, -1.9088649, -0.80195516, -2.9392471, 0
1204, 2161655020, -0.8584796, -0.06481193, 0.50403523, -0.069021, -2.592687, -0.9523021, -3.0962539, 0
1206, 2161688354, -0.84865093, -0.060569298, 0.5205144, -0.0720461, -0.6865776, 2.4605122, -6.3382773, 0
1207, 2161705021, -0.8483095, -0.058352098, 0.5209915, -0.07441022, -4.254897, 4.3106375, -2.0098176, 0
1210, 2161755022, -0.84287834, -0.065281376, 0.5282792, -0.07885889, -0.8354341, 0.5962023, -5.100848, 0
1211, 2161771689, -0.8425419, -0.07137452, 0.5272953, -0.08361553, -3.7474787, 2.1944935, -3.8403983, 0
1212, 2161788356, -0.8438326, -0.0676285, 0.5251766, -0.086979836, -1.8690592, 3.5498972, -4.048757, 0
1214, 2161821690, -0.8490074, -0.06611699, 0.51648235, -0.089800745, -0.40427706, 4.244791, -6.7936554, 0
1215, 2161838357, -0.8511551, -0.059280604, 0.514073, -0.088049665, 2.476642, 5.961399, -6.7064285, 0
1216, 2161855024, -0.8545088, -0.051399685, 0.50975996, -0.085559666, 3.9746249, 0.1960574, -1.1639376, 0
1218, 2161888358, -0.8620011, -0.039581418, 0.4993618, -0.07764138, 5.197962, 1.073602, 2.1717644, 0
1219, 2161905025, -0.86596423, -0.04083515, 0.49242035, -0.07722537, 8.706626, -2.8254225, 6.650303, 0
1220, 2161921692, -0.8709108, -0.04508794, 0.48296216, -0.07894295, 9.983466, -4.8298545, 10.965288, 0
1222, 2161955026, -0.88207406, -0.03948514, 0.46152848, -0.08591168, 8.562595, -4.5029535, 13.010916, 0
1223, 2161971693, -0.88709676, -0.025986591, 0.4524952, -0.08738147, 6.306206, -3.1463442, 11.606171, 0
1225, 2162005027, -0.89387614, -0.0014029145, 0.44013214, -0.085265994, 3.2763956, -0.5060566, 4.403329, 0
1226, 2162021694, -0.89618176, 0.006254444, 0.43554753, -0.084385216, 1.10199, -5.339375, 3.1686192, 0
1229, 2162071695, -0.9005222, 0.010372497, 0.42749885, -0.07873984, -6.792527, -1.1843028, 4.735628, 0
1230, 2162088362, -0.9016448, 0.0090697445, 0.42578837, -0.07524458, -4.1484942, 1.8452718, 5.510417, 0
1231, 2162105029, -0.9028008, 0.0074823294, 0.42389393, -0.0721921, -1.8214281, 2.2832904, 5.447646, 0
1233, 2162138363, -0.9048573, 0.0043867733, 0.42104888, -0.062728055, -2.6767452, -1.0325288, 1.1973953, 0
1234, 2162155030, -0.90500844, 0.0053067002, 0.42147318, -0.057402, -2.6511924, -0.7046277, -1.2799511, 0
1238, 2162221698, -0.9015354, 0.008300958, 0.43077976, -0.039962895, -1.0164609, -1.217358, -1.2316523, 0
1241, 2162271699, -0.8949551, 0.0075572617, 0.44520193, -0.028223645, -1.4378715, -1.122866, -2.0978227, 0
1242, 2162288366, -0.89222866, 0.0067644883, 0.45093763, -0.02325441, -1.4693384, -0.70173293, -2.2854295, 0
1243, 2162305033, -0.88950217, 0.0067811254, 0.45656112, -0.017178461, -1.7393187, 0.034190148, -2.3072696, 0
1245, 2162338367, -0.88311756, 0.0036242288, 0.46909854, -0.0063198768, -1.3519621, -0.44278154, -2.4721146, 0
1247, 2162371701, -0.87504494, -0.003998019, 0.48401794, 0.003150165, -1.4391825, -0.8914793, -2.1193585, 0
1250, 2162421702, -0.8643867, -0.012184779, 0.50257605, 0.010378908, -1.8315167, -1.3743424, -2.415141, 0
1252, 2162455036, -0.8581556, -0.023916956, 0.51275057, 0.009333953, -2.1175404, -0.6689919, -1.4379721, 0
1253, 2162471703, -0.8545707, -0.02559605, 0.5186163, 0.009702962, -2.1847446, -0.08861291, -1.5556011, 0
1254, 2162488370, -0.85071135, -0.026690857, 0.52485365, 0.0104614645, -1.7917274, -0.1308254, -1.6193657, 0
1256, 2162521704, -0.8419925, -0.03640225, 0.5381987, 0.008276921, -1.1277999, -0.18236244, -2.0829186, 0
1258, 2162555038, -0.83408535, -0.04322584, 0.54986566, 0.009168621, -1.9598886, 0.5657721, -0.032271385, 0
1260, 2162588372, -0.82560676, -0.044853322, 0.5622837, 0.014215212, -0.51581156, -0.029657949, -1.0768547, 0
1261, 2162605039, -0.823761, -0.046062082, 0.56483674, 0.016085751, -1.5231844, 0.0182292, -0.11405754, 0
1262, 2162621706, -0.8215207, -0.045541625, 0.56803864, 0.01910102, -1.9328969, -0.014516852, -0.73700905, 0
1264, 2162655040, -0.8149706, -0.0413938, 0.57749784, 0.024682261, -2.6177564, -0.37597838, -0.740366, 0
1265, 2162671707, -0.811176, -0.03861424, 0.5828716, 0.027683504, -1.9796216, 0.49164635, -0.7743988, 0
1266, 2162688374, -0.8077726, -0.03295161, 0.5876404, 0.03315594, -1.9013247, 1.9678634, -0.91001225, 0
1268, 2162721708, -0.80412275, -0.026895164, 0.5923629, 0.042099807, -1.8243358, -0.4641855, -1.6715889, 0
1269, 2162738375, -0.80361134, -0.027316317, 0.59293824, 0.043471485, -3.2125382, -1.3057506, -1.0697803, 0
1270, 2162755042, -0.8030312, -0.022684079, 0.59369487, 0.046428207, -3.2093542, -0.51298285, -0.37070656, 0
1273, 2162805043, -0.8070075, -0.004140539, 0.5876185, 0.05855787, -0.8716871, 0.024793984, -2.952654, 0
1274, 2162821710, -0.8112479, -0.007754974, 0.58195144, 0.056145925, -0.74104047, -0.020183904, -2.570271, 0
1277, 2162871711, -0.83007264, 0.006177524, 0.55474305, 0.056609023, -0.7792423, 0.443829, -4.9652343, 0
1279, 2162905045, -0.8429326, 0.013805954, 0.5344738, 0.06012366, 3.3979232, 2.0212107, -7.7380943, 0
1283, 2162971713, -0.8664804, 0.017777322, 0.49459705, 0.065366656, 1.43576, 0.29781264, 1.1243649, 0
1284, 2162988380, -0.87052274, 0.019082865, 0.4876899, 0.063147455, 6.252619, -3.5089436, 5.0055027, 0
1285, 2163005047, -0.874266, 0.021449227, 0.48107696, 0.06137555, 8.901904, -5.3122206, 7.5910187, 0
1287, 2163038381, -0.8824472, 0.028334675, 0.46610546, 0.056860957, 7.29064, -4.5636187, 11.700939, 0
1288, 2163055048, -0.8858342, 0.032336615, 0.45984223, 0.052918654, 6.391163, -4.117376, 11.443338, 0
1289, 2163071715, -0.8879489, 0.039857633, 0.45568737, 0.04806592, 7.5587163, -3.0016878, 11.216665, 0
1292, 2163121716, -0.89028215, 0.07054666, 0.4481307, 0.040034812, -1.9753293, -9.160795, 7.7756367, 0
1293, 2163138383, -0.89189553, 0.07219829, 0.4447281, 0.039111745, -5.0950184, -5.800811, 7.840666, 0
1295, 2163171717, -0.8966256, 0.06377825, 0.43655708, 0.037629567, -7.7121053, 2.2643464, 8.208836, 0
1299, 2163238385, -0.8977972, 0.035083726, 0.4381447, 0.027601779, -2.9899538, 0.38120687, -1.1615801, 0
1300, 2163255052, -0.8960411, 0.028203921, 0.4422256, 0.027467292, -2.0325372, -0.058732696, -1.9905434, 0
1303, 2163305053, -0.8889586, 0.007206971, 0.45708364, 0.027900875, -1.6708208, -0.12687345, -3.3953586, 0
1304, 2163321720, -0.8861462, -8.3806366E-4, 0.4626285, 0.026872765, -1.4997386, -0.53160274, -3.19693, 0
1305, 2163338387, -0.8831503, -0.00824501, 0.4682499, 0.026887462, -1.2661427, 0.007335542, -2.9185195, 0
1307, 2163371721, -0.8781427, -0.016183022, 0.47702938, 0.032396734, -0.21030691, 1.9971135, -0.41590118, 0
1308, 2163388388, -0.8758688, -0.015388154, 0.4807472, 0.038759734, 0.006060777, 3.167277, -0.17313862, 0
1310, 2163421722, -0.8689607, -0.015732206, 0.49169812, 0.053813953, -2.0079594, 2.4252381, -2.3813567, 0
1311, 2163438389, -0.86358726, -0.0142365815, 0.5003557, 0.060511906, -0.5632359, 2.756726, -4.137041, 0
1312, 2163455056, -0.8587194, -0.01363136, 0.5079319, 0.066508465, 1.0261164, 0.17746003, -5.8043256, 0
1314, 2163488390, -0.84920084, -0.0068529695, 0.5223807, 0.07702314, -0.68821985, -1.1359258, -5.7624135, 0
1315, 2163505057, -0.8441518, 0.0010811761, 0.52963644, 0.08303656, -0.5074725, -0.15177469, -5.286261, 0
1316, 2163521724, -0.83892393, 0.01001771, 0.5368154, 0.08910018, 0.1510561, 0.74922585, -4.9445086, 0
1318, 2163555058, -0.8287523, 0.03009849, 0.5498854, 0.09946384, 1.020563, 0.41558835, -3.8884258, 0
1319, 2163571725, -0.82471913, 0.035088886, 0.55525094, 0.10152206, 0.04871912, 0.058334284, -2.483696, 0
1320, 2163588392, -0.820821, 0.04072841, 0.560237, 0.10359329, -1.1067047, -0.41343766, -0.8763685, 0
1324, 2163655060, -0.8111891, 0.035164405, 0.57679516, 0.089701116, -1.0721997, -2.6185246, 3.853321, 0
1326, 2163688394, -0.80852985, 0.03775531, 0.5817471, 0.08017127, -1.3825581, 0.7634502, 3.681776, 0
1327, 2163705061, -0.8083433, 0.036331367, 0.58268225, 0.07580128, -1.9805045, 2.0495167, 3.2343636, 0
1328, 2163721728, -0.80906385, 0.029503554, 0.5827426, 0.07042302, -2.939304, 2.4118428, 1.2914076, 0
1330, 2163755062, -0.81022066, 0.012424216, 0.5828949, 0.060207292, -4.326778, 1.7515671, -0.54549503, 0
1331, 2163771729, -0.8104501, 0.0029743835, 0.58326113, 0.05450965, -4.725848, 1.0321754, 0.17406178, 0
1333, 2163805063, -0.8108096, -0.011551172, 0.58402675, 0.03701335, -2.6220717, 0.75269073, 0.10174465, 0
1334, 2163821730, -0.81160444, -0.012341555, 0.5833006, 0.030154578, -1.6132047, 0.74066895, -0.63481426, 0
1335, 2163838397, -0.8132993, -0.01055417, 0.58116066, 0.026233964, -1.1796389, 0.8687217, -1.7782393, 0
1337, 2163871731, -0.81919056, -0.008671217, 0.5730486, 0.021673549, -1.8138329, 0.7674245, -4.6053333, 0
1339, 2163905065, -0.82724786, -0.019839786, 0.56135553, 0.012266349, -1.5700547, -1.2474618, -6.9015694, 0
1341, 2163938399, -0.83581007, -0.0249237, 0.5484246, 0.0058188215, -0.85819614, -1.0561688, -8.402302, 0
1342, 2163955066, -0.8403677, -0.027578773, 0.5413138, 0.0020242892, -0.47190335, -0.6666308, -8.560781, 0
1343, 2163971733, -0.8447342, -0.02869118, 0.53441733, -0.0014654584, -0.5572735, -1.2230343, -9.138316, 0
1345, 2164005067, -0.8507409, -0.03844776, 0.5240092, -0.013380449, 2.9496336, -1.3180882, -9.855536, 0
1346, 2164021734, -0.8533847, -0.050228335, 0.5184996, -0.019316686, 2.2853088, -1.9769859, -7.012746, 0
1347, 2164038401, -0.8561621, -0.05347435, 0.5136365, -0.017539887, -0.07755475, 0.96516037, -1.3317728, 0
1349, 2164071735, -0.86189014, -0.048806667, 0.5047274, -0.00409057, 6.8272305, 4.402527, 8.561632, 0
1350, 2164088402, -0.86572486, -0.052779563, 0.49772117, 0.0034160018, 7.805161, 1.0387762, 11.469681, 0
1353, 2164138403, -0.87720835, -0.08258198, 0.47267827, 0.016254045, 6.9283447, -6.451748, 13.600725, 0
1355, 2164171737, -0.8822009, -0.09596461, 0.46073774, 0.015365366, -1.0992751, 1.327591, 6.2885113, 0
1357, 2164205071, -0.8856127, -0.10639583, 0.45192072, 0.011865601, -4.1171207, 4.2180114, 4.698039, 0
1358, 2164221738, -0.8872901, -0.108352736, 0.44819024, 0.010228705, -5.8112955, 2.7832885, 6.2402477, 0
1359, 2164238405, -0.88918275, -0.10710852, 0.4447678, 0.008154444, -3.1475773, 2.2553923, 7.5310326, 0
1361, 2164271739, -0.892327, -0.1115305, 0.43739673, 8.1167E-4, -1.6209911, -2.2046049, 1.1738758, 0
1362, 2164288406, -0.8929493, -0.11224919, 0.43593386, -0.0025215633, -1.5033884, -1.5258372, -0.6968422, 0
1364, 2164321740, -0.8920694, -0.11044678, 0.43816173, -0.005560782, -0.38999322, 1.1590176, -1.6180372, 0
1365, 2164338407, -0.8907924, -0.10942044, 0.44099805, -0.0063190944, -0.5692645, 0.88745457, -1.6170177, 0
1366, 2164355074, -0.8890163, -0.10826297, 0.44484758, -0.0065666065, -0.21196002, 1.0705361, -1.3808069, 0
1368, 2164388408, -0.8847249, -0.10768822, 0.4534692, -0.005825326, -0.4781281, 0.40541056, -1.181778, 0
1370, 2164421742, -0.8791629, -0.10544076, 0.46469292, -0.004304312, -0.6791421, -0.14990164, -0.9069996, 0
1372, 2164455076, -0.87278074, -0.10157999, 0.4774223, -0.002530992, -0.7280559, -0.28934363, -0.99996376, 0
1373, 2164471743, -0.86928, -0.09987712, 0.48412502, -0.0016627759, -0.6178055, -0.19888823, -0.66518116, 0
1374, 2164488410, -0.8655212, -0.09790853, 0.49121284, -2.5361776E-4, -0.61285263, -0.15379032, -1.0022106, 0
1376, 2164521744, -0.85928124, -0.09370042, 0.50283647, 0.0038330145, -1.9376209, -1.3449334, 0.39642048, 0
1377, 2164538411, -0.8557043, -0.095535114, 0.50854564, 0.0052479804, -1.6711177, -0.5950625, -1.2259588, 0
1378, 2164555078, -0.85186064, -0.08730038, 0.5163486, 0.009955209, -1.9638114, 0.27867332, -2.16846, 0
1380, 2164588412, -0.8440373, -0.07842434, 0.5302532, 0.0168918, -1.642058, -0.448134, -1.6151772, 0
1381, 2164605079, -0.84054464, -0.07693234, 0.53598005, 0.01716394, -2.7221844, -1.1232454, -1.5604973, 0
1382, 2164621746, -0.83649665, -0.0741275, 0.54264134, 0.017945148, -2.2108448, -1.486322, -2.4650712, 0
1384, 2164655080, -0.82777655, -0.07115713, 0.5562967, 0.01612204, -0.92057, -2.2613533, -1.5127525, 0
1387, 2164705081, -0.8189331, -0.064909786, 0.57002044, 0.014663495, -1.7081399, -0.94153625, -0.6868925, 0
1388, 2164721748, -0.8172491, -0.06424982, 0.57248867, 0.015348725, -1.3981323, -1.1098145, -0.8847389, 0
1389, 2164738415, -0.81590337, -0.062453546, 0.5745823, 0.016111095, -1.6116397, -0.9907145, -0.49907017, 0
1391, 2164771749, -0.8137437, -0.055865303, 0.5782885, 0.016904823, -1.7460468, -0.17372766, -1.9263954, 0
1392, 2164788416, -0.8132187, -0.054226942, 0.5792146, 0.015763365, -1.7121265, -0.657402, -1.9458737, 0
1393, 2164805083, -0.81346774, -0.055910856, 0.5787297, 0.014813382, -2.229739, -1.0633107, -2.1128373, 0
1395, 2164838417, -0.81485885, -0.062141024, 0.5761712, 0.013171401, -2.166661, -0.23310739, -3.3248892, 0
1396, 2164855084, -0.81644344, -0.061472073, 0.5739756, 0.014024954, -0.92706066, 0.61060643, -2.8593578, 0
1399, 2164905085, -0.82701105, -0.06482227, 0.55804443, 0.020990174, -2.6969512, -0.38010514, -3.5669408, 0
1400, 2164921752, -0.83163846, -0.06435538, 0.55109483, 0.023098532, -1.9658941, 1.5649925, -5.1257358, 0
1401, 2164938419, -0.8366887, -0.057853103, 0.5440699, 0.02441528, -1.0536777, 0.089073874, -6.551856, 0
1403, 2164971753, -0.8462461, -0.0544672, 0.5293373, 0.02656803, 0.16242346, -1.5334748, -8.3687105, 0
1404, 2164988420, -0.85043573, -0.056226656, 0.52237594, 0.026907578, 0.14092727, -0.34570763, -7.826852, 0
1405, 2165005087, -0.85491836, -0.054237008, 0.5150974, 0.0291664, -1.9271803, 1.0535748, -5.334016, 0
1407, 2165038421, -0.86274976, -0.03678318, 0.5023593, 0.04413903, 2.4680288, 0.5558949, 3.270876, 0
1408, 2165055088, -0.8652529, -0.03902684, 0.49690807, 0.053849686, 6.491865, -1.4901332, 6.194195, 0
1409, 2165071755, -0.86747307, -0.04172365, 0.49176362, 0.06261809, 8.040318, -1.972752, 8.995163, 0
1411, 2165105089, -0.87131524, -0.048855048, 0.48240775, 0.07555595, 7.7580433, -4.020252, 12.730568, 0
1415, 2165171757, -0.8746326, -0.07379212, 0.4725561, 0.07916128, 0.5953862, 0.82808125, 3.9404707, 0
1416, 2165188424, -0.8741712, -0.077449314, 0.47265232, 0.08018226, -0.94881564, 5.025067, 2.5494108, 0
1418, 2165221758, -0.87572026, -0.08724567, 0.46897376, 0.07462581, -7.0452323, 2.190418, 4.2560873, 0
1419, 2165238425, -0.87784284, -0.08570931, 0.46590525, 0.07057826, -5.1365504, -0.22176537, 5.303813, 0
1420, 2165255092, -0.8797979, -0.082913265, 0.46318918, 0.067378506, -0.4614054, -1.3078129, 7.5714035, 0
1422, 2165288426, -0.8829563, -0.07714414, 0.45841897, 0.06551229, -2.4807408, -0.00474071, 1.8326702, 0
1423, 2165305093, -0.88375497, -0.074827686, 0.45734984, 0.06490204, -3.2813191, 0.16338095, -1.7179413, 0
1424, 2165321760, -0.8840096, -0.07120548, 0.4574339, 0.064916655, -1.5322509, 0.71137726, -1.8119469, 0
1426, 2165355094, -0.88320714, -0.06305982, 0.45994017, 0.066534914, -0.21124478, 0.7842225, -1.2381268, 0
1427, 2165371761, -0.8823114, -0.05928527, 0.4621288, 0.06672333, -0.13448395, 0.8361926, -1.3894873, 0
1430, 2165421762, -0.8777421, -0.051193018, 0.47168332, 0.06682792, -0.08523689, -0.59958947, -2.499823, 0
1431, 2165438429, -0.8757352, -0.050359506, 0.47573292, 0.06506209, -0.39807457, -0.80672574, -2.527215, 0
1432, 2165455096, -0.87362385, -0.051097427, 0.47991005, 0.062125742, -0.9166577, -1.2128, -2.2096791, 0
1434, 2165488430, -0.8683152, -0.051786482, 0.49011, 0.05605417, -0.8487639, -0.8406609, -1.5612783, 0
1435, 2165505097, -0.86504465, -0.047350064, 0.49636754, 0.0554803, -0.5963567, -0.37012345, -1.5006914, 0
1436, 2165521764, -0.8617012, -0.041693587, 0.5024077, 0.057639066, -0.24459648, 0.6215856, -1.0473728, 0
1439, 2165571765, -0.8533833, -0.03928238, 0.5168726, 0.055134475, -2.4585109, 0.1688271, -0.5514469, 0
1440, 2165588432, -0.8504868, -0.03406481, 0.52177054, 0.05718804, -1.899794, 0.67653954, -0.6191273, 0
1442, 2165621766, -0.84431154, -0.020689743, 0.5317777, 0.06265588, -0.9287929, 0.29399163, -0.5568085, 0
1443, 2165638433, -0.8417009, -0.019026374, 0.5359401, 0.06284118, -1.4009587, -0.087898105, -0.7594662, 0
1446, 2165688434, -0.83200055, -0.006583445, 0.5505232, 0.06825735, -0.3866097, -0.02754207, -2.0792112, 0
1447, 2165705101, -0.8291217, -0.0021008048, 0.5546611, 0.070049, 0.06393052, -0.96477693, -2.4751625, 0
1449, 2165738435, -0.8252057, 7.3230267E-4, 0.55997026, 0.073968336, -2.0288444, -0.7170375, -1.980514, 0
1450, 2165755102, -0.82292205, 0.0022349246, 0.56297475, 0.07652942, -2.070994, -0.59988093, -1.7811775, 0
1451, 2165771769, -0.82052636, 0.0028405022, 0.5661619, 0.0786905, -1.3078954, -0.5000842, -1.8412638, 0
1453, 2165805103, -0.81674415, 0.0012625046, 0.57138556, 0.08030573, -1.2671468, -0.5608345, -2.1245093, 0
1454, 2165821770, -0.81552166, -7.1808696E-5, 0.5730305, 0.08101542, -1.6918151, -1.0852596, -1.4462719, 0
1455, 2165838437, -0.8147253, -0.0019129254, 0.5741892, 0.080802925, -1.870653, -1.146262, -0.82467556, 0
1457, 2165871771, -0.813915, -0.0033769272, 0.5752793, 0.08116554, -0.9375955, -0.946403, -0.46544456, 0
1458, 2165888438, -0.814549, -0.0034883972, 0.57428384, 0.08184833, -1.6962128, -0.8211448, -0.90404415, 0
1459, 2165905105, -0.81582886, -0.0026686005, 0.57213837, 0.08412513, -1.6326443, -0.35906893, -0.8929138, 0
1461, 2165938439, -0.8220128, -0.004548719, 0.5625864, 0.08816821, -2.279484, -0.18187934, -2.111237, 0
1462, 2165955106, -0.8266119, -0.0066029783, 0.5555092, 0.08989824, -2.4150307, 0.09605205, -3.1285176, 0
1463, 2165971773, -0.8320023, -0.006658258, 0.5472467, 0.090840265, -2.6915956, 0.7961699, -4.193584, 0
1465, 2166005107, -0.84437734, 9.133853E-4, 0.5276487, 0.09282221, -3.7035587, -1.0880741, -6.100562, 0
1466, 2166021774, -0.8503787, 0.0063909404, 0.5176567, 0.094074175, -2.9155736, 0.19498524, -5.9360085, 0
1468, 2166055108, -0.8621092, 0.0056975577, 0.49851182, 0.09068729, -1.9699019, -1.9849037, -6.3625975, 0
1469, 2166071775, -0.8671211, 0.0028847028, 0.48963594, 0.091392145, -0.85385984, -1.3940879, -4.345895, 0
1470, 2166088442, -0.8704357, -0.0018256251, 0.48325676, 0.09383146, 3.6660335, -1.1385467, -0.68737507, 0
1473, 2166138443, -0.8771828, -0.0061641894, 0.46883985, 0.103462994, 10.168828, -2.6338036, 9.496267, 0
1474, 2166155110, -0.87918514, -0.011218175, 0.4641017, 0.107332565, 9.486731, -3.150904, 10.827024, 0
1476, 2166188444, -0.8812917, -0.03810306, 0.45824477, 0.1090333, 5.866555, -4.2678285, 8.962805, 0
1477, 2166205111, -0.8818246, -0.04930011, 0.456831, 0.1061283, 2.3359115, 0.37624434, 6.1342583, 0
1478, 2166221778, -0.88247377, -0.05564961, 0.45559612, 0.10285208, 0.18294625, 6.0245028, 5.4322453, 0
1480, 2166255112, -0.8866748, -0.06778009, 0.44866303, 0.08898325, -5.0225167, 3.086748, 9.605764, 0
1481, 2166271779, -0.8891148, -0.07022327, 0.4450302, 0.080589674, -5.2457523, 0.11705491, 7.941515, 0
1482, 2166288446, -0.8906932, -0.07167579, 0.4426558, 0.07474781, -2.1984358, -0.4392317, 6.2252445, 0
1484, 2166321780, -0.89304197, -0.07624696, 0.43900985, 0.06273596, -0.78548354, 0.5807179, 1.2810373, 0
1485, 2166338447, -0.8931624, -0.078666285, 0.43920994, 0.056302752, -1.1625854, 0.79789674, 0.058959007, 0
1488, 2166388448, -0.88956004, -0.081106305, 0.4475996, 0.041979704, -0.35160667, 1.6745417, -0.48425198, 0
1489, 2166405115, -0.8882234, -0.08420521, 0.45014045, 0.03667957, -0.526618, 1.0903983, -0.7790384, 0
1490, 2166421782, -0.8870673, -0.08564964, 0.45251486, 0.031768132, -1.0347843, 0.12404737, -1.4671125, 0
1492, 2166455116, -0.8848254, -0.08036855, 0.45822, 0.025736757, -0.79984355, 0.5734037, -2.2687411, 0
1493, 2166471783, -0.88362676, -0.07746011, 0.4611702, 0.022996288, -0.47686914, 0.7719857, -2.7936769, 0
1494, 2166488450, -0.88263047, -0.07432163, 0.4637327, 0.01987372, -0.39528623, 0.8433356, -3.6718903, 0
1496, 2166521784, -0.8812344, -0.062383626, 0.46828777, 0.015630271, -0.35543543, 0.069278665, -4.032905, 0
1497, 2166538451, -0.880481, -0.055208523, 0.47066596, 0.013483662, -0.5086826, -0.22537437, -4.1151958, 0
1499, 2166571785, -0.8773271, -0.04344929, 0.47789714, 0.005172562, 0.2242881, -0.7248384, -4.5517025, 0
1500, 2166588452, -0.87499535, -0.040951297, 0.48239934, -2.5722384E-4, 0.59221905, -0.9558263, -3.8880296, 0
1503, 2166638453, -0.86603796, -0.015069239, 0.499668, -0.009279758, 1.3597598, 1.8924612, 0.14564419, 0
1504, 2166655120, -0.8627781, -0.008693228, 0.5054167, -0.009770066, 1.5917823, 1.3692106, 0.8706999, 0
1505, 2166671787, -0.8596331, -0.006270118, 0.51079726, -0.008994084, 1.335941, 0.29265332, 1.8405762, 0
1507, 2166705121, -0.85335016, -0.0033121314, 0.521323, -0.002853386, 0.8180163, 0.80034304, 2.1383371, 0
1508, 2166721788, -0.8496402, -4.445575E-5, 0.52736276, 0.0018635914, 0.17362128, -0.7200878, 1.643836, 0
1509, 2166738455, -0.84672374, -0.0018846467, 0.53199744, 0.006119717, -1.143861, -3.6717355, -0.182518, 0
1512, 2166788456, -0.84061533, 0.005895285, 0.541351, 0.016534429, -6.0745807, -2.8022937E-4, -3.574871, 0
1513, 2166805123, -0.8388665, 0.0071154963, 0.5438428, 0.02214973, -5.8727922, 1.2581182, -1.9816618, 0
1515, 2166838457, -0.8352504, 0.0018088166, 0.5489084, 0.032498583, -4.5021963, 2.2835536, -0.19711304, 0
1516, 2166855124, -0.8325976, 0.011448957, 0.55217046, 0.041967873, -3.3427851, 3.9403608, -1.5231943, 0
1519, 2166905125, -0.83251834, 0.021445747, 0.55029917, 0.060226675, -1.1553158, 0.485504, -4.5102987, 0
1520, 2166921792, -0.8330473, 0.028091887, 0.5487786, 0.06393817, -1.4758971, 1.0170499, -5.2034254, 0
1522, 2166955126, -0.8347824, 0.0510916, 0.54287976, 0.07623953, -0.40576944, 3.4974587, -6.2001653, 0
1523, 2166971793, -0.8364476, 0.05775194, 0.5385061, 0.08387196, -0.07554615, 4.6927176, -7.3285375, 0
1524, 2166988460, -0.837526, 0.061105225, 0.5349804, 0.09281849, 1.4892145, 4.776092, -7.752807, 0
1527, 2167038461, -0.84408545, 0.061921004, 0.5198449, 0.115973696, -0.07405566, -4.6265454, 1.3477612, 0
1528, 2167055128, -0.8475162, 0.060392007, 0.51334655, 0.12061301, -0.18256359, -6.075406, 4.655013, 0
1530, 2167088462, -0.8537448, 0.07514774, 0.4985395, 0.13013199, 4.0612507, -7.4727683, 7.731989, 0
1532, 2167121796, -0.862263, 0.08046024, 0.48239014, 0.13164854, 7.2878575, -7.6410766, 9.490385, 0
1534, 2167155130, -0.87176037, 0.07560463, 0.46722928, 0.12656093, 7.165814, -5.6499166, 9.781059, 0
1535, 2167171797, -0.8751835, 0.08130963, 0.46042103, 0.124330014, 7.078921, -5.553648, 8.297033, 0
1536, 2167188464, -0.8770656, 0.09003599, 0.45475024, 0.1259149, 5.273852, -4.0076995, 6.1719227, 0
1538, 2167221798, -0.878227, 0.10463207, 0.44631186, 0.1363023, -0.7344636, -2.0087924, 1.7207727, 0
1539, 2167238465, -0.8784015, 0.10845717, 0.44423917, 0.13893376, -4.250871, -1.7709864, 1.4089298, 0
1540, 2167255132, -0.87977576, 0.1092083, 0.44218048, 0.1361909, -6.1016054, -1.9889414, 2.2971287, 0
1542, 2167288466, -0.88356864, 0.10484882, 0.43740183, 0.13036916, -3.5877006, 2.6075737, 5.6281137, 0
1543, 2167305133, -0.8852536, 0.101999626, 0.43507215, 0.1289857, -2.9424572, 3.4335344, 4.8165026, 0
1544, 2167321800, -0.88647306, 0.09879836, 0.43346128, 0.12852603, -2.594244, 3.4238527, 2.6916075, 0
1546, 2167355134, -0.8879968, 0.09230748, 0.43286124, 0.12480038, -1.4256349, 0.6994865, -1.3742161, 0
1549, 2167405135, -0.8873344, 0.08371276, 0.4379613, 0.11757091, -1.0915453, 0.66855675, -1.0909595, 0
1550, 2167421802, -0.8862749, 0.08381296, 0.44071445, 0.115178876, -1.6697216, 0.76791835, -0.9970608, 0
1551, 2167438469, -0.88468826, 0.083865, 0.4446246, 0.112273864, -1.8189372, 0.5970069, -1.2733088, 0
1553, 2167471803, -0.8807795, 0.077635475, 0.45466736, 0.10714793, -1.6812924, 0.30424836, -1.154788, 0
1554, 2167488470, -0.8783281, 0.073262736, 0.46037954, 0.1059528, -1.4691759, 0.05635192, -0.8087692, 0
1555, 2167505137, -0.8754372, 0.06889186, 0.46662644, 0.105482034, -1.3667806, 0.30872363, -1.3072004, 0
1557, 2167538471, -0.8694779, 0.059031077, 0.47878122, 0.10627876, -1.6144661, 0.38499686, -1.2699146, 0
1558, 2167555138, -0.8666077, 0.053003572, 0.4847622, 0.10578513, -1.7628148, 0.59448165, -1.4035854, 0
1559, 2167571805, -0.8637762, 0.04680851, 0.49043998, 0.10569455, -1.6161156, 0.58269894, -1.1996422, 0
1561, 2167605139, -0.8585712, 0.036197707, 0.5009568, 0.10291137, -1.4394885, 0.2256432, -1.5665045, 0
1563, 2167638473, -0.8535569, 0.032707468, 0.5102432, 0.10012932, -1.3048382, 0.7590172, -2.223547, 0
1565, 2167671807, -0.84745204, 0.034496367, 0.5207129, 0.09744834, -0.9101253, 1.5101659, -2.688756, 0
1566, 2167688474, -0.8445846, 0.03615234, 0.5253534, 0.09683405, -0.9990009, 1.6007135, -2.6749673, 0
1567, 2167705141, -0.8417827, 0.038428508, 0.529648, 0.09696054, -1.2351221, 1.9645276, -2.4291182, 0
1569, 2167738475, -0.83648086, 0.044508178, 0.5370364, 0.09956671, -1.7630455, 1.9214497, -1.8923588, 0
1570, 2167755142, -0.8334824, 0.05033032, 0.5405493, 0.10287601, -1.6495849, 1.8421421, -2.1937237, 0
1576, 2167855144, -0.8298241, 0.07444022, 0.5404841, 0.11717813, 0.4534613, 1.817166, -4.34769, 0
1577, 2167871811, -0.833948, 0.07747173, 0.5332364, 0.11912501, -0.27187815, 0.49535924, -5.828786, 0
1578, 2167888478, -0.8386589, 0.07866024, 0.5248355, 0.12253401, -0.60284984, 1.135884, -6.1250973, 0
1580, 2167921812, -0.84574103, 0.09055003, 0.50881076, 0.1328061, 1.7819154, 3.1136067, -8.166775, 0
1582, 2167955146, -0.853252, 0.11217932, 0.48886564, 0.14279467, 0.7191583, -0.44300815, -2.3553467, 0
1584, 2167988480, -0.86253625, 0.10938662, 0.47256196, 0.14406233, 3.510465, -4.734986, 2.3512497, 0
1585, 2168005147, -0.8668644, 0.1070574, 0.4656816, 0.14222741, 4.720522, -7.999292, 5.5131063, 0
1586, 2168021814, -0.87142223, 0.10791108, 0.45776284, 0.13940847, 8.172812, -7.191778, 8.153946, 0
1589, 2168071815, -0.88720906, 0.10347026, 0.43234345, 0.12343438, 7.9216185, -5.472129, 9.623964, 0
1590, 2168088482, -0.89120007, 0.106467634, 0.42499703, 0.117505014, 7.373548, -5.366971, 8.850254, 0
1592, 2168121816, -0.89618546, 0.13035475, 0.4093422, 0.11091228, 1.7376331, -3.1810257, 4.708353, 0
1593, 2168138483, -0.89740896, 0.14289825, 0.40111828, 0.11551925, -4.4950943, -0.8501058, 2.726636, 0
1594, 2168155150, -0.8980125, 0.1505613, 0.39558578, 0.12008245, -6.3091626, 4.5337796, 1.0272503, 0
1596, 2168188484, -0.90256417, 0.13921648, 0.39031267, 0.11685741, -4.0850177, -0.89104444, 9.2279415, 0
1598, 2168221818, -0.9054222, 0.13583572, 0.38342524, 0.12143864, -2.589758, 2.7675486, 5.164896, 0
1600, 2168255152, -0.90576434, 0.13551937, 0.37947816, 0.13124351, -3.0162747, 1.3297633, 0.81017303, 0
1601, 2168271819, -0.905446, 0.13276698, 0.38000908, 0.13467243, -2.4147027, 0.34005898, 0.064492226, 0
1603, 2168305153, -0.90416545, 0.12418363, 0.38446164, 0.13876417, -1.1005621, -1.2901641, 0.17716885, 0
1604, 2168321820, -0.90302783, 0.120278336, 0.38787207, 0.14011487, -1.5948094, -1.6997645, -0.58380413, 0
1607, 2168371821, -0.89912826, 0.10185604, 0.4024449, 0.138691, -1.32666, -0.80309445, -1.5444307, 0
1608, 2168388488, -0.8975423, 0.0946322, 0.408354, 0.13679355, -0.82296485, -0.62838507, -2.0705934, 0
1611, 2168438489, -0.891421, 0.07234214, 0.42810896, 0.12984967, -0.88833165, 0.11806424, -2.947597, 0
1612, 2168455156, -0.88904154, 0.06486383, 0.43503806, 0.12705508, -0.36912405, 0.026188118, -2.2988958, 0
1613, 2168471823, -0.886368, 0.058390573, 0.44227424, 0.123851545, -0.88170004, 0.0090245595, -2.3551583, 0
1615, 2168505157, -0.8795622, 0.04616648, 0.45855534, 0.118190244, -0.83480275, -0.28997657, -2.8176188, 0
1616, 2168521824, -0.875413, 0.041018642, 0.4674394, 0.116073035, -0.882137, -0.07341982, -2.2622538, 0
1617, 2168538491, -0.8705823, 0.03706939, 0.47720715, 0.11396794, -1.2135209, -0.18767618, -2.3424559, 0
1619, 2168571825, -0.85967636, 0.031733714, 0.49688682, 0.11426391, -0.7496383, 0.7332693, -2.479258, 0
1621, 2168605159, -0.8487874, 0.026161151, 0.5149183, 0.11720857, -0.18273883, 1.2605212, -2.2103586, 0
1623, 2168638493, -0.8399134, 0.017375685, 0.5292316, 0.11899903, -0.8267481, 2.6201882, -0.12150192, 0
1624, 2168655160, -0.8354352, 0.017169995, 0.5358555, 0.120893806, -1.0719223, 2.7561495, -0.11391544, 0
1625, 2168671827, -0.8314578, 0.016314179, 0.5416587, 0.122558385, -0.921387, 2.089206, -0.09368515, 0
1627, 2168705161, -0.82418126, 0.016304253, 0.55150694, 0.12768131, -1.229442, 1.6295809, -0.6349354, 0
1629, 2168738495, -0.81788677, 0.023116572, 0.5588601, 0.1349259, -1.0506682, 1.6248368, 0.21457958, 0
1631, 2168771829, -0.81223774, 0.032668598, 0.5639246, 0.14558417, -2.1562629, 1.0854552, 0.0697422, 0
1632, 2168788496, -0.80873144, 0.03659206, 0.56740767, 0.15055315, -1.733806, -0.18603587, -0.685338, 0
1634, 2168821830, -0.80443734, 0.042745836, 0.57077914, 0.15895823, -1.8188378, 0.7574168, 0.23734379, 0
1635, 2168838497, -0.80241424, 0.047703087, 0.572172, 0.16272043, -1.2478026, 0.86116624, 0.16168022, 0
1636, 2168855164, -0.8013207, 0.052641682, 0.5723901, 0.16579069, -1.8551975, 0.78720194, -0.021821976, 0
1638, 2168888498, -0.79801136, 0.060942017, 0.57543546, 0.1683482, -2.2544007, 0.884936, -0.6143198, 0
1639, 2168905165, -0.7963962, 0.06559752, 0.577196, 0.16821939, -2.0558376, 1.0248433, -0.7216797, 0
1640, 2168921832, -0.7954881, 0.07510997, 0.5767524, 0.17004952, -1.4775983, 1.7751586, -0.10332394, 0
1642, 2168955166, -0.8003363, 0.09203195, 0.56586486, 0.17547649, -1.0771592, 0.70789784, -2.4427476, 0
1644, 2168988500, -0.81166697, 0.09839666, 0.54699534, 0.17976151, 0.4289502, 0.9803248, -3.5418935, 0
1646, 2169021834, -0.82537866, 0.10987269, 0.52256423, 0.1833248, 1.0806426, 0.13253918, -5.413741, 0
1647, 2169038501, -0.83190995, 0.11363883, 0.50993586, 0.18703139, 1.0388818, 0.7399642, -7.2404394, 0
1648, 2169055168, -0.8375632, 0.117651865, 0.49792367, 0.19162762, 2.4117434, 0.64035547, -9.358582, 0
1651, 2169105169, -0.8557057, 0.1043917, 0.46666935, 0.19771975, -0.45486385, -3.0692027, -3.0077043, 0
1652, 2169121836, -0.86012864, 0.10485864, 0.4583407, 0.19776289, 3.2082946, -0.93250513, -0.54528236, 0
1654, 2169155170, -0.8672736, 0.107681006, 0.44468352, 0.19621599, 6.0571437, -6.1223106, 5.1198473, 0
1655, 2169171837, -0.8705261, 0.10853047, 0.43832612, 0.1956499, 7.857376, -7.219126, 7.13443, 0
1657, 2169205171, -0.87832373, 0.10797462, 0.42535642, 0.18964179, 7.697248, -4.719814, 10.171164, 0
1658, 2169221838, -0.88178587, 0.11145608, 0.41943944, 0.18467472, 7.870433, -3.7975192, 10.071066, 0
1661, 2169271839, -0.8855825, 0.14405651, 0.40356332, 0.17925142, -4.0231204, -7.2323065, 6.2861958, 0
1662, 2169288506, -0.8869116, 0.14607695, 0.39918935, 0.18083236, -5.8751917, -3.5986571, 8.127659, 0
1663, 2169305173, -0.88816845, 0.14473277, 0.39637497, 0.18193203, -6.802223, 1.8091514, 6.83848, 0
1665, 2169338507, -0.89007044, 0.13102914, 0.39915323, 0.17687792, -4.972743, 1.1198529, 5.5890207, 0
1666, 2169355174, -0.89059836, 0.11881675, 0.4034501, 0.1730553, -4.1834116, -0.37005386, 4.140026, 0
1667, 2169371841, -0.891084, 0.10623819, 0.40841067, 0.16699266, -2.9617689, -0.39158374, 3.2899227, 0
1670, 2169421842, -0.89049155, 0.06847953, 0.4256517, 0.1454618, -2.3286345, -0.28609043, 1.6293917, 0
1673, 2169471843, -0.8891685, 0.032554574, 0.43908942, 0.12459188, -1.7422982, 3.537278, -1.3468494, 0
1674, 2169488510, -0.88849103, 0.024243927, 0.44256106, 0.118905626, -1.3367267, 3.99452, -2.6197252, 0
1675, 2169505177, -0.8864988, 0.020727582, 0.44720033, 0.11706863, -0.77678216, 4.992676, -4.1031656, 0
1678, 2169555178, -0.87688446, -0.010095021, 0.46958107, 0.10231568, 1.6071728, -0.28144348, -8.040731, 0
1679, 2169571845, -0.87255394, -0.023803635, 0.47886372, 0.093678385, 0.9620904, -1.9641575, -8.034904, 0
1681, 2169605179, -0.8629128, -0.031289976, 0.49753284, 0.08286554, 1.5381901, 0.48630768, -6.590368, 0
1682, 2169621846, -0.8585288, -0.024782132, 0.5059868, 0.07933982, 0.78617305, 1.4248749, -4.545544, 0
1683, 2169638513, -0.85437566, -0.017914051, 0.5138216, 0.07557592, 0.5281689, 0.7505071, -3.4687815, 0
1685, 2169671847, -0.8467505, -0.009338876, 0.52733195, 0.069646046, -0.2821547, 0.86930174, -2.040041, 0
1686, 2169688514, -0.8436121, -0.0078105833, 0.5326216, 0.06763903, -1.0765016, 0.96688676, -0.15529251, 0
1688, 2169721848, -0.8386247, 2.8117374E-4, 0.54057723, 0.06699251, -0.73936254, 1.0871073, 2.3224955, 0
1689, 2169738515, -0.8374122, 0.0049991254, 0.54222596, 0.06863089, -2.1115203, 0.35565412, 3.321721, 0
1690, 2169755182, -0.83621067, 0.008853067, 0.5436284, 0.071726784, -2.3052497, 1.2430828, 4.098447, 0
1692, 2169788516, -0.83462465, 0.01650785, 0.54443103, 0.08201811, -1.6917655, 1.7913435, 3.4024134, 0
1693, 2169805183, -0.8332447, 0.023024095, 0.5453174, 0.08834716, -1.2184312, 1.7681944, 2.7153254, 0
1694, 2169821850, -0.83184737, 0.028517302, 0.54614973, 0.094552934, -0.04957249, 0.92908746, 1.636529, 0
1696, 2169855184, -0.8305411, 0.03524, 0.5458145, 0.1051149, 0.24593712, -0.25027096, -0.2602129, 0
1697, 2169871851, -0.83014435, 0.039665177, 0.5450751, 0.11037819, 0.20670165, -0.100110166, -1.0049849, 0
1698, 2169888518, -0.829267, 0.048079398, 0.54429364, 0.11726865, 0.02275337, 0.59791714, -1.7004395, 0
1700, 2169921852, -0.82869416, 0.058118656, 0.5415967, 0.12870352, -0.6313644, 0.076527424, -3.0381002, 0
1701, 2169938519, -0.82902724, 0.05903914, 0.5399972, 0.13279389, -0.7686861, -0.009854407, -2.6852922, 0
1702, 2169955186, -0.82968986, 0.059813105, 0.53822297, 0.1354852, -1.9275297, -0.73208904, -2.6702003, 0
1705, 2170005187, -0.83169514, 0.056634378, 0.53364867, 0.14247057, -0.30524585, 1.1300648, 0.64138603, 0
1706, 2170021854, -0.83313715, 0.05597528, 0.53061104, 0.1456168, -0.20760733, 1.5019362, 2.7333174, 0
1708, 2170055188, -0.8344259, 0.05834529, 0.5264721, 0.15218279, -1.3082561, 0.50718975, 1.7539568, 0
1709, 2170071855, -0.8352343, 0.060541645, 0.5238028, 0.15605113, -1.327627, 0.38049376, 0.24749565, 0
1711, 2170105189, -0.83787024, 0.07016179, 0.5156961, 0.16465503, -0.26677746, -0.22602664, -2.0792656, 0
1712, 2170121856, -0.84053797, 0.07121659, 0.5099746, 0.16838418, -1.0871553, -0.53544635, -3.0318527, 0
1713, 2170138523, -0.84391767, 0.07131489, 0.50340843, 0.17117201, -1.608795, -1.1346011, -4.1482105, 0
1715, 2170171857, -0.85173136, 0.07656049, 0.4877107, 0.17559466, -2.1015153, -2.0885081, -6.97752, 0
1716, 2170188524, -0.85571206, 0.07830904, 0.47984272, 0.17714065, -2.3141167, -1.1019359, -7.8809824, 0
1717, 2170205191, -0.8590884, 0.08006147, 0.47303888, 0.17831016, -1.7121569, -0.9095365, -8.928625, 0
1720, 2170255192, -0.8676923, 0.065894604, 0.45903322, 0.17905194, 0.93105024, -2.6620295, -10.455084, 0
1721, 2170271859, -0.87055916, 0.049879294, 0.45611525, 0.17776611, 0.63911647, -4.1978116, -9.482378, 0
1723, 2170305193, -0.8714685, 0.058582146, 0.44892952, 0.18861654, 2.8472793, 4.710142, 7.100321, 0
1724, 2170321860, -0.870349, 0.08313233, 0.44262633, 0.19916552, 10.924767, 4.058423, 11.983122, 0
1725, 2170338527, -0.8708923, 0.0792593, 0.43802443, 0.20833185, 9.224809, -1.4110285, 14.4337845, 0
1727, 2170371861, -0.8747278, 0.048930187, 0.43066895, 0.21675934, 6.055235, -8.722644, 16.535656, 0
1728, 2170388528, -0.8774999, 0.04066509, 0.42744133, 0.2136294, 4.680123, -7.739444, 12.684834, 0
1729, 2170405195, -0.879922, 0.034215022, 0.4251162, 0.20939416, 3.824339, -4.6681924, 7.939888, 0
1731, 2170438529, -0.8821633, 0.016493268, 0.42295656, 0.20646307, 3.0343728, 5.2414513, 3.0581827, 0
1732, 2170455196, -0.8840297, 0.0043690875, 0.42193514, 0.2011127, -1.3356388, 5.345062, 2.170186, 0
1735, 2170505197, -0.8885111, -0.003759222, 0.41964173, 0.18557453, -1.2158725, 1.8764708, 5.1746044, 0
1736, 2170521864, -0.88987625, -0.0058352053, 0.41872534, 0.18099406, -1.6709292, 1.0202287, 3.9715233, 0
1738, 2170555198, -0.89155734, -0.006041633, 0.4192526, 0.17122936, -2.1351278, 0.7407972, 0.5673342, 0
1739, 2170571865, -0.8917364, -0.005050905, 0.42085183, 0.16633527, -1.6414505, 0.395233, -0.42818356, 0
1740, 2170588532, -0.89142406, -0.0034552142, 0.42316446, 0.16213022, -1.3584636, 0.4143709, -0.7204199, 0
1742, 2170621866, -0.8889291, 6.419141E-4, 0.430949, 0.15521164, -0.56387377, 0.53702027, -1.2397947, 0
1743, 2170638533, -0.88707393, 0.0032027364, 0.43588397, 0.15197961, -0.7747149, 0.66896397, -1.7878113, 0
1744, 2170655200, -0.8848219, 0.004839031, 0.44145745, 0.14894685, -0.89494294, 0.5282292, -1.9610415, 0
1746, 2170688534, -0.87902236, 0.010224702, 0.4545977, 0.14338446, -0.86956483, 0.54867125, -1.8604207, 0
1747, 2170705201, -0.87596494, 0.011885513, 0.46139053, 0.1402362, -1.065011, 0.13451448, -2.061449, 0
1750, 2170755202, -0.865077, 0.01967781, 0.48269185, 0.13515234, -0.8877083, 0.6811897, -1.695159, 0
1751, 2170771869, -0.86067224, 0.024974383, 0.4905176, 0.1342198, -1.0097984, 1.0953362, -2.2471523, 0
1752, 2170788536, -0.8563615, 0.03173437, 0.49784955, 0.13336807, -0.75331485, 1.3871914, -2.3086123, 0
1754, 2170821870, -0.8481941, 0.03856948, 0.51126117, 0.13301964, -1.8489031, 0.74285346, -2.1759052, 0
1755, 2170838537, -0.8438903, 0.041479487, 0.51791924, 0.13375887, -1.7513134, 0.8410515, -2.1927433, 0
1756, 2170855204, -0.8395013, 0.04477475, 0.5246194, 0.13420273, -1.3805966, 0.5941042, -2.1737347, 0
1758, 2170888538, -0.8309024, 0.05340411, 0.5364923, 0.1375803, -1.2248065, -0.13078861, -1.1720886, 0
1759, 2170905205, -0.826363, 0.058452062, 0.54240376, 0.13967475, -1.6725584, -0.14320771, -1.7880468, 0
1760, 2170921872, -0.82138664, 0.06280378, 0.5487896, 0.14217182, -0.6377178, -0.35255793, -1.213234, 0
1762, 2170955206, -0.81476164, 0.068009675, 0.55741155, 0.14433819, -0.8663427, -1.0029031, -0.47303295, 0
1763, 2170971873, -0.8114777, 0.07065148, 0.5614695, 0.14583337, -0.4357537, -0.559322, -0.2657137, 0
1764, 2170988540, -0.80848116, 0.07601556, 0.56429327, 0.14884922, -0.3049468, 0.06701304, 0.089362144, 0
1766, 2171021874, -0.80195934, 0.088767, 0.5688921, 0.15920573, -0.4342517, -1.0072933, 0.3618803, 0
