sep=,
DeviceTag:,Xsens_DOT_1,,,,,,,,,,,,,,,,,
FirmwareVersion:,3.0.0,,,,,,,,,,,,,,,,,
AppVersion:,2023.6.1,,,,,,,,,,,,,,,,,
SyncStatus:,Synced,,,,,,,,,,,,,,,,,
OutputRate:,60Hz,,,,,,,,,,,,,,,,,
FilterProfile:,General,,,,,,,,,,,,,,,,,
Measurement Mode:,Sensor fusion Mode - Extended (Quaternion),,,,,,,,,,,,,,,,,
StartTime:,2025-05-05 11:42:28.606 +0200,,,,,,,,,,,,,,,,,
 2025,,,,,,,,,,,,,,,,,,,

PacketCounter,SampleTimeFine,Quat_W,Quat_X,Quat_Y,Quat_Z,FreeAcc_X,FreeAcc_Y,FreeAcc_Z,Status
1, 2141604619, 0.7499063, -0.034802184, 0.18178952, 0.6351733, 0.096983664, 0.070483975, 0.35793304, 0
2, 2141621286, 0.7498855, -0.034815416, 0.1818003, 0.63519394, 0.09589889, 0.03156841, 0.34256554, 0
3, 2141637953, 0.7498864, -0.034843408, 0.181814, 0.6351876, 0.031893104, 0.0621038, 0.3467455, 0
4, 2141654620, 0.74989665, -0.03488484, 0.18179788, 0.63517773, 0.030656785, 0.040641695, 0.38009357, 0
5, 2141671287, 0.74987304, -0.034935348, 0.18178585, 0.63520634, 0.064260185, -0.0064672357, 0.37585926, 0
6, 2141687954, 0.74987906, -0.034957215, 0.18176559, 0.6352039, 0.06127703, -0.013457883, 0.41910362, 0
7, 2141704621, 0.7498727, -0.034969352, 0.1817605, 0.63521224, -0.0037619465, 0.011944085, 0.40956497, 0
8, 2141721288, 0.7499045, -0.034989882, 0.18177414, 0.63516974, -0.023453467, 0.09252665, 0.42094898, 0
9, 2141737955, 0.749911, -0.035025094, 0.18176465, 0.63516283, -0.0048832064, 0.0026606424, 0.38496304, 0
10, 2141754622, 0.7499404, -0.035031218, 0.18177372, 0.6351251, 0.024546172, -0.09738538, 0.3424387, 0
11, 2141771289, 0.75001293, -0.035036236, 0.18178004, 0.63503736, 0.04401267, -2.8592895E-4, 0.38241386, 0
12, 2141787956, 0.75005704, -0.03510006, 0.18172735, 0.6349968, 0.062153447, 0.037622906, 0.34492683, 0
13, 2141804623, 0.7500905, -0.035192225, 0.18162274, 0.6349822, 0.12708217, 0.037991, 0.37709713, 0
14, 2141821290, 0.7501536, -0.03527605, 0.18150385, 0.63493687, 0.13863958, 0.039473727, 0.35992432, 0
15, 2141837957, 0.75022256, -0.03537973, 0.18138225, 0.6348843, 0.08858406, 0.07585599, 0.36470318, 0
16, 2141854624, 0.75029147, -0.035503145, 0.18121843, 0.6348429, 0.029498646, 0.0707067, 0.37523746, 0
17, 2141871291, 0.7503327, -0.03563492, 0.18104935, 0.634835, 0.044823706, 0.015973354, 0.37530994, 0
18, 2141887958, 0.7503636, -0.03573555, 0.18085864, 0.6348472, 0.07082186, 0.03599732, 0.3774643, 0
19, 2141904625, 0.7503849, -0.03581304, 0.18067952, 0.63486856, 0.062291782, 0.022818381, 0.37611675, 0
20, 2141921292, 0.7504169, -0.035851713, 0.18052025, 0.6348741, 0.028882366, 0.026974326, 0.39076042, 0
21, 2141937959, 0.750423, -0.035881493, 0.18036523, 0.6349089, 0.061128803, 0.06457887, 0.33778954, 0
22, 2141954626, 0.75042325, -0.035907567, 0.18021442, 0.63495004, 0.065028585, 0.06877421, 0.36277962, 0
23, 2141971293, 0.7504078, -0.035919674, 0.18007886, 0.63500607, 0.004743085, -0.04757747, 0.40260315, 0
24, 2141987960, 0.7504066, -0.035942286, 0.1799936, 0.63503027, -0.02144261, -0.069555335, 0.37866974, 0
25, 2142004627, 0.75047886, -0.03596887, 0.17990983, 0.6349673, -0.023613263, -0.0032981571, 0.41698837, 0
26, 2142021294, 0.75050175, -0.03600207, 0.17981896, 0.6349641, 0.02352946, 0.028939899, 0.40748692, 0
27, 2142037961, 0.7505174, -0.03604117, 0.17970829, 0.6349747, 0.028117456, -0.0064833285, 0.4222088, 0
28, 2142054628, 0.7504918, -0.036092117, 0.1796177, 0.6350277, 0.0265863, -0.04773488, 0.32516575, 0
29, 2142071295, 0.7505808, -0.03610918, 0.17951503, 0.6349505, 0.048093136, 0.109891936, 0.31698704, 0
30, 2142087962, 0.75066566, -0.036136135, 0.17937942, 0.6348872, 0.1139424, 0.1694839, 0.32026577, 0
31, 2142104629, 0.7506742, -0.03619235, 0.17928858, 0.6348994, 0.15642758, 0.13372557, 0.3710804, 0
32, 2142121296, 0.75070214, -0.036238465, 0.1792305, 0.6348803, 0.024100006, 0.026541717, 0.46783066, 0
33, 2142137963, 0.75067514, -0.036290392, 0.17920439, 0.6349164, -0.11369334, -0.08296008, 0.36987782, 0
34, 2142154630, 0.7507203, -0.036332384, 0.1792101, 0.6348591, -0.14250426, -0.054394558, 0.42999458, 0
35, 2142171297, 0.7507543, -0.03634426, 0.1792191, 0.6348157, -0.084862836, -0.023277199, 0.43327236, 0
36, 2142187964, 0.75074786, -0.0363406, 0.17926708, 0.63481, -0.05852163, 0.012118927, 0.40885448, 0
37, 2142204631, 0.7507322, -0.036327176, 0.17933989, 0.6348088, 0.04495453, 0.044670407, 0.36240292, 0
38, 2142221298, 0.75073063, -0.03631398, 0.17941469, 0.6347903, 0.16115731, 0.090252966, 0.3836565, 0
39, 2142237965, 0.75074285, -0.0363229, 0.17952722, 0.6347432, 0.20301242, 0.08368185, 0.3700676, 0
40, 2142254632, 0.7507379, -0.036342114, 0.17968963, 0.63470197, 0.056597468, 0.0274104, 0.33075428, 0
41, 2142271299, 0.7507568, -0.03637633, 0.17987783, 0.6346246, -0.100908875, -0.008907271, 0.37674809, 0
42, 2142287966, 0.75076795, -0.036438324, 0.18005525, 0.6345575, -0.078304484, -0.06335592, 0.39571762, 0
43, 2142304633, 0.75079226, -0.036486357, 0.18022558, 0.6344776, -0.03618459, -0.09536437, 0.32790184, 0
44, 2142321300, 0.7507994, -0.036510576, 0.18037565, 0.63442504, 0.06280994, -0.08147846, 0.37473583, 0
45, 2142337967, 0.7507561, -0.03655869, 0.18053189, 0.6344291, 0.09957685, 0.08835154, 0.3791647, 0
46, 2142354634, 0.7507169, -0.03662118, 0.18069403, 0.6344258, 0.120307915, 0.17029028, 0.38061428, 0
47, 2142371301, 0.7506856, -0.036699306, 0.18084203, 0.6344161, 0.14055777, 0.16503961, 0.3551092, 0
49, 2142404635, 0.7507203, -0.036832046, 0.18112487, 0.6342865, 0.079925574, 0.0055406066, 0.29498482, 0
50, 2142421302, 0.7507621, -0.036913287, 0.18122606, 0.6342037, 0.06404866, -0.05939896, 0.35855675, 0
51, 2142437969, 0.75078034, -0.036993727, 0.18133606, 0.634146, 0.045046534, -0.11015836, 0.4117632, 0
53, 2142471303, 0.75076354, -0.037066244, 0.18149973, 0.6341145, -0.038487248, 0.09259538, 0.39169312, 0
54, 2142487970, 0.75073856, -0.03710026, 0.181519, 0.6341368, 0.10322311, 0.08072578, 0.3979721, 0
56, 2142521304, 0.75071037, -0.037208825, 0.18165496, 0.6341247, 0.16334055, 0.040507812, 0.32828236, 0
58, 2142554638, 0.750831, -0.037318736, 0.18155974, 0.63400257, 0.015241998, -0.018777324, 0.30233574, 0
60, 2142587972, 0.7509332, -0.037439585, 0.18125765, 0.6339611, 0.09885145, 0.07935999, 0.3343382, 0
61, 2142604639, 0.75099456, -0.037518803, 0.1810857, 0.6339327, 0.09592325, 0.11973371, 0.3291645, 0
62, 2142621306, 0.751018, -0.037631996, 0.1808998, 0.6339514, 0.12072647, 0.04568739, 0.34936905, 0
64, 2142654640, 0.7510484, -0.037840813, 0.1806442, 0.63397586, 0.0056898366, -0.057011, 0.4182005, 0
65, 2142671307, 0.7510602, -0.037915207, 0.18052611, 0.633991, -0.0833053, -0.0512575, 0.39107513, 0
66, 2142687974, 0.75105226, -0.037974283, 0.18038873, 0.63403594, -0.010927269, -0.019245416, 0.36458778, 0
68, 2142721308, 0.75101674, -0.03801997, 0.18020286, 0.6341282, 0.10558125, 0.039711658, 0.41120815, 0
69, 2142737975, 0.75096714, -0.03806693, 0.18014653, 0.6342001, 0.03524946, 0.055812303, 0.4329357, 0
70, 2142754642, 0.7509431, -0.03815443, 0.1800636, 0.6342468, -7.0500874E-4, 1.1957944E-5, 0.37195492, 0
72, 2142787976, 0.7509252, -0.038308457, 0.1797981, 0.6343341, 0.005179822, -0.053112376, 0.38505554, 0
73, 2142804643, 0.7509286, -0.03839109, 0.17964557, 0.6343684, 0.022482889, 0.045676045, 0.34526634, 0
74, 2142821310, 0.7509386, -0.03845921, 0.17943132, 0.6344131, 0.07158988, 0.15053, 0.38400364, 0
76, 2142854644, 0.7509309, -0.03853416, 0.17876884, 0.6346046, 0.047488965, 0.19199099, 0.44316292, 0
77, 2142871311, 0.75097656, -0.03852757, 0.17837115, 0.63466287, 0.03241846, 0.04501389, 0.3627596, 0
78, 2142887978, 0.7510105, -0.03852729, 0.17801028, 0.634724, 0.078177795, -0.05167804, 0.3317442, 0
80, 2142921312, 0.7511932, -0.038591858, 0.17748323, 0.6346514, -0.075711936, -0.05747183, 0.41364288, 0
81, 2142937979, 0.75124735, -0.038644195, 0.17726555, 0.63464504, -0.103764474, -0.0067591434, 0.4423313, 0
83, 2142971313, 0.75137377, -0.03885071, 0.1771712, 0.6345091, -0.062216733, -0.18093011, 0.38423157, 0
85, 2143004647, 0.75148934, -0.03908691, 0.17738457, 0.634298, 0.011494454, 0.07622183, 0.37142563, 0
87, 2143037981, 0.75153375, -0.039190058, 0.17760025, 0.63417864, 0.17861037, 0.087776385, 0.2823124, 0
88, 2143054648, 0.75148666, -0.039220322, 0.17779332, 0.63417834, 0.19307373, 0.24426457, 0.43021584, 0
89, 2143071315, 0.75147533, -0.039236, 0.17793986, 0.63415, 0.14538766, 0.23243414, 0.39385223, 0
91, 2143104649, 0.75143826, -0.039330482, 0.17821755, 0.63411, 4.4738912E-4, -0.23143727, 0.31771564, 0
92, 2143121316, 0.75143164, -0.03938385, 0.17837387, 0.63407063, -0.05387556, -0.1481225, 0.4529562, 0
93, 2143137983, 0.7513857, -0.03946502, 0.17851843, 0.63407934, -0.046056278, -0.08480769, 0.38974476, 0
95, 2143171317, 0.75129795, -0.03963035, 0.1788635, 0.63407564, 0.0034923272, 0.039549835, 0.35523605, 0
96, 2143187984, 0.7512822, -0.039710443, 0.17905086, 0.6340363, -0.0071621374, 0.12831265, 0.34520435, 0
97, 2143204651, 0.75128263, -0.039794594, 0.17926142, 0.63397133, 0.0895857, 0.13412516, 0.3659954, 0
100, 2143254652, 0.7513244, -0.039828017, 0.17975143, 0.6337807, 0.018140787, 0.21255188, 0.33724976, 0
101, 2143271319, 0.7513408, -0.039745934, 0.17993967, 0.633713, -0.12045546, 0.18970136, 0.4086361, 0
103, 2143304653, 0.75135374, -0.039501756, 0.18056329, 0.63353586, -0.114437476, -0.24069616, 0.4386921, 0
104, 2143321320, 0.751382, -0.039308913, 0.18099976, 0.63338953, -0.0873428, -0.13840099, 0.45746613, 0
105, 2143337987, 0.7513845, -0.039076712, 0.1813599, 0.6332979, -0.07778535, 0.05671647, 0.38450527, 0
107, 2143371321, 0.7513963, -0.038380653, 0.18218479, 0.6330898, 0.015507266, 0.25303137, 0.31542015, 0
108, 2143387988, 0.7513534, -0.037974592, 0.18272625, 0.6330092, 0.13125049, 0.20562465, 0.31703568, 0
110, 2143421322, 0.75129485, -0.037151955, 0.18369457, 0.6328471, 0.15799725, 8.386206E-4, 0.28051662, 0
111, 2143437989, 0.75127876, -0.036764782, 0.18410723, 0.63276887, 0.0840644, -0.07352296, 0.3778782, 0
112, 2143454656, 0.75121546, -0.036418278, 0.1844844, 0.6327543, 0.052649844, -0.050739676, 0.4412651, 0
115, 2143504657, 0.7511813, -0.03554562, 0.1856507, 0.63250315, -0.018355925, -0.10417285, 0.45727444, 0
116, 2143521324, 0.75109977, -0.035243858, 0.18601286, 0.6325108, -0.02547616, -0.10835478, 0.41144466, 0
118, 2143554658, 0.75086546, -0.034686767, 0.1868377, 0.63257635, 0.04346278, 0.02615219, 0.2580471, 0
120, 2143587992, 0.7506976, -0.03413713, 0.18757802, 0.6325864, 0.22327603, 0.13774058, 0.30737877, 0
122, 2143621326, 0.7505839, -0.033603426, 0.1880343, 0.6326146, 0.16518681, 0.11522378, 0.35001183, 0
123, 2143637993, 0.7505943, -0.033456545, 0.18805765, 0.6326029, 0.0708457, -0.047787294, 0.47269154, 0
124, 2143654660, 0.7506171, -0.03341568, 0.1880439, 0.632582, 0.050361395, -0.23034905, 0.48266602, 0
126, 2143687994, 0.7508284, -0.03352721, 0.18769538, 0.6324291, -0.032232985, -0.31247234, 0.40553665, 0
127, 2143704661, 0.75095594, -0.033683557, 0.18753572, 0.6323167, 0.06799143, -0.08803348, 0.40490723, 0
128, 2143721328, 0.75103474, -0.03383726, 0.18748431, 0.6322303, 0.09835436, 0.1846592, 0.50422955, 0
131, 2143771329, 0.75097585, -0.03413245, 0.18746124, 0.6322909, 0.0279172, -0.091212675, 0.25487137, 0
132, 2143787996, 0.75095487, -0.034182724, 0.1874998, 0.6323016, 0.14029983, 0.06495159, 0.32205963, 0
134, 2143821330, 0.7508511, -0.034255803, 0.1874395, 0.6324388, 0.08152786, 0.1781847, 0.2718773, 0
135, 2143837997, 0.75082, -0.034287885, 0.1872824, 0.6325208, 0.10359654, 0.09011663, 0.29023647, 0
137, 2143871331, 0.7508805, -0.03449894, 0.18691164, 0.6325469, 0.08761786, 0.031647757, 0.5263262, 0
138, 2143887998, 0.75096226, -0.034703683, 0.18663873, 0.63251936, 0.035891067, -0.17232871, 0.41433907, 0
139, 2143904665, 0.75104964, -0.034954358, 0.18638594, 0.63247633, -0.061534736, -0.26954138, 0.42429066, 0
141, 2143937999, 0.7512581, -0.035546914, 0.18581697, 0.63236314, -0.14654005, -0.06611664, 0.39723587, 0
142, 2143954666, 0.7513148, -0.03581958, 0.1856042, 0.63234293, -0.048922013, -0.045448843, 0.31726837, 0
143, 2143971333, 0.75133276, -0.03608112, 0.18551883, 0.6323317, -0.030455777, 0.14836645, 0.40379143, 0
145, 2144004667, 0.7514291, -0.03645094, 0.18543468, 0.6322206, 0.091865376, 0.1592551, 0.25497913, 0
146, 2144021334, 0.7514111, -0.036598008, 0.18540496, 0.63224244, 0.072108775, 0.039505914, 0.32042027, 0
147, 2144038001, 0.751415, -0.03673357, 0.18537866, 0.63223755, 0.06839766, -0.022727523, 0.39457607, 0
149, 2144071335, 0.75164276, -0.037080273, 0.18522137, 0.6319926, 0.048353445, -0.081770204, 0.34844685, 0
150, 2144088002, 0.75172645, -0.03728711, 0.18508524, 0.63192075, -0.039870568, -0.032334335, 0.39582634, 0
151, 2144104669, 0.7518249, -0.03748125, 0.18500896, 0.6318146, -0.02721727, 0.049828414, 0.39406967, 0
153, 2144138003, 0.75194937, -0.037893314, 0.18494046, 0.63166165, 0.06624299, -0.029939672, 0.36006165, 0
154, 2144154670, 0.7519579, -0.038073678, 0.18495484, 0.6316366, 0.090386525, -0.14125915, 0.32748795, 0
155, 2144171337, 0.7519739, -0.038196288, 0.18498433, 0.6316016, 0.026296753, -0.037254468, 0.35709, 0
158, 2144221338, 0.75205934, -0.038410183, 0.1847944, 0.6315423, -0.038289968, 0.10072304, 0.3372202, 0
159, 2144238005, 0.7520506, -0.038406517, 0.18472719, 0.6315726, 0.06502317, 0.025981538, 0.336792, 0
161, 2144271339, 0.7520402, -0.03849812, 0.1844798, 0.63165176, 0.14595634, 0.08924542, 0.3536358, 0
162, 2144288006, 0.7520635, -0.03856512, 0.18432894, 0.631664, 0.04185222, 0.022003677, 0.3305359, 0
164, 2144321340, 0.7520453, -0.038679995, 0.18418783, 0.63171977, -0.11384968, 0.055255253, 0.45394325, 0
165, 2144338007, 0.7519688, -0.03873483, 0.18411463, 0.6318288, -0.02755657, -0.037101027, 0.40762997, 0
166, 2144354674, 0.75193757, -0.038781635, 0.18405189, 0.63188136, 0.04021293, -0.11688515, 0.38944626, 0
168, 2144388008, 0.7518791, -0.038816735, 0.18399732, 0.6319646, 0.10099338, -0.025586814, 0.33598137, 0
169, 2144404675, 0.7519134, -0.038868584, 0.18403602, 0.63190925, 0.08007082, 0.048989736, 0.4319744, 0
170, 2144421342, 0.7519408, -0.038911637, 0.18408139, 0.631861, 0.06996073, 0.017076278, 0.36811066, 0
173, 2144471343, 0.7520415, -0.038947873, 0.18392663, 0.63178396, 0.12899436, 0.030969005, 0.38970375, 0
174, 2144488010, 0.7520772, -0.039002687, 0.18384874, 0.63176084, 0.14850324, -0.034435578, 0.41500664, 0
176, 2144521344, 0.75214565, -0.03914931, 0.18368545, 0.6317177, -0.09287135, 0.011439505, 0.32358932, 0
177, 2144538011, 0.75221527, -0.039201126, 0.1834536, 0.63169885, 0.001632385, -0.031159438, 0.2946186, 0
178, 2144554678, 0.7522393, -0.039211497, 0.18313037, 0.63176364, 0.14222671, -0.018474855, 0.27851582, 0
180, 2144588012, 0.75236535, -0.03930982, 0.1825222, 0.6317833, 0.18130827, 0.18882677, 0.4820223, 0
181, 2144604679, 0.7524511, -0.039481506, 0.1823424, 0.6317225, 0.12268685, 0.009471306, 0.5268793, 0
182, 2144621346, 0.7524992, -0.039670926, 0.18224205, 0.6316822, -0.08590129, -0.26136088, 0.46220112, 0
184, 2144654680, 0.752493, -0.0400086, 0.18206966, 0.63171786, -0.32634893, -0.33180314, 0.47770882, 0
185, 2144671347, 0.75250304, -0.040102445, 0.18203193, 0.6317108, -0.16182019, -0.18975085, 0.4410019, 0
188, 2144721348, 0.75234747, -0.04009354, 0.18206207, 0.63188815, 0.3494581, 0.46887174, 0.16778088, 0
189, 2144738015, 0.7523508, -0.040062897, 0.1819429, 0.63192034, 0.42764485, 0.32655856, 0.21918106, 0
191, 2144771349, 0.7524992, -0.040047444, 0.18146697, 0.6318815, 0.07012934, -0.039454006, 0.2881012, 0
192, 2144788016, 0.75257176, -0.04007434, 0.18112734, 0.6318909, -0.22732686, 0.023266973, 0.39904022, 0
193, 2144804683, 0.7526832, -0.04009325, 0.18080488, 0.6318493, -0.317486, -0.019863093, 0.5627489, 0
195, 2144838017, 0.75273365, -0.040069744, 0.18075961, 0.63180375, -0.2636704, -0.39278477, 0.58796215, 0
196, 2144854684, 0.7526622, -0.040050082, 0.18105945, 0.6318043, -0.30297765, -0.32793188, 0.5081425, 0
197, 2144871351, 0.7526113, -0.039943203, 0.18141636, 0.6317692, -0.18460535, -0.15111668, 0.39219093, 0
199, 2144904685, 0.75239474, -0.039361365, 0.18207704, 0.6318737, 0.1889564, 0.47023678, 0.11929321, 0
200, 2144921352, 0.7522883, -0.038974356, 0.18224843, 0.6319748, 0.30894423, 0.6577445, 0.11945629, 0
203, 2144971353, 0.75238955, -0.038138278, 0.18266346, 0.6317854, 0.079702154, -0.08104384, 0.45877647, 0
204, 2144988020, 0.75245214, -0.03801209, 0.18283567, 0.6316688, -0.3115798, -0.5753445, 0.57638836, 0
205, 2145004687, 0.7525331, -0.03783924, 0.18304174, 0.6315231, -0.49756342, -0.74878466, 0.6610937, 0
207, 2145038021, 0.75244975, -0.03736029, 0.1836421, 0.63147634, -0.2874603, -0.097965, 0.38328362, 0
208, 2145054688, 0.7523649, -0.03698876, 0.18398282, 0.63150024, 0.06458337, 0.20888218, 0.12869549, 0
209, 2145071355, 0.75221115, -0.03653835, 0.18427983, 0.631623, 0.4417837, 0.4467348, 0.0725193, 0
211, 2145104689, 0.7520967, -0.035884947, 0.18466148, 0.63168526, 0.58479106, 0.44570294, 0.318964, 0
212, 2145121356, 0.7521546, -0.03576089, 0.18476029, 0.6315944, 0.29969093, 0.18912633, 0.49002838, 0
213, 2145138023, 0.75224096, -0.035759866, 0.18484658, 0.6314664, -0.097031966, -0.30362988, 0.5335674, 0
215, 2145171357, 0.7523608, -0.035759717, 0.18495803, 0.631291, -0.49508014, -0.74355733, 0.6348038, 0
216, 2145188024, 0.75239825, -0.03575717, 0.18505512, 0.6312181, -0.30387568, -0.42312098, 0.6135378, 0
218, 2145221358, 0.75227034, -0.035793032, 0.18531139, 0.6312931, 0.23122855, 0.28547075, 0.08707237, 0
219, 2145238025, 0.75227576, -0.035758805, 0.18530445, 0.6312907, 0.4811731, 0.5710044, -0.024047852, 0
220, 2145254692, 0.75232345, -0.03577324, 0.18515597, 0.63127685, 0.56603646, 0.6010019, 0.049412727, 0
222, 2145288026, 0.75258774, -0.0361125, 0.18466304, 0.6310867, 0.19360997, 0.1710938, 0.50840855, 0
223, 2145304693, 0.7527085, -0.036410656, 0.18434395, 0.63101894, -0.14421235, -0.4496342, 0.47015, 0
224, 2145321360, 0.7528311, -0.036737226, 0.18411586, 0.63092035, -0.36770955, -0.84844613, 0.6146622, 0
226, 2145354694, 0.7528844, -0.037308004, 0.18379267, 0.6309175, -0.45226663, -0.40354136, 0.6294937, 0
227, 2145371361, 0.7528685, -0.037652794, 0.18380444, 0.63091266, -0.2897295, -0.013494623, 0.4853096, 0
230, 2145421362, 0.7528131, -0.03841563, 0.18428884, 0.6307913, 0.5617318, 0.40550664, 0.045924187, 0
231, 2145438029, 0.7528042, -0.03864984, 0.18428157, 0.63078976, 0.5069051, 0.31874567, 0.12958813, 0
232, 2145454696, 0.7528877, -0.038874146, 0.18413323, 0.63071966, 0.2970623, 0.16340636, 0.16775608, 0
234, 2145488030, 0.75313, -0.039260454, 0.18340418, 0.6306188, -0.16168144, 0.048402905, 0.44865417, 0
235, 2145504697, 0.75322855, -0.039389897, 0.18292578, 0.6306319, -0.21599776, -0.075187914, 0.45891666, 0
236, 2145521364, 0.7533566, -0.039486825, 0.18253154, 0.6305872, -0.1309357, -0.107890375, 0.5221405, 0
238, 2145554698, 0.75354344, -0.039764397, 0.18174592, 0.63057333, 0.060284734, -0.22695132, 0.41742897, 0
239, 2145571365, 0.7536137, -0.039927654, 0.18142737, 0.6305709, 0.100983955, -0.06369851, 0.41130352, 0
240, 2145588032, 0.7536918, -0.040093474, 0.18117261, 0.63054013, 0.017697107, 0.16445212, 0.5231428, 0
242, 2145621366, 0.75369364, -0.040360823, 0.18115827, 0.6305251, 1.4425001, 1.4795653, 0.0039663315, 0
245, 2145671367, 0.753789, -0.04126866, 0.18203439, 0.6300998, 1.4007484, 0.25444755, 0.30602264, 0
246, 2145688034, 0.75372183, -0.041462637, 0.18230172, 0.6300902, 0.47277868, 0.24257694, 0.46720028, 0
247, 2145704701, 0.75377524, -0.04174628, 0.18245931, 0.62996197, 0.50581515, 0.55415857, 0.31223488, 0
249, 2145738035, 0.7536177, -0.0418073, 0.18310416, 0.6299592, -1.4854723, -0.21261011, -0.39600182, 0
250, 2145754702, 0.75338465, -0.041588422, 0.18364716, 0.63009447, -0.7704263, -1.1503242, -0.43751144, 0
251, 2145771369, 0.7529867, -0.04134853, 0.18476826, 0.63025826, -0.8423821, -0.38608167, 0.32302856, 0
253, 2145804703, 0.75203544, -0.040505208, 0.18730524, 0.6306999, -0.5570241, -0.28804445, 0.27516174, 0
254, 2145821370, 0.7517284, -0.040150728, 0.18844572, 0.63074887, -0.10663428, -0.20737186, -0.0050640106, 0
255, 2145838037, 0.7514336, -0.039941188, 0.18940847, 0.6308249, 0.0238294, -0.23372993, 0.16043663, 0
257, 2145871371, 0.75125986, -0.039668437, 0.18956842, 0.6310009, -0.19463852, -0.59802467, 0.15264511, 0
259, 2145904705, 0.7513306, -0.039929792, 0.18889558, 0.6311019, -0.1366231, -0.17030889, 0.33035374, 0
261, 2145938039, 0.75185144, -0.041120075, 0.1863919, 0.63114965, 0.071707144, -1.0730485, 0.028354645, 0
262, 2145954706, 0.75203216, -0.042028546, 0.18534255, 0.6311835, 0.5774763, -0.58423215, 0.45349026, 0
263, 2145971373, 0.7523866, -0.04322984, 0.1843072, 0.6309831, 0.19933884, 0.07934403, 0.5546894, 0
265, 2146004707, 0.75311506, -0.0454825, 0.18290101, 0.6303648, 0.08125681, 0.38267648, 0.4479246, 0
266, 2146021374, 0.7531539, -0.046452243, 0.18296458, 0.6302291, -0.29657808, 0.8027944, -0.1800127, 0
267, 2146038041, 0.7530311, -0.047165994, 0.18292229, 0.6303351, 0.67819905, 0.7911629, 1.572648, 0
269, 2146071375, 0.75230813, -0.047440447, 0.18357643, 0.6309873, -1.489058, -3.6489692, -0.44616795, 0
270, 2146088042, 0.7518074, -0.047019515, 0.18440418, 0.6313741, -2.8031013, -0.33630922, 0.15645409, 0
272, 2146121376, 0.7512218, -0.04560612, 0.18529978, 0.63191235, -0.8411497, -0.20374905, 0.86983204, 0
274, 2146154710, 0.7499248, -0.04262931, 0.18771973, 0.6329458, -0.89766085, -0.3072209, 0.123021126, 0
276, 2146188044, 0.74929917, -0.03990511, 0.18954428, 0.6333203, -0.34068868, -0.2766363, 0.35412216, 0
277, 2146204711, 0.7490618, -0.038595855, 0.18996279, 0.63355684, -0.33317652, -0.8390646, 0.21413326, 0
278, 2146221378, 0.74881035, -0.03727473, 0.19046791, 0.63378143, -0.41340044, -0.1551435, 0.08639717, 0
280, 2146254712, 0.748952, -0.035360366, 0.19057445, 0.63369185, 0.41348624, -0.3751876, 0.33433437, 0
281, 2146271379, 0.7487881, -0.03415325, 0.1908353, 0.6338731, 0.32669032, -0.40660995, 0.5514126, 0
282, 2146288046, 0.7486062, -0.032806486, 0.19098534, 0.63411385, -0.92972505, -0.0077093528, 0.1830988, 0
284, 2146321380, 0.7484908, -0.030248232, 0.19092683, 0.6343949, -0.057598744, -0.45082366, 0.68164825, 0
285, 2146338047, 0.74833834, -0.029093657, 0.19116978, 0.6345557, 0.5754293, -0.55132884, 0.85561466, 0
286, 2146354714, 0.74806297, -0.028056793, 0.19147831, 0.6348339, 0.41131747, 0.03786857, 0.7695637, 0
288, 2146388048, 0.74791276, -0.026895497, 0.19155352, 0.6350385, 0.6529493, 0.11075073, 0.5636225, 0
289, 2146404715, 0.74784887, -0.026701733, 0.19138135, 0.6351737, 1.0961162, -0.11411398, 0.5966816, 0
290, 2146421382, 0.74778396, -0.026770905, 0.1910898, 0.6353351, 0.9787782, 0.20927411, 0.4370203, 0
292, 2146454716, 0.7479731, -0.02766291, 0.19062579, 0.6352136, 2.8384128, 2.654388, 0.9930935, 0
293, 2146471383, 0.7480189, -0.028108943, 0.18983473, 0.6353767, 0.7276747, 0.7341251, 0.28576565, 0
294, 2146488050, 0.74800813, -0.028623361, 0.18933994, 0.635514, -1.0822052, -1.6993643, -0.42525196, 0
296, 2146521384, 0.74798435, -0.029590983, 0.18859749, 0.63571846, -0.8819688, -0.29075474, -0.11881733, 0
297, 2146538051, 0.7479337, -0.03003544, 0.1885276, 0.63577807, -0.38277608, 0.41772354, 0.206007, 0
299, 2146571385, 0.74768966, -0.030618906, 0.18863964, 0.6360041, -0.13400081, -0.3323419, 0.13567352, 0
301, 2146604719, 0.74749154, -0.031094864, 0.18937601, 0.6359949, -0.0463414, -0.10900436, 0.13121033, 0
303, 2146638053, 0.74719596, -0.031194482, 0.18995792, 0.63616383, -0.08792526, 0.15294445, 0.30562115, 0
304, 2146654720, 0.74715066, -0.031209584, 0.19009039, 0.6361767, -0.10848421, 0.13567683, 0.26103687, 0
305, 2146671387, 0.747076, -0.031110499, 0.19011971, 0.6362605, -0.08234779, 0.19546476, 0.43179893, 0
307, 2146704721, 0.74686015, -0.030747518, 0.19009168, 0.6365398, 0.026700579, 0.052706257, 0.4304428, 0
308, 2146721388, 0.74680805, -0.03054434, 0.1900149, 0.63663375, -0.0215053, 0.00401921, 0.35695648, 0
309, 2146738055, 0.7467118, -0.030383103, 0.19005808, 0.6367414, -0.035389755, -0.087192014, 0.2858553, 0
311, 2146771389, 0.7466391, -0.030103635, 0.19005762, 0.6368401, 0.04512717, 0.07037998, 0.540843, 0
312, 2146788056, 0.74669343, -0.029967062, 0.18987326, 0.6368378, 0.32915527, 0.23515217, 0.7044134, 0
313, 2146804723, 0.7466884, -0.02976456, 0.18965381, 0.6369184, -0.10335929, -0.07840963, 0.3535347, 0
316, 2146854724, 0.74672675, -0.029524196, 0.18929827, 0.63699055, 0.34674475, 0.2277059, 0.48299217, 0
317, 2146871391, 0.74671435, -0.029397167, 0.18891494, 0.63712484, 0.25704765, -0.19331373, 0.31245613, 0
319, 2146904725, 0.74683005, -0.02918731, 0.18812884, 0.63723135, 0.23062171, 0.24595428, 0.49839878, 0
320, 2146921392, 0.746869, -0.029166862, 0.18773456, 0.637303, -0.11539316, 0.27676988, 0.17887306, 0
321, 2146938059, 0.7469061, -0.029148638, 0.18758833, 0.6373033, 0.24259861, 0.28358167, 0.45721817, 0
323, 2146971393, 0.7469113, -0.029041719, 0.18747751, 0.6373347, 0.21029215, 0.2871007, 0.3746872, 0
324, 2146988060, 0.7469745, -0.029022086, 0.18749568, 0.6372562, 0.21961795, 0.14732164, 0.32299137, 0
326, 2147021394, 0.74694735, -0.028913137, 0.18782915, 0.6371949, 0.10574831, 0.247427, 0.36851978, 0
327, 2147038061, 0.74696815, -0.028882187, 0.18801689, 0.6371164, 0.08519923, 0.050201178, 0.2747755, 0
328, 2147054728, 0.7469922, -0.028859526, 0.18824135, 0.63702303, 0.14988685, 0.08349248, 0.3264761, 0
331, 2147104729, 0.7470404, -0.02865706, 0.18873261, 0.6368303, 0.012259951, -0.015467878, 0.27528286, 0
332, 2147121396, 0.74706906, -0.028614055, 0.18883431, 0.63676834, -0.03514403, -0.046404194, 0.34286404, 0
334, 2147154730, 0.7470629, -0.028509662, 0.18922217, 0.6366651, -0.18457331, -0.16196853, 0.40313435, 0
335, 2147171397, 0.7470561, -0.028468143, 0.18946114, 0.63660383, -0.24788456, -0.1402862, 0.46867657, 0
336, 2147188064, 0.7470309, -0.028403934, 0.18965517, 0.6365787, -0.28860593, -0.23558463, 0.42356205, 0
338, 2147221398, 0.74701786, -0.028244805, 0.18994318, 0.636515, -0.12072315, -0.35623354, 0.3733616, 0
339, 2147238065, 0.74700296, -0.028161455, 0.1900213, 0.6365129, -0.13684292, -0.15004793, 0.4714527, 0
340, 2147254732, 0.74701715, -0.02808661, 0.18997923, 0.63651216, -0.09970859, -0.027394753, 0.34482098, 0
342, 2147288066, 0.74697894, -0.02789354, 0.19003993, 0.6365473, -0.01798536, 0.1348813, 0.27003288, 0
343, 2147304733, 0.74695224, -0.027764715, 0.1900943, 0.63656807, 0.07732709, 0.2618286, 0.40233898, 0
346, 2147354734, 0.7468797, -0.02749389, 0.1901753, 0.6366408, 0.11903765, 0.00529871, 0.30666828, 0
347, 2147371401, 0.7468827, -0.02737436, 0.19014812, 0.6366508, 0.088019356, 0.21889701, 0.4378481, 0
348, 2147388068, 0.7469004, -0.027315166, 0.19025275, 0.6366011, 0.002074759, 0.25624353, 0.25003624, 0
350, 2147421402, 0.74687403, -0.027251258, 0.19053651, 0.63654983, 0.41087264, 0.19448845, 0.45059872, 0
351, 2147438069, 0.7467635, -0.027243078, 0.19061734, 0.6366557, 0.54378706, -0.26768884, 0.51261425, 0
353, 2147471403, 0.7467419, -0.027488176, 0.19053596, 0.6366948, -0.101515226, 0.013560195, 0.289567, 0
354, 2147488070, 0.7468528, -0.027704135, 0.19031575, 0.63662136, -0.0676178, -0.070125625, 0.22597408, 0
355, 2147504737, 0.74690884, -0.027920127, 0.19008951, 0.6366137, -0.305171, -0.04392896, 0.3587036, 0
357, 2147538071, 0.7469235, -0.02844983, 0.18963955, 0.63670737, 0.06670128, -0.2812845, 0.39898586, 0
358, 2147554738, 0.7469937, -0.028747901, 0.18933913, 0.6367009, -0.05038355, -0.20585418, 0.41130257, 0
359, 2147571405, 0.7470967, -0.028995816, 0.18911152, 0.63663644, -0.18275838, -0.026240086, 0.32798576, 0
361, 2147604739, 0.7471149, -0.029203221, 0.18901563, 0.636634, -0.41813958, 0.042930804, 0.38893032, 0
362, 2147621406, 0.74706584, -0.029230502, 0.1891278, 0.63665694, -0.48725918, -0.07508577, 0.3725357, 0
363, 2147638073, 0.7470212, -0.029145118, 0.18932213, 0.63665557, -0.31207594, -0.30596957, 0.35728836, 0
365, 2147671407, 0.7469503, -0.028619163, 0.19003601, 0.63655, -0.4064833, -0.2107157, 0.41783714, 0
366, 2147688074, 0.746881, -0.028215766, 0.19038928, 0.636544, -0.6503491, 0.011399385, 0.38795662, 0
367, 2147704741, 0.7467863, -0.0277584, 0.1907748, 0.63655967, -0.6229427, -0.09016311, 0.21413136, 0
369, 2147738075, 0.746574, -0.026588697, 0.19149609, 0.636642, 0.055571705, 0.18067597, 1.0019655, 0
370, 2147754742, 0.7466945, -0.026243843, 0.19169208, 0.636456, -0.20943609, -0.18103111, -0.72929573, 0
373, 2147804743, 0.74630505, -0.025112227, 0.19273852, 0.63664234, 0.14608869, -0.03218721, 0.4178152, 0
374, 2147821410, 0.74634176, -0.024992686, 0.19278689, 0.6365892, 0.56999314, -0.13786818, 0.33928585, 0
375, 2147838077, 0.7462974, -0.024972226, 0.1928809, 0.6366136, 0.66561455, 0.17218482, 0.48347664, 0
377, 2147871411, 0.7462636, -0.025245328, 0.19275932, 0.6366793, 0.15041827, 0.42794618, 0.40789986, 0
378, 2147888078, 0.74640167, -0.025526885, 0.19246124, 0.63659644, 0.12452516, -0.2718185, 0.37204552, 0
380, 2147921412, 0.74637353, -0.026039638, 0.19219606, 0.6366887, 0.11117196, 0.18913493, 0.43324852, 0
381, 2147938079, 0.7464181, -0.02623367, 0.19190487, 0.6367163, -0.34222338, 0.14035301, 0.46363926, 0
382, 2147954746, 0.7465191, -0.026367728, 0.19179927, 0.63662416, -0.25293738, 0.016947199, 0.1976881, 0
384, 2147988080, 0.74637717, -0.026191894, 0.19210373, 0.636706, 0.0070520854, 0.51073194, 0.34150696, 0
385, 2148004747, 0.7462465, -0.025925193, 0.19237597, 0.6367879, -0.08379538, 0.30487135, 0.53114414, 0
388, 2148054748, 0.74612814, -0.025058262, 0.1931723, 0.6367201, -0.09916284, -0.1443222, 0.33440208, 0
389, 2148071415, 0.7461166, -0.024783075, 0.19341657, 0.6366705, -0.2951028, 0.32724756, 0.44556808, 0
390, 2148088082, 0.74618185, -0.024524163, 0.19359647, 0.63654906, -0.18688948, -0.07452319, 0.43737698, 0
392, 2148121416, 0.74613535, -0.023864869, 0.19409466, 0.6364771, -0.1797497, -0.15893799, 0.3215723, 0
393, 2148138083, 0.7460988, -0.023541722, 0.19426645, 0.6364797, -0.32684597, -0.3671911, 0.25798225, 0
394, 2148154750, 0.7460282, -0.023187686, 0.19444782, 0.63652, -0.16637313, -0.48283073, 0.27034283, 0
396, 2148188084, 0.745925, -0.022540525, 0.19495134, 0.6365102, -0.2159396, -0.16283573, 0.3652029, 0
397, 2148204751, 0.74581313, -0.022208154, 0.19522156, 0.6365701, 0.09514603, -0.26926896, 0.43254662, 0
398, 2148221418, 0.74572814, -0.021862756, 0.1954897, 0.63659936, 0.001590113, -0.16836058, 0.45422363, 0
400, 2148254752, 0.74559426, -0.021417312, 0.19579902, 0.6366762, -0.28664273, -0.25648502, 0.07552147, 0
402, 2148288086, 0.74537766, -0.021235839, 0.19597659, 0.6368811, -0.1318382, -0.23585244, 0.39057732, 0
404, 2148321420, 0.74542534, -0.021326914, 0.19546874, 0.6369785, -0.06010962, -0.39145365, 0.208251, 0
405, 2148338087, 0.7455004, -0.0214848, 0.19526465, 0.6369479, 0.11951968, -0.28718683, 0.25934315, 0
407, 2148371421, 0.745565, -0.02162584, 0.1946108, 0.6370678, -0.13477759, 0.31625244, 0.40907955, 0
408, 2148388088, 0.74558777, -0.02160601, 0.19431946, 0.6371306, -0.02753586, 0.2383093, 0.5087471, 0
409, 2148404755, 0.7455788, -0.02156445, 0.19414473, 0.6371958, 0.054442294, 0.1205768, 0.49905872, 0
411, 2148438089, 0.74544084, -0.021463629, 0.19404018, 0.63739234, 0.093625136, 0.16574664, 0.45766163, 0
412, 2148454756, 0.74540573, -0.021442264, 0.19404772, 0.63743186, 0.2106627, 0.2369709, 0.49033546, 0
413, 2148471423, 0.7453889, -0.021436121, 0.19406568, 0.6374463, 0.31315356, 0.19649169, 0.43974113, 0
415, 2148504757, 0.7453851, -0.021423269, 0.19416392, 0.63742125, 0.14565714, 0.30055994, 0.36286736, 0
417, 2148538091, 0.74550045, -0.021476243, 0.19423741, 0.6372622, 0.1549687, 0.12201064, 0.34852123, 0
419, 2148571425, 0.7455504, -0.021516532, 0.19437376, 0.6371608, 0.07693151, 0.08062433, 0.32859802, 0
420, 2148588092, 0.7456189, -0.021534588, 0.19438651, 0.6370761, 0.04640946, -0.0040080342, 0.36906338, 0
421, 2148604759, 0.74573314, -0.021559779, 0.19438939, 0.63694054, -0.06499219, -0.13234515, 0.27588272, 0
423, 2148638093, 0.74584097, -0.02170996, 0.19459836, 0.6367454, -0.030963069, 0.021619625, 0.30544376, 0
424, 2148654760, 0.7458695, -0.021755517, 0.19457775, 0.6367167, 0.058113508, 0.010192918, 0.43436718, 0
425, 2148671427, 0.7458823, -0.021806862, 0.19462901, 0.63668436, -0.033514973, -0.026427725, 0.25694084, 0
427, 2148704761, 0.74596226, -0.021870382, 0.19448821, 0.6366315, -0.002194143, -0.15373662, 0.31256294, 0
428, 2148721428, 0.7459745, -0.021887098, 0.19444263, 0.6366305, -0.006678777, -0.09557721, 0.3632555, 0
429, 2148738095, 0.745981, -0.021923572, 0.19442554, 0.6366267, -0.055382237, -0.038114212, 0.38097858, 0
431, 2148771429, 0.74602586, -0.022003535, 0.19435592, 0.63659275, -0.036347717, -0.021372085, 0.3096161, 0
432, 2148788096, 0.7460283, -0.02202652, 0.19434568, 0.63659215, 0.005439216, 0.001087223, 0.29949093, 0
434, 2148821430, 0.7459776, -0.022090577, 0.19423035, 0.6366846, 0.014584388, 0.0145167755, 0.4008379, 0
435, 2148838097, 0.7459751, -0.02212653, 0.1941837, 0.63670063, 0.1439437, -0.023941422, 0.36419296, 0
436, 2148854764, 0.74597275, -0.02215077, 0.1941256, 0.6367202, 0.08455707, 0.03335618, 0.36086464, 0
438, 2148888098, 0.74601865, -0.02226229, 0.1939949, 0.6367023, 0.005425176, 0.087266274, 0.37486458, 0
439, 2148904765, 0.74604124, -0.022305053, 0.1939683, 0.63668257, 0.024353273, 0.05391518, 0.38863468, 0
440, 2148921432, 0.74605876, -0.022332061, 0.19397298, 0.6366596, 0.011735757, 0.106506325, 0.38576508, 0
442, 2148954766, 0.7460577, -0.022337053, 0.19397217, 0.63666093, 0.083707966, 0.117235005, 0.34504128, 0
444, 2148988100, 0.7460839, -0.022288084, 0.19393557, 0.6366431, 0.122315735, 0.02521662, 0.35496998, 0
446, 2149021434, 0.74620247, -0.022216335, 0.19391185, 0.6365137, -0.018220916, 0.10683204, 0.37636566, 0
447, 2149038101, 0.7462118, -0.022182997, 0.19393036, 0.63649833, -0.02277548, 0.07854463, 0.3474455, 0
448, 2149054768, 0.7462117, -0.022155687, 0.19397603, 0.6364856, -0.018711653, 0.0313164, 0.35786438, 0
450, 2149088102, 0.7461768, -0.022042282, 0.19406258, 0.63650405, 0.036321178, -0.04992089, 0.357893, 0
451, 2149104769, 0.7461805, -0.02197709, 0.19410813, 0.63648796, -0.017617194, -0.07232125, 0.4101658, 0
452, 2149121436, 0.7461585, -0.021941263, 0.1941168, 0.6365124, -0.06409481, -0.03847971, 0.40645218, 0
454, 2149154770, 0.74607027, -0.021870367, 0.19416375, 0.6366041, -0.064701915, -0.04143187, 0.32380772, 0
455, 2149171437, 0.7460637, -0.021815456, 0.1941792, 0.63660884, -0.08862465, 0.017941553, 0.3255806, 0
456, 2149188104, 0.74601954, -0.021775253, 0.1941553, 0.6366693, -0.01919173, -0.04172836, 0.35821056, 0
459, 2149238105, 0.7460554, -0.02159376, 0.19403592, 0.63666964, -0.035185575, 0.05334187, 0.36196804, 0
461, 2149271439, 0.7460898, -0.021516617, 0.19390917, 0.6366706, 0.070073225, 0.0039441655, 0.38207626, 0
462, 2149288106, 0.74610656, -0.021466274, 0.193853, 0.63666975, 0.04047029, 0.019554533, 0.37831402, 0
463, 2149304773, 0.7461761, -0.021428574, 0.19381319, 0.6366016, -0.025167894, 0.04813089, 0.3415079, 0
465, 2149338107, 0.74621, -0.021442126, 0.19376543, 0.6365761, 0.07432405, -0.021351019, 0.3959942, 0
466, 2149354774, 0.74612457, -0.02146557, 0.19373178, 0.6366856, 0.07192345, 0.025812225, 0.37992287, 0
467, 2149371441, 0.7461668, -0.021460775, 0.1936861, 0.63665026, 0.022339463, 0.06173147, 0.36385632, 0
469, 2149404775, 0.7462008, -0.0214911, 0.19356576, 0.63664603, -9.788051E-4, -0.041704502, 0.39224815, 0
470, 2149421442, 0.7461982, -0.021506451, 0.19354069, 0.63665605, -0.017841894, 0.01151427, 0.35805416, 0
471, 2149438109, 0.74618995, -0.021550935, 0.19349378, 0.6366786, -0.04685269, 0.04931344, 0.40207767, 0
474, 2149488110, 0.74623203, -0.02169663, 0.1933603, 0.63666475, 0.0236249, -0.044726003, 0.3827839, 0
475, 2149504777, 0.74620754, -0.021789264, 0.19330958, 0.63670564, -0.009709473, -0.055286657, 0.33269978, 0
477, 2149538111, 0.7462435, -0.021978438, 0.19318059, 0.6366962, -0.026944892, -0.021471214, 0.37456703, 0
478, 2149554778, 0.74624664, -0.02208931, 0.19309159, 0.63671577, -0.0052906494, -0.006046193, 0.41105938, 0
479, 2149571445, 0.746271, -0.022172894, 0.19296762, 0.63672173, 0.0140473, -7.740254E-4, 0.34649754, 0
481, 2149604779, 0.7463144, -0.0224256, 0.1927574, 0.6367258, 0.15849906, 0.11730647, 0.43545341, 0
482, 2149621446, 0.7462895, -0.022583049, 0.1929209, 0.63670003, -0.31338212, 0.5202047, 0.44978046, 0
483, 2149638113, 0.7463291, -0.022775397, 0.19297248, 0.636631, -0.20030235, 0.27313206, 0.29922485, 0
485, 2149671447, 0.74640024, -0.023195844, 0.19343318, 0.63639283, -0.0379115, -0.63196886, 0.3344946, 0
486, 2149688114, 0.7464895, -0.023440339, 0.19367313, 0.63620603, -0.260626, -0.35702536, 0.54527855, 0
489, 2149738115, 0.7466958, -0.024380758, 0.19411404, 0.635794, -0.54788566, -0.2503035, 0.42345428, 0
490, 2149754782, 0.7467312, -0.0246564, 0.19423926, 0.63570356, -0.5363157, -0.36083558, 0.34230232, 0
492, 2149788116, 0.7467377, -0.024947103, 0.19424936, 0.6356815, -0.24003994, -0.4521681, 0.2673502, 0
493, 2149804783, 0.7467531, -0.024971202, 0.19412816, 0.6356995, -0.2702901, -0.2595223, 0.36889744, 0
494, 2149821450, 0.74677795, -0.024944346, 0.19394857, 0.63572603, -0.30812302, -0.15227412, 0.37137318, 0
496, 2149854784, 0.74677676, -0.024699695, 0.19374436, 0.63579935, -0.1970391, -0.053164344, 0.34923077, 0
497, 2149871451, 0.74670625, -0.024526034, 0.19369195, 0.6359049, -0.109456904, 0.052473243, 0.41524124, 0
498, 2149888118, 0.7466367, -0.024351764, 0.19365227, 0.6360054, 0.0766749, 0.033022866, 0.46028423, 0
500, 2149921452, 0.74647033, -0.024029799, 0.19359146, 0.6362314, 0.2130993, 0.09175403, 0.3534584, 0
501, 2149938119, 0.746391, -0.023888871, 0.19351842, 0.63635194, 0.11912887, 0.17233117, 0.36721134, 0
502, 2149954786, 0.7463338, -0.023758125, 0.19338377, 0.63646495, 0.12687156, 0.13734642, 0.3649435, 0
504, 2149988120, 0.74624276, -0.023517001, 0.19315185, 0.6366508, 0.14385623, 0.19191991, 0.37076378, 0
505, 2150004787, 0.7461983, -0.023434155, 0.19303581, 0.6367412, 0.1528473, 0.22637236, 0.36274624, 0
506, 2150021454, 0.7462113, -0.023349524, 0.19290788, 0.63676786, 0.21018192, 0.12469871, 0.40038586, 0
508, 2150054788, 0.7461931, -0.023177776, 0.19265738, 0.6368713, 0.08665572, 0.1670818, 0.33812428, 0
509, 2150071455, 0.7461479, -0.023098197, 0.19251674, 0.6369697, 0.07225013, 0.16697866, 0.3579054, 0
510, 2150088122, 0.74610835, -0.0230132, 0.19239055, 0.6370573, 0.15300968, 0.123376355, 0.37535572, 0
512, 2150121456, 0.7460897, -0.02287611, 0.19220881, 0.63713884, 0.09558449, 0.1359464, 0.3965559, 0
513, 2150138123, 0.746094, -0.02283499, 0.19211377, 0.63716406, 0.056820136, 0.10001724, 0.380064, 0
516, 2150188124, 0.74618214, -0.022682633, 0.19199562, 0.63710177, 0.045084853, 0.09471194, 0.34777737, 0
517, 2150204791, 0.74620396, -0.02265514, 0.19199249, 0.63707805, 0.05733081, 0.10029127, 0.4008379, 0
519, 2150238125, 0.7463044, -0.0225517, 0.19210742, 0.6369295, 0.062743485, 0.06135084, 0.3737316, 0
520, 2150254792, 0.7463212, -0.022530142, 0.19217443, 0.6368905, 0.03610944, 0.09368244, 0.39200306, 0
521, 2150271459, 0.7463587, -0.022534214, 0.19222282, 0.63683176, 0.09225767, 0.040016532, 0.36777973, 0
523, 2150304793, 0.7463373, -0.022574935, 0.19233277, 0.636822, 0.073367, 0.057137623, 0.32852745, 0
524, 2150321460, 0.74634016, -0.02261978, 0.19237512, 0.63680446, 0.019817637, 0.04393192, 0.35586357, 0
525, 2150338127, 0.7463727, -0.022675797, 0.19240582, 0.6367551, 0.031043366, 0.0063131233, 0.35970306, 0
527, 2150371461, 0.74638045, -0.022756614, 0.19246057, 0.63672656, 0.021564124, 0.031387534, 0.35152626, 0
528, 2150388128, 0.7464537, -0.022787109, 0.19247337, 0.63663554, -0.03295028, 0.04682954, 0.34258842, 0
531, 2150438129, 0.7465254, -0.022919632, 0.19250289, 0.6365379, -0.01057226, -0.006767581, 0.40011883, 0
532, 2150454796, 0.74653304, -0.02296064, 0.19250554, 0.63652647, -0.0063691414, 0.0124417925, 0.37774944, 0
533, 2150471463, 0.74658084, -0.022999868, 0.1925105, 0.63646764, 0.021589996, 0.03339781, 0.3925476, 0
535, 2150504797, 0.74664044, -0.023099937, 0.19248874, 0.6364007, 0.050949052, 0.023901358, 0.383708, 0
536, 2150521464, 0.7466787, -0.0231346, 0.19245604, 0.6363645, 0.028527685, -0.0123565225, 0.34283257, 0
537, 2150538131, 0.74670565, -0.02316748, 0.19242644, 0.6363406, 0.041815266, -0.015379032, 0.38893032, 0
539, 2150571465, 0.7467164, -0.023248881, 0.19234794, 0.6363487, 0.004414172, 0.0704613, 0.39819908, 0
540, 2150588132, 0.7467128, -0.0232804, 0.19232365, 0.63635916, -0.0020608173, 0.017058061, 0.34814548, 0
542, 2150621466, 0.746724, -0.023313228, 0.19227783, 0.6363586, -0.03241787, 0.0029024275, 0.36924934, 0
543, 2150638133, 0.7467414, -0.023306467, 0.19224443, 0.63634837, 6.0806697E-4, -0.010441408, 0.378541, 0
546, 2150688134, 0.74673796, -0.023344316, 0.1921389, 0.6363832, -0.0299025, -0.0757833, 0.35598183, 0
547, 2150704801, 0.7467546, -0.0233511, 0.19210604, 0.63637316, -0.03538597, -0.018186355, 0.34707355, 0
548, 2150721468, 0.746781, -0.02335018, 0.19207332, 0.6363522, -0.04971413, 0.020466244, 0.33389091, 0
550, 2150754802, 0.74677753, -0.023350671, 0.19199172, 0.6363808, 0.009794044, -0.025766462, 0.37722015, 0
551, 2150771469, 0.7467903, -0.023363225, 0.19196776, 0.6363727, -0.006106374, -0.023779431, 0.3495741, 0
552, 2150788136, 0.7468082, -0.023370046, 0.1919509, 0.6363565, 0.006455892, -0.021921815, 0.39415455, 0
554, 2150821470, 0.7469084, -0.02334185, 0.19187708, 0.63626206, -0.0068278736, 0.019973956, 0.36893559, 0
555, 2150838137, 0.74693096, -0.023335066, 0.19184649, 0.63624525, -0.009854924, 0.0068980567, 0.4277544, 0
556, 2150854804, 0.74691784, -0.023332618, 0.19181861, 0.636269, -0.0076820706, -0.00694343, 0.40352917, 0
558, 2150888138, 0.746958, -0.023304138, 0.19178948, 0.6362316, -0.025948737, 0.020382874, 0.3673973, 0
560, 2150921472, 0.74699587, -0.02329962, 0.19174767, 0.6362001, 0.020271745, -0.055763073, 0.35752106, 0
562, 2150954806, 0.74701416, -0.023314867, 0.19174793, 0.6361779, -0.04985212, 0.0056033023, 0.37304306, 0
563, 2150971473, 0.7470395, -0.023324303, 0.19172229, 0.6361555, -0.025268648, 0.0070397886, 0.38395786, 0
564, 2150988140, 0.7470208, -0.023334406, 0.19169867, 0.6361842, 0.006571993, -0.05862108, 0.3413067, 0
566, 2151021474, 0.7470703, -0.023327116, 0.19167246, 0.63613427, -0.032669604, 0.007074632, 0.3521328, 0
567, 2151038141, 0.74709463, -0.023337182, 0.1916503, 0.636112, -0.016386028, 0.0069009066, 0.39505863, 0
569, 2151071475, 0.7471067, -0.023353085, 0.19163401, 0.6361022, -0.038942173, -0.02889067, 0.3761158, 0
570, 2151088142, 0.74712914, -0.023357894, 0.19162124, 0.6360793, -0.057956364, -0.012570537, 0.37305737, 0
571, 2151104809, 0.7471634, -0.023375858, 0.19160946, 0.6360419, -0.009956259, -0.0638995, 0.34807205, 0
573, 2151138143, 0.7472009, -0.02337687, 0.19154008, 0.636019, -0.0031225039, 0.012488004, 0.29224205, 0
574, 2151154810, 0.74725056, -0.023394112, 0.19145027, 0.63598704, 0.0966522, -0.087960005, 0.41761208, 0
575, 2151171477, 0.7472571, -0.023421478, 0.19144364, 0.63598037, 0.1012754, -0.013431452, 0.56719303, 0
577, 2151204811, 0.74721617, -0.02358818, 0.1918746, 0.6358924, -0.22398694, 0.20122296, 0.27958775, 0
579, 2151238145, 0.7471566, -0.023831956, 0.19219333, 0.6358569, -0.043939658, -0.55853873, 0.29267216, 0
581, 2151271479, 0.747258, -0.02405719, 0.1923187, 0.6356914, -0.35540807, -0.2735452, 0.5365162, 0
582, 2151288146, 0.74734163, -0.024179716, 0.1923437, 0.6355808, -0.4935384, -0.2884245, 0.3416319, 0
583, 2151304813, 0.7473688, -0.02433334, 0.19246536, 0.6355063, -0.4956495, -0.32084325, 0.37607193, 0
585, 2151338147, 0.7473185, -0.024589129, 0.19272417, 0.63547707, -0.35007736, -0.37426594, 0.35031128, 0
586, 2151354814, 0.74730843, -0.024649005, 0.1928123, 0.6354599, -0.12689072, -0.32341743, 0.36285305, 0
589, 2151404815, 0.747274, -0.02465561, 0.19291875, 0.6354679, -0.20392907, -0.07921925, 0.3119068, 0
590, 2151421482, 0.7471942, -0.024592958, 0.19293937, 0.635558, -0.23734117, -0.02614487, 0.31598377, 0
591, 2151438149, 0.74717677, -0.024479836, 0.19294855, 0.6355798, -0.17399552, -0.015697874, 0.33018208, 0
593, 2151471483, 0.74704385, -0.024251547, 0.19288185, 0.6357651, 0.044363495, -0.19604947, 0.3486309, 0
594, 2151488150, 0.7469918, -0.024125475, 0.19281314, 0.63585186, -0.030114809, -0.14100784, 0.3762884, 0
596, 2151521484, 0.74683154, -0.023929164, 0.1926594, 0.6360941, -0.108596325, 0.03034954, 0.4026413, 0
597, 2151538151, 0.7468017, -0.023819514, 0.19266991, 0.63613, -0.10945013, 0.09050168, 0.4229908, 0
598, 2151554818, 0.7467505, -0.023717891, 0.19269274, 0.6361871, -0.050046187, 0.070078015, 0.40191078, 0
600, 2151588152, 0.74667555, -0.02352615, 0.19273384, 0.6362697, 0.15144023, -0.055807665, 0.35266304, 0
601, 2151604819, 0.7466537, -0.023416102, 0.19274336, 0.63629645, 0.07880941, 0.040102694, 0.34106064, 0
604, 2151654820, 0.7466194, -0.023076009, 0.1926958, 0.6363636, 0.078937806, 0.13044104, 0.37313843, 0
605, 2151671487, 0.74658924, -0.022939127, 0.19270475, 0.6364013, 0.01957173, 0.15225904, 0.37041378, 0
606, 2151688154, 0.74660414, -0.0228036, 0.19270594, 0.6363882, 0.043788534, 0.091241285, 0.4124918, 0
608, 2151721488, 0.74658966, -0.022552732, 0.19271375, 0.6364119, 0.08977959, -0.02620248, 0.3621416, 0
609, 2151738155, 0.74655753, -0.02246707, 0.19273522, 0.6364461, 0.005786932, 0.043884646, 0.37240982, 0
610, 2151754822, 0.7465581, -0.022391506, 0.19274765, 0.63644433, 0.014551001, 0.07133271, 0.37816143, 0
612, 2151788156, 0.7464895, -0.022230823, 0.19279423, 0.6365162, -0.0074939425, -0.03856945, 0.3527403, 0
613, 2151804823, 0.7464129, -0.022189789, 0.19286509, 0.63658595, -0.02749282, -0.043187063, 0.29664993, 0
614, 2151821490, 0.74637324, -0.02216366, 0.19292139, 0.63661623, -0.012106998, -0.06105547, 0.38778496, 0
616, 2151854824, 0.74628747, -0.022103209, 0.19303861, 0.6366836, -0.019172998, -0.019668413, 0.39038467, 0
618, 2151888158, 0.74615973, -0.022062864, 0.1930966, 0.63681704, -0.027166504, 0.008717061, 0.38611984, 0
620, 2151921492, 0.74613196, -0.022009846, 0.19316816, 0.6368296, 0.04683654, 0.032868642, 0.36284256, 0
621, 2151938159, 0.74617296, -0.021999408, 0.19319181, 0.6367748, 0.07481278, 0.035376232, 0.3687601, 0
623, 2151971493, 0.7461291, -0.022051055, 0.19319436, 0.6368235, 0.031199656, 0.0633158, 0.3821993, 0
624, 2151988160, 0.7461287, -0.022060543, 0.19316733, 0.6368321, 0.043714553, 0.053281017, 0.3833542, 0
625, 2152004827, 0.7461093, -0.022089187, 0.19311862, 0.6368686, 0.03772221, 0.08649376, 0.38367176, 0
627, 2152038161, 0.7461234, -0.022112038, 0.19302893, 0.6368785, 0.05138433, 0.084954314, 0.37854195, 0
628, 2152054828, 0.74612296, -0.022129178, 0.19298267, 0.63689214, 0.047545914, 0.096638456, 0.37819767, 0
629, 2152071495, 0.7461322, -0.02214789, 0.19294246, 0.63689303, 0.05002442, 0.09690404, 0.3921156, 0
631, 2152104829, 0.7461034, -0.022172473, 0.19283324, 0.6369591, 0.047197696, 0.13160376, 0.3846388, 0
633, 2152138163, 0.7461629, -0.022181854, 0.19272485, 0.6369219, 0.07701315, 0.043438904, 0.38565445, 0
635, 2152171497, 0.74617505, -0.022191685, 0.19264448, 0.63693154, 0.035588503, 0.13622543, 0.33786964, 0
636, 2152188164, 0.74618775, -0.022221658, 0.19260314, 0.636928, 0.040134825, 0.06676483, 0.35676193, 0
637, 2152204831, 0.7461519, -0.022284877, 0.19255102, 0.6369836, 0.06436011, 0.037294477, 0.35278416, 0
639, 2152238165, 0.74620473, -0.02237548, 0.19248696, 0.63693786, 0.08243961, 0.03620882, 0.32364273, 0
640, 2152254832, 0.7462276, -0.022413567, 0.19248271, 0.63691103, 0.04315637, 0.071372494, 0.33624172, 0
641, 2152271499, 0.74627143, -0.022443395, 0.19246024, 0.6368655, 0.022895563, 0.073355496, 0.35517788, 0
643, 2152304833, 0.74632466, -0.022498619, 0.19240505, 0.63681763, 0.039027065, -0.002515303, 0.38052273, 0
644, 2152321500, 0.7463519, -0.022534862, 0.19239053, 0.636789, 0.004360235, 0.032370992, 0.3537321, 0
645, 2152338167, 0.7464198, -0.022563815, 0.19236536, 0.636716, 0.042856947, 0.08750074, 0.38225555, 0
647, 2152371501, 0.7464397, -0.022642884, 0.19231756, 0.63670427, 0.034866456, 0.028493991, 0.3712225, 0
648, 2152388168, 0.74644375, -0.0226934, 0.19230665, 0.636701, -0.02497851, 0.010379662, 0.36040974, 0
650, 2152421502, 0.746498, -0.02275914, 0.1922335, 0.63665724, 0.047118556, 0.01846759, 0.36647415, 0
651, 2152438169, 0.746456, -0.022814266, 0.1921925, 0.6367168, 0.03223272, 0.020209035, 0.3594122, 0
652, 2152454836, 0.7464723, -0.022860471, 0.19214636, 0.63671005, 0.025959786, 0.027897658, 0.35140228, 0
654, 2152488170, 0.7465468, -0.022945747, 0.19211292, 0.6366297, 0.0022531503, 0.064613014, 0.41318512, 0
655, 2152504837, 0.7465619, -0.022988062, 0.19210477, 0.636613, -0.009225511, 0.0344044, 0.3764143, 0
656, 2152521504, 0.7466066, -0.023002118, 0.19208452, 0.63656604, -0.020318376, -0.0033832039, 0.39307404, 0
658, 2152554838, 0.7466114, -0.023058333, 0.19208564, 0.63655806, -0.0047074202, 0.004085761, 0.38924408, 0
660, 2152588172, 0.74666137, -0.02309269, 0.19207293, 0.636502, 0.014556784, 0.008039873, 0.37678242, 0
662, 2152621506, 0.74667335, -0.023119286, 0.19205758, 0.63649166, -0.021207524, 0.02314689, 0.3627615, 0
663, 2152638173, 0.7466449, -0.023149982, 0.1920462, 0.6365272, 0.006968533, 0.040984955, 0.34157467, 0
664, 2152654840, 0.7466387, -0.023169663, 0.19203454, 0.63653743, -0.006868204, 0.049771976, 0.38121033, 0
666, 2152688174, 0.7466477, -0.023246579, 0.19199412, 0.6365361, 0.03858588, -0.044258248, 0.34668255, 0
667, 2152704841, 0.74668515, -0.02326503, 0.19198869, 0.6364932, 0.00219364, -0.014641775, 0.35849857, 0
668, 2152721508, 0.7467068, -0.023288146, 0.19195572, 0.6364769, -0.0493064, 0.056316435, 0.38279724, 0
670, 2152754842, 0.7467965, -0.023328133, 0.19193849, 0.6363754, 0.11254003, -0.098063014, 0.5298042, 0
671, 2152771509, 0.7467763, -0.02336011, 0.1919814, 0.636385, 0.10400002, 0.14658964, 0.67131424, 0
672, 2152788176, 0.7467276, -0.023473877, 0.1923458, 0.6363281, -0.30917016, 0.36954826, 0.3619156, 0
675, 2152838177, 0.7468004, -0.023799498, 0.1929087, 0.6360599, -0.032083385, -0.5907251, 0.36928463, 0
677, 2152871511, 0.74696624, -0.024092931, 0.19303206, 0.6358167, -0.519755, -0.05916863, 0.56826496, 0
678, 2152888178, 0.74700063, -0.024259377, 0.19317466, 0.6357268, -0.6879522, -0.26663494, 0.3029375, 0
679, 2152904845, 0.7470081, -0.024417672, 0.19340836, 0.63564074, -0.5968001, -0.37056082, 0.26686382, 0
681, 2152938179, 0.74698824, -0.024561204, 0.19363046, 0.6355909, -0.056095257, -0.5339141, 0.3538742, 0
682, 2152954846, 0.7469724, -0.024527881, 0.19362354, 0.6356129, -0.05896508, -0.2770711, 0.40565968, 0
683, 2152971513, 0.74698544, -0.02449587, 0.19355728, 0.63561904, -0.19223313, 9.4417384E-4, 0.4625063, 0
685, 2153004847, 0.74703276, -0.024356533, 0.1933048, 0.6356456, -0.19707021, -0.046114244, 0.26581955, 0
686, 2153021514, 0.7469703, -0.024246145, 0.19327193, 0.63573325, -0.11139633, 0.023032619, 0.31759834, 0
687, 2153038181, 0.74694186, -0.024150651, 0.19322185, 0.63578546, 0.0022905609, 0.07553235, 0.46617603, 0
690, 2153088182, 0.7468662, -0.023925133, 0.1929299, 0.63597155, 0.08350651, 0.067575395, 0.34884834, 0
691, 2153104849, 0.7468933, -0.02384843, 0.1927338, 0.6360022, -0.004059233, 0.14531064, 0.3276291, 0
693, 2153138183, 0.74694973, -0.023670293, 0.19233955, 0.63606197, 0.005574958, 0.10933427, 0.37129688, 0
694, 2153154850, 0.7469829, -0.023588192, 0.19214413, 0.6360849, 0.013825618, 0.093881585, 0.36992455, 0
695, 2153171517, 0.7470724, -0.023477618, 0.1918749, 0.63606524, -0.033616573, 0.07753536, 0.2481165, 0
697, 2153204851, 0.74738413, -0.023228992, 0.19136384, 0.63586223, 0.02977391, -0.14077534, 0.22706795, 0
698, 2153221518, 0.7475428, -0.023290474, 0.19116177, 0.6357341, 0.29018563, -0.21112609, 0.5126581, 0
699, 2153238185, 0.74767965, -0.023349617, 0.19083996, 0.6356678, 0.036441315, -0.057483397, 0.33450317, 0
701, 2153271519, 0.74821085, -0.023714293, 0.18954758, 0.6354158, 0.02029661, -0.33634782, 0.17319202, 0
702, 2153288186, 0.74840796, -0.023909848, 0.18902385, 0.63533247, 0.20468798, -0.14199993, 0.35127735, 0
705, 2153338187, 0.7491603, -0.024939671, 0.18744095, 0.63487506, 0.07531778, 0.18320803, 0.6373024, 0
706, 2153354854, 0.7494221, -0.025580939, 0.18715373, 0.63462496, 0.14069599, -0.08225378, 0.6525545, 0
708, 2153388188, 0.7499957, -0.027479231, 0.18724829, 0.6338398, -0.0076531256, -0.30101505, 0.24687862, 0
709, 2153404855, 0.75048697, -0.028544795, 0.18753493, 0.63312614, -0.17975007, 0.07288523, 0.40265083, 0
710, 2153421522, 0.75084686, -0.02942171, 0.18788753, 0.63255423, -0.11652853, -0.076202944, 0.3555956, 0
712, 2153454856, 0.7512313, -0.030177828, 0.18811981, 0.63199294, -0.2835358, 0.3859956, 0.16858292, 0
713, 2153471523, 0.75148904, -0.030281562, 0.18757616, 0.6318432, 0.5077573, 0.16801743, 0.50576305, 0
714, 2153488190, 0.7517606, -0.030476201, 0.187436, 0.63155246, 0.73100656, 0.34417626, 0.89236546, 0
716, 2153521524, 0.7523689, -0.03254946, 0.19111691, 0.62961847, -0.489643, 0.2638272, 0.83673, 0
717, 2153538191, 0.752861, -0.0342961, 0.19423246, 0.627982, -0.7424874, -0.8018119, -0.43217182, 0
718, 2153554858, 0.7533918, -0.036569033, 0.19771105, 0.6261289, -0.30687132, -2.1634362, 0.43888187, 0
720, 2153588192, 0.755841, -0.043129887, 0.20170178, 0.62146926, 7.495647E-4, -1.3919984, 0.81504154, 0
721, 2153604859, 0.75697523, -0.04622513, 0.20249681, 0.6196047, -1.2759786, -0.21910676, 0.0016126633, 0
722, 2153621526, 0.75757825, -0.04823827, 0.20248352, 0.61871815, -1.7158179, 0.29780096, 0.28526688, 0
724, 2153654860, 0.7560121, -0.047471106, 0.20099087, 0.62117493, -1.8670411, -0.87344205, -0.52688026, 0
725, 2153671527, 0.75499856, -0.045433287, 0.19916143, 0.62314606, -1.2277112, -1.9769846, 0.055324554, 0
726, 2153688194, 0.7547394, -0.04295478, 0.19664545, 0.62443364, -1.343326, -2.39599, 0.26093483, 0
728, 2153721528, 0.7542974, -0.040470045, 0.1954857, 0.6254971, -1.7650987, -1.524506, 1.2407761, 0
731, 2153771529, 0.75463307, -0.042092558, 0.19755672, 0.62433314, -1.8110538, -2.3897486, -0.4666586, 0
733, 2153804863, 0.7545203, -0.042577464, 0.19742915, 0.624477, -2.4992404, -2.3213012, 0.24295902, 0
735, 2153838197, 0.75469196, -0.043061703, 0.19644132, 0.6245478, -2.4720082, -2.4996705, 0.49273682, 0
736, 2153854864, 0.7547707, -0.043687828, 0.1962929, 0.6244557, -2.8327103, -2.7521992, 0.27268887, 0
737, 2153871531, 0.7548546, -0.043964952, 0.19601065, 0.6244235, -2.7909482, -2.4034116, 0.8657932, 0
739, 2153904865, 0.7549531, -0.044898123, 0.19641694, 0.6241102, -2.8932097, -2.5971181, 1.016221, 0
740, 2153921532, 0.75470364, -0.04516606, 0.19684172, 0.62425876, -3.4666762, -2.9382856, 0.28708172, 0
741, 2153938199, 0.7544865, -0.0457078, 0.19767825, 0.6242175, -3.0867035, -2.8745093, 0.0084114075, 0
743, 2153971533, 0.754591, -0.04645696, 0.19881825, 0.6236737, -3.1853704, -3.0904071, -0.04808998, 0
744, 2153988200, 0.7549601, -0.046342734, 0.19868541, 0.62327766, -2.9222429, -2.7966213, 0.47515202, 0
745, 2154004867, 0.7555155, -0.046041958, 0.19834712, 0.62273437, -2.8771553, -2.8520155, 0.60603046, 0
748, 2154054868, 0.7566249, -0.04621373, 0.20079277, 0.6205876, -3.803687, -2.427386, 0.9571171, 0
749, 2154071535, 0.75685394, -0.045931034, 0.20212983, 0.6198945, -4.1998796, -3.0882716, -1.1706905, 0
751, 2154104869, 0.7570398, -0.042498942, 0.20468539, 0.6190734, -3.735065, -2.4396014, 2.5225515, 0
752, 2154121536, 0.7570593, -0.040335983, 0.20627144, 0.6186675, -5.1431913, -4.1862273, -0.056162834, 0
753, 2154138203, 0.757386, -0.03920569, 0.20934653, 0.617306, -3.753765, -3.4106665, 0.10828686, 0
755, 2154171537, 0.7585988, -0.03597226, 0.21526036, 0.613971, -4.480064, -3.269338, -0.23196602, 0
756, 2154188204, 0.7594238, -0.03530554, 0.21794903, 0.6120383, -4.3479013, -3.437532, -0.5848589, 0
758, 2154221538, 0.7597169, -0.033719726, 0.22203638, 0.6102922, -3.155133, -1.8281596, 0.11024475, 0
759, 2154238205, 0.7598427, -0.030665651, 0.22131106, 0.61056006, -3.137278, -1.5635885, -0.776762, 0
760, 2154254872, 0.7601409, -0.027429927, 0.22013144, 0.61076915, -1.8156227, -2.1584496, 0.25228024, 0
763, 2154304873, 0.76262957, -0.020424534, 0.21027291, 0.61141455, 0.12622555, 0.5025111, 1.9038992, 0
764, 2154321540, 0.7636485, -0.01863046, 0.20733155, 0.6112046, -0.30999437, 1.5704684, 0.86686134, 0
766, 2154354874, 0.76437306, -0.015029632, 0.2051841, 0.61112255, 1.2611876, 2.3469892, 0.50651836, 0
767, 2154371541, 0.76443094, -0.013173934, 0.20588765, 0.61085635, 3.173011, 1.8740082, 1.6916084, 0
768, 2154388208, 0.7642531, -0.01106222, 0.20750749, 0.61057246, 3.2086647, 1.3025514, 1.4278879, 0
770, 2154421542, 0.76340425, -0.0071771145, 0.21128555, 0.6103967, 2.5139909, 1.5706902, 0.22878075, 0
771, 2154438209, 0.76283824, -0.0057713836, 0.21314485, 0.6104728, 2.636266, 1.5913459, 0.47087574, 0
772, 2154454876, 0.7621204, -0.0044744313, 0.21440439, 0.61093897, 2.1698124, 1.0315715, 0.251482, 0
774, 2154488210, 0.7605873, -0.0021026433, 0.216205, 0.61222637, 1.1511562, -3.4761854E-4, -0.07200146, 0
775, 2154504877, 0.76004255, -0.0011807606, 0.21683998, 0.61268085, 1.37337, -0.11068149, -0.64994335, 0
778, 2154554878, 0.7583723, 4.40225E-4, 0.217658, 0.61445856, 0.8875452, 1.1773266, 1.680974, 0
779, 2154571545, 0.7580519, 5.0623715E-4, 0.2172187, 0.6150093, 1.1541214, 0.11142709, 1.6937151, 0
780, 2154588212, 0.75791734, 2.739951E-4, 0.21678096, 0.61532974, 0.36988723, -1.014417, -1.4357653, 0
782, 2154621546, 0.75824916, -9.4058365E-4, 0.2145976, 0.6156854, -0.5893869, 1.2417266, 1.153964, 0
783, 2154638213, 0.75869936, -0.0019800216, 0.21276665, 0.6157639, -0.31268436, 0.8798384, 1.3801184, 0
785, 2154671547, 0.7597818, -0.00396616, 0.21097657, 0.615035, -0.7825484, 0.63134587, -1.1732502, 0
786, 2154688214, 0.7608211, -0.0049936324, 0.20940888, 0.614278, -0.86554724, 1.1783105, 0.0016508102, 0
787, 2154704881, 0.76209503, -0.0052120835, 0.20800239, 0.613174, -1.0644318, 0.9345262, 1.447135, 0
789, 2154738215, 0.76470995, -0.0060137585, 0.20589788, 0.6106161, -1.997598, -0.2832448, -0.34054852, 0
790, 2154754882, 0.7661027, -0.0064571574, 0.2056746, 0.6089389, -1.9929014, -0.08952057, -0.5911188, 0
791, 2154771549, 0.7676301, -0.0063504577, 0.2050973, 0.6072085, -1.9646518, -0.7968047, -0.6162052, 0
793, 2154804883, 0.77109706, -0.00599128, 0.20200452, 0.60384667, -0.7618182, -1.1409978, 2.5306435, 0
794, 2154821550, 0.772642, -0.0060879514, 0.20169373, 0.601972, -3.47487, -2.0478806, -1.2274323, 0
795, 2154838217, 0.77426594, -0.0065409467, 0.2003377, 0.6003314, -1.8514553, -1.3713541, -0.3291378, 0
797, 2154871551, 0.77758694, -0.0073638633, 0.1978285, 0.59685135, -2.6717622, -1.6400328, 0.25379276, 0
798, 2154888218, 0.7790494, -0.007462818, 0.19696581, 0.5952262, -2.6164076, -1.54323, 0.95625114, 0
799, 2154904885, 0.7801916, -0.007490568, 0.1966753, 0.59382415, -2.0048676, -1.1294534, 2.1335115, 0
801, 2154938219, 0.7818467, -0.007764712, 0.19930747, 0.5907582, -3.5021555, -2.2931426, -0.8449917, 0
802, 2154954886, 0.78253084, -0.007437408, 0.19951096, 0.58978707, -3.4184077, -2.9162164, -0.7977648, 0
805, 2155004887, 0.7833101, -0.006835118, 0.20280609, 0.58763224, -2.4313433, -1.3571365, 2.1773548, 0
806, 2155021554, 0.7835671, -0.0077748075, 0.20687138, 0.5858583, -5.1707144, -2.7701364, -3.2674346, 0
807, 2155038221, 0.78383166, -0.008249246, 0.20845188, 0.5849368, -3.3502579, -2.418185, -1.7710619, 0
809, 2155071555, 0.7840987, -0.008351237, 0.2079801, 0.58474547, -0.30521902, -1.8754326, 4.259905, 0
810, 2155088222, 0.78432256, -0.009512238, 0.20978974, 0.58378017, -1.1650184, -1.209148, 2.4965792, 0
812, 2155121556, 0.785672, -0.013555199, 0.21372692, 0.58044803, -2.4138064, -0.99020755, -1.2241049, 0
813, 2155138223, 0.7861805, -0.013973273, 0.21308805, 0.5799843, -3.2170992, -1.6943992, -1.140235, 0
814, 2155154890, 0.7870109, -0.01462134, 0.21178205, 0.57931995, -1.4506223, -0.8301566, 1.1756811, 0
816, 2155188224, 0.7880684, -0.015870512, 0.2120671, 0.5777434, -1.8493005, -0.4777675, 1.3665705, 0
817, 2155204891, 0.788681, -0.017793093, 0.21384077, 0.5761956, -1.67177, -1.156263, -0.8333206, 0
820, 2155254892, 0.7889738, -0.0141415, 0.21555568, 0.575256, -1.1242191, -0.62957656, -1.957799, 0
821, 2155271559, 0.78874063, -0.010792725, 0.21605419, 0.5754613, 0.75419074, 0.57536894, -0.4029932, 0
822, 2155288226, 0.7882111, -0.0065890998, 0.21586609, 0.57632023, -0.8860285, 0.36303243, 3.5834188, 0
824, 2155321560, 0.7873741, -0.0023490712, 0.22252208, 0.5749642, 1.2080412, 0.9970675, -1.5926676, 0
825, 2155338227, 0.78671664, 0.0011186749, 0.22327158, 0.57557684, -1.9340451, 0.4331508, 0.28768158, 0
826, 2155354894, 0.78632325, 0.004160665, 0.2236614, 0.5759491, -2.5583413, -1.9032276, -2.3160954, 0
828, 2155388228, 0.78587246, 0.008511364, 0.22265732, 0.5769049, -0.9409928, -1.7131021, 2.3059464, 0
829, 2155404895, 0.78591204, 0.008814491, 0.22383466, 0.57639056, 1.5419717, 1.2754116, -0.8899994, 0
830, 2155421562, 0.7859472, 0.009834893, 0.22305979, 0.57662636, 0.6190602, 1.4689085, -0.042446136, 0
832, 2155454896, 0.7861019, 0.011631504, 0.21921192, 0.5778565, 3.6422298, 0.67471576, 2.2378893, 0
834, 2155488230, 0.78546095, 0.012640834, 0.21633177, 0.57978916, 4.2782283, 2.6052017, 0.58027554, 0
836, 2155521564, 0.7840311, 0.013593301, 0.21518527, 0.5821246, 2.645016, 1.6969615, -0.69230175, 0
837, 2155538231, 0.7827257, 0.01381883, 0.21618566, 0.5835035, 1.9912477, 1.6957161, -1.0048018, 0
839, 2155571565, 0.78003514, 0.014023483, 0.21817203, 0.5863555, 1.6687657, 0.4206349, 1.5541859, 0
840, 2155588232, 0.7789856, 0.014349684, 0.21840498, 0.5876548, 1.0572938, 0.24106945, 2.2712564, 0
841, 2155604899, 0.7781206, 0.0143457055, 0.21941625, 0.5884236, 1.6354468, 0.6208375, 0.24747372, 0
843, 2155638233, 0.7771257, 0.013024747, 0.21772872, 0.59039265, 1.1610665, 0.21871598, 0.5455313, 0
844, 2155654900, 0.7771163, 0.012101039, 0.21619946, 0.5909866, 0.7692765, 0.21824364, 0.36060238, 0
845, 2155671567, 0.7774363, 0.010601342, 0.21486008, 0.5910829, 0.70076656, 0.655795, -0.3485613, 0
847, 2155704901, 0.77871644, 0.0076748133, 0.21034464, 0.59106714, -0.8198203, -0.40577573, 1.3030462, 0
849, 2155738235, 0.7797322, 0.0051577166, 0.20723309, 0.5908545, -0.5630241, 0.7275173, 0.31305408, 0
851, 2155771569, 0.7810073, 0.0024108142, 0.20401059, 0.590309, -0.5211173, -0.33595634, 0.8334398, 0
852, 2155788236, 0.7814266, 0.0013787821, 0.2029041, 0.5901387, -2.3113635, -1.2218604, -0.5419073, 0
853, 2155804903, 0.7816346, 8.881837E-4, 0.2024969, 0.590004, -2.5981185, -1.3776957, -1.6105738, 0
855, 2155838237, 0.7819186, 6.0807914E-4, 0.20000666, 0.5904774, -1.2483252, -2.8033555, 0.4940157, 0
856, 2155854904, 0.7816227, 9.237379E-4, 0.19943237, 0.5910627, 0.044425964, -2.1026456, 0.9563408, 0
857, 2155871571, 0.78124475, 0.0013441071, 0.19877818, 0.5917817, -1.6313558, -1.8298417, 2.1763992, 0
859, 2155904905, 0.7806129, 0.001123555, 0.19910385, 0.5925059, -1.331587, -2.1127307, -1.1503506, 0
860, 2155921572, 0.7798931, 0.0011013001, 0.1992423, 0.5934066, -1.9711579, -2.4331093, -1.2556267, 0
861, 2155938239, 0.77920794, 0.0014968365, 0.19873805, 0.5944742, -2.2294054, -3.0618904, -1.5263367, 0
863, 2155971573, 0.7784966, 0.0015639663, 0.19779094, 0.5957204, 1.5904627, 0.335867, 3.9700356, 0
864, 2155988240, 0.77813846, 0.0017030612, 0.19662319, 0.5965738, -0.7395541, -0.6779111, 4.0448627, 0
866, 2156021574, 0.7773293, 1.3488531E-4, 0.19848454, 0.5970147, -2.6570144, -1.5102375, -0.85362434, 0
867, 2156038241, 0.7768461, -2.3058802E-4, 0.19966663, 0.5972493, -1.2318003, -1.3160455, -2.1093225, 0
868, 2156054908, 0.7761858, -3.2719225E-4, 0.20042656, 0.5978529, 0.8037383, -1.1732168, -0.22477722, 0
870, 2156088242, 0.7749422, 7.3636323E-4, 0.19959648, 0.5997406, -2.0502393, -2.495106, 0.43680954, 0
871, 2156104909, 0.7743883, 6.522611E-4, 0.20085284, 0.6000366, -1.3985772, -1.1797369, 0.262228, 0
872, 2156121576, 0.7738113, 3.5592914E-4, 0.2022718, 0.6003045, -1.5371273, -1.4436285, -0.6507082, 0
875, 2156171577, 0.77136594, 0.0020578802, 0.20417744, 0.6027979, -0.92160314, -1.2463224, 1.7838602, 0
878, 2156221578, 0.7683498, 0.0017887056, 0.21016732, 0.60458946, -1.9244282, -0.27354273, 0.9170799, 0
879, 2156238245, 0.76736885, 0.0010480434, 0.21424773, 0.6044049, -2.0427318, -1.2494214, -1.196044, 0
880, 2156254912, 0.76648194, 8.976981E-4, 0.21805738, 0.6041678, -2.5201943, -2.5112875, -0.5324249, 0
882, 2156288246, 0.76439685, 0.0017493516, 0.22611389, 0.6038462, -3.5820925, -2.7035308, -1.3586712, 0
883, 2156304913, 0.7636373, 0.0012881532, 0.23021711, 0.6032578, -2.40366, -1.1655045, 1.5227461, 0
884, 2156321580, 0.76337224, 5.210787E-4, 0.23136246, 0.60315627, -2.8781466, -1.187479, 2.464367, 0
886, 2156354914, 0.76324874, -0.0036501437, 0.2359125, 0.601537, -3.697147, -1.4141585, 0.5615921, 0
887, 2156371581, 0.7632098, -0.0052716285, 0.23910561, 0.60031235, -2.016309, -0.43634003, -0.5173025, 0
888, 2156388248, 0.7642638, -0.0052667037, 0.24125198, 0.5981087, -1.9956551, 0.41341063, -3.8156695, 0
890, 2156421582, 0.7669879, 0.0059640184, 0.23232427, 0.5981495, 0.13871948, 3.1732342, -2.2352533, 0
893, 2156471583, 0.7711657, 0.01345662, 0.2182358, 0.59796226, 2.146793, 1.1212087, 4.810155, 0
894, 2156488250, 0.7724699, 0.0135735795, 0.21909985, 0.59595674, 3.7336361, 3.6433203, -4.710757, 0
895, 2156504917, 0.7734665, 0.014539659, 0.21761402, 0.59518546, 6.625745, 4.7997265, 0.38807392, 0
897, 2156538251, 0.77427423, 0.015699446, 0.2145574, 0.5952155, 6.6970577, 3.2551148, 5.1245623, 0
898, 2156554918, 0.7737834, 0.015444376, 0.21524489, 0.5956122, 7.9099107, 2.4186554, 2.1179981, 0
899, 2156571585, 0.7727428, 0.015493125, 0.21659765, 0.59647083, 5.358559, 2.38071, -0.334939, 0
901, 2156604919, 0.7708514, 0.015849113, 0.21834294, 0.5982698, 0.03634466, 1.2539777, -0.86354065, 0
902, 2156621586, 0.7696428, 0.016117632, 0.2203339, 0.5990882, 1.7991596, 1.5497457, -1.448533, 0
903, 2156638253, 0.7682394, 0.01625374, 0.22322041, 0.5998168, 2.8513005, 1.1548604, -0.051935196, 0
905, 2156671587, 0.7660577, 0.017172843, 0.23005718, 0.5999981, -0.34906703, -0.9112851, -0.62538433, 0
907, 2156704921, 0.7641595, 0.019559063, 0.23732437, 0.59951496, -1.9491212, -0.14147063, 0.4113102, 0
909, 2156738255, 0.76206917, 0.02476351, 0.2446945, 0.59902024, -4.380362, -1.234479, 1.2798214, 0
910, 2156754922, 0.7604858, 0.025515616, 0.24958128, 0.59898496, -3.2462409, -1.2125227, 1.4109688, 0
911, 2156771589, 0.75848955, 0.024018653, 0.25572854, 0.59898484, -3.9220722, -0.6876476, 2.1897125, 0
913, 2156804923, 0.75313723, 0.017757542, 0.2697811, 0.5997918, -3.2325337, 0.17250797, 0.2016058, 0
914, 2156821590, 0.745351, 0.015221849, 0.2866742, 0.6017485, -3.9941936, 2.1554148, 0.0011806488, 0
916, 2156854924, 0.71962357, 0.00111188, 0.3099899, 0.6213776, -5.178347, -2.2090538, -1.211072, 0
917, 2156871591, 0.69829607, -0.02073855, 0.31249166, 0.6437117, -1.3708771, -2.6268852, -0.60401154, 0
918, 2156888258, 0.6721983, -0.034396335, 0.31050608, 0.6712792, 3.4988184, -0.50902975, -0.3124962, 0
920, 2156921592, 0.64097863, -0.04038567, 0.3016752, 0.7046778, 2.2724833, -0.15343796, -1.3024406, 0
922, 2156954926, 0.65328634, -0.02369275, 0.27831686, 0.7037463, 4.247823, -5.5977993, 2.6254482, 0
924, 2156988260, 0.6729387, -0.00397072, 0.23958206, 0.6998583, -2.9674804, 2.1669135, -1.1631145, 0
925, 2157004927, 0.67454654, 0.004664317, 0.2325683, 0.7006717, -4.7902346, 3.6305242, 3.6901894, 0
926, 2157021594, 0.6770614, 0.0087175295, 0.22949047, 0.69922054, -7.4099336, 7.919183, 2.6933832, 0
928, 2157054928, 0.68758285, 0.0141601935, 0.22709063, 0.6895816, -1.470924, 1.2799115, 0.21475506, 0
929, 2157071595, 0.69310755, 0.019537337, 0.2280902, 0.6835632, 3.5069993, -0.41003576, -0.26474762, 0
930, 2157088262, 0.7012984, 0.028540544, 0.22662464, 0.6753299, -1.5432991, 4.630855, -0.62911797, 0
932, 2157121596, 0.7283303, 0.04642567, 0.21572223, 0.6487734, 1.783073, 1.3112267, 3.9594965, 0
933, 2157138263, 0.74283236, 0.05291418, 0.2091583, 0.63381076, 0.5018996, 0.7198812, 0.8352022, 0
934, 2157154930, 0.7549224, 0.05872354, 0.20498067, 0.62023365, 0.0548082, 1.667863, -0.051776886, 0
936, 2157188264, 0.7796952, 0.06741807, 0.19796179, 0.5902582, 1.0057803, 1.1307024, -2.3515778, 0
937, 2157204931, 0.79149777, 0.06985273, 0.19685128, 0.5744257, 3.16371, -4.8564725, 0.64681053, 0
938, 2157221598, 0.8007773, 0.07131387, 0.19493553, 0.5619019, 1.5836185, -6.6714387, -0.99948883, 0
940, 2157254932, 0.8071086, 0.074715756, 0.19562137, 0.55207694, 3.3969834, -4.4460697, 0.8725977, 0
941, 2157271599, 0.80518675, 0.07779685, 0.19842374, 0.5534558, 1.1252978, -1.3591554, -3.4423347, 0
942, 2157288266, 0.8042848, 0.081214264, 0.20215443, 0.55292606, -1.906669, 1.9492513, 0.20243645, 0
944, 2157321600, 0.80154306, 0.09568758, 0.21425644, 0.55002725, 0.32745242, 4.7635603, 2.5294304, 0
945, 2157338267, 0.80351573, 0.10347073, 0.22001365, 0.54342747, -2.769914, 8.636974, 0.6224661, 0
947, 2157371601, 0.8284445, 0.104059786, 0.22663185, 0.5015503, -1.5161226, 4.1363125, -2.7696295, 0
949, 2157404935, 0.847432, 0.061505318, 0.2399185, 0.46965775, -2.3821156, -10.680691, -2.3490481, 0
951, 2157438269, 0.8256149, 0.009118639, 0.26959142, 0.49564153, -5.476701, -7.375374, 5.889435, 0
952, 2157454936, 0.81290007, -0.0022539794, 0.27572668, 0.513056, -10.353078, 4.1276584, 11.926607, 0
953, 2157471603, 0.8049282, -3.0210614E-4, 0.27246267, 0.52717924, -11.412052, -0.58056766, 2.1991959, 0
955, 2157504937, 0.7998959, 0.0036729872, 0.25573462, 0.54296994, -4.894264, -4.5413604, -1.8416214, 0
956, 2157521604, 0.79876524, 0.007167086, 0.24843824, 0.5479641, -0.45452192, -6.940024, -3.4938316, 0
957, 2157538271, 0.7964246, 0.013306186, 0.24410306, 0.5531798, 4.9665794, -5.4560647, 2.3100243, 0
959, 2157571605, 0.78198814, 0.042717688, 0.24094123, 0.57330656, 13.702083, 1.4506121, -1.391222, 0
960, 2157588272, 0.7692078, 0.058964364, 0.24761581, 0.5861674, 17.09126, 5.758014, -8.006157, 0
961, 2157604939, 0.75813663, 0.068436496, 0.25791445, 0.5950535, 21.749289, 13.916063, -5.4926925, 0
964, 2157654940, 0.7621222, 0.056050576, 0.29411805, 0.574096, 27.439058, 21.839151, -8.707901, 0
965, 2157671607, 0.77082205, 0.036479205, 0.31748536, 0.55115247, 24.706411, 22.778566, -7.316778, 0
967, 2157704941, 0.78588647, -0.04352028, 0.36948648, 0.49399552, 40.502716, 6.972106, 13.703249, 0
969, 2157738275, 0.7864715, -0.09781113, 0.3827064, 0.4748628, -3.1637943, -8.707352, -4.000177, 0
971, 2157771609, 0.78413373, -0.14224371, 0.41112453, 0.44265234, -4.1629977, 0.7932547, 0.9334097, 0
972, 2157788276, 0.77136487, -0.17032816, 0.44034418, 0.42678457, -6.0085583, -0.5299826, 1.3207502, 0
974, 2157821610, 0.72218966, -0.25507608, 0.5147665, 0.38530144, -6.8293056, -2.761786, 5.2536974, 0
975, 2157838277, 0.6828313, -0.30569363, 0.5580968, 0.35900462, -9.025386, -1.7680383, 10.832111, 0
976, 2157854944, 0.634898, -0.3500061, 0.6070141, 0.32557273, -22.19928, -13.816109, 15.002666, 0
978, 2157888278, 0.54228973, -0.4143389, 0.69328433, 0.23165748, -29.646622, -48.34094, 13.971067, 0
980, 2157921612, 0.4338427, -0.44003505, 0.7408891, 0.2632421, -16.583347, -31.035753, 4.88188, 0
982, 2157954946, 0.43046546, -0.3673816, 0.7967103, 0.21224041, -22.567898, -3.3238494, -6.446128, 0
983, 2157971613, 0.4437183, -0.33786774, 0.8126592, 0.1691379, -28.723106, -8.361497, -9.169953, 0
984, 2157988280, 0.4597687, -0.32259363, 0.81436193, 0.14637014, -27.157238, -8.019636, -11.465858, 0
986, 2158021614, 0.50132346, -0.31261048, 0.79434764, 0.141509, -18.297535, -1.5181649, -12.971144, 0
987, 2158038281, 0.5257685, -0.31128302, 0.77811027, 0.14587112, -11.157846, 1.5615109, -14.018034, 0
988, 2158054948, 0.5517922, -0.3113484, 0.75958604, 0.14724109, -10.002294, 1.8765587, -12.669005, 0
990, 2158088282, 0.6112749, -0.30892903, 0.7106534, 0.1610614, -10.278844, -2.666294, -11.478735, 0
991, 2158104949, 0.63940716, -0.30497482, 0.6835402, 0.1760259, -8.1165905, -1.8159684, -11.127782, 0
992, 2158121616, 0.6660972, -0.29657662, 0.6562368, 0.19435376, -10.458365, -3.122634, -7.819996, 0
995, 2158171617, 0.7432, -0.23268649, 0.5654015, 0.27183723, -7.2237425, 1.9518365, -2.175252, 0
996, 2158188284, 0.7656366, -0.2021411, 0.5346381, 0.29523742, -7.1847878, 1.3505466, 0.96972656, 0
998, 2158221618, 0.80272293, -0.13944462, 0.47462708, 0.33314234, -3.6703987, 3.3362942, 10.085009, 0
999, 2158238285, 0.81889814, -0.11302322, 0.4403221, 0.3504446, -0.745248, 1.512488, 15.107405, 0
1001, 2158271619, 0.84293765, -0.058784038, 0.37043604, 0.38579947, 7.481552, -0.089137316, 8.211275, 0
1002, 2158288286, 0.8469586, -0.031170279, 0.34276968, 0.40529266, 7.2736573, 1.0722505, 13.588879, 0
1003, 2158304953, 0.8476852, -0.0044802427, 0.31567776, 0.42640448, 8.949169, 2.8710763, 11.071304, 0
1005, 2158338287, 0.84455085, 0.040927097, 0.26287898, 0.46477598, 8.183175, 6.092437, 5.0843487, 0
1006, 2158354954, 0.8421976, 0.062673576, 0.23968247, 0.47894797, 7.8255434, 5.6558967, 4.553609, 0
1007, 2158371621, 0.8391244, 0.08143382, 0.21811336, 0.49165928, 6.8196464, 5.9772396, 1.9033709, 0
1009, 2158404955, 0.83090615, 0.10436148, 0.1833039, 0.5149436, 6.587489, 4.9915624, -1.5157547, 0
1010, 2158421622, 0.82684803, 0.10937679, 0.17168382, 0.5243541, 7.1117153, 6.2178583, -1.9067254, 0
1011, 2158438289, 0.8217861, 0.11763876, 0.16462186, 0.5327211, 7.7827854, 6.5837235, -1.9912639, 0
1013, 2158471623, 0.8087782, 0.1337665, 0.16470581, 0.5485614, 9.153592, 5.7694025, -4.5596123, 0
1014, 2158488290, 0.80231595, 0.13659441, 0.16825864, 0.5562225, 11.251866, 6.7687883, -3.6531596, 0
1015, 2158504957, 0.7966624, 0.13724321, 0.17111014, 0.5632745, 11.761967, 7.7793508, -5.3383584, 0
1017, 2158538291, 0.78649426, 0.13708857, 0.18235803, 0.5739707, 11.063909, 8.508854, -8.758829, 0
1018, 2158554958, 0.7822632, 0.13503599, 0.19078916, 0.577488, 12.191732, 8.693758, -6.647911, 0
1019, 2158571625, 0.7800677, 0.13037038, 0.19748443, 0.57927644, 13.739812, 9.095143, -4.384409, 0
1024, 2158654960, 0.78911626, 0.11806398, 0.23692037, 0.55433613, 21.182817, 8.269971, -4.240334, 0
1025, 2158671627, 0.79121876, 0.11211571, 0.25146973, 0.5461039, 24.13039, 8.180407, -2.4878473, 0
1026, 2158688294, 0.79261005, 0.09428454, 0.26808012, 0.53951454, 23.892574, 7.5522847, -6.1331797, 0
1029, 2158738295, 0.8115464, -0.0021509752, 0.30146962, 0.50056696, -2.4317935, 24.203253, 10.937658, 0
1030, 2158754962, 0.8157282, -0.011162773, 0.32275942, 0.4799509, -16.724121, -9.369596, -2.2121305, 0
1032, 2158788296, 0.81593317, -0.050298445, 0.36330295, 0.4469873, -1.266877, -0.3829657, -2.2363396, 0
1033, 2158804963, 0.80964947, -0.070354, 0.38718134, 0.43551362, -1.0499201, 2.1297727, 0.33028412, 0
1034, 2158821630, 0.7995901, -0.092594355, 0.4149704, 0.42419928, -2.019321, -0.57840955, 0.72276306, 0
1036, 2158854964, 0.765502, -0.15419096, 0.48529986, 0.3934201, -6.9613676, -1.0722558, 2.5026321, 0
1037, 2158871631, 0.73712903, -0.19612432, 0.52712893, 0.37466577, -6.440055, 0.32105726, 3.4823093, 0
1040, 2158921632, 0.5857638, -0.3258742, 0.6903317, 0.27238268, -29.757412, -23.90423, 22.510033, 0
1041, 2158938299, 0.5343086, -0.36705637, 0.7267302, 0.22739927, -21.070263, -37.978577, 20.624813, 0
1042, 2158954966, 0.48543438, -0.40905577, 0.7416245, 0.21698731, -35.35043, -64.78104, 23.716904, 0
1044, 2158988300, 0.5001096, -0.36361277, 0.76342404, 0.18687746, -0.76882666, -4.2976623, -1.2786379, 0
1045, 2159004967, 0.498384, -0.34286627, 0.7843668, 0.1374342, -16.106802, -15.5848465, -3.4726982, 0
1046, 2159021634, 0.48626325, -0.33165342, 0.8018183, 0.1034642, -29.898424, -12.274567, -7.6580715, 0
1048, 2159054968, 0.47887027, -0.32418665, 0.81265646, 0.07237985, -25.582565, 0.635153, -14.005619, 0
1049, 2159071635, 0.4874489, -0.32239655, 0.80927527, 0.059924573, -21.18995, 1.1263798, -16.131546, 0
1050, 2159088302, 0.5026465, -0.32489422, 0.79931694, 0.05427669, -18.449379, 0.31377402, -16.489851, 0
1052, 2159121636, 0.54683405, -0.3376665, 0.76395106, 0.05827488, -9.728401, 1.5171127, -14.332148, 0
1055, 2159171637, 0.62751466, -0.34635022, 0.6921519, 0.08518249, -9.313345, -0.0435944, -11.0892725, 0
1056, 2159188304, 0.6602532, -0.33610237, 0.6641404, 0.10040806, -9.388851, -0.8857171, -8.989321, 0
1057, 2159204971, 0.6949813, -0.31859276, 0.6333756, 0.11999364, -8.66852, -1.7896391, -6.392507, 0
1059, 2159238305, 0.76016897, -0.2664113, 0.5673711, 0.1712355, -1.6929779, 1.0092968, -4.205463, 0
1060, 2159254972, 0.78506327, -0.23461777, 0.5386337, 0.19638525, -1.7616059, -0.013621997, -1.9221387, 0
1061, 2159271639, 0.8029708, -0.20049703, 0.5138782, 0.22590117, -3.9661386, -1.0032784, 2.7032318, 0
1063, 2159304973, 0.824462, -0.13751143, 0.46455842, 0.29257762, -1.4191505, 1.6843768, 13.582516, 0
1064, 2159321640, 0.8346165, -0.11139966, 0.43396068, 0.3205416, 2.5259786, 4.1136675, 13.011568, 0
1065, 2159338307, 0.844934, -0.08644757, 0.40139395, 0.34287, 4.1364875, -0.5471833, 14.163662, 0
1067, 2159371641, 0.85624325, -0.036818758, 0.34123883, 0.38614932, 6.1010575, -2.815969, 13.589945, 0
1069, 2159404975, 0.85513514, 0.015425876, 0.28465122, 0.43306208, 6.1607246, 1.2321861, 6.9211407, 0
1071, 2159438309, 0.84401506, 0.061654694, 0.23534918, 0.47802895, 4.5584817, 4.120788, 4.3883057, 0
1072, 2159454976, 0.83539104, 0.08059847, 0.21546583, 0.49926314, 4.0383277, 6.376522, 2.0736942, 0
1073, 2159471643, 0.82693547, 0.09405403, 0.19866708, 0.5176163, 4.7756753, 7.4558864, 2.2431622, 0
1075, 2159504977, 0.81690776, 0.11168268, 0.16511028, 0.5412861, 6.786193, 9.899503, 0.75059986, 0
1076, 2159521644, 0.81550455, 0.118441045, 0.15232807, 0.5456954, 7.1161194, 8.108382, -3.6712937, 0
1077, 2159538311, 0.8152896, 0.12295608, 0.14666592, 0.54656845, 6.91752, 7.6328287, -6.265505, 0
1079, 2159571645, 0.81277966, 0.1325942, 0.15212175, 0.5465623, 11.069297, 6.616076, -2.2726412, 0
1080, 2159588312, 0.81002855, 0.13730551, 0.15622535, 0.54832286, 11.032987, 5.509553, -3.7248158, 0
1082, 2159621646, 0.80567414, 0.13631564, 0.16505513, 0.55238354, 9.851549, 5.047605, -5.1401114, 0
1083, 2159638313, 0.8049317, 0.13084221, 0.16956446, 0.55342245, 9.664867, 4.8066077, -4.6688895, 0
1084, 2159654980, 0.80480987, 0.123989224, 0.17430048, 0.5537061, 8.9648485, 4.7886105, -4.8442593, 0
1086, 2159688314, 0.8045328, 0.11197575, 0.18552215, 0.5530217, 9.469267, 4.5536537, -3.8402514, 0
1087, 2159704981, 0.80421245, 0.10789298, 0.18997005, 0.5527895, 10.064584, 4.3369775, -3.9954314, 0
1088, 2159721648, 0.8037109, 0.104818866, 0.194276, 0.552614, 10.340314, 3.9097736, -6.0229883, 0
1090, 2159754982, 0.8026206, 0.1024538, 0.211922, 0.5481387, 13.268506, 5.7633977, -6.5805826, 0
1091, 2159771649, 0.80319405, 0.1032107, 0.22258323, 0.54290617, 16.822586, 6.366003, -4.0077243, 0
1092, 2159788316, 0.80465406, 0.10309624, 0.23030953, 0.53751636, 19.106802, 5.8822627, -4.976267, 0
1094, 2159821650, 0.8093454, 0.08295258, 0.25563762, 0.5222946, 21.432714, 6.1363726, -6.132801, 0
1096, 2159854984, 0.8140693, 0.044125617, 0.29383117, 0.49907005, 21.740536, 10.020974, -0.24314594, 0
1098, 2159888318, 0.8216011, -0.011350431, 0.34507576, 0.4536838, 43.486702, 15.633233, 58.30614, 0
1099, 2159904985, 0.83183366, -0.040655844, 0.3310943, 0.44366646, 2.6576424, 7.1120067, -9.291643, 0
1100, 2159921652, 0.83501023, -0.06771129, 0.33722928, 0.42954978, -6.3764133, -2.0465276, 1.0208502, 0
1102, 2159954986, 0.83058506, -0.10621823, 0.36425623, 0.4077098, -3.550032, 0.17063984, 1.3913479, 0
1103, 2159971653, 0.82148594, -0.1318716, 0.38995206, 0.39467898, -4.4347534, -1.017215, 1.8902073, 0
1104, 2159988320, 0.80733067, -0.16334851, 0.422532, 0.37823874, -4.1251497, -1.8503538, 2.223466, 0
1106, 2160021654, 0.7566134, -0.2510146, 0.5074063, 0.32730728, -8.372159, -1.8768622, 8.139835, 0
1107, 2160038321, 0.71983355, -0.2886944, 0.56062484, 0.2902732, -13.63877, -3.3527524, 13.668053, 0
1109, 2160071655, 0.6304795, -0.33146077, 0.67899567, 0.17792553, -33.6742, -23.006466, 29.988926, 0
1111, 2160104989, 0.5349421, -0.37981611, 0.7227764, 0.21733446, -22.819025, -49.63828, 14.233824, 0
1113, 2160138323, 0.47187272, -0.32981995, 0.7978314, 0.17911863, -33.843475, -12.619189, 7.354204, 0
1114, 2160154990, 0.45382905, -0.31263298, 0.8218921, 0.1444183, -49.482494, -11.75871, -4.661087, 0
1115, 2160171657, 0.45083258, -0.3087693, 0.82859117, 0.12211273, -41.78751, -0.005524961, -12.887188, 0
1117, 2160204991, 0.4882744, -0.3232063, 0.80745554, 0.072144344, -26.763668, 1.117038, -16.3655, 0
1118, 2160221658, 0.51788497, -0.3350365, 0.7849812, 0.058428332, -19.08991, -2.0917377, -16.42827, 0
1119, 2160238325, 0.5450742, -0.34977752, 0.75964814, 0.059564352, -12.489198, -4.9905076, -18.104023, 0
1121, 2160271659, 0.5859185, -0.37038442, 0.7130651, 0.10543516, -7.364975, -4.440548, -17.88248, 0
1122, 2160288326, 0.60465866, -0.36458576, 0.6936508, 0.14274852, -6.5496473, -4.036208, -15.769159, 0
1123, 2160304993, 0.62278897, -0.3481175, 0.6756079, 0.18591827, -5.2395334, -1.9209472, -13.34256, 0
1126, 2160354994, 0.6884956, -0.25135303, 0.60743946, 0.30639216, -6.350197, -1.8996254, -2.1962972, 0
1127, 2160371661, 0.71177226, -0.21522757, 0.57167256, 0.3468591, -0.9793818, -2.780736, 0.52386475, 0
1129, 2160404995, 0.73926187, -0.14324234, 0.49700916, 0.4312991, 9.933542, -2.3449295, 3.3141642, 0
1130, 2160421662, 0.7390575, -0.10530673, 0.46744335, 0.47356576, 14.335744, 2.8721836, 6.85548, 0
1132, 2160454996, 0.7197521, -0.049351297, 0.42533898, 0.54650867, 24.143448, 10.611041, 4.9717836, 0
1133, 2160471663, 0.7043203, -0.03694968, 0.41306466, 0.5762019, 23.921833, 12.279844, 5.5006094, 0
1134, 2160488330, 0.6893652, -0.0267108, 0.40404215, 0.6007293, 23.313711, 23.765356, 11.724056, 0
1136, 2160521664, 0.6694207, -0.024022512, 0.39151773, 0.6309326, 26.562542, 20.56921, 1.2383909, 0
1137, 2160538331, 0.65854007, -0.029767908, 0.39866248, 0.6376287, 11.454585, 24.275965, 3.6015577, 0
1138, 2160554998, 0.65530324, -0.029789604, 0.408534, 0.63470757, 6.062355, 3.4432437, -1.00103, 0
1141, 2160604999, 0.6679988, -0.061925776, 0.42794895, 0.6056945, -5.2942376, -3.2389233, 1.9551029, 0
1142, 2160621666, 0.67731684, -0.06553035, 0.42929047, 0.59390306, -7.6062713, -0.20594774, 1.783473, 0
1144, 2160655000, 0.69266164, -0.050985903, 0.4286667, 0.5778656, -0.20561638, -9.64136, 0.43591022, 0
1145, 2160671667, 0.6898103, -0.03889467, 0.43358266, 0.57854867, -1.7407029, -6.440741, 2.6474533, 0
1146, 2160688334, 0.68299127, -0.02123268, 0.43968782, 0.58293235, -2.958288, -3.750167, 3.4043503, 0
1148, 2160721668, 0.6751507, 0.0029182732, 0.4437532, 0.5893297, -3.3219457, 2.059936, -1.0338459, 0
1149, 2160738335, 0.67578834, 0.0060037225, 0.4439877, 0.5883983, -0.84631026, 1.813303, -3.5584173, 0
1150, 2160755002, 0.67021936, -0.019320846, 0.4596212, 0.58244675, 34.013992, 13.38077, -29.810085, 0
1152, 2160788336, 0.6789163, -0.065862, 0.45285973, 0.5742091, 7.6213064, 10.019211, 2.7253819, 0
1153, 2160805003, 0.6960946, -0.10281247, 0.44320548, 0.55544066, 9.420702, 6.181057, -25.1162, 0
1154, 2160821670, 0.7032167, -0.13785516, 0.4555937, 0.52818584, 7.758259, 0.929606, -10.096317, 0
1156, 2160855004, 0.688299, -0.18298557, 0.5051046, 0.4875384, -11.033861, -10.247339, 11.614758, 0
1157, 2160871671, 0.6976508, -0.17984962, 0.49839967, 0.48228478, -22.591566, -8.680113, 8.806612, 0
1158, 2160888338, 0.7122166, -0.17604151, 0.4829982, 0.47805113, -4.4567847, -12.5637245, -10.060299, 0
1160, 2160921672, 0.7517294, -0.1589733, 0.46196938, 0.44303283, -0.99510807, -5.382495, 1.239768, 0
1161, 2160938339, 0.7739039, -0.15029635, 0.4498323, 0.4197593, 2.2327654, -6.5684342, 8.738964, 0
1163, 2160971673, 0.82021374, -0.13920224, 0.41377366, 0.36976612, -6.1417294, 2.0019622, -7.7667465, 0
1164, 2160988340, 0.84054404, -0.12893417, 0.40011314, 0.34181055, -9.010717, 0.9572435, -2.6952982, 0
1165, 2161005007, 0.8572101, -0.116708465, 0.3813016, 0.32594848, -4.101566, 6.0663767, 3.976841, 0
1168, 2161055008, 0.87925005, -0.03508705, 0.30882907, 0.3610765, -4.046633, 5.6420956, -4.205103, 0
1169, 2161071675, 0.87641174, -0.00444109, 0.2927757, 0.3823984, -3.9776917, -1.5583801, -2.2374573, 0
1171, 2161105009, 0.87117696, 0.04171586, 0.25959888, 0.4147073, -3.402362, -9.691802, 7.711155, 0
1172, 2161121676, 0.870667, 0.054010592, 0.25393784, 0.41785255, -2.9974387, -7.138582, -2.375413, 0
1173, 2161138343, 0.8700637, 0.052419566, 0.26422086, 0.4129069, 0.37905544, -1.6410306, -2.986147, 0
1175, 2161171677, 0.8672386, 0.03575424, 0.28752986, 0.40497994, 3.1814756, -1.874216, 0.31713867, 0
1176, 2161188344, 0.8622476, 0.03694188, 0.2889195, 0.4144313, -1.3541443, -5.863734, -11.965733, 0
1177, 2161205011, 0.8632431, 0.04057046, 0.2746129, 0.4216829, 4.170002, 1.66692, -9.164094, 0
1179, 2161238345, 0.87967765, 0.06753582, 0.1999374, 0.42625642, 6.8864503, -3.08025, 0.15030766, 0
1180, 2161255012, 0.8800638, 0.0644348, 0.1925119, 0.42934632, 3.9767125, 4.4035378, 18.46282, 0
1183, 2161305013, 0.88005763, 0.050840613, 0.1894263, 0.4325444, 3.7454605, -2.2751284, -17.420265, 0
1184, 2161321680, 0.8777939, 0.0534696, 0.18447827, 0.43891945, -1.0232575, -4.543531, -0.15817356, 0
1185, 2161338347, 0.87628555, 0.05250945, 0.1844673, 0.44204235, 9.616409, 3.7495933, 11.505514, 0
1187, 2161371681, 0.8743599, 0.049561553, 0.18869126, 0.44440684, 7.41087, 2.5575926, -0.90287685, 0
1188, 2161388348, 0.8737603, 0.048502587, 0.18913522, 0.44551268, -4.6538773, -4.556124, -6.8604507, 0
1190, 2161421682, 0.87162215, 0.048641182, 0.1844762, 0.45159793, 0.328954, -0.22509679, -1.1640387, 0
1191, 2161438349, 0.87054896, 0.048293233, 0.18250908, 0.45449555, 8.0779085, 2.532584, 4.8240967, 0
1192, 2161455016, 0.86984813, 0.047917597, 0.1797871, 0.45695525, 7.262751, 2.1270034, 7.956259, 0
1194, 2161488350, 0.867921, 0.048256624, 0.17694092, 0.46167034, -5.5413594, -1.8897184, -4.0694427, 0
1195, 2161505017, 0.86629957, 0.04917742, 0.17720832, 0.4645074, -3.7597442, -2.0583198, -6.818321, 0
1198, 2161555018, 0.86009085, 0.053465962, 0.17935647, 0.47463673, 2.0394168, -1.7495304, -0.8045883, 0
1199, 2161571685, 0.8585407, 0.053448662, 0.18102454, 0.4768068, 0.64132726, -1.4456167, 6.4990463, 0
1200, 2161588352, 0.8572259, 0.056788143, 0.17485966, 0.4810678, -8.017648, -5.6743965, 7.7373943, 0
1202, 2161621686, 0.85505486, 0.0540759, 0.18178588, 0.482674, 5.69873, 2.59792, 1.4817133, 0
1203, 2161638353, 0.85384285, 0.055569712, 0.17946313, 0.48551095, -1.3519063, -1.5721486, 0.2961731, 0
1204, 2161655020, 0.8532132, 0.05568939, 0.17777728, 0.4872214, -2.7530584, -1.9641956, -0.620554, 0
1206, 2161688354, 0.8516282, 0.054644734, 0.17918804, 0.48959017, -0.45684794, 1.0545601, 7.932255, 0
1207, 2161705021, 0.850924, 0.056458708, 0.1765988, 0.49154568, -7.939486, -2.7481391, 3.8411932, 0
1208, 2161721688, 0.8504034, 0.056017853, 0.17980811, 0.49133313, -7.0778418, -1.7635809, -0.47297955, 0
1210, 2161755022, 0.8493641, 0.056149583, 0.1867216, 0.49053687, -2.6754024, -0.45406267, -2.9694858, 0
1212, 2161788356, 0.84870505, 0.061625164, 0.18527049, 0.4915691, -4.0750327, -0.9355105, 6.0130386, 0
1214, 2161821690, 0.84823287, 0.06544918, 0.19419914, 0.4884339, -8.617804, -1.5331771, -5.8741026, 0
1215, 2161838357, 0.8476604, 0.067939326, 0.20008719, 0.48670793, -7.3513446, -1.6224761, -8.133531, 0
1217, 2161871691, 0.8478515, 0.07602838, 0.19969824, 0.48533645, 2.0228813, 3.9808354, 9.920874, 0
1218, 2161888358, 0.8471927, 0.08074559, 0.20657983, 0.48283806, -0.36158425, 5.818299, 0.31119156, 0
1219, 2161905025, 0.8459847, 0.0862401, 0.21456754, 0.48051703, -0.70241326, 4.0729218, -4.234055, 0
1221, 2161938359, 0.8439262, 0.097338185, 0.21964937, 0.4797201, 10.66891, -1.1406854, -9.451116, 0
1222, 2161955026, 0.8479307, 0.0961351, 0.20713332, 0.4784671, 6.5672183, 9.130848, 10.506985, 0
1223, 2161971693, 0.85004056, 0.09777791, 0.20120671, 0.4769169, 1.9841084, 2.4840653, 4.220438, 0
1225, 2162005027, 0.853294, 0.10202986, 0.19862594, 0.47126478, -0.63825196, 4.524425, -5.538505, 0
1226, 2162021694, 0.8546332, 0.1046516, 0.19713014, 0.46888494, 0.5601473, 4.7533636, -2.0755758, 0
1227, 2162038361, 0.85638344, 0.10697685, 0.1962116, 0.4655403, -1.3353388, 3.9209027, -1.8401318, 0
1229, 2162071695, 0.85921264, 0.11250907, 0.19862299, 0.45793837, 3.868961, 3.7874866, 7.2182217, 0
1230, 2162088362, 0.86076057, 0.11471072, 0.20006324, 0.45384005, 3.973206, 3.8963552, 1.3190746, 0
1231, 2162105029, 0.86270916, 0.11587958, 0.19993797, 0.44988132, 5.109862, 1.6452379, -2.4408207, 0
1233, 2162138363, 0.8676216, 0.11596743, 0.19512558, 0.44246304, 1.0136158, 2.070932, 2.4925032, 0
1234, 2162155030, 0.8700968, 0.11490493, 0.19377196, 0.4384564, 1.7378819, 4.530191, -1.096736, 0
1235, 2162171697, 0.8726226, 0.113563396, 0.19157222, 0.43473724, 4.2542944, 3.2740176, 0.9175501, 0
1237, 2162205031, 0.8774874, 0.11125593, 0.18720919, 0.42738032, 2.5750797, 1.3797853, -0.62462616, 0
1240, 2162255032, 0.88419235, 0.106485754, 0.18094856, 0.41735524, 2.0952668, 1.1935967, -0.25953293, 0
1241, 2162271699, 0.8861986, 0.10436055, 0.17877063, 0.41456634, 1.4258945, 0.3853379, 0.034747124, 0
1242, 2162288366, 0.88790345, 0.10257685, 0.17690156, 0.41215852, 2.4823294, -0.28470778, -0.13837433, 0
1244, 2162321700, 0.89022875, 0.101297215, 0.17343, 0.40892175, 0.79240596, -0.52432245, -0.39123058, 0
1245, 2162338367, 0.89073867, 0.10134959, 0.17263882, 0.40813246, 1.0921001, -0.44145122, -0.68316746, 0
1246, 2162355034, 0.8909061, 0.10145722, 0.17166787, 0.40814978, 0.43776822, -0.87582827, -1.1306133, 0
1248, 2162388368, 0.8902229, 0.10170369, 0.17170274, 0.40956196, 2.1974113, -1.3952967, 1.4958849, 0
1249, 2162405035, 0.88983977, 0.101176605, 0.17188902, 0.4104458, 1.8276134, -0.58193344, 1.2263985, 0
1250, 2162421702, 0.8895168, 0.1005916, 0.17156707, 0.41142347, -0.28959122, -0.8321857, -0.445508, 0
1252, 2162455036, 0.88877386, 0.09953595, 0.17042829, 0.4137527, 0.20816383, -0.76467973, 0.9129715, 0
1254, 2162488370, 0.88813084, 0.09860025, 0.16990961, 0.41556665, 0.73225075, 1.0236005, 0.16636276, 0
1256, 2162521704, 0.8874, 0.09766551, 0.17091836, 0.41693267, 1.2150651, -0.037848834, 0.47083664, 0
1257, 2162538371, 0.88707995, 0.09771779, 0.17022866, 0.41788256, -1.9100165, -1.111759, 2.356164, 0
1258, 2162555038, 0.8868617, 0.097562335, 0.1701819, 0.41840082, -1.6538491, -0.67087924, 0.3027029, 0
1260, 2162588372, 0.88636863, 0.09718945, 0.17197679, 0.41879866, 1.0805732, 0.7609281, 2.0050058, 0
1261, 2162605039, 0.8861161, 0.09723267, 0.17207506, 0.41928256, -2.426465, -0.2777234, 0.6268234, 0
1262, 2162621706, 0.88598937, 0.096917674, 0.17328605, 0.41912425, -2.2058234, -0.08910547, -0.8732519, 0
1264, 2162655040, 0.8860352, 0.096764356, 0.17469966, 0.41847545, 0.13344198, 0.5411805, 0.87741756, 0
1265, 2162671707, 0.8860671, 0.097209066, 0.17467356, 0.4183156, -0.7307729, 0.37498087, 3.109027, 0
1266, 2162688374, 0.8861092, 0.09754008, 0.17584266, 0.41765904, -3.7315328, 0.41517574, 0.88379, 0
1269, 2162738375, 0.8871403, 0.0975756, 0.18049899, 0.41345456, -0.41092446, 0.5404309, 1.4499454, 0
1271, 2162771709, 0.88834363, 0.099297814, 0.17939587, 0.4109335, -2.377326, 1.2962564, 2.6994743, 0
1272, 2162788376, 0.8890828, 0.0988581, 0.18131566, 0.40859148, -1.4339757, 0.8381073, 2.6687317, 0
1273, 2162805043, 0.88985837, 0.09817589, 0.18461166, 0.40558034, -5.7942634, -0.2063573, -2.7763777, 0
1275, 2162838377, 0.89169145, 0.10052177, 0.18342802, 0.40149614, -2.2733061, 1.0546409, 4.0276585, 0
1276, 2162855044, 0.89275295, 0.10169829, 0.18210733, 0.39943692, -4.1414165, 1.0872443, 3.0986977, 0
1277, 2162871711, 0.8936892, 0.10152441, 0.18401381, 0.39650288, -1.1125532, 2.487942, 2.3745623, 0
1279, 2162905045, 0.89551353, 0.10267568, 0.18723217, 0.39053914, -3.172226, 0.43656054, -1.6229258, 0
1280, 2162921712, 0.89635897, 0.103847206, 0.18719822, 0.38829944, -3.5343933, -0.19025232, 0.9544306, 0
1281, 2162938379, 0.89726424, 0.104600534, 0.18828608, 0.38547024, -3.5483396, 0.43023384, 0.99056625, 0
1284, 2162988380, 0.8992825, 0.108200505, 0.19405572, 0.37681478, -2.3897936, 0.6225518, -4.1177697, 0
1285, 2163005047, 0.9000239, 0.1102499, 0.19261563, 0.37518612, -0.772878, 0.8651175, -1.7591867, 0
1287, 2163038381, 0.901427, 0.11593358, 0.18253154, 0.37514576, 1.6736217, 1.842588, 2.4009447, 0
1288, 2163055048, 0.9020337, 0.11731397, 0.17818019, 0.37535036, 1.6283909, 1.5557611, -0.5635681, 0
1289, 2163071715, 0.90242136, 0.11879379, 0.1773116, 0.37436303, 8.848996, 2.3969278, -1.1671896, 0
1291, 2163105049, 0.9027102, 0.12111206, 0.17391136, 0.37451857, 5.314358, 2.6518548, 0.97371006, 0
1292, 2163121716, 0.90261924, 0.12227173, 0.17444792, 0.3741115, 7.3031926, 2.3298705, 0.2897148, 0
1293, 2163138383, 0.90252155, 0.12306402, 0.17632256, 0.3732076, 10.377838, 2.8396895, 1.9614754, 0
1295, 2163171717, 0.90513194, 0.119046405, 0.17316222, 0.36965182, 5.5198073, 0.44644275, 1.6420975, 0
1296, 2163188384, 0.9069836, 0.1143436, 0.17154007, 0.3673467, 6.618778, 1.4494318, -1.4447155, 0
1298, 2163221718, 0.91146225, 0.1039003, 0.16609427, 0.3618248, 2.8794754, 2.7058573, -0.008342743, 0
1299, 2163238385, 0.91340417, 0.100124545, 0.16457748, 0.35867187, 1.2687134, 2.2173424, -0.75767136, 0
1300, 2163255052, 0.9148068, 0.098077804, 0.16409077, 0.35587475, 2.8358214, 2.4178984, -0.33685112, 0
1302, 2163288386, 0.91612756, 0.09859067, 0.16542116, 0.35169488, 1.1045669, 0.13596366, -0.21417332, 0
1303, 2163305053, 0.91619813, 0.10044613, 0.16703343, 0.3502208, -0.031424414, -0.6726508, -0.7691479, 0
1304, 2163321720, 0.9158675, 0.102902055, 0.16991049, 0.34898642, 1.3107533, -0.7240647, -0.07060146, 0
1306, 2163355054, 0.9145281, 0.11225118, 0.175637, 0.3467755, -2.379552, -0.4304272, 0.32035255, 0
1307, 2163371721, 0.9131974, 0.121186435, 0.17997444, 0.3450463, -0.62949646, 0.46693873, 1.7169704, 0
1308, 2163388388, 0.91160935, 0.1339683, 0.18091664, 0.34402534, -1.3335663, 1.2590632, 3.792058, 0
1311, 2163438389, 0.9104727, 0.17311831, 0.16994566, 0.33503926, -1.4811985, -1.1949961, 1.3515825, 0
1312, 2163455056, 0.9130604, 0.183159, 0.16368937, 0.32564187, -2.314009, 2.5737145, -1.3941154, 0
1314, 2163488390, 0.92498916, 0.19949591, 0.14502151, 0.28918573, 0.103456534, 4.030542, -1.4269972, 0
1315, 2163505057, 0.9325937, 0.20650081, 0.13443212, 0.26385185, 2.2786856, 0.60338557, -1.8258495, 0
1316, 2163521724, 0.9392156, 0.21243866, 0.1255428, 0.23884334, -0.19236495, -4.6196327, -2.9990015, 0
1318, 2163555058, 0.9458522, 0.21838406, 0.11917348, 0.20864584, -2.6892493, -6.2787952, -3.7050557, 0
1319, 2163571725, 0.9482521, 0.21628743, 0.120557, 0.19891451, 0.36840266, -0.3412343, -3.152089, 0
1320, 2163588392, 0.9462174, 0.2203666, 0.12475338, 0.20152172, -4.251183, -20.68496, 1.7792997, 0
1322, 2163621726, 0.9435697, 0.21736535, 0.13893661, 0.20781824, 2.3380194, 4.004201, -0.32562637, 0
1323, 2163638393, 0.94209224, 0.21677369, 0.14693306, 0.2096323, 1.445383, 0.39622784, 0.105752945, 0
1326, 2163688394, 0.92613196, 0.23100416, 0.2087405, 0.21309067, 3.5576656, 5.4333353, 3.9521866, 0
1327, 2163705061, 0.91322726, 0.24828286, 0.23908499, 0.21742432, -0.105177484, -0.1437934, 10.747993, 0
1329, 2163738395, 0.887571, 0.24551862, 0.30100632, 0.24778405, -7.2277665, 2.470324, 4.194995, 0
1330, 2163755062, 0.8798213, 0.20673135, 0.3260309, 0.27738744, -6.614306, 10.8638735, 12.555437, 0
1331, 2163771729, 0.8831742, 0.15522343, 0.33219546, 0.29260674, -5.3157887, 29.881868, 3.5067053, 0
1333, 2163805063, 0.9034273, 0.07731226, 0.3095024, 0.28655434, -13.376774, -5.969128, -3.9808154, 0
1334, 2163821730, 0.911857, 0.039820462, 0.2953999, 0.2823714, -10.104856, -13.086044, -5.7311645, 0
1335, 2163838397, 0.9132242, 0.027071074, 0.28641838, 0.28864622, -6.0691123, -21.630894, -3.9775577, 0
1337, 2163871731, 0.8951429, 0.06294615, 0.27926096, 0.34180915, 9.150656, -10.527933, -3.1462507, 0
1338, 2163888398, 0.8769219, 0.09597747, 0.28465164, 0.37527755, 18.63118, -1.3990803, -5.722362, 0
1341, 2163938399, 0.85018086, 0.12139376, 0.29828203, 0.41658998, 36.428955, 8.2579155, -8.988676, 0
1342, 2163955066, 0.8511804, 0.11601763, 0.30979496, 0.40758127, 38.11174, 4.9964786, -11.2298, 0
1343, 2163971733, 0.8504801, 0.104966275, 0.33387437, 0.3927557, 37.525448, 3.8838766, -10.545589, 0
1345, 2164005067, 0.8449332, 0.045229122, 0.39747986, 0.35512748, 29.384808, 10.041816, -2.9285789, 0
1346, 2164021734, 0.8464712, 0.006079152, 0.40558437, 0.3449845, 19.144789, 20.396963, 25.694855, 0
1348, 2164055068, 0.8498235, -0.022122458, 0.40450683, 0.33726603, -0.045023344, 2.3949876, 5.8267555, 0
1349, 2164071735, 0.84961027, -0.031552903, 0.4100902, 0.33023646, -2.8307981, -0.72973484, 0.9670019, 0
1350, 2164088402, 0.84542555, -0.043350987, 0.42527097, 0.32028815, -3.6521826, 1.2563139, 0.42946243, 0
1352, 2164121736, 0.81802344, -0.08517982, 0.48563534, 0.29631677, -6.4781194, 0.34066963, 2.5811815, 0
1353, 2164138403, 0.7938699, -0.116239116, 0.52543914, 0.28325966, -5.683024, 0.40447196, 2.5959864, 0
1356, 2164188404, 0.66338307, -0.21016823, 0.6839919, 0.219022, -27.271957, -7.6253886, 19.681606, 0
1357, 2164205071, 0.61173564, -0.2203355, 0.74056566, 0.16987503, -31.282394, -13.878608, 28.089622, 0
1358, 2164221738, 0.57239753, -0.23122725, 0.7734702, 0.14388245, -40.82563, -39.17526, 25.574501, 0
1360, 2164255072, 0.5613417, -0.20690605, 0.7859163, 0.15647472, 8.916311, 10.690192, -3.2087998, 0
1361, 2164271739, 0.55442286, -0.18586513, 0.8037019, 0.11043563, -15.602123, -1.9516664, 0.7197809, 0
1362, 2164288406, 0.5500391, -0.17312229, 0.81339717, 0.07703321, -26.252125, -0.36526084, -3.122015, 0
1364, 2164321740, 0.5462152, -0.1828346, 0.8163173, 0.043701828, -17.103697, 3.6436503, -10.390077, 0
1365, 2164338407, 0.5472239, -0.18976538, 0.81488675, 0.02362229, -16.222473, 4.83131, -11.665755, 0
1366, 2164355074, 0.554394, -0.19265492, 0.80968773, 7.68885E-4, -16.670479, 3.3085563, -12.524286, 0
1368, 2164388408, 0.5866044, -0.20050502, 0.78433365, -0.02402705, -17.352379, -1.3741957, -12.885995, 0
1369, 2164405075, 0.61042106, -0.2069339, 0.76441985, -0.017038196, -17.131151, -3.0170915, -12.556428, 0
1370, 2164421742, 0.6367109, -0.21433902, 0.740754, 0.0021853447, -12.852159, -2.9515152, -12.005459, 0
1372, 2164455076, 0.69071496, -0.21565983, 0.6888202, 0.044649363, -9.291211, 0.121360496, -8.943628, 0
1373, 2164471743, 0.72282153, -0.2017473, 0.6578301, 0.06442024, -12.234207, -0.75475305, -5.5243535, 0
1374, 2164488410, 0.75622857, -0.18385538, 0.62203985, 0.08628635, -7.618145, -0.45372748, -5.3521767, 0
1376, 2164521744, 0.81225055, -0.14282387, 0.554359, 0.112248495, -2.357656, 2.4680889, -2.7017808, 0
1377, 2164538411, 0.8350893, -0.11902627, 0.52356225, 0.12001878, -8.193136, -0.41457832, 2.3235407, 0
1379, 2164571745, 0.8749346, -0.070100635, 0.45670286, 0.14512506, -2.386068, -2.4233627, 10.657026, 0
1380, 2164588412, 0.89088356, -0.044082783, 0.4205417, 0.16610597, -0.84293455, -4.77919, 10.571272, 0
1383, 2164638413, 0.9071288, 0.042393602, 0.3287814, 0.25939608, 8.433894, -0.22303396, 7.8528786, 0
1384, 2164655080, 0.904431, 0.06658178, 0.30339274, 0.29255366, 9.699961, 1.6233536, 5.398423, 0
1385, 2164671747, 0.89876527, 0.088684335, 0.28318346, 0.32284126, 9.719016, 4.8034406, 4.4686823, 0
1387, 2164705081, 0.8881998, 0.12468853, 0.2494263, 0.3652446, 13.730228, 5.751388, 5.6643944, 0
1388, 2164721748, 0.8840375, 0.14063533, 0.23543566, 0.37859297, 14.430588, 5.88806, 3.4135237, 0
1389, 2164738415, 0.8807762, 0.15658379, 0.22296008, 0.38738477, 15.8605385, 4.8170485, 3.6083727, 0
1391, 2164771749, 0.87925595, 0.17778617, 0.19717559, 0.39558336, 17.761997, 3.4071894, -4.8810606, 0
1392, 2164788416, 0.87957764, 0.18447948, 0.1889492, 0.39581823, 16.814842, 3.8876386, -7.815777, 0
1393, 2164805083, 0.87958765, 0.19045377, 0.18574472, 0.39448103, 16.42691, 3.7694802, -8.849827, 0
1395, 2164838417, 0.8802328, 0.19489251, 0.18940112, 0.38909844, 19.672045, 2.8969746, -6.8738265, 0
1397, 2164871751, 0.8796156, 0.19411431, 0.20245846, 0.38427842, 22.39084, 1.1949445, -9.182426, 0
1399, 2164905085, 0.8784827, 0.18453763, 0.23267424, 0.3743529, 26.974056, 2.3102028, -5.787783, 0
1400, 2164921752, 0.87959474, 0.1735163, 0.25450462, 0.3626236, 29.178175, 2.9320107, -4.115769, 0
1401, 2164938419, 0.88236696, 0.15541327, 0.2788564, 0.3458, 31.29975, 3.6714444, -3.5571985, 0
1403, 2164971753, 0.8889308, 0.08977213, 0.33863938, 0.29517743, 23.144009, 5.904148, -1.0867443, 0
1404, 2164988420, 0.88758826, 0.037953824, 0.35283786, 0.29379454, -7.6729226, -2.9145484, 23.169968, 0
1406, 2165021754, 0.8841033, 0.03242959, 0.36173084, 0.29414886, -0.981149, 5.4594746, 2.5120459, 0
1407, 2165038421, 0.8830082, 0.023285449, 0.37022868, 0.28766012, -1.6540076, -2.542871, 1.5860014, 0
1408, 2165055088, 0.88157314, 0.012147978, 0.38171196, 0.27756202, -0.23463038, 2.173596, 0.08894348, 0
1410, 2165088422, 0.8692089, -0.0070664287, 0.41999742, 0.26094416, -3.1132643, 0.5926382, 1.1412277, 0
1412, 2165121756, 0.8386526, -0.052814446, 0.48687935, 0.23850448, -5.922369, -0.09518465, 2.8639927, 0
1414, 2165155090, 0.78147596, -0.123115264, 0.5751163, 0.20842883, -9.633127, 2.6557047, 9.026495, 0
1415, 2165171757, 0.7385284, -0.15020204, 0.6298638, 0.18801579, -12.847127, 4.08954, 15.5330925, 0
1416, 2165188424, 0.6927265, -0.16384017, 0.68459594, 0.1570932, -25.10376, -1.8323631, 14.4824505, 0
1418, 2165221758, 0.6039812, -0.16908738, 0.77478546, 0.07991871, -40.243744, -28.200623, 24.67986, 0
1419, 2165238425, 0.5993476, -0.18172824, 0.7717557, 0.11051667, -33.504654, -18.641903, 8.282455, 0
1420, 2165255092, 0.60072005, -0.17799729, 0.771057, 0.11395984, 13.243081, 4.9715896, -5.276487, 0
1422, 2165288426, 0.5795205, -0.15371348, 0.79911274, 0.04483451, -19.336924, -1.4742928, -5.107296, 0
1423, 2165305093, 0.5685046, -0.14566733, 0.8093614, 0.024104774, -23.81549, 0.85175556, -7.068897, 0
1424, 2165321760, 0.5596763, -0.14554173, 0.81573963, 0.01458253, -19.965889, 4.455035, -9.409468, 0
1427, 2165371761, 0.55910814, -0.14529353, 0.8161999, -0.012998059, -16.524506, 5.2197666, -12.175121, 0
1428, 2165388428, 0.57419926, -0.14181104, 0.8061517, -0.019174337, -19.236942, 4.926394, -10.913167, 0
1430, 2165421762, 0.6318487, -0.13376944, 0.76343375, -0.0102523565, -13.326058, 2.409211, -9.160806, 0
1431, 2165438429, 0.66601676, -0.13020642, 0.73452777, 5.5763125E-4, -10.05091, 1.6354169, -8.336334, 0
1433, 2165471763, 0.73183674, -0.12227106, 0.6701467, 0.02077946, -4.741585, 1.500893, -8.480755, 0
1434, 2165488430, 0.76238906, -0.11401047, 0.6363715, 0.029310808, -8.5473585, 0.8496907, -5.174561, 0
1435, 2165505097, 0.79215133, -0.10370578, 0.6001178, 0.04078421, -8.172488, 0.11594599, -4.911626, 0
1437, 2165538431, 0.8418414, -0.07771542, 0.5304507, 0.06283997, -6.069507, -0.0716953, -1.2577763, 0
1438, 2165555098, 0.8618305, -0.061084405, 0.49777517, 0.07616012, -7.9556637, -2.2674205, 2.554883, 0
1439, 2165571765, 0.8792125, -0.04346823, 0.46517333, 0.09366453, -7.885817, -2.2653391, 6.4379406, 0
1441, 2165605099, 0.9081549, -0.0018857121, 0.3947342, 0.13964003, -4.133796, -3.4320464, 10.449017, 0
1442, 2165621766, 0.9185447, 0.023039185, 0.35798433, 0.16629955, 0.050591823, -2.4965963, 11.179457, 0
1443, 2165638433, 0.9261294, 0.047062516, 0.32095543, 0.19266683, 2.6883492, -2.1476777, 10.379175, 0
1445, 2165671767, 0.93390393, 0.09143245, 0.2500764, 0.23872326, 7.0138426, 1.0235876, 7.296026, 0
1446, 2165688434, 0.93355083, 0.112775385, 0.22339827, 0.25675094, 10.010078, 1.551601, 4.108678, 0
1447, 2165705101, 0.93134356, 0.1302882, 0.20435074, 0.27189744, 11.29445, 1.9025682, 3.1669865, 0
1449, 2165738435, 0.92314, 0.16518359, 0.17610967, 0.29929197, 17.1305, -0.5543069, 9.377817, 0
1450, 2165755102, 0.91933095, 0.17405784, 0.15673783, 0.31627733, 18.336586, -0.6675162, 2.9091063, 0
1451, 2165771769, 0.91548216, 0.17653745, 0.14014766, 0.33338982, 18.454071, 1.8013227, -6.7879696, 0
1454, 2165821770, 0.8995762, 0.18129072, 0.14318497, 0.37075284, 20.411926, 3.7079132, -11.834917, 0
1456, 2165855104, 0.8896312, 0.18501027, 0.17032823, 0.38128608, 23.459806, 3.2195826, -8.193103, 0
1457, 2165871771, 0.88711613, 0.18480937, 0.18488063, 0.3804642, 23.537241, 3.6728504, -9.324184, 0
1458, 2165888438, 0.886758, 0.18217967, 0.20200633, 0.37380183, 23.680258, 2.461001, -9.702026, 0
1460, 2165921772, 0.88940054, 0.16630715, 0.24611244, 0.34756368, 25.460619, -1.5519247, -5.632903, 0
1461, 2165938439, 0.8892573, 0.1570954, 0.27340436, 0.33144513, 26.31296, -3.2418182, -4.9580197, 0
1462, 2165955106, 0.8873795, 0.1442003, 0.30484238, 0.31448075, 27.487713, -4.2381063, -2.774198, 0
1464, 2165988440, 0.88913643, 0.06312736, 0.34465256, 0.29449815, 22.004066, 3.5449092, 11.762976, 0
1465, 2166005107, 0.89122885, 0.0472295, 0.34704125, 0.28828147, -3.6711235, 21.751972, 1.9030905, 0
1466, 2166021774, 0.8908474, 0.04458195, 0.35312903, 0.2824298, -9.24099, -9.321735, 3.3374605, 0
1469, 2166071775, 0.8870742, 0.019710854, 0.3753585, 0.26810506, -1.1920445, -0.45709577, -0.09758186, 0
1470, 2166088442, 0.88454527, 0.008171007, 0.386011, 0.26186225, 0.54907346, -0.29462597, 0.27706718, 0
1472, 2166121776, 0.87725204, -0.011308074, 0.41103998, 0.24781123, -1.8770014, 1.2928336, 0.45017433, 0
1473, 2166138443, 0.8690324, -0.022548422, 0.43145043, 0.24122205, -2.408736, 1.3857955, 1.2232065, 0
1474, 2166155110, 0.856289, -0.039317653, 0.4588948, 0.23388508, -4.0830617, 0.6518439, 2.001728, 0
1476, 2166188444, 0.80911857, -0.09370047, 0.5396845, 0.21295848, -7.3857784, 2.7265267, 6.390091, 0
1477, 2166205111, 0.76776475, -0.12522575, 0.59704405, 0.19610542, -13.500215, 4.372859, 14.945463, 0
1478, 2166221778, 0.7165683, -0.14566833, 0.6610287, 0.16856763, -31.975481, -3.2309418, 21.306261, 0
1480, 2166255112, 0.61225104, -0.15898053, 0.7708045, 0.07614301, -33.666786, -24.652725, 24.569695, 0
1481, 2166271779, 0.5809224, -0.17154618, 0.7910036, 0.08647457, -63.61096, -28.01946, 11.537315, 0
1484, 2166321780, 0.5356793, -0.091548994, 0.8371328, 0.06275703, -33.41433, 9.954934, -5.019628, 0
1485, 2166338447, 0.5344293, -0.07587281, 0.8402481, 0.05172023, -33.317726, 11.652643, -8.734398, 0
1487, 2166371781, 0.56123835, -0.074975654, 0.8220394, 0.060865924, -22.501802, 11.63781, -12.195137, 0
1488, 2166388448, 0.5866513, -0.08288282, 0.80251175, 0.07077333, -14.243205, 10.029438, -12.868379, 0
1489, 2166405115, 0.617457, -0.09695123, 0.7766544, 0.07885744, -13.566687, 5.5891695, -10.49179, 0
1491, 2166438449, 0.68957984, -0.13740513, 0.70198977, 0.113460094, -14.571016, -3.8682797, -5.686194, 0
1492, 2166455116, 0.72655135, -0.15606952, 0.6543079, 0.14039204, -10.973654, -6.872814, -4.894537, 0
1493, 2166471783, 0.76017714, -0.16551024, 0.6055177, 0.16777572, -6.2190785, -7.248266, -5.0795083, 0
1495, 2166505117, 0.81298965, -0.14605936, 0.5159266, 0.22715117, -2.9310825, -10.802117, -1.5047388, 0
1496, 2166521784, 0.8298713, -0.12508091, 0.47523344, 0.2643574, -0.24802543, -11.8464575, 1.6197414, 0
1499, 2166571785, 0.8438199, -0.051585913, 0.3701935, 0.38513243, 18.663893, -8.3713875, 2.4599981, 0
1500, 2166588452, 0.83668596, -0.030218475, 0.34596634, 0.42357308, 23.155489, -6.134834, 2.2708454, 0
1501, 2166605119, 0.8235612, -0.0123625025, 0.33419904, 0.4582231, 30.866703, 3.8940449, -0.40597916, 0
1503, 2166638453, 0.8095406, 0.015954867, 0.3043179, 0.50184005, 24.695143, -10.889924, -4.699296, 0
1504, 2166655120, 0.7970896, 0.019094616, 0.30137795, 0.5229898, 21.214218, 7.6060715, -9.253609, 0
1505, 2166671787, 0.78772104, 0.021697246, 0.307324, 0.53351676, 18.39781, 7.206383, -7.6446714, 0
1507, 2166705121, 0.78380334, 0.01775477, 0.32043612, 0.5317156, 16.966488, 7.029533, 7.496546, 0
1508, 2166721788, 0.7795493, 0.01328481, 0.3314402, 0.5313542, 25.607277, -2.4634976, -9.992561, 0
1509, 2166738455, 0.7781576, 0.0050908476, 0.341174, 0.5273597, 15.491293, 14.455474, 14.523127, 0
1511, 2166771789, 0.7853112, -0.0010950342, 0.33892, 0.51815206, -0.42798707, -6.9641905, 1.9812117, 0
1512, 2166788456, 0.79447484, -0.021822259, 0.32810885, 0.5106287, -12.327183, 0.9619002, -10.785195, 0
1514, 2166821790, 0.818514, -0.03643436, 0.30286464, 0.4868713, -2.8356426, 0.35353893, 6.33272, 0
1515, 2166838457, 0.82446367, -0.032750584, 0.2887218, 0.48568517, -2.9089947, 3.0828743, 3.5289154, 0
1516, 2166855124, 0.82928795, -0.031676278, 0.27806887, 0.48375505, -5.651899, 3.034028, -0.67203236, 0
1518, 2166888458, 0.8390538, -0.023284212, 0.2566828, 0.47919095, -4.1271935, 0.18738918, 3.4248095, 0
1519, 2166905125, 0.84270245, -0.014412731, 0.24498887, 0.4792584, -1.6824222, 2.025673, -1.4556484, 0
1520, 2166921792, 0.8465103, -0.0039407834, 0.23411523, 0.47818208, -1.0258174, 4.0274825, 0.49999046, 0
1522, 2166955126, 0.85469395, 0.006121978, 0.21665487, 0.47178918, -5.069026, -3.07367, -0.0044002533, 0
1523, 2166971793, 0.85678923, 0.005815737, 0.21812472, 0.46729356, -4.4078608, -1.2810018, 2.5494719, 0
1526, 2167021794, 0.8615951, -0.0017806292, 0.25378412, 0.4396682, -2.584479, -2.5988166, -0.19293213, 0
1527, 2167038461, 0.864327, -0.0074817166, 0.27166775, 0.42325273, 0.27992535, -3.742054, 0.8545685, 0
1528, 2167055128, 0.87069774, -0.011738248, 0.2863933, 0.39973688, 2.47405, -3.4108598, 1.8947592, 0
1530, 2167088462, 0.8960696, -0.006699115, 0.29198575, 0.3343982, 1.1134629, -5.962466, -1.3412304, 0
1531, 2167105129, 0.90893126, 0.011340089, 0.28639585, 0.302913, 1.0830064, 0.09716189, -8.200126, 0
1532, 2167121796, 0.92027456, 0.0336605, 0.27959746, 0.2717545, 6.676419, 4.635821, -4.7876434, 0
1534, 2167155130, 0.9334787, 0.089586176, 0.24469686, 0.2465331, -4.193364, -13.822659, 2.8864565, 0
1535, 2167171797, 0.9326633, 0.11011644, 0.22338676, 0.26110372, 4.3215404, 15.79999, 0.27984905, 0
1536, 2167188464, 0.93524396, 0.11802408, 0.19794372, 0.26883194, -3.776616, 3.2195897, 3.3374767, 0
1538, 2167221798, 0.9394278, 0.11689891, 0.1833556, 0.265055, 2.841367, -5.0457177, 9.528906, 0
1541, 2167271799, 0.9407774, 0.115624696, 0.18499355, 0.25963336, 0.6364749, 4.3000455, -1.0568876, 0
1542, 2167288466, 0.942879, 0.112394944, 0.1806513, 0.25646654, 1.5549878, -3.214696, -0.08719635, 0
1543, 2167305133, 0.9445698, 0.10850316, 0.17782924, 0.25388002, 6.0281343, -3.481287, 4.1179295, 0
1545, 2167338467, 0.94659364, 0.10087241, 0.17965104, 0.24814126, 6.1360183, 3.0373604, -0.20461655, 0
1546, 2167355134, 0.9462336, 0.097587205, 0.18339163, 0.24809185, 1.7202705, 2.5720441, -1.9255662, 0
1547, 2167371801, 0.9450577, 0.09445134, 0.18838397, 0.2500394, 0.6730212, 1.3143908, -3.414104, 0
1549, 2167405135, 0.9408305, 0.08950272, 0.2010892, 0.2577863, 4.014864, -2.1165638, 3.6971045, 0
1550, 2167421802, 0.93897593, 0.08688849, 0.20710237, 0.26066574, 1.8135585, -2.176251, 1.1610737, 0
1551, 2167438469, 0.93617046, 0.0845187, 0.21657942, 0.26381442, 1.1278957, -1.1242374, -0.12966347, 0
1553, 2167471803, 0.9310644, 0.080452986, 0.23242706, 0.26960588, 0.95457053, -0.5773095, 0.51389503, 0
1555, 2167505137, 0.9288917, 0.07859092, 0.23968986, 0.2712853, 1.5667424, -2.753504, 1.5513554, 0
1557, 2167538471, 0.9299885, 0.07730784, 0.2380816, 0.26930547, 0.32663915, -0.0337783, -0.47932434, 0
1558, 2167555138, 0.9307296, 0.077122696, 0.23540166, 0.26915413, -0.85620636, -0.33582643, 1.9306936, 0
1559, 2167571805, 0.93131006, 0.07709904, 0.23274738, 0.26946092, -1.8085647, -0.4768004, 0.027719498, 0
1561, 2167605139, 0.931693, 0.0774356, 0.22969195, 0.2706601, -0.3666802, -0.6103118, 1.3832083, 0
1562, 2167621806, 0.9312435, 0.078304596, 0.22992018, 0.27176082, -0.98404014, -0.515463, -1.0967607, 0
1563, 2167638473, 0.93027556, 0.07955745, 0.23149586, 0.2733701, -0.39962435, -0.620914, 0.17179108, 0
1565, 2167671807, 0.928852, 0.082345046, 0.23213845, 0.27681807, -1.3711396, -0.31440204, -0.3249693, 0
1566, 2167688474, 0.9281336, 0.08390475, 0.23254845, 0.27841055, -1.8258855, -0.60581577, 1.0941086, 0
1568, 2167721808, 0.926783, 0.086099826, 0.23452032, 0.2805771, -1.010462, -0.27369386, 0.69665813, 0
1570, 2167755142, 0.92676723, 0.087205805, 0.23466788, 0.2801645, -1.9725243, 0.04882853, 2.1860743, 0
1572, 2167788476, 0.9284903, 0.08731873, 0.23100096, 0.27745873, -2.1050196, 1.4569007, 0.88219357, 0
1573, 2167805143, 0.93015814, 0.08690332, 0.22601685, 0.27610403, -3.43408, 1.7848095, 0.79480267, 0
1574, 2167821810, 0.93145794, 0.086670004, 0.22196938, 0.27507684, -4.521575, 1.8129188, -1.5274267, 0
1576, 2167855144, 0.93445635, 0.08607113, 0.21216828, 0.27282086, -3.9624104, 1.9189117, 1.448739, 0
1577, 2167871811, 0.9365273, 0.0860289, 0.20588247, 0.27053905, -2.6205192, 3.0248716, 0.04218769, 0
1578, 2167888478, 0.93851215, 0.08647787, 0.19885747, 0.2687665, -0.9443277, 2.0907516, 1.2984838, 0
1580, 2167921812, 0.9415338, 0.087797225, 0.18566467, 0.2672037, -0.1907122, 0.618155, 1.5084305, 0
1581, 2167938479, 0.9424404, 0.08797628, 0.18166995, 0.266694, -1.3845587, 0.9062817, 0.71128654, 0
1582, 2167955146, 0.9426839, 0.08875574, 0.1821925, 0.26521492, -2.9588168, 2.0314553, -0.13690948, 0
1584, 2167988480, 0.94080263, 0.08653202, 0.19859655, 0.26081657, 0.32946247, 1.8252014, 2.1657333, 0
1585, 2168005147, 0.9390488, 0.082116224, 0.20820534, 0.26107097, 0.98842055, 0.38151184, 1.0846624, 0
1586, 2168021814, 0.9365394, 0.07669604, 0.21813703, 0.2636119, 1.1578652, 2.0070286, -2.9220872, 0
1588, 2168055148, 0.92993546, 0.06421805, 0.23072761, 0.27914906, 5.319288, -1.520016, -0.3308468, 0
1589, 2168071815, 0.9270302, 0.064212665, 0.22816782, 0.29067963, 2.7603152, -0.83418345, -3.7101803, 0
1590, 2168088482, 0.9266596, 0.06876317, 0.21957023, 0.29736483, 3.4978333, -2.6009119, -4.5537276, 0
1592, 2168121816, 0.93481314, 0.08017231, 0.1692746, 0.30183816, -8.685103, -2.5806859, -4.0309014, 0
1593, 2168138483, 0.9357935, 0.08103176, 0.16510876, 0.30087656, -2.4672778, 1.8150649, 5.9378853, 0
1595, 2168171817, 0.9350744, 0.08737494, 0.16576539, 0.30097622, 7.13707, 1.1093783, 0.681983, 0
1597, 2168205151, 0.9333855, 0.09456397, 0.1651769, 0.30435044, -2.3992913, -4.7657437, -2.722642, 0
1599, 2168238485, 0.9312294, 0.10154413, 0.16392206, 0.30934379, 5.4774637, -2.2741191, 3.0194063, 0
1600, 2168255152, 0.93003213, 0.10354137, 0.16488248, 0.31176376, 7.4482923, 0.93730867, 1.8486929, 0
1601, 2168271819, 0.92904776, 0.10439374, 0.16506901, 0.31430554, 3.0844922, -0.15954776, -0.9702616, 0
1603, 2168305153, 0.9270772, 0.10573202, 0.16529654, 0.3195135, 0.7089058, -3.0586183, -0.802454, 0
1604, 2168321820, 0.9260744, 0.10593477, 0.16572554, 0.32212204, 2.916988, -1.7239323, 0.0958128, 0
1605, 2168338487, 0.92529106, 0.10514401, 0.16620377, 0.32437798, 4.921484, -0.1889026, 0.8667393, 0
1607, 2168371821, 0.9241584, 0.10301111, 0.16603133, 0.32835487, 0.28588784, -0.980018, -1.673995, 0
1608, 2168388488, 0.9234433, 0.1023185, 0.16604128, 0.33057064, 1.2864739, -0.9460435, -0.9084768, 0
1609, 2168405155, 0.92270195, 0.102051586, 0.16540614, 0.3330329, 0.55122715, 0.19948168, 0.14223576, 0
1612, 2168455156, 0.9204972, 0.10312197, 0.16586092, 0.33853278, 1.1100285, 0.75375986, 1.5287647, 0
1613, 2168471823, 0.91962516, 0.10459979, 0.1666369, 0.3400648, -0.10891857, 1.0218893, 0.30502033, 0
1615, 2168505157, 0.9181522, 0.10822976, 0.16865526, 0.34190863, -0.23831876, 0.25364757, -0.4022293, 0
1616, 2168521824, 0.9178337, 0.109764606, 0.16877395, 0.34221607, 0.08018262, -0.085295, 0.6072407, 0
1617, 2168538491, 0.91776973, 0.110916436, 0.16882926, 0.34198874, -0.14104909, 1.3069619, -0.19717789, 0
1619, 2168571825, 0.9187725, 0.111661725, 0.16761231, 0.33964446, -1.5510267, 2.232611, 0.4238453, 0
1620, 2168588492, 0.9195754, 0.11118904, 0.16746077, 0.3376959, -1.5146381, 1.3202595, -0.6152544, 0
1622, 2168621826, 0.9219297, 0.10963075, 0.16575913, 0.3325864, -0.33687735, 0.8997929, 2.1321192, 0
1623, 2168638493, 0.9234251, 0.10925542, 0.16399968, 0.32941905, -2.1399713, 1.9834466, -0.10656929, 0
1624, 2168655160, 0.92464685, 0.10949986, 0.1633061, 0.32623994, -0.34765756, 1.960994, 0.13442421, 0
1627, 2168705161, 0.92790395, 0.10950944, 0.1601277, 0.31847203, -0.5443076, -0.053071283, 1.5098639, 0
1628, 2168721828, 0.92875123, 0.11015758, 0.15913361, 0.3162693, -1.9380741, 0.08699295, 0.67990303, 0
1630, 2168755162, 0.9302156, 0.110808074, 0.15797266, 0.31229573, -1.866326, 0.0015070082, 0.4252386, 0
1631, 2168771829, 0.930738, 0.110876516, 0.15821756, 0.3105862, -1.6589304, -0.16284929, -0.40349865, 0
1632, 2168788496, 0.93123627, 0.111135036, 0.15823558, 0.30898666, 0.041909907, -0.0018119147, 0.45904064, 0
1634, 2168821830, 0.93238646, 0.111526, 0.15662047, 0.30618748, -1.4310839, -0.15651235, 1.0230303, 0
1635, 2168838497, 0.9327401, 0.11195478, 0.15675685, 0.3048813, -1.3770059, 0.9157855, 0.5986023, 0
1636, 2168855164, 0.93312216, 0.11209173, 0.15728417, 0.3033868, 0.014243168, 1.024928, 1.0051517, 0
1638, 2168888498, 0.9344822, 0.10986403, 0.15771759, 0.29976872, -0.568525, 0.58692545, -0.042639732, 0
1639, 2168905165, 0.9356078, 0.10803419, 0.15593852, 0.2978475, -0.8843244, 0.4031521, 2.018281, 0
1642, 2168955166, 0.9385718, 0.10676116, 0.1527665, 0.2905354, -2.3627467, 0.14786029, 0.2096405, 0
1643, 2168971833, 0.9392853, 0.10748956, 0.15248236, 0.28810006, -1.120804, 1.3093332, -0.2850504, 0
1645, 2169005167, 0.94236654, 0.111041784, 0.14690436, 0.27945927, -0.969485, 4.626779, 1.0988235, 0
1646, 2169021834, 0.94474936, 0.11357933, 0.14438191, 0.27159834, -0.21136627, 1.3021266, 1.0421524, 0
1647, 2169038501, 0.9479157, 0.114758916, 0.14273098, 0.260725, 0.7331995, 4.3315964, 0.32518768, 0
1649, 2169071835, 0.95929074, 0.11255954, 0.13868605, 0.21890913, -2.978122, -1.341147, -2.1435728, 0
1650, 2169088502, 0.9633805, 0.109693095, 0.13845813, 0.20188636, -3.9763026, -6.2952614, 0.7119131, 0
1651, 2169105169, 0.965058, 0.10707515, 0.13946, 0.1944535, -5.6981506, -4.724013, 1.1109247, 0
1653, 2169138503, 0.96567357, 0.10306884, 0.14679329, 0.18806006, 1.4399912, 0.23923682, 1.192647, 0
1654, 2169155170, 0.96605295, 0.102051675, 0.14514045, 0.18794848, -1.992142, 1.2450583, 1.0667925, 0
1655, 2169171837, 0.96564084, 0.10402168, 0.1457756, 0.18849386, -0.4752719, -1.576132, -1.4707613, 0
1657, 2169205171, 0.96537524, 0.10684721, 0.1398485, 0.19271746, 2.4312763, 1.0812109, -0.6269808, 0
1658, 2169221838, 0.96578336, 0.10741839, 0.13647795, 0.19277227, 3.7962487, 0.22825895, -1.6524248, 0
1659, 2169238505, 0.9660736, 0.10832088, 0.13409768, 0.19248275, 3.2663429, -2.92428, -1.9543524, 0
1661, 2169271839, 0.96570444, 0.11180295, 0.13207138, 0.19374107, 5.4267263, -0.59354377, 2.8567343, 0
1662, 2169288506, 0.9651653, 0.11485238, 0.13251367, 0.19434124, 5.032917, -1.4714504, 0.9560127, 0
1663, 2169305173, 0.9646423, 0.116517015, 0.13461173, 0.19450527, 8.891024, -2.8756058, 2.9196396, 0
1665, 2169338507, 0.96363103, 0.117274806, 0.14060912, 0.19481876, 5.625697, -2.317946, 0.6417866, 0
1666, 2169355174, 0.9632628, 0.116369314, 0.14436567, 0.19443473, 4.0674157, -1.0784874, -1.5089684, 0
1669, 2169405175, 0.96117914, 0.11402794, 0.16000855, 0.19388843, 2.397968, 2.1105428, 1.6888018, 0
1670, 2169421842, 0.95999783, 0.11370015, 0.1670428, 0.19400163, 2.2721827, 2.6964352, 2.0786743, 0
1671, 2169438509, 0.958277, 0.11406939, 0.17474318, 0.19550437, -1.4510672, 0.770513, 0.7610531, 0
1673, 2169471843, 0.9497334, 0.11388759, 0.2049231, 0.20762049, -5.5775285, 1.9702338, 2.8579903, 0
1674, 2169488510, 0.9422087, 0.10854029, 0.22743276, 0.22090621, -3.7374775, 2.0083685, 2.0265636, 0
1676, 2169521844, 0.91927344, 0.07842465, 0.269971, 0.27561727, -0.8794427, 3.2976575, 1.9513931, 0
1677, 2169538511, 0.90580666, 0.05622652, 0.28115892, 0.31203517, -3.0805674, 3.8532865, 0.39035416, 0
1678, 2169555178, 0.8919978, 0.035372026, 0.2863551, 0.34807026, -5.1816874, -0.58533597, -5.212077, 0
1680, 2169588512, 0.86685073, 0.012796469, 0.28290427, 0.41040787, 0.20457964, -0.38611963, -0.99483967, 0
1681, 2169605179, 0.8619756, 0.01483047, 0.2788266, 0.42319864, 0.33699015, -2.5874362, -0.3176098, 0
1684, 2169655180, 0.8701849, 0.032191597, 0.26048356, 0.41707745, -1.3204333, -1.469998, -0.8069153, 0
1685, 2169671847, 0.8712182, 0.03998495, 0.2549127, 0.4176876, -1.9907925, 4.3451333, -0.037077904, 0
1686, 2169688514, 0.8710911, 0.04877519, 0.25110453, 0.41932216, -1.9263004, 5.9236355, 1.522872, 0
1688, 2169721848, 0.86915463, 0.067045085, 0.2469586, 0.42326114, -0.057413444, -0.17690542, 0.89529324, 0
